// General information: 
//  MT Manager version: 2022.2.0 
//  XDA version: 2022.2.0 build 7381 rev 124627 built on 2023-07-19
// Device information: 
//  DeviceId: 00B4CB9F
//  ProductCode: MTW2-3A7G6
//  Firmware Version: 4.6.0
//  Hardware Version: 2.0.0
// Device settings: 
//  Filter Profile: human(46.1)
//  Option Flags: Orientation Smoother Disabled, Position/Velocity Smoother Disabled, Continuous Zero Rotation Update Disabled, AHS Disabled, ICC Disabled
// Coordinate system: ENU
PacketCounter	Acc_X	Acc_Y	Acc_Z	Gyr_X	Gyr_Y	Gyr_Z	Mat[1][1]	Mat[2][1]	Mat[3][1]	Mat[1][2]	Mat[2][2]	Mat[3][2]	Mat[1][3]	Mat[2][3]	Mat[3][3]
24432	9.508531	-2.061117	1.364407	-0.017158	0.004856	-0.002979	0.098880	0.219059	0.970688	-0.165588	0.965491	-0.201018	-0.981225	-0.140857	0.131742
24433	9.491034	-2.085705	1.319473	-0.002285	0.012118	0.000713	0.098958	0.219096	0.970672	-0.165580	0.965486	-0.201045	-0.981219	-0.140829	0.131820
24434	9.424274	-2.087180	1.372669	-0.000548	0.009650	0.006735	0.099082	0.219299	0.970614	-0.165415	0.965472	-0.201251	-0.981234	-0.140613	0.131936
24435	9.438358	-2.071917	1.346098	-0.002636	0.002633	0.005987	0.099058	0.219374	0.970599	-0.165408	0.965457	-0.201330	-0.981238	-0.140602	0.131922
24436	9.468923	-2.034760	1.340430	-0.004505	0.001514	0.001346	0.098999	0.219453	0.970587	-0.165545	0.965419	-0.201399	-0.981221	-0.140738	0.131905
24437	9.497877	-1.957703	1.379610	-0.003293	0.009489	0.005681	0.099043	0.219535	0.970564	-0.165532	0.965405	-0.201476	-0.981218	-0.140705	0.131956
24438	9.461794	-1.921606	1.426908	-0.009584	0.012194	-0.000128	0.099119	0.219634	0.970534	-0.165451	0.965398	-0.201574	-0.981224	-0.140596	0.132028
24439	9.465331	-1.955804	1.431334	-0.021715	0.005094	-0.002771	0.099134	0.219628	0.970534	-0.165249	0.965429	-0.201593	-0.981257	-0.140395	0.132000
24440	9.438256	-2.027792	1.440791	-0.031884	0.001661	0.001489	0.099159	0.219721	0.970510	-0.165147	0.965425	-0.201696	-0.981272	-0.140276	0.132017
24441	9.481289	-2.133224	1.401797	-0.028160	0.003654	0.005995	0.099145	0.219798	0.970494	-0.164890	0.965445	-0.201809	-0.981316	-0.140017	0.131962
24442	9.463661	-2.158936	1.356002	-0.017267	0.001983	0.012723	0.099153	0.220010	0.970445	-0.164747	0.965422	-0.202038	-0.981339	-0.139845	0.131970
24443	9.480813	-2.135718	1.401216	-0.017413	-0.001844	0.009325	0.099079	0.220111	0.970430	-0.164599	0.965419	-0.202169	-0.981372	-0.139701	0.131883
24444	9.445315	-2.142994	1.378473	-0.015470	0.001346	0.006679	0.099051	0.220254	0.970400	-0.164654	0.965381	-0.202308	-0.981365	-0.139742	0.131888
24445	9.460471	-2.125066	1.375580	-0.003564	0.002307	0.008442	0.099020	0.220353	0.970381	-0.164642	0.965361	-0.202412	-0.981371	-0.139722	0.131869
24446	9.429600	-2.163410	1.381312	0.002670	-0.001916	0.008342	0.099042	0.220543	0.970336	-0.164794	0.965300	-0.202578	-0.981343	-0.139842	0.131950
24447	9.464807	-2.157745	1.403572	0.011735	-0.003665	0.006786	0.098955	0.220618	0.970328	-0.164930	0.965263	-0.202646	-0.981329	-0.139984	0.131905
24448	9.488177	-2.052218	1.390399	0.029254	0.000964	0.004503	0.098946	0.220759	0.970296	-0.165361	0.965172	-0.202730	-0.981257	-0.140390	0.132005
24449	9.470292	-2.033818	1.413572	0.017810	-0.011954	-0.001488	0.098792	0.220742	0.970316	-0.165549	0.965144	-0.202710	-0.981241	-0.140609	0.131892
24450	9.454158	-2.055169	1.390997	0.002053	-0.018256	-0.001603	0.098627	0.220781	0.970324	-0.165769	0.965099	-0.202743	-0.981220	-0.140854	0.131783
24451	9.454484	-2.055013	1.389010	-0.005433	-0.023042	-0.002198	0.098365	0.220742	0.970360	-0.165728	0.965105	-0.202747	-0.981254	-0.140872	0.131515
24452	9.440510	-2.071127	1.413557	-0.017416	-0.026077	0.003329	0.098118	0.220849	0.970360	-0.165568	0.965098	-0.202910	-0.981305	-0.140752	0.131259
24453	9.436671	-2.083103	1.313478	-0.024956	-0.032142	0.001600	0.097761	0.220834	0.970399	-0.165340	0.965123	-0.202977	-0.981379	-0.140602	0.130864
24454	9.437035	-2.083587	1.310095	-0.026638	-0.028159	0.001487	0.097443	0.220892	0.970418	-0.165139	0.965131	-0.203106	-0.981445	-0.140463	0.130524
24455	9.475200	-1.962416	1.265555	-0.048094	-0.039656	-0.000490	0.097016	0.220846	0.970472	-0.164681	0.965193	-0.203182	-0.981564	-0.140107	0.130008
24456	9.551566	-2.024102	1.265015	-0.044217	-0.033279	-0.005785	0.096679	0.220827	0.970509	-0.164409	0.965226	-0.203247	-0.981643	-0.139911	0.129623
24457	9.551593	-1.981504	1.330784	-0.035287	-0.014616	-0.004730	0.096504	0.220776	0.970539	-0.164073	0.965279	-0.203265	-0.981716	-0.139623	0.129376
24458	9.478571	-1.957126	1.304427	-0.041715	-0.015264	-0.004383	0.096310	0.220788	0.970555	-0.163743	0.965318	-0.203348	-0.981791	-0.139337	0.129122
24459	9.519464	-2.024855	1.282569	-0.067022	-0.031084	-0.008371	0.095979	0.220679	0.970613	-0.163091	0.965423	-0.203371	-0.981931	-0.138779	0.128651
24460	9.514346	-2.149202	1.268701	-0.041210	-0.025499	0.002044	0.095687	0.220742	0.970627	-0.162773	0.965446	-0.203517	-0.982013	-0.138518	0.128312
24461	9.522680	-2.063056	1.254915	-0.048569	-0.026477	0.004844	0.095380	0.220767	0.970652	-0.162315	0.965496	-0.203645	-0.982118	-0.138128	0.127923
24462	9.553200	-1.984317	1.314960	-0.051965	-0.019555	0.008278	0.095121	0.220882	0.970651	-0.161908	0.965522	-0.203848	-0.982211	-0.137766	0.127604
24463	9.469293	-2.011661	1.318929	-0.066408	-0.014325	0.011142	0.094923	0.220985	0.970647	-0.161281	0.965582	-0.204060	-0.982333	-0.137177	0.127297
24464	9.463440	-2.095178	1.374574	-0.071240	-0.020248	0.010442	0.094657	0.221154	0.970634	-0.160442	0.965655	-0.204373	-0.982496	-0.136385	0.126889
24465	9.503817	-2.164788	1.352857	-0.062617	-0.010041	0.013133	0.094498	0.221283	0.970620	-0.159854	0.965705	-0.204599	-0.982607	-0.135824	0.126631
24466	9.497755	-2.138198	1.298734	-0.070554	-0.001847	0.013149	0.094479	0.221503	0.970572	-0.159242	0.965742	-0.204900	-0.982708	-0.135197	0.126515
24467	9.457370	-2.114927	1.246835	-0.081553	-0.001232	0.010060	0.094411	0.221614	0.970553	-0.158465	0.965823	-0.205119	-0.982840	-0.134433	0.126303
24468	9.465550	-2.182365	1.276385	-0.075249	-0.003139	0.007425	0.094375	0.221766	0.970522	-0.157914	0.965866	-0.205346	-0.982933	-0.133880	0.126173
24469	9.495132	-2.148667	1.244424	-0.061869	-0.011467	-0.000061	0.094223	0.221765	0.970537	-0.157321	0.965942	-0.205442	-0.983042	-0.133328	0.125902
24470	9.454165	-2.126207	1.166929	-0.058908	-0.028349	-0.007863	0.093936	0.221751	0.970568	-0.156640	0.966029	-0.205554	-0.983178	-0.132721	0.125480
24471	9.501168	-2.153760	1.015749	-0.048489	-0.042540	-0.007774	0.093491	0.221636	0.970637	-0.156171	0.966104	-0.205558	-0.983295	-0.132368	0.124935
24472	9.488705	-2.056061	0.951238	-0.033406	-0.054629	-0.010403	0.092979	0.221571	0.970701	-0.155844	0.966147	-0.205604	-0.983396	-0.132161	0.124361
24473	9.548403	-1.943134	0.954984	-0.028088	-0.058343	-0.016503	0.092392	0.221351	0.970808	-0.155567	0.966214	-0.205498	-0.983495	-0.132039	0.123705
24474	9.486664	-1.977654	1.005039	-0.018898	-0.057532	-0.015805	0.091866	0.221223	0.970887	-0.155333	0.966257	-0.205471	-0.983581	-0.131935	0.123130
24475	9.516414	-2.166154	1.165678	0.006703	-0.060409	-0.003800	0.091239	0.221123	0.970969	-0.155410	0.966250	-0.205445	-0.983627	-0.132154	0.122525
24476	9.540070	-2.326362	1.275122	0.055441	-0.058266	0.008024	0.090647	0.221214	0.971003	-0.156100	0.966121	-0.205529	-0.983573	-0.132943	0.122107
24477	9.505325	-2.401749	1.429227	0.109898	-0.050732	0.026482	0.090068	0.221418	0.971011	-0.157219	0.965909	-0.205672	-0.983448	-0.134137	0.121809
24478	9.464095	-2.448764	1.533549	0.173359	-0.044973	0.043293	0.089518	0.221861	0.970961	-0.159009	0.965554	-0.205965	-0.983210	-0.135954	0.121712
24479	9.439880	-2.361102	1.575041	0.223950	-0.036159	0.050971	0.089042	0.222319	0.970899	-0.161271	0.965127	-0.206207	-0.982885	-0.138216	0.121791
24480	9.347095	-2.279843	1.621329	0.235313	-0.042762	0.050531	0.088557	0.222843	0.970824	-0.163821	0.964639	-0.206480	-0.982507	-0.140756	0.121931
24481	9.376196	-2.245678	1.592443	0.230428	-0.043129	0.041095	0.088027	0.223194	0.970791	-0.166135	0.964214	-0.206618	-0.982166	-0.143095	0.121957
24482	9.276602	-2.290113	1.604112	0.233863	-0.042561	0.044337	0.087573	0.223689	0.970718	-0.168561	0.963738	-0.206874	-0.981793	-0.145509	0.122102
24483	9.292808	-2.311605	1.557008	0.233608	-0.063172	0.041592	0.086843	0.224013	0.970709	-0.170905	0.963295	-0.207012	-0.981453	-0.147921	0.121941
24484	9.406409	-2.251472	1.518333	0.242234	-0.066878	0.029177	0.086113	0.224274	0.970714	-0.173405	0.962836	-0.207071	-0.981079	-0.150495	0.121803
24485	9.383300	-2.161017	1.557311	0.249681	-0.057143	0.034106	0.085454	0.224532	0.970713	-0.175898	0.962373	-0.207118	-0.980692	-0.153047	0.121733
24486	9.321832	-2.235172	1.570657	0.250602	-0.050589	0.037156	0.084851	0.224926	0.970674	-0.178368	0.961880	-0.207296	-0.980299	-0.155548	0.121736
24487	9.290201	-2.231911	1.621844	0.255362	-0.059951	0.044377	0.084145	0.225274	0.970655	-0.180923	0.961373	-0.207436	-0.979891	-0.158159	0.121652
24488	9.372149	-2.169473	1.633057	0.255353	-0.073174	0.043706	0.083326	0.225687	0.970630	-0.183464	0.960842	-0.207661	-0.979489	-0.160772	0.121469
24489	9.461391	-2.023267	1.606681	0.249539	-0.073924	0.036749	0.082496	0.225936	0.970643	-0.185953	0.960348	-0.207735	-0.979089	-0.163357	0.121238
24490	9.449918	-1.924124	1.567172	0.228761	-0.066968	0.037487	0.081722	0.226249	0.970635	-0.188478	0.959828	-0.207861	-0.978671	-0.165957	0.121082
24491	9.372619	-1.976444	1.626087	0.208341	-0.073023	0.037765	0.080898	0.226505	0.970645	-0.190563	0.959387	-0.207996	-0.978336	-0.168142	0.120776
24492	9.341606	-2.124419	1.719727	0.196712	-0.085497	0.041478	0.079966	0.226842	0.970643	-0.192596	0.958929	-0.208237	-0.978014	-0.170290	0.120370
24493	9.389198	-2.176282	1.819134	0.186573	-0.086329	0.048045	0.078990	0.227170	0.970646	-0.194474	0.958492	-0.208500	-0.977722	-0.172296	0.119890
24494	9.429767	-2.094581	1.750256	0.181066	-0.102381	0.043244	0.077907	0.227504	0.970656	-0.196401	0.958038	-0.208783	-0.977424	-0.174372	0.119320
24495	9.510062	-1.889005	1.658726	0.164122	-0.112114	0.034055	0.076705	0.227650	0.970717	-0.198047	0.957665	-0.208939	-0.977187	-0.176221	0.118543
24496	9.441017	-1.707237	1.628073	0.136013	-0.112311	0.032261	0.075532	0.227848	0.970763	-0.199604	0.957294	-0.209156	-0.976961	-0.177971	0.117786
24497	9.312564	-1.678928	1.548585	0.082112	-0.124781	0.028197	0.074218	0.227911	0.970849	-0.200443	0.957075	-0.209354	-0.976890	-0.179062	0.116715
24498	9.304024	-1.812304	1.484025	0.034046	-0.130450	0.031765	0.072848	0.228044	0.970922	-0.200979	0.956894	-0.209670	-0.976883	-0.179861	0.115540
24499	9.315812	-1.958503	1.443067	0.024907	-0.149854	0.039482	0.071266	0.228167	0.971010	-0.201266	0.956751	-0.210045	-0.976941	-0.180462	0.114106
24500	9.418006	-2.025535	1.530656	0.016428	-0.157585	0.057220	0.069549	0.228508	0.971055	-0.201607	0.956546	-0.210654	-0.976994	-0.181121	0.112596
24501	9.477529	-2.032287	1.586316	0.002781	-0.158046	0.056948	0.067851	0.228782	0.971110	-0.201689	0.956402	-0.211225	-0.977097	-0.181531	0.111036
24502	9.554688	-1.906720	1.570466	-0.006808	-0.163627	0.038754	0.066170	0.228926	0.971192	-0.201789	0.956284	-0.211664	-0.977191	-0.181970	0.109472
24503	9.482990	-1.844803	1.575152	-0.035267	-0.154539	0.034236	0.064552	0.228988	0.971286	-0.201482	0.956262	-0.212055	-0.977363	-0.182009	0.107866
24504	9.242732	-1.914787	1.513722	-0.052561	-0.157393	0.042773	0.062916	0.229206	0.971343	-0.201126	0.956214	-0.212608	-0.977543	-0.181986	0.106260
24505	9.185844	-2.027819	1.518678	-0.058362	-0.163336	0.049447	0.061181	0.229397	0.971408	-0.200602	0.956199	-0.213171	-0.977761	-0.181824	0.104519
24506	9.267989	-1.974755	1.486966	-0.043779	-0.173284	0.048845	0.059379	0.229618	0.971468	-0.200388	0.956117	-0.213742	-0.977916	-0.181979	0.102786
24507	9.351569	-1.838635	1.540709	-0.060909	-0.183295	0.035055	0.057478	0.229636	0.971578	-0.199828	0.956139	-0.214166	-0.978144	-0.181839	0.100844
24508	9.431182	-1.719412	1.347748	-0.133256	-0.196422	0.022016	0.055493	0.229593	0.971703	-0.198581	0.956299	-0.214612	-0.978512	-0.181053	0.098661
24509	9.455384	-1.590516	1.131081	-0.192132	-0.208942	0.013879	0.053382	0.229365	0.971876	-0.196724	0.956605	-0.214956	-0.979005	-0.179716	0.096187
24510	9.480189	-1.570201	1.002496	-0.267108	-0.226291	-0.010764	0.051170	0.228943	0.972094	-0.194239	0.957063	-0.215179	-0.979619	-0.177807	0.093443
24511	9.528669	-1.786339	0.902617	-0.328178	-0.248750	-0.029153	0.048750	0.228242	0.972383	-0.191023	0.957701	-0.215219	-0.980374	-0.175256	0.090288
24512	9.425886	-2.074129	0.623159	-0.407304	-0.283580	-0.028960	0.046016	0.227528	0.972684	-0.187222	0.958425	-0.215335	-0.981239	-0.172199	0.086701
24513	9.351189	-2.477868	0.349065	-0.441043	-0.349993	-0.033519	0.042604	0.226627	0.973049	-0.182893	0.959245	-0.215404	-0.982209	-0.168787	0.082316
24514	9.461336	-2.538332	0.127249	-0.436026	-0.400668	-0.039729	0.038691	0.225644	0.973441	-0.178651	0.960037	-0.215436	-0.983151	-0.165571	0.077457
24515	9.504264	-2.292767	0.018633	-0.440901	-0.406940	-0.045914	0.034732	0.224553	0.973843	-0.174313	0.960855	-0.215342	-0.984078	-0.162274	0.072515
24516	9.315705	-2.173436	0.074996	-0.432760	-0.418172	-0.061387	0.030675	0.223348	0.974256	-0.170194	0.961648	-0.215099	-0.984933	-0.159215	0.067511
24517	9.278736	-2.256199	0.213772	-0.397227	-0.441582	-0.077560	0.026417	0.221922	0.974706	-0.166274	0.962440	-0.214623	-0.985726	-0.156398	0.062324
24518	9.418949	-2.352718	0.208545	-0.355361	-0.460287	-0.078933	0.021984	0.220565	0.975125	-0.162750	0.963139	-0.214185	-0.986422	-0.153993	0.057070
24519	9.518179	-2.233543	0.308084	-0.252917	-0.442007	-0.085282	0.017722	0.219083	0.975545	-0.160253	0.963707	-0.213514	-0.986917	-0.152550	0.052188
24520	9.561411	-2.217581	0.305450	-0.156903	-0.432491	-0.084839	0.013548	0.217686	0.975925	-0.158684	0.964113	-0.212849	-0.987236	-0.151980	0.047605
24521	9.753330	-2.178066	0.383551	-0.075624	-0.404686	-0.082366	0.009645	0.216295	0.976280	-0.157943	0.964400	-0.212102	-0.987401	-0.152151	0.043464
24522	9.885642	-1.716555	0.577120	-0.038371	-0.348449	-0.072946	0.006248	0.215126	0.976566	-0.157578	0.964596	-0.211481	-0.987487	-0.152564	0.039926
24523	9.708137	-1.525768	0.872325	-0.045968	-0.281191	-0.065520	0.003537	0.214083	0.976809	-0.157135	0.964799	-0.210882	-0.987571	-0.152745	0.037052
24524	9.477208	-1.970877	0.973980	-0.113518	-0.272585	-0.061994	0.000960	0.213183	0.977012	-0.156103	0.965067	-0.210423	-0.987740	-0.152313	0.034205
24525	9.466228	-2.421578	0.547642	-0.150514	-0.302318	-0.062983	-0.001966	0.212134	0.977239	-0.154632	0.965422	-0.209880	-0.987970	-0.151525	0.030904
24526	9.479354	-2.442404	-0.005071	-0.187547	-0.314251	-0.072742	-0.004956	0.211023	0.977469	-0.152909	0.965825	-0.209285	-0.988228	-0.150501	0.027481
24527	9.298107	-2.370616	-0.266990	-0.177961	-0.318289	-0.082346	-0.008014	0.209769	0.977718	-0.151171	0.966258	-0.208549	-0.988475	-0.149474	0.023967
24528	9.183605	-2.629596	-0.207769	-0.137752	-0.344790	-0.086250	-0.011311	0.208513	0.977954	-0.149905	0.966611	-0.207828	-0.988636	-0.148951	0.020324
24529	9.157940	-3.052669	-0.146320	-0.040195	-0.370167	-0.088767	-0.014875	0.207122	0.978202	-0.149534	0.966848	-0.206991	-0.988645	-0.149353	0.016590
24530	9.218937	-3.355715	-0.234318	0.082725	-0.410964	-0.090308	-0.018835	0.205684	0.978437	-0.150474	0.966881	-0.206151	-0.988435	-0.151112	0.012739
24531	9.357745	-3.526188	-0.296645	0.233552	-0.423735	-0.078628	-0.022941	0.204295	0.978640	-0.152813	0.966678	-0.205380	-0.987989	-0.154261	0.009043
24532	9.499233	-3.299906	-0.398060	0.395898	-0.453860	-0.069795	-0.027323	0.202964	0.978805	-0.156918	0.966160	-0.204722	-0.987234	-0.159186	0.005450
24533	9.856786	-2.501493	-0.424789	0.524282	-0.448575	-0.054848	-0.031699	0.201725	0.978929	-0.162122	0.965413	-0.204190	-0.986261	-0.165179	0.002101
24534	9.892671	-1.599737	-0.412471	0.548518	-0.379239	-0.047631	-0.035348	0.200756	0.979003	-0.167681	0.964537	-0.203844	-0.985207	-0.171365	-0.000431
24535	9.802076	-0.870714	-0.237364	0.458366	-0.359455	-0.068528	-0.038809	0.199489	0.979131	-0.172234	0.963869	-0.203206	-0.984291	-0.176526	-0.003048
24536	9.841144	-0.874641	-0.075329	0.344772	-0.366511	-0.082101	-0.042314	0.198145	0.979259	-0.175771	0.963373	-0.202526	-0.983521	-0.180695	-0.005936
24537	9.723476	-1.626933	-0.214973	0.254304	-0.375638	-0.094381	-0.045878	0.196569	0.979416	-0.178327	0.963088	-0.201646	-0.982901	-0.183908	-0.009131
24538	9.892429	-2.312764	-0.215835	0.282266	-0.416997	-0.054235	-0.049914	0.195308	0.979471	-0.181196	0.962648	-0.201188	-0.982179	-0.187518	-0.012661
24539	9.522196	-2.321149	-0.074349	0.257831	-0.373877	-0.012681	-0.053600	0.194497	0.979438	-0.183748	0.962177	-0.201125	-0.981511	-0.190750	-0.015834
24540	9.712221	-2.407755	-0.008725	0.191414	-0.444585	-0.000797	-0.057987	0.193686	0.979348	-0.185726	0.961780	-0.201208	-0.980889	-0.193558	-0.019798
24541	9.440099	-2.354324	-0.048249	0.135015	-0.414612	-0.028225	-0.062038	0.192625	0.979309	-0.187081	0.961564	-0.200986	-0.980384	-0.195679	-0.023617
24542	9.554758	-2.350721	-0.210592	0.132055	-0.448860	-0.031295	-0.066369	0.191568	0.979233	-0.188546	0.961308	-0.200841	-0.979819	-0.197960	-0.027682
24543	9.449564	-2.452543	-0.135596	0.100184	-0.405879	-0.065655	-0.070259	0.190148	0.979238	-0.189586	0.961226	-0.200253	-0.979347	-0.199720	-0.031485
24544	9.353679	-2.694706	-0.089470	0.110912	-0.404703	-0.080916	-0.074071	0.188610	0.979255	-0.190779	0.961136	-0.199551	-0.978834	-0.201602	-0.035210
24545	9.325343	-2.882277	-0.115649	0.103889	-0.423055	-0.096987	-0.078063	0.186839	0.979284	-0.191883	0.961100	-0.198665	-0.978308	-0.203416	-0.039175
24546	9.380165	-2.968145	-0.124827	0.130933	-0.429478	-0.101291	-0.082085	0.185078	0.979290	-0.193373	0.960975	-0.197826	-0.977686	-0.205606	-0.043092
24547	9.379431	-2.850020	-0.125165	0.177499	-0.427506	-0.100241	-0.086106	0.183248	0.979288	-0.195205	0.960784	-0.196950	-0.976975	-0.208121	-0.046958
24548	9.374144	-2.559067	0.002942	0.221528	-0.425820	-0.114714	-0.090038	0.181344	0.979289	-0.197642	0.960474	-0.196031	-0.976131	-0.211198	-0.050638
24549	9.451429	-2.323425	0.145058	0.250510	-0.432603	-0.123283	-0.094051	0.179257	0.979296	-0.200213	0.960155	-0.194981	-0.975228	-0.214406	-0.054414
24550	9.528290	-2.301792	0.396454	0.276970	-0.418535	-0.117377	-0.097897	0.177281	0.979279	-0.203162	0.959724	-0.194050	-0.974239	-0.217950	-0.057937
24551	9.560329	-2.366271	0.571843	0.287495	-0.416809	-0.094233	-0.101800	0.175478	0.979206	-0.206070	0.959250	-0.193325	-0.973228	-0.221465	-0.061491
24552	9.678169	-2.318575	0.709267	0.293998	-0.389254	-0.079411	-0.105467	0.173936	0.979093	-0.209088	0.958695	-0.192836	-0.972193	-0.225054	-0.064743
24553	9.811223	-2.243917	1.046351	0.307694	-0.320406	-0.062857	-0.108486	0.172625	0.978995	-0.212158	0.958098	-0.192450	-0.971195	-0.228580	-0.067316
24554	9.803774	-2.236089	1.438515	0.320896	-0.227265	-0.039381	-0.110645	0.171805	0.978898	-0.215415	0.957386	-0.192378	-0.970234	-0.232155	-0.068921
24555	9.638669	-2.296709	1.764634	0.295063	-0.138651	-0.016532	-0.111992	0.171340	0.978826	-0.218308	0.956716	-0.192447	-0.969432	-0.235239	-0.069740
24556	9.476121	-2.495727	1.993136	0.256107	-0.079324	0.015320	-0.112832	0.171433	0.978713	-0.220931	0.956017	-0.192928	-0.968741	-0.237996	-0.069994
24557	9.306646	-2.477684	2.034439	0.183646	-0.052590	0.030605	-0.113447	0.171618	0.978610	-0.222688	0.955517	-0.193383	-0.968266	-0.239864	-0.070183
24558	9.231378	-2.223175	1.544313	-0.008894	-0.062055	0.029772	-0.114073	0.171833	0.978499	-0.222773	0.955423	-0.193751	-0.968173	-0.240085	-0.070708
24559	9.110304	-1.917232	0.588059	-0.248254	-0.118296	0.000396	-0.115257	0.171571	0.978406	-0.220382	0.956007	-0.193604	-0.968580	-0.237938	-0.072375
24560	9.149187	-1.672307	-0.407846	-0.426780	-0.200190	-0.059920	-0.117107	0.170736	0.978333	-0.216517	0.957025	-0.192935	-0.969230	-0.234420	-0.075107
24561	9.016948	-1.796281	-1.328524	-0.594518	-0.297684	-0.123711	-0.119767	0.168879	0.978333	-0.210912	0.958605	-0.191294	-0.970140	-0.229253	-0.079190
24562	9.357366	-1.991563	-2.147099	-0.704883	-0.414676	-0.194384	-0.123369	0.166109	0.978360	-0.204461	0.960484	-0.188856	-0.971070	-0.223335	-0.084531
24563	9.791221	-2.027026	-2.645908	-0.696880	-0.473962	-0.234672	-0.127538	0.162827	0.978377	-0.197999	0.962397	-0.185978	-0.971870	-0.217437	-0.090503
24564	9.990282	-1.844018	-2.684401	-0.654713	-0.507519	-0.265588	-0.132004	0.159276	0.978369	-0.192118	0.964180	-0.182888	-0.972453	-0.212104	-0.096676
24565	9.978140	-1.482210	-2.742599	-0.619566	-0.549307	-0.297933	-0.136820	0.155269	0.978351	-0.186506	0.965939	-0.179382	-0.972880	-0.207011	-0.103201
24566	9.943916	-1.205649	-2.370496	-0.585104	-0.564421	-0.305933	-0.141717	0.151259	0.978283	-0.181456	0.967542	-0.175885	-0.973134	-0.202441	-0.109670
24567	9.700325	-1.207192	-1.690292	-0.572727	-0.567406	-0.303917	-0.146732	0.147201	0.978162	-0.176334	0.969134	-0.172293	-0.973332	-0.197764	-0.116247
24568	9.600303	-1.517437	-1.063639	-0.556747	-0.615422	-0.271144	-0.152238	0.143438	0.977880	-0.171429	0.970583	-0.169056	-0.973363	-0.193374	-0.123171
24569	9.574796	-2.011071	-0.546183	-0.517783	-0.681515	-0.225835	-0.158526	0.139960	0.977385	-0.166754	0.971887	-0.166220	-0.973171	-0.189333	-0.130730
24570	9.721118	-2.555206	-0.008371	-0.508373	-0.728873	-0.165323	-0.165367	0.137057	0.976662	-0.162177	0.973037	-0.164008	-0.972806	-0.185513	-0.138681
24571	9.744777	-3.065160	0.480225	-0.483757	-0.719080	-0.123741	-0.172199	0.134552	0.975829	-0.157694	0.974086	-0.162139	-0.972358	-0.181802	-0.146519
24572	9.920168	-3.091517	0.811562	-0.468380	-0.670567	-0.100141	-0.178557	0.132503	0.974967	-0.153588	0.974991	-0.160635	-0.971868	-0.178426	-0.153741
24573	9.976252	-2.715793	1.299326	-0.529574	-0.581927	-0.104749	-0.184090	0.130477	0.974211	-0.148645	0.976055	-0.158812	-0.971605	-0.174047	-0.160287
24574	9.880519	-2.399683	1.598408	-0.655391	-0.459456	-0.129834	-0.188432	0.128680	0.973619	-0.142955	0.977226	-0.156824	-0.971626	-0.168734	-0.165745
24575	9.741797	-2.349969	1.665229	-0.819963	-0.360737	-0.159137	-0.191752	0.126551	0.973250	-0.135301	0.978775	-0.153927	-0.972072	-0.161197	-0.170559
24576	9.633394	-2.652644	1.550384	-0.991225	-0.295824	-0.178912	-0.194445	0.124583	0.972970	-0.126479	0.980438	-0.150816	-0.972725	-0.152386	-0.174884
24577	9.606733	-3.223582	1.215748	-1.090270	-0.264966	-0.176345	-0.196845	0.122486	0.972753	-0.116227	0.982254	-0.147201	-0.973521	-0.142036	-0.179116
24578	9.831294	-3.724666	0.722316	-1.122650	-0.265764	-0.157595	-0.199218	0.120675	0.972497	-0.105871	0.983930	-0.143782	-0.974219	-0.131603	-0.183240
24579	10.270908	-3.737697	0.399466	-1.081112	-0.220030	-0.140056	-0.201255	0.119042	0.972278	-0.095629	0.985459	-0.140450	-0.974860	-0.121244	-0.186945
24580	11.023225	-3.388039	0.264842	-1.012207	-0.131832	-0.147646	-0.202433	0.117700	0.972197	-0.086682	0.986701	-0.137505	-0.975452	-0.112108	-0.189539
24581	11.568713	-2.694760	0.395796	-0.952910	0.055651	-0.134056	-0.201814	0.116462	0.972475	-0.077667	0.987876	-0.134424	-0.976340	-0.102658	-0.190322
24582	11.193370	-2.275569	0.615749	-0.931899	0.254072	-0.090298	-0.199323	0.116150	0.973026	-0.069479	0.988777	-0.132263	-0.977468	-0.093968	-0.189016
24583	10.832244	-2.377879	0.603983	-0.893326	0.354447	-0.055544	-0.195853	0.115944	0.973755	-0.060865	0.989634	-0.130077	-0.978743	-0.084743	-0.186766
24584	11.105382	-2.546120	0.505843	-0.713813	0.403991	-0.035305	-0.191956	0.116294	0.974489	-0.054730	0.990141	-0.128943	-0.979876	-0.078085	-0.183698
24585	11.550650	-2.461995	0.591746	-0.412594	0.477151	0.001200	-0.187311	0.116696	0.975344	-0.050697	0.990447	-0.128239	-0.980991	-0.073468	-0.179606
24586	11.613147	-2.053611	0.726681	-0.092562	0.604388	0.064413	-0.181453	0.118085	0.976284	-0.050435	0.990340	-0.129159	-0.982105	-0.072675	-0.173745
24587	11.172090	-1.559411	0.946931	0.166531	0.727093	0.129217	-0.174407	0.119925	0.977343	-0.051857	0.990060	-0.130740	-0.983307	-0.073484	-0.166455
24588	10.704440	-1.127758	1.235188	0.348956	0.839469	0.161892	-0.166269	0.122552	0.978435	-0.056057	0.989468	-0.133459	-0.984486	-0.077038	-0.157648
24589	10.559489	-0.840401	1.527579	0.473177	0.951691	0.157226	-0.157019	0.124887	0.979667	-0.060481	0.988894	-0.135757	-0.985742	-0.080568	-0.147722
24590	10.496890	-0.332253	1.725249	0.563239	1.148596	0.141964	-0.145846	0.127695	0.981032	-0.066923	0.988090	-0.138563	-0.987041	-0.085862	-0.135564
24591	10.457287	-0.031715	2.137210	0.602141	1.362756	0.113605	-0.132498	0.130046	0.982615	-0.072731	0.987407	-0.140488	-0.988511	-0.090081	-0.121371
24592	10.442646	-0.073187	2.717480	0.558963	1.577134	0.098107	-0.116987	0.132694	0.984229	-0.078757	0.986673	-0.142385	-0.990006	-0.094172	-0.104978
24593	10.397830	-0.207506	2.793686	0.429053	1.743192	0.087566	-0.099821	0.135248	0.985771	-0.082933	0.986141	-0.143696	-0.991543	-0.096097	-0.087221
24594	10.638782	-0.710021	2.297779	0.199438	1.803615	0.166978	-0.082155	0.139002	0.986878	-0.085416	0.985600	-0.145933	-0.992952	-0.096285	-0.069099
24595	10.915327	-1.539555	1.473398	-0.013868	1.836302	0.247912	-0.064154	0.143220	0.987609	-0.085119	0.985256	-0.148408	-0.994303	-0.093585	-0.051018
24596	11.165605	-2.568818	0.928896	-0.165700	1.908359	0.321872	-0.045547	0.148528	0.987859	-0.083881	0.984824	-0.151939	-0.995434	-0.089783	-0.032397
24597	11.653039	-3.518853	0.824226	-0.183146	1.933175	0.452655	-0.026705	0.154707	0.987599	-0.081917	0.984290	-0.156404	-0.996281	-0.085078	-0.013612
24598	11.999459	-3.984853	0.451859	-0.140790	1.976675	0.573758	-0.007581	0.162294	0.986713	-0.080691	0.983425	-0.162373	-0.996710	-0.080850	0.005640
24599	11.899772	-3.754677	-0.639123	0.023506	2.051332	0.631441	0.012320	0.170160	0.985339	-0.080966	0.982348	-0.168631	-0.996641	-0.077701	0.025879
24600	11.486941	-3.357097	-1.458976	0.180630	2.111990	0.587667	0.032737	0.177897	0.983504	-0.083110	0.981108	-0.174698	-0.996003	-0.076019	0.046904
24601	11.079942	-2.689719	-1.773811	0.368249	2.142671	0.460097	0.053639	0.184069	0.981449	-0.087001	0.979987	-0.179040	-0.994763	-0.075783	0.068580
24602	10.636492	-2.024994	-1.411775	0.625092	2.156484	0.323206	0.074616	0.189304	0.979079	-0.093732	0.978801	-0.182107	-0.992797	-0.078183	0.090778
24603	10.929529	-1.090311	-0.929973	0.830344	2.077579	0.239215	0.094946	0.193346	0.976526	-0.102198	0.977667	-0.183636	-0.990223	-0.082363	0.112586
24604	10.962503	-0.444972	-1.262486	0.982532	2.097364	0.204028	0.115316	0.197435	0.973510	-0.112248	0.976361	-0.184717	-0.986966	-0.087974	0.134752
24605	10.394004	0.363026	-1.000328	1.053502	2.016463	0.207581	0.134901	0.201332	0.970189	-0.122917	0.974977	-0.185234	-0.983206	-0.094265	0.156272
24606	10.505427	0.534817	-0.789783	0.832629	1.876785	0.288182	0.152782	0.206357	0.966475	-0.131740	0.973481	-0.187028	-0.979440	-0.098749	0.175915
24607	10.444959	-0.177768	-1.042271	0.478357	1.791520	0.368328	0.169765	0.211753	0.962466	-0.137043	0.972226	-0.189727	-0.975909	-0.099690	0.194069
24608	9.853799	-0.568415	-1.125723	0.244573	1.740409	0.410854	0.185919	0.217845	0.958111	-0.140152	0.971021	-0.193585	-0.972518	-0.098290	0.211063
24609	9.071737	-0.931441	-1.275225	0.121446	1.620873	0.432896	0.201007	0.223656	0.953716	-0.142203	0.969936	-0.197488	-0.969213	-0.095925	0.226768
24610	8.480867	-1.529872	-1.476704	0.155290	1.481499	0.437264	0.214476	0.229621	0.949355	-0.144540	0.968733	-0.201654	-0.965975	-0.093970	0.240959
24611	7.989644	-1.703967	-1.607517	0.343313	1.347844	0.428219	0.226807	0.235070	0.945146	-0.148831	0.967403	-0.204890	-0.962501	-0.094197	0.254399
24612	7.483818	-1.704636	-1.604350	0.478278	1.181848	0.378038	0.237405	0.240181	0.941250	-0.154411	0.965963	-0.207540	-0.959060	-0.096069	0.266411
24613	7.361329	-1.757156	-1.723692	0.580561	1.010852	0.299551	0.246573	0.244095	0.937880	-0.160732	0.964658	-0.208807	-0.955702	-0.099261	0.277092
24614	7.314091	-2.023437	-1.823819	0.709004	0.867923	0.227695	0.254366	0.247328	0.934948	-0.168116	0.963335	-0.209099	-0.952384	-0.103992	0.286619
24615	7.085027	-2.393114	-1.914446	0.919162	0.756573	0.159850	0.261243	0.249715	0.932413	-0.177304	0.961937	-0.207945	-0.948850	-0.110996	0.295575
24616	6.698897	-2.600601	-1.722381	1.180633	0.660929	0.067815	0.267298	0.251278	0.930275	-0.188785	0.960349	-0.205157	-0.944940	-0.120784	0.304137
24617	6.391162	-2.363935	-1.453521	1.520616	0.550269	0.000116	0.272446	0.252015	0.928581	-0.203159	0.958398	-0.200500	-0.940478	-0.134024	0.312311
24618	6.232826	-1.864470	-1.111864	1.793449	0.448846	-0.047169	0.276680	0.252337	0.927240	-0.219975	0.955918	-0.194503	-0.935446	-0.150154	0.319991
24619	6.349170	-1.389433	-0.744602	1.882155	0.325928	-0.077880	0.279858	0.252145	0.926338	-0.237354	0.953112	-0.187725	-0.930238	-0.167334	0.326584
24620	6.789204	-1.150153	-0.127067	1.827300	0.219065	-0.072317	0.282008	0.251980	0.925731	-0.254251	0.950024	-0.181139	-0.925110	-0.184286	0.331981
24621	7.329138	-0.986638	0.715138	1.724662	0.151900	-0.039036	0.283470	0.251934	0.925297	-0.270092	0.946790	-0.175041	-0.920160	-0.200296	0.336432
24622	7.663015	-0.905997	1.995580	1.573009	0.107811	0.007346	0.284374	0.252345	0.924907	-0.284684	0.943450	-0.169875	-0.915471	-0.214998	0.340132
24623	7.990466	-0.898428	3.139614	1.350568	0.025617	0.057755	0.284398	0.252977	0.924727	-0.297224	0.940298	-0.165826	-0.911469	-0.227690	0.342609
24624	8.087039	-0.982134	3.880956	1.094661	-0.102114	0.097020	0.283116	0.253764	0.924905	-0.307596	0.937443	-0.163048	-0.908422	-0.238335	0.343462
24625	8.257669	-0.916324	4.201498	0.900797	-0.223331	0.089329	0.280768	0.254088	0.925532	-0.316059	0.935011	-0.160811	-0.906243	-0.247372	0.342828
24626	8.530191	-0.900420	4.490859	0.775205	-0.254771	0.038908	0.278281	0.253921	0.926328	-0.323318	0.932906	-0.158596	-0.904448	-0.255364	0.341707
24627	8.685535	-0.812609	4.972361	0.739112	-0.221334	-0.066996	0.276456	0.252753	0.927194	-0.329848	0.931142	-0.155481	-0.902647	-0.262850	0.340790
24628	8.715696	-0.241097	5.710790	0.844168	-0.209279	-0.176690	0.275103	0.250660	0.928164	-0.337104	0.929272	-0.151044	-0.900377	-0.271335	0.340144
24629	8.703101	0.361527	6.223703	1.046760	-0.284144	-0.267841	0.273418	0.247417	0.929531	-0.345818	0.927026	-0.145029	-0.897581	-0.281794	0.339027
24630	8.903986	1.398102	6.699233	1.366714	-0.389969	-0.321203	0.271003	0.243422	0.931291	-0.357310	0.923810	-0.137491	-0.893805	-0.295499	0.337333
24631	9.273184	2.781333	7.630737	1.440764	-0.415203	-0.336753	0.268479	0.239089	0.933143	-0.369288	0.920243	-0.129534	-0.889688	-0.309821	0.335359
24632	9.855432	3.013445	8.490252	1.129394	-0.362736	-0.307661	0.266365	0.235206	0.934734	-0.378606	0.917356	-0.122944	-0.886401	-0.321148	0.333402
24633	10.390163	2.363800	9.033457	0.699976	-0.232106	-0.218570	0.265099	0.232476	0.935776	-0.384260	0.915575	-0.118600	-0.884346	-0.328141	0.332049
24634	10.021819	1.843147	8.925853	0.245434	-0.010468	-0.072859	0.265254	0.231849	0.935888	-0.386331	0.914890	-0.117151	-0.883396	-0.330487	0.332249
24635	8.937671	1.975742	7.998368	-0.180474	0.180353	0.079490	0.266495	0.233197	0.935200	-0.384985	0.915281	-0.118525	-0.883610	-0.328452	0.333695
24636	6.932248	2.598837	6.633880	-0.701158	0.224347	0.241606	0.267530	0.236209	0.934148	-0.379519	0.916948	-0.123170	-0.885660	-0.321575	0.334957
24637	5.032741	2.661849	4.463136	-1.374913	-0.019599	0.341638	0.266033	0.239313	0.933785	-0.368255	0.920452	-0.130981	-0.890850	-0.309026	0.332999
24638	4.337036	2.111759	2.575215	-2.088833	-0.435353	0.334928	0.260915	0.241156	0.934755	-0.350516	0.925878	-0.141027	-0.899479	-0.290851	0.326104
24639	5.352260	0.662924	2.082694	-2.647174	-0.895766	0.196142	0.252098	0.240503	0.937339	-0.327096	0.932790	-0.151363	-0.910744	-0.268441	0.313822
24640	8.564898	-2.296828	2.109289	-2.716788	-1.251859	-0.114019	0.240970	0.236260	0.941337	-0.301977	0.940025	-0.158629	-0.922358	-0.246037	0.297863
24641	13.800444	-5.175582	2.772185	-2.441109	-1.393151	-0.352283	0.229026	0.229677	0.945936	-0.278543	0.946594	-0.162398	-0.932717	-0.226290	0.280770
24642	18.201552	-8.227354	2.997918	-1.522379	-1.072825	-0.224342	0.219578	0.225242	0.949237	-0.263868	0.950430	-0.164488	-0.939233	-0.214355	0.268128
24643	16.263864	-8.564575	2.203049	-0.245112	-0.479503	0.125450	0.214698	0.225442	0.950306	-0.261873	0.950656	-0.166362	-0.940918	-0.213142	0.263141
24644	11.766311	-4.225197	-0.448378	0.361995	-0.398911	0.354071	0.209984	0.228032	0.950741	-0.266143	0.949032	-0.168841	-0.940784	-0.217579	0.259970
24645	8.925619	0.317085	-2.606633	-0.095123	-0.559097	0.396150	0.203623	0.230604	0.951504	-0.266103	0.948314	-0.172885	-0.942192	-0.217995	0.254463
24646	7.516209	1.590088	-1.674475	-0.838595	-0.695788	0.226718	0.196431	0.231337	0.952837	-0.258740	0.949555	-0.177200	-0.945763	-0.211729	0.246379
24647	7.757794	0.676744	-0.200089	-1.230751	-0.849394	0.001355	0.188332	0.229626	0.954884	-0.247110	0.952082	-0.180214	-0.950509	-0.202021	0.236050
24648	8.858729	-0.505733	-0.067793	-1.402673	-1.085661	-0.122963	0.178254	0.226376	0.957591	-0.233590	0.955092	-0.182303	-0.955856	-0.191187	0.223128
24649	10.478618	-2.073226	-0.596769	-1.371506	-1.332741	-0.125924	0.165722	0.222724	0.960692	-0.220263	0.957913	-0.184084	-0.961260	-0.181098	0.207805
24650	11.169341	-2.738751	-0.864903	-1.152297	-1.400117	-0.053868	0.152322	0.219777	0.963585	-0.209137	0.960051	-0.185911	-0.965950	-0.173203	0.192200
24651	11.185668	-3.216838	-0.809303	-1.014238	-1.419901	0.048371	0.138437	0.217864	0.966111	-0.199424	0.961655	-0.188283	-0.970085	-0.166601	0.176576
24652	10.352640	-3.030463	-0.617722	-0.688884	-1.281672	0.121138	0.125718	0.216969	0.968049	-0.192954	0.962504	-0.190667	-0.973121	-0.162819	0.162869
24653	9.461349	-2.543502	-0.075105	-0.356712	-1.196418	0.168013	0.113701	0.216677	0.969599	-0.189715	0.962706	-0.192890	-0.975234	-0.162015	0.150567
24654	9.023886	-2.327514	1.018755	-0.253496	-1.152875	0.174428	0.102089	0.216540	0.970921	-0.187493	0.962717	-0.194996	-0.976946	-0.162133	0.138883
24655	8.775974	-2.415131	1.197652	-0.282335	-1.143280	0.174162	0.090546	0.216399	0.972097	-0.184933	0.962783	-0.197100	-0.978571	-0.161927	0.127195
24656	8.772301	-2.317841	0.565136	-0.177096	-1.065441	0.128014	0.079846	0.215958	0.973132	-0.183376	0.962770	-0.198612	-0.979795	-0.162591	0.116475
24657	8.883627	-1.048893	0.977044	-0.189435	-1.009447	0.070401	0.069781	0.215027	0.974112	-0.181605	0.962913	-0.199546	-0.980893	-0.162979	0.106243
24658	9.194211	-0.297298	1.223157	-0.360117	-0.924749	0.014425	0.060648	0.213718	0.975011	-0.178144	0.963444	-0.200101	-0.982134	-0.161557	0.096503
24659	9.245389	-0.326929	1.361864	-0.570938	-0.840998	-0.029495	0.052393	0.212125	0.975837	-0.172548	0.964405	-0.200376	-0.983607	-0.157880	0.087130
24660	9.478846	-1.395845	0.784452	-0.802300	-0.798435	-0.104963	0.044683	0.209920	0.976697	-0.164651	0.965851	-0.200056	-0.985339	-0.151875	0.077720
24661	9.689422	-2.081395	0.476036	-0.889071	-0.737394	-0.129210	0.037578	0.207612	0.977489	-0.155861	0.967426	-0.199483	-0.987064	-0.144856	0.068712
24662	9.257839	-2.832683	0.151627	-0.979038	-0.701841	-0.090910	0.030755	0.205786	0.978114	-0.146206	0.968977	-0.199267	-0.988776	-0.136878	0.059888
24663	9.147600	-3.296951	-0.535129	-0.905947	-0.775956	-0.087760	0.023162	0.203937	0.978710	-0.137249	0.970352	-0.198947	-0.990266	-0.129719	0.050466
24664	9.638506	-3.045830	-1.079351	-0.835422	-0.815327	-0.106935	0.015197	0.201917	0.979285	-0.129010	0.971607	-0.198332	-0.991527	-0.123323	0.040815
24665	9.584928	-3.109575	-1.366775	-0.760801	-0.786119	-0.140007	0.007535	0.199646	0.979839	-0.121477	0.972793	-0.197276	-0.992566	-0.117541	0.031582
24666	9.206219	-3.351767	-1.625511	-0.686010	-0.839844	-0.184038	-0.000618	0.196941	0.980415	-0.114720	0.973929	-0.195710	-0.993398	-0.112594	0.021991
24667	9.283975	-3.413914	-1.712252	-0.610552	-0.943798	-0.224363	-0.009784	0.193748	0.981002	-0.108695	0.975030	-0.193653	-0.994027	-0.108525	0.011519
24668	9.662623	-3.390812	-1.606412	-0.495656	-0.978509	-0.242510	-0.019290	0.190396	0.981518	-0.103877	0.976006	-0.191368	-0.994403	-0.105648	0.000951
24669	9.720834	-3.131436	-1.114363	-0.320102	-0.954612	-0.261541	-0.028553	0.186877	0.981968	-0.100786	0.976824	-0.188829	-0.994498	-0.104360	-0.009057
24670	9.657944	-3.422619	-0.820351	-0.175801	-0.936956	-0.256301	-0.037650	0.183457	0.982307	-0.099200	0.977462	-0.186354	-0.994355	-0.104461	-0.018602
24671	9.341277	-2.919473	-0.501085	-0.022482	-0.907529	-0.239787	-0.046472	0.180195	0.982532	-0.099106	0.977911	-0.184035	-0.993991	-0.105927	-0.027587
24672	9.204346	-2.531933	-0.276465	-0.031047	-0.929156	-0.246695	-0.055499	0.176864	0.982669	-0.099019	0.978359	-0.181681	-0.993537	-0.107386	-0.036785
24673	9.383983	-2.006852	-0.066712	-0.054170	-0.905896	-0.254381	-0.064284	0.173434	0.982745	-0.098662	0.978853	-0.179201	-0.993043	-0.108479	-0.045813
24674	9.298411	-1.698760	0.230293	-0.145918	-0.873810	-0.263761	-0.072739	0.169973	0.982760	-0.097487	0.979440	-0.176614	-0.992575	-0.108653	-0.054673
24675	9.258706	-1.681724	0.255819	-0.238983	-0.876510	-0.276254	-0.081208	0.166355	0.982716	-0.095356	0.980153	-0.173801	-0.992125	-0.107822	-0.063734
24676	9.421376	-1.613604	0.334172	-0.310441	-0.867434	-0.277163	-0.089590	0.162774	0.982588	-0.092599	0.980920	-0.170941	-0.991665	-0.106301	-0.072808
24677	9.390682	-1.667570	0.485800	-0.367496	-0.828028	-0.272113	-0.097589	0.159271	0.982400	-0.089237	0.981735	-0.168027	-0.991218	-0.104064	-0.081594
24678	9.398663	-1.893452	0.661786	-0.411581	-0.782111	-0.263046	-0.105146	0.155955	0.982152	-0.085523	0.982550	-0.165174	-0.990772	-0.101364	-0.089974
24679	9.460423	-2.340521	0.807841	-0.428298	-0.719368	-0.256146	-0.112095	0.152757	0.981886	-0.081584	0.983363	-0.162301	-0.990343	-0.098299	-0.097767
24680	9.350919	-2.802415	0.901100	-0.403651	-0.629292	-0.239059	-0.118170	0.149873	0.981618	-0.077975	0.984091	-0.159637	-0.989927	-0.095406	-0.104604
24681	8.910044	-2.989703	0.829066	-0.433835	-0.586699	-0.215695	-0.123849	0.147238	0.981317	-0.073967	0.984809	-0.157097	-0.989540	-0.092042	-0.111077
24682	8.883463	-3.042468	0.569869	-0.499143	-0.629941	-0.259240	-0.129929	0.144191	0.980983	-0.069469	0.985614	-0.154073	-0.989087	-0.088167	-0.118043
24683	9.351642	-3.158696	0.395684	-0.554367	-0.679279	-0.317380	-0.136470	0.140517	0.980628	-0.064435	0.986534	-0.150330	-0.988546	-0.083703	-0.125578
24684	9.370877	-3.597102	0.516481	-0.568623	-0.694434	-0.323763	-0.143164	0.136842	0.980193	-0.059405	0.987421	-0.146527	-0.987914	-0.079206	-0.133235
24685	8.966737	-4.289540	0.805324	-0.560472	-0.727834	-0.290344	-0.150223	0.133453	0.979604	-0.054321	0.988237	-0.142959	-0.987159	-0.074689	-0.141206
24686	9.228126	-4.592268	0.739398	-0.511174	-0.828848	-0.283382	-0.158286	0.130144	0.978779	-0.049878	0.988956	-0.139564	-0.986133	-0.070911	-0.150046
24687	9.971273	-3.629094	0.602417	-0.481594	-0.860235	-0.304364	-0.166654	0.126579	0.977857	-0.045650	0.989672	-0.135888	-0.984958	-0.067286	-0.159154
24688	10.530259	-2.027959	0.760435	-0.615056	-0.778297	-0.344453	-0.174200	0.122763	0.977028	-0.040358	0.990475	-0.131648	-0.983883	-0.062363	-0.167586
24689	10.556488	-0.591837	1.260556	-0.937500	-0.638581	-0.427160	-0.180360	0.118199	0.976473	-0.031918	0.991527	-0.125917	-0.983083	-0.053877	-0.175060
24690	10.422563	-0.584822	1.705527	-1.308052	-0.479700	-0.496080	-0.184973	0.113145	0.976209	-0.020141	0.992705	-0.118873	-0.982537	-0.041651	-0.181345
24691	9.929902	-1.344463	2.022773	-1.521358	-0.341761	-0.533818	-0.188294	0.107767	0.976182	-0.006216	0.993811	-0.110912	-0.982093	-0.026952	-0.186458
24692	9.648680	-2.294469	2.352536	-1.560898	-0.285387	-0.493793	-0.191120	0.102898	0.976158	0.007999	0.994620	-0.103278	-0.981534	-0.011930	-0.190915
24693	9.534323	-3.283395	2.784845	-1.441605	-0.252739	-0.374014	-0.193687	0.099207	0.976034	0.021402	0.995065	-0.096895	-0.980830	0.002122	-0.194854
24694	9.656645	-4.661381	3.141888	-1.117020	-0.188287	-0.195659	-0.195600	0.097377	0.975837	0.031783	0.995165	-0.092935	-0.980169	0.012837	-0.197749
24695	10.574378	-5.531373	3.623996	-0.596249	-0.151587	-0.036907	-0.197130	0.097077	0.975559	0.037531	0.995103	-0.091438	-0.979659	0.018588	-0.199808
24696	12.185422	-4.415307	3.002766	-0.341055	0.025380	0.085631	-0.196859	0.098040	0.975518	0.040816	0.994945	-0.091755	-0.979582	0.021754	-0.199865
24697	12.683276	-2.018883	1.590387	-0.395916	0.328599	0.100183	-0.193627	0.099002	0.976067	0.044868	0.994748	-0.091996	-0.980049	0.025981	-0.197053
24698	13.222785	-0.571429	0.123798	-0.517264	0.595894	0.038897	-0.187774	0.099342	0.977176	0.049770	0.994556	-0.091545	-0.980950	0.031444	-0.191696
24699	13.586739	-0.065239	-0.987031	-0.545276	0.908910	-0.033697	-0.178900	0.098737	0.978900	0.055037	0.994398	-0.090241	-0.982327	0.037731	-0.183332
24700	13.672640	-0.074686	-0.925207	-0.467789	1.167287	-0.072819	-0.167469	0.097665	0.981028	0.059273	0.994278	-0.088866	-0.984094	0.043266	-0.172300
24701	13.160874	0.019700	-0.604520	-0.482599	1.374479	-0.029783	-0.153978	0.096777	0.983323	0.063954	0.994081	-0.087821	-0.986002	0.049365	-0.159256
24702	12.347107	0.057778	-0.687529	-0.612696	1.380615	0.047738	-0.140324	0.096646	0.985378	0.069848	0.993711	-0.087516	-0.987639	0.056546	-0.146192
24703	12.114756	-0.249814	-1.107277	-0.757438	1.291023	0.084062	-0.127533	0.096740	0.987105	0.077419	0.993166	-0.087331	-0.988808	0.065283	-0.134151
24704	11.776100	-0.714211	-1.863452	-0.899002	1.327502	0.113724	-0.114307	0.097064	0.988692	0.086233	0.992429	-0.087461	-0.989696	0.075261	-0.121812
24705	11.018361	-1.502083	-2.317235	-0.976694	1.347059	0.148346	-0.100866	0.097495	0.990112	0.096034	0.991494	-0.087847	-0.990254	0.086224	-0.109370
24706	10.709995	-2.377308	-2.112772	-0.926040	1.354053	0.172675	-0.087280	0.098102	0.991342	0.105153	0.990487	-0.088759	-0.990619	0.096495	-0.096765
24707	10.503669	-3.243816	-1.799920	-0.797745	1.364092	0.234436	-0.073538	0.099091	0.992357	0.113216	0.989448	-0.090410	-0.990845	0.105702	-0.083980
24708	10.524188	-3.796382	-1.799844	-0.532384	1.318205	0.300815	-0.060127	0.100777	0.993090	0.118462	0.988580	-0.093147	-0.991136	0.112043	-0.071379
24709	10.665364	-3.673005	-1.722688	-0.146733	1.331279	0.370165	-0.046515	0.102973	0.993596	0.120083	0.988036	-0.096775	-0.991674	0.114813	-0.058324
24710	10.259324	-3.137485	-1.449254	0.294543	1.354103	0.427393	-0.032578	0.105817	0.993852	0.117076	0.987938	-0.101350	-0.992588	0.113054	-0.044574
24711	9.639646	-2.149910	-1.012827	0.664682	1.329942	0.455194	-0.018880	0.108894	0.993874	0.110559	0.988182	-0.106170	-0.993690	0.107878	-0.030696
24712	9.138988	-1.333681	-0.750250	0.913278	1.278952	0.462141	-0.005683	0.112310	0.993657	0.101267	0.988629	-0.111163	-0.994843	0.099993	-0.016991
24713	8.924481	-0.938801	-0.571695	1.220353	1.245872	0.458629	0.007127	0.115714	0.993257	0.089082	0.989260	-0.115887	-0.995999	0.089307	-0.003258
24714	8.670429	-0.698521	-0.698969	1.512149	1.216616	0.450413	0.019606	0.119351	0.992659	0.073684	0.989977	-0.120484	-0.997089	0.075505	0.010615
24715	8.834113	-0.757077	-0.628888	1.575817	1.159907	0.438362	0.031433	0.122945	0.991916	0.057818	0.990520	-0.124604	-0.997832	0.061267	0.024027
24716	9.903200	-1.524506	-0.677038	1.552445	1.131604	0.494677	0.042958	0.127417	0.990919	0.041874	0.990733	-0.129208	-0.998199	0.047044	0.037224
24717	10.672147	-2.359443	-0.702185	1.619627	1.196076	0.617783	0.055073	0.133107	0.989570	0.025367	0.990568	-0.134653	-0.998160	0.032518	0.051177
24718	10.779504	-2.798882	-0.810818	1.781942	1.283171	0.739089	0.067976	0.140303	0.987772	0.006860	0.989973	-0.141087	-0.997663	0.016366	0.066332
24719	10.657484	-2.763001	-0.820750	1.875313	1.389251	0.827171	0.081772	0.148421	0.985538	-0.012498	0.988924	-0.147894	-0.996573	-0.000223	0.082721
24720	10.340607	-2.604848	-0.710524	2.103516	1.465054	0.833464	0.096134	0.156998	0.982909	-0.034463	0.987415	-0.154347	-0.994772	-0.019036	0.100335
24721	10.311182	-2.159603	-0.488398	2.340981	1.499906	0.773951	0.110640	0.165118	0.980048	-0.058561	0.985472	-0.159421	-0.992134	-0.039754	0.118702
24722	10.772749	-1.383301	-0.291989	2.517565	1.538789	0.679711	0.125356	0.172800	0.976947	-0.084579	0.982991	-0.163016	-0.988500	-0.062195	0.137839
24723	11.002684	-0.822509	-0.229930	2.565657	1.594650	0.598338	0.140461	0.179886	0.973608	-0.110720	0.980042	-0.165102	-0.983876	-0.084607	0.157575
24724	10.486559	-0.351706	-0.117279	2.567578	1.647798	0.557576	0.155892	0.187123	0.969888	-0.137009	0.976497	-0.166377	-0.978226	-0.106946	0.177866
24725	9.989869	-0.038568	-0.201789	2.436776	1.643532	0.480067	0.171162	0.193771	0.966000	-0.161598	0.972712	-0.166484	-0.971900	-0.127608	0.197805
24726	9.446363	0.388025	-0.211625	2.308907	1.628288	0.389311	0.186208	0.199982	0.961943	-0.184908	0.968704	-0.165594	-0.964954	-0.147036	0.217359
24727	9.258371	0.907884	-0.153508	2.028913	1.557868	0.354527	0.200454	0.205868	0.957829	-0.205145	0.964819	-0.164438	-0.957984	-0.163531	0.235635
24728	8.636561	1.089057	-0.082961	1.744540	1.543166	0.340415	0.214406	0.211956	0.953470	-0.222732	0.961061	-0.163558	-0.951010	-0.177300	0.253267
24729	8.198309	1.086402	0.034090	1.459782	1.462966	0.298727	0.227541	0.217534	0.949159	-0.237271	0.957736	-0.162619	-0.944419	-0.188206	0.269539
24730	7.840879	0.887365	-0.069166	1.245062	1.389113	0.213117	0.240048	0.222411	0.944939	-0.249692	0.954796	-0.161301	-0.938100	-0.197224	0.284731
24731	7.445292	0.766338	-0.052881	1.105353	1.266695	0.171164	0.251413	0.226628	0.940973	-0.260494	0.952172	-0.159725	-0.932166	-0.204961	0.298424
24732	7.431940	0.623438	-0.146516	1.046197	1.173114	0.163659	0.261831	0.230777	0.937116	-0.270815	0.949548	-0.158172	-0.926339	-0.212370	0.311119
24733	7.214908	0.588516	-0.119827	1.032962	1.118029	0.145554	0.271710	0.234609	0.933345	-0.280787	0.946959	-0.156290	-0.920506	-0.219606	0.323173
24734	6.934787	0.592842	0.081668	0.985657	1.025477	0.129586	0.280702	0.238250	0.929755	-0.290347	0.944392	-0.154342	-0.914825	-0.226628	0.334268
24735	6.782906	0.628690	0.310738	0.878152	0.892274	0.107890	0.288479	0.241354	0.926568	-0.298712	0.942097	-0.152397	-0.909698	-0.232813	0.343871
24736	6.707158	0.552874	0.595287	0.698066	0.730210	0.086092	0.294799	0.243995	0.923883	-0.305439	0.940189	-0.150839	-0.905429	-0.237722	0.351692
24737	6.617803	0.305000	0.887600	0.570573	0.582285	0.058887	0.299835	0.245979	0.921734	-0.310817	0.938657	-0.149389	-0.901938	-0.241698	0.357896
24738	6.404242	0.021721	1.082153	0.456204	0.413206	0.041756	0.303380	0.247474	0.920172	-0.315171	0.937393	-0.148193	-0.899237	-0.245053	0.362383
24739	6.239291	-0.219121	1.135941	0.340062	0.216261	0.017076	0.305224	0.248202	0.919366	-0.318325	0.936492	-0.147144	-0.897501	-0.247745	0.364849
24740	6.310923	-0.459782	1.146022	0.224858	0.019823	-0.027573	0.305446	0.248081	0.919325	-0.320369	0.935954	-0.146126	-0.896698	-0.249890	0.365361
24741	6.694054	-0.537788	1.392350	0.116934	-0.139621	-0.075698	0.304391	0.247058	0.919950	-0.321234	0.935828	-0.145033	-0.896747	-0.251372	0.364221
24742	7.046868	-0.374997	1.840025	-0.061543	-0.256163	-0.117408	0.302427	0.245395	0.921042	-0.320426	0.936229	-0.144228	-0.897700	-0.251507	0.361772
24743	7.482767	-0.466877	2.745228	-0.260713	-0.356461	-0.139504	0.299624	0.243230	0.922532	-0.317710	0.937203	-0.143911	-0.899603	-0.249979	0.358085
24744	7.919416	-1.073440	4.279797	-0.504294	-0.499869	-0.120410	0.295457	0.240934	0.924476	-0.312902	0.938707	-0.144641	-0.902661	-0.246536	0.352736
24745	9.753652	-2.765119	8.473484	-0.717147	-0.643836	-0.021142	0.289652	0.239200	0.926760	-0.306399	0.940487	-0.146981	-0.906764	-0.241385	0.345705
24746	12.886909	-5.418531	12.847450	-0.663688	-0.524232	0.202037	0.284237	0.239930	0.928247	-0.301049	0.941548	-0.151184	-0.910263	-0.236476	0.339854
24747	14.776073	-6.372602	13.475977	-0.019898	-0.228873	0.419450	0.280843	0.243371	0.928384	-0.302100	0.940562	-0.155176	-0.910968	-0.236885	0.337673
24748	14.404895	-3.557167	10.182646	1.146894	-0.007741	0.488191	0.279223	0.248058	0.927632	-0.314050	0.936518	-0.155904	-0.907418	-0.247791	0.339400
24749	12.169027	0.134389	8.466267	1.677252	0.277551	0.456488	0.280216	0.253065	0.925979	-0.330542	0.931071	-0.154429	-0.901233	-0.262801	0.344550
24750	8.774196	1.633039	8.301272	1.586200	0.635607	0.371964	0.284616	0.258358	0.923171	-0.345992	0.925775	-0.152417	-0.894026	-0.276030	0.352880
24751	5.657238	1.892440	8.712154	1.250057	0.834482	0.438827	0.290456	0.264788	0.919523	-0.358434	0.921095	-0.152019	-0.887221	-0.285433	0.362446
24752	3.474013	2.026439	6.766349	1.000562	0.528605	0.477256	0.293356	0.270823	0.916841	-0.368831	0.916849	-0.152812	-0.881990	-0.293331	0.368851
24753	2.842678	2.511800	4.595490	1.130315	0.002856	0.437278	0.291697	0.274863	0.916168	-0.380102	0.912258	-0.152670	-0.877745	-0.303703	0.370579
24754	2.596923	3.057059	3.190633	0.431813	-0.795604	0.321367	0.283443	0.275462	0.918575	-0.384964	0.909976	-0.154095	-0.878329	-0.309942	0.363969
24755	4.665351	3.487711	-0.854699	-1.811109	-1.657382	0.061247	0.268512	0.271016	0.924366	-0.369168	0.915290	-0.161118	-0.889728	-0.297984	0.345817
24756	8.442570	1.689732	-7.389327	-3.931873	-2.011613	-0.129103	0.250849	0.264224	0.931268	-0.333586	0.926697	-0.173071	-0.908733	-0.267243	0.320603
24757	14.285605	-2.734213	-3.147491	-2.991309	-1.845227	-0.187600	0.234504	0.257793	0.937310	-0.305780	0.934816	-0.180604	-0.922771	-0.244259	0.298046
24758	20.281086	-8.327311	6.304679	-0.298127	-1.218275	-0.110955	0.223562	0.253832	0.941057	-0.302843	0.935798	-0.180469	-0.926448	-0.244647	0.286080
24759	18.699785	-8.384371	3.841849	0.586925	-0.835445	0.278422	0.214925	0.254395	0.942916	-0.308936	0.933610	-0.181466	-0.926480	-0.252299	0.279248
24760	14.098789	-2.098665	-5.197901	0.177345	-0.994806	0.446099	0.204286	0.256104	0.944816	-0.311624	0.931974	-0.185244	-0.927986	-0.256585	0.270197
24761	10.681911	3.700250	-5.617077	-0.098478	-0.806381	0.429417	0.195411	0.258066	0.946159	-0.311611	0.931101	-0.189601	-0.929899	-0.257784	0.262363
24762	7.426199	3.372076	-1.618740	-0.437364	-0.507170	0.183112	0.190098	0.258512	0.947119	-0.307953	0.931723	-0.192500	-0.932216	-0.255074	0.256728
24763	5.831727	0.276717	0.807874	-0.734258	-0.579855	-0.063001	0.184829	0.256497	0.948708	-0.301022	0.933717	-0.193798	-0.935534	-0.249762	0.249789
24764	6.761796	-2.690418	0.769952	-0.841684	-0.976095	-0.175803	0.176176	0.252460	0.951434	-0.292841	0.936232	-0.194201	-0.939791	-0.244405	0.238872
24765	8.799784	-4.200475	-0.659856	-1.021979	-1.304641	-0.230846	0.164500	0.247184	0.954903	-0.282859	0.939254	-0.194405	-0.944950	-0.238124	0.224425
24766	10.582415	-4.971909	-1.922018	-0.916153	-1.446789	-0.115181	0.151090	0.242719	0.958258	-0.274034	0.941678	-0.195312	-0.949777	-0.233086	0.208792
24767	11.499564	-4.276469	-2.179638	-0.470489	-1.421792	0.112412	0.137212	0.240508	0.960900	-0.269762	0.942481	-0.197377	-0.953101	-0.232132	0.194199
24768	11.338131	-2.104984	-2.065160	-0.300858	-1.328162	0.302577	0.123694	0.240307	0.962784	-0.267328	0.942434	-0.200883	-0.955634	-0.232531	0.180814
24769	10.260177	-0.515846	-1.550673	-0.425207	-1.234459	0.328819	0.110963	0.240579	0.964266	-0.263686	0.942610	-0.204832	-0.958205	-0.231534	0.168032
24770	9.823168	0.445055	-0.414034	-0.669036	-1.235041	0.256858	0.098410	0.240185	0.965726	-0.257558	0.943518	-0.208415	-0.961238	-0.228221	0.154714
24771	9.444826	-0.948434	-0.517521	-1.040968	-1.220629	0.061585	0.086454	0.238060	0.967395	-0.247629	0.945691	-0.210589	-0.964990	-0.221349	0.140710
24772	9.300863	-1.316649	-0.700438	-1.220738	-1.285205	-0.111864	0.074269	0.234222	0.969342	-0.235740	0.948601	-0.211148	-0.968974	-0.212831	0.125667
24773	9.820237	-2.205940	-1.400678	-1.404421	-1.380355	-0.208907	0.061299	0.229406	0.971399	-0.221999	0.951985	-0.210812	-0.973118	-0.202727	0.109284
24774	10.417855	-2.417072	-1.650052	-1.409567	-1.345031	-0.154981	0.048491	0.225279	0.973087	-0.208166	0.955119	-0.210746	-0.976891	-0.192344	0.093210
24775	10.198508	-2.830756	-1.547579	-1.266111	-1.302209	-0.087018	0.035882	0.222041	0.974377	-0.195779	0.957674	-0.211025	-0.979991	-0.183191	0.077834
24776	9.698080	-2.797065	-0.869671	-1.057562	-1.198150	-0.093471	0.024275	0.219005	0.975422	-0.185366	0.959776	-0.210879	-0.982370	-0.175691	0.063895
24777	9.273887	-3.326028	-0.662686	-0.895146	-1.225816	-0.099514	0.012360	0.215971	0.976322	-0.176583	0.961522	-0.210461	-0.984208	-0.169800	0.050021
24778	9.763486	-3.847482	-0.489854	-0.662731	-1.232282	-0.113204	0.000389	0.212827	0.977090	-0.170044	0.962874	-0.209663	-0.985436	-0.166067	0.036565
24779	9.282781	-3.400535	0.192260	-0.511791	-1.063613	-0.124820	-0.009928	0.209912	0.977670	-0.165041	0.963965	-0.208646	-0.986237	-0.163427	0.025074
24780	9.116689	-3.407374	0.424960	-0.429931	-1.091413	-0.118638	-0.020536	0.207018	0.978122	-0.160824	0.964904	-0.207597	-0.986769	-0.161569	0.013478
24781	9.175096	-2.908886	0.785707	-0.395170	-1.025127	-0.085713	-0.030558	0.204583	0.978372	-0.156981	0.965700	-0.206836	-0.987129	-0.159907	0.002606
24782	8.546766	-2.304032	0.817393	-0.401357	-0.929652	-0.124255	-0.039580	0.201935	0.978599	-0.153079	0.966580	-0.205646	-0.987421	-0.157942	-0.007346
24783	9.024488	-2.214671	1.009746	-0.486226	-0.974794	-0.135247	-0.049043	0.199140	0.978743	-0.148371	0.967597	-0.204307	-0.987715	-0.155237	-0.017908
24784	8.716828	-2.014648	1.135465	-0.607135	-0.851058	-0.199146	-0.057197	0.195942	0.978946	-0.142500	0.968909	-0.202259	-0.988141	-0.151068	-0.027497
24785	8.667842	-1.924278	1.053531	-0.801871	-0.867191	-0.254876	-0.065455	0.192227	0.979165	-0.134764	0.970576	-0.199550	-0.988713	-0.145018	-0.037624
24786	8.965003	-2.160807	0.440508	-0.998153	-0.932564	-0.264759	-0.074369	0.188375	0.979277	-0.125101	0.972477	-0.196568	-0.989353	-0.137128	-0.048757
24787	9.392328	-2.101614	-0.257396	-1.070056	-0.958621	-0.282906	-0.083556	0.184389	0.979295	-0.114768	0.974412	-0.193262	-0.989872	-0.128540	-0.060256
24788	9.550490	-1.888916	-0.585238	-1.089956	-0.932408	-0.314324	-0.092477	0.180204	0.979272	-0.104280	0.976326	-0.189510	-0.990239	-0.119644	-0.071496
24789	9.492855	-1.803377	-0.982940	-1.119761	-0.918956	-0.360868	-0.101259	0.175663	0.979229	-0.093572	0.978243	-0.185162	-0.990450	-0.110378	-0.082618
24790	9.395342	-1.851259	-1.467393	-1.084414	-0.920956	-0.375823	-0.110081	0.171047	0.979094	-0.083255	0.980032	-0.180571	-0.990430	-0.101392	-0.093642
24791	9.177038	-2.005685	-1.695767	-1.018288	-0.944829	-0.389696	-0.119169	0.166349	0.978840	-0.073649	0.981668	-0.175796	-0.990139	-0.093040	-0.104733
24792	9.299736	-2.144013	-1.713022	-0.898849	-1.008618	-0.415531	-0.128897	0.161405	0.978435	-0.065293	0.983143	-0.170783	-0.989506	-0.085898	-0.116185
24793	9.442156	-2.257951	-1.185401	-0.735862	-1.047699	-0.428590	-0.139030	0.156361	0.977866	-0.058619	0.984425	-0.165744	-0.988552	-0.080365	-0.127698
24794	9.379464	-2.774901	-0.353087	-0.597647	-1.092423	-0.404787	-0.149629	0.151562	0.977057	-0.053328	0.985506	-0.161039	-0.987303	-0.076201	-0.139377
24795	9.135816	-3.551143	0.171376	-0.497137	-1.157111	-0.350933	-0.160900	0.147282	0.975920	-0.048998	0.986392	-0.156941	-0.985754	-0.073070	-0.151494
24796	9.380238	-4.181901	0.471665	-0.392207	-1.225445	-0.302504	-0.172859	0.143463	0.974442	-0.045684	0.987103	-0.153431	-0.983887	-0.071038	-0.164076
24797	9.794802	-3.979047	0.784991	-0.290690	-1.174144	-0.257715	-0.184320	0.140135	0.972825	-0.043314	0.987664	-0.150480	-0.981911	-0.069874	-0.175977
24798	9.846624	-3.136962	1.422736	-0.305934	-1.034908	-0.241569	-0.194405	0.137091	0.971294	-0.040837	0.988196	-0.147651	-0.980071	-0.068369	-0.186512
24799	10.087433	-2.166186	2.147778	-0.451991	-0.878811	-0.273640	-0.202939	0.133844	0.970001	-0.036981	0.988860	-0.144183	-0.978493	-0.065132	-0.195729
24800	10.297336	-1.484018	2.816913	-0.711914	-0.677827	-0.320866	-0.209490	0.130311	0.969089	-0.030761	0.989711	-0.139734	-0.977327	-0.059083	-0.203326
24801	10.231929	-1.376850	2.986066	-1.010874	-0.519719	-0.341958	-0.214512	0.126687	0.968471	-0.021637	0.990693	-0.134386	-0.976482	-0.049782	-0.209774
24802	10.129581	-1.722969	2.661334	-1.241894	-0.439238	-0.306184	-0.218775	0.123522	0.967926	-0.010263	0.991609	-0.128864	-0.975721	-0.038126	-0.215672
24803	10.089797	-1.904101	2.371572	-1.327756	-0.389746	-0.242232	-0.222599	0.121041	0.967367	0.002127	0.992321	-0.123674	-0.974908	-0.025472	-0.221147
24804	10.177381	-1.877214	2.285478	-1.301091	-0.309442	-0.163263	-0.225648	0.119426	0.966861	0.014347	0.992757	-0.119277	-0.974103	-0.013043	-0.225727
24805	9.989431	-1.831861	2.264674	-1.255135	-0.171822	-0.069220	-0.227367	0.118774	0.966539	0.026388	0.992921	-0.115809	-0.973452	-0.000826	-0.228891
24806	9.553001	-2.100513	2.083699	-1.256913	-0.083553	0.015201	-0.228189	0.118997	0.966317	0.038553	0.992829	-0.113158	-0.972853	0.011433	-0.231140
24807	9.220369	-2.648124	1.778264	-1.252629	-0.030313	0.068748	-0.228484	0.119733	0.966157	0.050867	0.992521	-0.110971	-0.972218	0.023791	-0.232865
24808	9.405205	-3.072678	0.883171	-1.160564	-0.029834	0.104838	-0.228724	0.120854	0.965960	0.062272	0.992048	-0.109373	-0.971497	0.035136	-0.234431
24809	9.652312	-3.307686	0.085116	-1.090302	-0.039629	0.106745	-0.229066	0.121977	0.965738	0.073079	0.991473	-0.107894	-0.970664	0.045860	-0.236027
24810	9.437886	-3.931667	-1.077340	-1.214880	-0.011815	0.054196	-0.229146	0.122600	0.965640	0.084858	0.990776	-0.105654	-0.969686	0.057732	-0.237436
24811	9.739386	-4.708750	-3.131171	-1.372576	-0.115130	-0.046314	-0.230332	0.122264	0.965401	0.098026	0.989944	-0.101985	-0.968162	0.071144	-0.240001
24812	11.598150	-3.823276	-5.933295	-1.298438	-0.085333	-0.137140	-0.231310	0.121062	0.965319	0.110112	0.989110	-0.097661	-0.966629	0.083704	-0.242121
24813	13.488188	-1.370376	-6.203589	-0.879052	0.188824	-0.166546	-0.229702	0.119299	0.965922	0.118198	0.988532	-0.093983	-0.966057	0.092582	-0.241169
24814	13.846368	0.876490	-5.094606	-0.432243	0.537070	-0.112343	-0.224658	0.117773	0.967294	0.121952	0.988263	-0.092002	-0.966776	0.097295	-0.236384
24815	12.782180	1.783731	-4.231535	-0.196810	0.647327	0.025960	-0.218391	0.117441	0.968769	0.123888	0.988036	-0.091848	-0.967965	0.099960	-0.230328
24816	11.634821	1.201619	-4.072650	-0.365729	0.451963	0.101296	-0.213899	0.118069	0.969694	0.127503	0.987551	-0.092118	-0.968499	0.103935	-0.226290
24817	11.756517	-0.362977	-4.918915	-0.634015	0.256275	0.090457	-0.211325	0.118738	0.970177	0.133809	0.986763	-0.091622	-0.968213	0.110456	-0.224416
24818	11.962581	-1.497000	-4.859497	-0.624165	0.316665	-0.012806	-0.208288	0.118337	0.970882	0.139693	0.986076	-0.090219	-0.968040	0.116834	-0.221919
24819	11.275740	-2.418209	-4.003385	-0.395179	0.403872	-0.016602	-0.204427	0.117743	0.971775	0.143458	0.985624	-0.089243	-0.968313	0.121165	-0.218380
24820	10.023939	-3.116853	-2.570820	-0.054921	0.478716	-0.012855	-0.199821	0.117123	0.972807	0.143826	0.985582	-0.089119	-0.969219	0.122107	-0.213786
24821	9.540372	-3.406583	-1.295045	0.238338	0.497804	0.021097	-0.194989	0.116779	0.973829	0.141529	0.985845	-0.089882	-0.970541	0.120299	-0.208756
24822	9.869764	-3.191519	-0.241927	0.515568	0.556520	0.090083	-0.189472	0.117109	0.974877	0.136536	0.986358	-0.091951	-0.972347	0.115683	-0.202877
24823	10.384398	-2.467864	0.686230	0.786244	0.733122	0.177947	-0.182124	0.118093	0.976158	0.129184	0.987030	-0.095306	-0.974752	0.108746	-0.195018
24824	10.589904	-1.508115	1.624095	0.944933	0.975554	0.253406	-0.172299	0.119679	0.977747	0.120235	0.987725	-0.099713	-0.977679	0.100379	-0.184574
24825	10.620886	-0.758534	2.089080	0.971742	1.209309	0.322333	-0.160111	0.121751	0.979562	0.111225	0.988270	-0.104653	-0.980813	0.092196	-0.171775
24826	10.553966	-0.098959	2.186516	0.904784	1.422112	0.378363	-0.145747	0.124338	0.981477	0.102742	0.988609	-0.109985	-0.983973	0.084809	-0.156862
24827	10.548861	0.402259	1.914665	0.774302	1.626542	0.411645	-0.129337	0.127125	0.983418	0.095646	0.988723	-0.115232	-0.986977	0.079156	-0.140038
24828	10.425253	0.514812	1.602736	0.639561	1.797301	0.427517	-0.111185	0.130072	0.985251	0.089675	0.988667	-0.120403	-0.989746	0.074966	-0.121589
24829	10.345997	0.373020	1.229338	0.582303	1.927252	0.411352	-0.091757	0.132775	0.986890	0.084289	0.988549	-0.125162	-0.992208	0.071699	-0.101898
24830	10.524820	0.617721	1.150003	0.471546	2.001640	0.407698	-0.071546	0.135493	0.988192	0.079787	0.988333	-0.129735	-0.994241	0.069563	-0.081522
24831	10.503459	0.445182	0.836289	0.366435	2.031769	0.443273	-0.051013	0.138519	0.989045	0.076377	0.987975	-0.134430	-0.995773	0.068683	-0.060979
24832	10.275277	-0.019518	0.243115	0.315330	1.932321	0.497591	-0.031390	0.142208	0.989339	0.073304	0.987489	-0.139616	-0.996816	0.068140	-0.041422
24833	10.655445	-1.437299	-0.594052	0.119336	1.843433	0.539606	-0.012647	0.146315	0.989157	0.072196	0.986788	-0.145042	-0.997310	0.069579	-0.023043
24834	11.283456	-3.294804	-1.166331	-0.001163	1.807028	0.656972	0.005848	0.151610	0.988423	0.072098	0.985804	-0.151635	-0.997380	0.072150	-0.005166
24835	11.784468	-4.215371	-1.731708	0.140174	1.889996	0.793362	0.025233	0.158099	0.987101	0.070537	0.984673	-0.159513	-0.997190	0.073652	0.013694
24836	11.771158	-4.568940	-2.387150	0.545182	2.031051	0.877083	0.046069	0.165367	0.985156	0.064639	0.983642	-0.168136	-0.996845	0.071426	0.034626
24837	11.374648	-4.493239	-2.295847	1.041346	2.124953	0.925826	0.067763	0.173074	0.982575	0.053693	0.982779	-0.176812	-0.996256	0.064739	0.057304
24838	11.168067	-4.356098	-2.048873	1.524790	2.154745	0.910209	0.089620	0.180870	0.979415	0.037621	0.982056	-0.184800	-0.995265	0.053408	0.081207
24839	11.190746	-4.024132	-1.756753	2.044536	2.138584	0.872719	0.111093	0.188518	0.975766	0.016368	0.981363	-0.191463	-0.993675	0.037241	0.105937
24840	11.581992	-3.368295	-1.637231	2.406978	2.113893	0.839138	0.132080	0.196313	0.971605	-0.008731	0.980385	-0.196900	-0.991201	0.017523	0.131203
24841	11.647546	-2.776421	-1.560421	2.676576	2.072885	0.801047	0.152376	0.204075	0.967024	-0.036402	0.978944	-0.200855	-0.987652	-0.004596	0.156597
24842	11.272902	-1.821810	-1.615846	2.746076	2.082161	0.779868	0.172463	0.212183	0.961891	-0.064920	0.976849	-0.203842	-0.982874	-0.027291	0.182245
24843	10.194992	-1.133479	-1.440368	2.704398	2.062468	0.735692	0.192059	0.220196	0.956361	-0.092812	0.974211	-0.205667	-0.976985	-0.049261	0.207542
24844	9.475225	-0.404400	-1.355073	2.492552	1.974273	0.611426	0.210596	0.227458	0.950743	-0.118496	0.971323	-0.206134	-0.970365	-0.069249	0.231509
24845	8.558060	0.044273	-1.276585	2.264939	1.906642	0.452156	0.228404	0.233377	0.945181	-0.141436	0.968498	-0.204956	-0.963238	-0.086870	0.254217
24846	7.925460	0.207656	-1.183328	2.101893	1.823688	0.345602	0.245333	0.238582	0.939623	-0.162586	0.965641	-0.202737	-0.955708	-0.103031	0.275694
24847	7.409643	0.325858	-1.157187	2.013193	1.728962	0.271226	0.261281	0.243154	0.934135	-0.182485	0.962744	-0.199559	-0.947856	-0.118324	0.295919
24848	6.990886	0.255290	-1.150333	1.917545	1.611480	0.166497	0.276127	0.246894	0.928869	-0.201172	0.959882	-0.195334	-0.939832	-0.132926	0.314718
24849	6.637259	0.329925	-0.896252	1.799414	1.498766	0.041714	0.290024	0.249430	0.923943	-0.218181	0.957247	-0.189934	-0.931817	-0.146502	0.332046
24850	6.572420	0.532373	-0.626933	1.643962	1.388881	-0.072609	0.303031	0.250955	0.919344	-0.233341	0.954877	-0.183741	-0.923972	-0.158842	0.347915
24851	6.493408	0.820671	-0.083624	1.484641	1.289077	-0.126404	0.315154	0.251909	0.914997	-0.246664	0.952737	-0.177340	-0.916425	-0.169808	0.362395
24852	6.054721	0.746289	0.515852	1.211273	1.137039	-0.134267	0.325830	0.252692	0.911033	-0.257393	0.950930	-0.171701	-0.909716	-0.178548	0.374883
24853	6.005613	0.671943	0.678696	0.935448	0.896578	-0.110408	0.334208	0.253314	0.907820	-0.265565	0.949488	-0.167175	-0.904312	-0.185215	0.384598
24854	5.953472	0.380211	0.744442	0.675737	0.636817	-0.054863	0.340060	0.254052	0.905437	-0.271559	0.948329	-0.164096	-0.900342	-0.190077	0.391479
24855	6.022920	0.018074	0.610458	0.481362	0.369787	-0.018277	0.343391	0.254629	0.904017	-0.275877	0.947432	-0.162065	-0.897761	-0.193745	0.395586
24856	6.122382	-0.128806	0.246804	0.300163	0.158813	-0.036873	0.344878	0.254640	0.903447	-0.278509	0.946915	-0.160575	-0.896377	-0.196240	0.397490
24857	6.289497	-0.250150	0.320267	0.215178	0.044070	-0.086095	0.345470	0.253952	0.903415	-0.280192	0.946689	-0.158970	-0.895624	-0.198211	0.398208
24858	6.076662	-0.132409	0.577926	0.174031	-0.092495	-0.125085	0.344954	0.252624	0.903985	-0.281374	0.946639	-0.157174	-0.895453	-0.200140	0.397628
24859	5.655404	-0.116428	1.156197	0.089588	-0.335530	-0.153010	0.342335	0.250540	0.905559	-0.281703	0.946824	-0.155463	-0.896354	-0.201878	0.394708
24860	5.758462	-0.267408	1.955139	-0.014847	-0.631967	-0.199498	0.337186	0.247401	0.908349	-0.280935	0.947334	-0.153734	-0.898544	-0.203350	0.388932
24861	6.412777	-0.582238	3.254917	-0.079274	-0.764143	-0.282126	0.331056	0.243209	0.911730	-0.279331	0.948167	-0.151501	-0.901319	-0.204519	0.381832
24862	7.312824	-1.585334	4.962436	-0.168201	-0.853142	-0.354147	0.324300	0.238128	0.915491	-0.276691	0.949350	-0.148921	-0.904584	-0.205013	0.373762
24863	8.947782	-3.075053	7.656973	-0.154892	-0.928198	-0.355095	0.316822	0.232888	0.919449	-0.274200	0.950484	-0.146266	-0.907986	-0.205773	0.364993
24864	10.639642	-4.254537	9.777108	0.099468	-0.867202	-0.236100	0.309548	0.228886	0.922926	-0.274418	0.950804	-0.143760	-0.910426	-0.208767	0.357130
24865	12.380116	-3.948162	10.739720	0.727287	-0.666218	-0.049789	0.303576	0.227033	0.925363	-0.280938	0.949348	-0.140753	-0.910448	-0.217241	0.351982
24866	13.075253	-2.150634	11.043751	1.318801	-0.347202	-0.009053	0.300406	0.226235	0.926593	-0.292984	0.946384	-0.136080	-0.907699	-0.230597	0.350583
24867	12.985940	-0.786043	11.123037	1.441032	0.004095	0.008549	0.300373	0.226364	0.926572	-0.306109	0.942923	-0.131125	-0.903368	-0.244246	0.352520
24868	11.605655	-0.454668	10.389678	1.256903	0.323261	0.060295	0.303060	0.227812	0.925341	-0.317710	0.939608	-0.127270	-0.898452	-0.255420	0.357135
24869	9.049912	-0.784901	8.868128	1.026180	0.526924	0.075911	0.307490	0.229930	0.923354	-0.327187	0.936748	-0.124307	-0.893532	-0.263886	0.363271
24870	6.876611	-1.298192	7.479835	0.965612	0.553342	0.060005	0.312187	0.232052	0.921244	-0.336081	0.933980	-0.121370	-0.888588	-0.271723	0.369565
24871	5.609805	-0.671331	7.192042	0.929259	0.482322	0.160281	0.315870	0.234912	0.919262	-0.344871	0.931023	-0.119416	-0.883906	-0.279307	0.375096
24872	4.767365	0.789847	5.718292	0.697427	0.231138	0.276517	0.316911	0.238226	0.918050	-0.352017	0.928349	-0.119381	-0.880710	-0.285336	0.378064
24873	4.266786	2.085004	2.802508	0.356634	-0.239849	0.286714	0.313738	0.240232	0.918617	-0.356112	0.926615	-0.120700	-0.880201	-0.289263	0.376263
24874	4.584229	2.522822	-1.142376	-0.462413	-0.899708	0.235004	0.304936	0.239898	0.921663	-0.352869	0.927336	-0.124627	-0.884589	-0.287223	0.367430
24875	5.562292	2.373764	-4.449980	-1.819001	-1.431951	0.101499	0.291796	0.236862	0.926689	-0.337034	0.932173	-0.132138	-0.895133	-0.273768	0.351835
24876	7.624841	0.429659	-5.884124	-2.931815	-1.843239	0.013444	0.275092	0.232203	0.932956	-0.310684	0.939801	-0.142299	-0.909835	-0.250709	0.330674
24877	12.345357	-3.696445	-2.462324	-2.408475	-1.933312	-0.053211	0.257495	0.227069	0.939221	-0.288528	0.945722	-0.149538	-0.922197	-0.232487	0.309034
24878	19.620544	-8.591851	5.616316	-0.114264	-1.420895	-0.158629	0.244795	0.222285	0.943750	-0.287127	0.946325	-0.148415	-0.926085	-0.234645	0.295479
24879	23.515777	-8.233414	9.801120	2.540475	-0.305257	-0.126066	0.242309	0.220380	0.944838	-0.310310	0.940308	-0.139743	-0.919236	-0.259331	0.296231
24880	17.477435	1.002885	7.080101	3.292532	0.354193	0.068067	0.245287	0.222056	0.943676	-0.340644	0.931084	-0.130551	-0.907632	-0.289436	0.304025
24881	11.324884	6.326892	1.092467	2.151943	0.012173	0.346245	0.244135	0.225340	0.943197	-0.360990	0.923843	-0.127278	-0.900047	-0.309412	0.306888
24882	8.407501	8.301996	-2.430803	0.294822	-0.348439	0.389683	0.239558	0.227881	0.943760	-0.364634	0.922021	-0.130075	-0.899808	-0.312966	0.303971
24883	6.921194	7.226762	-2.999258	-1.380044	-0.518048	0.231151	0.234004	0.228460	0.945012	-0.352768	0.925710	-0.136441	-0.905978	-0.301442	0.297213
24884	6.660137	4.090460	-0.636888	-2.189067	-0.621006	0.073980	0.228085	0.227299	0.946738	-0.332978	0.931947	-0.143528	-0.914933	-0.282506	0.288249
24885	7.369597	0.006120	0.967954	-2.406978	-0.863762	-0.016444	0.220146	0.224830	0.949203	-0.310848	0.938516	-0.150204	-0.924613	-0.261991	0.276499
24886	8.816012	-2.588759	-0.752702	-2.699119	-1.342475	-0.070646	0.207866	0.220744	0.952924	-0.285533	0.945466	-0.156732	-0.935555	-0.239512	0.259560
24887	10.904330	-5.129860	-3.448502	-2.644005	-1.712054	-0.050610	0.191849	0.216384	0.957273	-0.260600	0.951609	-0.162876	-0.946193	-0.218217	0.238955
24888	12.058315	-5.872679	-3.650355	-1.870458	-1.639156	0.035526	0.176176	0.213220	0.960989	-0.242838	0.955499	-0.167483	-0.953935	-0.203858	0.220114
24889	11.259362	-5.025094	-2.349747	-1.156697	-1.358651	0.250325	0.162542	0.212939	0.963451	-0.232245	0.957259	-0.172389	-0.958980	-0.195736	0.205049
24890	9.652185	-3.504353	-0.815921	-0.634758	-1.105464	0.379595	0.151032	0.214402	0.964998	-0.226698	0.957692	-0.177298	-0.962184	-0.191985	0.193247
24891	8.736429	-2.685528	-0.044464	-0.510937	-1.012566	0.290981	0.140580	0.215299	0.966376	-0.222244	0.958023	-0.181108	-0.964803	-0.189312	0.182528
24892	8.411965	-2.307694	0.117176	-0.506620	-0.951163	0.115745	0.131114	0.214600	0.967862	-0.217468	0.958737	-0.183117	-0.967221	-0.186470	0.172372
24893	8.337636	-2.152298	0.102183	-0.542776	-0.945008	-0.067006	0.122063	0.212251	0.969562	-0.212172	0.959865	-0.183417	-0.969579	-0.183325	0.162198
24894	8.590526	-2.030211	0.165736	-0.609780	-0.962978	-0.190197	0.113087	0.208659	0.971428	-0.205991	0.961381	-0.182521	-0.971998	-0.179464	0.151701
24895	9.205284	-1.613934	0.252484	-0.652527	-1.020356	-0.194717	0.103508	0.205017	0.973270	-0.199473	0.962924	-0.181623	-0.974421	-0.175341	0.140566
24896	9.768315	-1.962631	0.027120	-0.661438	-1.029514	-0.162517	0.093756	0.201652	0.974960	-0.192820	0.964409	-0.180927	-0.976745	-0.171029	0.129302
24897	9.821975	-2.455429	0.021067	-0.603039	-0.974006	-0.150928	0.084477	0.198590	0.976435	-0.186832	0.965715	-0.180245	-0.978753	-0.167203	0.118684
24898	9.801166	-2.471061	0.015782	-0.513738	-0.942967	-0.117387	0.075428	0.195881	0.977723	-0.181666	0.966806	-0.179679	-0.980463	-0.164066	0.108509
24899	9.592112	-2.545336	-0.042960	-0.525270	-0.914792	-0.075853	0.066545	0.193703	0.978801	-0.176500	0.967791	-0.179524	-0.982049	-0.160811	0.098590
24900	9.383921	-3.082277	-0.125804	-0.404809	-0.925219	-0.048542	0.057507	0.191747	0.979758	-0.172455	0.968537	-0.179429	-0.983337	-0.158646	0.088765
24901	9.467622	-2.835989	-0.031265	-0.289163	-0.935701	-0.061320	0.048365	0.189715	0.980647	-0.169619	0.969096	-0.179115	-0.984322	-0.157673	0.079049
24902	9.573334	-2.398273	0.218945	-0.221158	-0.927030	-0.081647	0.039340	0.187463	0.981484	-0.167376	0.969602	-0.178485	-0.985108	-0.157255	0.069521
24903	9.458447	-2.159444	0.684393	-0.253715	-0.862989	-0.098893	0.030959	0.185192	0.982215	-0.164881	0.970169	-0.177724	-0.985827	-0.156447	0.060570
24904	9.095321	-2.143204	0.904450	-0.340927	-0.862072	-0.097309	0.022580	0.182910	0.982870	-0.161467	0.970881	-0.176969	-0.986620	-0.154706	0.051457
24905	9.291413	-2.622921	0.663108	-0.417282	-0.896099	-0.114219	0.013877	0.180467	0.983483	-0.157367	0.971714	-0.176087	-0.987443	-0.152324	0.041884
24906	9.548101	-2.355348	0.644179	-0.467835	-0.841190	-0.126732	0.005728	0.177975	0.984018	-0.152714	0.972648	-0.175029	-0.988254	-0.149271	0.032750
24907	9.606565	-2.318228	0.572699	-0.531280	-0.749022	-0.137859	-0.001511	0.175572	0.984466	-0.147497	0.973660	-0.173871	-0.989061	-0.145468	0.024425
24908	9.270127	-2.231753	0.408643	-0.609548	-0.680412	-0.175123	-0.008027	0.172905	0.984906	-0.141460	0.974836	-0.172290	-0.989911	-0.140708	0.016634
24909	9.304782	-2.359403	0.114462	-0.612581	-0.682247	-0.208902	-0.014534	0.169966	0.985343	-0.135455	0.976028	-0.170358	-0.990677	-0.135946	0.008837
24910	9.217986	-2.413001	-0.069591	-0.598284	-0.693405	-0.216231	-0.021156	0.166946	0.985739	-0.129556	0.977189	-0.168279	-0.991346	-0.131269	0.000955
24911	9.124002	-2.346341	-0.483801	-0.647109	-0.738693	-0.246779	-0.028209	0.163625	0.986119	-0.123237	0.978417	-0.165873	-0.991976	-0.126206	-0.007436
24912	9.007351	-2.312680	-1.047392	-0.678004	-0.839465	-0.276944	-0.036245	0.159899	0.986468	-0.116596	0.979698	-0.163086	-0.992518	-0.120929	-0.016865
24913	9.118820	-2.221754	-1.239524	-0.698517	-0.938508	-0.307923	-0.045252	0.155814	0.986749	-0.109823	0.980998	-0.159942	-0.992920	-0.115606	-0.027280
24914	9.357295	-1.993909	-1.369420	-0.698872	-1.012114	-0.341194	-0.054979	0.151348	0.986950	-0.103055	0.982306	-0.156376	-0.993155	-0.110308	-0.038409
24915	9.554587	-1.788997	-1.274229	-0.673125	-1.048518	-0.370423	-0.065061	0.146620	0.987051	-0.096628	0.983573	-0.152473	-0.993192	-0.105296	-0.049825
24916	9.513531	-1.709014	-0.905874	-0.634376	-1.040282	-0.383510	-0.075075	0.141804	0.987044	-0.090598	0.984773	-0.148369	-0.993054	-0.100563	-0.061084
24917	9.366329	-1.852451	-0.531666	-0.604115	-1.025840	-0.386715	-0.084958	0.137030	0.986917	-0.084943	0.985896	-0.144200	-0.992757	-0.096083	-0.072120
24918	9.504930	-1.931080	-0.467666	-0.545115	-1.021329	-0.394758	-0.094811	0.132206	0.986677	-0.079891	0.986935	-0.139917	-0.992284	-0.092093	-0.083010
24919	9.709218	-1.717048	-0.319586	-0.490870	-0.968733	-0.398105	-0.104149	0.127445	0.986362	-0.075451	0.987885	-0.135609	-0.991696	-0.088546	-0.093271
24920	9.637382	-1.409141	-0.099932	-0.499834	-0.919910	-0.397493	-0.113019	0.122754	0.985981	-0.070935	0.988810	-0.131237	-0.991058	-0.084773	-0.103046
24921	9.664420	-1.529173	0.176803	-0.556415	-0.896180	-0.396127	-0.121663	0.118140	0.985516	-0.065920	0.989738	-0.126784	-0.990380	-0.080390	-0.112626
24922	9.672502	-2.046208	0.406927	-0.565360	-0.865328	-0.386224	-0.130025	0.113676	0.984973	-0.060819	0.990621	-0.122357	-0.989644	-0.075814	-0.121892
24923	9.665544	-2.652574	0.739887	-0.545439	-0.850799	-0.359791	-0.138267	0.109530	0.984320	-0.055937	0.991416	-0.118177	-0.988814	-0.071400	-0.130953
24924	9.854685	-3.193743	0.940229	-0.535434	-0.840843	-0.330967	-0.146439	0.105708	0.983556	-0.051138	0.992136	-0.114243	-0.987897	-0.067026	-0.139882
24925	10.327127	-3.190591	1.116728	-0.508193	-0.794483	-0.307206	-0.154169	0.102189	0.982746	-0.046612	0.992778	-0.110544	-0.986944	-0.062850	-0.148292
24926	10.126233	-2.868361	1.632828	-0.550409	-0.664470	-0.257891	-0.160647	0.099276	0.982006	-0.041628	0.993362	-0.107234	-0.986134	-0.058106	-0.155448
24927	9.690381	-2.826809	2.305872	-0.646738	-0.571888	-0.243836	-0.166226	0.096584	0.981346	-0.035682	0.993951	-0.103868	-0.985442	-0.052282	-0.161774
24928	9.564662	-2.824880	2.611621	-0.744374	-0.510847	-0.261306	-0.171207	0.093794	0.980760	-0.028848	0.994554	-0.100149	-0.984813	-0.045439	-0.167569
24929	9.462650	-2.388791	2.730646	-0.825541	-0.424473	-0.274469	-0.175352	0.090934	0.980297	-0.021225	0.995145	-0.096108	-0.984277	-0.037660	-0.172570
24930	9.366732	-1.653314	2.875514	-1.034697	-0.346649	-0.285612	-0.178745	0.088042	0.979948	-0.011625	0.995730	-0.091580	-0.983827	-0.027762	-0.176958
24931	9.356928	-1.081574	2.640511	-1.347354	-0.255106	-0.284225	-0.181272	0.085204	0.979735	0.001087	0.996256	-0.086440	-0.983432	-0.014604	-0.180686
24932	9.452793	-1.342554	2.273508	-1.526864	-0.169525	-0.259714	-0.182983	0.082671	0.979634	0.015543	0.996577	-0.081198	-0.982993	0.000368	-0.183642
24933	9.735979	-2.058622	1.928428	-1.491712	-0.113178	-0.235913	-0.184181	0.080378	0.979600	0.029740	0.996650	-0.076185	-0.982442	0.015102	-0.185954
24934	10.062812	-2.778484	1.321939	-1.339166	-0.036596	-0.196717	-0.184628	0.078496	0.979669	0.042437	0.996512	-0.071848	-0.981892	0.028309	-0.187315
24935	10.418104	-2.890341	0.690375	-1.051888	-0.004012	-0.134240	-0.184762	0.077209	0.979746	0.052485	0.996262	-0.068613	-0.981381	0.038745	-0.188123
24936	10.207173	-2.973426	1.065618	-0.726989	0.073466	-0.057616	-0.184086	0.076683	0.979914	0.059401	0.995998	-0.066782	-0.981113	0.045914	-0.187905
24937	9.550515	-3.477751	1.202388	-0.746069	0.044504	-0.037264	-0.183703	0.076339	0.980013	0.066622	0.995654	-0.065070	-0.980722	0.053337	-0.187991
24938	9.915940	-3.923884	-1.170173	-1.143707	-0.037354	-0.086442	-0.184141	0.075588	0.979989	0.077542	0.995048	-0.062179	-0.979836	0.064540	-0.189091
24939	11.838367	-3.321123	-4.089219	-1.185995	-0.028154	-0.182307	-0.184598	0.073845	0.980036	0.088791	0.994349	-0.058199	-0.978795	0.076275	-0.190111
24940	13.950016	-1.603760	-4.151605	-0.758506	0.241840	-0.231389	-0.182454	0.071448	0.980615	0.095635	0.993917	-0.054623	-0.978552	0.083815	-0.188177
24941	14.413373	-0.531927	-2.566706	-0.528231	0.610870	-0.195049	-0.176694	0.069032	0.981842	0.100426	0.993596	-0.051785	-0.979129	0.089452	-0.182495
24942	14.193101	-0.789531	-1.684733	-0.536635	0.828135	-0.093737	-0.168688	0.067436	0.983360	0.105364	0.993174	-0.050034	-0.980022	0.095171	-0.174642
24943	13.879357	-1.241334	-1.569430	-0.369290	0.914809	0.051579	-0.159690	0.067110	0.984883	0.109040	0.992781	-0.049968	-0.981127	0.099412	-0.165855
24944	13.141374	-1.235967	-0.640418	-0.018140	0.966859	0.171185	-0.150018	0.067947	0.986346	0.109325	0.992658	-0.051754	-0.982620	0.100068	-0.156345
24945	12.060637	-1.347003	0.185916	0.195116	1.107474	0.258496	-0.138873	0.069464	0.987871	0.107747	0.992675	-0.054654	-0.984431	0.098851	-0.145340
24946	10.953686	-1.475472	0.774735	0.257591	1.240987	0.316012	-0.126314	0.071492	0.989411	0.105465	0.992715	-0.058267	-0.986368	0.096988	-0.132934
24947	10.251146	-1.472349	0.801991	0.257605	1.371019	0.350967	-0.112439	0.073710	0.990921	0.103307	0.992708	-0.062120	-0.988274	0.095384	-0.119234
24948	10.283017	-1.604334	0.564843	0.265620	1.454282	0.413074	-0.097637	0.076549	0.992274	0.100943	0.992658	-0.066646	-0.990090	0.093656	-0.104647
24949	11.050002	-1.667835	0.335403	0.259387	1.544496	0.491016	-0.081870	0.080039	0.993424	0.098778	0.992514	-0.071825	-0.991736	0.092248	-0.089163
24950	11.597383	-1.594333	0.065729	0.300737	1.678285	0.588258	-0.064645	0.084464	0.994327	0.096045	0.992312	-0.078048	-0.993276	0.090455	-0.072260
24951	11.866349	-1.159320	-0.101474	0.383409	1.801866	0.673142	-0.046128	0.089585	0.994910	0.092571	0.992068	-0.085037	-0.994637	0.088177	-0.054055
24952	11.760199	-0.819881	-0.369264	0.437967	1.897447	0.730819	-0.026589	0.095314	0.995092	0.088294	0.991777	-0.092638	-0.995740	0.085397	-0.034786
24953	11.405597	-0.401719	-0.882085	0.492433	1.920350	0.756630	-0.006839	0.101258	0.994837	0.083476	0.991445	-0.100339	-0.996486	0.082359	-0.015233
24954	10.996109	0.088353	-1.339543	0.590037	1.910410	0.710951	0.012766	0.106900	0.994188	0.077393	0.991181	-0.107571	-0.996919	0.078317	0.004380
24955	10.569179	0.706196	-1.251870	0.714529	1.881459	0.633817	0.031962	0.111808	0.993216	0.070087	0.991026	-0.113817	-0.997029	0.073249	0.023839
24956	9.902475	1.017543	-1.065917	0.756265	1.860486	0.556226	0.050867	0.116134	0.991930	0.062148	0.990923	-0.119203	-0.996770	0.067710	0.043187
24957	9.602356	0.797328	-1.090406	0.689525	1.723549	0.503866	0.068306	0.120053	0.990415	0.054934	0.990775	-0.123885	-0.996151	0.062870	0.061081
24958	9.975588	0.211347	-1.514476	0.575038	1.600756	0.494802	0.084488	0.124096	0.988667	0.048678	0.990516	-0.128488	-0.995235	0.058982	0.077646
24959	10.494068	-0.723173	-1.975616	0.586675	1.519532	0.558541	0.099826	0.128812	0.986632	0.042283	0.990140	-0.133548	-0.994106	0.055050	0.093395
24960	10.238285	-1.249559	-2.197734	0.803858	1.542072	0.625469	0.115366	0.134315	0.984200	0.033481	0.989727	-0.138994	-0.992759	0.048987	0.109684
24961	9.235861	-1.422414	-1.980464	1.058865	1.535965	0.656548	0.130754	0.140175	0.981455	0.022123	0.989295	-0.144242	-0.991168	0.040573	0.126253
24962	8.735154	-1.424941	-1.702882	1.188245	1.387738	0.721206	0.144587	0.146927	0.978523	0.009220	0.988671	-0.149814	-0.989449	0.030683	0.141594
24963	8.990192	-1.841382	-1.858172	1.435851	1.257234	0.721487	0.156994	0.153800	0.975550	-0.006109	0.987932	-0.154769	-0.987581	0.018338	0.156038
24964	9.506530	-2.315125	-2.139696	1.783458	1.191952	0.728508	0.168609	0.160986	0.972448	-0.025032	0.986954	-0.159047	-0.985365	0.002475	0.170439
24965	10.109955	-2.327001	-2.263249	2.190602	1.229560	0.736808	0.180404	0.168392	0.969071	-0.047921	0.985571	-0.162338	-0.982425	-0.017152	0.185870
24966	10.283075	-2.313841	-2.309250	2.503806	1.344347	0.762551	0.193082	0.176401	0.965195	-0.074039	0.983521	-0.164939	-0.978385	-0.039615	0.202960
24967	10.042240	-2.343087	-2.073702	2.884090	1.418587	0.788893	0.206185	0.184941	0.960877	-0.103805	0.980569	-0.166457	-0.972991	-0.065423	0.221377
24968	10.032699	-2.234055	-1.770216	3.231128	1.434086	0.774496	0.219111	0.193787	0.956262	-0.136926	0.976486	-0.166511	-0.966044	-0.094453	0.240493
24969	9.866416	-1.974920	-1.398394	3.470228	1.451237	0.690025	0.231964	0.202148	0.951488	-0.171911	0.971290	-0.164445	-0.957413	-0.125426	0.260056
24970	9.435188	-0.952958	-0.619475	3.551575	1.439024	0.581535	0.244511	0.209928	0.946649	-0.207262	0.965034	-0.160471	-0.947237	-0.156967	0.279471
24971	9.189100	0.109915	-0.026849	3.385088	1.434081	0.455803	0.256953	0.216817	0.941788	-0.240335	0.958230	-0.155031	-0.936063	-0.186509	0.298329
24972	8.486030	0.958484	0.690796	3.041416	1.421769	0.330228	0.269279	0.222911	0.936910	-0.269623	0.951390	-0.148863	-0.924550	-0.212527	0.316291
24973	7.762505	1.424666	1.172596	2.601755	1.321983	0.191967	0.280844	0.227725	0.932345	-0.294116	0.945125	-0.142252	-0.913577	-0.234267	0.332410
24974	7.202766	1.721983	1.506511	2.093144	1.152135	0.049527	0.291105	0.231073	0.928366	-0.313379	0.939886	-0.135675	-0.903909	-0.251435	0.346019
24975	6.940390	1.851938	1.657479	1.559942	0.948366	-0.024062	0.299672	0.233329	0.925070	-0.327399	0.935900	-0.130002	-0.896106	-0.263909	0.356854
24976	6.901334	1.831203	1.672868	1.103954	0.736402	-0.043248	0.306338	0.234962	0.922470	-0.337205	0.933007	-0.125665	-0.890197	-0.272565	0.365045
24977	7.000000	1.828992	1.702069	0.715447	0.536889	-0.027716	0.311154	0.236219	0.920535	-0.343525	0.931079	-0.122809	-0.886101	-0.278014	0.370856
24978	7.067829	1.617089	1.621763	0.397341	0.364475	-0.001693	0.314334	0.237263	0.919185	-0.347090	0.929948	-0.121346	-0.883585	-0.280896	0.374666
24979	6.966290	1.149969	1.469088	0.197841	0.229863	0.043836	0.316164	0.238354	0.918274	-0.349026	0.929264	-0.121036	-0.882168	-0.282235	0.376992
24980	6.848620	0.755603	1.335421	0.106824	0.100040	0.085933	0.316700	0.239458	0.917802	-0.350276	0.928740	-0.121445	-0.881481	-0.283022	0.378008
24981	6.694705	0.554522	1.310238	0.079420	-0.018664	0.124242	0.316052	0.240596	0.917728	-0.351420	0.928193	-0.122315	-0.881258	-0.283850	0.377908
24982	6.541999	0.391714	1.343634	0.096878	-0.139906	0.138525	0.314288	0.241493	0.918098	-0.352732	0.927574	-0.123237	-0.881365	-0.285111	0.376707
24983	6.692803	0.272174	1.315998	0.135444	-0.269469	0.130296	0.311404	0.241967	0.918956	-0.354385	0.926848	-0.123956	-0.881725	-0.287064	0.374374
24984	6.966436	0.370645	1.500567	0.169593	-0.353806	0.106729	0.307862	0.241935	0.920157	-0.356220	0.926096	-0.124314	-0.882229	-0.289507	0.371292
24985	7.297428	0.662589	1.788365	0.219992	-0.386400	0.059702	0.304192	0.241400	0.921517	-0.358395	0.925287	-0.124081	-0.882621	-0.292522	0.367981
24986	7.428859	0.808667	2.699163	0.215228	-0.404748	0.009741	0.300544	0.240287	0.923004	-0.360320	0.924632	-0.123385	-0.883087	-0.295494	0.364473
24987	7.766497	0.338945	3.912567	0.179164	-0.434860	-0.043460	0.296811	0.238631	0.924640	-0.361824	0.924181	-0.122366	-0.883734	-0.298237	0.360650
24988	8.499359	-0.258413	5.103197	0.130069	-0.528377	-0.090679	0.292430	0.236189	0.926660	-0.362694	0.924012	-0.121058	-0.884838	-0.300693	0.355874
24989	9.725552	-1.658628	6.924373	-0.102496	-0.561860	-0.078277	0.287689	0.233811	0.928745	-0.361609	0.924481	-0.120725	-0.886834	-0.301111	0.350511
24990	11.138172	-3.477661	8.959428	-0.285920	-0.430417	0.052433	0.283642	0.232988	0.930196	-0.359212	0.925220	-0.122208	-0.889108	-0.299474	0.346123
24991	11.713895	-4.376093	9.502955	-0.168107	-0.227104	0.206424	0.280833	0.234255	0.930729	-0.358349	0.925216	-0.124741	-0.890347	-0.298495	0.343777
24992	11.541854	-2.501059	9.374196	0.226338	-0.083730	0.256302	0.279127	0.236386	0.930704	-0.361105	0.923924	-0.126365	-0.889770	-0.300810	0.343252
24993	10.852718	-0.677863	9.073450	0.423002	0.099718	0.179503	0.279313	0.238380	0.930139	-0.365416	0.922193	-0.126612	-0.887950	-0.304523	0.344689
24994	9.552551	0.070623	9.117560	0.387272	0.296933	0.065793	0.281668	0.239919	0.929033	-0.369074	0.920832	-0.125904	-0.885690	-0.307419	0.347917
24995	8.557792	0.007796	8.906587	0.261452	0.436796	-0.003576	0.285497	0.241267	0.927514	-0.371427	0.920011	-0.124987	-0.883478	-0.308820	0.352274
24996	8.056817	-0.484804	8.117647	0.170271	0.538505	-0.025167	0.290310	0.242729	0.925636	-0.372905	0.919523	-0.124171	-0.881284	-0.309126	0.357461
24997	7.765498	-0.909632	6.874962	0.153255	0.519091	-0.029647	0.294942	0.244097	0.923811	-0.374217	0.919097	-0.123377	-0.879188	-0.309317	0.362425
24998	7.343701	-1.310412	5.643607	0.297528	0.417304	-0.087948	0.298905	0.244622	0.922397	-0.376628	0.918362	-0.121504	-0.876816	-0.311082	0.366635
24999	6.819805	-0.917733	5.379681	0.546064	0.304582	-0.097856	0.301894	0.244713	0.921399	-0.381164	0.916866	-0.118622	-0.873827	-0.315393	0.370072
25000	6.103689	0.815212	5.005808	0.431689	0.090948	0.045188	0.302485	0.245461	0.921006	-0.385137	0.915353	-0.117464	-0.871879	-0.319182	0.371416
25001	5.664380	2.710388	2.969611	-0.030993	-0.280969	0.128850	0.299489	0.245778	0.921900	-0.385305	0.915111	-0.118797	-0.872838	-0.319634	0.368765
25002	5.443373	3.362356	-0.321350	-0.796502	-0.803118	0.097315	0.292061	0.244157	0.924709	-0.378676	0.917371	-0.122618	-0.878240	-0.314353	0.360385
25003	5.584305	3.100589	-3.835368	-1.932565	-1.398344	-0.008304	0.279685	0.239821	0.929657	-0.361621	0.923303	-0.129389	-0.889386	-0.299995	0.344958
25004	7.234909	1.620304	-5.636331	-3.077138	-1.864086	-0.160075	0.263497	0.232969	0.936106	-0.333592	0.932536	-0.138181	-0.905144	-0.275867	0.323437
25005	11.622890	-2.113662	-3.923994	-3.201658	-2.038175	-0.329783	0.245893	0.224551	0.942928	-0.303572	0.941696	-0.145093	-0.920533	-0.250569	0.299724
25006	17.633958	-6.853666	1.346486	-1.869168	-1.654353	-0.409608	0.231774	0.216635	0.948341	-0.285285	0.947158	-0.146641	-0.929996	-0.236560	0.281329
25007	21.596134	-8.714484	6.728175	0.383763	-0.710387	-0.182612	0.225644	0.213246	0.950585	-0.288486	0.946613	-0.143876	-0.930516	-0.241766	0.275116
25008	18.554924	-5.402449	8.302605	1.775694	0.004186	0.150765	0.225207	0.214688	0.950364	-0.305318	0.941841	-0.140412	-0.925237	-0.258542	0.277657
25009	13.183375	-1.799428	4.276188	1.935622	-0.168540	0.420002	0.222284	0.218217	0.950248	-0.324161	0.935726	-0.139054	-0.919516	-0.277124	0.278734
25010	10.132803	2.716356	-0.432194	1.299849	-0.455143	0.552180	0.216249	0.222097	0.950742	-0.337331	0.930810	-0.140714	-0.916212	-0.290286	0.276207
25011	8.000921	6.608518	-2.055613	0.059148	-0.594423	0.350416	0.209568	0.223662	0.951870	-0.338667	0.929834	-0.143922	-0.917271	-0.292205	0.270610
25012	7.113774	7.234471	-1.450738	-1.213864	-0.624219	0.057344	0.203612	0.222379	0.953462	-0.327595	0.933203	-0.147696	-0.922618	-0.282277	0.262862
25013	6.583520	4.393455	-0.008702	-1.975300	-0.634104	-0.098376	0.198004	0.219759	0.955249	-0.309145	0.938806	-0.151897	-0.930174	-0.265234	0.253825
25014	6.787781	-0.040912	0.922398	-2.184106	-0.879178	-0.147815	0.190221	0.216053	0.957673	-0.288375	0.944748	-0.155858	-0.938433	-0.246521	0.242015
25015	8.371238	-3.689675	0.512165	-2.195047	-1.250016	-0.145307	0.178796	0.211747	0.960831	-0.267461	0.950252	-0.159645	-0.946835	-0.228441	0.226535
25016	10.174408	-6.453292	-1.000535	-1.944020	-1.451702	-0.066000	0.165154	0.207856	0.964116	-0.248791	0.954707	-0.163210	-0.954373	-0.212909	0.209387
25017	11.239761	-6.110828	-1.139575	-1.261349	-1.419956	0.079326	0.151328	0.205696	0.966845	-0.236891	0.957153	-0.166557	-0.959678	-0.203832	0.193572
25018	11.146963	-3.941358	-0.618347	-0.671974	-1.187732	0.252779	0.139297	0.205686	0.968654	-0.230745	0.958005	-0.170243	-0.962992	-0.199798	0.180908
25019	9.868336	-1.699889	-0.144632	-0.516480	-0.874532	0.325316	0.130078	0.207110	0.969631	-0.226248	0.958340	-0.174346	-0.965345	-0.196699	0.171517
25020	8.462734	-0.458598	0.494308	-0.705403	-0.705579	0.240850	0.122696	0.208021	0.970398	-0.219683	0.959223	-0.177849	-0.967825	-0.191359	0.163391
25021	8.178224	-0.142793	0.905839	-1.046170	-0.672245	0.068492	0.115989	0.207462	0.971342	-0.209668	0.961020	-0.180221	-0.970869	-0.182756	0.154966
25022	8.082953	-1.017398	0.362622	-1.384847	-0.703482	-0.141270	0.109410	0.204825	0.972664	-0.195977	0.963776	-0.180909	-0.974486	-0.170826	0.145588
25023	8.557105	-1.738006	-0.259631	-1.631618	-0.828889	-0.291315	0.101821	0.200697	0.974348	-0.179781	0.967023	-0.180401	-0.978423	-0.156800	0.134545
25024	9.538459	-2.311433	-1.219086	-1.755908	-0.941053	-0.348943	0.093168	0.195880	0.976192	-0.162160	0.970351	-0.179232	-0.982356	-0.141600	0.122169
25025	10.052681	-2.722743	-2.095443	-1.753755	-0.981168	-0.321926	0.083965	0.191480	0.977898	-0.144658	0.973310	-0.178161	-0.985913	-0.126501	0.109423
25026	10.832998	-3.096438	-2.323842	-1.569488	-0.981665	-0.300758	0.074656	0.187345	0.979453	-0.128856	0.975772	-0.176820	-0.988849	-0.113008	0.096988
25027	10.439273	-3.210446	-2.025675	-1.279786	-0.897445	-0.270168	0.066063	0.183785	0.980744	-0.116039	0.977637	-0.175386	-0.991045	-0.102218	0.085912
25028	9.570237	-3.449204	-1.603125	-0.907476	-0.912151	-0.282501	0.057298	0.180101	0.981978	-0.106801	0.979055	-0.173333	-0.992628	-0.094945	0.075333
25029	9.444915	-2.967395	-0.813846	-0.622738	-0.960018	-0.300744	0.048037	0.176309	0.983162	-0.100499	0.980156	-0.170860	-0.993777	-0.090600	0.064803
25030	9.693618	-3.432687	-0.985273	-0.448945	-1.035987	-0.277323	0.037972	0.172653	0.984250	-0.095862	0.981047	-0.168393	-0.994670	-0.087958	0.053803
25031	9.976363	-2.966333	-0.539436	-0.225530	-1.006880	-0.202644	0.028108	0.169826	0.985073	-0.093592	0.981581	-0.166554	-0.995214	-0.087514	0.043485
25032	9.632509	-2.245492	0.097647	-0.157649	-0.919894	-0.187531	0.019084	0.167177	0.985742	-0.091934	0.982038	-0.164769	-0.995582	-0.087479	0.034111
25033	9.367018	-1.989896	0.697760	-0.173294	-0.889168	-0.193199	0.010369	0.164548	0.986315	-0.090220	0.982499	-0.162963	-0.995868	-0.087295	0.025033
25034	9.103615	-2.296062	0.893276	-0.229194	-0.856709	-0.197367	0.001970	0.161865	0.986811	-0.087884	0.983023	-0.161068	-0.996129	-0.086408	0.016162
25035	9.120866	-2.387970	0.958377	-0.246156	-0.835638	-0.189244	-0.006228	0.159332	0.987205	-0.085475	0.983527	-0.159277	-0.996321	-0.085373	0.007493
25036	9.227127	-2.445497	1.062063	-0.319412	-0.788443	-0.216767	-0.013945	0.156541	0.987573	-0.082281	0.984140	-0.157159	-0.996512	-0.083450	-0.000844
25037	9.362135	-2.529093	1.066153	-0.347029	-0.703669	-0.227154	-0.020812	0.153771	0.987887	-0.078900	0.984767	-0.154947	-0.996665	-0.081169	-0.008362
25038	9.299374	-2.444708	1.178981	-0.381264	-0.629577	-0.241817	-0.026943	0.150900	0.988182	-0.075133	0.985439	-0.152530	-0.996809	-0.078355	-0.015213
25039	9.276666	-2.333048	1.242417	-0.448934	-0.579726	-0.255845	-0.032573	0.147980	0.988454	-0.070772	0.986155	-0.149968	-0.996961	-0.074839	-0.021649
25040	9.298410	-1.921132	1.108350	-0.507269	-0.531569	-0.256842	-0.037739	0.145079	0.988700	-0.065790	0.986898	-0.147326	-0.997120	-0.070606	-0.027700
25041	9.113038	-1.421387	0.843740	-0.590813	-0.483323	-0.264291	-0.042429	0.142187	0.988930	-0.060041	0.987670	-0.144581	-0.997294	-0.065511	-0.033369
25042	8.981830	-1.154315	0.299710	-0.695948	-0.482756	-0.294925	-0.047117	0.138994	0.989172	-0.053221	0.988516	-0.141437	-0.997471	-0.059309	-0.039179
25043	8.939325	-1.272708	-0.121399	-0.779276	-0.515247	-0.338412	-0.052125	0.135406	0.989418	-0.045652	0.989406	-0.137809	-0.997597	-0.052352	-0.045392
25044	8.872169	-1.805464	-0.634510	-0.847872	-0.563217	-0.381114	-0.057625	0.131384	0.989655	-0.037392	0.990323	-0.133649	-0.997638	-0.044707	-0.052155
25045	8.731008	-2.429860	-1.202980	-0.840081	-0.653865	-0.395405	-0.064051	0.127245	0.989801	-0.029288	0.991171	-0.129316	-0.997517	-0.037272	-0.059759
25046	9.084243	-2.775265	-1.372627	-0.680481	-0.753961	-0.411213	-0.071504	0.122937	0.989835	-0.022776	0.991915	-0.124841	-0.997180	-0.031471	-0.068126
25047	9.328397	-2.869076	-0.942821	-0.488224	-0.789739	-0.407565	-0.079328	0.118707	0.989755	-0.018251	0.992545	-0.120504	-0.996681	-0.027623	-0.076570
25048	9.337568	-2.999907	-0.591453	-0.345425	-0.830103	-0.396586	-0.087575	0.114587	0.989546	-0.015148	0.993094	-0.116338	-0.996043	-0.025178	-0.085235
25049	9.398640	-2.827384	-0.333756	-0.226973	-0.897251	-0.392681	-0.096487	0.110513	0.989180	-0.013284	0.993585	-0.112301	-0.995246	-0.023976	-0.094400
25050	9.351783	-2.690425	0.119383	-0.183664	-0.970042	-0.385559	-0.106131	0.106496	0.988633	-0.011869	0.994042	-0.108353	-0.994281	-0.023233	-0.104235
25051	9.444893	-2.461856	0.213684	-0.217194	-1.040134	-0.371266	-0.116460	0.102616	0.987880	-0.010157	0.994473	-0.104498	-0.993143	-0.022204	-0.114774
25052	9.607751	-1.859871	0.180822	-0.250931	-1.099493	-0.380206	-0.127380	0.098647	0.986936	-0.008163	0.994904	-0.100497	-0.991820	-0.020858	-0.125925
25053	10.028256	-1.091933	0.489546	-0.330781	-1.103995	-0.412535	-0.138327	0.094371	0.985880	-0.005465	0.995362	-0.096046	-0.990372	-0.018673	-0.137169
25054	10.279260	-0.402102	0.686736	-0.497049	-1.026215	-0.458231	-0.148508	0.089690	0.984836	-0.001240	0.995861	-0.090881	-0.988910	-0.014718	-0.147782
25055	10.163816	-0.064963	0.591285	-0.715691	-0.926741	-0.508229	-0.157708	0.084568	0.983858	0.005023	0.996382	-0.084839	-0.987473	-0.008438	-0.157562
25056	10.123981	0.063527	0.494688	-0.943796	-0.860955	-0.546869	-0.166290	0.079132	0.982897	0.013417	0.996864	-0.077987	-0.985986	0.000219	-0.166831
25057	10.039559	-0.162611	0.517743	-1.190334	-0.765893	-0.575839	-0.173976	0.073484	0.982004	0.024135	0.997231	-0.070348	-0.984454	0.011462	-0.175268
25058	9.941190	-0.839215	0.683200	-1.411551	-0.698883	-0.627815	-0.181074	0.067399	0.981157	0.036877	0.997413	-0.061710	-0.982778	0.025008	-0.183091
25059	10.359163	-1.888789	0.832694	-1.559900	-0.629050	-0.655174	-0.187569	0.061119	0.980348	0.050956	0.997324	-0.052428	-0.980929	0.040121	-0.190181
25060	10.909364	-3.105676	1.020805	-1.513225	-0.530495	-0.608675	-0.193147	0.055353	0.979607	0.064593	0.996959	-0.043597	-0.979041	0.054855	-0.196135
25061	11.253478	-4.454788	1.581291	-1.224589	-0.400781	-0.495221	-0.197443	0.050711	0.979002	0.075577	0.996476	-0.036374	-0.977397	0.066808	-0.200580
25062	11.365250	-5.532846	2.525704	-0.829223	-0.285470	-0.365663	-0.200543	0.047332	0.978541	0.082890	0.996070	-0.031192	-0.976172	0.074856	-0.203679
25063	11.960355	-5.919608	3.375223	-0.483215	-0.171654	-0.199533	-0.202416	0.045528	0.978241	0.087175	0.995791	-0.028307	-0.975412	0.079548	-0.205533
25064	12.704947	-5.270385	3.507427	-0.182900	0.073653	-0.008057	-0.201720	0.045465	0.978388	0.088842	0.995653	-0.027950	-0.975406	0.081284	-0.204882
25065	13.029395	-3.624849	3.455141	0.150724	0.492254	0.135500	-0.196824	0.046469	0.979337	0.087613	0.995714	-0.029638	-0.976516	0.079969	-0.200052
25066	12.712122	-1.807014	4.048505	0.487268	0.886776	0.227101	-0.187968	0.048129	0.980995	0.083155	0.995992	-0.032932	-0.978649	0.075384	-0.191217
25067	11.961531	-0.137041	4.472200	0.474414	1.196840	0.285529	-0.176037	0.050147	0.983105	0.078996	0.996200	-0.036670	-0.981209	0.071206	-0.179330
25068	11.416115	0.016904	3.149189	-0.013416	1.335522	0.321811	-0.162661	0.052488	0.985285	0.079536	0.996032	-0.039930	-0.983471	0.071870	-0.166191
25069	11.903157	-0.070565	1.188659	-0.266208	1.534345	0.398765	-0.147260	0.055381	0.987546	0.082744	0.995621	-0.043495	-0.985631	0.075308	-0.151198
25070	12.128489	0.390190	0.476394	-0.207948	1.824891	0.497766	-0.128826	0.059026	0.989909	0.085348	0.995183	-0.048233	-0.987988	0.078273	-0.133244
25071	12.022732	0.633413	-0.877688	-0.287333	1.959220	0.593062	-0.108961	0.063405	0.992022	0.088862	0.994589	-0.053809	-0.990066	0.082290	-0.114005
25072	12.213255	0.805876	-2.084135	-0.362087	2.044334	0.637498	-0.088115	0.068103	0.993780	0.092950	0.993869	-0.059867	-0.991764	0.087097	-0.093905
25073	12.243328	0.501821	-2.421407	-0.564530	2.083428	0.633241	-0.066860	0.072557	0.995121	0.099008	0.992912	-0.065744	-0.992838	0.094129	-0.073570
25074	12.663011	-0.146793	-2.892794	-0.765957	2.078858	0.612735	-0.045578	0.076676	0.996014	0.106840	0.991705	-0.071456	-0.993231	0.103157	-0.053392
25075	13.033211	-0.532381	-3.046088	-0.723463	2.077420	0.644655	-0.024260	0.080884	0.996428	0.114213	0.990420	-0.077615	-0.993160	0.111922	-0.033265
25076	13.054118	-0.759885	-2.929265	-0.558638	2.076599	0.683619	-0.002835	0.085343	0.996348	0.119737	0.989212	-0.084391	-0.992802	0.119060	-0.013024
25077	12.285981	-0.806499	-2.626823	-0.373471	2.090834	0.683854	0.018721	0.089610	0.995801	0.123350	0.988160	-0.091242	-0.992187	0.124540	0.007446
25078	11.149768	-0.886361	-2.231808	-0.243058	1.998641	0.630161	0.039327	0.093398	0.994852	0.125461	0.987281	-0.097647	-0.991319	0.128656	0.027109
25079	10.288846	-0.840707	-2.021610	-0.124976	1.852993	0.621172	0.058442	0.097170	0.993550	0.126354	0.986527	-0.103916	-0.990262	0.131613	0.045377
25080	9.594933	-0.765928	-2.063756	0.057276	1.710908	0.625274	0.076158	0.101173	0.991950	0.125250	0.985988	-0.110181	-0.989198	0.132633	0.062419
25081	9.032344	-1.006372	-2.538171	0.257423	1.535804	0.646305	0.092116	0.105568	0.990136	0.122118	0.985660	-0.116452	-0.988232	0.131641	0.077903
25082	8.900563	-1.672729	-2.370228	0.404695	1.317627	0.653169	0.105905	0.110387	0.988230	0.117356	0.985486	-0.122657	-0.987427	0.128965	0.091413
25083	9.602422	-3.321199	-2.271869	0.558203	1.112617	0.701343	0.117662	0.115940	0.986262	0.111018	0.985400	-0.129083	-0.986829	0.124681	0.103073
25084	10.256612	-4.183521	-2.416501	0.867604	1.024848	0.816497	0.128625	0.122855	0.984054	0.101323	0.985476	-0.136276	-0.986504	0.117236	0.114309
25085	10.515956	-4.707500	-2.834607	1.262166	0.973655	0.915096	0.139066	0.130840	0.981602	0.087602	0.985722	-0.143800	-0.986401	0.105988	0.125619
25086	10.447654	-4.534645	-2.786033	1.653520	0.985081	0.984011	0.149530	0.139698	0.978839	0.069721	0.986015	-0.151373	-0.986296	0.090880	0.137699
25087	10.033036	-4.217445	-2.541810	2.082295	0.996712	1.004945	0.159919	0.148849	0.975843	0.047584	0.986254	-0.158235	-0.985983	0.071739	0.150638
25088	9.923110	-3.426080	-2.234786	2.536817	1.016001	0.969050	0.170226	0.157941	0.972665	0.020808	0.986275	-0.163793	-0.985185	0.048121	0.164604
25089	10.085285	-2.318280	-2.012588	2.935834	1.074620	0.896889	0.180822	0.166465	0.969326	-0.009715	0.985827	-0.167486	-0.983468	0.020869	0.179877
25090	9.812355	-1.492306	-1.567820	3.236218	1.145686	0.842445	0.191801	0.174848	0.965733	-0.043244	0.984552	-0.169666	-0.980481	-0.009220	0.196399
25091	9.273235	-0.783354	-1.129334	3.413003	1.180069	0.808016	0.202820	0.183137	0.961938	-0.078280	0.982244	-0.170498	-0.976082	-0.040720	0.213555
25092	8.497508	-0.261839	-0.724403	3.459180	1.160201	0.758858	0.213325	0.191380	0.958053	-0.113698	0.978826	-0.170213	-0.970343	-0.072618	0.230568
25093	7.900664	0.472406	-0.371641	3.399897	1.098560	0.699796	0.222994	0.199230	0.954244	-0.148152	0.974448	-0.168827	-0.963496	-0.103726	0.246812
25094	7.770358	0.950096	-0.114501	3.160605	1.013653	0.612680	0.231654	0.206514	0.950625	-0.180035	0.969428	-0.166726	-0.955994	-0.132523	0.261752
25095	7.863098	1.592251	0.092020	2.849543	0.994632	0.523397	0.240066	0.213063	0.947086	-0.208450	0.964173	-0.164069	-0.948112	-0.158033	0.275878
25096	7.246576	1.830356	0.382528	2.468377	0.992102	0.464011	0.248345	0.219312	0.943519	-0.233020	0.958957	-0.161567	-0.940227	-0.179735	0.289256
25097	7.049071	1.998185	0.648880	2.134707	0.871742	0.400246	0.255491	0.224829	0.940306	-0.254072	0.954014	-0.159073	-0.932830	-0.198264	0.300865
25098	7.130433	2.079437	1.062772	1.797183	0.758842	0.337011	0.261596	0.229689	0.937449	-0.271752	0.949506	-0.156811	-0.926131	-0.213733	0.310805
25099	7.269401	2.063171	1.405597	1.441603	0.647018	0.252885	0.266820	0.233548	0.935020	-0.285780	0.945730	-0.154672	-0.920400	-0.225941	0.319083
25100	7.535833	1.914499	1.598689	1.114879	0.529108	0.188018	0.271071	0.236610	0.933025	-0.296601	0.942684	-0.152889	-0.915723	-0.235292	0.325713
25101	7.625774	1.681206	1.761278	0.857528	0.429665	0.125050	0.274576	0.238853	0.931428	-0.304829	0.940317	-0.151272	-0.911969	-0.242390	0.330998
25102	7.712172	1.414378	1.856106	0.631598	0.307591	0.074368	0.277094	0.240352	0.930296	-0.310842	0.938566	-0.149903	-0.909173	-0.247638	0.334782
25103	7.933608	0.947163	1.867399	0.449062	0.197456	0.045004	0.278700	0.241305	0.929569	-0.315096	0.937315	-0.148845	-0.907216	-0.251420	0.337264
25104	8.072346	0.383282	1.836349	0.340505	0.131334	0.031865	0.279739	0.241966	0.929085	-0.318311	0.936359	-0.148020	-0.905773	-0.254331	0.338957
25105	8.187865	-0.173162	1.978797	0.288494	0.103932	0.004242	0.280620	0.242309	0.928730	-0.320984	0.935589	-0.147112	-0.904556	-0.256825	0.340323
25106	8.192713	-0.717552	2.280803	0.300714	0.106466	-0.018195	0.281592	0.242434	0.928403	-0.323680	0.934844	-0.145941	-0.903292	-0.259409	0.341716
25107	8.115472	-0.982518	2.834686	0.348182	0.115274	-0.044622	0.282732	0.242356	0.928077	-0.326747	0.934021	-0.144367	-0.901831	-0.262429	0.343266
25108	8.118010	-1.129079	3.298240	0.350227	0.088787	-0.062493	0.283688	0.242023	0.927872	-0.329750	0.933236	-0.142604	-0.900436	-0.265511	0.344555
25109	8.313712	-1.351209	4.019617	0.288803	0.043790	-0.077265	0.284292	0.241457	0.927834	-0.332180	0.932629	-0.140923	-0.899352	-0.268145	0.345346
25110	8.808911	-1.799682	4.931649	0.176882	0.071063	-0.084598	0.285164	0.240877	0.927718	-0.333555	0.932345	-0.139549	-0.898567	-0.269651	0.346217
25111	9.314289	-2.120484	6.227734	0.070148	0.163288	-0.044191	0.286731	0.240943	0.927217	-0.334109	0.932239	-0.138928	-0.897862	-0.269957	0.347804
25112	9.684311	-2.214040	7.216964	0.003918	0.263073	0.011590	0.289006	0.241786	0.926291	-0.334214	0.932184	-0.139048	-0.897094	-0.269394	0.350215
25113	9.739717	-1.915921	7.690955	-0.041628	0.310196	0.105111	0.291390	0.243637	0.925059	-0.334196	0.932018	-0.140199	-0.896329	-0.268298	0.353003
25114	9.923716	-1.533469	7.731697	0.008010	0.299454	0.143571	0.293545	0.245814	0.923800	-0.334737	0.931622	-0.141530	-0.895423	-0.267685	0.355756
25115	10.044827	-1.195995	7.521823	0.118097	0.374050	0.170934	0.296272	0.248445	0.922225	-0.336349	0.930861	-0.142717	-0.893920	-0.267906	0.359352
25116	9.768074	-0.875000	7.250803	0.204859	0.485581	0.204298	0.299874	0.251691	0.920178	-0.338845	0.929774	-0.143891	-0.891773	-0.268649	0.364099
25117	9.407937	-0.731859	6.787556	0.222236	0.585066	0.223850	0.304276	0.255382	0.917713	-0.341551	0.928585	-0.145163	-0.889247	-0.269276	0.369772
25118	8.925024	-0.890939	6.332108	0.325609	0.597740	0.221158	0.308782	0.259093	0.915164	-0.345182	0.927109	-0.146008	-0.886286	-0.270813	0.375709
25119	8.697694	-1.367495	5.551814	0.462844	0.590598	0.251438	0.313085	0.263066	0.912564	-0.350109	0.925169	-0.146583	-0.882837	-0.273604	0.381759
25120	8.233952	-1.505188	4.724569	0.658741	0.503665	0.268292	0.316534	0.266983	0.910234	-0.356823	0.922609	-0.146528	-0.878910	-0.278411	0.387303
25121	7.450166	-1.559634	4.495274	0.885777	0.421763	0.301208	0.319096	0.270983	0.908155	-0.365596	0.919277	-0.145842	-0.874367	-0.285480	0.392408
25122	6.402277	-0.964984	4.256073	0.918134	0.310444	0.398031	0.320290	0.275583	0.906349	-0.374948	0.915499	-0.145865	-0.869959	-0.293114	0.396555
25123	5.838876	-0.220046	3.073274	0.500720	0.004357	0.448524	0.318585	0.279732	0.905678	-0.380783	0.912748	-0.147970	-0.868048	-0.297726	0.397305
25124	5.371171	-0.008805	1.366006	0.055667	-0.269265	0.438707	0.314533	0.282980	0.906086	-0.382726	0.911313	-0.151755	-0.868671	-0.299050	0.394942
25125	4.650577	0.001749	-0.057833	-0.445823	-0.588645	0.401663	0.307829	0.284923	0.907778	-0.380145	0.911474	-0.157175	-0.872199	-0.296705	0.388891
25126	4.243121	-0.126720	-1.630362	-1.082395	-0.961616	0.341273	0.298087	0.285260	0.910917	-0.371762	0.913644	-0.164459	-0.879168	-0.289622	0.378395
25127	4.380550	-0.874165	-2.564493	-1.466122	-1.304074	0.244675	0.285620	0.283822	0.915350	-0.359569	0.917098	-0.172166	-0.888331	-0.279958	0.363995
25128	5.261943	-1.894753	-2.099003	-1.259963	-1.517616	0.051838	0.271850	0.280138	0.920663	-0.348515	0.920410	-0.177152	-0.897014	-0.272707	0.347846
25129	6.939560	-2.512818	-0.105971	-0.625402	-1.594649	-0.198917	0.258134	0.274003	0.926439	-0.342408	0.922638	-0.177473	-0.903396	-0.271408	0.331985
25130	9.397727	-3.179551	2.798570	0.061737	-1.587811	-0.389623	0.245051	0.266091	0.932280	-0.342032	0.923498	-0.173681	-0.907174	-0.276309	0.317315
25131	13.321525	-4.039236	5.531818	0.566668	-1.610840	-0.528462	0.232192	0.256720	0.938180	-0.345966	0.923263	-0.167014	-0.909062	-0.285799	0.303191
25132	20.859936	-3.652834	8.273112	1.104030	-1.576232	-0.597011	0.219911	0.246637	0.943827	-0.354705	0.921504	-0.158158	-0.908748	-0.300000	0.290132
25133	26.501138	-2.341905	11.040249	2.038811	-0.670574	-0.424220	0.215331	0.240694	0.946414	-0.372297	0.916189	-0.148301	-0.902789	-0.320413	0.286893
25134	23.056843	-0.351755	13.312083	2.946392	0.709340	-0.162769	0.222272	0.241611	0.944573	-0.398406	0.906740	-0.138183	-0.889869	-0.345610	0.297803
25135	13.253946	2.739273	11.826876	3.167616	1.247315	0.262968	0.232138	0.248483	0.940408	-0.426989	0.894716	-0.131008	-0.873952	-0.371132	0.313798
25136	5.723747	7.221741	5.920175	2.305485	0.616883	0.519742	0.235186	0.255487	0.937771	-0.448272	0.884602	-0.128578	-0.862404	-0.390136	0.322573
25137	3.995675	9.533205	0.278309	0.208930	-0.013624	0.272204	0.233794	0.257870	0.937466	-0.450757	0.883057	-0.130490	-0.861486	-0.392062	0.322690
25138	4.106218	8.215334	-4.749727	-2.292993	0.054819	0.085207	0.233879	0.258825	0.937182	-0.431095	0.891590	-0.138652	-0.871469	-0.371587	0.320102
25139	3.437435	4.202852	-3.233865	-2.970927	0.057132	0.015724	0.234264	0.259203	0.936981	-0.405103	0.902165	-0.148288	-0.883749	-0.344836	0.316349
25140	4.726440	-0.226497	0.732433	-2.812035	-0.387418	-0.114077	0.231264	0.256826	0.938380	-0.379771	0.911838	-0.155967	-0.895707	-0.320300	0.308410
25141	8.155036	-2.971617	-1.767339	-3.521360	-1.219786	-0.184615	0.220865	0.251438	0.942336	-0.347582	0.923049	-0.164825	-0.911266	-0.291135	0.291265
25142	12.531388	-4.662915	-5.945003	-3.751663	-1.672326	-0.184015	0.206095	0.245065	0.947348	-0.312647	0.933878	-0.173565	-0.927242	-0.260414	0.269086
25143	14.209370	-4.993419	-5.499693	-2.986761	-1.569947	-0.057984	0.191569	0.240661	0.951516	-0.284702	0.941414	-0.180786	-0.939280	-0.236265	0.248863
25144	12.860274	-5.029560	-5.091452	-2.235850	-1.280134	0.211872	0.178895	0.239702	0.954222	-0.263935	0.946010	-0.188157	-0.947805	-0.218193	0.232502
25145	10.207513	-5.287537	-4.118326	-1.414949	-1.077866	0.277817	0.167889	0.240079	0.956125	-0.251013	0.948334	-0.194047	-0.953313	-0.207422	0.219478
25146	9.608480	-4.793705	-2.627470	-0.798844	-1.034610	0.041220	0.157880	0.238310	0.958270	-0.243390	0.949892	-0.196127	-0.956993	-0.202269	0.207971
25147	9.874704	-3.964331	-1.948019	-0.429454	-0.925823	-0.228569	0.149515	0.234314	0.960595	-0.238969	0.951278	-0.194846	-0.959447	-0.200420	0.198224
25148	9.962321	-2.697562	-1.711014	-0.156979	-0.869812	-0.381757	0.142036	0.228903	0.963031	-0.236850	0.952493	-0.191465	-0.961108	-0.200899	0.189504
25149	10.003197	-1.693779	-0.979518	0.033359	-0.886032	-0.434704	0.134501	0.223010	0.965493	-0.236615	0.953389	-0.187252	-0.962249	-0.203264	0.180999
25150	10.301932	-1.187539	-0.298402	0.122943	-0.993828	-0.391429	0.125820	0.217207	0.967983	-0.237228	0.954016	-0.183238	-0.963272	-0.206578	0.171562
25151	10.499500	-1.273872	-0.236851	0.027434	-1.067562	-0.255561	0.116092	0.212589	0.970221	-0.237228	0.954489	-0.180757	-0.964492	-0.209179	0.161241
25152	10.165621	-1.681518	-0.359314	-0.080666	-1.115491	-0.135434	0.105603	0.208918	0.972215	-0.236229	0.954964	-0.179551	-0.965942	-0.210704	0.150200
25153	10.181930	-1.753284	-0.343177	-0.178030	-1.189662	-0.077012	0.094240	0.205711	0.974065	-0.234474	0.955481	-0.179101	-0.967544	-0.211515	0.138278
25154	9.819753	-1.580849	-0.110979	-0.353834	-1.165933	-0.037123	0.082989	0.202859	0.975685	-0.230940	0.956325	-0.179191	-0.969422	-0.210453	0.126213
25155	9.382467	-1.521726	0.221043	-0.555054	-1.179533	-0.008666	0.071518	0.200351	0.977110	-0.225588	0.957484	-0.179815	-0.971594	-0.207565	0.113674
25156	9.048928	-1.795607	0.625587	-0.700639	-1.160040	-0.047122	0.060291	0.197482	0.978451	-0.218662	0.959038	-0.180090	-0.973936	-0.203093	0.101003
25157	8.749809	-1.913214	0.989205	-0.733694	-1.113149	-0.143452	0.049703	0.193912	0.979759	-0.211471	0.960774	-0.179426	-0.976120	-0.198272	0.088760
25158	9.102382	-1.842152	1.408800	-0.942127	-1.129509	-0.174189	0.038976	0.190005	0.981009	-0.202108	0.962963	-0.178480	-0.978587	-0.191313	0.075934
25159	9.046792	-2.371112	1.380309	-1.136372	-1.041299	-0.242976	0.029208	0.185758	0.982161	-0.190930	0.965526	-0.176933	-0.981169	-0.182356	0.063668
25160	9.040154	-2.822110	1.085964	-1.190204	-1.004245	-0.279531	0.019812	0.181248	0.983238	-0.179095	0.968168	-0.174861	-0.983632	-0.172628	0.051642
25161	9.029432	-2.500398	0.889773	-1.269156	-0.962210	-0.332566	0.010869	0.176455	0.984249	-0.166584	0.970871	-0.172217	-0.985967	-0.162089	0.039947
25162	9.041906	-2.317008	0.835133	-1.306109	-0.922364	-0.403330	0.002362	0.171074	0.985255	-0.153600	0.973628	-0.168687	-0.988130	-0.150937	0.028577
25163	9.213333	-2.276165	0.703166	-1.301922	-0.891878	-0.447647	-0.005841	0.165456	0.986200	-0.140769	0.976260	-0.164622	-0.990025	-0.139788	0.017589
25164	9.114490	-2.325227	0.291018	-1.321833	-0.869093	-0.470356	-0.013870	0.159683	0.987071	-0.127658	0.978805	-0.160140	-0.991721	-0.128228	0.006809
25165	9.008340	-2.524812	-0.238928	-1.286593	-0.912601	-0.471307	-0.022394	0.153989	0.987819	-0.115013	0.981110	-0.155550	-0.993112	-0.117095	-0.004261
25166	9.258993	-2.495028	-0.661398	-1.179650	-0.953995	-0.475703	-0.031404	0.148245	0.988452	-0.103366	0.983155	-0.150735	-0.994148	-0.106906	-0.015552
25167	9.567633	-2.483879	-0.726028	-1.032039	-0.952255	-0.468325	-0.040452	0.142705	0.988938	-0.093308	0.984884	-0.145937	-0.994815	-0.098179	-0.026525
25168	9.555538	-2.391025	-0.563924	-0.874042	-0.915631	-0.468401	-0.049198	0.137226	0.989317	-0.084774	0.986369	-0.141033	-0.995185	-0.090807	-0.036894
25169	9.434132	-2.192081	-0.275069	-0.752351	-0.901019	-0.468153	-0.057822	0.131860	0.989580	-0.077573	0.987648	-0.136136	-0.995309	-0.084636	-0.046879
25170	9.288359	-2.195521	-0.098844	-0.673327	-0.902260	-0.469665	-0.066506	0.126490	0.989736	-0.071123	0.988808	-0.131150	-0.995248	-0.079115	-0.056766
25171	9.117244	-2.245042	0.061444	-0.593899	-0.909610	-0.465328	-0.075276	0.121233	0.989766	-0.065578	0.989831	-0.126229	-0.995004	-0.074409	-0.066561
25172	8.969990	-2.443028	0.317002	-0.526595	-0.942199	-0.462834	-0.084411	0.115983	0.989658	-0.060676	0.990761	-0.121288	-0.994582	-0.070287	-0.076594
25173	9.117724	-2.808652	0.605045	-0.476352	-0.985907	-0.474831	-0.093972	0.110647	0.989407	-0.056398	0.991617	-0.116251	-0.993976	-0.066725	-0.086944
25174	9.253941	-2.944339	0.820711	-0.409085	-1.015061	-0.450480	-0.103865	0.105539	0.988976	-0.052758	0.992370	-0.111442	-0.993191	-0.063751	-0.097504
25175	9.489533	-2.881886	1.039568	-0.420633	-1.036443	-0.416170	-0.113977	0.100809	0.988356	-0.049068	0.993053	-0.106947	-0.992271	-0.060687	-0.108239
25176	9.702923	-2.787469	1.187040	-0.432111	-0.993755	-0.385127	-0.123703	0.096428	0.987623	-0.045234	0.993685	-0.102685	-0.991288	-0.057377	-0.118560
25177	9.863615	-2.464579	1.383838	-0.445806	-0.927303	-0.353571	-0.132773	0.092444	0.986826	-0.041303	0.994260	-0.098697	-0.990285	-0.053863	-0.128193
25178	9.774528	-2.135759	1.706124	-0.489142	-0.840205	-0.323273	-0.141012	0.088831	0.986014	-0.036911	0.994802	-0.094902	-0.989320	-0.049777	-0.137000
25179	9.471015	-1.986871	1.939986	-0.617356	-0.764567	-0.309426	-0.148502	0.085439	0.985214	-0.031285	0.995356	-0.091034	-0.988417	-0.044341	-0.145139
25180	9.093269	-2.084251	1.633581	-0.803328	-0.716880	-0.342733	-0.155534	0.081778	0.984440	-0.023887	0.995965	-0.086509	-0.987542	-0.036970	-0.152953
25181	9.461504	-2.149753	1.162421	-0.976217	-0.694942	-0.407460	-0.162349	0.077541	0.983682	-0.014929	0.996600	-0.081023	-0.986621	-0.027839	-0.160639
25182	9.944711	-2.026800	0.842930	-1.085069	-0.581395	-0.475240	-0.168075	0.072719	0.983088	-0.005042	0.997199	-0.074625	-0.985761	-0.017499	-0.167237
25183	9.889932	-1.866063	0.801005	-1.160573	-0.422754	-0.507012	-0.172275	0.067660	0.982723	0.005502	0.997689	-0.067726	-0.985034	-0.006261	-0.172249
25184	9.743435	-1.832891	0.636963	-1.239474	-0.322296	-0.526272	-0.175542	0.062460	0.982488	0.016753	0.998030	-0.060455	-0.984329	0.005848	-0.176243
25185	10.117417	-1.966128	0.245519	-1.204976	-0.310033	-0.508998	-0.178738	0.057465	0.982217	0.027678	0.998192	-0.053363	-0.983507	0.017648	-0.180005
25186	10.372436	-2.068648	0.201948	-1.012083	-0.285482	-0.454734	-0.181722	0.053048	0.981918	0.036760	0.998212	-0.047125	-0.982663	0.027532	-0.183347
25187	10.078536	-2.193064	0.411986	-0.817850	-0.319973	-0.383327	-0.185050	0.049372	0.981488	0.044061	0.998150	-0.041903	-0.981741	0.035491	-0.186883
25188	9.997217	-2.884195	0.168547	-0.750600	-0.418940	-0.327498	-0.189343	0.046329	0.980817	0.050753	0.998013	-0.037343	-0.980598	0.042708	-0.191318
25189	10.861390	-3.700334	-0.761716	-0.714762	-0.466262	-0.322865	-0.194116	0.043372	0.980019	0.057109	0.997827	-0.032848	-0.979315	0.049592	-0.196172
25190	12.210303	-3.333379	-1.845650	-0.568856	-0.417855	-0.254908	-0.198382	0.041117	0.979262	0.062097	0.997640	-0.029309	-0.978156	0.054995	-0.200467
25191	13.186072	-2.091294	-2.222504	-0.272472	-0.203988	-0.222628	-0.200547	0.039061	0.978905	0.064289	0.997576	-0.026636	-0.977572	0.057591	-0.202572
25192	14.162295	-0.781844	-1.661397	0.043007	0.078823	-0.156278	-0.199899	0.037533	0.979097	0.063461	0.997664	-0.025288	-0.977759	0.057079	-0.201814
25193	13.992657	-0.223306	-0.370438	0.328123	0.408160	-0.062787	-0.195975	0.036731	0.979921	0.060098	0.997870	-0.025384	-0.978766	0.053917	-0.197765
25194	13.370691	-0.411935	0.744522	0.411710	0.608634	0.011506	-0.190027	0.036606	0.981096	0.055992	0.998082	-0.026394	-0.980181	0.049918	-0.191712
25195	12.837157	-1.112175	0.793044	0.389335	0.769775	0.084293	-0.182460	0.037127	0.982512	0.052301	0.998239	-0.028009	-0.981821	0.046275	-0.184080
25196	12.108050	-1.369097	1.214183	0.498719	0.984157	0.172579	-0.172717	0.038496	0.984219	0.047606	0.998394	-0.030696	-0.983820	0.041553	-0.174272
25197	11.129011	-1.265967	1.845500	0.570738	1.214304	0.248190	-0.160675	0.040551	0.986174	0.042368	0.998518	-0.034156	-0.986098	0.036294	-0.162155
25198	10.391948	-1.185969	2.116197	0.514972	1.432128	0.308526	-0.146423	0.043227	0.988277	0.037649	0.998564	-0.038099	-0.988505	0.031629	-0.147840
25199	9.954310	-0.973187	1.831152	0.380000	1.626543	0.374115	-0.130221	0.046523	0.990393	0.034374	0.998510	-0.042385	-0.990889	0.028524	-0.131626
25200	10.376082	-0.699743	1.438192	0.277797	1.796679	0.447073	-0.112255	0.050579	0.992391	0.032045	0.998369	-0.047259	-0.993163	0.026496	-0.113693
25201	11.294070	-0.296173	1.409285	0.224471	1.999866	0.538602	-0.092235	0.055487	0.994190	0.030330	0.998139	-0.052894	-0.995275	0.025275	-0.093747
25202	11.870561	-0.123680	1.164378	0.128808	2.195268	0.648118	-0.070175	0.061491	0.995638	0.029456	0.997791	-0.059548	-0.997100	0.025149	-0.071831
25203	11.938892	-0.139256	0.546294	0.087431	2.324023	0.743778	-0.046800	0.068369	0.996562	0.028982	0.997328	-0.067061	-0.998484	0.025744	-0.048656
25204	11.722662	-0.055239	-0.117398	0.055457	2.367626	0.827996	-0.022912	0.076093	0.996837	0.028601	0.996741	-0.075428	-0.999328	0.026782	-0.025013
25205	11.371016	0.148097	-0.875568	0.022710	2.346397	0.867897	0.000757	0.084143	0.996453	0.028431	0.996049	-0.084131	-0.999595	0.028394	-0.001639
25206	10.932714	0.058866	-1.500139	0.012601	2.240713	0.857094	0.023392	0.092111	0.995474	0.028090	0.995293	-0.092754	-0.999332	0.030132	0.020694
25207	10.629338	0.184972	-1.845585	0.063552	2.173565	0.811302	0.045298	0.099562	0.994000	0.027135	0.994531	-0.100852	-0.998605	0.031541	0.042349
25208	10.108374	0.146086	-1.795604	0.118175	2.103813	0.762554	0.066489	0.106557	0.992081	0.025425	0.993778	-0.108443	-0.997463	0.032434	0.063367
25209	9.861042	-0.153320	-1.747908	0.080784	1.942328	0.755079	0.086005	0.113465	0.989813	0.024001	0.992969	-0.115912	-0.996006	0.033725	0.082677
25210	10.155701	-1.494966	-2.173884	0.092607	1.714490	0.815392	0.103245	0.121054	0.987262	0.022209	0.992038	-0.123962	-0.994408	0.034725	0.099735
25211	10.790270	-2.687823	-2.642959	0.287154	1.516528	0.941211	0.118472	0.129917	0.984422	0.018268	0.990951	-0.132977	-0.992789	0.033737	0.115027
25212	10.982673	-3.269629	-2.931630	0.643792	1.456916	1.027393	0.133054	0.139721	0.981211	0.010487	0.989759	-0.142360	-0.991053	0.029231	0.130226
25213	10.479222	-3.587425	-2.721979	1.061649	1.414136	1.076281	0.147070	0.150063	0.977677	-0.001578	0.988459	-0.151480	-0.989125	0.020735	0.145610
25214	10.269693	-3.738151	-2.637011	1.482312	1.327752	1.073135	0.160056	0.160569	0.973961	-0.017986	0.986992	-0.159761	-0.986944	0.008053	0.160862
25215	10.023667	-3.356733	-2.471224	1.838024	1.221498	1.061931	0.171765	0.171090	0.970167	-0.037913	0.985222	-0.167032	-0.984408	-0.008092	0.175714
25216	10.404907	-2.637758	-2.887861	2.193102	1.134282	1.068381	0.182343	0.181913	0.966260	-0.061485	0.982922	-0.173447	-0.981311	-0.027783	0.190414
25217	10.403765	-2.183118	-2.916265	2.591389	1.132874	1.070862	0.192596	0.192918	0.962128	-0.088919	0.979881	-0.178678	-0.977241	-0.051139	0.205875
25218	10.002936	-1.707543	-2.702816	2.953189	1.175294	1.011814	0.202942	0.203676	0.957774	-0.119824	0.975942	-0.182151	-0.971832	-0.077799	0.222465
25219	9.169696	-1.097234	-2.128252	3.213883	1.220301	0.945598	0.213432	0.214052	0.953220	-0.152967	0.970990	-0.183792	-0.964908	-0.106584	0.239983
25220	8.679544	-0.740847	-1.679904	3.302695	1.178342	0.900397	0.223163	0.224297	0.948625	-0.186781	0.964974	-0.184223	-0.956719	-0.136074	0.257241
25221	8.483761	-1.013880	-1.338292	3.321663	1.123873	0.814424	0.232164	0.233866	0.944143	-0.220312	0.958082	-0.183144	-0.947398	-0.165487	0.273956
25222	8.562168	-0.976661	-0.947454	3.346904	1.082169	0.684041	0.240671	0.242433	0.939842	-0.253566	0.950382	-0.180219	-0.936900	-0.194938	0.290202
25223	8.313755	-0.533390	-0.426484	3.285933	1.085377	0.545745	0.249263	0.249908	0.935636	-0.285551	0.942144	-0.175572	-0.925380	-0.223408	0.306203
25224	7.952496	0.192622	0.364430	3.103640	1.030698	0.398433	0.257470	0.256162	0.931714	-0.315186	0.933748	-0.169623	-0.913437	-0.249990	0.321151
25225	7.877464	0.946142	1.174508	2.770972	0.906897	0.262744	0.264794	0.261016	0.928307	-0.341075	0.925793	-0.163020	-0.901971	-0.273456	0.334171
25226	7.989352	1.781497	1.726851	2.342484	0.781937	0.171090	0.271132	0.264870	0.925382	-0.362612	0.918671	-0.156706	-0.891628	-0.293067	0.345126
25227	8.081506	2.044346	2.159530	1.894795	0.688634	0.116969	0.276759	0.268048	0.922797	-0.379792	0.912633	-0.151191	-0.882702	-0.308628	0.354382
25228	7.873793	2.001635	2.684023	1.459693	0.599209	0.108831	0.281538	0.270964	0.920497	-0.392978	0.907721	-0.147009	-0.875388	-0.320346	0.362041
25229	7.704074	1.845618	2.914889	1.112208	0.481551	0.119177	0.285217	0.273641	0.918571	-0.403068	0.903758	-0.144075	-0.869590	-0.329154	0.368063
25230	7.588129	1.707379	2.990055	0.808030	0.373843	0.130979	0.287865	0.276088	0.917011	-0.410485	0.900693	-0.142317	-0.865237	-0.335451	0.372608
25231	7.440053	1.408364	3.112103	0.548371	0.294243	0.140355	0.289777	0.278377	0.915716	-0.415675	0.898426	-0.141581	-0.862116	-0.339614	0.376058
25232	7.242567	1.035915	3.169424	0.378809	0.227235	0.152599	0.291040	0.280530	0.914658	-0.419399	0.896695	-0.141570	-0.859884	-0.342404	0.378629
25233	7.206977	0.732593	3.126418	0.321141	0.178366	0.150138	0.291891	0.282521	0.913773	-0.422644	0.895142	-0.141753	-0.858005	-0.344824	0.380689
25234	7.206916	0.478104	3.151236	0.321183	0.149662	0.131645	0.292564	0.284215	0.913033	-0.425791	0.893650	-0.141745	-0.856218	-0.347291	0.382466
