// General information: 
//  MT Manager version: 2022.2.0 
//  XDA version: 2022.2.0 build 7381 rev 124627 built on 2023-07-19
// Device information: 
//  DeviceId: 00B4CAF0
//  ProductCode: MTW2-3A7G6
//  Firmware Version: 4.6.0
//  Hardware Version: 2.0.0
// Device settings: 
//  Filter Profile: human(46.1)
//  Option Flags: Orientation Smoother Disabled, Position/Velocity Smoother Disabled, Continuous Zero Rotation Update Disabled, AHS Disabled, ICC Disabled
// Coordinate system: ENU
PacketCounter	Acc_X	Acc_Y	Acc_Z	Gyr_X	Gyr_Y	Gyr_Z	Mat[1][1]	Mat[2][1]	Mat[3][1]	Mat[1][2]	Mat[2][2]	Mat[3][2]	Mat[1][3]	Mat[2][3]	Mat[3][3]
51114	4.887528	-0.165231	9.047276	0.002495	-0.005898	0.004016	-0.042971	0.881343	0.470518	-0.999056	-0.040903	-0.014624	0.006357	-0.470703	0.882269
51115	4.906238	-0.146620	8.998965	0.002798	-0.005988	0.002523	-0.043090	0.881278	0.470630	-0.999051	-0.041001	-0.014695	0.006346	-0.470817	0.882208
51116	4.877246	-0.113815	9.062335	0.004218	-0.001264	0.002494	-0.043129	0.881266	0.470648	-0.999049	-0.041044	-0.014697	0.006366	-0.470835	0.882198
51117	4.897106	-0.143411	9.021086	0.002694	0.000222	0.002088	-0.043134	0.881272	0.470636	-0.999050	-0.041002	-0.014786	0.006266	-0.470827	0.882204
51118	4.887443	-0.140560	9.043489	0.000839	0.003351	0.003067	-0.043179	0.881282	0.470613	-0.999048	-0.041034	-0.014821	0.006250	-0.470805	0.882215
51119	4.865470	-0.166856	9.037753	0.002034	0.003508	0.004858	-0.043268	0.881290	0.470591	-0.999044	-0.041081	-0.014923	0.006181	-0.470787	0.882225
51120	4.865210	-0.166679	9.037896	0.006860	0.002064	0.004365	-0.043326	0.881293	0.470579	-0.999042	-0.041153	-0.014910	0.006225	-0.470774	0.882232
51121	4.885735	-0.115724	9.040578	0.007718	0.004898	-0.000332	-0.043357	0.881306	0.470553	-0.999040	-0.041170	-0.014944	0.006203	-0.470749	0.882245
51122	4.864507	-0.165616	9.038293	0.005335	0.003550	0.003959	-0.043411	0.881317	0.470528	-0.999038	-0.041231	-0.014943	0.006231	-0.470724	0.882259
51123	4.841849	-0.167460	9.029088	0.003888	0.000379	0.003879	-0.043504	0.881299	0.470553	-0.999034	-0.041299	-0.015013	0.006203	-0.470751	0.882244
51124	4.876304	-0.136056	9.066711	0.005639	0.003460	0.002466	-0.043543	0.881309	0.470529	-0.999032	-0.041349	-0.015003	0.006234	-0.470727	0.882257
51125	4.875980	-0.135544	9.066892	0.008636	0.003592	0.003061	-0.043377	0.881356	0.470458	-0.999038	-0.041273	-0.014792	0.006380	-0.470647	0.882299
51126	4.873078	-0.167045	9.016511	0.002668	0.001775	0.001979	-0.043410	0.881359	0.470449	-0.999037	-0.041303	-0.014805	0.006382	-0.470638	0.882303
51127	4.882137	-0.169835	8.994443	0.000761	0.008010	0.002739	-0.043382	0.881422	0.470332	-0.999039	-0.041212	-0.014914	0.006237	-0.470527	0.882363
51128	4.894510	-0.164542	9.026394	0.010412	0.005121	0.001756	-0.043413	0.881442	0.470294	-0.999037	-0.041277	-0.014859	0.006315	-0.470486	0.882385
51129	4.871514	-0.165826	9.017378	0.007693	0.006450	-0.000441	-0.043527	0.881415	0.470333	-0.999031	-0.041459	-0.014760	0.006490	-0.470520	0.882365
51130	4.872756	-0.109089	9.064808	0.008584	0.006698	0.002843	-0.043569	0.881441	0.470281	-0.999029	-0.041525	-0.014725	0.006549	-0.470466	0.882394
51131	4.883202	-0.159605	9.049713	0.008558	0.008251	0.002734	-0.043424	0.881529	0.470129	-0.999035	-0.041405	-0.014640	0.006560	-0.470312	0.882476
51132	4.881717	-0.134867	9.046668	0.007086	0.006632	0.002545	-0.043463	0.881554	0.470077	-0.999033	-0.041461	-0.014617	0.006604	-0.470258	0.882504
51133	4.849004	-0.133537	9.060055	0.006143	0.009489	-0.000958	-0.043422	0.881591	0.470013	-0.999035	-0.041446	-0.014555	0.006649	-0.470191	0.882540
51134	4.881266	-0.158072	9.050784	0.005056	0.002090	0.005562	-0.043491	0.881594	0.470000	-0.999032	-0.041520	-0.014564	0.006675	-0.470179	0.882546
51135	4.866907	-0.138543	9.016063	0.004315	0.011067	0.000128	-0.043373	0.881692	0.469827	-0.999038	-0.041354	-0.014622	0.006537	-0.470009	0.882637
51136	4.857611	-0.159362	9.042114	0.007467	0.001884	0.001381	-0.043400	0.881696	0.469817	-0.999036	-0.041401	-0.014590	0.006587	-0.469997	0.882643
51137	4.847576	-0.156020	9.064702	0.004341	0.009514	0.000237	-0.043613	0.881662	0.469862	-0.999026	-0.041621	-0.014631	0.006657	-0.470042	0.882619
51138	4.856505	-0.158482	9.042723	0.005638	0.003461	0.002466	-0.043651	0.881673	0.469838	-0.999024	-0.041670	-0.014620	0.006688	-0.470018	0.882632
51139	4.854440	-0.109601	9.036118	0.008888	0.006608	0.001350	-0.043522	0.881739	0.469726	-0.999030	-0.041560	-0.014551	0.006692	-0.469903	0.882692
51140	4.878723	-0.179386	9.056070	0.005891	0.006475	0.000754	-0.043543	0.881765	0.469675	-0.999029	-0.041594	-0.014530	0.006724	-0.469852	0.882720
51141	4.853851	-0.132581	9.040314	0.007313	0.011200	0.000723	-0.043591	0.881786	0.469632	-0.999026	-0.041683	-0.014464	0.006821	-0.469805	0.882744
51142	4.899649	-0.176241	9.066252	0.005613	0.005014	0.002357	-0.043628	0.881804	0.469594	-0.999024	-0.041730	-0.014453	0.006852	-0.469766	0.882764
51143	4.834206	-0.150019	9.089105	0.006145	0.009490	-0.000959	-0.043561	0.881852	0.469511	-0.999027	-0.041686	-0.014393	0.006879	-0.469681	0.882809
51144	4.874784	-0.153264	9.054360	0.003707	0.011250	0.003112	-0.043606	0.881899	0.469418	-0.999025	-0.041731	-0.014403	0.006888	-0.469588	0.882859
51145	4.841915	-0.152137	9.067793	0.005866	0.008028	0.000644	-0.043591	0.881917	0.469384	-0.999025	-0.041754	-0.014328	0.006962	-0.469551	0.882878
51146	4.850784	-0.154548	9.045862	0.005587	0.006567	0.002247	-0.043627	0.881943	0.469333	-0.999023	-0.041800	-0.014317	0.006992	-0.469499	0.882905
51147	4.840727	-0.151242	9.068442	0.005917	0.004923	0.000864	-0.043700	0.881952	0.469310	-0.999020	-0.041847	-0.014385	0.006952	-0.469479	0.882916
51148	4.872135	-0.151533	9.055815	0.005866	0.008029	0.000644	-0.043720	0.881985	0.469246	-0.999019	-0.041880	-0.014363	0.006984	-0.469413	0.882951
51149	4.871478	-0.151034	9.056177	0.005892	0.006476	0.000754	-0.043688	0.882018	0.469187	-0.999021	-0.041860	-0.014331	0.006999	-0.469353	0.882983
51150	4.861207	-0.147608	9.078869	0.007339	0.009648	0.000832	-0.043710	0.882058	0.469108	-0.999019	-0.041902	-0.014298	0.007045	-0.469273	0.883025
51151	4.846686	-0.127771	9.044226	0.007365	0.008095	0.000943	-0.043641	0.882114	0.469010	-0.999022	-0.041847	-0.014252	0.007055	-0.469174	0.883078
51152	4.878750	-0.152099	9.035140	0.007365	0.008095	0.000943	-0.043664	0.882147	0.468945	-0.999021	-0.041890	-0.014218	0.007102	-0.469107	0.883113
51153	4.877675	-0.151483	9.035731	0.006044	0.015701	-0.001401	-0.043546	0.882268	0.468728	-0.999027	-0.041730	-0.014265	0.006975	-0.468893	0.883227
51154	4.857157	-0.145063	9.081078	0.007543	0.015768	-0.001102	-0.043549	0.882339	0.468596	-0.999027	-0.041756	-0.014221	0.007019	-0.468759	0.883298
51155	4.855724	-0.144435	9.081854	0.005739	0.015794	0.000092	-0.043498	0.882418	0.468451	-0.999029	-0.041713	-0.014191	0.007018	-0.468613	0.883376
51156	4.886238	-0.144612	9.069743	0.006325	0.017163	-0.003005	-0.043482	0.882496	0.468306	-0.999029	-0.041716	-0.014149	0.007049	-0.468467	0.883453
51157	4.831010	-0.169432	9.077603	0.005714	0.017347	-0.000019	-0.043476	0.882576	0.468155	-0.999030	-0.041696	-0.014169	0.007015	-0.468317	0.883533
51158	4.850371	-0.118363	9.080858	0.007849	0.015677	-0.002595	-0.043464	0.882647	0.468023	-0.999030	-0.041710	-0.014116	0.007062	-0.468183	0.883603
51159	4.836739	-0.146427	9.053514	0.010214	0.018574	-0.006995	-0.043563	0.882686	0.467941	-0.999025	-0.041822	-0.014115	0.007111	-0.468099	0.883647
51160	4.837839	-0.113491	9.104738	0.006095	0.012598	-0.001180	-0.043565	0.882741	0.467836	-0.999025	-0.041840	-0.014083	0.007142	-0.467993	0.883703
51161	4.841449	-0.075244	9.022188	0.007619	0.011112	-0.000770	-0.043567	0.882775	0.467772	-0.999025	-0.041868	-0.014034	0.007196	-0.467927	0.883738
51162	4.810154	-0.122253	9.042486	0.004061	0.008057	0.001838	-0.043599	0.882808	0.467707	-0.999023	-0.041903	-0.014034	0.007209	-0.467862	0.883772
51163	4.842301	-0.146916	9.033427	0.005279	0.006663	0.003742	-0.043719	0.882808	0.467696	-0.999018	-0.042010	-0.014087	0.007212	-0.467852	0.883777
51164	4.813094	-0.138076	9.100491	0.003525	0.003583	0.005156	-0.043783	0.882818	0.467670	-0.999015	-0.042072	-0.014108	0.007221	-0.467827	0.883790
51165	4.832786	-0.167540	9.059570	0.010462	0.002020	0.001989	-0.043876	0.882800	0.467695	-0.999011	-0.042175	-0.014114	0.007265	-0.467851	0.883777
51166	4.864749	-0.167707	9.046727	0.008096	-0.000876	0.006389	-0.043953	0.882789	0.467708	-0.999007	-0.042269	-0.014100	0.007322	-0.467864	0.883770
51167	4.833404	-0.190546	9.063160	0.006249	0.003280	-0.000515	-0.043975	0.882784	0.467716	-0.999006	-0.042299	-0.014090	0.007345	-0.467871	0.883766
51168	4.863398	-0.142556	9.043569	0.005585	0.006571	0.002248	-0.044011	0.882809	0.467665	-0.999004	-0.042345	-0.014080	0.007373	-0.467819	0.883794
51169	4.851573	-0.090738	9.059242	0.009169	0.008072	-0.000248	-0.044029	0.882842	0.467601	-0.999003	-0.042360	-0.014088	0.007370	-0.467756	0.883827
51170	4.851557	-0.114267	9.063161	0.005535	0.009677	0.002025	-0.044063	0.882882	0.467522	-0.999001	-0.042404	-0.014077	0.007396	-0.467676	0.883869
51171	4.850741	-0.113744	9.063604	0.008557	0.008258	0.002737	-0.044021	0.882929	0.467439	-0.999003	-0.042380	-0.014030	0.007422	-0.467591	0.883914
51172	4.796099	-0.138631	9.071093	0.006676	0.012943	0.003595	-0.044071	0.882983	0.467331	-0.999001	-0.042443	-0.014017	0.007458	-0.467482	0.883971
51173	4.826452	-0.114880	9.055213	0.005585	0.006572	0.002248	-0.044224	0.882945	0.467389	-0.998993	-0.042654	-0.013947	0.007621	-0.467535	0.883942
51174	4.826563	-0.138510	9.059068	0.008557	0.008258	0.002737	-0.044266	0.882978	0.467322	-0.998990	-0.042718	-0.013913	0.007678	-0.467466	0.883978
51175	4.826007	-0.138193	9.059369	0.004409	0.003838	0.008442	-0.044148	0.883032	0.467232	-0.998995	-0.042616	-0.013853	0.007679	-0.467374	0.884026
51176	4.834608	-0.116520	9.033734	0.011679	0.000627	0.003897	-0.044200	0.883029	0.467233	-0.998992	-0.042705	-0.013796	0.007771	-0.467372	0.884027
51177	4.876947	-0.143591	9.002152	0.011372	0.000720	0.005389	-0.044279	0.883011	0.467259	-0.998988	-0.042812	-0.013761	0.007853	-0.467396	0.884013
51178	4.825440	-0.136217	9.059701	0.010990	0.005472	0.006546	-0.044357	0.883029	0.467217	-0.998984	-0.042921	-0.013723	0.007936	-0.467351	0.884036
51179	4.824807	-0.135605	9.060047	0.008251	0.008352	0.004229	-0.044363	0.883073	0.467134	-0.998984	-0.042925	-0.013726	0.007931	-0.467268	0.884080
51180	4.857496	-0.184312	9.054679	0.005205	0.011324	0.003404	-0.044411	0.883120	0.467040	-0.998982	-0.042979	-0.013724	0.007953	-0.467174	0.884130
51181	4.776528	-0.090965	9.035233	0.001620	0.009825	0.005899	-0.044419	0.883150	0.466984	-0.998981	-0.043009	-0.013683	0.008001	-0.467115	0.884160
51182	4.834945	-0.129714	9.093155	0.011554	0.008392	0.003338	-0.044465	0.883183	0.466916	-0.998978	-0.043092	-0.013624	0.008088	-0.467045	0.884197
51183	4.833328	-0.105118	9.090104	0.004309	0.010052	0.007993	-0.044508	0.883209	0.466863	-0.998976	-0.043168	-0.013573	0.008166	-0.466988	0.884226
51184	4.801289	-0.128320	9.106868	0.004972	0.006759	0.005232	-0.044574	0.883234	0.466809	-0.998973	-0.043237	-0.013581	0.008188	-0.466935	0.884254
51185	4.790708	-0.101323	9.125720	0.001202	-0.002411	0.009781	-0.044672	0.883174	0.466913	-0.998967	-0.043401	-0.013483	0.008357	-0.467032	0.884201
51186	4.776322	-0.162630	9.047093	0.007478	-0.000686	0.009380	-0.044778	0.883163	0.466925	-0.998962	-0.043519	-0.013488	0.008408	-0.467044	0.884194
51187	4.778731	-0.211047	9.053647	0.002355	-0.019240	0.014302	-0.044908	0.883077	0.467074	-0.998957	-0.043582	-0.013648	0.008304	-0.467200	0.884113
51188	4.901670	-0.203574	9.077794	0.009688	-0.007019	0.007144	-0.044991	0.883037	0.467143	-0.998952	-0.043690	-0.013623	0.008380	-0.467266	0.884077
51189	4.782374	-0.154288	9.099528	0.009430	-0.010031	0.008861	-0.044992	0.883000	0.467211	-0.998952	-0.043702	-0.013604	0.008406	-0.467333	0.884041
51190	4.825044	-0.157896	9.063868	0.004677	-0.013241	0.009677	-0.045099	0.882930	0.467334	-0.998947	-0.043808	-0.013635	0.008434	-0.467456	0.883976
51191	4.806289	-0.128019	9.104234	0.002872	-0.013213	0.010868	-0.045189	0.882833	0.467509	-0.998942	-0.043945	-0.013572	0.008562	-0.467627	0.883884
51192	4.817433	-0.131364	9.081147	-0.001195	-0.021270	0.009037	-0.045289	0.882725	0.467703	-0.998937	-0.044018	-0.013652	0.008536	-0.467824	0.883780
51193	4.776043	-0.184337	9.068343	-0.001171	-0.022822	0.009149	-0.045195	0.882666	0.467822	-0.998943	-0.043885	-0.013706	0.008432	-0.467947	0.883716
51194	4.768730	-0.181317	9.089416	0.010615	-0.027394	0.005617	-0.045261	0.882531	0.468070	-0.998939	-0.043983	-0.013666	0.008526	-0.468192	0.883585
51195	4.868771	-0.230718	9.056513	0.025938	-0.027364	-0.000640	-0.045211	0.882410	0.468303	-0.998939	-0.044036	-0.013464	0.008741	-0.468415	0.883465
51196	4.808775	-0.170199	9.128027	0.025261	-0.021501	-0.005869	-0.045162	0.882308	0.468501	-0.998939	-0.044101	-0.013241	0.008979	-0.468602	0.883364
51197	4.821434	-0.194575	9.108108	0.026300	-0.029547	-0.009782	-0.045133	0.882135	0.468829	-0.998938	-0.044203	-0.012994	0.009261	-0.468917	0.883194
51198	4.879791	-0.238645	9.110435	0.027096	-0.022066	-0.014826	-0.044995	0.882034	0.469032	-0.998942	-0.044199	-0.012712	0.009518	-0.469108	0.883090
51199	4.920888	-0.166306	9.063713	0.037236	-0.017387	-0.019343	-0.044880	0.881923	0.469251	-0.998943	-0.044272	-0.012335	0.009897	-0.469309	0.882979
51200	4.910986	-0.110710	9.078307	0.037090	-0.008070	-0.020025	-0.044691	0.881890	0.469332	-0.998948	-0.044269	-0.011940	0.010247	-0.469372	0.882941
51201	4.859305	-0.075705	9.132152	0.030287	0.004274	-0.019145	-0.044361	0.881945	0.469259	-0.998960	-0.044105	-0.011544	0.010515	-0.469283	0.882985
51202	4.566920	-0.182006	9.287989	0.032050	-0.032277	-0.006853	-0.044301	0.881793	0.469552	-0.998960	-0.044194	-0.011256	0.010825	-0.469562	0.882833
51203	5.144763	-0.170005	9.050297	0.024184	-0.023831	-0.038704	-0.043808	0.881726	0.469724	-0.998979	-0.043842	-0.010872	0.011007	-0.469721	0.882746
51204	4.538963	-0.198621	9.303042	-0.007284	0.012820	-0.058581	-0.043236	0.881807	0.469624	-0.999005	-0.043290	-0.010688	0.010905	-0.469619	0.882802
51205	5.105216	-0.188494	8.900208	-0.017557	-0.055671	-0.051157	-0.042693	0.881581	0.470099	-0.999031	-0.042689	-0.010676	0.010656	-0.470099	0.882549
51206	4.663945	0.540804	9.415124	-0.006541	0.018833	-0.040113	-0.042306	0.881682	0.469943	-0.999049	-0.042303	-0.010572	0.010559	-0.469944	0.882633
51207	4.872673	-0.369958	9.061839	-0.057364	-0.064307	-0.022701	-0.042075	0.881401	0.470492	-0.999066	-0.041772	-0.011091	0.009878	-0.470519	0.882335
51208	4.943432	-0.027616	9.202948	-0.020263	-0.021849	-0.035348	-0.041732	0.881308	0.470695	-0.999082	-0.041364	-0.011131	0.009660	-0.470728	0.882226
51209	4.886493	-0.381133	9.169746	-0.042771	-0.021328	-0.039927	-0.041367	0.881220	0.470893	-0.999102	-0.040786	-0.011443	0.009122	-0.470944	0.882116
51210	4.906160	-0.235051	9.156506	-0.027351	-0.026460	-0.053632	-0.040840	0.881113	0.471139	-0.999127	-0.040183	-0.011460	0.008835	-0.471196	0.881984
51211	4.865320	-0.287356	9.143728	-0.031913	-0.021527	-0.070503	-0.040272	0.880992	0.471414	-0.999152	-0.039530	-0.011481	0.008520	-0.471477	0.881837
51212	4.888431	-0.235228	9.144723	-0.015884	-0.026827	-0.087201	-0.039410	0.880895	0.471667	-0.999188	-0.038685	-0.011238	0.008347	-0.471727	0.881705
51213	4.937397	-0.251441	9.165249	-0.012676	-0.036037	-0.109336	-0.038372	0.880756	0.472014	-0.999230	-0.037672	-0.010938	0.008149	-0.472070	0.881523
51214	4.959738	-0.464251	9.172579	0.033257	-0.049678	-0.149106	-0.036890	0.880572	0.472474	-0.999283	-0.036515	-0.009968	0.008474	-0.472503	0.881288
51215	4.940719	-0.540159	9.062886	0.092465	-0.094480	-0.218419	-0.034838	0.880166	0.473386	-0.999349	-0.035123	-0.008242	0.009372	-0.473365	0.880817
51216	4.905605	-0.341962	9.255848	0.126323	-0.130200	-0.302830	-0.031811	0.879648	0.474560	-0.999437	-0.033055	-0.005723	0.010653	-0.474475	0.880204
51217	4.814632	-0.365495	9.263692	0.115826	-0.180139	-0.412320	-0.027861	0.878891	0.476208	-0.999543	-0.030084	-0.002957	0.011727	-0.476072	0.879328
51218	4.871647	-0.491024	9.341801	0.090436	-0.256503	-0.535436	-0.022490	0.877813	0.478476	-0.999667	-0.025811	0.000365	0.012670	-0.478308	0.878101
51219	5.122013	-0.875316	9.234196	0.060428	-0.304300	-0.695785	-0.015793	0.876462	0.481212	-0.999788	-0.020214	0.004005	0.013237	-0.481047	0.876595
51220	5.414894	-0.889617	9.196662	0.046318	-0.390733	-0.887836	-0.006876	0.874717	0.484584	-0.999882	-0.012662	0.008668	0.013718	-0.484468	0.874702
51221	5.863381	-1.206920	8.958476	-0.034387	-0.443375	-1.114037	0.004050	0.872609	0.488402	-0.999904	-0.002921	0.013509	0.013214	-0.488410	0.872514
51222	5.985811	-1.351489	8.979177	-0.163046	-0.511189	-1.393842	0.018036	0.870048	0.492638	-0.999771	0.010026	0.018896	0.011501	-0.492866	0.870029
51223	6.255162	-1.807618	9.264637	-0.340193	-0.545676	-1.699315	0.034588	0.866993	0.497118	-0.999373	0.026241	0.023769	0.007563	-0.497629	0.867357
51224	6.029879	-2.188701	9.355357	-0.300678	-0.555168	-2.013942	0.054726	0.863494	0.501380	-0.998492	0.045172	0.031189	0.004283	-0.502331	0.864665
51225	6.473215	-5.289143	10.194581	-0.532586	-0.690644	-2.224810	0.076641	0.858729	0.506666	-0.997057	0.066899	0.037434	-0.001750	-0.508044	0.861329
51226	5.759843	-5.841767	9.831669	0.419997	-0.404252	-2.483410	0.101362	0.854765	0.509021	-0.994848	0.086037	0.053628	0.002044	-0.511834	0.859082
51227	4.329129	-4.608251	11.092768	0.676987	-0.360319	-2.393615	0.125152	0.850636	0.510642	-0.992103	0.102998	0.071576	0.008290	-0.515567	0.856809
51228	5.361826	-7.892175	10.197856	0.739672	-0.624046	-1.664528	0.141705	0.845597	0.514671	-0.989799	0.113282	0.086402	0.014758	-0.521664	0.853023
51229	4.747998	-8.828491	11.824933	1.219195	-0.763203	-0.689251	0.148651	0.840797	0.520541	-0.988557	0.112701	0.100263	0.025635	-0.529489	0.847930
51230	5.633971	-5.450948	14.061127	1.126730	-0.622578	0.267451	0.146184	0.837768	0.526094	-0.988608	0.104458	0.108361	0.035827	-0.535942	0.843495
51231	3.770457	-4.828871	12.858617	0.700030	-0.271473	1.263946	0.133727	0.837540	0.529758	-0.990115	0.090100	0.107488	0.042294	-0.538895	0.841310
51232	1.628801	-4.527075	11.995713	0.270825	-0.016495	2.098844	0.112912	0.839139	0.532068	-0.992589	0.071047	0.098591	0.044929	-0.539257	0.840942
51233	-0.023341	-4.523130	11.663487	0.048678	0.178823	2.774688	0.085153	0.841762	0.533091	-0.995327	0.047420	0.084111	0.045522	-0.537762	0.841867
51234	-1.194337	-2.481428	11.682042	0.127767	0.360023	3.315108	0.051936	0.844786	0.532578	-0.997543	0.018780	0.067490	0.047013	-0.534775	0.843686
51235	-2.606131	-0.694641	11.504791	-0.014114	0.429984	3.730628	0.014343	0.847220	0.531049	-0.998793	-0.012807	0.047409	0.046967	-0.531088	0.846014
51236	-2.651485	0.835953	11.572570	-0.106467	0.388547	3.964052	-0.025446	0.848109	0.529210	-0.998624	-0.045847	0.025457	0.045853	-0.527834	0.848109
51237	-1.633598	2.138509	12.120410	-0.166385	0.479505	4.012554	-0.065906	0.848160	0.525624	-0.996857	-0.079174	0.002765	0.043961	-0.523789	0.850713
51238	-0.772479	3.072178	12.649388	-0.182886	0.692254	3.897514	-0.105010	0.848049	0.519408	-0.993604	-0.111278	-0.019194	0.041521	-0.518102	0.854311
51239	0.105944	4.011748	12.911620	-0.153682	0.973825	3.635953	-0.141703	0.848491	0.509885	-0.989148	-0.141564	-0.039321	0.038818	-0.509923	0.859343
51240	0.638388	4.738057	12.883850	-0.143027	1.279074	3.263769	-0.174395	0.849878	0.497285	-0.984041	-0.168559	-0.057024	0.035358	-0.499294	0.865711
51241	1.043257	5.010084	12.521069	-0.164918	1.543104	2.778837	-0.202471	0.852497	0.481928	-0.978801	-0.191689	-0.072137	0.030884	-0.486318	0.873236
51242	1.435577	4.878209	12.266577	-0.164250	1.744599	2.189101	-0.224356	0.856455	0.464919	-0.974173	-0.209609	-0.083974	0.025531	-0.471752	0.881362
51243	2.195198	4.479729	12.065017	-0.149119	1.874671	1.534116	-0.240023	0.861837	0.446795	-0.970565	-0.222435	-0.092336	0.019805	-0.455807	0.889858
51244	3.144082	3.898411	11.981678	-0.097537	1.999169	0.843155	-0.248551	0.868867	0.428126	-0.968518	-0.229297	-0.096929	0.013950	-0.438740	0.898506
51245	3.931507	3.460341	11.694035	-0.043987	2.122571	0.160981	-0.250696	0.877600	0.408618	-0.968030	-0.230886	-0.098029	0.008314	-0.420130	0.907426
51246	4.309972	3.372782	11.133501	-0.027826	2.218716	-0.469472	-0.246285	0.887773	0.388848	-0.969194	-0.226631	-0.096442	0.002506	-0.400622	0.916240
51247	4.421598	3.418794	10.496060	-0.124106	2.243485	-1.014738	-0.236785	0.898774	0.368970	-0.971554	-0.217469	-0.093758	-0.004027	-0.380675	0.924700
51248	4.945543	3.376960	9.997240	-0.352801	2.208342	-1.462717	-0.222382	0.910037	0.349827	-0.974879	-0.202936	-0.091808	-0.012556	-0.361455	0.932305
51249	5.377966	3.292008	9.515748	-0.635072	2.166420	-1.819808	-0.204588	0.921175	0.331028	-0.978571	-0.184430	-0.091568	-0.023299	-0.342669	0.939167
51250	5.511393	2.861631	8.802375	-0.971954	2.083026	-2.068578	-0.183696	0.931708	0.313329	-0.982290	-0.162027	-0.094092	-0.036898	-0.325064	0.944972
51251	5.510879	1.770871	7.835934	-1.227579	1.940487	-2.261566	-0.160940	0.941237	0.296937	-0.985580	-0.137343	-0.098833	-0.052243	-0.308561	0.949769
51252	5.389904	0.528648	7.079098	-1.310478	1.740096	-2.417592	-0.136051	0.949470	0.282837	-0.988380	-0.110549	-0.104327	-0.067788	-0.293744	0.953477
51253	2.857244	-3.179490	5.353031	-1.242364	1.265084	-2.494229	-0.110772	0.955545	0.273246	-0.990492	-0.083576	-0.109270	-0.081576	-0.282752	0.955718
51254	9.086679	2.400997	6.340022	-0.142810	0.516875	-2.757120	-0.083018	0.958926	0.271235	-0.993042	-0.056793	-0.103160	-0.083519	-0.277912	0.956969
51255	7.164748	-2.742286	5.399413	-1.243563	0.825600	-2.503051	-0.057725	0.962294	0.265818	-0.993667	-0.029671	-0.108373	-0.096399	-0.270390	0.957912
51256	9.290739	0.261130	6.479328	-0.024783	0.527169	-2.543541	-0.031945	0.964146	0.263443	-0.994781	-0.005115	-0.101909	-0.096908	-0.265323	0.959277
51257	7.993511	-0.613662	5.776673	-0.562762	0.526502	-2.269836	-0.009106	0.965413	0.260565	-0.994683	0.017985	-0.101399	-0.102578	-0.260103	0.960117
51258	8.202746	-0.234594	5.269118	-0.271773	0.270399	-2.079632	0.011838	0.965522	0.260053	-0.994370	0.038755	-0.098625	-0.105303	-0.257421	0.960544
51259	7.890887	-0.926396	4.657152	-0.393032	0.017250	-1.816082	0.029693	0.964728	0.261567	-0.993578	0.057071	-0.097703	-0.109185	-0.256986	0.960227
51260	8.347841	-0.806689	4.421892	-0.309031	-0.217315	-1.528388	0.044611	0.963177	0.265142	-0.992666	0.072589	-0.096674	-0.112361	-0.258885	0.959351
51261	7.851110	-1.692870	4.283523	-0.204230	-0.418948	-1.225332	0.056132	0.961149	0.270263	-0.991826	0.084747	-0.095394	-0.114592	-0.262699	0.958049
51262	8.028235	-2.048886	3.802762	0.199464	-0.769414	-1.023582	0.065385	0.958184	0.278583	-0.991429	0.094026	-0.090706	-0.113107	-0.270265	0.956119
51263	8.007827	-2.933943	4.425116	0.285070	-0.884751	-0.746157	0.071679	0.955050	0.287648	-0.991243	0.100273	-0.085917	-0.110898	-0.278971	0.953875
51264	8.479330	-2.032231	5.220018	0.781262	-0.992066	-0.455493	0.075109	0.951770	0.297475	-0.991747	0.102384	-0.077171	-0.103906	-0.289224	0.951605
51265	7.394537	-1.487685	5.313235	1.017422	-1.010691	-0.091583	0.074951	0.948711	0.307133	-0.992690	0.100204	-0.067274	-0.094599	-0.299845	0.949286
51266	6.823305	-0.731747	5.208122	1.174697	-1.078817	0.270845	0.071277	0.945678	0.317196	-0.993935	0.094038	-0.057014	-0.083745	-0.311208	0.946645
51267	4.587317	0.578922	5.977959	1.290711	-1.035892	0.482475	0.065648	0.942830	0.326746	-0.995266	0.085385	-0.046416	-0.071662	-0.322152	0.943972
51268	4.110784	2.089854	9.901718	0.985904	-1.011355	0.790562	0.057076	0.940152	0.335942	-0.996412	0.074704	-0.039775	-0.062490	-0.332467	0.941042
51269	3.352492	-0.221544	8.522170	0.897575	-0.899723	1.017624	0.046395	0.937812	0.344031	-0.997460	0.062129	-0.034846	-0.054054	-0.341540	0.938312
51270	-1.091597	0.390516	8.542694	0.991402	-0.870060	0.983247	0.036133	0.935350	0.351874	-0.998354	0.049480	-0.029010	-0.044545	-0.350246	0.935598
51271	-2.999199	5.855468	10.643019	0.747825	-1.502615	0.836269	0.027138	0.930348	0.365673	-0.998925	0.038996	-0.025078	-0.037591	-0.364599	0.930405
51272	1.204937	-0.193471	8.385471	-0.244080	-2.729024	0.353331	0.022519	0.920186	0.390834	-0.998916	0.036638	-0.028705	-0.040733	-0.389764	0.920014
51273	18.203886	7.447018	19.702051	2.164377	-3.527137	-0.813536	0.029522	0.905569	0.423170	-0.999363	0.035228	-0.005668	-0.020040	-0.422733	0.906033
51274	44.036037	15.605128	31.306220	0.120543	-2.660656	0.743788	0.021540	0.894235	0.447079	-0.999577	0.028003	-0.007851	-0.019540	-0.446721	0.894460
51275	-6.984663	-7.744363	-9.720619	-1.273248	6.619796	0.488235	0.018420	0.921927	0.386925	-0.999350	0.028977	-0.021468	-0.031004	-0.386278	0.921861
51276	-15.490050	-9.990915	15.343334	-0.151763	-2.965188	-0.193328	0.019381	0.910010	0.414132	-0.999264	0.031347	-0.022115	-0.033107	-0.413399	0.909948
51277	20.130322	5.091590	10.546958	2.011912	-4.096778	-0.627324	0.024681	0.892109	0.451145	-0.999598	0.028312	-0.001299	-0.013932	-0.450931	0.892450
51278	7.802016	8.427174	8.033888	0.845390	2.749563	-0.275014	0.027667	0.904095	0.426436	-0.999606	0.027066	0.007472	-0.004787	-0.426475	0.904487
51279	-2.059013	-1.722257	11.394197	-2.101238	-0.144892	0.188532	0.025825	0.903510	0.427788	-0.999331	0.034411	-0.012349	-0.025879	-0.427183	0.903795
51280	5.889599	-3.049577	6.641175	0.685381	-1.423405	0.287962	0.022605	0.897426	0.440586	-0.999556	0.028839	-0.007458	-0.019399	-0.440222	0.897679
51281	7.161964	2.333933	10.522501	0.686746	0.009913	-0.122360	0.023874	0.897415	0.440540	-0.999636	0.026975	-0.000777	-0.012581	-0.440361	0.897733
51282	3.590507	0.669772	9.255625	-0.199933	-0.087660	0.071593	0.023127	0.897046	0.441331	-0.999626	0.027207	-0.002919	-0.014626	-0.441098	0.897340
51283	5.334509	-0.924593	9.663291	-0.111006	-0.490994	0.071542	0.022387	0.894869	0.445768	-0.999623	0.027125	-0.004251	-0.015895	-0.445505	0.895138
51284	4.964585	0.096496	9.030843	0.200598	-0.088671	0.004640	0.022307	0.894472	0.446567	-0.999654	0.026182	-0.002508	-0.013936	-0.446356	0.894747
51285	4.677101	0.000515	9.429787	-0.036741	-0.250087	0.027029	0.022054	0.893338	0.448843	-0.999653	0.026175	-0.002979	-0.014409	-0.448622	0.893606
51286	5.170282	0.118422	9.169553	0.109415	-0.196105	0.008951	0.021917	0.892457	0.450600	-0.999670	0.025597	-0.002074	-0.013385	-0.450406	0.892724
51287	5.348609	0.821821	9.636516	0.063265	-0.144892	0.026018	0.021692	0.891788	0.451933	-0.999682	0.025151	-0.001647	-0.012836	-0.451754	0.892050
51288	5.104694	0.489403	9.166018	-0.007697	-0.032538	0.045484	0.021213	0.891650	0.452228	-0.999691	0.024774	-0.001954	-0.012946	-0.452047	0.891900
51289	4.770407	-0.048241	9.323537	-0.037137	-0.019060	0.039996	0.020868	0.891551	0.452440	-0.999693	0.024661	-0.002485	-0.013373	-0.452249	0.891791
51290	4.858405	0.328650	9.115529	0.049944	-0.021875	0.029129	0.020554	0.891456	0.452640	-0.999705	0.024169	-0.002204	-0.012904	-0.452461	0.891691
51291	4.783980	0.106777	9.180264	-0.016436	0.018015	0.034656	0.020269	0.891523	0.452521	-0.999709	0.024010	-0.002526	-0.013117	-0.452338	0.891750
51292	4.821757	0.065718	9.228833	0.011294	0.006777	0.025558	0.019994	0.891558	0.452466	-0.999715	0.023726	-0.002573	-0.013029	-0.452286	0.891778
51293	4.778807	-0.122977	9.145910	-0.001539	0.036880	0.018063	0.019878	0.891705	0.452179	-0.999717	0.023648	-0.002688	-0.013090	-0.451998	0.891923
51294	4.701422	-0.250963	9.177740	0.001718	0.027424	0.013004	0.019732	0.891830	0.451940	-0.999720	0.023519	-0.002763	-0.013094	-0.451759	0.892044
51295	4.696046	-0.321766	9.210438	0.002447	0.025751	0.010118	0.019693	0.891926	0.451753	-0.999720	0.023495	-0.002807	-0.013117	-0.451571	0.892139
51296	4.576525	-0.266308	9.152924	0.018035	0.015571	0.006191	0.019614	0.891995	0.451620	-0.999724	0.023353	-0.002706	-0.012960	-0.451442	0.892206
51297	4.619305	-0.075360	9.049726	0.034524	-0.002101	0.007558	0.019596	0.891964	0.451681	-0.999728	0.023206	-0.002453	-0.012669	-0.451510	0.892176
51298	4.537476	0.028422	9.137729	0.015330	-0.012070	0.019614	0.019379	0.891912	0.451794	-0.999734	0.022956	-0.002437	-0.012545	-0.451626	0.892119
51299	4.515342	0.080075	9.174275	0.006625	-0.052481	0.035566	0.019075	0.891660	0.452304	-0.999739	0.022685	-0.002559	-0.012542	-0.452137	0.891860
51300	4.643782	-0.000693	9.045284	-0.018774	-0.081721	0.045760	0.018588	0.891298	0.453037	-0.999746	0.022357	-0.002965	-0.012772	-0.452866	0.891487
51301	4.663790	0.094967	9.038806	-0.022133	-0.083020	0.054500	0.018090	0.890911	0.453817	-0.999751	0.022047	-0.003430	-0.013061	-0.453642	0.891088
51302	4.602387	0.039353	9.087673	-0.052618	-0.100121	0.062966	0.017428	0.890468	0.454712	-0.999755	0.021720	-0.004217	-0.013632	-0.454527	0.890628
51303	4.677213	-0.091990	9.040935	-0.071949	-0.135445	0.068535	0.016781	0.889844	0.455957	-0.999755	0.021513	-0.005190	-0.014428	-0.455758	0.889987
51304	4.718788	-0.013880	9.120996	-0.073079	-0.138288	0.074696	0.015995	0.889226	0.457188	-0.999756	0.021177	-0.006214	-0.015207	-0.456978	0.889348
51305	4.722346	-0.085327	9.034217	-0.089845	-0.151707	0.076525	0.015263	0.888525	0.458573	-0.999753	0.020984	-0.007383	-0.016183	-0.458347	0.888626
51306	4.723851	-0.040591	9.097124	-0.099844	-0.156741	0.080918	0.014409	0.887820	0.459965	-0.999748	0.020719	-0.008674	-0.017231	-0.459724	0.887895
51307	4.830455	0.030378	9.096679	-0.097674	-0.170582	0.082078	0.013615	0.887029	0.461512	-0.999740	0.020516	-0.009940	-0.018285	-0.461257	0.887078
51308	4.842109	-0.054298	9.120024	-0.124089	-0.151728	0.083371	0.012734	0.886343	0.462855	-0.999727	0.020346	-0.011457	-0.019573	-0.462583	0.886360
51309	4.811222	-0.044260	9.144887	-0.105020	-0.141388	0.079006	0.011973	0.885681	0.464139	-0.999714	0.020209	-0.012775	-0.020694	-0.463854	0.885670
51310	4.819239	-0.041272	9.081014	-0.128111	-0.141235	0.077300	0.011151	0.885038	0.465385	-0.999695	0.020116	-0.014301	-0.022018	-0.465084	0.884993
51311	4.852905	0.034802	9.183307	-0.073491	-0.141099	0.077686	0.010400	0.884374	0.466663	-0.999685	0.019847	-0.015333	-0.022822	-0.466356	0.884303
51312	4.905345	-0.229068	9.105889	-0.118006	-0.150335	0.068919	0.009658	0.883683	0.467986	-0.999664	0.019785	-0.016731	-0.024044	-0.467667	0.883577
51313	4.946267	-0.160555	9.131525	-0.074948	-0.132636	0.059739	0.009085	0.883051	0.469188	-0.999650	0.019686	-0.017693	-0.024860	-0.468863	0.882921
51314	4.932301	-0.179821	9.061691	-0.075663	-0.115895	0.050967	0.008528	0.882515	0.470208	-0.999635	0.019587	-0.018633	-0.025654	-0.469877	0.882359
51315	4.900251	-0.219669	9.039794	-0.081962	-0.115034	0.043382	0.008122	0.881960	0.471255	-0.999615	0.019668	-0.019581	-0.026538	-0.470914	0.881780
51316	4.925185	-0.248865	9.068596	-0.090587	-0.109501	0.038228	0.007692	0.881448	0.472218	-0.999593	0.019754	-0.020592	-0.027479	-0.471868	0.881241
51317	4.901958	-0.290570	9.024690	-0.087451	-0.105040	0.029283	0.007427	0.880935	0.473178	-0.999569	0.019987	-0.021522	-0.028417	-0.472814	0.880704
51318	4.910124	-0.244769	9.068035	-0.077865	-0.104537	0.028080	0.007098	0.880443	0.474098	-0.999548	0.020105	-0.022372	-0.029229	-0.473725	0.880188
51319	4.956881	-0.336011	9.191039	-0.124820	-0.100086	0.012110	0.007005	0.879949	0.475017	-0.999509	0.020669	-0.023549	-0.030540	-0.474619	0.879662
51320	4.909841	-0.297493	9.238763	-0.120219	-0.081643	-0.000293	0.006964	0.879558	0.475741	-0.999471	0.021239	-0.024637	-0.031774	-0.475317	0.879240
51321	4.904163	-0.241057	9.436248	-0.184747	-0.086425	-0.027150	0.007264	0.879119	0.476547	-0.999406	0.022435	-0.026153	-0.033683	-0.476075	0.878760
51322	4.532564	-0.092367	9.712147	-0.269667	-0.057468	-0.078306	0.008008	0.878824	0.477079	-0.999305	0.024404	-0.028181	-0.036409	-0.476522	0.878408
51323	3.517504	1.138779	10.361929	-0.276425	-0.158836	-0.070698	0.008708	0.878026	0.478533	-0.999192	0.026418	-0.030292	-0.039239	-0.477882	0.877547
51324	4.287841	0.508578	10.114668	-0.386043	-0.507503	0.052599	0.007955	0.875601	0.482969	-0.999036	0.027808	-0.033959	-0.043165	-0.482233	0.874979
51325	5.439775	-0.440674	8.588311	-0.516866	-0.530248	0.043061	0.007324	0.873027	0.487617	-0.998800	0.029996	-0.038702	-0.048415	-0.486749	0.872199
51326	4.887618	0.199999	9.420749	-0.486750	-0.374133	0.036915	0.006747	0.871208	0.490867	-0.998554	0.032049	-0.043156	-0.053329	-0.489866	0.870165
51327	5.056674	-0.367349	8.709124	-0.625504	-0.546893	0.062490	0.005858	0.868519	0.495621	-0.998202	0.034646	-0.048915	-0.059655	-0.494443	0.867160
51328	5.276826	-0.587343	8.888597	-0.572044	-0.467200	0.062302	0.004926	0.866219	0.499640	-0.997846	0.036943	-0.054211	-0.065417	-0.498296	0.864535
51329	4.982254	-0.686049	8.993434	-0.552656	-0.461606	0.040774	0.004247	0.863907	0.503633	-0.997467	0.039418	-0.059204	-0.070999	-0.502106	0.861887
51330	5.087726	-0.699021	9.066766	-0.513122	-0.507441	0.033585	0.003521	0.861359	0.507984	-0.997089	0.041714	-0.063821	-0.076163	-0.506281	0.858999
51331	5.046244	-0.628904	9.027117	-0.422076	-0.524083	0.033452	0.002819	0.858691	0.512487	-0.996756	0.043634	-0.067629	-0.080435	-0.510634	0.856028
51332	4.810285	-0.475080	9.356081	-0.335981	-0.567284	0.042013	0.001916	0.855796	0.517310	-0.996479	0.044997	-0.070749	-0.083824	-0.515353	0.852869
51333	4.321388	-0.428161	9.876112	-0.236931	-0.710413	0.066769	0.000684	0.852127	0.523335	-0.996274	0.045712	-0.073130	-0.086239	-0.521335	0.848983
51334	4.051939	-0.296588	10.125418	-0.143155	-0.977735	0.085862	-0.001040	0.847025	0.531552	-0.996147	0.045735	-0.074827	-0.087690	-0.529582	0.843714
51335	3.721507	-0.277639	10.599962	-0.064832	-1.201962	0.100838	-0.003078	0.840631	0.541600	-0.996085	0.045273	-0.075930	-0.088349	-0.539713	0.837200
51336	3.495844	-0.155366	10.373566	-0.019380	-1.526258	0.109658	-0.005538	0.832342	0.554235	-0.996061	0.044462	-0.076724	-0.088503	-0.552476	0.828817
51337	2.935912	-0.041077	10.648209	-0.036859	-1.791519	0.066926	-0.007787	0.822333	0.568953	-0.996021	0.044133	-0.077420	-0.088774	-0.567293	0.818717
51338	1.449262	-0.088643	10.913111	-0.057458	-2.161857	-0.049085	-0.009240	0.809853	0.586561	-0.995972	0.044866	-0.077635	-0.089190	-0.584915	0.806176
51339	1.028810	-0.791174	11.103440	-0.129096	-2.942291	-0.150118	-0.010408	0.792229	0.610135	-0.995871	0.046819	-0.077781	-0.090186	-0.608425	0.788470
51340	2.141541	-1.918135	10.718570	-0.083526	-3.641365	-0.277472	-0.010956	0.769417	0.638653	-0.995822	0.049509	-0.076729	-0.090656	-0.636825	0.765660
51341	2.584612	-3.224922	9.825169	0.236538	-4.275083	-0.474136	-0.010108	0.741273	0.671127	-0.996085	0.051478	-0.071861	-0.087817	-0.669226	0.737851
51342	4.676134	-2.380978	10.311574	0.723449	-5.104876	-0.610311	-0.008332	0.705833	0.708329	-0.996747	0.050923	-0.062468	-0.080163	-0.706545	0.703113
51343	6.350918	-1.076628	10.989643	0.887933	-5.556295	-0.627079	-0.006355	0.665214	0.746625	-0.997468	0.048674	-0.051857	-0.070837	-0.745064	0.663220
51344	8.131591	0.557456	12.574284	0.664143	-6.024458	-0.546179	-0.004982	0.618873	0.785476	-0.997944	0.047112	-0.043449	-0.063894	-0.784077	0.617366
51345	14.080324	0.091249	15.846640	-0.289808	-6.500452	-0.373130	-0.005582	0.566504	0.824040	-0.997781	0.051518	-0.042176	-0.066346	-0.822447	0.564959
51346	18.757237	-3.775904	17.151744	-0.574015	-5.979101	-0.328966	-0.006447	0.516170	0.856462	-0.997402	0.058127	-0.042540	-0.071741	-0.854512	0.514454
51347	15.965682	-4.884639	15.455776	0.268849	-5.145738	-0.539896	-0.004769	0.471286	0.881967	-0.997631	0.058290	-0.036542	-0.068631	-0.880052	0.469892
51348	10.941395	-4.352764	13.534825	0.733713	-4.944897	-0.720963	-0.000802	0.426786	0.904352	-0.998125	0.055002	-0.026842	-0.061197	-0.902678	0.425942
51349	9.683254	-3.627957	13.852067	1.115390	-4.998526	-0.770241	0.004003	0.380841	0.924632	-0.998744	0.047702	-0.015323	-0.049942	-0.923409	0.380554
51350	7.247618	-2.975546	12.726051	1.449850	-4.578434	-0.733445	0.009351	0.337848	0.941154	-0.999316	0.036842	-0.003297	-0.035788	-0.940479	0.337962
51351	1.805574	-1.807339	11.572167	1.702385	-4.177317	-0.730778	0.015393	0.298192	0.954382	-0.999701	0.022735	0.009021	-0.019008	-0.954235	0.298453
51352	-5.647948	-2.753525	11.170956	1.139416	-3.800787	-0.552186	0.020376	0.261607	0.964959	-0.999758	0.013365	0.017488	-0.008322	-0.965082	0.261816
51353	1.047763	-3.846774	13.862596	0.512361	-5.376300	-0.601544	0.025938	0.209496	0.977465	-0.999655	0.009408	0.024511	-0.004061	-0.977764	0.209668
51354	32.392042	-8.210650	19.479270	-0.063247	-5.396085	0.089926	0.024746	0.156458	0.987374	-0.999675	0.009887	0.023488	-0.006087	-0.987635	0.156652
51355	26.810290	-9.184794	4.915601	3.316082	1.666762	-0.507529	0.029514	0.173188	0.984446	-0.999172	-0.022489	0.033912	0.028012	-0.984632	0.172381
51356	5.092403	-0.000972	10.793970	2.936384	4.554543	-1.072469	0.038225	0.218195	0.975156	-0.997535	-0.049142	0.050098	0.058852	-0.974667	0.215779
51357	-0.412578	1.560809	12.065208	1.046531	4.080243	-0.052671	0.035911	0.258066	0.965460	-0.996806	-0.059706	0.053037	0.071331	-0.964281	0.255098
51358	-3.102517	-5.179987	7.674131	-0.234750	3.641909	0.219152	0.031129	0.292872	0.955645	-0.997048	-0.058039	0.050265	0.070185	-0.954388	0.290201
51359	-3.360239	-2.154865	5.838707	0.799315	3.163120	0.061740	0.027888	0.323171	0.945930	-0.996430	-0.066444	0.052077	0.079681	-0.944005	0.320165
51360	-3.707929	-1.601542	4.546514	-0.642599	2.565312	0.218728	0.023717	0.347138	0.937514	-0.996983	-0.061121	0.047853	0.073913	-0.935820	0.344641
51361	-2.715485	-4.459160	3.769983	-0.939594	1.927440	0.272479	0.019344	0.365279	0.930697	-0.997660	-0.054009	0.041934	0.065584	-0.929330	0.363380
51362	0.573301	-3.458444	6.443332	-1.017691	1.627164	0.267332	0.015668	0.380218	0.924764	-0.998325	-0.045562	0.035647	0.055687	-0.923774	0.378867
51363	4.057222	-3.854679	8.211004	-1.309303	1.688779	0.414840	0.010330	0.395927	0.918224	-0.999001	-0.035843	0.026694	0.043480	-0.917582	0.395162
51364	5.758862	-4.865672	8.504042	-1.244354	2.234843	0.599541	0.003481	0.416145	0.909292	-0.999508	-0.026900	0.016138	0.031176	-0.908900	0.415847
51365	5.401812	-5.603673	7.830358	-0.982766	2.702166	0.781812	-0.005470	0.440692	0.897642	-0.999743	-0.022155	0.004785	0.021996	-0.897385	0.440700
51366	5.177179	-5.110109	7.125144	-0.743290	2.968957	0.995339	-0.015984	0.466926	0.884152	-0.999771	-0.020041	-0.007490	0.014222	-0.884070	0.467139
51367	5.092176	-4.229160	6.586228	-0.575379	3.101358	1.213727	-0.028953	0.494179	0.868878	-0.999545	-0.021656	-0.020990	0.008444	-0.869090	0.494581
51368	5.198429	-3.300971	6.715965	-0.457371	3.121309	1.379389	-0.042939	0.520740	0.852635	-0.999074	-0.024711	-0.035221	0.002728	-0.853358	0.521319
51369	5.845500	-2.168379	7.065755	-0.403815	3.132633	1.462790	-0.058102	0.547102	0.835047	-0.998308	-0.029972	-0.049825	-0.002231	-0.836529	0.547917
51370	6.330490	-1.205402	7.357759	-0.375455	3.235816	1.453066	-0.072462	0.573406	0.816060	-0.997338	-0.035003	-0.063964	-0.008113	-0.818523	0.574416
51371	6.650363	-0.274459	7.250064	-0.327143	3.373797	1.323042	-0.085891	0.600441	0.795043	-0.996214	-0.041018	-0.076646	-0.013410	-0.798616	0.601691
51372	6.787982	0.937618	7.100590	-0.318412	3.551939	1.089845	-0.096181	0.627953	0.772285	-0.995166	-0.045204	-0.087182	-0.019836	-0.776937	0.629265
51373	6.502500	1.893080	6.904866	-0.431091	3.718878	0.787768	-0.103796	0.656260	0.747362	-0.994225	-0.047881	-0.096037	-0.027241	-0.753014	0.657440
51374	6.216533	2.386879	6.527005	-0.585936	3.803824	0.448107	-0.107055	0.684213	0.721382	-0.993561	-0.046550	-0.103296	-0.037096	-0.727795	0.684790
51375	6.117324	2.175894	6.280798	-0.782298	3.780098	0.078734	-0.106922	0.711391	0.694615	-0.993091	-0.042437	-0.109404	-0.048351	-0.701514	0.711014
51376	6.123003	1.588518	6.435291	-0.923462	3.712177	-0.249057	-0.102440	0.737037	0.668044	-0.992841	-0.034284	-0.114420	-0.061429	-0.674983	0.735272
51377	6.733376	0.938416	6.838571	-0.994442	3.617525	-0.493223	-0.095823	0.761294	0.641287	-0.992616	-0.024944	-0.118708	-0.074375	-0.647927	0.758063
51378	7.482630	0.185115	7.411800	-1.031270	3.558047	-0.635949	-0.086654	0.783986	0.614701	-0.992355	-0.013499	-0.122675	-0.087878	-0.620632	0.779162
51379	8.522992	-0.408127	7.852984	-1.019063	3.577512	-0.698960	-0.077112	0.805908	0.586997	-0.991948	-0.002690	-0.126616	-0.100462	-0.592035	0.799626
51380	9.244339	-0.731682	8.311746	-0.964478	3.677452	-0.666454	-0.066614	0.827111	0.558077	-0.991395	0.008303	-0.130642	-0.112690	-0.561977	0.819440
51381	9.435498	-0.638440	8.577338	-0.923969	3.813493	-0.529911	-0.057625	0.848023	0.526817	-0.990629	0.016881	-0.135531	-0.123826	-0.529690	0.839104
51382	9.165526	-0.873192	8.350946	-0.912488	3.888676	-0.313103	-0.049524	0.867908	0.494251	-0.989612	0.024229	-0.141707	-0.134964	-0.496134	0.857692
51383	8.741979	-0.831986	7.945569	-0.819144	3.906206	-0.086269	-0.043981	0.886732	0.460186	-0.988516	0.028035	-0.148496	-0.144577	-0.461432	0.875316
51384	8.423159	-0.523520	7.717299	-0.706573	3.827893	0.135615	-0.039655	0.903778	0.426160	-0.987403	0.029937	-0.155369	-0.153177	-0.426953	0.891206
51385	8.380993	0.031482	8.012746	-0.572894	3.681109	0.301927	-0.037627	0.919078	0.392274	-0.986398	0.028697	-0.161849	-0.160009	-0.393029	0.905497
51386	8.611879	0.894878	8.107638	-0.399177	3.519112	0.391459	-0.035797	0.932445	0.359534	-0.985601	0.026550	-0.166990	-0.165255	-0.360335	0.918068
51387	8.800783	1.742353	7.951827	-0.274466	3.321008	0.390408	-0.034822	0.944079	0.327876	-0.985009	0.023040	-0.170955	-0.168949	-0.328914	0.929124
51388	9.764352	2.474111	8.204670	-0.211498	3.060781	0.287370	-0.032468	0.953766	0.298791	-0.984548	0.020949	-0.173858	-0.172079	-0.299819	0.938348
51389	11.489471	2.918874	8.759680	-0.208235	2.803929	0.133585	-0.029598	0.961889	0.271834	-0.984147	0.019533	-0.176276	-0.174868	-0.272742	0.946062
51390	13.077493	3.020570	8.625087	-0.231874	2.651612	-0.019542	-0.024764	0.968779	0.246687	-0.983739	0.020294	-0.178452	-0.177887	-0.247095	0.952523
51391	13.713504	2.544936	7.481251	-0.244461	2.510940	-0.166653	-0.019218	0.974690	0.222733	-0.983340	0.021849	-0.180458	-0.180757	-0.222490	0.958032
51392	13.606428	1.782341	5.854756	-0.184879	2.221985	-0.276599	-0.012494	0.979329	0.201888	-0.983044	0.024910	-0.181670	-0.182944	-0.200735	0.962412
51393	10.283869	-0.164779	6.242965	-0.110179	1.916933	-0.363711	-0.005889	0.982937	0.183849	-0.982880	0.028168	-0.182083	-0.184155	-0.181774	0.965943
51394	6.417574	-5.504484	-1.994503	0.847695	-0.089671	-0.407406	-0.002080	0.982655	0.185431	-0.984419	0.030593	-0.173159	-0.175828	-0.182902	0.967280
51395	30.637316	9.278162	2.080078	2.281932	-1.981828	-0.572050	-0.000115	0.978690	0.205343	-0.988185	0.031361	-0.150023	-0.153266	-0.202934	0.967123
51396	15.466040	-7.827670	-4.214724	-0.930574	0.228312	0.165013	-0.001421	0.979204	0.202872	-0.986712	0.031588	-0.159379	-0.162472	-0.200403	0.966148
51397	17.715736	-1.465371	-3.881817	3.453072	-1.812282	-0.697411	0.002636	0.975202	0.221299	-0.991729	0.030947	-0.124563	-0.128323	-0.219140	0.967218
51398	19.158742	3.118898	-2.799798	1.690052	-1.655120	-0.032361	0.000934	0.971430	0.237324	-0.993754	0.027384	-0.108181	-0.111590	-0.235741	0.965388
51399	16.352280	-1.727089	-3.160629	2.093495	-2.458251	0.180045	-0.003382	0.965380	0.260827	-0.995866	0.020423	-0.088506	-0.090769	-0.260048	0.961320
51400	7.807863	6.264224	9.498900	3.111793	-0.994997	-0.469714	0.000514	0.962656	0.270728	-0.998214	0.016668	-0.057371	-0.059741	-0.270215	0.960945
51401	-0.147345	11.488680	22.751320	1.594136	-1.079123	0.414998	-0.004130	0.959722	0.280920	-0.999029	0.008362	-0.043254	-0.043861	-0.280826	0.958756
51402	-3.456432	11.101761	4.692051	1.305358	-2.526438	0.704413	-0.012148	0.952344	0.304785	-0.999457	-0.002229	-0.032873	-0.030627	-0.305019	0.951854
51403	-6.707730	12.635611	5.705084	0.290285	-2.768129	0.069329	-0.013630	0.943528	0.331013	-0.999532	-0.003787	-0.030363	-0.027395	-0.331271	0.943138
51404	4.906866	11.283799	11.187913	0.229354	-4.443180	-0.346479	-0.011359	0.927892	0.372675	-0.999634	-0.001382	-0.027026	-0.024562	-0.372845	0.927568
51405	42.577847	2.177566	37.472337	-0.722682	-6.310962	1.095382	-0.024066	0.902473	0.430073	-0.999240	-0.008519	-0.038039	-0.030665	-0.430662	0.901992
51406	41.567690	-32.153658	3.782412	-2.297233	0.331666	1.109947	-0.035048	0.903802	0.426513	-0.997941	-0.008710	-0.063548	-0.053720	-0.427862	0.902246
51407	-25.288930	-4.262899	-5.500746	6.394071	7.146600	-1.817739	-0.015014	0.932218	0.361586	-0.999853	-0.016993	0.002294	0.008283	-0.361498	0.932336
51408	-3.326115	32.505918	34.073465	2.151701	-8.855745	0.717536	-0.020473	0.896439	0.442694	-0.999298	-0.032237	0.019065	0.031362	-0.441993	0.896470
51409	28.402984	-0.516419	3.839070	-4.789030	-2.720821	1.106378	-0.031244	0.883751	0.466913	-0.999386	-0.020216	-0.028612	-0.015847	-0.467520	0.883840
51410	4.586290	-16.086181	1.615358	-1.170150	2.685280	0.074674	-0.031434	0.895975	0.442990	-0.999102	-0.015574	-0.039396	-0.028399	-0.443831	0.895661
51411	0.739645	7.081721	16.889094	4.467454	-0.110375	-1.035529	-0.020905	0.895657	0.444253	-0.999651	-0.025915	0.005206	0.016176	-0.443989	0.895886
51412	7.731313	8.235405	8.393400	-1.233672	-1.204115	0.242066	-0.023240	0.890186	0.455004	-0.999722	-0.022557	-0.006933	0.004092	-0.455039	0.890462
51413	5.762214	-4.546776	8.243836	-3.196343	0.169799	0.511788	-0.028164	0.890829	0.453466	-0.999211	-0.012387	-0.037726	-0.027990	-0.454171	0.890475
51414	3.753807	-3.096735	8.097649	1.055789	0.094239	-0.062301	-0.027557	0.891265	0.452644	-0.999467	-0.016647	-0.028069	-0.017482	-0.453176	0.891250
51415	5.322999	3.043941	10.323898	0.482695	-0.176242	-0.100130	-0.026410	0.890442	0.454329	-0.999570	-0.017745	-0.023325	-0.012708	-0.454750	0.890528
51416	4.897461	0.379217	9.052752	-0.765554	-0.073663	0.120170	-0.027660	0.890087	0.454950	-0.999410	-0.015356	-0.030719	-0.020356	-0.455531	0.889987
51417	4.843287	-1.036411	8.953302	-0.129274	-0.093390	0.063655	-0.028141	0.889611	0.455850	-0.999368	-0.015132	-0.032165	-0.021717	-0.456467	0.889475
51418	4.908544	0.228445	9.267887	0.009512	-0.050630	0.040478	-0.028594	0.889374	0.456285	-0.999357	-0.015560	-0.032297	-0.021624	-0.456915	0.889248
51419	4.790641	-0.539633	9.141049	-0.102038	-0.086820	0.044039	-0.028878	0.888930	0.457132	-0.999325	-0.015283	-0.033412	-0.022714	-0.457788	0.888771
51420	5.042835	-0.285509	9.116208	-0.001522	-0.058041	0.027585	-0.029203	0.888660	0.457635	-0.999315	-0.015546	-0.033583	-0.022730	-0.458303	0.888505
51421	4.923139	-0.449050	9.072945	-0.031831	-0.037998	0.018719	-0.029224	0.888443	0.458056	-0.999305	-0.015363	-0.033959	-0.023133	-0.458730	0.888274
51422	4.959433	-0.419870	9.109817	0.004262	-0.031777	0.016529	-0.029433	0.888294	0.458330	-0.999300	-0.015553	-0.034028	-0.023098	-0.459011	0.888130
51423	4.882981	-0.224201	8.925098	0.014319	0.010223	0.004021	-0.029295	0.888300	0.458328	-0.999305	-0.015451	-0.033927	-0.023056	-0.459003	0.888135
51424	4.716230	-0.220015	9.064804	-0.013951	-0.026168	0.020281	-0.029539	0.888177	0.458551	-0.999294	-0.015591	-0.034175	-0.023205	-0.459237	0.888011
51425	4.849699	-0.210703	9.066766	0.038844	-0.026816	0.021889	-0.029588	0.888010	0.458872	-0.999300	-0.015759	-0.033938	-0.022906	-0.459554	0.887854
51426	4.695731	-0.227638	8.998743	0.015318	-0.024378	0.029385	-0.029923	0.887893	0.459076	-0.999293	-0.016114	-0.033969	-0.022763	-0.459767	0.887748
51427	4.716288	-0.240690	9.085661	0.025620	-0.056202	0.039366	-0.030154	0.887588	0.459651	-0.999290	-0.016377	-0.033929	-0.022587	-0.460348	0.887451
51428	4.835746	-0.217138	8.997148	0.044180	-0.064593	0.042064	-0.030624	0.887283	0.460207	-0.999286	-0.016978	-0.033763	-0.022144	-0.460913	0.887169
51429	4.887462	-0.234529	9.016081	0.038870	-0.058491	0.043780	-0.030899	0.886966	0.460801	-0.999284	-0.017342	-0.033627	-0.021835	-0.461510	0.886866
51430	4.833332	-0.362152	8.998977	0.033612	-0.053943	0.045586	-0.031401	0.886708	0.461262	-0.999276	-0.017924	-0.033571	-0.021500	-0.461982	0.886629
51431	4.839405	-0.330307	9.047806	0.039030	-0.053878	0.042012	-0.031657	0.886411	0.461815	-0.999274	-0.018273	-0.033426	-0.021191	-0.462538	0.886346
51432	4.868875	-0.405394	9.008799	0.035928	-0.068295	0.037431	-0.032080	0.886088	0.462405	-0.999268	-0.018794	-0.033312	-0.020828	-0.463136	0.886043
51433	4.967754	-0.298363	9.009777	0.045263	-0.068260	0.029975	-0.032218	0.885726	0.463089	-0.999272	-0.019065	-0.033058	-0.020452	-0.463817	0.885695
51434	4.936023	-0.224260	9.011471	0.032192	-0.043977	0.027600	-0.032538	0.885516	0.463468	-0.999268	-0.019481	-0.032933	-0.020134	-0.464200	0.885501
51435	4.951537	-0.194035	9.038050	0.029809	-0.053524	0.026048	-0.032633	0.885222	0.464023	-0.999269	-0.019645	-0.032798	-0.019918	-0.464754	0.885216
51436	4.894711	-0.242254	9.067396	0.024826	-0.038226	0.024232	-0.032917	0.885039	0.464352	-0.999264	-0.019997	-0.032722	-0.019675	-0.465087	0.885046
51437	4.833069	-0.218595	9.088319	0.013779	-0.049474	0.027249	-0.033023	0.884763	0.464870	-0.999262	-0.020097	-0.032735	-0.019620	-0.465608	0.884774
51438	4.916062	-0.237646	9.094513	0.004952	-0.054619	0.025720	-0.033324	0.884503	0.465343	-0.999253	-0.020369	-0.032842	-0.019571	-0.466090	0.884521
51439	4.869815	-0.290134	9.101059	-0.002122	-0.058192	0.022907	-0.033389	0.884186	0.465939	-0.999249	-0.020357	-0.032976	-0.019672	-0.466690	0.884202
51440	4.895389	-0.408858	9.144272	-0.027395	-0.054966	0.016043	-0.033594	0.883926	0.466419	-0.999237	-0.020392	-0.033325	-0.019945	-0.467182	0.883936
51441	4.931268	-0.442593	9.076830	-0.034707	-0.069685	0.009088	-0.033524	0.883558	0.467120	-0.999230	-0.020105	-0.033682	-0.020368	-0.467890	0.883552
51442	4.972912	-0.296536	9.075029	-0.051989	-0.063070	0.000562	-0.033576	0.883262	0.467676	-0.999218	-0.019888	-0.034176	-0.020885	-0.468457	0.883239
51443	4.968532	-0.464552	8.948585	-0.067386	-0.068797	-0.006935	-0.033346	0.882901	0.468374	-0.999210	-0.019306	-0.034747	-0.021635	-0.469163	0.882847
51444	5.009838	-0.408215	9.034660	-0.069247	-0.056842	-0.015728	-0.033235	0.882636	0.468880	-0.999198	-0.018863	-0.035316	-0.022327	-0.469678	0.882555
51445	5.027762	-0.410416	9.063285	-0.099371	-0.052217	-0.022036	-0.032851	0.882354	0.469438	-0.999186	-0.017996	-0.036098	-0.023403	-0.470242	0.882227
51446	4.895334	-0.308820	9.232635	-0.102226	-0.037349	-0.034283	-0.032550	0.882184	0.469778	-0.999171	-0.017233	-0.036871	-0.024431	-0.470589	0.882014
51447	4.909313	-0.375488	9.158662	-0.160122	-0.064061	-0.050833	-0.031884	0.881850	0.470451	-0.999150	-0.015825	-0.038052	-0.026111	-0.471264	0.881605
51448	4.787103	-0.057770	9.312522	-0.148711	-0.064034	-0.061026	-0.031324	0.881557	0.471038	-0.999128	-0.014606	-0.039107	-0.027596	-0.471852	0.881246
51449	4.536451	0.283952	9.328322	-0.173151	-0.141956	-0.038780	-0.030804	0.880851	0.472391	-0.999093	-0.013242	-0.040458	-0.029382	-0.473209	0.880460
51450	4.979030	-0.135898	8.973561	-0.205223	-0.223384	0.014781	-0.031052	0.879789	0.474349	-0.999025	-0.012419	-0.042365	-0.031382	-0.475202	0.879317
51451	4.979034	-0.349179	8.996326	-0.197836	-0.201280	0.012090	-0.031067	0.878789	0.476199	-0.998959	-0.011381	-0.044169	-0.033395	-0.477075	0.878228
51452	4.989240	-0.391183	9.010597	-0.217973	-0.198644	0.018881	-0.031356	0.877837	0.477932	-0.998877	-0.010525	-0.046204	-0.035529	-0.478844	0.877181
51453	4.978636	-0.461534	9.017961	-0.231327	-0.202354	0.016399	-0.031424	0.876824	0.479784	-0.998788	-0.009357	-0.048317	-0.037877	-0.480721	0.876055
51454	4.841862	-0.416273	9.308501	-0.263935	-0.203650	0.016283	-0.031699	0.875841	0.481558	-0.998678	-0.008247	-0.050738	-0.040467	-0.482529	0.874944
51455	4.864794	-0.467415	9.298436	-0.304235	-0.255617	0.002786	-0.031666	0.874564	0.483875	-0.998550	-0.006600	-0.053419	-0.043524	-0.484865	0.873505
51456	4.996255	-0.388651	9.319734	-0.339331	-0.282062	-0.002979	-0.031795	0.873193	0.486337	-0.998396	-0.004943	-0.056398	-0.046842	-0.487350	0.871949
51457	4.698396	-0.178361	9.528598	-0.379615	-0.277390	-0.004708	-0.031719	0.871797	0.488839	-0.998213	-0.002849	-0.059688	-0.050643	-0.489859	0.870330
51458	4.626762	-0.141377	9.624007	-0.438813	-0.403593	0.007192	-0.032035	0.869813	0.492341	-0.997977	-0.000772	-0.063570	-0.054914	-0.493382	0.868078
51459	4.671890	-0.012395	9.620737	-0.473026	-0.486676	0.017473	-0.032329	0.867362	0.496627	-0.997700	0.001611	-0.067762	-0.059574	-0.497675	0.865315
51460	4.627072	-0.048609	9.504169	-0.486550	-0.616437	0.043797	-0.033179	0.864278	0.501918	-0.997382	0.003649	-0.072215	-0.064245	-0.503000	0.861895
51461	4.513062	-0.082555	9.456795	-0.414763	-0.741099	0.069728	-0.034215	0.860492	0.508314	-0.997083	0.005331	-0.076138	-0.068226	-0.509436	0.857799
51462	4.332977	-0.197201	9.641033	-0.301811	-0.871206	0.118131	-0.036030	0.856027	0.515673	-0.996829	0.005849	-0.079357	-0.070948	-0.516897	0.853102
51463	3.952570	-0.287514	9.924294	-0.192307	-1.071307	0.157615	-0.038229	0.850413	0.524725	-0.996631	0.005680	-0.081816	-0.072558	-0.526085	0.847331
51464	4.051021	-0.264164	9.919265	-0.200645	-1.312150	0.215949	-0.041373	0.843448	0.535615	-0.996396	0.004902	-0.084686	-0.074054	-0.537188	0.840205
51465	4.034984	-0.296922	10.093842	-0.326256	-1.468920	0.254469	-0.044893	0.835445	0.547737	-0.996039	0.004695	-0.088796	-0.076755	-0.549554	0.831925
51466	3.371997	-0.301267	9.928024	-0.400310	-1.614923	0.248738	-0.048666	0.826473	0.560869	-0.995606	0.004840	-0.093520	-0.080006	-0.562955	0.822606
51467	2.787898	-0.277532	9.821874	-0.480424	-1.892626	0.187725	-0.051984	0.815652	0.576203	-0.995116	0.006173	-0.098515	-0.083911	-0.578510	0.811348
51468	2.989879	-0.308511	9.680967	-0.478885	-2.367354	0.168817	-0.055722	0.801741	0.595069	-0.994612	0.007611	-0.103389	-0.087420	-0.597624	0.796997
51469	3.628199	-0.196289	10.018078	-0.381490	-2.741710	0.165139	-0.059717	0.785046	0.616552	-0.994178	0.008723	-0.107400	-0.089692	-0.619376	0.779954
51470	3.387366	-0.576436	10.173928	-0.255007	-3.150257	0.208734	-0.064658	0.765166	0.640578	-0.993815	0.008704	-0.110710	-0.090287	-0.643775	0.759870
51471	3.083836	-1.042099	10.832879	-0.184847	-3.837467	0.320133	-0.071243	0.739912	0.668920	-0.993430	0.007580	-0.114190	-0.089560	-0.672661	0.734511
51472	3.558228	-1.426006	11.171009	-0.131153	-4.449219	0.353084	-0.078722	0.709285	0.700512	-0.993045	0.005916	-0.117586	-0.087546	-0.704897	0.703886
51473	4.464425	-1.705372	10.725743	-0.059104	-5.188253	0.415943	-0.087288	0.671787	0.735583	-0.992649	0.003492	-0.120982	-0.083843	-0.740736	0.666544
51474	7.099801	-1.405137	11.636062	-0.147000	-5.864330	0.418768	-0.096279	0.627229	0.772861	-0.992139	0.001884	-0.125125	-0.079938	-0.778833	0.622117
51475	12.428078	-0.022672	13.576250	-0.311295	-6.253059	0.430614	-0.105466	0.577344	0.809661	-0.991460	0.001754	-0.130397	-0.076705	-0.816499	0.572229
51476	18.057328	-1.401391	16.614169	-0.731638	-6.129043	0.433932	-0.114516	0.526263	0.842575	-0.990415	0.005458	-0.138018	-0.077233	-0.850304	0.520594
51477	20.327688	-2.745597	16.341798	-0.459864	-5.349629	0.296915	-0.121567	0.480077	0.868762	-0.989713	0.007886	-0.142849	-0.075430	-0.877191	0.474180
51478	14.018015	-3.808518	14.532348	-0.372715	-5.082280	0.114664	-0.126500	0.434905	0.891546	-0.989289	0.010678	-0.145578	-0.072833	-0.900413	0.428896
51479	10.343352	-3.707222	14.694516	-0.116502	-5.042352	-0.087484	-0.129212	0.388987	0.912137	-0.989320	0.012001	-0.145264	-0.067452	-0.921165	0.383282
51480	6.353547	-4.480311	13.675354	0.323314	-4.891608	-0.135296	-0.130970	0.343464	0.929989	-0.989694	0.009496	-0.142886	-0.057907	-0.939118	0.338680
51481	0.124171	-3.364188	12.618715	0.736195	-4.666582	-0.192302	-0.131517	0.299322	0.945045	-0.990323	0.002951	-0.138753	-0.044321	-0.954147	0.296038
51482	-5.393535	-3.041588	11.592205	0.992435	-4.862859	-0.315343	-0.130185	0.252591	0.958775	-0.991090	-0.005706	-0.133069	-0.028142	-0.967556	0.251084
51483	-8.592484	3.533389	12.256695	1.041322	-5.061977	-1.046286	-0.120880	0.203508	0.971583	-0.992604	-0.013765	-0.120612	-0.011172	-0.978977	0.203667
51484	16.449479	-0.159058	21.305273	-1.486824	-6.873656	-1.061913	-0.111363	0.135842	0.984452	-0.993617	0.002701	-0.112772	-0.017978	-0.990727	0.134674
51485	21.100846	-5.377390	14.862735	1.130150	-1.766229	-1.592476	-0.095790	0.118510	0.988322	-0.995392	-0.006943	-0.095642	-0.004473	-0.992929	0.118629
51486	12.343513	-5.472785	10.403812	1.606764	0.594253	-2.074324	-0.075174	0.124690	0.989344	-0.997110	-0.020352	-0.073199	0.011008	-0.991987	0.125860
51487	10.200370	-0.836486	10.521652	2.177048	3.040097	-3.129841	-0.044679	0.155903	0.986761	-0.998507	-0.038055	-0.039199	0.031440	-0.987039	0.157370
51488	3.052356	5.311953	14.638593	1.377002	4.678706	-2.669053	-0.019807	0.203016	0.978975	-0.998850	-0.046784	-0.010507	0.043668	-0.978057	0.203709
51489	-0.663857	-2.843109	7.707684	-1.070034	4.041669	-2.106627	-0.000473	0.243489	0.969904	-0.999449	-0.032302	0.007622	0.033186	-0.969366	0.243370
51490	-1.130721	-3.745713	4.887967	-0.031784	4.174608	-2.142991	0.019527	0.284361	0.958518	-0.999256	-0.026330	0.028168	0.033248	-0.958356	0.283635
51491	-3.161153	-3.089717	2.800260	-0.578509	4.035935	-1.875683	0.036765	0.323516	0.945508	-0.998895	-0.015806	0.044249	0.029260	-0.946091	0.322577
51492	-3.578009	-5.658328	1.221355	-1.015577	3.282858	-1.505783	0.050954	0.354525	0.933657	-0.998490	-0.001142	0.054925	0.020538	-0.935046	0.353931
51493	-1.467057	-5.540246	2.982997	-0.786863	2.706815	-1.285162	0.062998	0.379988	0.922844	-0.997903	0.010193	0.063925	0.014884	-0.924935	0.379833
51494	1.939342	-4.738050	5.347839	-0.907803	2.468663	-0.969146	0.072357	0.402545	0.912536	-0.997351	0.022340	0.069227	0.007481	-0.915127	0.403095
51495	4.316717	-4.852811	6.773981	-0.995531	2.658017	-0.608853	0.077962	0.426918	0.900923	-0.996956	0.033188	0.070546	0.000217	-0.903681	0.428206
51496	6.001937	-5.386003	7.770879	-1.056572	2.891812	-0.221314	0.080247	0.452781	0.888003	-0.996743	0.043641	0.067821	-0.008045	-0.890553	0.454808
51497	7.593692	-6.223516	7.977491	-1.007900	3.235678	0.169032	0.078501	0.481805	0.872755	-0.996803	0.050977	0.061517	-0.014851	-0.874795	0.484266
51498	7.750162	-6.522519	7.909263	-0.672577	3.700751	0.522201	0.073880	0.514113	0.854535	-0.997091	0.054194	0.053600	-0.018754	-0.856009	0.516621
51499	7.277742	-6.246747	7.678227	-0.450213	3.929787	0.894280	0.065210	0.548188	0.833809	-0.997674	0.052442	0.043548	-0.019854	-0.834710	0.550332
51500	6.889867	-5.719274	7.624581	-0.240854	4.032052	1.257353	0.053424	0.582017	0.811420	-0.998374	0.047311	0.031798	-0.019882	-0.811799	0.583599
51501	6.767805	-5.207126	7.736262	-0.072536	4.026426	1.539686	0.038225	0.615219	0.787429	-0.999105	0.037831	0.018943	-0.018136	-0.787448	0.616114
51502	6.789752	-4.343408	7.985300	0.105459	3.977549	1.716560	0.021707	0.646599	0.762521	-0.999638	0.026171	0.006265	-0.015905	-0.762381	0.646933
51503	7.174974	-3.161000	8.222568	0.203337	3.953421	1.813212	0.003490	0.676869	0.736095	-0.999912	0.011776	-0.006088	-0.012789	-0.736010	0.676850
51504	7.074532	-2.124243	8.420356	0.244803	3.960789	1.811732	-0.014204	0.705569	0.708499	-0.999843	-0.002533	-0.017522	-0.010568	-0.708637	0.705494
51505	7.018392	-0.835333	8.923518	0.233494	3.953449	1.725753	-0.031787	0.733099	0.679378	-0.999458	-0.017460	-0.027922	-0.008608	-0.679897	0.733257
51506	7.009286	0.243953	9.552555	0.083125	3.954429	1.584629	-0.047306	0.759032	0.649333	-0.998837	-0.029857	-0.037868	-0.009356	-0.650369	0.759561
51507	7.089544	0.876434	9.925840	-0.101576	3.943447	1.363688	-0.061255	0.783797	0.617988	-0.998050	-0.040638	-0.047387	-0.012028	-0.619686	0.784758
51508	7.225221	1.526266	10.283695	-0.255512	3.931583	1.078417	-0.071482	0.807076	0.586105	-0.997294	-0.047697	-0.055951	-0.017202	-0.588518	0.808301
51509	7.889964	2.174195	10.948398	-0.474466	3.861704	0.740072	-0.078846	0.828982	0.553689	-0.996588	-0.051948	-0.064138	-0.024406	-0.556857	0.830250
51510	8.935640	2.596220	11.634368	-0.697146	3.855396	0.388949	-0.081628	0.849636	0.521014	-0.996067	-0.051469	-0.072122	-0.034461	-0.524852	0.850496
51511	9.396589	2.812217	12.068259	-0.903441	3.914111	0.021784	-0.081072	0.869640	0.486984	-0.995634	-0.047977	-0.080076	-0.046273	-0.491350	0.869732
51512	9.954241	2.738310	12.222156	-1.098955	3.950207	-0.324123	-0.075781	0.888518	0.452540	-0.995298	-0.039946	-0.088240	-0.060326	-0.457099	0.887368
51513	10.280817	2.627688	12.108697	-1.239765	4.005544	-0.644166	-0.067463	0.906440	0.416911	-0.994882	-0.029609	-0.096612	-0.075229	-0.421295	0.903798
51514	10.519697	2.081477	11.712238	-1.374244	4.006689	-0.901074	-0.055204	0.922801	0.381303	-0.994286	-0.015860	-0.105567	-0.091370	-0.384951	0.918403
51515	11.002545	1.297999	11.089459	-1.451038	3.949193	-1.064699	-0.041480	0.937461	0.345610	-0.993343	-0.001488	-0.115184	-0.107467	-0.348087	0.931282
51516	11.042391	0.673956	10.227151	-1.422263	3.836523	-1.130847	-0.025875	0.950053	0.311014	-0.992083	0.013842	-0.124822	-0.122892	-0.311781	0.942173
51517	7.151339	-2.995050	12.286323	-1.538576	3.603656	-1.091724	-0.011075	0.960515	0.278007	-0.990280	0.028014	-0.136237	-0.138645	-0.276813	0.950869
51518	1.491889	-2.128927	2.015782	0.545284	1.591475	-1.708779	0.007975	0.964197	0.265066	-0.991046	0.042951	-0.126421	-0.133280	-0.261685	0.955907
51519	28.286792	14.977455	9.987899	0.414208	0.017723	-0.523071	0.012465	0.964103	0.265234	-0.991561	0.046149	-0.121146	-0.129037	-0.261486	0.956543
51520	15.473402	-9.433544	0.235637	-4.361717	2.190092	0.177912	0.013959	0.969669	0.244022	-0.985020	0.055284	-0.163338	-0.171874	-0.238087	0.955915
51521	16.249749	-5.089243	0.788606	2.177040	0.797083	-0.979226	0.024374	0.971048	0.237639	-0.988362	0.059111	-0.140169	-0.150158	-0.231457	0.961187
51522	19.539991	2.834140	0.262759	0.576864	0.852293	-0.357815	0.029121	0.972776	0.229913	-0.989115	0.061234	-0.133801	-0.144237	-0.223513	0.963970
51523	17.169277	-3.748277	-1.100746	-0.032549	0.222311	0.343419	0.025676	0.973521	0.227152	-0.989178	0.057577	-0.134952	-0.144457	-0.221228	0.964464
51524	18.063006	0.069526	-1.096746	1.404403	-0.016472	0.395524	0.021691	0.973702	0.226790	-0.991202	0.050570	-0.122313	-0.130565	-0.222141	0.966233
51525	15.988740	1.719677	-0.167490	0.879950	-0.408340	0.917929	0.011863	0.973222	0.229559	-0.992471	0.039448	-0.115951	-0.121902	-0.226455	0.966363
51526	12.986653	-0.240635	-0.972930	1.065611	-0.961885	1.256512	-0.001783	0.971404	0.237427	-0.993777	0.024723	-0.108614	-0.111378	-0.236143	0.965314
51527	12.933975	1.947646	0.285888	1.260308	-1.287973	1.372436	-0.016859	0.968512	0.248396	-0.994970	0.008285	-0.099833	-0.098747	-0.248830	0.963500
51528	10.557695	1.659833	1.080686	1.428827	-1.604946	1.353597	-0.031847	0.964394	0.262546	-0.995945	-0.008506	-0.089566	-0.084143	-0.264334	0.960754
51529	9.206925	2.993564	1.393384	1.590495	-1.703067	1.161378	-0.044682	0.959560	0.277936	-0.996705	-0.023969	-0.077484	-0.067689	-0.280483	0.957469
51530	7.059880	3.703362	1.678292	1.704680	-1.900266	0.883021	-0.054648	0.953791	0.295458	-0.997265	-0.037391	-0.063753	-0.049759	-0.298134	0.953226
51531	5.808286	5.749037	-0.178177	1.920890	-2.231466	0.491153	-0.060335	0.946689	0.316450	-0.997746	-0.047868	-0.047030	-0.029375	-0.318574	0.947443
51532	-0.678829	15.324577	-0.007121	2.055208	-2.017499	-0.183359	-0.058925	0.940172	0.335567	-0.998233	-0.052911	-0.027044	-0.007671	-0.336568	0.941628
51533	-0.902983	6.747623	8.002515	-1.510534	-4.182912	1.131729	-0.070682	0.924612	0.374295	-0.997297	-0.057947	-0.045185	-0.020089	-0.376477	0.926208
51534	46.157771	-1.823167	41.004266	1.440527	-8.677782	-0.138632	-0.070199	0.888625	0.453231	-0.997533	-0.062714	-0.031544	0.000393	-0.454327	0.890835
51535	52.071188	15.428946	12.725745	4.112386	0.121267	0.062156	-0.070640	0.889092	0.452244	-0.996650	-0.081639	0.004824	0.041210	-0.450389	0.891881
51536	-19.708049	-14.801846	-3.267366	-5.697175	8.764457	0.119323	-0.072722	0.925203	0.372439	-0.997111	-0.059232	-0.047553	-0.021936	-0.374821	0.926837
51537	-14.069450	-4.430672	18.816748	3.042511	-6.879563	-0.375248	-0.068965	0.897503	0.435582	-0.997532	-0.067799	-0.018240	0.013162	-0.435765	0.899964
51538	32.037438	24.500149	17.324962	3.270323	-5.466586	-0.084088	-0.066460	0.872480	0.484109	-0.996562	-0.082097	0.011148	0.049471	-0.481704	0.874937
51539	8.610069	-2.773934	-0.243780	-5.075800	3.923411	1.038334	-0.077398	0.889957	0.449428	-0.996992	-0.067232	-0.038564	-0.004104	-0.451061	0.892484
51540	-5.538826	-9.593436	11.933427	0.158740	1.108432	-0.119226	-0.076213	0.894981	0.439546	-0.997086	-0.066911	-0.036643	-0.003385	-0.441058	0.897472
51541	4.547990	2.483461	9.063547	2.829086	-2.403901	-0.405232	-0.071602	0.884385	0.461234	-0.997082	-0.075734	-0.009572	0.026465	-0.460574	0.887227
51542	11.646201	5.307807	9.434271	-0.554925	-0.362268	0.026930	-0.071829	0.882689	0.464436	-0.997192	-0.073440	-0.014647	0.021180	-0.464184	0.885485
51543	3.776580	-1.843575	8.533003	-1.249476	1.134741	0.202057	-0.073693	0.887709	0.454469	-0.997251	-0.069135	-0.026665	0.007749	-0.455184	0.890363
51544	2.908020	-1.442423	9.781597	0.267274	-0.328024	0.080346	-0.074508	0.886155	0.457360	-0.997164	-0.071101	-0.024685	0.010644	-0.457902	0.888939
51545	6.382770	0.488174	8.911214	0.095825	-0.336422	0.080340	-0.074969	0.884502	0.460473	-0.997117	-0.071915	-0.024200	0.011710	-0.460960	0.887344
51546	4.900504	-0.777580	9.075475	-0.143154	0.136168	0.069290	-0.075718	0.885079	0.459241	-0.997077	-0.071902	-0.025821	0.010167	-0.459854	0.887936
51547	4.768217	-0.476260	9.192923	0.038890	-0.110425	0.056119	-0.075959	0.884480	0.460354	-0.997056	-0.072234	-0.025732	0.010494	-0.460953	0.887362
51548	5.351832	-0.389817	8.995169	-0.040242	-0.058921	0.045920	-0.076454	0.884174	0.460859	-0.997022	-0.072487	-0.026331	0.010125	-0.461500	0.887082
51549	5.008834	-0.420414	9.063870	-0.032035	0.011719	0.025506	-0.076401	0.884159	0.460896	-0.997030	-0.072220	-0.026732	0.009650	-0.461569	0.887052
51550	5.051251	-0.347771	9.071912	-0.027808	-0.008611	0.023083	-0.076673	0.884102	0.460960	-0.997012	-0.072328	-0.027116	0.009367	-0.461662	0.887006
51551	5.081266	-0.303360	9.052057	-0.019793	0.017292	0.010422	-0.076471	0.884124	0.460951	-0.997031	-0.071983	-0.027339	0.009010	-0.461673	0.887004
51552	4.967817	-0.235698	9.050045	-0.025421	0.032367	0.005124	-0.076567	0.884269	0.460657	-0.997026	-0.071943	-0.027619	0.008718	-0.461402	0.887148
51553	5.007100	-0.137291	9.056108	-0.022609	0.025849	-0.000102	-0.076260	0.884339	0.460575	-0.997053	-0.071492	-0.027818	0.008327	-0.461340	0.887185
51554	4.902213	-0.177424	8.992157	-0.036593	0.036756	0.005687	-0.076362	0.884503	0.460242	-0.997049	-0.071405	-0.028200	0.007921	-0.461038	0.887345
51555	4.864339	-0.187954	8.952469	-0.034806	0.018192	0.007322	-0.076127	0.884532	0.460226	-0.997071	-0.070963	-0.028541	0.007413	-0.461051	0.887343
51556	4.867969	-0.232542	9.013919	-0.044288	0.009204	0.016945	-0.076339	0.884561	0.460135	-0.997058	-0.070940	-0.029043	0.006951	-0.460998	0.887374
51557	4.941786	-0.266158	8.969339	-0.042951	0.000048	0.019401	-0.076224	0.884498	0.460276	-0.997070	-0.070568	-0.029512	0.006377	-0.461177	0.887285
51558	4.864781	-0.298506	8.967322	-0.048011	0.017029	0.018782	-0.076454	0.884562	0.460114	-0.997056	-0.070543	-0.030056	0.005872	-0.461057	0.887351
51559	4.865657	-0.247852	9.014759	-0.050235	0.004822	0.023842	-0.076384	0.884518	0.460211	-0.997065	-0.070177	-0.030610	0.005221	-0.461198	0.887282
51560	4.832852	-0.229077	9.024137	-0.060305	-0.004507	0.028677	-0.076711	0.884476	0.460237	-0.997043	-0.070183	-0.031308	0.004609	-0.461278	0.887244
51561	4.857117	-0.258300	9.036137	-0.061270	-0.021217	0.035850	-0.076761	0.884303	0.460560	-0.997042	-0.069873	-0.032015	0.003869	-0.461655	0.887051
51562	4.858684	-0.242195	9.031288	-0.079417	-0.031195	0.034407	-0.077143	0.884134	0.460821	-0.997015	-0.069840	-0.032909	0.003087	-0.461984	0.886883
51563	4.861017	-0.356272	8.988963	-0.098546	-0.036232	0.037117	-0.077207	0.883891	0.461276	-0.997013	-0.069369	-0.033953	0.001987	-0.462519	0.886607
51564	4.880649	-0.330245	9.068682	-0.095885	-0.053509	0.034115	-0.077586	0.883619	0.461734	-0.996985	-0.069256	-0.034991	0.001059	-0.463056	0.886328
51565	4.885623	-0.341095	9.065601	-0.107802	-0.058646	0.032047	-0.077601	0.883276	0.462387	-0.996985	-0.068696	-0.036093	-0.000116	-0.463794	0.885943
51566	4.882182	-0.373569	9.087910	-0.103847	-0.061881	0.028372	-0.077924	0.882968	0.462920	-0.996959	-0.068494	-0.037176	-0.001118	-0.464409	0.885620
51567	4.917745	-0.439961	9.023924	-0.090547	-0.067398	0.009559	-0.077717	0.882599	0.463658	-0.996973	-0.067815	-0.038020	-0.002114	-0.465210	0.885198
51568	4.974280	-0.325378	9.000540	-0.067318	-0.054824	0.000932	-0.077767	0.882342	0.464139	-0.996968	-0.067538	-0.038652	-0.002757	-0.465737	0.884919
51569	4.967172	-0.360112	8.969015	-0.070809	-0.061964	-0.011791	-0.077348	0.882012	0.464836	-0.996998	-0.066761	-0.039222	-0.003561	-0.466474	0.884528
51570	4.996509	-0.259710	9.015877	-0.063504	-0.069332	-0.008302	-0.077308	0.881693	0.465448	-0.996999	-0.066420	-0.039776	-0.004155	-0.467126	0.884181
51571	5.024558	-0.368186	8.980178	-0.087739	-0.073296	-0.011335	-0.076895	0.881308	0.466244	-0.997026	-0.065567	-0.040497	-0.005120	-0.467972	0.883729
51572	5.027304	-0.438470	9.062226	-0.096239	-0.066049	-0.016605	-0.076772	0.881008	0.466830	-0.997030	-0.064998	-0.041301	-0.006044	-0.468615	0.883382
51573	4.978848	-0.447544	9.062454	-0.104973	-0.063854	-0.027838	-0.076197	0.880677	0.467550	-0.997067	-0.063918	-0.042097	-0.007189	-0.469386	0.882964
51574	4.795571	-0.300460	9.360625	-0.140991	-0.062632	-0.042870	-0.075813	0.880409	0.468117	-0.997085	-0.062905	-0.043172	-0.008562	-0.470025	0.882611
51575	4.618493	-0.199828	9.530291	-0.216663	-0.136927	-0.051809	-0.075010	0.879746	0.469490	-0.997125	-0.061089	-0.044839	-0.010766	-0.471503	0.881798
51576	4.926590	-0.179087	9.186271	-0.258668	-0.212668	-0.049370	-0.074581	0.878770	0.471383	-0.997128	-0.059459	-0.046917	-0.013202	-0.473528	0.880680
51577	4.838469	0.034655	9.132014	-0.299822	-0.201744	-0.031629	-0.073999	0.877780	0.473314	-0.997127	-0.057421	-0.049404	-0.016187	-0.475610	0.879507
51578	4.597984	-0.092045	9.396069	-0.318430	-0.241160	0.021470	-0.074294	0.876617	0.475418	-0.997052	-0.056118	-0.052336	-0.019199	-0.477905	0.878202
51579	4.946782	-0.523839	9.050016	-0.403273	-0.348533	0.032666	-0.074402	0.874877	0.478596	-0.996961	-0.054137	-0.056025	-0.023105	-0.481310	0.876246
51580	4.871151	-0.689913	9.452613	-0.390675	-0.272260	0.021670	-0.074724	0.873551	0.480963	-0.996844	-0.052466	-0.059581	-0.026813	-0.483897	0.874714
51581	4.796135	-0.613956	9.408907	-0.454412	-0.336297	0.014271	-0.074677	0.871860	0.484028	-0.996718	-0.050054	-0.063616	-0.031237	-0.487190	0.872737
51582	4.861031	-0.646639	9.506169	-0.510858	-0.355467	-0.004873	-0.074785	0.870124	0.487125	-0.996547	-0.047539	-0.068077	-0.036078	-0.490534	0.870675
51583	4.518783	-0.401020	9.865780	-0.525254	-0.364203	-0.025879	-0.074387	0.868293	0.490443	-0.996379	-0.044402	-0.072513	-0.041186	-0.494061	0.868451
51584	4.433160	-0.325535	9.678750	-0.560920	-0.521379	-0.021084	-0.074442	0.865713	0.494974	-0.996145	-0.041459	-0.077304	-0.046402	-0.498821	0.865462
51585	4.518914	-0.127665	9.669806	-0.481847	-0.657797	-0.001139	-0.074481	0.862362	0.500783	-0.995925	-0.038716	-0.081453	-0.050854	-0.504809	0.861732
51586	4.160491	0.039174	9.986002	-0.379494	-0.774065	0.041786	-0.075339	0.858412	0.507398	-0.995691	-0.037170	-0.084958	-0.054070	-0.511612	0.857514
51587	3.757306	0.026020	10.160143	-0.300155	-1.006509	0.099676	-0.076632	0.853133	0.516035	-0.995461	-0.036172	-0.088027	-0.056432	-0.520439	0.852032
51588	3.411841	0.008703	10.186579	-0.218190	-1.343700	0.157654	-0.079003	0.846005	0.527290	-0.995210	-0.036385	-0.090733	-0.057575	-0.531933	0.844827
51589	3.405903	-0.016354	10.234345	-0.188976	-1.720470	0.194826	-0.081705	0.836608	0.541674	-0.994955	-0.036727	-0.093353	-0.058206	-0.546569	0.835389
51590	2.706562	-0.212530	10.263476	-0.205671	-1.991035	0.165041	-0.084546	0.825499	0.558035	-0.994694	-0.036978	-0.096001	-0.058613	-0.563191	0.824245
51591	1.725753	-0.527804	10.840500	-0.192039	-2.413751	0.042321	-0.086180	0.811604	0.577816	-0.994555	-0.035977	-0.097802	-0.058588	-0.583099	0.810286
51592	1.877575	-1.522004	10.651991	-0.291849	-3.042019	-0.048452	-0.087520	0.793508	0.602233	-0.994422	-0.033870	-0.099889	-0.058865	-0.607616	0.792047
51593	2.246955	-2.377218	10.377292	0.025786	-3.636055	-0.221830	-0.087240	0.770928	0.630920	-0.994638	-0.032097	-0.098312	-0.055541	-0.636113	0.769594
51594	3.014606	-2.433279	9.878701	0.347848	-4.339454	-0.358196	-0.085965	0.742723	0.664057	-0.995125	-0.031672	-0.093399	-0.048337	-0.668849	0.741825
51595	4.883710	-1.721733	9.640770	0.621528	-4.949158	-0.365480	-0.084354	0.708811	0.700337	-0.995710	-0.033135	-0.086394	-0.038032	-0.704620	0.708565
51596	5.634043	-0.469432	10.243284	0.658274	-5.338581	-0.308012	-0.083057	0.670314	0.737415	-0.996178	-0.035783	-0.079676	-0.027021	-0.741215	0.670724
51597	7.463518	-0.610629	11.761299	0.450530	-6.080040	-0.151657	-0.082824	0.624063	0.776972	-0.996409	-0.038109	-0.075607	-0.017574	-0.780444	0.624979
51598	11.331111	0.240362	14.222714	0.185938	-6.496867	-0.035480	-0.083413	0.572094	0.815936	-0.996461	-0.039392	-0.074248	-0.010336	-0.819242	0.573355
51599	18.068491	-1.937650	16.382531	-0.394913	-6.547524	0.012994	-0.084127	0.517231	0.851701	-0.996416	-0.036075	-0.076513	-0.008850	-0.855085	0.518412
51600	17.507567	-5.156869	15.285515	0.071229	-5.536237	-0.142233	-0.083087	0.469175	0.879188	-0.996536	-0.035995	-0.074968	-0.003527	-0.882371	0.470540
51601	13.103282	-3.242149	13.811346	0.611729	-5.291994	-0.314285	-0.079851	0.421957	0.903093	-0.996783	-0.040024	-0.069435	0.006847	-0.905732	0.423795
51602	10.859688	-4.129089	13.610324	1.011503	-5.284348	-0.428742	-0.074875	0.373726	0.924512	-0.996972	-0.047584	-0.061508	0.021005	-0.926318	0.376157
51603	9.788709	-3.862683	13.568505	1.425180	-5.051287	-0.404374	-0.069350	0.326724	0.942572	-0.996834	-0.059523	-0.052710	0.038883	-0.943244	0.329818
51604	6.214475	-2.459452	12.759327	1.746561	-4.739204	-0.291869	-0.064146	0.281894	0.957299	-0.996169	-0.075223	-0.044600	0.059438	-0.956492	0.285639
51605	0.679116	-2.516505	12.470826	1.566454	-4.505037	-0.174558	-0.059364	0.238751	0.969265	-0.995190	-0.089959	-0.038793	0.077932	-0.966905	0.242943
51606	-9.447753	-2.537226	9.919119	1.835337	-3.511570	-0.274248	-0.053579	0.204956	0.977304	-0.993728	-0.107145	-0.032009	0.098153	-0.972889	0.209411
51607	9.247297	-1.527794	19.401701	0.580578	-7.017395	-0.539259	-0.041071	0.136944	0.989727	-0.993360	-0.112141	-0.025705	0.107469	-0.984211	0.140641
51608	31.664822	-6.578752	15.351209	1.288749	-3.730804	-0.373058	-0.033128	0.100605	0.994375	-0.992022	-0.124390	-0.020465	0.121632	-0.987120	0.103923
51609	13.029924	-4.590902	9.048772	3.363036	2.079655	-1.193562	-0.024272	0.122896	0.992123	-0.987665	-0.156507	-0.004776	0.154687	-0.980001	0.125179
51610	3.244656	5.662589	17.041095	2.553402	3.456888	-1.621381	-0.014095	0.159338	0.987123	-0.983715	-0.179118	0.014866	0.179181	-0.970839	0.159268
51611	2.040972	1.841508	14.870369	-0.340905	3.443512	-0.514765	-0.015280	0.193799	0.980922	-0.984310	-0.175386	0.019318	0.175784	-0.965237	0.193438
51612	-1.304655	-3.961522	9.580848	-0.046416	3.950000	-0.654261	-0.015798	0.232903	0.972372	-0.984495	-0.173536	0.025571	0.174697	-0.956892	0.232033
51613	-2.527977	-0.678036	8.210080	-0.208352	3.787114	-0.720525	-0.015495	0.270461	0.962606	-0.984868	-0.170326	0.032002	0.172613	-0.947544	0.269008
51614	-3.125838	-3.636479	4.737520	-1.059084	3.581211	-0.601470	-0.015587	0.305231	0.952151	-0.986733	-0.158600	0.034689	0.161599	-0.938978	0.303654
51615	-3.603185	-3.824308	4.373120	-0.973918	3.309579	-0.662975	-0.014519	0.337446	0.941233	-0.988261	-0.148019	0.037823	0.152083	-0.929635	0.335634
51616	-1.759292	-3.993280	5.691659	-1.258021	2.793906	-0.569059	-0.012997	0.364110	0.931265	-0.990174	-0.134376	0.038720	0.139238	-0.921611	0.362279
51617	0.845906	-4.171163	7.431918	-1.298489	2.635060	-0.421826	-0.012673	0.389114	0.921102	-0.991866	-0.121573	0.037711	0.126655	-0.913132	0.387490
51618	3.312386	-4.737668	8.872559	-1.447663	2.617958	-0.166457	-0.014181	0.413094	0.910578	-0.993616	-0.107751	0.033408	0.111916	-0.904291	0.411985
51619	5.754276	-5.613712	9.467231	-1.410379	2.793290	0.142908	-0.018961	0.438363	0.898598	-0.994998	-0.096442	0.026052	0.098083	-0.893609	0.437999
51620	6.852900	-6.002132	9.176167	-1.160180	3.210940	0.422706	-0.026161	0.466452	0.884159	-0.995969	-0.088068	0.016993	0.085793	-0.880151	0.466876
51621	6.921591	-5.694285	8.513559	-0.883610	3.523141	0.674368	-0.036243	0.496892	0.867055	-0.996407	-0.084429	0.006735	0.076551	-0.863696	0.498166
51622	6.411948	-4.546503	7.943382	-0.662913	3.733218	0.889695	-0.047855	0.528046	0.847867	-0.996512	-0.083333	-0.004345	0.068360	-0.845117	0.530192
51623	6.050332	-3.315718	7.808165	-0.555453	3.765798	1.040419	-0.061244	0.558891	0.826976	-0.996232	-0.085207	-0.016195	0.061413	-0.824852	0.562003
51624	6.345194	-2.124513	8.230184	-0.555329	3.725265	1.085580	-0.074237	0.588299	0.805229	-0.995813	-0.086923	-0.028302	0.053343	-0.803958	0.592289
51625	7.162359	-1.414176	8.616985	-0.622037	3.718392	1.032943	-0.086990	0.617118	0.782048	-0.995203	-0.089110	-0.040383	0.044767	-0.781809	0.621909
51626	7.663156	-1.350129	8.772855	-0.644273	3.802646	0.915150	-0.097651	0.645586	0.757419	-0.994611	-0.089942	-0.051569	0.034831	-0.758373	0.650889
51627	7.686561	-1.556935	8.759634	-0.568879	3.953636	0.737647	-0.106885	0.674599	0.730405	-0.993939	-0.091489	-0.060951	0.025707	-0.732493	0.680289
51628	7.632488	-1.174642	8.802367	-0.422786	4.103536	0.536686	-0.113137	0.703595	0.701536	-0.993434	-0.092169	-0.067771	0.016977	-0.704598	0.709404
51629	7.576963	-0.339903	8.971778	-0.369666	4.227889	0.343793	-0.117852	0.732603	0.670376	-0.992991	-0.093021	-0.072913	0.008943	-0.674270	0.738431
51630	7.721928	0.435909	9.134307	-0.407950	4.328566	0.148777	-0.119561	0.760964	0.637683	-0.992827	-0.091470	-0.076993	-0.000260	-0.642314	0.766442
51631	7.754895	1.118073	9.129768	-0.571643	4.428033	-0.035299	-0.119759	0.788829	0.602832	-0.992744	-0.088558	-0.081338	-0.010776	-0.608199	0.793712
51632	7.870623	1.308641	8.925593	-0.804995	4.463415	-0.201481	-0.117024	0.815368	0.566993	-0.992837	-0.082215	-0.086687	-0.024067	-0.573076	0.819149
51633	8.027722	1.162473	8.843184	-1.029772	4.456050	-0.337600	-0.113085	0.840479	0.529912	-0.992818	-0.074635	-0.093495	-0.039031	-0.536680	0.842883
51634	8.169615	0.793517	9.079158	-1.221266	4.392817	-0.453031	-0.106543	0.863569	0.492845	-0.992730	-0.064474	-0.101636	-0.055994	-0.500091	0.864161
51635	8.754438	0.254265	9.701105	-1.347000	4.275370	-0.527071	-0.099369	0.884574	0.455692	-0.992336	-0.054289	-0.111006	-0.073454	-0.463230	0.883189
51636	9.721363	-0.238276	10.413023	-1.437506	4.177260	-0.543851	-0.090568	0.903427	0.419067	-0.991660	-0.043066	-0.121474	-0.091696	-0.426574	0.899793
51637	10.505107	-0.927838	10.806393	-1.417591	4.128047	-0.522393	-0.082054	0.920545	0.381923	-0.990641	-0.033394	-0.132344	-0.109075	-0.389208	0.914669
51638	11.403865	-1.160669	10.706646	-1.333220	4.090751	-0.461471	-0.072732	0.935833	0.344856	-0.989430	-0.024210	-0.142977	-0.125454	-0.351610	0.927702
51639	11.920805	-0.928138	10.211682	-1.221441	4.033994	-0.365918	-0.064518	0.949389	0.307405	-0.988027	-0.017512	-0.153284	-0.140143	-0.313614	0.939152
51640	12.324222	-0.195938	9.398396	-1.173986	3.894659	-0.248264	-0.056382	0.960921	0.271020	-0.986445	-0.011717	-0.163671	-0.154100	-0.276574	0.948557
51641	12.550834	0.713853	8.497008	-1.186970	3.628854	-0.118693	-0.050056	0.970375	0.236363	-0.984576	-0.008220	-0.174764	-0.167644	-0.241465	0.955819
51642	9.554224	-0.837148	10.013521	-1.371767	3.388694	0.077046	-0.044921	0.977996	0.203730	-0.982132	-0.005927	-0.188101	-0.182754	-0.208539	0.960787
51643	5.302164	-5.030986	1.638002	-0.135667	1.335927	-0.170777	-0.041385	0.980730	0.190937	-0.981938	-0.004611	-0.189149	-0.184623	-0.195316	0.963206
51644	30.719343	14.391210	7.496515	0.824976	-0.372694	0.107762	-0.043163	0.979990	0.194312	-0.983377	-0.007339	-0.181425	-0.176369	-0.198913	0.964016
51645	18.123609	-9.531555	-2.052692	-3.333036	1.781635	0.994761	-0.049890	0.983303	0.175005	-0.976461	-0.011207	-0.215400	-0.209843	-0.181632	0.960716
51646	18.396940	-3.105835	-1.225601	2.603609	0.384362	-0.274094	-0.046494	0.984027	0.171839	-0.981724	-0.013232	-0.189851	-0.184544	-0.177526	0.966658
51647	19.969085	2.521185	-3.481495	0.496271	0.172795	0.348556	-0.049838	0.984284	0.169412	-0.982444	-0.017782	-0.185707	-0.179776	-0.175693	0.967891
51648	17.545569	-4.525005	-5.202609	1.128547	-0.722017	0.481588	-0.055877	0.982889	0.175517	-0.984150	-0.024586	-0.175627	-0.168307	-0.182549	0.968684
51649	18.736260	2.252809	-2.384104	2.037247	-1.284957	0.392838	-0.061820	0.980354	0.187308	-0.987125	-0.032317	-0.156652	-0.147521	-0.194580	0.969730
51650	17.424441	1.960194	-1.267435	1.640349	-1.757769	0.900904	-0.073208	0.976442	0.202983	-0.988790	-0.044505	-0.142529	-0.130138	-0.211142	0.968753
51651	16.025816	2.303182	-0.265023	2.001933	-2.101501	1.128560	-0.086749	0.971207	0.221884	-0.990280	-0.059757	-0.125600	-0.108725	-0.230623	0.966950
51652	14.111083	2.402480	-0.085998	2.249374	-2.385743	1.325347	-0.102229	0.964532	0.243366	-0.991192	-0.078061	-0.106985	-0.084193	-0.252159	0.964016
51653	11.526571	4.404098	0.649107	2.634242	-2.573180	1.351102	-0.117142	0.956561	0.266964	-0.991571	-0.097669	-0.085137	-0.055365	-0.274686	0.959939
51654	2.956976	8.599463	5.374489	2.645576	-1.857550	0.926905	-0.127145	0.950335	0.284073	-0.991520	-0.114015	-0.062358	-0.026872	-0.289593	0.956773
51655	-4.801483	20.194442	15.873453	1.929742	-2.024912	1.037359	-0.137419	0.943032	0.302996	-0.990499	-0.129227	-0.047027	-0.005193	-0.306580	0.951831
51656	-6.937044	13.672634	2.287555	-0.095369	-3.478470	1.127030	-0.148733	0.930279	0.335350	-0.988877	-0.139518	-0.051552	-0.001170	-0.339287	0.940682
51657	11.228047	6.258603	18.927973	1.876155	-5.495248	-0.980517	-0.138129	0.911651	0.387056	-0.990094	-0.137047	-0.030543	0.025200	-0.387441	0.921550
51658	84.537502	12.562529	51.445449	1.798093	-9.188784	1.202348	-0.146339	0.870613	0.469699	-0.987645	-0.155493	-0.019495	0.056062	-0.466749	0.882611
51659	-1.351156	-22.261034	-26.210208	-3.936955	10.683583	0.257865	-0.151441	0.915340	0.373121	-0.988466	-0.140625	-0.056213	0.001016	-0.377330	0.926078
51660	-35.137149	1.718859	20.523072	5.178300	-1.295290	-0.805515	-0.143167	0.911602	0.385337	-0.988219	-0.152958	-0.005304	0.054105	-0.381557	0.922760
51661	24.335769	27.063403	27.620423	1.582680	-10.836826	0.479243	-0.140008	0.864324	0.483055	-0.986499	-0.163623	0.006843	0.084953	-0.475575	0.875563
51662	23.999285	-4.416590	-8.920871	-4.100696	1.774749	1.252941	-0.153547	0.870685	0.467259	-0.987254	-0.155206	-0.035215	0.041860	-0.466710	0.883419
51663	-3.233008	-7.310882	13.609947	-0.693520	3.614896	-0.441404	-0.149965	0.887639	0.435440	-0.988256	-0.147639	-0.039394	0.029320	-0.436234	0.899356
51664	-0.751055	2.345751	12.526038	2.240731	-1.839773	-0.125226	-0.148005	0.879681	0.451947	-0.987501	-0.156488	-0.018799	0.054187	-0.449081	0.891847
51665	10.689188	3.366462	7.596393	-0.463551	-1.821665	-0.002410	-0.146581	0.871313	0.468325	-0.987825	-0.153875	-0.022898	0.052112	-0.465979	0.883260
51666	7.018213	-1.320786	8.230982	-0.876087	0.994114	0.192738	-0.148998	0.875610	0.459463	-0.987946	-0.151543	-0.031580	0.041976	-0.458630	0.887635
51667	2.278229	-1.042072	10.075629	0.189642	0.345565	0.019595	-0.148871	0.877122	0.456611	-0.987915	-0.152070	-0.029976	0.043144	-0.455555	0.889161
51668	5.359180	0.537712	9.321537	0.081936	-0.597463	0.108051	-0.149720	0.874216	0.461876	-0.987711	-0.153426	-0.029776	0.044833	-0.460659	0.886444
51669	5.910527	-0.684896	8.580699	-0.068754	0.022345	0.071862	-0.149987	0.874172	0.461874	-0.987711	-0.153242	-0.030709	0.043934	-0.460804	0.886414
51670	4.430556	-0.399317	9.472313	0.051233	0.013156	0.057231	-0.150602	0.874140	0.461734	-0.987597	-0.154012	-0.030550	0.044407	-0.460607	0.886492
51671	5.305316	-0.634325	8.906188	-0.024019	-0.156896	0.058423	-0.150656	0.873289	0.463323	-0.987597	-0.153916	-0.031026	0.044218	-0.462251	0.885646
51672	5.253288	-0.462988	9.031462	0.002964	0.006196	0.032786	-0.151027	0.873263	0.463252	-0.987540	-0.154249	-0.031182	0.044226	-0.462189	0.885678
51673	4.971739	-0.471649	9.077651	-0.032666	-0.016525	0.023270	-0.150795	0.873114	0.463609	-0.987597	-0.153803	-0.031573	0.043738	-0.462620	0.885477
51674	5.155496	-0.357281	8.940530	-0.013787	-0.017359	0.014546	-0.150974	0.873007	0.463752	-0.987575	-0.153899	-0.031793	0.043615	-0.462790	0.885394
51675	5.069465	-0.353194	8.957504	-0.024635	0.014668	0.006306	-0.150590	0.873027	0.463838	-0.987654	-0.153343	-0.032034	0.043160	-0.462935	0.885341
51676	5.024824	-0.309154	8.931147	-0.022605	0.011318	0.003893	-0.150676	0.873070	0.463731	-0.987652	-0.153304	-0.032283	0.042906	-0.462869	0.885388
51677	5.002157	-0.264601	9.047355	-0.020663	0.003324	0.001897	-0.150244	0.873045	0.463918	-0.987735	-0.152728	-0.032468	0.042507	-0.463106	0.885283
51678	5.027516	-0.328036	8.989366	-0.029746	0.000075	0.000425	-0.150290	0.873040	0.463912	-0.987741	-0.152626	-0.032764	0.042200	-0.463149	0.885275
51679	4.985208	-0.346920	9.029238	-0.033736	0.012247	-0.003049	-0.149815	0.873064	0.464021	-0.987836	-0.151948	-0.033042	0.041659	-0.463327	0.885208
51680	4.946915	-0.404164	8.997462	-0.041866	-0.004770	-0.001495	-0.149840	0.873040	0.464058	-0.987850	-0.151771	-0.033437	0.041239	-0.463430	0.885173
51681	4.963727	-0.330767	9.015395	-0.043427	-0.007890	-0.001510	-0.149372	0.872968	0.464344	-0.987946	-0.151064	-0.033807	0.040633	-0.463797	0.885009
51682	4.900291	-0.352109	9.045241	-0.058264	-0.012921	-0.005505	-0.149354	0.872912	0.464455	-0.987972	-0.150775	-0.034328	0.040063	-0.463996	0.884931
51683	4.982970	-0.397219	8.977555	-0.067575	-0.028550	-0.005882	-0.148838	0.872750	0.464925	-0.988082	-0.149919	-0.034892	0.039249	-0.464577	0.884662
51684	4.897673	-0.398266	9.127074	-0.083248	-0.013607	-0.013436	-0.148741	0.872703	0.465045	-0.988129	-0.149445	-0.035597	0.038433	-0.464819	0.884571
51685	4.837860	-0.375229	9.147291	-0.110018	-0.045419	-0.020431	-0.148077	0.872483	0.465667	-0.988275	-0.148265	-0.036467	0.037225	-0.465607	0.884208
51686	4.729690	-0.342280	9.224410	-0.135921	-0.046385	-0.031634	-0.147788	0.872310	0.466084	-0.988366	-0.147385	-0.037553	0.035936	-0.466212	0.883943
51687	4.413578	0.178140	9.656104	-0.193332	-0.126780	-0.041799	-0.146890	0.871740	0.467432	-0.988567	-0.145632	-0.039058	0.034025	-0.467825	0.883166
51688	5.114126	-0.438126	8.777951	-0.285872	-0.266950	-0.023847	-0.146606	0.870518	0.469792	-0.988691	-0.144112	-0.041500	0.031576	-0.470564	0.881801
51689	4.879569	-0.121297	9.243827	-0.196890	-0.139150	-0.006999	-0.146060	0.869832	0.471230	-0.988831	-0.142642	-0.043194	0.029646	-0.472276	0.880952
51690	4.825697	-0.287356	9.096883	-0.277240	-0.276001	0.012838	-0.146148	0.868503	0.473649	-0.988886	-0.141468	-0.045726	0.027293	-0.475068	0.879526
51691	5.405394	-0.484745	8.748509	-0.247111	-0.255840	0.010621	-0.145756	0.867228	0.476099	-0.989004	-0.139905	-0.047938	0.025035	-0.477851	0.878084
51692	5.004306	-0.484812	8.938398	-0.255368	-0.179775	0.005788	-0.145809	0.866356	0.477669	-0.989051	-0.138760	-0.050238	0.022757	-0.479764	0.877102
51693	5.084163	-0.454190	8.967778	-0.256622	-0.239900	0.012084	-0.145448	0.865143	0.479971	-0.989156	-0.137151	-0.052535	0.020378	-0.482407	0.875710
51694	5.290813	-0.512908	8.608815	-0.246701	-0.222898	0.009440	-0.145537	0.864049	0.481911	-0.989185	-0.136066	-0.054771	0.018247	-0.484670	0.874506
51695	5.266738	-0.467977	8.701693	-0.253249	-0.189903	0.011807	-0.145194	0.863068	0.483769	-0.989277	-0.134459	-0.057030	0.015826	-0.486862	0.873336
51696	5.203569	-0.505432	8.900781	-0.245180	-0.183042	0.018982	-0.145392	0.862146	0.485351	-0.989280	-0.133453	-0.059294	0.013651	-0.488769	0.872307
51697	5.115847	-0.564209	8.961189	-0.263135	-0.195648	0.015110	-0.145092	0.861124	0.487250	-0.989356	-0.131814	-0.061650	0.011138	-0.491009	0.871083
51698	5.158929	-0.623892	8.884918	-0.271470	-0.213956	0.018098	-0.145287	0.860044	0.489097	-0.989351	-0.130659	-0.064133	0.008748	-0.493206	0.869868
51699	4.997614	-0.629234	9.144195	-0.284849	-0.206252	0.015095	-0.144998	0.858961	0.491082	-0.989414	-0.128903	-0.066671	0.006034	-0.495550	0.868559
51700	5.012167	-0.604987	9.146374	-0.299575	-0.264909	0.018310	-0.145204	0.857618	0.493363	-0.989396	-0.127596	-0.069392	0.003439	-0.498208	0.867051
51701	4.887475	-0.607247	9.465958	-0.308919	-0.277770	0.009798	-0.144878	0.856173	0.495961	-0.989449	-0.125663	-0.072104	0.000590	-0.501175	0.865346
51702	4.651480	-0.455293	9.456122	-0.315748	-0.348869	0.012048	-0.145037	0.854400	0.498963	-0.989424	-0.124202	-0.074925	-0.002044	-0.504553	0.863378
51703	4.741207	-0.398174	9.362559	-0.306210	-0.479709	0.025851	-0.144901	0.851892	0.503273	-0.989436	-0.122405	-0.077681	-0.004572	-0.509212	0.860629
51704	4.671378	-0.291399	9.590353	-0.255543	-0.535697	0.046165	-0.145424	0.849092	0.507834	-0.989349	-0.121513	-0.080142	-0.006339	-0.514080	0.857719
51705	4.190268	-0.363592	9.849403	-0.245684	-0.665215	0.076582	-0.145834	0.845514	0.513653	-0.989277	-0.120437	-0.082621	-0.007994	-0.520194	0.854011
51706	4.189609	-0.403765	9.894180	-0.242081	-0.917065	0.104404	-0.146980	0.840577	0.521370	-0.989098	-0.120071	-0.085255	-0.009062	-0.528217	0.849061
51707	3.992488	-0.471864	10.045298	-0.211736	-1.056653	0.115156	-0.147844	0.834763	0.530389	-0.988962	-0.119471	-0.087637	-0.009789	-0.537492	0.843212
51708	3.784167	-0.308293	10.050545	-0.194598	-1.287545	0.118451	-0.149177	0.827627	0.541091	-0.988762	-0.119420	-0.089938	-0.009818	-0.548427	0.836141
51709	3.337779	0.111673	10.072349	-0.215174	-1.496881	0.106735	-0.150030	0.819149	0.553612	-0.988632	-0.118694	-0.092296	-0.009894	-0.561166	0.827644
51710	2.502900	0.483143	10.245179	-0.294228	-1.869136	0.087345	-0.151114	0.808407	0.568895	-0.988466	-0.117750	-0.095239	-0.010004	-0.576725	0.816877
51711	2.734552	0.604793	10.047592	-0.312476	-2.434066	0.126354	-0.152289	0.793930	0.588628	-0.988290	-0.116555	-0.098482	-0.009581	-0.596733	0.802383
51712	2.828852	-0.312988	10.187553	-0.350999	-2.925716	0.142740	-0.154000	0.775959	0.611695	-0.988034	-0.115557	-0.102158	-0.008585	-0.620108	0.784469
51713	2.278432	-1.199063	10.595774	-0.139704	-3.417391	0.102345	-0.154971	0.754148	0.638158	-0.987907	-0.115121	-0.103859	-0.004859	-0.646536	0.762868
51714	2.203146	-1.652938	10.849512	-0.014935	-4.204928	0.103903	-0.156102	0.726179	0.669549	-0.987740	-0.115806	-0.104686	0.001518	-0.677682	0.735354
51715	3.108688	-2.123949	10.739267	0.122059	-4.911955	0.143798	-0.157021	0.691814	0.704796	-0.987542	-0.117396	-0.104780	0.010252	-0.712468	0.701629
51716	3.776215	-1.705210	10.892532	0.243907	-5.689465	0.181205	-0.157938	0.649971	0.743366	-0.987213	-0.120407	-0.104467	0.021606	-0.750360	0.660676
51717	5.940459	-0.963115	11.901093	0.235758	-6.670545	0.279739	-0.158678	0.598128	0.785534	-0.986733	-0.123747	-0.105096	0.034347	-0.791789	0.609829
51718	11.655587	-0.075638	14.575102	-0.086261	-7.346412	0.320699	-0.158956	0.537993	0.827826	-0.986253	-0.124874	-0.108222	0.045151	-0.833648	0.550447
51719	19.725731	-1.301325	17.807000	-0.668897	-7.427171	0.379121	-0.159048	0.474111	0.865981	-0.985992	-0.120914	-0.114891	0.050238	-0.872123	0.486700
51720	22.591758	-4.535795	16.586324	-0.385734	-6.359442	0.197240	-0.157632	0.417473	0.894912	-0.985881	-0.118373	-0.118435	0.056489	-0.900946	0.430238
51721	14.646268	-3.402139	14.853753	0.131649	-5.867423	-0.025059	-0.153700	0.363923	0.918660	-0.985856	-0.119349	-0.117663	0.066821	-0.923751	0.377119
51722	11.473650	-3.841702	16.032311	0.433774	-5.876328	-0.231046	-0.147142	0.309334	0.939501	-0.985881	-0.122616	-0.114034	0.079924	-0.943015	0.323009
51723	8.507490	-4.295928	15.100551	0.910210	-5.660671	-0.251694	-0.139633	0.255827	0.956585	-0.985442	-0.130526	-0.108938	0.096990	-0.957870	0.270329
51724	4.049710	-3.099883	14.512063	1.348735	-5.340603	-0.121372	-0.132741	0.204542	0.969816	-0.984157	-0.143231	-0.104496	0.117534	-0.968322	0.220314
51725	-3.937579	-2.694548	12.811793	1.305585	-5.005427	-0.073475	-0.125669	0.156026	0.979726	-0.982577	-0.155884	-0.101209	0.136933	-0.975375	0.172897
51726	-10.895308	2.892669	12.116248	1.848570	-4.637008	-0.620396	-0.112712	0.111730	0.987326	-0.980564	-0.173105	-0.092351	0.160593	-0.978545	0.129070
51727	15.052266	0.200631	22.742855	-0.955644	-7.541436	-0.745687	-0.093356	0.038962	0.994870	-0.982822	-0.163382	-0.085827	0.159200	-0.985793	0.053546
51728	25.757583	-7.195412	14.846262	1.666704	-2.182150	-1.089450	-0.079018	0.019336	0.996686	-0.980956	-0.179462	-0.074290	0.177431	-0.983575	0.033149
51729	11.756187	-7.000658	9.713136	2.248508	1.385936	-2.053739	-0.061553	0.037006	0.997418	-0.978091	-0.201349	-0.052890	0.198871	-0.978820	0.048589
51730	9.776139	6.233302	18.347300	3.021125	3.883357	-2.889533	-0.041647	0.081070	0.995838	-0.973159	-0.229075	-0.022050	0.226334	-0.970027	0.088435
51731	2.997593	1.657050	15.012917	-0.464336	4.911607	-1.823816	-0.034960	0.132970	0.990503	-0.974774	-0.223149	-0.004448	0.220439	-0.965672	0.137417
51732	-1.038816	-5.941573	6.854627	0.111423	4.939737	-1.963555	-0.026727	0.184839	0.982405	-0.975137	-0.221090	0.015069	0.219985	-0.957577	0.186152
51733	-2.100336	-1.446328	5.813826	0.309659	4.924016	-2.083822	-0.017503	0.236599	0.971450	-0.974774	-0.220260	0.036082	0.222508	-0.946312	0.234485
51734	-2.973443	-4.359576	1.810896	-0.831955	4.557766	-1.804476	-0.009870	0.283365	0.958961	-0.976839	-0.207729	0.051328	0.213749	-0.936244	0.278852
51735	-3.393364	-5.352843	0.438127	-0.644864	4.112284	-1.718893	-0.002016	0.325410	0.945571	-0.978169	-0.197134	0.065756	0.207802	-0.924795	0.318703
51736	-2.661751	-4.820120	1.582960	-0.911008	3.337942	-1.510150	0.005946	0.358991	0.933322	-0.979995	-0.183582	0.076856	0.198932	-0.915108	0.350718
51737	0.711729	-4.465822	3.838534	-1.136086	2.761002	-1.132264	0.011361	0.386439	0.922245	-0.981986	-0.169657	0.083186	0.188611	-0.906577	0.377551
51738	3.617317	-4.614760	6.221635	-1.498045	2.576093	-0.613309	0.012682	0.410682	0.911690	-0.984633	-0.153690	0.082928	0.174175	-0.898732	0.402422
51739	7.430093	-5.903001	7.839748	-1.730847	2.569855	-0.017176	0.008182	0.433999	0.900876	-0.987411	-0.138810	0.075840	0.157965	-0.890155	0.427400
51740	9.614753	-7.045907	8.017243	-1.505422	3.163997	0.498570	-0.001549	0.461307	0.887239	-0.989697	-0.127735	0.064686	0.143172	-0.877997	0.456752
51741	9.046095	-7.175783	7.520125	-1.106527	3.710874	0.949858	-0.016542	0.492684	0.870051	-0.991051	-0.123353	0.051009	0.132454	-0.861421	0.490315
51742	8.412228	-6.201171	6.904545	-0.718495	3.957642	1.385462	-0.035397	0.524682	0.850562	-0.991615	-0.124287	0.035401	0.124288	-0.842177	0.524682
51743	7.760453	-4.561817	6.985416	-0.380103	4.069564	1.666711	-0.057413	0.556643	0.828766	-0.991212	-0.130874	0.019236	0.119171	-0.820378	0.559265
51744	7.399461	-2.705395	7.451532	-0.205849	4.059828	1.752408	-0.079557	0.587118	0.805582	-0.990251	-0.139242	0.003688	0.114336	-0.797436	0.592473
51745	7.525499	-1.181960	8.038227	-0.197583	3.977016	1.670637	-0.101126	0.616163	0.781100	-0.988853	-0.148498	-0.010882	0.109287	-0.773493	0.624312
51746	7.936681	0.004624	8.914646	-0.242575	3.929403	1.440191	-0.119562	0.643887	0.755721	-0.987517	-0.155740	-0.023541	0.102539	-0.749102	0.654471
51747	8.639250	-0.119809	9.752884	-0.388858	3.926753	1.161946	-0.135526	0.671125	0.728851	-0.986290	-0.161294	-0.034876	0.094153	-0.723585	0.683784
51748	9.546406	-0.467108	10.402299	-0.310781	4.057866	0.828728	-0.147379	0.698583	0.700187	-0.985392	-0.164782	-0.043007	0.085334	-0.696297	0.712663
51749	10.011087	-0.182639	10.971075	-0.245372	4.243354	0.499598	-0.156415	0.726787	0.668816	-0.984694	-0.167460	-0.048314	0.076886	-0.666137	0.741856
51750	10.380149	0.411149	11.256145	-0.234616	4.427325	0.193158	-0.161555	0.755238	0.635229	-0.984551	-0.167388	-0.051385	0.067522	-0.633717	0.770613
51751	10.194818	1.033330	11.025689	-0.351882	4.580181	-0.073864	-0.164377	0.783680	0.599021	-0.984752	-0.165437	-0.053789	0.056947	-0.598729	0.798925
51752	9.879144	1.508372	10.449645	-0.558996	4.617889	-0.298716	-0.163803	0.810986	0.561668	-0.985518	-0.159834	-0.056631	0.043847	-0.562810	0.825422
51753	9.547421	1.321988	10.020808	-0.821904	4.555522	-0.493656	-0.161295	0.836629	0.523485	-0.986491	-0.152062	-0.060932	0.028625	-0.526241	0.849853
51754	9.321973	0.775354	9.781890	-1.018344	4.421929	-0.680668	-0.155505	0.860100	0.485846	-0.987768	-0.141139	-0.066294	0.011552	-0.490212	0.871527
51755	9.394023	0.425532	10.039797	-1.170951	4.253927	-0.855208	-0.147866	0.881394	0.448642	-0.988988	-0.128906	-0.072710	-0.006254	-0.454453	0.890749
51756	9.682352	0.307731	10.198921	-1.289830	4.125238	-1.005891	-0.137309	0.900639	0.412305	-0.990215	-0.114339	-0.080008	-0.024916	-0.419257	0.907526
51757	9.939050	0.000689	10.111486	-1.404551	4.000487	-1.124139	-0.125471	0.917943	0.376348	-0.991124	-0.099181	-0.088521	-0.043931	-0.384114	0.922240
51758	10.261751	-0.246289	9.994436	-1.505881	3.866610	-1.176628	-0.111769	0.933201	0.341532	-0.991706	-0.082798	-0.098308	-0.063463	-0.349687	0.934715
51759	10.401635	-0.099706	10.012851	-1.604500	3.698968	-1.179949	-0.097982	0.946422	0.307708	-0.991708	-0.067019	-0.109656	-0.083159	-0.315900	0.945141
51760	10.588252	-0.008154	9.970452	-1.727894	3.491720	-1.105271	-0.083807	0.957545	0.275834	-0.991095	-0.051352	-0.122858	-0.103478	-0.283674	0.953321
51761	10.735242	-0.006628	9.705959	-1.820929	3.250070	-0.970117	-0.071061	0.966722	0.245761	-0.989737	-0.037711	-0.137839	-0.123984	-0.253034	0.959480
51762	8.159091	-3.745591	10.984513	-1.887595	2.989937	-0.742845	-0.059742	0.974100	0.218081	-0.987683	-0.026033	-0.154290	-0.144616	-0.224613	0.963657
51763	10.256155	-0.025598	4.535740	-0.013994	1.132667	-1.143452	-0.047295	0.976839	0.208686	-0.988249	-0.015358	-0.152077	-0.145350	-0.213426	0.966086
51764	18.699562	3.259203	7.118267	-1.948838	2.002592	-0.040404	-0.043826	0.980925	0.189382	-0.985235	-0.011033	-0.170853	-0.165505	-0.194073	0.966925
51765	12.358626	-3.344025	4.012395	-0.672910	1.801800	-0.450511	-0.036695	0.984314	0.172568	-0.984261	-0.005726	-0.176630	-0.172871	-0.176333	0.969032
51766	15.386524	3.229518	4.843001	-0.539982	1.450297	-0.307445	-0.031163	0.986780	0.159040	-0.983412	-0.001825	-0.181375	-0.178687	-0.162054	0.970469
51767	12.101683	-2.137874	2.462853	-0.977527	1.336057	0.029460	-0.029216	0.988864	0.145924	-0.981595	-0.000820	-0.190975	-0.188728	-0.148818	0.970688
51768	12.909220	-0.167512	3.221972	-0.434421	0.776964	0.075237	-0.028514	0.989991	0.138222	-0.980740	-0.000977	-0.195316	-0.193226	-0.141129	0.970951
51769	12.210024	-0.859744	3.034541	-0.455991	0.484435	0.332922	-0.030925	0.990657	0.132825	-0.979737	-0.003734	-0.200255	-0.197888	-0.136327	0.970699
51770	11.889179	-1.037586	3.074773	-0.394511	0.114351	0.611525	-0.036727	0.990773	0.130462	-0.978738	-0.009300	-0.204905	-0.201801	-0.135214	0.970048
51771	11.303456	-1.515316	3.036985	-0.200421	-0.242187	0.903189	-0.046032	0.990318	0.130965	-0.977947	-0.017939	-0.208083	-0.203719	-0.137655	0.969304
51772	10.876833	-1.841863	3.153533	0.068491	-0.596169	1.188181	-0.058904	0.989195	0.134249	-0.977458	-0.029839	-0.209011	-0.202747	-0.143534	0.968654
51773	10.435574	-1.567466	3.283639	0.412244	-0.905321	1.424481	-0.074514	0.987326	0.140123	-0.977328	-0.044378	-0.207026	-0.198184	-0.152373	0.968249
51774	9.346987	-1.394457	3.254958	0.858981	-1.200849	1.589138	-0.092415	0.984586	0.148494	-0.977658	-0.061447	-0.201020	-0.188797	-0.163753	0.968267
51775	7.993640	0.308947	3.484029	1.218254	-1.432060	1.702684	-0.111457	0.980946	0.159130	-0.978148	-0.080009	-0.191897	-0.175509	-0.177041	0.968428
51776	6.957903	2.006338	4.119465	1.488771	-1.652584	1.758676	-0.131470	0.976312	0.171847	-0.978495	-0.100009	-0.180407	-0.158947	-0.191870	0.968464
51777	5.597381	4.042107	4.902562	1.582745	-1.734873	1.731617	-0.150736	0.970962	0.185772	-0.978451	-0.119712	-0.168233	-0.141108	-0.207127	0.968084
51778	4.134522	5.696578	5.297219	1.543674	-1.841855	1.655652	-0.169408	0.964854	0.200893	-0.977831	-0.139098	-0.156517	-0.123072	-0.222955	0.967029
51779	2.888614	5.777028	3.549607	1.489356	-1.963903	1.483313	-0.185836	0.958141	0.217789	-0.976941	-0.156459	-0.145281	-0.105124	-0.239765	0.965123
51780	1.768608	3.685051	1.007268	1.664240	-2.137417	1.009946	-0.197773	0.951170	0.236982	-0.976575	-0.170278	-0.131557	-0.084780	-0.257449	0.962566
51781	4.971318	5.313547	0.445537	2.465188	-2.908250	0.080016	-0.200268	0.943226	0.264985	-0.978196	-0.177318	-0.108121	-0.054996	-0.280861	0.958172
51782	10.908639	11.150172	-2.148393	2.989790	-3.156330	-0.981205	-0.191872	0.935707	0.296036	-0.981226	-0.176899	-0.076831	-0.019523	-0.305219	0.952082
51783	0.857397	21.205620	12.065048	2.844200	-1.574527	-2.577719	-0.166191	0.935188	0.312736	-0.986030	-0.161192	-0.041965	0.011166	-0.315341	0.948913
51784	8.839581	19.625763	24.368642	-0.537956	-4.298734	-0.143450	-0.164300	0.920978	0.353277	-0.986325	-0.158091	-0.046579	0.012951	-0.356099	0.934358
51785	43.711474	-30.781121	37.979358	-2.936868	-7.571736	1.092490	-0.174337	0.889493	0.422384	-0.984681	-0.156060	-0.077779	-0.003267	-0.429473	0.903074
51786	35.467828	-10.396492	-2.912030	6.621355	1.282831	-1.500011	-0.159962	0.897306	0.411404	-0.985309	-0.170397	-0.011457	0.059821	-0.407193	0.911381
51787	-14.569800	26.204437	10.486493	3.189955	3.796060	-2.259266	-0.139798	0.915738	0.376670	-0.986494	-0.161601	0.026746	0.085363	-0.367843	0.925961
51788	1.236872	15.160596	25.038418	-2.324744	-5.764474	1.276543	-0.147938	0.890832	0.429572	-0.986466	-0.163965	0.000303	0.070705	-0.423714	0.903032
51789	13.579172	-8.675933	-1.350351	-1.620642	-2.594710	1.643834	-0.161960	0.876713	0.452928	-0.985056	-0.170891	-0.021454	0.058592	-0.449634	0.891289
51790	10.120927	-5.737212	9.381933	0.358850	0.687766	-0.688000	-0.155632	0.880938	0.446908	-0.985928	-0.166477	-0.015185	0.061023	-0.442983	0.894451
51791	5.450327	9.518593	13.072575	3.358751	0.404240	-0.653085	-0.148929	0.883781	0.443566	-0.984437	-0.174832	0.017814	0.093293	-0.434010	0.896065
51792	4.060162	2.815991	9.888834	-2.347712	-0.492506	0.533671	-0.153823	0.880699	0.448004	-0.985552	-0.169283	-0.005610	0.070899	-0.442393	0.894014
51793	6.453449	-5.167304	8.283407	-1.422535	-0.525574	0.396340	-0.156824	0.877649	0.452922	-0.985951	-0.165825	-0.020059	0.057501	-0.449704	0.891325
51794	5.358023	-1.039157	8.571355	1.092143	0.286140	-0.034516	-0.156704	0.878983	0.450370	-0.985315	-0.170439	-0.010190	0.067804	-0.445354	0.892784
51795	3.974662	1.214405	10.475972	-0.062154	0.069062	0.044016	-0.156609	0.879173	0.450031	-0.985394	-0.169942	-0.010917	0.066881	-0.445168	0.892946
51796	4.920466	-0.961293	8.843910	-0.223132	-0.291543	0.110009	-0.157541	0.877679	0.452615	-0.985363	-0.169941	-0.013435	0.065126	-0.448107	0.891605
51797	5.495659	-0.571405	8.846223	0.048441	-0.050684	0.038747	-0.157324	0.877344	0.453339	-0.985374	-0.169900	-0.013152	0.065484	-0.448778	0.891241
51798	4.616088	-0.007886	9.316854	-0.008067	0.005908	0.039998	-0.157762	0.877297	0.453278	-0.985310	-0.170243	-0.013436	0.065380	-0.448739	0.891268
51799	5.063301	-0.300047	9.107139	-0.031433	-0.122594	0.038224	-0.157495	0.876639	0.454641	-0.985374	-0.169841	-0.013863	0.065063	-0.450175	0.890567
51800	5.226668	0.021887	9.013852	0.023501	-0.037552	0.015049	-0.157658	0.876439	0.454970	-0.985330	-0.170106	-0.013753	0.065340	-0.450464	0.890400
51801	4.982345	-0.035485	9.165376	-0.026231	-0.001594	0.013679	-0.157230	0.876367	0.455258	-0.985428	-0.169512	-0.014023	0.064882	-0.450829	0.890249
51802	5.025153	-0.098113	9.006365	-0.017746	-0.025472	0.010140	-0.157351	0.876229	0.455480	-0.985419	-0.169548	-0.014258	0.064733	-0.451082	0.890132
51803	5.059320	0.054740	9.038507	-0.023124	0.002273	0.006064	-0.156853	0.876187	0.455734	-0.985526	-0.168903	-0.014465	0.064301	-0.451407	0.889998
51804	4.898478	-0.087213	9.056537	-0.043847	0.004092	0.007964	-0.156972	0.876187	0.455693	-0.985537	-0.168802	-0.014922	0.063847	-0.451445	0.890012
51805	4.870363	-0.212201	9.071990	-0.048264	-0.004606	0.014273	-0.156553	0.876099	0.456006	-0.985647	-0.168118	-0.015391	0.063179	-0.451870	0.889844
51806	4.836395	-0.199551	9.025879	-0.035472	-0.011050	0.012840	-0.156710	0.876023	0.456099	-0.985644	-0.168096	-0.015795	0.062831	-0.452027	0.889789
51807	4.868499	-0.232107	9.017313	-0.050126	-0.020107	0.015563	-0.156297	0.875863	0.456547	-0.985752	-0.167417	-0.016286	0.062169	-0.452588	0.889550
51808	4.766547	-0.196484	9.071342	-0.056740	-0.019895	0.017343	-0.156493	0.875739	0.456719	-0.985755	-0.167338	-0.016901	0.061626	-0.452858	0.889451
51809	4.844971	-0.167977	9.012271	-0.058369	-0.051193	0.017228	-0.156082	0.875435	0.457441	-0.985863	-0.166640	-0.017473	0.060932	-0.453701	0.889068
51810	4.866354	-0.096190	9.026229	-0.049111	-0.054278	0.017846	-0.156261	0.875154	0.457918	-0.985860	-0.166598	-0.018022	0.060517	-0.454259	0.888812
51811	4.940533	-0.075659	9.046263	-0.061698	-0.065162	0.018050	-0.155854	0.874784	0.458761	-0.985968	-0.165894	-0.018627	0.059812	-0.455227	0.888364
51812	4.855415	-0.170351	9.078912	-0.064262	-0.059175	0.015339	-0.156006	0.874484	0.459282	-0.985977	-0.165760	-0.019299	0.059254	-0.455852	0.888081
51813	4.889378	-0.192501	9.009259	-0.080371	-0.079231	0.017375	-0.155589	0.874050	0.460248	-0.986095	-0.164967	-0.020066	0.058387	-0.456970	0.887564
51814	4.860547	-0.156562	9.088751	-0.071844	-0.074920	0.013926	-0.155718	0.873680	0.460908	-0.986110	-0.164784	-0.020798	0.057779	-0.457745	0.887204
51815	4.921986	-0.302889	9.029564	-0.090370	-0.095331	0.012389	-0.155247	0.873178	0.462015	-0.986239	-0.163904	-0.021631	0.056838	-0.459015	0.886608
51816	4.934365	-0.300662	9.078232	-0.086543	-0.085554	0.001180	-0.155245	0.872778	0.462771	-0.986282	-0.163539	-0.022434	0.056101	-0.459905	0.886194
51817	5.002287	-0.303543	8.989847	-0.098177	-0.080511	-0.011023	-0.154558	0.872381	0.463749	-0.986448	-0.162420	-0.023227	0.055059	-0.461054	0.885662
51818	5.017113	-0.230099	9.024672	-0.111351	-0.077778	-0.015465	-0.154397	0.872042	0.464440	-0.986529	-0.161793	-0.024172	0.054064	-0.461915	0.885275
51819	5.017071	-0.272046	9.105592	-0.114909	-0.075202	-0.021119	-0.153618	0.871683	0.465371	-0.986716	-0.160508	-0.025065	0.052848	-0.463039	0.884761
51820	5.000834	-0.283103	9.092608	-0.139622	-0.063525	-0.030290	-0.153319	0.871432	0.465939	-0.986831	-0.159619	-0.026189	0.051551	-0.463818	0.884429
51821	4.834579	-0.255618	9.251666	-0.176241	-0.069377	-0.058748	-0.152177	0.871157	0.466827	-0.987102	-0.157722	-0.027447	0.049718	-0.464982	0.883923
51822	4.595156	0.274346	9.164413	-0.148657	-0.118383	-0.032799	-0.151828	0.870653	0.467880	-0.987221	-0.156766	-0.028638	0.048414	-0.466249	0.883328
51823	5.105873	-0.177312	9.073965	-0.212934	-0.230553	-0.001336	-0.151185	0.869530	0.470171	-0.987413	-0.155198	-0.030484	0.046463	-0.468862	0.882049
51824	5.334644	-0.265739	8.735810	-0.161547	-0.137508	-0.006805	-0.151087	0.868890	0.471384	-0.987493	-0.154401	-0.031907	0.045058	-0.470309	0.881351
51825	4.790114	-0.183428	9.260528	-0.233129	-0.128692	0.000370	-0.150515	0.868235	0.472772	-0.987683	-0.152745	-0.033934	0.042750	-0.472056	0.880531
51826	5.013480	-0.323879	9.199297	-0.245988	-0.195596	0.001244	-0.150478	0.867303	0.474491	-0.987779	-0.151612	-0.036136	0.040598	-0.474130	0.879518
51827	4.875023	-0.367994	9.184669	-0.300942	-0.166161	-0.004275	-0.149858	0.866471	0.476204	-0.987989	-0.149588	-0.038732	0.037674	-0.476289	0.878481
51828	4.931983	-0.318848	9.201445	-0.329267	-0.210299	-0.011763	-0.149698	0.865480	0.478054	-0.988122	-0.147934	-0.041598	0.034719	-0.478603	0.877345
51829	4.830491	-0.131782	9.419424	-0.382336	-0.222349	-0.011339	-0.149006	0.864380	0.480255	-0.988348	-0.145449	-0.044865	0.031072	-0.481345	0.875981
51830	4.753623	-0.303939	9.472248	-0.455304	-0.279687	-0.013652	-0.148821	0.863044	0.482708	-0.988496	-0.143151	-0.048815	0.026970	-0.484420	0.874420
51831	4.749092	-0.223066	9.605589	-0.498531	-0.344147	-0.008255	-0.148157	0.861331	0.485961	-0.988711	-0.140109	-0.053098	0.022353	-0.488342	0.872366
51832	4.805068	-0.318839	9.468747	-0.581767	-0.421675	-0.013894	-0.147967	0.859277	0.489641	-0.988843	-0.137154	-0.058130	0.017207	-0.492779	0.869984
51833	4.786318	-0.456205	9.542057	-0.618891	-0.462232	-0.023540	-0.147180	0.856968	0.493907	-0.989042	-0.133348	-0.063356	0.011567	-0.497819	0.867204
51834	4.518518	-0.413796	9.592228	-0.562522	-0.554895	-0.018466	-0.146977	0.854210	0.498721	-0.989117	-0.130391	-0.068165	0.006801	-0.503312	0.864078
51835	4.477440	-0.364917	9.693415	-0.448233	-0.694958	0.000075	-0.146468	0.850635	0.504942	-0.989210	-0.127592	-0.071995	0.003185	-0.510039	0.860145
51836	4.056665	-0.312448	10.175190	-0.327484	-0.824392	0.035310	-0.146830	0.846351	0.511987	-0.989161	-0.126226	-0.075016	0.001136	-0.517453	0.855711
51837	3.635119	-0.175786	10.139530	-0.224615	-1.113256	0.070588	-0.147064	0.840391	0.521646	-0.989127	-0.125136	-0.077260	0.000348	-0.527336	0.849657
51838	3.528638	-0.212786	10.329874	-0.267828	-1.362788	0.092226	-0.148006	0.833005	0.533101	-0.988986	-0.124494	-0.080043	-0.000309	-0.539076	0.842257
51839	2.964864	-0.274636	10.209142	-0.203368	-1.691341	0.088251	-0.148455	0.823599	0.547400	-0.988919	-0.123630	-0.082186	-0.000014	-0.553535	0.832826
51840	2.266120	-0.271690	10.324501	-0.220098	-2.059138	0.006155	-0.148537	0.812012	0.564423	-0.988907	-0.122456	-0.084073	0.000849	-0.570649	0.821193
51841	1.937888	-0.488289	9.941058	-0.116839	-2.602106	-0.080026	-0.147305	0.796923	0.585845	-0.989085	-0.120687	-0.084526	0.003343	-0.591902	0.806003
51842	2.727556	-0.626115	9.889870	-0.025380	-3.222670	-0.145430	-0.145716	0.777607	0.611632	-0.989296	-0.119400	-0.083890	0.007795	-0.617309	0.786682
51843	3.047269	-1.208822	9.188480	0.218487	-3.741236	-0.213476	-0.142836	0.754164	0.640963	-0.989630	-0.118742	-0.080822	0.015156	-0.645861	0.763304
51844	3.704868	-0.996216	9.779753	0.547264	-4.451738	-0.203570	-0.139914	0.724928	0.674465	-0.989800	-0.120868	-0.075418	0.026849	-0.678137	0.734445
51845	4.780979	-1.022852	10.699264	0.583333	-4.929430	-0.147913	-0.136531	0.690755	0.710082	-0.989859	-0.123513	-0.070173	0.039232	-0.712462	0.700613
51846	4.562130	-1.209623	11.081675	0.625435	-5.374586	-0.094419	-0.133154	0.651619	0.746768	-0.989696	-0.127452	-0.065258	0.052654	-0.747763	0.661875
51847	6.861912	-1.225665	11.534998	0.515852	-6.237277	0.055365	-0.129774	0.603611	0.786647	-0.989361	-0.131441	-0.062359	0.065757	-0.786370	0.614246
51848	11.660461	-0.350028	12.540089	0.286975	-6.601708	0.108491	-0.126161	0.550283	0.825392	-0.989015	-0.134379	-0.061581	0.077028	-0.824094	0.561191
51849	18.195167	-1.584774	15.428774	-0.287902	-6.596082	0.130666	-0.122019	0.494499	0.860571	-0.989121	-0.132359	-0.064190	0.082163	-0.859041	0.505270
51850	19.566123	-5.378956	14.730754	0.016813	-5.568673	-0.069004	-0.116598	0.446007	0.887402	-0.989187	-0.132178	-0.063540	0.088956	-0.885216	0.456596
51851	14.922313	-3.997862	13.394102	0.729341	-5.061503	-0.349580	-0.108177	0.401065	0.909640	-0.988920	-0.136984	-0.057208	0.101662	-0.905750	0.411439
51852	11.052092	-5.114940	12.928004	1.129713	-4.980641	-0.563169	-0.097166	0.356301	0.929305	-0.988257	-0.145175	-0.047669	0.117928	-0.923024	0.366223
51853	8.196972	-5.613044	12.546991	1.630543	-4.755268	-0.669946	-0.084376	0.313030	0.945988	-0.986805	-0.157917	-0.035761	0.138194	-0.936522	0.322224
51854	5.344800	-4.827860	12.638834	1.967742	-4.637422	-0.624397	-0.071304	0.270384	0.960108	-0.984345	-0.174618	-0.023929	0.161182	-0.946784	0.278603
51855	3.011605	-4.011700	13.201463	1.859638	-4.443477	-0.604202	-0.057709	0.229204	0.971666	-0.981557	-0.190707	-0.013311	0.182252	-0.954514	0.235982
51856	-5.588160	-5.100001	11.807594	1.882851	-3.491291	-0.638328	-0.044763	0.197073	0.979366	-0.978264	-0.207342	-0.002990	0.202475	-0.958213	0.202071
51857	-5.718724	-0.372735	16.358072	1.690794	-4.946928	-1.062734	-0.023938	0.151831	0.988116	-0.975044	-0.221767	0.010454	0.220719	-0.963207	0.153351
51858	34.446576	-6.532637	19.112301	0.067946	-5.816696	-0.700083	-0.004252	0.097126	0.995263	-0.974996	-0.221536	0.017454	0.222182	-0.970303	0.095640
51859	28.417016	1.207102	11.236535	3.634600	3.608524	-2.632745	0.012574	0.138262	0.990316	-0.966120	-0.253652	0.047680	0.257788	-0.957363	0.130388
51860	0.497673	11.148791	24.523143	0.265498	5.051872	-1.648050	0.015358	0.190582	0.981551	-0.965206	-0.253458	0.064314	0.261039	-0.948387	0.180058
51861	3.964101	-5.474202	10.708067	-3.173600	3.555751	-0.598716	0.012282	0.225906	0.974072	-0.972855	-0.222433	0.063853	0.231090	-0.948415	0.217042
51862	-0.724082	-6.681439	6.143518	-0.579111	5.113674	-1.187905	0.012130	0.276705	0.960878	-0.974039	-0.213975	0.073915	0.226057	-0.936829	0.266926
51863	-5.365801	-3.163067	5.488216	-1.428832	4.320017	-1.080389	0.012980	0.319387	0.947535	-0.976961	-0.197830	0.080066	0.213023	-0.926744	0.309461
51864	-3.832721	-6.407490	3.279363	-2.024511	3.098881	-0.868316	0.015153	0.349625	0.936767	-0.980960	-0.176219	0.081637	0.193619	-0.920168	0.340298
51865	-1.855623	-4.391742	4.997742	-1.593728	2.865519	-0.792250	0.017332	0.377425	0.925878	-0.983730	-0.159176	0.083301	0.178818	-0.912257	0.368526
51866	-0.674995	-4.030755	5.580925	-1.915814	2.470345	-0.506747	0.018107	0.400632	0.916060	-0.986893	-0.139784	0.080641	0.160358	-0.905513	0.392849
51867	1.345621	-3.142860	7.088928	-1.972645	2.220775	-0.167581	0.016086	0.421120	0.906862	-0.989785	-0.121788	0.074112	0.141655	-0.898791	0.414859
51868	4.401002	-2.373372	9.393944	-2.246408	2.049373	0.209281	0.011305	0.439237	0.898300	-0.992752	-0.102563	0.062643	0.119647	-0.892498	0.434894
51869	7.472853	-2.328559	10.300922	-2.442516	2.349633	0.568751	0.002736	0.459827	0.888004	-0.995380	-0.083976	0.046551	0.095977	-0.884029	0.457473
51870	8.329051	-3.263944	9.601460	-2.407002	2.869405	0.820372	-0.007878	0.484407	0.874807	-0.997381	-0.066708	0.027956	0.071898	-0.872296	0.483664
51871	7.741849	-3.412696	8.694231	-2.114181	3.286706	0.973803	-0.020056	0.512490	0.858459	-0.998507	-0.053895	0.008846	0.050800	-0.857000	0.512806
51872	6.636304	-2.500771	8.276037	-1.831698	3.484706	1.098853	-0.032498	0.541513	0.840064	-0.998973	-0.044147	-0.010188	0.031569	-0.839533	0.542391
51873	6.658982	-1.589117	8.718083	-1.656660	3.489815	1.187987	-0.045665	0.570232	0.820214	-0.998857	-0.037659	-0.029429	0.014107	-0.820620	0.571300
51874	7.085429	-0.982544	8.946619	-1.484779	3.502481	1.191677	-0.057800	0.598208	0.799254	-0.998325	-0.032587	-0.047806	-0.002552	-0.800678	0.599090
51875	7.433655	-0.326893	9.042462	-1.334218	3.528055	1.120987	-0.069183	0.625947	0.776791	-0.997447	-0.029610	-0.064975	-0.017670	-0.779303	0.626398
51876	7.409123	-0.305230	8.845012	-1.188806	3.580753	0.980910	-0.078102	0.653174	0.753170	-0.996426	-0.026759	-0.080121	-0.032179	-0.756735	0.652929
51877	7.758471	-0.331778	8.542786	-0.974331	3.676275	0.770578	-0.084961	0.680536	0.727772	-0.995391	-0.025372	-0.092478	-0.044470	-0.732275	0.679555
51878	7.573807	-0.061459	8.278230	-0.745308	3.841976	0.545091	-0.088502	0.708030	0.700615	-0.994543	-0.023807	-0.101572	-0.055237	-0.705781	0.706273
51879	7.053179	0.603273	8.165393	-0.576019	3.980645	0.341923	-0.090149	0.735642	0.671345	-0.993860	-0.023030	-0.108221	-0.064151	-0.676979	0.733201
51880	6.809640	1.563163	8.321397	-0.579652	4.041249	0.185046	-0.089237	0.762354	0.640979	-0.993291	-0.020591	-0.113795	-0.073553	-0.646833	0.759077
51881	6.802118	2.015305	8.305243	-0.733471	4.079785	0.066628	-0.087326	0.788235	0.609147	-0.992622	-0.017218	-0.120020	-0.084116	-0.615134	0.783923
51882	7.001711	1.978339	8.225902	-0.913042	4.098041	-0.006914	-0.083585	0.812778	0.576546	-0.991798	-0.011711	-0.127277	-0.096696	-0.582456	0.807091
51883	7.155893	2.080537	8.187820	-1.047754	4.131194	-0.044505	-0.079522	0.836270	0.542520	-0.990725	-0.006150	-0.135740	-0.110179	-0.548283	0.829003
51884	7.059036	1.848569	8.094156	-1.169100	4.125540	-0.073156	-0.073980	0.858175	0.507998	-0.989402	0.000657	-0.145198	-0.124940	-0.513357	0.849032
51885	7.224661	1.704357	8.385308	-1.210390	4.081835	-0.113342	-0.068106	0.878510	0.472845	-0.987865	0.006929	-0.155162	-0.139588	-0.477674	0.867377
51886	7.886979	1.433323	8.836151	-1.214888	4.026560	-0.164539	-0.060600	0.897007	0.437842	-0.986181	0.013954	-0.165081	-0.154189	-0.441795	0.883766
51887	8.631738	1.267081	9.345768	-1.139280	4.015077	-0.212369	-0.052674	0.914067	0.402127	-0.984460	0.020022	-0.174465	-0.167524	-0.405068	0.898808
51888	9.483229	0.780084	9.592815	-1.040509	4.002519	-0.254930	-0.043250	0.929481	0.366325	-0.982771	0.026369	-0.182937	-0.179696	-0.367926	0.912327
51889	10.434776	0.564830	9.817839	-0.857878	3.984495	-0.258082	-0.033942	0.943393	0.329935	-0.981284	0.031153	-0.190027	-0.189549	-0.330210	0.924680
51890	11.238759	0.526236	9.581175	-0.712822	3.978284	-0.210921	-0.024203	0.955707	0.293324	-0.979961	0.035347	-0.196027	-0.197712	-0.292191	0.935700
51891	11.637349	0.547986	8.901665	-0.563394	3.895121	-0.126235	-0.015658	0.966365	0.256697	-0.978856	0.037551	-0.201072	-0.203948	-0.254418	0.945345
51892	12.188792	0.593883	7.998144	-0.487798	3.667693	0.005584	-0.008170	0.975045	0.221858	-0.977844	0.038620	-0.205740	-0.209174	-0.218624	0.953126
51893	12.639615	0.174234	6.840210	-0.395188	3.337297	0.159775	-0.003103	0.981892	0.189419	-0.977002	0.037409	-0.209923	-0.213208	-0.185714	0.959194
51894	13.203251	-0.482002	5.902066	-0.298187	2.860559	0.327628	-0.000196	0.986920	0.161213	-0.976353	0.034663	-0.213386	-0.216183	-0.157443	0.963575
51895	14.528187	-1.628083	4.965855	-0.131975	2.271243	0.494321	-0.000401	0.990419	0.138092	-0.976063	0.029646	-0.215460	-0.217489	-0.134873	0.966699
51896	16.026827	-2.704585	3.688652	0.164087	1.749300	0.660557	-0.003093	0.992802	0.119728	-0.976403	0.022855	-0.214743	-0.215933	-0.117567	0.969304
51897	17.012822	-2.512675	2.133242	0.543605	1.317019	0.800599	-0.008270	0.994420	0.105172	-0.977510	0.014124	-0.210417	-0.210729	-0.104547	0.971938
51898	14.106738	-2.990820	2.665180	0.691432	0.966196	1.020391	-0.016282	0.995473	0.093642	-0.978815	0.003248	-0.204722	-0.204099	-0.094992	0.974331
51899	13.422781	-3.571062	-3.269718	1.641384	-1.213831	1.045947	-0.028936	0.994217	0.103421	-0.981785	-0.008832	-0.189790	-0.187779	-0.107029	0.976362
51900	24.585557	2.634272	-0.195599	1.057747	-1.256440	1.732178	-0.048280	0.992481	0.112470	-0.983041	-0.027270	-0.181348	-0.176918	-0.119318	0.976966
51901	15.986905	-2.386490	-2.059131	1.746970	-1.449178	1.535075	-0.065663	0.990099	0.124066	-0.985099	-0.044515	-0.166127	-0.158959	-0.133125	0.978269
51902	18.475353	3.117169	-0.296593	1.801699	-2.113652	1.777811	-0.086380	0.986102	0.141920	-0.986432	-0.064694	-0.150884	-0.139606	-0.153027	0.978311
51903	14.701003	-2.306431	-0.949670	1.812838	-2.364449	1.925273	-0.108123	0.980774	0.162454	-0.986929	-0.086253	-0.136129	-0.119499	-0.175050	0.977281
51904	13.040175	-0.339427	1.278013	2.846883	-2.697959	1.758005	-0.128321	0.974014	0.186627	-0.987802	-0.108790	-0.111410	-0.088212	-0.198647	0.976093
51905	6.731506	5.470376	9.255898	3.393225	-1.843600	1.110498	-0.140154	0.968930	0.203794	-0.988747	-0.126087	-0.080511	-0.052314	-0.212785	0.975698
51906	1.505081	9.946881	15.559191	2.484906	-1.784939	1.642911	-0.157113	0.962756	0.220037	-0.987261	-0.147447	-0.059794	-0.025124	-0.226628	0.973657
51907	-6.810351	11.828636	8.549036	2.004231	-1.992417	1.532529	-0.172051	0.955693	0.238851	-0.985086	-0.166379	-0.043868	-0.002184	-0.242836	0.970065
51908	-7.815321	14.681119	4.425963	0.545784	-3.216148	1.812046	-0.189799	0.944216	0.269134	-0.981782	-0.185030	-0.043222	0.008987	-0.272434	0.962132
51909	-0.884800	7.137256	3.207203	-0.022796	-4.593865	1.552328	-0.204042	0.927737	0.312522	-0.978802	-0.199116	-0.047963	0.017731	-0.315684	0.948699
51910	0.087961	9.044254	2.900885	1.317296	-4.404695	-0.061109	-0.202216	0.913111	0.354029	-0.978542	-0.202988	-0.035380	0.039558	-0.353586	0.934565
51911	40.953214	3.553670	39.522366	1.547544	-9.192539	0.232137	-0.198965	0.876452	0.438457	-0.977280	-0.210800	-0.022096	0.073060	-0.432891	0.898481
51912	71.840787	-9.501796	25.650553	0.184162	-3.784402	0.622987	-0.202140	0.858114	0.471995	-0.975881	-0.217052	-0.023324	0.082433	-0.465325	0.881293
51913	-18.567539	-2.335232	-23.761498	2.233975	10.205769	-1.882705	-0.191561	0.904825	0.380259	-0.977884	-0.209091	0.004906	0.083948	-0.370909	0.924867
51914	-10.844379	30.253003	53.093238	2.109768	-7.187124	1.267458	-0.196687	0.873238	0.445836	-0.973281	-0.228842	0.018845	0.118482	-0.430217	0.894916
