// General information: 
//  MT Manager version: 2022.2.0 
//  XDA version: 2022.2.0 build 7381 rev 124627 built on 2023-07-19
// Device information: 
//  DeviceId: 00B4CAF0
//  ProductCode: MTW2-3A7G6
//  Firmware Version: 4.6.0
//  Hardware Version: 2.0.0
// Device settings: 
//  Filter Profile: human(46.1)
//  Option Flags: Orientation Smoother Disabled, Position/Velocity Smoother Disabled, Continuous Zero Rotation Update Disabled, AHS Disabled, ICC Disabled
// Coordinate system: ENU
PacketCounter	Acc_X	Acc_Y	Acc_Z	Gyr_X	Gyr_Y	Gyr_Z	Mat[1][1]	Mat[2][1]	Mat[3][1]	Mat[1][2]	Mat[2][2]	Mat[3][2]	Mat[1][3]	Mat[2][3]	Mat[3][3]
51042	5.999024	0.341696	8.263531	0.004494	0.008614	0.003622	-0.811386	-0.002007	0.584508	0.032749	-0.998579	0.042033	0.583593	0.053247	0.810299
51043	6.040840	0.380530	8.280618	0.002975	0.007357	0.001749	-0.811422	-0.002001	0.584457	0.032753	-0.998578	0.042053	0.583542	0.053265	0.810334
51044	6.006251	0.318065	8.298281	0.004057	0.011079	0.001291	-0.811467	-0.001970	0.584395	0.032697	-0.998581	0.042036	0.583483	0.053219	0.810379
51045	5.974619	0.358980	8.318166	0.003499	0.011728	0.006993	-0.811527	-0.002019	0.584312	0.032746	-0.998580	0.042029	0.583397	0.053242	0.810440
51046	5.995727	0.342070	8.265908	0.001877	0.011898	0.001665	-0.811605	-0.001976	0.584203	0.032664	-0.998583	0.042001	0.583293	0.053171	0.810520
51047	5.988530	0.364481	8.301852	-0.001012	0.011376	0.002830	-0.811664	-0.001984	0.584121	0.032653	-0.998585	0.041982	0.583211	0.053149	0.810580
51048	5.971773	0.358804	8.320217	0.004872	0.010995	0.003956	-0.811705	-0.001915	0.584065	0.032564	-0.998588	0.041982	0.583160	0.053096	0.810620
51049	6.002583	0.370084	8.285445	0.001983	0.010473	0.005121	-0.811758	-0.001944	0.583991	0.032588	-0.998587	0.041974	0.583084	0.053104	0.810674
51050	5.976187	0.336215	8.286294	0.001548	0.012938	0.002790	-0.811809	-0.001868	0.583919	0.032474	-0.998592	0.041953	0.583019	0.053020	0.810727
51051	5.999321	0.370844	8.252458	0.005958	0.014718	0.003500	-0.811888	-0.001883	0.583810	0.032508	-0.998589	0.041987	0.582908	0.053067	0.810804
51052	5.966505	0.359606	8.288656	0.000510	0.012635	0.004704	-0.811949	-0.001895	0.583725	0.032465	-0.998594	0.041917	0.582825	0.052985	0.810869
51053	5.972762	0.336081	8.288769	0.000556	0.016054	0.006161	-0.812035	-0.001938	0.583606	0.032490	-0.998594	0.041891	0.582704	0.052978	0.810956
51054	5.995651	0.370211	8.255153	-0.000917	0.018217	0.005744	-0.812141	-0.002022	0.583457	0.032503	-0.998598	0.041782	0.582555	0.052897	0.811068
51055	5.946547	0.353166	8.309326	0.003015	0.019043	0.002668	-0.812245	-0.002032	0.583313	0.032514	-0.998597	0.041796	0.582409	0.052914	0.811172
51056	5.977927	0.363574	8.309531	-0.000583	0.017180	0.004621	-0.812314	-0.002048	0.583217	0.032470	-0.998602	0.041718	0.582316	0.052825	0.811245
51057	5.918119	0.319120	8.311595	0.003829	0.018960	0.005334	-0.812416	-0.002084	0.583074	0.032506	-0.998600	0.041724	0.582171	0.052851	0.811347
51058	5.942644	0.352903	8.312129	0.001896	0.003638	0.002209	-0.812396	-0.002057	0.583103	0.032447	-0.998604	0.041684	0.582203	0.052784	0.811328
51059	5.966581	0.387383	8.277779	0.003084	0.005934	0.005207	-0.812422	-0.002085	0.583066	0.032478	-0.998603	0.041684	0.582164	0.052802	0.811355
51060	5.943096	0.352201	8.347114	0.003370	0.001476	0.002627	-0.812402	-0.002076	0.583094	0.032443	-0.998606	0.041646	0.582194	0.052750	0.811337
51061	5.990656	0.369134	8.294115	0.002660	0.000134	0.003417	-0.812395	-0.002083	0.583103	0.032457	-0.998605	0.041653	0.582203	0.052764	0.811329
51062	5.982211	0.340237	8.311058	0.003471	0.000050	0.006082	-0.812380	-0.002160	0.583125	0.032500	-0.998607	0.041578	0.582222	0.052728	0.811318
51063	5.980926	0.341033	8.276666	0.002938	0.003942	0.000295	-0.812396	-0.002138	0.583102	0.032490	-0.998606	0.041605	0.582200	0.052745	0.811333
51064	5.981688	0.340500	8.311424	0.005267	0.005115	0.004836	-0.812438	-0.002186	0.583043	0.032514	-0.998607	0.041561	0.582140	0.052723	0.811378
51065	5.956871	0.358946	8.295611	0.003417	0.004896	0.004084	-0.812459	-0.002203	0.583014	0.032538	-0.998606	0.041570	0.582109	0.052744	0.811398
51066	5.996615	0.346306	8.294422	0.004505	0.008619	0.003628	-0.812429	-0.002256	0.583055	0.032565	-0.998607	0.041513	0.582149	0.052713	0.811371
51067	5.972727	0.364040	8.313249	0.002276	0.006020	0.002542	-0.812457	-0.002257	0.583017	0.032570	-0.998607	0.041521	0.582110	0.052723	0.811399
51068	5.932143	0.376815	8.315031	0.004180	0.001393	0.005293	-0.812436	-0.002292	0.583046	0.032577	-0.998609	0.041469	0.582139	0.052685	0.811380
51069	5.978677	0.341561	8.278269	0.002661	0.000135	0.003417	-0.812429	-0.002299	0.583055	0.032591	-0.998608	0.041475	0.582148	0.052698	0.811373
51070	5.948134	0.382721	8.297261	0.008498	-0.003668	0.003093	-0.812399	-0.002324	0.583097	0.032619	-0.998607	0.041467	0.582188	0.052708	0.811344
51071	5.972835	0.364733	8.313141	0.004465	-0.003066	0.002713	-0.812374	-0.002322	0.583132	0.032638	-0.998606	0.041492	0.582222	0.052739	0.811317
51072	5.979484	0.342393	8.277651	0.004087	-0.005447	0.002379	-0.812350	-0.002395	0.583165	0.032687	-0.998607	0.041431	0.582253	0.052719	0.811296
51073	5.964059	0.337038	8.294994	0.005938	-0.005228	0.003131	-0.812312	-0.002397	0.583218	0.032718	-0.998604	0.041466	0.582305	0.052765	0.811257
51074	5.998361	0.347147	8.328410	0.005175	-0.001724	0.001923	-0.812274	-0.002307	0.583272	0.032621	-0.998607	0.041480	0.582363	0.052720	0.811217
51075	6.020669	0.330515	8.275392	0.005175	-0.001724	0.001923	-0.812257	-0.002298	0.583296	0.032638	-0.998605	0.041515	0.582386	0.052758	0.811198
51076	5.980399	0.343483	8.276945	0.003371	0.001477	0.002627	-0.812225	-0.002206	0.583340	0.032526	-0.998608	0.041511	0.582437	0.052690	0.811167
51077	6.012081	0.354860	8.241628	0.006365	0.000574	0.004921	-0.812220	-0.002228	0.583347	0.032573	-0.998606	0.041539	0.582441	0.052740	0.811160
51078	5.956883	0.361745	8.295481	0.006163	0.003423	-0.001990	-0.812229	-0.002111	0.583336	0.032455	-0.998608	0.041577	0.582436	0.052703	0.811166
51079	5.957913	0.361375	8.330036	0.003804	-0.000986	0.004960	-0.812214	-0.002132	0.583355	0.032488	-0.998607	0.041584	0.582454	0.052727	0.811152
51080	5.989711	0.372641	8.294640	0.004514	0.000355	0.004169	-0.812189	-0.002135	0.583391	0.032469	-0.998609	0.041548	0.582491	0.052687	0.811128
51081	5.987788	0.321394	8.276199	0.005229	-0.006569	0.003923	-0.812142	-0.002144	0.583455	0.032502	-0.998607	0.041571	0.582553	0.052725	0.811080
51082	5.991327	0.372326	8.328772	0.005224	0.001697	0.003379	-0.812091	-0.002162	0.583527	0.032503	-0.998608	0.041534	0.582625	0.052696	0.811031
51083	5.989121	0.320988	8.310541	0.001953	-0.001205	0.004208	-0.812076	-0.002176	0.583548	0.032519	-0.998608	0.041530	0.582645	0.052702	0.811016
51084	5.980486	0.345008	8.276819	0.005603	0.004078	0.003711	-0.812094	-0.002143	0.583523	0.032470	-0.998610	0.041523	0.582623	0.052668	0.811035
51085	5.997214	0.350145	8.293828	0.004083	0.002819	0.001836	-0.812103	-0.002135	0.583510	0.032479	-0.998608	0.041549	0.582610	0.052694	0.811042
51086	5.987324	0.321967	8.276512	0.000528	0.004378	0.005244	-0.812124	-0.002174	0.583481	0.032465	-0.998612	0.041466	0.582581	0.052618	0.811068
51087	5.946788	0.334814	8.278257	0.006265	0.001999	0.001465	-0.812128	-0.002162	0.583475	0.032483	-0.998610	0.041512	0.582574	0.052666	0.811070
51088	5.924816	0.352216	8.330995	0.006270	-0.006267	0.002011	-0.812085	-0.002151	0.583536	0.032463	-0.998611	0.041497	0.582636	0.052643	0.811027
51089	5.991129	0.373493	8.328862	0.005229	-0.006568	0.003925	-0.812038	-0.002160	0.583600	0.032496	-0.998609	0.041520	0.582699	0.052681	0.810979
51090	5.988392	0.323005	8.275700	0.005561	-0.007607	0.002802	-0.811997	-0.002177	0.583658	0.032504	-0.998610	0.041494	0.582756	0.052664	0.810939
51091	5.999780	0.350726	8.327238	0.003709	-0.007826	0.002050	-0.811944	-0.002167	0.583732	0.032512	-0.998609	0.041516	0.582830	0.052687	0.810885
51092	6.014840	0.357494	8.274799	0.010632	0.000358	0.000722	-0.811899	-0.002140	0.583795	0.032506	-0.998608	0.041546	0.582893	0.052707	0.810838
51093	6.023536	0.334088	8.308461	0.005610	-0.004186	0.004257	-0.811866	-0.002153	0.583840	0.032543	-0.998605	0.041570	0.582936	0.052749	0.810804
51094	5.991631	0.375771	8.293112	0.001949	0.007061	0.003661	-0.811880	-0.002143	0.583821	0.032493	-0.998609	0.041520	0.582920	0.052679	0.810820
51095	6.014503	0.358176	8.275015	0.004084	0.002820	0.001836	-0.811889	-0.002136	0.583809	0.032501	-0.998608	0.041546	0.582907	0.052705	0.810828
51096	5.965366	0.342361	8.293836	0.005985	0.006460	0.004042	-0.811899	-0.002155	0.583793	0.032502	-0.998609	0.041516	0.582892	0.052681	0.810840
51097	5.997640	0.353047	8.293397	0.004513	0.008622	0.003622	-0.811941	-0.002169	0.583735	0.032528	-0.998607	0.041534	0.582832	0.052711	0.810881
51098	5.964198	0.342721	8.294661	0.005276	0.005120	0.004833	-0.811933	-0.002163	0.583747	0.032503	-0.998609	0.041508	0.582846	0.052675	0.810874
51099	5.963968	0.342649	8.294829	-0.001371	0.000739	0.003036	-0.811929	-0.002167	0.583753	0.032490	-0.998611	0.041482	0.582852	0.052647	0.810871
51100	5.973576	0.370885	8.312336	0.008552	-0.000244	0.004552	-0.811880	-0.002136	0.583820	0.032465	-0.998611	0.041493	0.582921	0.052641	0.810822
51101	5.964093	0.342842	8.294732	0.001244	-0.002544	0.005000	-0.811857	-0.002157	0.583853	0.032482	-0.998611	0.041478	0.582952	0.052639	0.810799
51102	6.004311	0.329822	8.293227	0.000531	0.004381	0.005243	-0.811842	-0.002152	0.583873	0.032428	-0.998616	0.041409	0.582975	0.052551	0.810788
51103	5.955357	0.313713	8.311916	0.004517	0.000358	0.004170	-0.811836	-0.002167	0.583882	0.032458	-0.998614	0.041424	0.582983	0.052581	0.810781
51104	5.979797	0.348377	8.277176	0.007031	-0.001504	0.002677	-0.811821	-0.002169	0.583902	0.032453	-0.998615	0.041412	0.583003	0.052568	0.810767
51105	5.955449	0.367105	8.260996	0.005558	0.000658	0.002256	-0.811817	-0.002164	0.583907	0.032473	-0.998613	0.041447	0.583008	0.052608	0.810762
51106	5.948215	0.337996	8.312385	0.006651	-0.003885	0.002346	-0.811827	-0.002097	0.583895	0.032402	-0.998615	0.041463	0.582999	0.052580	0.810770
51107	6.029149	0.365447	8.258151	0.004088	-0.005445	0.002385	-0.811787	-0.002091	0.583950	0.032414	-0.998613	0.041485	0.583054	0.052605	0.810729
51108	5.973346	0.372938	8.277127	0.006321	-0.002844	0.003468	-0.811752	-0.002081	0.583999	0.032394	-0.998615	0.041468	0.583103	0.052580	0.810695
51109	6.005358	0.331383	8.292407	0.001244	-0.002542	0.005001	-0.811728	-0.002102	0.584031	0.032411	-0.998615	0.041452	0.583135	0.052577	0.810672
51110	5.982299	0.349046	8.310629	0.004138	-0.002023	0.003839	-0.811723	-0.002145	0.584039	0.032426	-0.998616	0.041399	0.583142	0.052543	0.810669
51111	5.997259	0.355510	8.258276	0.005509	-0.002763	0.000803	-0.811699	-0.002124	0.584072	0.032434	-0.998614	0.041442	0.583175	0.052582	0.810643
51112	5.982656	0.349624	8.310348	0.004849	-0.000682	0.003048	-0.811673	-0.002150	0.584108	0.032438	-0.998616	0.041400	0.583210	0.052550	0.810620
51113	5.971921	0.322270	8.258334	0.004519	0.000359	0.004170	-0.811667	-0.002165	0.584116	0.032467	-0.998614	0.041415	0.583217	0.052580	0.810613
51114	5.925557	0.357962	8.294944	0.006652	-0.003884	0.002346	-0.811602	-0.002143	0.584207	0.032441	-0.998616	0.041406	0.583309	0.052557	0.810548
51115	5.943122	0.363428	8.311334	0.009929	-0.009248	0.002067	-0.811540	-0.002131	0.584293	0.032485	-0.998611	0.041477	0.583393	0.052641	0.810482
51116	5.942995	0.311891	8.326950	0.006275	-0.014529	0.002567	-0.811425	-0.002078	0.584453	0.032432	-0.998613	0.041477	0.583556	0.052610	0.810367
51117	5.988123	0.402898	8.326110	0.004806	-0.020631	0.002699	-0.811296	-0.002067	0.584632	0.032451	-0.998611	0.041502	0.583734	0.052643	0.810236
51118	6.020279	0.362165	8.305950	0.005568	-0.015868	0.003360	-0.811167	-0.002059	0.584811	0.032436	-0.998613	0.041475	0.583914	0.052612	0.810109
51119	6.005838	0.356877	8.322609	0.005189	-0.018248	0.003030	-0.811052	-0.002052	0.584970	0.032460	-0.998611	0.041502	0.584072	0.052648	0.809992
51120	6.031685	0.391425	8.286781	0.004860	-0.017206	0.004153	-0.810932	-0.002099	0.585137	0.032492	-0.998612	0.041447	0.584238	0.052623	0.809875
51121	6.048825	0.344230	8.319045	0.002398	-0.011922	0.007098	-0.810852	-0.002137	0.585247	0.032532	-0.998612	0.041427	0.584346	0.052631	0.809796
51122	6.031559	0.339917	8.267076	0.003333	-0.010203	0.001726	-0.810794	-0.002068	0.585328	0.032444	-0.998615	0.041414	0.584431	0.052568	0.809739
51123	6.055144	0.322443	8.248423	0.007087	0.001920	0.004126	-0.810797	-0.002082	0.585324	0.032487	-0.998612	0.041449	0.584425	0.052622	0.809739
51124	6.024404	0.363712	8.267568	0.002564	0.001560	-0.000041	-0.810775	-0.002019	0.585354	0.032396	-0.998616	0.041428	0.584460	0.052552	0.809719
51125	5.961791	0.393920	8.322241	0.006322	0.005421	0.002912	-0.810799	-0.002024	0.585322	0.032426	-0.998614	0.041464	0.584426	0.052598	0.809740
51126	5.984518	0.376336	8.304216	0.001955	0.007063	0.003655	-0.810846	-0.002031	0.585256	0.032390	-0.998617	0.041410	0.584363	0.052533	0.809790
51127	5.943047	0.337318	8.322234	0.006986	-0.004923	0.001223	-0.810809	-0.002013	0.585307	0.032410	-0.998614	0.041461	0.584413	0.052587	0.809751
51128	6.022657	0.312604	8.284360	0.002999	-0.000900	0.002295	-0.810742	-0.002015	0.585400	0.032385	-0.998617	0.041415	0.584507	0.052535	0.809686
51129	6.039533	0.317584	8.301258	0.000760	0.004761	0.000659	-0.810763	-0.001997	0.585372	0.032364	-0.998618	0.041419	0.584480	0.052526	0.809706
51130	5.997483	0.331267	8.268786	0.006269	0.010262	0.000906	-0.810821	-0.001954	0.585291	0.032308	-0.998619	0.041425	0.584402	0.052498	0.809764
51131	6.019907	0.314094	8.250980	0.008454	0.009441	0.000535	-0.810868	-0.001936	0.585225	0.032331	-0.998616	0.041492	0.584335	0.052565	0.809808
51132	6.022307	0.365454	8.304336	0.004033	0.015924	-0.000730	-0.810940	-0.001883	0.585126	0.032253	-0.998618	0.041487	0.584239	0.052515	0.809881
51133	6.050497	0.325382	8.251718	0.003324	0.014585	0.000063	-0.811018	-0.001864	0.585018	0.032241	-0.998618	0.041515	0.584132	0.052531	0.809957
51134	6.129064	0.352564	8.199133	0.003477	0.033117	0.003862	-0.811188	-0.001887	0.584782	0.032218	-0.998620	0.041469	0.583897	0.052479	0.810130
51135	5.996710	0.362314	8.223083	0.003483	0.041384	0.003309	-0.811421	-0.001914	0.584459	0.032233	-0.998619	0.041479	0.583572	0.052496	0.810363
51136	6.016454	0.344517	8.207308	0.002502	0.044513	0.006677	-0.811692	-0.001957	0.584083	0.032212	-0.998622	0.041419	0.583197	0.052434	0.810636
51137	6.045521	0.302000	8.260114	0.000709	0.047722	0.007378	-0.811960	-0.002028	0.583710	0.032245	-0.998623	0.041383	0.582822	0.052423	0.810907
51138	6.090118	0.317586	8.244686	0.001868	0.054876	0.008372	-0.812242	-0.002132	0.583317	0.032271	-0.998626	0.041286	0.582427	0.052358	0.811195
51139	6.094693	0.345496	8.265893	0.004512	0.068138	0.009237	-0.812628	-0.002232	0.582778	0.032340	-0.998624	0.041270	0.581885	0.052385	0.811582
51140	6.024030	0.323491	8.306370	-0.005767	0.075022	0.006830	-0.813039	-0.002243	0.582204	0.032226	-0.998633	0.041156	0.581316	0.052223	0.812000
51141	6.032156	0.329171	8.259178	0.004548	0.089554	0.006144	-0.813550	-0.002323	0.581490	0.032270	-0.998631	0.041158	0.580599	0.052249	0.812512
51142	6.001394	0.346684	8.282858	0.001025	0.091142	0.009553	-0.814090	-0.002444	0.580734	0.032288	-0.998635	0.041059	0.579841	0.052176	0.813057
51143	5.936338	0.353855	8.273012	-0.003188	0.099666	0.013200	-0.814655	-0.002601	0.579939	0.032345	-0.998637	0.040958	0.579043	0.052124	0.813629
51144	5.945414	0.357845	8.295579	-0.001797	0.090668	0.010729	-0.815140	-0.002746	0.579257	0.032370	-0.998642	0.040817	0.578359	0.052022	0.814122
51145	5.942884	0.282403	8.282402	0.000870	0.095682	0.012163	-0.815682	-0.002890	0.578494	0.032442	-0.998642	0.040755	0.577591	0.052011	0.814668
51146	5.910189	0.247672	8.322679	0.004531	0.097566	0.010236	-0.816191	-0.002975	0.577775	0.032445	-0.998645	0.040690	0.576871	0.051957	0.815181
51147	5.861142	0.261058	8.294996	0.005560	0.094457	0.006882	-0.816725	-0.003066	0.577018	0.032501	-0.998643	0.040697	0.576111	0.051992	0.815717
51148	5.919212	0.281873	8.299354	0.004877	0.093137	0.007680	-0.817212	-0.003156	0.576328	0.032515	-0.998645	0.040638	0.575419	0.051949	0.816207
51149	5.895892	0.329136	8.271579	0.007082	0.097190	0.005330	-0.817762	-0.003232	0.575548	0.032568	-0.998642	0.040666	0.574635	0.051999	0.816756
51150	5.911390	0.311787	8.259163	0.012285	0.095486	0.007296	-0.818271	-0.003294	0.574823	0.032598	-0.998640	0.040681	0.573907	0.052026	0.817266
51151	5.896932	0.105030	8.295996	0.015552	0.099840	0.003042	-0.818835	-0.003349	0.574019	0.032679	-0.998633	0.040791	0.573098	0.052160	0.817825
51152	5.995179	-0.116084	8.330973	0.024565	0.111514	-0.008949	-0.819450	-0.003233	0.573141	0.032622	-0.998626	0.041009	0.572221	0.052302	0.818430
51153	5.992832	0.093348	8.410978	0.036248	0.142784	-0.025492	-0.820267	-0.003025	0.571973	0.032588	-0.998609	0.041452	0.571052	0.052641	0.819225
51154	5.773134	0.697464	8.449946	0.033438	0.147183	-0.026328	-0.821110	-0.002807	0.570763	0.032484	-0.998597	0.041822	0.569845	0.052881	0.820049
51155	5.607274	0.906371	8.549163	0.022781	0.114263	-0.016579	-0.821758	-0.002674	0.569830	0.032445	-0.998586	0.042103	0.568912	0.053087	0.820683
51156	5.594441	0.806808	8.448993	0.020904	0.070302	0.000668	-0.822061	-0.002637	0.569394	0.032455	-0.998581	0.042232	0.568474	0.053197	0.820979
51157	5.721437	0.566724	8.497890	0.013370	0.027072	0.012137	-0.822203	-0.002745	0.569188	0.032598	-0.998574	0.042273	0.568261	0.053312	0.821120
51158	5.791143	0.336526	8.356662	0.016402	0.024752	0.017922	-0.822276	-0.002886	0.569082	0.032750	-0.998570	0.042257	0.568146	0.053385	0.821194
51159	5.843668	0.224958	8.407003	0.016189	0.009564	0.015554	-0.822317	-0.003019	0.569022	0.032937	-0.998562	0.042302	0.568076	0.053528	0.821234
51160	5.839027	0.121772	8.441071	0.020276	0.028417	0.007972	-0.822412	-0.003045	0.568884	0.033014	-0.998556	0.042382	0.567933	0.053637	0.821325
51161	5.672351	0.301270	8.481738	0.027034	0.022871	0.000897	-0.822534	-0.003039	0.568708	0.033142	-0.998542	0.042599	0.567750	0.053888	0.821435
51162	5.625880	0.391282	8.501297	0.025874	-0.003997	-0.005051	-0.822451	-0.002973	0.568829	0.033193	-0.998533	0.042774	0.567867	0.054061	0.821343
51163	5.823746	0.457355	8.429799	0.029677	-0.024654	-0.004985	-0.822304	-0.002882	0.569041	0.033288	-0.998518	0.043046	0.568074	0.054339	0.821182
51164	5.992539	0.386362	8.321819	0.018448	-0.014612	-0.004132	-0.822168	-0.002775	0.569238	0.033262	-0.998514	0.043174	0.568272	0.054431	0.821038
51165	5.926123	0.315163	8.372976	0.028993	0.001998	0.000183	-0.822171	-0.002750	0.569234	0.033395	-0.998499	0.043411	0.568260	0.054701	0.821029
51166	6.078638	0.289238	8.371464	0.023354	0.027296	-0.002666	-0.822300	-0.002688	0.569048	0.033417	-0.998491	0.043573	0.568072	0.054846	0.821149
51167	5.900412	0.388841	8.411404	0.023182	0.040100	-0.000644	-0.822520	-0.002675	0.568730	0.033510	-0.998480	0.043767	0.567748	0.055057	0.821359
51168	5.701070	0.379261	8.433390	0.011678	0.049776	0.004781	-0.822764	-0.002707	0.568377	0.033532	-0.998478	0.043783	0.567394	0.055082	0.821602
51169	5.673078	0.345402	8.469652	0.004055	0.017676	0.008813	-0.822852	-0.002777	0.568248	0.033594	-0.998477	0.043766	0.567261	0.055103	0.821692
51170	5.678160	0.499717	8.489173	-0.005290	-0.007761	0.014977	-0.822744	-0.002867	0.568406	0.033594	-0.998485	0.043590	0.567419	0.054958	0.821593
51171	5.633969	0.585295	8.507265	-0.019646	-0.024581	0.022064	-0.822588	-0.003045	0.568630	0.033630	-0.998496	0.043302	0.567642	0.054743	0.821453
51172	5.828581	0.490087	8.415414	-0.027527	-0.052179	0.028669	-0.822224	-0.003222	0.569155	0.033596	-0.998515	0.042882	0.568172	0.054380	0.821111
51173	6.014309	0.312871	8.425341	-0.023058	-0.045515	0.027429	-0.821947	-0.003443	0.569553	0.033657	-0.998528	0.042536	0.568568	0.054131	0.820853
51174	5.942027	0.260253	8.406379	-0.028016	-0.022309	0.022344	-0.821751	-0.003528	0.569836	0.033528	-0.998548	0.042169	0.568860	0.053758	0.820676
51175	5.872580	0.311164	8.424219	-0.018131	-0.017011	0.018502	-0.821639	-0.003675	0.569997	0.033543	-0.998558	0.041914	0.569021	0.053558	0.820577
51176	5.847908	0.275399	8.388673	-0.020368	-0.014764	0.015392	-0.821516	-0.003772	0.570173	0.033464	-0.998573	0.041610	0.569203	0.053263	0.820470
51177	5.804016	0.360115	8.441608	-0.018901	-0.012073	0.013825	-0.821434	-0.003875	0.570291	0.033436	-0.998584	0.041375	0.569323	0.053055	0.820400
51178	5.879214	0.408199	8.354239	-0.016729	-0.017760	0.015481	-0.821294	-0.003946	0.570492	0.033359	-0.998597	0.041117	0.569529	0.052800	0.820273
51179	5.950052	0.299793	8.350881	-0.018565	-0.013118	0.012707	-0.821206	-0.004038	0.570618	0.033324	-0.998608	0.040892	0.569658	0.052596	0.820197
51180	5.973658	0.279936	8.298222	-0.021243	0.001557	0.016207	-0.821153	-0.004143	0.570694	0.033237	-0.998624	0.040574	0.569740	0.052285	0.820160
51181	5.877254	0.297107	8.386642	-0.014657	0.013658	0.009152	-0.821218	-0.004213	0.570599	0.033195	-0.998632	0.040400	0.569648	0.052118	0.820235
51182	5.814049	0.377776	8.389571	-0.018897	0.012478	0.016769	-0.821230	-0.004383	0.570580	0.033173	-0.998646	0.040074	0.569632	0.051838	0.820264
51183	5.829395	0.380743	8.372910	-0.018236	0.010382	0.014529	-0.821276	-0.004505	0.570514	0.033154	-0.998656	0.039841	0.569568	0.051635	0.820321
51184	5.827706	0.325876	8.424330	-0.017263	0.002374	0.013170	-0.821251	-0.004559	0.570549	0.033050	-0.998669	0.039593	0.569609	0.051373	0.820309
51185	5.734272	0.217433	8.441338	-0.016529	0.003719	0.012387	-0.821259	-0.004656	0.570536	0.033024	-0.998678	0.039386	0.569599	0.051188	0.820327
51186	5.731148	0.342380	8.443236	-0.013528	-0.012004	0.007760	-0.821181	-0.004604	0.570650	0.032858	-0.998690	0.039227	0.569722	0.050963	0.820256
51187	5.916846	0.271141	8.421620	-0.011422	-0.016275	0.005952	-0.821077	-0.004626	0.570799	0.032808	-0.998697	0.039099	0.569874	0.050830	0.820158
51188	5.902115	0.317433	8.353056	-0.015675	-0.001448	0.004111	-0.821009	-0.004638	0.570896	0.032675	-0.998710	0.038876	0.569979	0.050572	0.820102
51189	5.875383	0.459965	8.372987	-0.024345	-0.004411	0.010969	-0.820971	-0.004717	0.570950	0.032592	-0.998723	0.038613	0.570038	0.050309	0.820076
51190	5.904421	0.364985	8.336373	-0.018521	-0.003380	0.008703	-0.820918	-0.004752	0.571026	0.032469	-0.998736	0.038366	0.570122	0.050036	0.820035
51191	5.836929	0.290394	8.353320	-0.016653	0.001702	0.007476	-0.820916	-0.004799	0.571028	0.032400	-0.998745	0.038186	0.570129	0.049849	0.820042
51192	5.604036	0.342096	8.461100	-0.003893	0.002632	0.004497	-0.820917	-0.004757	0.571028	0.032295	-0.998752	0.038106	0.570134	0.049723	0.820045
51193	5.583077	0.358573	8.546960	0.001665	-0.040929	-0.001117	-0.820674	-0.004697	0.571377	0.032260	-0.998752	0.038125	0.570485	0.049721	0.819801
51194	5.683566	0.339288	8.490639	0.010150	-0.059429	-0.004897	-0.820275	-0.004532	0.571951	0.032157	-0.998752	0.038204	0.571064	0.049730	0.819398
51195	5.774690	0.240372	8.431764	0.012821	-0.083808	-0.004407	-0.819788	-0.004418	0.572650	0.032159	-0.998747	0.038333	0.571763	0.049841	0.818904
51196	5.977608	0.305488	8.321451	0.013123	-0.078559	-0.010978	-0.819318	-0.004282	0.573323	0.032102	-0.998746	0.038416	0.572440	0.049880	0.818428
51197	5.949976	0.243360	8.403034	0.005309	-0.062146	-0.009429	-0.818956	-0.004128	0.573842	0.032021	-0.998745	0.038513	0.572963	0.049915	0.818060
51198	5.960391	0.399978	8.384708	0.010627	-0.056993	-0.004542	-0.818615	-0.003992	0.574329	0.031940	-0.998745	0.038584	0.573454	0.049930	0.817715
51199	5.858821	0.393504	8.383133	0.008791	-0.052346	-0.007308	-0.818307	-0.003864	0.574768	0.031896	-0.998742	0.038697	0.573895	0.049999	0.817401
51200	5.270812	0.386204	8.511311	0.021488	-0.054843	-0.011767	-0.817943	-0.003705	0.575287	0.031857	-0.998737	0.038862	0.574416	0.050114	0.817028
51201	5.269142	0.151013	8.725348	0.043078	-0.199742	-0.031231	-0.816795	-0.003264	0.576919	0.031815	-0.998717	0.039393	0.576051	0.050530	0.815851
51202	6.288104	0.455769	8.232211	0.043964	-0.188589	-0.035980	-0.815697	-0.002865	0.578472	0.031762	-0.998701	0.039841	0.577606	0.050872	0.814729
51203	6.140190	0.230323	8.273294	0.037439	-0.151838	-0.035964	-0.814821	-0.002400	0.579708	0.031650	-0.998684	0.040353	0.578848	0.051228	0.813825
51204	6.051916	0.488148	8.184959	0.043321	-0.109712	-0.036442	-0.814174	-0.001937	0.580618	0.031516	-0.998668	0.040863	0.579765	0.051568	0.813150
51205	6.147635	0.161910	8.223235	0.042764	-0.099305	-0.034745	-0.813599	-0.001509	0.581424	0.031446	-0.998647	0.041411	0.580575	0.051975	0.812546
51206	5.976279	0.339564	8.346047	0.047143	-0.064988	-0.044627	-0.813210	-0.001022	0.581969	0.031294	-0.998628	0.041974	0.581128	0.052346	0.812127
51207	5.344321	0.779252	8.606314	0.049127	-0.079275	-0.037817	-0.812751	-0.000574	0.582611	0.031237	-0.998604	0.042592	0.581773	0.052815	0.811635
51208	5.101731	0.928407	8.918113	0.049077	-0.211224	-0.033274	-0.811515	-0.000040	0.584332	0.031130	-0.998583	0.043165	0.583502	0.053219	0.810366
51209	5.410387	0.946762	8.895553	0.029154	-0.318374	-0.020789	-0.809650	0.000366	0.586914	0.031097	-0.998568	0.043521	0.586089	0.053488	0.808479
51210	5.809681	0.507393	8.633407	0.003184	-0.391203	-0.005902	-0.807345	0.000631	0.590079	0.031019	-0.998571	0.043508	0.589264	0.053430	0.806172
51211	5.829167	0.375862	8.557489	-0.012921	-0.399425	-0.002401	-0.804975	0.000897	0.593308	0.030888	-0.998579	0.043417	0.592504	0.053276	0.803804
51212	6.179565	0.272887	8.345581	-0.037444	-0.438708	0.008453	-0.802390	0.001134	0.596799	0.030611	-0.998604	0.043053	0.596015	0.052814	0.801235
51213	6.208497	0.321933	8.165540	-0.057808	-0.386967	0.017069	-0.800062	0.001195	0.599916	0.030367	-0.998635	0.042487	0.599149	0.052210	0.798934
51214	6.443373	0.406785	8.081185	-0.088284	-0.374345	0.010771	-0.797886	0.001347	0.602808	0.029816	-0.998685	0.041697	0.602071	0.051243	0.796796
51215	4.984333	1.187338	9.466091	-0.217551	-0.321604	-0.055090	-0.795951	0.002088	0.605358	0.028029	-0.998795	0.040298	0.604712	0.049042	0.794933
51216	2.237769	-0.129762	9.828048	-0.046479	-0.674703	0.100476	-0.791854	0.001433	0.610709	0.028477	-0.998823	0.039268	0.610046	0.048486	0.790881
51217	5.727271	1.126598	9.443966	-0.010011	-1.037248	0.089648	-0.785448	0.001069	0.618927	0.029087	-0.998830	0.038638	0.618244	0.048351	0.784497
51218	3.985714	0.408904	10.084625	-0.039013	-1.195559	0.154327	-0.778018	0.000167	0.628241	0.029941	-0.998854	0.037345	0.627528	0.047865	0.777122
51219	4.994593	0.100173	9.615432	-0.053915	-1.463811	0.134980	-0.768698	-0.000456	0.639612	0.030608	-0.998880	0.036073	0.638879	0.047306	0.767851
51220	4.793754	0.268616	9.855167	-0.095757	-1.679949	0.122185	-0.757959	-0.000922	0.652301	0.030898	-0.998927	0.034492	0.651570	0.046298	0.757174
51221	5.301530	0.635962	9.715438	-0.117546	-1.958260	0.153732	-0.744996	-0.001534	0.667067	0.031243	-0.998980	0.032597	0.666337	0.045126	0.744284
51222	5.424229	0.912564	10.495799	-0.185710	-2.168287	0.189066	-0.730404	-0.002417	0.683011	0.031288	-0.999062	0.029924	0.682298	0.043227	0.729795
51223	5.334000	1.141379	10.607769	-0.267108	-2.498909	0.263433	-0.713033	-0.003973	0.701119	0.031307	-0.999167	0.026177	0.700431	0.040615	0.712564
51224	5.513970	1.207866	11.739174	-0.322266	-2.846637	0.342171	-0.692706	-0.006249	0.721193	0.031342	-0.999279	0.021446	0.720538	0.037460	0.692403
51225	6.163143	2.063098	11.969569	-0.158382	-3.507551	0.429087	-0.666861	-0.009218	0.745125	0.033064	-0.999305	0.017229	0.744448	0.036126	0.666702
51226	7.313459	2.514344	12.369488	-0.176169	-3.913997	0.637307	-0.637009	-0.014171	0.770726	0.035813	-0.999295	0.011226	0.770024	0.034753	0.637068
51227	8.767639	3.029193	12.972168	-0.161803	-4.176119	0.906666	-0.603948	-0.021771	0.796726	0.040138	-0.999189	0.003123	0.796013	0.033865	0.604332
51228	9.220321	3.199798	10.900381	-0.036679	-4.316351	1.071813	-0.568590	-0.030976	0.822037	0.046071	-0.998921	-0.005774	0.821330	0.034589	0.569404
51229	9.433376	11.389013	15.157914	-0.283135	-4.085394	1.279098	-0.533935	-0.042338	0.844465	0.050732	-0.998550	-0.017987	0.844002	0.033237	0.535309
51230	16.748820	4.015900	18.610026	-0.822600	-3.548142	1.262165	-0.503034	-0.053838	0.862588	0.050253	-0.998191	-0.032995	0.862805	0.026750	0.504829
51231	14.375184	0.674131	16.229293	-0.478848	-1.033837	0.591273	-0.493779	-0.059456	0.867553	0.049022	-0.997977	-0.040493	0.868205	0.022535	0.495694
51232	2.290232	1.007356	14.570812	0.317489	-0.498276	0.116416	-0.489414	-0.060452	0.869954	0.052370	-0.997831	-0.039876	0.870477	0.026044	0.491519
51233	-4.506443	2.867710	10.493080	0.539539	-0.147559	-0.024015	-0.488129	-0.060141	0.870697	0.056917	-0.997693	-0.037004	0.870913	0.031495	0.490426
51234	-3.785518	3.519853	10.091330	0.440698	-0.390400	0.093286	-0.484711	-0.060892	0.872552	0.061235	-0.997489	-0.035594	0.872528	0.036177	0.487222
51235	-1.874664	1.801916	12.122010	0.260288	-0.060652	0.219154	-0.484031	-0.063026	0.872778	0.064534	-0.997258	-0.036226	0.872668	0.038790	0.486771
51236	-0.671763	-0.094527	13.249121	0.320321	0.548021	0.171390	-0.488744	-0.064904	0.870010	0.068191	-0.997020	-0.036072	0.869758	0.041697	0.491713
51237	-0.716493	-0.453601	12.915001	0.504225	1.174839	0.051120	-0.498877	-0.065900	0.864163	0.072780	-0.996768	-0.033996	0.863611	0.045934	0.502062
51238	-0.982999	-0.064428	11.967686	0.566475	1.726162	-0.018031	-0.513786	-0.066504	0.855337	0.077576	-0.996508	-0.030883	0.854404	0.050486	0.517151
51239	-0.435807	-0.404185	11.200975	0.499932	2.179390	0.009021	-0.532260	-0.067704	0.843870	0.081832	-0.996244	-0.028315	0.842617	0.053984	0.535801
51240	1.079061	-1.424386	10.699344	0.451617	2.574239	0.071675	-0.553784	-0.069800	0.829730	0.086002	-0.995946	-0.026383	0.828207	0.056748	0.557541
51241	2.773526	-1.969909	10.127422	0.478574	2.954758	0.159398	-0.577852	-0.073075	0.812864	0.090793	-0.995557	-0.024955	0.811076	0.059382	0.581919
51242	4.043555	-1.759736	9.468232	0.531918	3.295202	0.248209	-0.604102	-0.077511	0.793128	0.096510	-0.995049	-0.023735	0.791041	0.062207	0.608592
51243	5.112081	-1.749326	8.849040	0.558313	3.541518	0.299265	-0.631414	-0.082711	0.771022	0.102679	-0.994458	-0.022592	0.768618	0.064903	0.636407
51244	6.318235	-2.315036	8.481544	0.617360	3.686306	0.280245	-0.659088	-0.087909	0.746911	0.109130	-0.993813	-0.020671	0.744106	0.067886	0.664603
51245	7.622914	-3.012126	8.139997	0.743945	3.759605	0.233693	-0.686303	-0.092830	0.721367	0.116106	-0.993086	-0.017333	0.717989	0.071860	0.692336
51246	8.579923	-3.053083	7.794623	0.883174	3.769283	0.192098	-0.712704	-0.097507	0.694655	0.123622	-0.992251	-0.012446	0.690486	0.077005	0.719235
51247	9.110951	-2.711974	7.450649	0.946044	3.711198	0.187603	-0.737563	-0.102302	0.667484	0.131348	-0.991313	-0.006795	0.662381	0.082660	0.744593
51248	9.301920	-2.679705	7.140209	0.947812	3.596145	0.207409	-0.760675	-0.107390	0.640188	0.138978	-0.990295	-0.000985	0.634081	0.088223	0.768217
51249	9.702356	-2.849978	7.108798	0.960969	3.435920	0.205559	-0.781685	-0.112525	0.613438	0.146488	-0.989199	0.005213	0.606226	0.093937	0.789726
51250	10.024931	-2.942704	7.123949	0.975094	3.294957	0.163532	-0.801034	-0.117286	0.587017	0.153475	-0.988080	0.012011	0.578611	0.099714	0.809485
51251	10.568976	-2.765412	7.352451	0.978796	3.162414	0.085089	-0.818766	-0.121344	0.561158	0.159660	-0.986979	0.019533	0.551481	0.105587	0.827478
51252	10.797125	-2.823259	7.458039	0.922825	3.070974	0.009295	-0.835339	-0.124703	0.535404	0.164602	-0.985986	0.027162	0.524513	0.110818	0.844159
51253	10.836030	-3.153641	7.353324	0.853294	2.936052	-0.080364	-0.850486	-0.127205	0.510384	0.168254	-0.985128	0.034846	0.498361	0.115510	0.859240
51254	10.747543	-3.076162	6.826201	0.740010	2.777625	-0.120050	-0.864243	-0.129216	0.486196	0.170704	-0.984435	0.041804	0.473227	0.119125	0.872849
51255	10.011994	-2.568198	6.033243	0.570063	2.543350	-0.111195	-0.876174	-0.131151	0.463809	0.172334	-0.983901	0.047336	0.450134	0.121405	0.884670
51256	8.182689	-2.031816	4.828017	0.362912	2.207312	-0.046788	-0.886189	-0.132246	0.444049	0.172175	-0.983765	0.050627	0.430144	0.121319	0.894571
51257	7.349505	-1.453283	4.508289	0.182920	1.685685	0.052795	-0.893218	-0.134777	0.428949	0.173383	-0.983479	0.052031	0.414849	0.120848	0.901829
51258	8.659522	-0.727603	5.166858	0.049183	1.232248	0.135982	-0.898193	-0.136772	0.417783	0.173825	-0.983415	0.051760	0.403775	0.119111	0.907071
51259	10.027636	-0.217192	5.957480	-0.034701	0.965821	0.194755	-0.901709	-0.139800	0.409116	0.175404	-0.983194	0.050629	0.395162	0.117414	0.911077
51260	10.672752	-0.158472	6.359055	-0.020833	0.796170	0.190952	-0.904534	-0.142527	0.401877	0.176921	-0.982975	0.049595	0.387966	0.115961	0.914350
51261	11.192987	-0.017334	6.285406	0.094109	0.676251	0.091657	-0.906972	-0.144182	0.395744	0.178079	-0.982741	0.050081	0.381693	0.115896	0.916994
51262	11.709376	0.488247	5.717812	0.256526	0.580736	-0.098943	-0.909385	-0.143812	0.390304	0.178036	-0.982608	0.052761	0.375928	0.117468	0.919173
51263	11.677794	1.044418	4.853215	0.376456	0.509206	-0.321897	-0.911855	-0.141225	0.385456	0.176476	-0.982626	0.057462	0.370644	0.120421	0.920935
51264	11.913939	0.705081	3.841951	0.453661	0.397300	-0.543697	-0.914298	-0.136301	0.381421	0.173084	-0.982847	0.063675	0.366199	0.124236	0.922206
51265	12.112300	-0.295674	2.428955	0.535282	0.250412	-0.788638	-0.916554	-0.128836	0.378591	0.167782	-0.983221	0.071599	0.363014	0.129145	0.922791
51266	11.996633	-0.345622	0.986674	0.555475	0.045916	-0.972254	-0.918337	-0.119276	0.377399	0.160790	-0.983712	0.080355	0.361667	0.134475	0.922558
51267	12.195657	-0.417656	0.189666	0.411293	-0.184328	-1.042926	-0.919303	-0.108732	0.378233	0.152663	-0.984346	0.088077	0.362735	0.138711	0.921511
51268	12.694075	-0.085552	-0.045313	0.118167	-0.415793	-1.077570	-0.919392	-0.097488	0.381070	0.143115	-0.985306	0.093219	0.366383	0.140241	0.919835
51269	12.788508	0.623728	-0.126958	-0.345747	-0.598301	-1.046284	-0.918620	-0.086311	0.385601	0.132187	-0.986754	0.094041	0.372376	0.137360	0.917861
51270	12.304953	0.662769	-0.049658	-0.872269	-0.762192	-0.963420	-0.916968	-0.075737	0.391705	0.120006	-0.988707	0.089762	0.380483	0.129316	0.915702
51271	1.073293	-4.943619	3.142078	-0.840728	-0.742210	-0.406891	-0.914586	-0.070750	0.398154	0.113013	-0.990064	0.083669	0.388278	0.121519	0.913495
51272	4.203410	2.056298	7.235968	-0.309438	-2.011693	-0.616774	-0.907262	-0.062168	0.415945	0.106100	-0.990858	0.083329	0.406962	0.119733	0.905564
51273	-1.302788	5.316737	13.238335	-0.621016	-1.511386	-0.177158	-0.901183	-0.058612	0.429457	0.101890	-0.991697	0.078463	0.421292	0.114467	0.899672
51274	2.744778	2.045615	15.189385	-0.562498	-2.086263	0.149391	-0.892040	-0.057716	0.448255	0.100757	-0.992248	0.072751	0.440581	0.110062	0.890940
51275	6.149636	-1.296118	10.881807	-0.347141	-1.581682	-0.163010	-0.885115	-0.054347	0.462189	0.097718	-0.992721	0.070404	0.454998	0.107480	0.883982
51276	3.973161	-0.711061	8.577799	-0.233059	-1.808009	-0.471590	-0.877190	-0.047695	0.477768	0.092428	-0.993217	0.070547	0.471163	0.106042	0.875649
51277	8.058781	3.427277	7.345603	-0.201649	-2.010567	-0.239885	-0.867751	-0.043162	0.495121	0.089331	-0.993543	0.069950	0.488905	0.104929	0.866003
51278	12.482808	0.856543	11.003337	-0.466589	-1.791894	0.094977	-0.858762	-0.042225	0.510632	0.087783	-0.993988	0.065435	0.504799	0.101018	0.857306
51279	13.139529	-4.032011	12.260536	-0.447303	-1.240240	0.040178	-0.852392	-0.041366	0.521265	0.085807	-0.994418	0.061401	0.515816	0.097066	0.851183
51280	9.593966	-4.936943	10.652258	-0.234044	-0.822043	-0.083507	-0.848187	-0.039707	0.528206	0.083820	-0.994684	0.059823	0.523022	0.095015	0.847006
51281	6.623484	-5.381085	9.352953	-0.084409	-0.736603	-0.007581	-0.844311	-0.038904	0.534439	0.083275	-0.994770	0.059145	0.529343	0.094442	0.843135
51282	6.224020	-4.833166	10.223726	0.177397	-0.775380	0.004790	-0.840173	-0.038160	0.540974	0.084159	-0.994611	0.060547	0.535748	0.096398	0.838857
51283	7.561106	-0.708063	10.283817	0.334587	-0.801727	-0.043398	-0.835882	-0.036911	0.547666	0.085562	-0.994302	0.063578	0.542199	0.100003	0.834278
51284	9.967129	4.068843	9.294153	0.103202	-0.660954	0.049339	-0.832234	-0.036678	0.553210	0.086413	-0.994196	0.064081	0.547649	0.101135	0.830574
51285	7.990608	4.230160	8.192192	-0.045504	-0.156576	0.041579	-0.831333	-0.036904	0.554548	0.086472	-0.994231	0.063469	0.549006	0.100717	0.829728
51286	7.763896	2.938331	7.834376	-0.248368	-0.182986	0.173253	-0.830170	-0.038395	0.556187	0.086449	-0.994425	0.060386	0.550767	0.098213	0.828860
51287	5.605096	-0.162829	9.074397	-0.181147	0.078129	0.130439	-0.830480	-0.039738	0.555629	0.086497	-0.994553	0.058155	0.550291	0.096357	0.829394
51288	5.906488	-0.174004	8.504062	-0.129794	-0.128369	0.111071	-0.829669	-0.040673	0.556772	0.086614	-0.994644	0.056406	0.551496	0.095023	0.828748
51289	5.570967	0.346434	8.462616	-0.154462	-0.020034	0.117845	-0.829450	-0.041797	0.557016	0.086702	-0.994744	0.054465	0.551812	0.093471	0.828714
51290	5.922587	-1.220235	9.304752	-0.130529	-0.100835	0.101098	-0.828797	-0.042661	0.557921	0.086726	-0.994834	0.052763	0.552787	0.092116	0.828215
51291	5.808765	-0.532646	8.448844	-0.050603	-0.027821	0.021557	-0.828618	-0.042820	0.558175	0.086588	-0.994875	0.052219	0.553078	0.091601	0.828079
51292	5.436513	0.754473	8.575971	-0.069213	-0.152448	0.011361	-0.827757	-0.042744	0.559457	0.086196	-0.994945	0.051517	0.554427	0.090867	0.827257
51293	5.844510	0.917973	8.169163	-0.075929	-0.060110	0.006309	-0.827411	-0.042722	0.559970	0.085790	-0.995015	0.050849	0.555006	0.090113	0.826951
51294	5.696259	0.702219	8.515402	-0.085438	-0.137103	0.015803	-0.826628	-0.042707	0.561126	0.085346	-0.995096	0.049991	0.556239	0.089214	0.826220
51295	5.869906	0.685375	8.422452	-0.066822	-0.119028	0.011235	-0.825949	-0.042683	0.562127	0.085029	-0.995154	0.049372	0.557296	0.088576	0.825576
51296	5.926194	0.643829	8.485718	-0.042758	-0.122592	0.006858	-0.825252	-0.042595	0.563157	0.084749	-0.995201	0.048919	0.558370	0.088098	0.824901
51297	5.973286	0.498250	8.483146	-0.041997	-0.097855	0.009346	-0.824690	-0.042572	0.563981	0.084554	-0.995237	0.048516	0.559229	0.087697	0.824362
51298	5.931728	0.481073	8.495267	-0.042928	-0.099357	0.014776	-0.824114	-0.042584	0.564821	0.084339	-0.995279	0.048018	0.560110	0.087209	0.823815
51299	6.072325	0.711458	8.397051	-0.044429	-0.079894	0.023189	-0.823639	-0.042716	0.565503	0.084243	-0.995312	0.047517	0.560822	0.086777	0.823376
51300	6.036331	0.593262	8.361839	-0.045627	-0.055421	0.024885	-0.823299	-0.042868	0.565986	0.084097	-0.995351	0.046942	0.561343	0.086245	0.823077
51301	5.981996	0.472924	8.414558	-0.040070	-0.030060	0.027036	-0.823101	-0.043081	0.566259	0.084057	-0.995378	0.046454	0.561640	0.085834	0.822917
51302	5.934193	0.454221	8.396538	-0.040529	-0.023067	0.027138	-0.822940	-0.043285	0.566476	0.083958	-0.995411	0.045909	0.561890	0.085341	0.822798
51303	5.964548	0.203460	8.367052	-0.040903	-0.007998	0.031143	-0.822862	-0.043558	0.566569	0.083947	-0.995436	0.045391	0.562006	0.084913	0.822763
51304	5.972367	0.099705	8.387159	-0.046192	0.023218	0.026770	-0.822962	-0.043797	0.566406	0.083813	-0.995474	0.044802	0.561880	0.084342	0.822908
51305	5.856219	0.393602	8.451467	-0.052834	0.027143	0.024218	-0.823087	-0.044031	0.566206	0.083678	-0.995511	0.044225	0.561717	0.083780	0.823077
51306	5.555610	0.437109	8.523302	-0.046700	0.040924	0.023783	-0.823289	-0.044255	0.565895	0.083516	-0.995550	0.043647	0.561445	0.083196	0.823321
51307	5.300307	0.595688	8.659287	-0.027053	-0.045269	0.011684	-0.823018	-0.044304	0.566285	0.083422	-0.995571	0.043353	0.561856	0.082921	0.823069
51308	6.039614	0.502037	8.308210	-0.013445	-0.076233	0.008868	-0.822574	-0.044282	0.566931	0.083325	-0.995588	0.043135	0.562520	0.082721	0.822635
51309	5.924782	0.142274	8.383161	-0.015845	-0.021213	0.006720	-0.822442	-0.044302	0.567121	0.083253	-0.995602	0.042961	0.562724	0.082548	0.822513
51310	5.731708	0.342717	8.447641	-0.020706	-0.031260	0.006652	-0.822252	-0.044295	0.567397	0.083097	-0.995626	0.042695	0.563024	0.082255	0.822337
51311	5.797186	0.307220	8.463333	-0.018498	-0.035390	0.000323	-0.822046	-0.044239	0.567700	0.082957	-0.995645	0.042536	0.563346	0.082061	0.822136
51312	5.910123	0.357326	8.338313	-0.020208	-0.041500	0.000535	-0.821803	-0.044164	0.568057	0.082753	-0.995672	0.042309	0.563730	0.081778	0.821901
51313	5.855116	0.442226	8.369417	-0.014577	-0.030137	-0.000202	-0.821627	-0.044107	0.568317	0.082631	-0.995687	0.042185	0.564005	0.081621	0.821728
51314	5.936716	0.410965	8.333032	-0.006863	-0.033833	0.000432	-0.821427	-0.044037	0.568611	0.082501	-0.995703	0.042069	0.564314	0.081467	0.821530
51315	5.841685	0.310919	8.420661	-0.000953	-0.023563	-0.001413	-0.821288	-0.043974	0.568816	0.082446	-0.995707	0.042064	0.564525	0.081443	0.821388
51316	5.814405	0.151496	8.388078	0.007720	-0.035102	-0.006606	-0.821087	-0.043833	0.569117	0.082341	-0.995714	0.042107	0.564832	0.081435	0.821178
51317	6.171743	0.017880	8.282787	0.018683	-0.008445	-0.018605	-0.821048	-0.043611	0.569191	0.082256	-0.995711	0.042361	0.564902	0.081600	0.821113
51318	6.061776	0.091652	8.231263	0.008881	0.035185	-0.025400	-0.821259	-0.043340	0.568907	0.082002	-0.995725	0.042520	0.564632	0.081571	0.821302
51319	5.850138	0.142575	8.390640	-0.004917	0.072038	-0.023548	-0.821678	-0.043134	0.568318	0.081742	-0.995742	0.042608	0.564060	0.081465	0.821705
51320	5.949027	0.422751	8.387681	-0.020712	0.060223	-0.016405	-0.822022	-0.042972	0.567831	0.081393	-0.995777	0.042471	0.563608	0.081130	0.822049
51321	5.909324	0.411455	8.357985	-0.036127	0.083540	-0.005231	-0.822490	-0.042958	0.567155	0.081108	-0.995812	0.042198	0.562967	0.080708	0.822530
51322	5.869287	0.400426	8.397904	-0.038671	0.080710	-0.001698	-0.822937	-0.042959	0.566506	0.080780	-0.995854	0.041829	0.562360	0.080186	0.822995
51323	5.756145	0.394885	8.438091	-0.038937	0.085082	0.005433	-0.823404	-0.043051	0.565820	0.080568	-0.995886	0.041473	0.561707	0.079735	0.823485
51324	5.646073	0.515154	8.440281	-0.040471	0.054302	0.005797	-0.823696	-0.043104	0.565391	0.080292	-0.995926	0.041047	0.561318	0.079207	0.823801
51325	5.740198	0.612766	8.423430	-0.034799	0.039447	0.013345	-0.823899	-0.043238	0.565084	0.080168	-0.995951	0.040679	0.561037	0.078817	0.824030
51326	5.592292	0.622658	8.494583	-0.027605	0.014561	0.012841	-0.823962	-0.043331	0.564985	0.080025	-0.995977	0.040321	0.560965	0.078436	0.824115
51327	5.619027	0.450263	8.480729	-0.010924	-0.009237	0.016277	-0.823890	-0.043456	0.565081	0.080059	-0.995982	0.040133	0.561066	0.078305	0.824059
51328	4.800074	0.468051	8.931062	0.008155	-0.058973	0.001902	-0.823550	-0.043382	0.565583	0.080027	-0.995984	0.040133	0.561571	0.078313	0.823714
51329	5.650464	0.255798	8.578423	0.025841	-0.211079	-0.014079	-0.822367	-0.043046	0.567327	0.080017	-0.995974	0.040419	0.563303	0.078635	0.822500
51330	6.248781	0.330073	8.148001	0.032515	-0.146579	-0.015562	-0.821545	-0.042729	0.568541	0.079979	-0.995965	0.040718	0.564507	0.078923	0.821647
51331	5.514604	0.472006	8.523106	0.041548	-0.127749	-0.014581	-0.820827	-0.042453	0.569597	0.080055	-0.995941	0.041136	0.565538	0.079365	0.820894
51332	5.700883	0.372217	8.582769	0.056517	-0.215974	-0.018290	-0.819611	-0.042053	0.571376	0.080132	-0.995914	0.041648	0.567289	0.079921	0.819631
51333	6.253631	0.488490	8.216794	0.055032	-0.179674	-0.018493	-0.818598	-0.041694	0.572852	0.080254	-0.995881	0.042199	0.568733	0.080518	0.818572
51334	5.870577	0.315755	8.371401	0.043925	-0.141273	-0.016621	-0.817798	-0.041369	0.574016	0.080276	-0.995862	0.042598	0.569878	0.080916	0.817735
51335	5.901722	0.250734	8.398685	0.048599	-0.142719	-0.021854	-0.816995	-0.041005	0.575186	0.080335	-0.995835	0.043115	0.571022	0.081432	0.816886
51336	5.816767	0.357864	8.458577	0.046800	-0.142881	-0.022601	-0.816188	-0.040618	0.576357	0.080326	-0.995816	0.043571	0.572176	0.081858	0.816035
51337	5.691179	0.555050	8.534158	0.039560	-0.158941	-0.025058	-0.815290	-0.040208	0.577655	0.080308	-0.995797	0.044033	0.573457	0.082290	0.815093
51338	5.626441	0.867551	8.587088	0.028201	-0.207411	-0.022374	-0.814109	-0.039769	0.579349	0.080196	-0.995793	0.044336	0.575148	0.082556	0.813873
51339	5.516676	0.839042	8.750243	0.014904	-0.256254	-0.015797	-0.812637	-0.039370	0.581438	0.080114	-0.995790	0.044544	0.577237	0.082779	0.812370
51340	5.584133	0.952045	8.730063	-0.013247	-0.339576	-0.014322	-0.810676	-0.038902	0.584201	0.079831	-0.995816	0.044467	0.580027	0.082686	0.810390
51341	5.503392	0.845962	8.784683	-0.030741	-0.390122	-0.003674	-0.808402	-0.038513	0.587369	0.079583	-0.995846	0.044235	0.583226	0.082504	0.808109
51342	5.619511	0.785795	8.587982	-0.046903	-0.438767	-0.002967	-0.805830	-0.038080	0.590922	0.079198	-0.995895	0.043824	0.586827	0.082114	0.805538
51343	5.611509	0.719863	8.738431	-0.062443	-0.481855	0.008734	-0.802978	-0.037742	0.594812	0.078861	-0.995946	0.043265	0.590768	0.081648	0.802699
51344	5.168715	0.962521	8.899110	-0.084939	-0.521866	0.063377	-0.799826	-0.037907	0.599034	0.078780	-0.996000	0.042159	0.595040	0.080911	0.799613
51345	3.180304	1.178250	9.639454	0.070593	-0.567760	0.229569	-0.796244	-0.039701	0.603672	0.080993	-0.995857	0.041337	0.599530	0.081807	0.796161
51346	1.412771	0.026044	11.765453	0.165128	-1.390801	0.257688	-0.787611	-0.041074	0.614803	0.083950	-0.995625	0.041030	0.610428	0.083929	0.787613
51347	4.837390	0.980697	10.495626	0.137382	-1.541389	0.235564	-0.777900	-0.042080	0.626977	0.086601	-0.995414	0.040639	0.622392	0.085910	0.777977
51348	3.459075	-0.179130	10.716867	0.099778	-2.062748	0.270384	-0.764657	-0.042942	0.643005	0.089230	-0.995222	0.039647	0.638230	0.087692	0.764835
51349	5.042047	-0.011400	10.428650	0.116940	-2.328544	0.343305	-0.749271	-0.044261	0.660783	0.092545	-0.994972	0.038293	0.655766	0.089844	0.749599
51350	4.685322	-0.243100	11.574864	-0.029965	-2.778171	0.383698	-0.730405	-0.045533	0.681495	0.095092	-0.994837	0.035448	0.676363	0.090696	0.730964
51351	4.794997	0.871135	11.845263	-0.130422	-3.129281	0.440358	-0.708451	-0.047043	0.704191	0.097323	-0.994756	0.031457	0.699018	0.090820	0.709314
51352	4.835545	0.735540	13.461273	-0.226060	-3.923454	0.557784	-0.679937	-0.049005	0.731631	0.099487	-0.994703	0.025833	0.726490	0.090353	0.681211
51353	6.449870	3.043782	12.883719	-0.037206	-4.584730	0.791363	-0.645110	-0.052658	0.762273	0.104415	-0.994339	0.019677	0.756922	0.092286	0.646956
51354	9.453904	3.690956	14.551421	-0.001739	-5.157954	1.136747	-0.604010	-0.059101	0.794783	0.111411	-0.993716	0.010775	0.789151	0.095056	0.606799
51355	10.058558	4.938513	13.008192	0.008604	-5.144909	1.437146	-0.560956	-0.068371	0.825018	0.119814	-0.992796	-0.000810	0.819130	0.098394	0.565106
51356	11.368977	9.240737	12.343314	-0.002919	-5.314675	1.698476	-0.514552	-0.079869	0.853731	0.128856	-0.991548	-0.015100	0.847722	0.102239	0.520495
51357	8.460137	14.144323	16.712900	-0.929959	-4.796430	2.009663	-0.470666	-0.094978	0.877184	0.130718	-0.990724	-0.037132	0.872574	0.097187	0.478716
51358	14.584823	8.908389	21.785950	-2.056390	-4.500452	1.785082	-0.428646	-0.108602	0.896921	0.120563	-0.990746	-0.062345	0.895392	0.081411	0.437773
51359	20.706203	-2.549217	19.181730	-1.345461	-1.240447	0.452587	-0.416963	-0.112122	0.901982	0.110345	-0.991267	-0.072211	0.902201	0.069420	0.425693
51360	-0.220000	1.167403	19.099074	-0.221404	-0.376209	-0.394157	-0.414017	-0.107902	0.903851	0.106725	-0.991855	-0.069522	0.903991	0.067680	0.422161
51361	-6.593649	2.311022	13.024962	0.399298	0.150819	-0.722926	-0.416141	-0.100805	0.903695	0.107294	-0.992337	-0.061285	0.902948	0.071458	0.423768
51362	-7.634421	4.139836	11.168622	0.408146	-0.175032	-0.543910	-0.415190	-0.095225	0.904737	0.108732	-0.992572	-0.054571	0.903214	0.075717	0.422460
51363	-4.136865	2.403609	12.956402	0.144439	0.064503	-0.185605	-0.415962	-0.093401	0.904573	0.109228	-0.992642	-0.052267	0.902798	0.077064	0.423104
51364	-1.312220	-0.529031	14.419765	0.116420	0.702599	-0.056232	-0.422411	-0.093330	0.901586	0.110061	-0.992606	-0.051187	0.899697	0.077608	0.429560
51365	-0.455875	-2.470978	14.080442	0.410027	1.496475	-0.092062	-0.435915	-0.093568	0.895111	0.113303	-0.992373	-0.048556	0.892827	0.080252	0.443192
51366	-0.747612	-2.186048	12.436434	0.719065	2.146200	-0.126325	-0.455183	-0.094045	0.885418	0.119121	-0.991899	-0.044116	0.882394	0.085391	0.462698
51367	-0.536401	-1.029461	10.990151	0.771402	2.639248	-0.071309	-0.478374	-0.095629	0.872934	0.125506	-0.991294	-0.039816	0.869141	0.090512	0.486211
51368	0.656218	-0.831700	9.946426	0.650675	3.022867	0.030176	-0.504453	-0.098677	0.857782	0.131236	-0.990668	-0.036786	0.853407	0.094015	0.512696
51369	1.991697	-1.516920	9.411255	0.564050	3.387143	0.073277	-0.532944	-0.102594	0.839908	0.136340	-0.990064	-0.034424	0.835094	0.096167	0.541636
51370	3.260993	-2.397707	9.018220	0.604446	3.687235	0.028297	-0.563397	-0.106423	0.819303	0.141441	-0.989453	-0.031262	0.813989	0.098270	0.572507
51371	4.735205	-2.864778	8.626713	0.730186	3.928241	-0.070330	-0.595001	-0.109616	0.796215	0.146852	-0.988806	-0.026389	0.790195	0.101224	0.604439
51372	6.047204	-2.952985	7.787994	0.858299	4.140667	-0.144101	-0.627478	-0.112428	0.770475	0.152579	-0.988090	-0.019921	0.763539	0.105058	0.637159
51373	6.527460	-3.036054	7.060244	0.940638	4.245378	-0.205407	-0.659599	-0.114923	0.742780	0.158266	-0.987321	-0.012217	0.734766	0.109498	0.669424
51374	7.036371	-2.763227	6.783391	0.954376	4.208200	-0.300070	-0.690461	-0.116627	0.713906	0.163029	-0.986615	-0.003503	0.704759	0.113969	0.700232
51375	8.160594	-2.089826	7.224414	0.892859	4.111353	-0.412263	-0.719486	-0.117297	0.684530	0.166240	-0.986069	0.005762	0.674317	0.117941	0.728962
51376	9.342017	-1.516315	7.429498	0.726887	4.046891	-0.537338	-0.747129	-0.116776	0.654340	0.166992	-0.985848	0.014734	0.643360	0.120277	0.756057
51377	9.887803	-0.847750	7.539420	0.542733	3.970057	-0.708352	-0.773228	-0.114551	0.623696	0.164974	-0.986019	0.023430	0.612292	0.121011	0.781316
51378	10.807292	-0.290034	7.863234	0.299911	3.862016	-0.909440	-0.797830	-0.110175	0.592730	0.159517	-0.986699	0.031309	0.581397	0.119530	0.804792
51379	11.804799	-1.118185	8.095430	0.056265	3.787421	-1.149291	-0.821047	-0.103257	0.561444	0.150492	-0.987865	0.038395	0.550666	0.116017	0.826624
51380	11.995164	-1.876060	8.091657	-0.068685	3.680708	-1.325334	-0.842736	-0.094288	0.530006	0.138993	-0.989270	0.045015	0.520074	0.111603	0.846798
51381	12.903721	-2.164593	7.914938	-0.122605	3.508415	-1.313325	-0.862206	-0.085094	0.499359	0.127137	-0.990588	0.050717	0.490343	0.107216	0.864909
51382	15.823544	-2.609611	7.542067	-0.139883	3.320512	-1.227119	-0.879552	-0.076357	0.469635	0.115671	-0.991742	0.055389	0.461528	0.103040	0.881121
51383	18.747037	-2.287500	6.288885	-0.137484	3.160071	-1.137677	-0.894949	-0.068235	0.440920	0.104922	-0.992709	0.059335	0.433657	0.099364	0.895583
51384	20.716156	-1.243069	4.021795	-0.217151	3.004388	-0.999066	-0.908611	-0.061163	0.413141	0.094881	-0.993582	0.061577	0.406724	0.095149	0.908583
51385	20.989468	-0.593030	1.347657	-0.373575	2.814980	-0.804688	-0.920427	-0.055736	0.386920	0.086012	-0.994402	0.061366	0.381334	0.089762	0.920069
51386	19.859676	-0.927240	-1.157016	-0.487085	2.504335	-0.572627	-0.930189	-0.052137	0.363359	0.078802	-0.995146	0.058942	0.358522	0.083461	0.929783
51387	18.088867	-2.708677	-2.742278	-0.380709	2.032415	-0.385002	-0.937577	-0.049921	0.344177	0.073840	-0.995655	0.056734	0.339849	0.078606	0.937189
51388	17.213873	-4.029140	-3.715999	-0.017749	1.427743	-0.270180	-0.942544	-0.048273	0.330576	0.071137	-0.995813	0.057409	0.326420	0.077627	0.942032
51389	11.180753	-6.285623	-6.038294	0.550227	0.439122	-0.327330	-0.944195	-0.045336	0.326252	0.069795	-0.995528	0.063653	0.321907	0.082872	0.943137
51390	14.909516	1.189908	-10.825396	0.852731	-1.246427	-0.596069	-0.940530	-0.038230	0.337554	0.066848	-0.995047	0.073565	0.333069	0.091755	0.938427
51391	15.283589	3.305721	-8.523677	0.170511	-2.092484	-0.396063	-0.933611	-0.032313	0.356829	0.063684	-0.995032	0.076517	0.352584	0.094161	0.931031
51392	11.800259	1.513383	-1.738560	-0.096693	-1.983406	-0.161095	-0.926535	-0.028784	0.375107	0.061743	-0.995183	0.076145	0.371108	0.093711	0.923849
51393	6.674867	3.156076	18.193667	-0.354901	-1.949839	0.241165	-0.918966	-0.029355	0.393242	0.062581	-0.995444	0.071937	0.389338	0.090717	0.916617
51394	15.875793	-2.587816	14.780588	-0.025201	-1.972614	0.220180	-0.910965	-0.029702	0.411414	0.064417	-0.995411	0.070770	0.407424	0.090970	0.908697
51395	3.245114	-2.090017	13.536038	0.058091	-0.464914	-0.218705	-0.909195	-0.027070	0.415490	0.062625	-0.995423	0.072187	0.411635	0.091652	0.906729
51396	0.229259	0.527402	6.176280	0.261699	-1.335305	-0.442952	-0.903884	-0.021356	0.427244	0.059605	-0.995298	0.076350	0.423604	0.094477	0.900907
51397	0.381376	3.484246	5.130405	0.197414	-1.707755	-0.255117	-0.896664	-0.017153	0.442379	0.058120	-0.995162	0.079217	0.438880	0.096742	0.893323
51398	6.645842	2.298545	9.109452	0.015687	-1.999080	-0.015847	-0.887716	-0.015003	0.460146	0.057959	-0.995159	0.079369	0.456728	0.097127	0.884288
51399	10.830438	-0.431781	12.396751	0.010161	-1.858396	-0.075173	-0.879113	-0.012416	0.476452	0.057303	-0.995163	0.079799	0.473156	0.097454	0.875572
51400	12.713632	-0.846446	11.442047	-0.025436	-1.564644	-0.031439	-0.871613	-0.010527	0.490082	0.056817	-0.995201	0.079672	0.486891	0.097288	0.868028
51401	9.502389	-2.625221	10.636446	-0.030162	-1.094062	0.142174	-0.866146	-0.010848	0.499674	0.057864	-0.995218	0.078697	0.496430	0.097076	0.862631
51402	7.396161	-2.047420	10.550383	0.104193	-1.121088	0.107649	-0.860453	-0.010769	0.509415	0.059213	-0.995116	0.078980	0.506077	0.098123	0.856889
51403	7.254366	1.747996	9.375583	0.119618	-1.012756	0.058900	-0.855242	-0.010324	0.518125	0.060289	-0.994995	0.079689	0.514709	0.099391	0.851584
51404	6.178405	2.710788	8.549898	0.042205	-0.929242	0.036571	-0.850390	-0.009706	0.526064	0.060712	-0.994962	0.079783	0.522639	0.099785	0.846694
51405	6.282240	2.623441	8.600048	0.014635	-0.926751	-0.003359	-0.845505	-0.008716	0.533897	0.060720	-0.994951	0.079915	0.530504	0.099986	0.841765
51406	7.543325	1.834313	9.147852	-0.045489	-0.848902	0.056152	-0.840924	-0.008378	0.541088	0.060854	-0.995002	0.079169	0.537720	0.099503	0.837231
51407	9.079358	1.193774	9.406258	-0.202646	-0.697815	0.239884	-0.836997	-0.010047	0.547115	0.061730	-0.995183	0.076162	0.543714	0.097521	0.833585
51408	8.403767	0.145976	8.856974	-0.251621	-0.344517	0.259655	-0.834944	-0.012252	0.550199	0.062438	-0.995406	0.072586	0.546782	0.094958	0.831873
51409	5.778248	0.613819	8.662078	-0.252091	-0.244349	0.246655	-0.833443	-0.014448	0.552416	0.063073	-0.995612	0.069122	0.548994	0.092452	0.830698
51410	6.947030	1.709781	8.546640	-0.422882	-0.342571	0.357928	-0.831316	-0.017655	0.555519	0.063632	-0.995947	0.063571	0.552145	0.088197	0.829070
51411	6.294498	-0.744288	8.852161	-0.416582	-0.072033	0.305435	-0.830716	-0.020605	0.556314	0.063828	-0.996250	0.058411	0.553025	0.084032	0.828916
51412	6.415539	-1.870304	9.129685	-0.312499	-0.216155	0.208955	-0.829371	-0.022461	0.558246	0.063738	-0.996472	0.054600	0.555050	0.080865	0.827877
51413	5.876682	0.030252	8.580868	-0.255645	-0.101368	0.125459	-0.828721	-0.023600	0.559164	0.063317	-0.996650	0.051775	0.556069	0.078311	0.827439
51414	6.343642	0.575141	9.110689	-0.207630	-0.250475	0.086614	-0.827257	-0.024221	0.561301	0.062776	-0.996799	0.049507	0.558306	0.076191	0.826129
51415	6.819956	0.740829	8.009427	-0.096526	-0.069095	0.025327	-0.826848	-0.024390	0.561897	0.062405	-0.996869	0.048559	0.558953	0.075216	0.825781
51416	5.479447	0.824084	8.798761	-0.102080	-0.100279	0.046303	-0.826243	-0.024729	0.562770	0.062117	-0.996943	0.047391	0.559878	0.074114	0.825254
51417	5.683999	0.686640	8.536738	-0.070086	-0.107093	0.037931	-0.825612	-0.024997	0.563684	0.061996	-0.996988	0.046591	0.560821	0.073412	0.824676
51418	5.857736	0.423773	8.689485	-0.050818	-0.146111	0.025134	-0.824762	-0.025093	0.564923	0.061820	-0.997028	0.045968	0.562090	0.072837	0.823862
51419	5.910364	0.907251	8.430393	-0.039190	-0.143089	0.021790	-0.823936	-0.025176	0.566123	0.061738	-0.997054	0.045514	0.563310	0.072452	0.823063
51420	5.872536	0.635666	8.479031	-0.038875	-0.147034	0.032304	-0.823072	-0.025345	0.567371	0.061689	-0.997083	0.044950	0.564576	0.071998	0.822235
51421	6.202646	0.514967	8.366633	-0.032482	-0.140406	0.036396	-0.822249	-0.025576	0.568553	0.061763	-0.997100	0.044468	0.565767	0.071680	0.821444
51422	6.046502	0.337968	8.433091	-0.030869	-0.093246	0.039333	-0.821682	-0.025856	0.569359	0.061817	-0.997120	0.043932	0.566584	0.071294	0.820914
51423	6.052438	0.205367	8.361235	-0.026745	-0.073509	0.032561	-0.821238	-0.026097	0.569989	0.061891	-0.997134	0.043518	0.567220	0.071016	0.820499
51424	6.076715	0.130134	8.324131	-0.026724	-0.045118	0.029249	-0.820949	-0.026311	0.570395	0.061885	-0.997153	0.043073	0.567638	0.070659	0.820240
51425	5.924817	0.236208	8.408423	-0.030875	-0.020922	0.027568	-0.820806	-0.026540	0.570591	0.061894	-0.997171	0.042654	0.567845	0.070327	0.820126
51426	5.893585	0.348657	8.336446	-0.030575	-0.030033	0.022540	-0.820606	-0.026698	0.570870	0.061810	-0.997195	0.042214	0.568142	0.069926	0.819954
51427	5.944540	0.231503	8.319197	-0.032007	-0.013667	0.020410	-0.820508	-0.026861	0.571003	0.061753	-0.997215	0.041826	0.568289	0.069580	0.819882
51428	5.793774	0.262552	8.388848	-0.031332	-0.011008	0.016113	-0.820421	-0.026968	0.571123	0.061611	-0.997241	0.041417	0.568431	0.069167	0.819819
51429	5.941480	0.375120	8.350051	-0.032391	-0.019279	0.014098	-0.820295	-0.027064	0.571300	0.061501	-0.997262	0.041062	0.568624	0.068819	0.819714
51430	5.919289	0.390289	8.332118	-0.032842	-0.007490	0.012148	-0.820230	-0.027134	0.571389	0.061318	-0.997290	0.040663	0.568737	0.068389	0.819671
51431	5.814363	0.383380	8.402268	-0.041299	-0.005139	0.012355	-0.820186	-0.027223	0.571449	0.061142	-0.997317	0.040245	0.568820	0.067948	0.819650
51432	5.865634	0.393743	8.418101	-0.030723	-0.021186	0.009972	-0.820045	-0.027262	0.571650	0.060953	-0.997344	0.039876	0.569044	0.067544	0.819528
51433	5.927875	0.355147	8.226878	-0.023326	-0.017620	0.006101	-0.819933	-0.027280	0.571809	0.060828	-0.997361	0.039641	0.569218	0.067285	0.819429
51434	5.865214	0.133676	8.281700	-0.013973	-0.009021	0.000927	-0.819866	-0.027237	0.571907	0.060661	-0.997378	0.039461	0.569332	0.067045	0.819369
51435	5.659121	0.179335	8.473225	-0.005111	-0.004698	-0.014061	-0.819841	-0.027063	0.571952	0.060475	-0.997388	0.039491	0.569389	0.066965	0.819336
51436	5.325920	0.494961	8.609989	0.019558	-0.046519	-0.026131	-0.819577	-0.026725	0.572346	0.060275	-0.997390	0.039740	0.569790	0.067068	0.819049
51437	5.682308	0.265374	8.465470	0.045826	-0.128211	-0.034868	-0.818859	-0.026260	0.573394	0.060209	-0.997372	0.040306	0.570828	0.067529	0.818288
51438	6.003830	0.433054	8.348013	0.050536	-0.110628	-0.043839	-0.818239	-0.025702	0.574304	0.060042	-0.997357	0.040910	0.571735	0.067957	0.817619
51439	5.854231	0.371402	8.413742	0.053854	-0.111197	-0.046062	-0.817622	-0.025136	0.575206	0.059932	-0.997335	0.041607	0.572627	0.068492	0.816950
51440	6.084769	0.539804	8.279770	0.048541	-0.115830	-0.037881	-0.816967	-0.024633	0.576159	0.059804	-0.997319	0.042161	0.573576	0.068901	0.816250
51441	6.042201	0.734447	8.340090	0.038568	-0.096838	-0.022175	-0.816416	-0.024314	0.576952	0.059802	-0.997301	0.042595	0.574359	0.069278	0.815667
51442	6.025397	0.502731	8.286214	0.029852	-0.104344	-0.013150	-0.815809	-0.024065	0.577820	0.059773	-0.997292	0.042856	0.575224	0.069500	0.815038
51443	6.057092	0.157371	8.216578	0.036845	-0.082305	-0.011601	-0.815335	-0.023861	0.578498	0.059848	-0.997272	0.043215	0.575888	0.069856	0.814539
51444	5.954994	-0.019691	8.303512	0.043036	-0.071492	-0.022668	-0.814922	-0.023540	0.579093	0.059817	-0.997255	0.043638	0.576476	0.070201	0.814093
51445	5.980043	0.042119	8.298561	0.048385	-0.047853	-0.034612	-0.814659	-0.023130	0.579479	0.059771	-0.997232	0.044224	0.576852	0.070664	0.813786
51446	5.713724	0.330174	8.521247	0.042951	-0.043463	-0.043612	-0.814419	-0.022619	0.579837	0.059568	-0.997220	0.044766	0.577212	0.070998	0.813502
51447	5.512551	0.887053	8.563628	0.035829	-0.096131	-0.042022	-0.813881	-0.022101	0.580611	0.059390	-0.997207	0.045293	0.577989	0.071345	0.812920
51448	5.465098	1.104111	8.587949	0.031597	-0.172277	-0.031055	-0.812887	-0.021623	0.582020	0.059226	-0.997199	0.045671	0.579402	0.071596	0.811891
51449	5.610124	0.838498	8.491279	0.028453	-0.256343	-0.021237	-0.811404	-0.021196	0.584101	0.059176	-0.997186	0.046017	0.581482	0.071903	0.810375
51450	5.932864	0.595530	8.385198	0.027768	-0.296359	-0.016504	-0.809672	-0.020774	0.586515	0.059112	-0.997178	0.046283	0.583898	0.072144	0.808615
51451	6.035207	0.618477	8.209462	0.013304	-0.284373	-0.012317	-0.808008	-0.020415	0.588818	0.059047	-0.997174	0.046454	0.586205	0.072304	0.806930
51452	5.668730	0.385660	8.451775	0.004803	-0.297018	-0.014005	-0.806256	-0.020018	0.591228	0.058872	-0.997181	0.046521	0.588630	0.072315	0.805162
51453	5.740670	0.452512	8.655252	0.007995	-0.341766	-0.018558	-0.804243	-0.019554	0.593979	0.058727	-0.997182	0.046688	0.591392	0.072431	0.803125
51454	5.792851	0.889877	8.624496	-0.015019	-0.403611	-0.009665	-0.801840	-0.019123	0.597233	0.058470	-0.997202	0.046571	0.594671	0.072262	0.800715
51455	6.076058	0.677973	8.438375	-0.037272	-0.404565	0.000242	-0.799419	-0.018803	0.600479	0.058206	-0.997232	0.046263	0.597947	0.071935	0.798301
51456	5.970235	0.811765	8.521575	-0.063494	-0.425828	0.008789	-0.796846	-0.018544	0.603898	0.057807	-0.997283	0.045653	0.601411	0.071288	0.795753
51457	5.723024	1.333092	8.640417	-0.070168	-0.439396	0.057889	-0.794154	-0.018779	0.607427	0.057801	-0.997325	0.044737	0.604962	0.070638	0.793115
51458	4.833608	1.616053	9.390437	-0.121534	-0.522481	0.116627	-0.790900	-0.019536	0.611634	0.057902	-0.997395	0.043016	0.609200	0.069437	0.789971
51459	1.244849	1.193416	11.024363	0.097001	-0.697135	0.261815	-0.786470	-0.021628	0.617249	0.060517	-0.997276	0.042165	0.614656	0.070516	0.785637
51460	4.819007	-0.071175	10.368096	0.151447	-1.599283	0.241302	-0.776379	-0.022854	0.629852	0.063262	-0.997121	0.041799	0.627083	0.072298	0.775590
51461	3.098459	0.701053	10.676478	0.058332	-1.541156	0.242294	-0.766459	-0.024117	0.641840	0.065457	-0.997025	0.040702	0.638949	0.073209	0.765757
51462	4.723762	-0.404396	10.530980	0.097817	-2.186925	0.266768	-0.752116	-0.025123	0.658552	0.068030	-0.996894	0.039666	0.655510	0.074635	0.751490
51463	4.710774	-0.358824	10.644144	0.002037	-2.434969	0.330258	-0.735696	-0.026559	0.676791	0.070457	-0.996811	0.037472	0.673638	0.075253	0.735221
51464	5.427542	-0.530306	11.059965	-0.108374	-2.843337	0.317106	-0.716013	-0.027550	0.697543	0.071926	-0.996815	0.034459	0.694372	0.074845	0.715714
51465	4.392945	0.469317	12.155849	-0.292462	-3.313389	0.348688	-0.692352	-0.028549	0.720995	0.072272	-0.996936	0.029925	0.717931	0.072826	0.692294
51466	6.530994	0.461247	11.645024	-0.208447	-4.146074	0.398121	-0.661703	-0.029488	0.749186	0.073344	-0.996980	0.025538	0.746170	0.071847	0.661868
51467	6.635923	2.582737	12.874417	-0.193471	-4.604666	0.603807	-0.626192	-0.032181	0.779005	0.075716	-0.996935	0.019679	0.775984	0.071306	0.626709
51468	8.846584	4.481906	15.701139	-0.208737	-5.107409	0.858027	-0.585092	-0.037079	0.810119	0.079167	-0.996794	0.011554	0.807094	0.070895	0.586152
51469	9.998223	4.378565	15.022371	-0.416506	-5.242095	1.108166	-0.541086	-0.044432	0.839793	0.081941	-0.996637	0.000065	0.836966	0.068848	0.542907
51470	9.430049	5.425746	12.809017	-0.508263	-5.304732	1.317596	-0.494847	-0.053954	0.867304	0.084369	-0.996338	-0.013844	0.864875	0.066323	0.497587
51471	10.287677	11.216904	15.274082	-0.839290	-5.421199	1.485477	-0.445974	-0.065269	0.892663	0.083945	-0.995992	-0.030885	0.891101	0.061161	0.449666
51472	5.993372	13.628381	23.139817	-1.906053	-4.762958	1.522281	-0.401821	-0.077852	0.912403	0.073179	-0.995923	-0.052751	0.912790	0.045572	0.405880
51473	35.130088	-3.540259	20.251687	-1.716919	-2.809547	0.576728	-0.375608	-0.082495	0.923100	0.059602	-0.996119	-0.064769	0.924860	0.030691	0.379067
51474	1.381347	3.199199	24.253857	-0.566884	0.297246	-0.576713	-0.378700	-0.076777	0.922329	0.052194	-0.996739	-0.061540	0.924047	0.024834	0.381472
51475	-5.457819	2.491135	14.405960	-0.040236	0.445892	-0.895903	-0.383254	-0.067923	0.921142	0.048367	-0.997400	-0.053422	0.922376	0.024079	0.385542
51476	-9.423260	4.512338	11.329266	0.034237	-0.100140	-0.811739	-0.382754	-0.059741	0.921917	0.045589	-0.997913	-0.045739	0.922725	0.024523	0.384678
51477	-5.063414	2.637171	12.661128	-0.278784	0.035327	-0.402793	-0.383241	-0.055699	0.921967	0.041432	-0.998212	-0.043083	0.922719	0.021688	0.384863
51478	-1.769636	-0.353445	14.304260	-0.314828	0.584918	-0.128577	-0.388740	-0.054468	0.919736	0.038062	-0.998348	-0.043036	0.920561	0.018277	0.390171
51479	-0.413765	-2.128874	14.245678	-0.025845	1.395797	0.000006	-0.401537	-0.054685	0.914209	0.037783	-0.998355	-0.043124	0.915063	0.017226	0.402943
51480	-0.508943	-1.768146	12.811995	0.339898	2.153808	0.080758	-0.421189	-0.055829	0.905253	0.041224	-0.998251	-0.042384	0.906035	0.019466	0.422754
51481	-0.833572	-0.602620	11.031896	0.503181	2.732764	0.200746	-0.445684	-0.058382	0.893284	0.046581	-0.998032	-0.041987	0.893977	0.022897	0.447527
51482	-0.472939	-0.143384	9.761289	0.493624	3.159300	0.324531	-0.473618	-0.062342	0.878521	0.052451	-0.997718	-0.042524	0.879167	0.025939	0.475807
51483	0.569610	-0.362405	9.010167	0.468184	3.504417	0.382981	-0.503902	-0.067083	0.861152	0.058356	-0.997346	-0.043546	0.861787	0.028311	0.506479
51484	1.730310	-0.505001	8.536362	0.504454	3.788046	0.350656	-0.536043	-0.071653	0.841144	0.064472	-0.996956	-0.043840	0.841725	0.030731	0.539031
51485	2.979346	-1.066276	8.172454	0.591948	4.057097	0.272572	-0.569539	-0.075646	0.818476	0.070852	-0.996568	-0.042803	0.818905	0.033613	0.572944
51486	4.125436	-3.107145	7.837044	0.830458	4.261508	0.167046	-0.603859	-0.078809	0.793186	0.078515	-0.996142	-0.039200	0.793215	0.038606	0.607717
51487	5.401034	-4.890917	7.243127	1.276254	4.394848	0.064764	-0.638038	-0.081322	0.765699	0.088818	-0.995543	-0.031723	0.764865	0.047767	0.642417
51488	6.230186	-4.972157	7.065298	1.733509	4.390540	-0.029879	-0.671074	-0.083384	0.736687	0.101581	-0.994625	-0.020046	0.734399	0.061381	0.675937
51489	7.770165	-3.360960	7.644895	1.942067	4.287306	-0.090877	-0.701979	-0.085418	0.707056	0.114872	-0.993362	-0.005958	0.702872	0.077039	0.707132
51490	10.235451	-1.865775	8.918499	1.808828	4.220967	-0.172106	-0.731258	-0.087223	0.676501	0.125995	-0.991996	0.008292	0.670363	0.091299	0.736395
51491	12.613381	-0.880367	9.890613	1.457098	4.311947	-0.332967	-0.759860	-0.088057	0.644095	0.132990	-0.990886	0.021424	0.636338	0.101938	0.764645
51492	13.286315	-0.681012	10.129472	0.999559	4.487556	-0.545846	-0.788417	-0.087315	0.608913	0.134870	-0.990326	0.032622	0.600174	0.107844	0.792566
51493	13.305841	-1.619352	9.420868	0.588066	4.584281	-0.793757	-0.816128	-0.084408	0.571673	0.131878	-0.990374	0.042040	0.562622	0.109701	0.819404
51494	13.606356	-2.543133	8.505235	0.310831	4.515291	-1.034221	-0.842073	-0.079054	0.533538	0.124911	-0.990891	0.050326	0.524700	0.109023	0.844277
51495	14.671117	-2.901122	7.519265	0.096296	4.337576	-1.147752	-0.865407	-0.072322	0.495824	0.115556	-0.991661	0.057046	0.487564	0.106663	0.866548
51496	16.857463	-2.483664	6.278905	-0.102110	4.107756	-1.137957	-0.886006	-0.065277	0.459055	0.105018	-0.992564	0.061549	0.451624	0.102742	0.886273
51497	19.002907	-1.399717	4.554652	-0.338476	3.892132	-1.053026	-0.903960	-0.058674	0.423573	0.094081	-0.993560	0.063152	0.417140	0.096937	0.903658
51498	20.393063	-0.534343	2.469754	-0.601852	3.661842	-0.915701	-0.919483	-0.052911	0.389553	0.083225	-0.994641	0.061343	0.384219	0.088825	0.918959
51499	20.384768	-1.012880	0.397025	-0.743700	3.347367	-0.778671	-0.932442	-0.047951	0.358123	0.073230	-0.995665	0.057353	0.353820	0.079703	0.931911
51500	18.988153	-2.099658	-1.362051	-0.642335	2.861423	-0.675157	-0.942678	-0.043337	0.330879	0.064627	-0.996468	0.053611	0.327387	0.071922	0.942149
51501	9.130499	-7.186902	-5.622259	0.266681	1.106095	-0.998569	-0.946839	-0.034162	0.319888	0.056013	-0.996664	0.059357	0.316793	0.074120	0.945594
51502	22.194958	2.683265	-14.244464	0.792621	-0.676311	-1.458586	-0.945426	-0.019027	0.325281	0.044647	-0.996442	0.071478	0.322764	0.082100	0.942912
51503	17.226234	5.538279	-9.920755	0.057244	-1.426534	-1.393222	-0.941253	-0.003936	0.337680	0.031653	-0.996558	0.076615	0.336216	0.082802	0.938138
51504	20.337358	1.448148	-9.640578	-0.401612	-2.097250	-1.296747	-0.934320	0.010727	0.356274	0.018041	-0.996843	0.077325	0.355978	0.078674	0.931177
51505	19.363358	-1.854312	-6.995016	-0.172190	-2.847135	-1.404516	-0.923958	0.026966	0.381542	0.004314	-0.996713	0.080893	0.382469	0.076388	0.920805
51506	11.734715	5.378197	6.112499	0.048199	-2.379685	-1.326920	-0.914565	0.042041	0.402247	-0.007747	-0.996221	0.086506	0.404364	0.076000	0.911435
51507	14.621409	3.977382	17.233569	-0.474259	-2.466091	-0.564974	-0.904246	0.049502	0.424133	-0.014897	-0.996310	0.084524	0.426752	0.070112	0.901647
51508	13.249253	-3.009105	15.256073	-0.557016	-1.000706	-0.357364	-0.899855	0.053760	0.432863	-0.020553	-0.996499	0.081036	0.435704	0.064024	0.897810
51509	-2.161671	-5.938663	9.949623	-0.317220	-0.821327	-0.579548	-0.896101	0.060077	0.439767	-0.027192	-0.996367	0.080705	0.443017	0.060362	0.894479
51510	0.477456	-3.142279	5.283329	0.043971	-2.127851	-0.534362	-0.886300	0.066716	0.458282	-0.031820	-0.996003	0.083459	0.462018	0.059387	0.884880
51511	6.971564	-0.273366	9.191582	0.008108	-2.173275	-0.029295	-0.876032	0.068314	0.477390	-0.032081	-0.995978	0.083653	0.481185	0.057967	0.874701
51512	16.185357	-3.853049	15.043555	-0.010039	-2.371290	0.206523	-0.864425	0.067656	0.498189	-0.030411	-0.996126	0.082510	0.501841	0.056173	0.863134
51513	15.890161	-3.788068	12.446218	0.137909	-1.078682	-0.038250	-0.858941	0.068677	0.507449	-0.030085	-0.996022	0.083876	0.511191	0.056778	0.857590
51514	8.689043	-2.136980	9.636565	0.220323	-0.841573	0.024214	-0.854592	0.068977	0.514698	-0.028852	-0.995915	0.085561	0.518497	0.058270	0.853092
51515	6.094918	-1.510787	9.878399	0.291739	-0.767560	0.074780	-0.850599	0.068719	0.521306	-0.026735	-0.995793	0.087644	0.525135	0.060613	0.848857
51516	4.493878	1.455241	8.672171	0.302742	-0.840930	-0.040003	-0.846117	0.069697	0.528420	-0.025598	-0.995583	0.090328	0.532382	0.062902	0.844164
51517	3.644304	5.420433	8.159020	0.114716	-0.999301	0.085707	-0.840767	0.069506	0.536918	-0.024302	-0.995570	0.090825	0.540852	0.063314	0.838731
51518	8.936077	7.636138	8.380729	-0.392075	-1.247750	0.442753	-0.834034	0.065909	0.547762	-0.022844	-0.996113	0.085074	0.551240	0.058441	0.832298
51519	11.810736	7.868201	7.233587	-1.007487	-0.564284	0.746123	-0.831070	0.058804	0.553051	-0.022252	-0.997114	0.072582	0.555723	0.048014	0.829980
51520	4.281815	0.768133	8.454381	-1.010370	0.109158	0.723548	-0.831811	0.051578	0.552657	-0.021914	-0.997949	0.060153	0.554626	0.037925	0.831235
51521	8.495628	-4.536493	10.727475	-0.770326	-0.652765	0.603073	-0.828294	0.045810	0.558418	-0.021245	-0.998503	0.050401	0.559891	0.029884	0.828027
51522	6.671824	-2.438068	9.420698	-0.391777	-0.154627	0.295112	-0.827465	0.042949	0.559872	-0.021081	-0.998744	0.045458	0.561121	0.025812	0.827331
51523	7.353588	-1.259578	9.297194	-0.108604	-0.532282	0.088620	-0.824476	0.042228	0.564320	-0.021005	-0.998808	0.044053	0.565507	0.024467	0.824380
51524	6.344675	0.911586	7.833771	-0.123234	-0.078681	0.062182	-0.824018	0.041672	0.565029	-0.021287	-0.998864	0.042624	0.566163	0.023095	0.823970
51525	6.130259	-0.445342	8.725199	-0.064018	-0.193153	0.033177	-0.822920	0.041415	0.566645	-0.021420	-0.998892	0.041899	0.567753	0.022342	0.822896
51526	6.288303	0.283633	8.319871	-0.050407	-0.094193	0.009211	-0.822361	0.041390	0.567458	-0.021729	-0.998908	0.041369	0.568550	0.021690	0.822363
51527	6.085306	0.512249	8.444942	-0.055968	-0.053272	0.004459	-0.822050	0.041387	0.567910	-0.022055	-0.998921	0.040874	0.568989	0.021075	0.822075
51528	5.806676	0.533531	8.601511	-0.044322	-0.047559	0.001438	-0.821753	0.041429	0.568335	-0.022393	-0.998931	0.040439	0.569403	0.020504	0.821803
51529	6.013988	0.785988	8.465473	-0.037358	-0.052438	0.002694	-0.821445	0.041443	0.568779	-0.022627	-0.998939	0.040106	0.569838	0.020075	0.821512
51530	5.945058	0.625958	8.510909	-0.038383	-0.050811	0.009505	-0.821132	0.041403	0.569235	-0.022864	-0.998951	0.039677	0.570280	0.019565	0.821217
51531	5.956918	0.704794	8.441438	-0.031058	-0.046454	0.014058	-0.820860	0.041302	0.569634	-0.022970	-0.998962	0.039331	0.570667	0.019201	0.820957
51532	6.008442	0.564770	8.364972	-0.031298	-0.053251	0.024018	-0.820536	0.041117	0.570114	-0.023045	-0.998978	0.038879	0.571130	0.018763	0.820645
51533	5.874433	0.431651	8.464394	-0.028369	-0.028727	0.033227	-0.820369	0.040821	0.570375	-0.022978	-0.998996	0.038447	0.571372	0.018434	0.820484
51534	5.982677	0.387663	8.407771	-0.037031	-0.048991	0.032673	-0.820071	0.040547	0.570823	-0.023015	-0.999017	0.037899	0.571799	0.017942	0.820198
51535	6.032502	0.246733	8.297218	-0.048669	-0.027777	0.039192	-0.819911	0.040191	0.571078	-0.023016	-0.999040	0.037266	0.572028	0.017411	0.820049
51536	6.200968	0.019905	8.131700	-0.047676	-0.002496	0.035862	-0.819879	0.039877	0.571146	-0.023087	-0.999063	0.036613	0.572071	0.016832	0.820032
51537	5.997336	0.017374	8.257157	-0.046448	0.051583	0.028023	-0.820171	0.039619	0.570745	-0.023167	-0.999081	0.036061	0.571649	0.016354	0.820335
51538	5.712803	0.348250	8.430357	-0.049043	0.052952	0.021164	-0.820452	0.039444	0.570353	-0.023368	-0.999097	0.035479	0.571237	0.015781	0.820633
51539	5.774636	0.365679	8.432741	-0.046089	0.030060	0.018022	-0.820618	0.039289	0.570125	-0.023527	-0.999111	0.034988	0.570992	0.015298	0.820813
51540	5.820367	0.328441	8.363461	-0.042454	0.016840	0.013632	-0.820692	0.039195	0.570026	-0.023752	-0.999122	0.034503	0.570878	0.014778	0.820902
51541	5.867671	0.289500	8.362705	-0.035152	0.014329	0.015222	-0.820767	0.039071	0.569925	-0.023871	-0.999133	0.034118	0.570764	0.014398	0.820988
51542	5.954825	0.241614	8.291878	-0.032293	0.012951	0.009177	-0.820817	0.039022	0.569856	-0.024074	-0.999141	0.033742	0.570683	0.013977	0.821051
51543	5.880852	0.289017	8.347711	-0.031608	0.030951	0.007479	-0.820986	0.038973	0.569617	-0.024237	-0.999147	0.033429	0.570434	0.013639	0.821230
51544	5.807717	0.492575	8.391661	-0.026127	0.016474	0.007279	-0.821055	0.038943	0.569519	-0.024420	-0.999153	0.033115	0.570326	0.013282	0.821311
51545	5.653831	0.564487	8.448419	-0.017375	-0.003370	0.006768	-0.821028	0.038906	0.569561	-0.024507	-0.999157	0.032923	0.570362	0.013072	0.821290
51546	5.784786	0.453384	8.424595	-0.009341	-0.039733	0.004516	-0.820777	0.038909	0.569923	-0.024615	-0.999160	0.032764	0.570719	0.012863	0.821045
51547	5.770060	0.345406	8.367204	0.000830	-0.033375	0.004512	-0.820577	0.038899	0.570210	-0.024618	-0.999161	0.032735	0.571005	0.012824	0.820846
51548	5.393791	0.285477	8.540015	0.014272	-0.069518	-0.003789	-0.820153	0.038989	0.570814	-0.024658	-0.999157	0.032818	0.571612	0.012840	0.820423
51549	5.498253	0.116008	8.492607	0.031740	-0.135032	-0.020119	-0.819366	0.039238	0.571927	-0.024686	-0.999144	0.033182	0.572739	0.013070	0.819633
51550	6.197908	0.082859	8.247994	0.044138	-0.146510	-0.027895	-0.818493	0.039580	0.573151	-0.024753	-0.999127	0.033647	0.573983	0.013353	0.818759
51551	6.128619	0.422405	8.253235	0.042501	-0.086150	-0.031568	-0.817981	0.039937	0.573858	-0.024812	-0.999108	0.034166	0.574710	0.013709	0.818242
51552	5.926822	0.505195	8.392478	0.044374	-0.079068	-0.027831	-0.817493	0.040269	0.574529	-0.024875	-0.999090	0.034633	0.575401	0.014020	0.817751
51553	5.746083	0.314082	8.453804	0.045479	-0.078708	-0.029721	-0.817023	0.040608	0.575174	-0.024901	-0.999071	0.035165	0.576068	0.014408	0.817275
51554	5.874351	0.391834	8.344526	0.055418	-0.108383	-0.036547	-0.816363	0.041032	0.576080	-0.024970	-0.999048	0.035773	0.576999	0.014819	0.816610
51555	5.915800	0.462438	8.321993	0.060208	-0.107549	-0.036907	-0.815723	0.041447	0.576957	-0.024968	-0.999023	0.036466	0.577904	0.015341	0.815960
51556	5.472471	0.409674	8.496064	0.070489	-0.109440	-0.036465	-0.815055	0.041871	0.577869	-0.024948	-0.998996	0.037198	0.578847	0.015902	0.815281
51557	5.857671	0.343156	8.424727	0.079831	-0.191082	-0.043330	-0.813926	0.042366	0.579422	-0.024882	-0.998965	0.038088	0.580435	0.016584	0.814137
51558	6.201844	0.499661	8.220154	0.068130	-0.160084	-0.040676	-0.812960	0.042841	0.580742	-0.024907	-0.998936	0.038825	0.581787	0.017099	0.813162
51559	6.175396	0.516596	8.280814	0.056283	-0.144199	-0.027576	-0.812103	0.043172	0.581915	-0.024848	-0.998913	0.039432	0.582985	0.017564	0.812293
51560	6.065625	0.659708	8.314321	0.044231	-0.115185	-0.016955	-0.811401	0.043404	0.582876	-0.024815	-0.998898	0.039838	0.583963	0.017860	0.811584
51561	5.969832	0.704685	8.293481	0.033050	-0.133488	-0.002979	-0.810610	0.043488	0.583970	-0.024691	-0.998890	0.040113	0.585066	0.018097	0.810784
51562	5.825329	0.628118	8.253056	0.027941	-0.143388	0.007077	-0.809746	0.043484	0.585168	-0.024556	-0.998888	0.040248	0.586267	0.018221	0.809913
51563	5.431076	0.556768	8.496617	0.041854	-0.173920	0.005266	-0.808716	0.043494	0.586589	-0.024313	-0.998882	0.040545	0.587697	0.018528	0.808869
51564	5.482270	0.485444	8.723078	0.058378	-0.269327	-0.003459	-0.807103	0.043620	0.588796	-0.024082	-0.998869	0.040988	0.589919	0.018903	0.807241
51565	5.357790	0.926703	8.757704	0.039363	-0.339647	0.000565	-0.805085	0.043709	0.591547	-0.023889	-0.998861	0.041292	0.592678	0.019112	0.805213
51566	5.784681	0.318720	8.670603	0.022961	-0.415431	0.006313	-0.802592	0.043765	0.594921	-0.023785	-0.998860	0.041393	0.596054	0.019071	0.802718
51567	5.843401	0.770484	8.552868	0.003352	-0.429554	0.014909	-0.800017	0.043728	0.598381	-0.023691	-0.998865	0.041321	0.599509	0.018881	0.800145
51568	6.187689	0.825812	8.443682	-0.033364	-0.469230	0.029927	-0.797178	0.043555	0.602172	-0.023734	-0.998884	0.040829	0.603278	0.018256	0.797322
51569	5.573826	1.116729	8.822479	-0.084681	-0.445409	0.057741	-0.794486	0.043088	0.605752	-0.023832	-0.998924	0.039797	0.606815	0.017182	0.794657
51570	5.015135	1.703914	9.678545	-0.161328	-0.570721	0.083995	-0.791005	0.042379	0.610340	-0.024228	-0.998985	0.037965	0.611330	0.015244	0.791229
51571	1.206415	1.055223	10.733191	0.039121	-0.684248	0.240151	-0.786849	0.040115	0.615841	-0.022138	-0.999078	0.036793	0.616749	0.015317	0.787011
51572	3.697988	0.312444	11.222349	0.151381	-1.739591	0.287747	-0.776038	0.037549	0.629567	-0.019019	-0.999165	0.036149	0.630399	0.016079	0.776104
51573	3.575976	0.291138	10.614102	0.037417	-1.672462	0.248336	-0.765420	0.035365	0.642558	-0.016913	-0.999249	0.034850	0.643308	0.015807	0.765444
51574	4.617733	-0.327320	10.340943	0.073590	-2.356604	0.279196	-0.750073	0.032980	0.660532	-0.014392	-0.999333	0.033554	0.661198	0.015662	0.750048
51575	5.497685	-0.373166	10.328047	-0.037034	-2.518000	0.322950	-0.733220	0.030163	0.679322	-0.012291	-0.999440	0.031110	0.679880	0.014461	0.733181
51576	5.212282	-0.597662	10.981742	-0.182354	-2.896617	0.313900	-0.713242	0.027437	0.700381	-0.011359	-0.999555	0.027589	0.700826	0.011722	0.713236
51577	4.923033	0.170148	11.544457	-0.305655	-3.391879	0.325729	-0.689091	0.024542	0.724259	-0.011300	-0.999669	0.023123	0.724587	0.007750	0.689140
51578	7.020179	0.615751	10.581306	-0.218918	-4.054596	0.389674	-0.659182	0.020925	0.751692	-0.010373	-0.999771	0.018735	0.751912	0.004553	0.659248
51579	6.787219	2.670822	11.684939	-0.242260	-4.352536	0.553181	-0.625881	0.015551	0.779763	-0.008720	-0.999878	0.012942	0.779870	0.001301	0.625941
51580	8.835739	3.543200	13.132470	-0.261423	-4.783262	0.792544	-0.587925	0.007636	0.808879	-0.006062	-0.999969	0.005034	0.808893	-0.001944	0.587953
51581	9.098259	3.669276	12.681171	-0.442297	-4.944203	1.017041	-0.547267	-0.002715	0.836954	-0.003975	-0.999975	-0.005843	0.836948	-0.006524	0.547243
51582	9.759817	3.744303	10.840731	-0.503553	-5.066095	1.222097	-0.504214	-0.015357	0.863442	-0.001887	-0.999820	-0.018885	0.863577	-0.011151	0.504094
51583	11.014659	7.298421	11.480838	-0.645654	-5.221004	1.432710	-0.458463	-0.030373	0.888194	-0.000693	-0.999403	-0.034533	0.888713	-0.016448	0.458168
51584	9.841734	9.684525	12.289011	-1.456085	-4.965742	1.758391	-0.413843	-0.049031	0.909027	-0.006146	-0.998375	-0.056648	0.910328	-0.029030	0.412869
51585	6.306151	13.040444	16.512630	-2.524860	-4.849389	1.835727	-0.369478	-0.069265	0.926654	-0.022224	-0.996274	-0.083330	0.928974	-0.051383	0.366562
51586	28.989998	-2.171698	17.853752	-2.699483	-3.062855	0.930449	-0.341179	-0.080399	0.936554	-0.044088	-0.993870	-0.101380	0.938964	-0.075879	0.335543
51587	6.887873	-0.340931	22.717918	-1.367196	-0.296466	-0.158344	-0.338298	-0.079041	0.937714	-0.057509	-0.992867	-0.104438	0.939280	-0.089258	0.331339
51588	0.453576	-2.151073	16.529161	-0.155774	0.500326	-0.525854	-0.342699	-0.073288	0.936582	-0.060709	-0.993141	-0.099927	0.937482	-0.091104	0.335899
51589	-5.846983	1.589657	11.912998	0.593145	0.688754	-0.578409	-0.348791	-0.066903	0.934809	-0.057197	-0.994070	-0.092485	0.935453	-0.085726	0.342896
51590	-6.377907	3.037968	10.490038	0.679144	0.688970	-0.126863	-0.355197	-0.064993	0.932529	-0.051244	-0.994726	-0.088847	0.933386	-0.079344	0.349993
51591	-3.720717	1.867301	10.851494	0.528531	0.798032	0.361988	-0.362793	-0.067951	0.929389	-0.045061	-0.994892	-0.090330	0.930780	-0.074650	0.357878
51592	-0.426036	-0.576748	11.680081	0.570466	1.198650	0.640790	-0.374238	-0.073376	0.924425	-0.037334	-0.994864	-0.094081	0.926581	-0.069721	0.369577
51593	1.843578	-1.956653	11.654691	0.889336	1.774924	0.724864	-0.390842	-0.079387	0.917028	-0.026393	-0.994898	-0.097377	0.920079	-0.062262	0.386753
51594	2.446342	-1.330263	10.787013	1.223072	2.374236	0.692131	-0.412773	-0.084840	0.906874	-0.012351	-0.995040	-0.098710	0.910750	-0.051946	0.409678
51595	2.279829	-0.291861	9.658568	1.367979	2.839612	0.617476	-0.438482	-0.089638	0.894259	0.002611	-0.995137	-0.098470	0.898736	-0.040843	0.436583
51596	2.271754	0.192780	8.592552	1.336086	3.146484	0.515444	-0.466556	-0.093578	0.879527	0.016916	-0.995150	-0.096907	0.884330	-0.030334	0.465876
51597	2.756865	0.031236	8.028497	1.236730	3.340938	0.365361	-0.495733	-0.096323	0.863117	0.029466	-0.995124	-0.094131	0.867975	-0.021231	0.496154
51598	3.660358	-0.389318	7.766848	1.144309	3.466219	0.182219	-0.525518	-0.097480	0.845180	0.040287	-0.995151	-0.089727	0.849828	-0.013104	0.526897
51599	4.755483	-1.267928	7.752927	1.089378	3.578647	-0.010339	-0.555572	-0.097009	0.825790	0.049337	-0.995267	-0.083725	0.830004	-0.005774	0.557728
51600	5.863062	-2.302792	7.796029	1.139400	3.694164	-0.190861	-0.586013	-0.094989	0.804715	0.057636	-0.995476	-0.075534	0.808249	0.002117	0.588837
51601	6.641534	-2.869106	7.924484	1.258527	3.791807	-0.334770	-0.616413	-0.091875	0.782044	0.065603	-0.995709	-0.065268	0.784685	0.011073	0.619796
51602	7.374001	-3.301260	8.202284	1.366092	3.856608	-0.424800	-0.646562	-0.088226	0.757742	0.073508	-0.995873	-0.053230	0.759311	0.021283	0.650379
51603	8.489860	-4.152474	8.772732	1.468371	3.912217	-0.434577	-0.676072	-0.084919	0.731926	0.081541	-0.995858	-0.040222	0.732310	0.032489	0.680196
51604	10.310365	-5.111857	9.253333	1.622569	3.982723	-0.361075	-0.705051	-0.082840	0.704302	0.090714	-0.995530	-0.026283	0.703331	0.045359	0.709414
51605	11.927456	-5.485236	9.417631	1.778120	4.132370	-0.159448	-0.733616	-0.083390	0.674429	0.101751	-0.994734	-0.012314	0.671904	0.059590	0.738237
51606	12.546446	-5.681160	9.091100	1.945409	4.293395	0.131525	-0.761659	-0.087562	0.642034	0.115462	-0.993311	0.001505	0.637608	0.075277	0.766674
51607	12.379821	-5.072528	8.387467	2.077227	4.361747	0.436564	-0.788137	-0.095509	0.608045	0.131671	-0.991180	0.014979	0.601251	0.091867	0.793761
51608	11.547067	-4.297526	7.723267	2.139045	4.318903	0.645347	-0.812452	-0.106195	0.573275	0.149257	-0.988389	0.028436	0.563599	0.108669	0.818869
51609	10.797725	-3.375977	7.626392	2.120506	4.141761	0.695822	-0.833921	-0.117869	0.539150	0.166499	-0.985140	0.042158	0.526169	0.124924	0.841154
51610	10.480730	-2.373104	7.968871	1.998547	3.890862	0.595456	-0.852708	-0.128837	0.506252	0.181616	-0.981771	0.056054	0.489801	0.139741	0.860562
51611	10.478177	-1.510024	8.288176	1.773582	3.604587	0.403820	-0.868987	-0.138027	0.475194	0.193434	-0.978651	0.069470	0.455461	0.152287	0.877134
51612	10.763775	-1.008308	8.510820	1.491470	3.285797	0.148851	-0.883186	-0.144605	0.446174	0.201227	-0.976109	0.081964	0.423663	0.162172	0.891185
51613	12.023661	-0.354564	8.301945	1.175608	2.936840	-0.126733	-0.895468	-0.148205	0.419729	0.204873	-0.974356	0.093042	0.395176	0.169307	0.902868
51614	14.250670	0.055789	7.385309	0.811177	2.637234	-0.462417	-0.906539	-0.148173	0.395261	0.203740	-0.973668	0.102279	0.369698	0.173250	0.912857
51615	16.169964	0.159234	5.631302	0.411901	2.386356	-0.831215	-0.916762	-0.144185	0.372504	0.197598	-0.974179	0.109229	0.347136	0.173743	0.921580
51616	17.444137	0.549672	3.419151	0.013676	2.155229	-1.182462	-0.926330	-0.136329	0.351181	0.186690	-0.975826	0.113624	0.327201	0.170815	0.929388
51617	17.480741	0.929194	0.913621	-0.424567	1.903898	-1.467448	-0.935028	-0.125146	0.331755	0.171639	-0.978465	0.114653	0.310262	0.164146	0.936372
51618	16.254521	0.504339	-1.232602	-0.854677	1.537426	-1.703488	-0.942479	-0.110866	0.315344	0.153015	-0.981841	0.112133	0.297186	0.153936	0.942329
51619	14.052569	-0.588639	-2.787935	-1.177214	0.992918	-1.888040	-0.948079	-0.093727	0.303910	0.131675	-0.985519	0.106838	0.289496	0.141308	0.946691
51620	12.466055	-1.904532	-3.623080	-1.318034	0.286970	-1.997266	-0.951317	-0.074377	0.299105	0.108879	-0.988975	0.100371	0.288342	0.128051	0.948927
51621	11.852451	-2.763678	-3.434217	-1.307090	-0.426756	-2.003286	-0.952025	-0.053984	0.301221	0.085971	-0.991857	0.093958	0.293696	0.115346	0.948914
51622	11.589365	-2.903072	-2.454886	-1.218680	-1.064420	-1.941980	-0.950295	-0.033516	0.309541	0.063833	-0.994043	0.088335	0.304737	0.103703	0.946774
51623	11.172113	-2.882408	-0.790263	-1.061505	-1.554564	-1.833508	-0.946415	-0.013711	0.322661	0.043088	-0.995527	0.084079	0.320065	0.093477	0.942773
51624	10.808001	-1.999565	1.320404	-0.889537	-1.922851	-1.656585	-0.940637	0.004526	0.339383	0.024499	-0.996398	0.081190	0.338528	0.084685	0.937138
51625	10.612096	-0.971858	3.682479	-0.723269	-2.121576	-1.420426	-0.933473	0.020432	0.358066	0.008627	-0.996808	0.079369	0.358545	0.077178	0.930317
51626	8.297552	0.622124	7.051603	-0.578098	-1.951454	-1.150735	-0.926312	0.033377	0.375277	-0.004235	-0.996928	0.078212	0.376735	0.070859	0.923607
51627	7.863579	2.565129	11.456498	-0.510160	-2.291338	-1.004645	-0.917332	0.044979	0.395575	-0.015513	-0.996881	0.077374	0.397822	0.064841	0.915169
51628	5.648799	4.631074	14.931137	-0.809143	-1.464524	-0.866634	-0.911209	0.054530	0.408318	-0.026741	-0.996939	0.073462	0.411075	0.056021	0.909879
51629	10.343586	1.474303	11.267053	-0.959394	-1.397749	-0.727767	-0.905136	0.062527	0.420499	-0.037396	-0.997001	0.067755	0.423475	0.045603	0.904759
51630	3.724539	0.687635	9.513860	-0.954179	-0.912305	-0.891671	-0.900831	0.071806	0.428190	-0.049547	-0.996788	0.062921	0.431333	0.035466	0.901495
51631	2.255220	0.221716	7.080243	-0.845400	-1.260599	-1.155338	-0.894663	0.083738	0.438824	-0.063654	-0.996148	0.060312	0.442184	0.026027	0.896547
51632	2.918474	-0.437834	7.395358	-0.663384	-1.560691	-1.302632	-0.886714	0.097072	0.452013	-0.078257	-0.995115	0.060189	0.455648	0.017998	0.889978
51633	5.384798	-2.315800	8.896721	-0.529221	-1.721119	-1.246510	-0.877675	0.109749	0.466522	-0.091747	-0.993899	0.061209	0.470393	0.010919	0.882389
51634	8.376052	-5.020051	9.877971	-0.355443	-1.692084	-1.038644	-0.868563	0.120231	0.480774	-0.102547	-0.992731	0.062998	0.484854	0.005416	0.874578
51635	8.394502	-7.334838	10.181020	-0.195490	-1.507944	-0.615837	-0.860492	0.126425	0.493528	-0.108874	-0.991975	0.064281	0.497694	0.001581	0.867351
51636	9.290194	-9.426317	11.036815	0.020491	-1.472385	-0.044304	-0.852995	0.126916	0.506253	-0.109223	-0.991913	0.064638	0.510363	-0.000159	0.859959
51637	9.136466	-9.698620	11.415553	0.268400	-1.209979	0.265869	-0.847029	0.124313	0.516805	-0.105622	-0.992243	0.065564	0.520946	0.000949	0.853589
51638	7.175058	-4.153028	10.391192	0.507869	-1.135698	0.200356	-0.841227	0.122416	0.526642	-0.101388	-0.992469	0.068743	0.531091	0.004433	0.847303
51639	5.323094	2.297202	8.204960	0.477880	-1.045206	0.070220	-0.835686	0.121813	0.535528	-0.098283	-0.992522	0.072393	0.540341	0.007865	0.841409
51640	6.260342	9.483032	9.688801	0.185490	-1.334193	0.218189	-0.828576	0.119813	0.546907	-0.095592	-0.992765	0.072664	0.551656	0.007928	0.834034
51641	18.839128	15.908633	7.781708	-1.198424	-1.648233	0.850440	-0.820180	0.111412	0.561152	-0.095311	-0.993757	0.057996	0.564110	-0.005917	0.825679
51642	3.967383	2.593574	7.048537	-0.689616	1.351390	0.491507	-0.828157	0.106682	0.550250	-0.095185	-0.994228	0.049501	0.552355	-0.011381	0.833531
51643	4.936010	0.065921	8.930550	-0.998412	-1.039060	0.782953	-0.823108	0.098750	0.559234	-0.094318	-0.994860	0.036851	0.559998	-0.022414	0.828191
51644	10.587891	-7.004211	11.419424	-0.372636	-0.082729	0.322055	-0.822913	0.095562	0.560074	-0.093826	-0.995077	0.031926	0.560367	-0.026277	0.827827
51645	3.947881	-2.327208	9.221093	-0.026501	-0.373976	0.016561	-0.820815	0.095327	0.563183	-0.093883	-0.995082	0.031603	0.563426	-0.026933	0.825727
51646	8.479422	1.586810	7.482525	-0.005246	-0.331537	-0.005455	-0.818901	0.095336	0.565962	-0.094055	-0.995068	0.031528	0.566176	-0.027413	0.823828
51647	5.323413	-1.136162	8.939808	-0.026199	-0.006014	-0.009203	-0.818846	0.095456	0.566021	-0.094323	-0.995048	0.031354	0.566210	-0.027715	0.823795
51648	6.661447	0.431531	8.320466	0.023368	-0.154151	-0.040655	-0.817896	0.095862	0.567324	-0.094622	-0.995008	0.031714	0.567532	-0.027742	0.822884
51649	5.842352	1.550234	8.302621	-0.040563	-0.021558	-0.000295	-0.817762	0.095888	0.567513	-0.094899	-0.994993	0.031371	0.567680	-0.028202	0.822766
51650	5.842053	0.673768	8.600976	-0.059721	-0.084425	0.039103	-0.817281	0.095518	0.568267	-0.095013	-0.995006	0.030600	0.568352	-0.028984	0.822275
51651	6.065379	0.555670	8.428603	-0.052003	-0.105090	0.044596	-0.816714	0.095073	0.569157	-0.094988	-0.995029	0.029908	0.569171	-0.029637	0.821685
51652	6.366099	0.146820	8.338196	-0.043333	-0.042842	0.044850	-0.816475	0.094656	0.569569	-0.094961	-0.995051	0.029240	0.569518	-0.030213	0.821423
51653	6.050149	0.184873	8.483872	-0.042295	-0.000370	0.039614	-0.816499	0.094291	0.569596	-0.094923	-0.995072	0.028656	0.569491	-0.030670	0.821425
51654	5.847940	0.496805	8.441638	-0.041603	0.002631	0.035494	-0.816509	0.093981	0.569631	-0.094963	-0.995085	0.028056	0.569469	-0.031186	0.821421
51655	5.565332	0.495884	8.602329	-0.036511	-0.013143	0.035715	-0.816456	0.093651	0.569762	-0.094923	-0.995104	0.027541	0.569551	-0.031597	0.821348
51656	5.730911	0.465280	8.422279	-0.028404	-0.073678	0.036597	-0.816034	0.093305	0.570424	-0.094878	-0.995122	0.027044	0.570164	-0.032051	0.820905
51657	5.834763	0.081596	8.370596	-0.029354	-0.075848	0.033560	-0.815621	0.092977	0.571067	-0.094816	-0.995139	0.026601	0.570765	-0.032450	0.820472
51658	5.582899	0.067651	8.508741	-0.019300	-0.072880	0.023777	-0.815190	0.092758	0.571718	-0.094823	-0.995148	0.026252	0.571379	-0.032811	0.820030
51659	5.530359	0.356892	8.508832	-0.010264	-0.135511	0.014048	-0.814416	0.092603	0.572845	-0.094811	-0.995154	0.026077	0.572483	-0.033075	0.819249
51660	5.869068	0.288084	8.350325	-0.009493	-0.158813	0.011556	-0.813480	0.092476	0.574194	-0.094862	-0.995154	0.025879	0.573805	-0.033417	0.818310
51661	5.971783	0.295862	8.357028	0.005624	-0.155924	0.000250	-0.812572	0.092451	0.575482	-0.094872	-0.995152	0.025913	0.575088	-0.033541	0.817404
51662	5.997793	0.498469	8.206671	0.012253	-0.159724	0.002485	-0.811618	0.092413	0.576833	-0.094871	-0.995151	0.025945	0.576434	-0.033668	0.816450
51663	6.111866	0.246046	8.245028	0.014780	-0.144180	-0.004143	-0.810770	0.092436	0.578021	-0.094864	-0.995149	0.026079	0.577627	-0.033690	0.815605
51664	6.059508	0.219438	8.271154	0.020486	-0.118138	-0.004647	-0.810045	0.092482	0.579029	-0.094872	-0.995144	0.026220	0.578642	-0.033694	0.814885
51665	5.973451	-0.003488	8.284442	0.019409	-0.115341	-0.009511	-0.809356	0.092568	0.579978	-0.094882	-0.995138	0.026423	0.579604	-0.033644	0.814203
51666	6.052690	-0.128507	8.248843	0.027138	-0.108257	-0.017404	-0.808674	0.092745	0.580900	-0.094954	-0.995124	0.026692	0.580543	-0.033574	0.813537
51667	6.012287	0.088708	8.294863	0.032022	-0.091146	-0.024063	-0.808109	0.092984	0.581647	-0.095008	-0.995108	0.027082	0.581320	-0.033376	0.812990
51668	6.204115	0.097502	8.179979	0.038578	-0.093386	-0.025247	-0.807504	0.093244	0.582445	-0.095077	-0.995090	0.027489	0.582149	-0.033180	0.812405
51669	6.455956	0.183043	8.087448	0.039602	-0.036452	-0.033441	-0.807248	0.093594	0.582744	-0.095162	-0.995068	0.027995	0.582490	-0.032856	0.812173
51670	6.343257	0.239927	8.180536	0.042300	0.010396	-0.024374	-0.807247	0.093881	0.582699	-0.095203	-0.995052	0.028426	0.582485	-0.032527	0.812190
51671	6.323085	0.241827	8.130771	0.034168	0.050165	-0.021723	-0.807506	0.094143	0.582298	-0.095224	-0.995039	0.028820	0.582122	-0.032176	0.812465
51672	6.218247	0.307399	8.177096	0.024151	0.082407	-0.018369	-0.807930	0.094392	0.581670	-0.095322	-0.995022	0.029069	0.581518	-0.031960	0.812906
51673	6.095852	0.364118	8.241995	0.015016	0.098866	-0.010619	-0.808482	0.094559	0.580875	-0.095366	-0.995013	0.029242	0.580743	-0.031754	0.813468
51674	5.663877	0.261171	8.408974	0.020213	0.116774	-0.013511	-0.809108	0.094771	0.579967	-0.095447	-0.994999	0.029432	0.579856	-0.031543	0.814108
51675	5.110989	0.281728	8.723785	0.038164	0.019253	-0.024956	-0.809184	0.095055	0.579815	-0.095473	-0.994984	0.029877	0.579747	-0.031181	0.814200
51676	5.762215	0.153306	8.418002	0.057763	-0.041083	-0.037232	-0.808872	0.095453	0.580185	-0.095528	-0.994959	0.030510	0.580172	-0.030746	0.813913
51677	5.974274	0.336795	8.265794	0.066147	-0.053958	-0.046049	-0.808503	0.095924	0.580622	-0.095562	-0.994931	0.031304	0.580681	-0.030176	0.813572
51678	5.727822	0.365451	8.392699	0.068656	-0.040247	-0.057660	-0.808176	0.096526	0.580977	-0.095718	-0.994889	0.032145	0.581110	-0.029631	0.813285
51679	5.987261	0.666651	8.331838	0.061445	-0.101612	-0.051231	-0.807524	0.097036	0.581798	-0.095820	-0.994854	0.032932	0.581999	-0.029155	0.812666
51680	5.736177	0.762358	8.547560	0.055342	-0.091020	-0.039407	-0.806919	0.097441	0.582570	-0.095903	-0.994825	0.033559	0.582825	-0.028790	0.812088
51681	5.934897	0.760194	8.291229	0.049483	-0.147775	-0.029501	-0.806016	0.097722	0.583771	-0.095897	-0.994806	0.034122	0.584074	-0.028479	0.811201
51682	5.921504	0.692264	8.399184	0.035959	-0.149353	-0.016179	-0.805090	0.097879	0.585022	-0.095902	-0.994794	0.034460	0.585349	-0.028362	0.810285
51683	5.853786	0.712150	8.428122	0.026749	-0.170382	-0.002224	-0.804077	0.097883	0.586412	-0.095809	-0.994795	0.034679	0.586755	-0.028299	0.809270
51684	5.786014	0.740822	8.629693	0.003884	-0.208020	0.011406	-0.802828	0.097748	0.588143	-0.095777	-0.994801	0.034597	0.588467	-0.028555	0.808017
51685	5.343803	1.056151	8.899093	-0.019375	-0.233572	0.042891	-0.801480	0.097284	0.590055	-0.095592	-0.994834	0.034177	0.590332	-0.029012	0.806639
51686	5.346357	1.163806	8.977959	-0.045568	-0.396973	0.065175	-0.799156	0.096556	0.593318	-0.095419	-0.994877	0.033382	0.593502	-0.029937	0.804276
51687	5.700354	1.056909	8.813925	-0.079928	-0.424338	0.077749	-0.796692	0.095683	0.596763	-0.095320	-0.994924	0.032267	0.596821	-0.031177	0.801769
51688	5.252473	1.400537	9.097402	-0.087130	-0.529287	0.078768	-0.793562	0.094765	0.601065	-0.095291	-0.994965	0.031060	0.600982	-0.032628	0.798597
51689	4.484155	1.367723	9.409273	-0.097985	-0.595030	0.173829	-0.790125	0.092867	0.605870	-0.094551	-0.995091	0.029221	0.605610	-0.034198	0.795027
51690	-0.182767	1.656039	12.266621	0.226614	-0.870144	0.393352	-0.785153	0.088694	0.612917	-0.090141	-0.995519	0.028587	0.612706	-0.032803	0.789630
51691	3.719851	-0.774305	11.093779	0.196023	-1.997150	0.336345	-0.773043	0.084721	0.628670	-0.086350	-0.995871	0.028026	0.628449	-0.032620	0.777167
51692	3.390506	0.030223	11.404320	0.114301	-1.985453	0.343812	-0.760675	0.080676	0.644100	-0.083053	-0.996188	0.026691	0.643797	-0.033191	0.764476
51693	3.726342	-0.822626	11.674764	0.159496	-2.723794	0.490867	-0.743241	0.074903	0.664818	-0.078365	-0.996619	0.024677	0.664418	-0.033758	0.746598
51694	4.165958	-0.547638	12.771495	0.080443	-3.192311	0.589091	-0.722077	0.067959	0.688467	-0.073575	-0.997063	0.021254	0.687889	-0.035307	0.724956
51695	3.996109	0.847228	13.198641	-0.166292	-3.859801	0.630598	-0.695437	0.060256	0.716057	-0.070318	-0.997402	0.015638	0.715139	-0.039477	0.697867
51696	6.152906	0.209431	12.800700	-0.042246	-4.750316	0.676542	-0.661136	0.051584	0.748490	-0.066108	-0.997759	0.010371	0.747348	-0.042624	0.663065
51697	7.684188	2.604771	14.204916	-0.035649	-5.204946	0.865598	-0.621895	0.040682	0.782043	-0.060873	-0.998139	0.003516	0.780731	-0.045418	0.623214
51698	9.554711	3.872305	14.607504	-0.118513	-5.380610	1.011683	-0.579586	0.028080	0.814427	-0.055801	-0.998428	-0.005287	0.812999	-0.048510	0.580241
51699	8.750589	3.320241	13.047794	-0.306501	-5.572839	1.162800	-0.534017	0.013673	0.845363	-0.051911	-0.998513	-0.016642	0.843879	-0.052771	0.533933
51700	9.456713	7.146082	12.312866	-0.420516	-5.685406	1.282241	-0.485849	-0.002232	0.874040	-0.049024	-0.998353	-0.029800	0.872667	-0.057327	0.484939
51701	8.814264	12.154255	14.991542	-1.238385	-5.237695	1.512064	-0.440266	-0.020607	0.897631	-0.053022	-0.997395	-0.048904	0.896300	-0.069125	0.438027
51702	16.069202	2.317041	20.689888	-1.930680	-3.934952	1.368075	-0.405493	-0.037262	0.913339	-0.064682	-0.995495	-0.069331	0.911807	-0.087189	0.401255
51703	17.078558	-3.081557	24.644153	-0.781224	-0.473366	0.107292	-0.401229	-0.038732	0.915158	-0.071422	-0.994741	-0.073413	0.913189	-0.094818	0.396353
51704	-1.855797	-4.029185	17.248705	0.468265	0.165730	-0.386860	-0.402491	-0.034668	0.914767	-0.068681	-0.995323	-0.067940	0.912844	-0.090172	0.398228
51705	-8.240452	-0.286048	11.299687	1.402129	0.575635	-0.607383	-0.407340	-0.028110	0.912844	-0.058396	-0.996679	-0.056749	0.911408	-0.076422	0.404345
51706	-8.995516	3.129143	9.637341	1.378684	0.302895	-0.262646	-0.410005	-0.025222	0.911735	-0.046896	-0.997712	-0.048689	0.910877	-0.062719	0.407884
51707	-5.239568	2.032165	11.256579	0.890310	0.339676	0.256333	-0.413190	-0.027552	0.910228	-0.037780	-0.998163	-0.047364	0.909861	-0.053959	0.411390
51708	-1.207098	-1.673956	13.499821	0.679093	0.850156	0.461596	-0.421127	-0.031666	0.906449	-0.029663	-0.998375	-0.048658	0.906516	-0.047379	0.419504
51709	1.078998	-4.361292	14.177300	0.912070	1.599903	0.418883	-0.435666	-0.035129	0.899422	-0.019675	-0.998628	-0.048534	0.899893	-0.038841	0.434377
51710	1.581375	-4.415254	13.100565	1.274508	2.347865	0.360736	-0.456801	-0.037904	0.888761	-0.006653	-0.998918	-0.046021	0.889544	-0.026935	0.456055
51711	1.590234	-3.563464	11.380606	1.405191	2.905883	0.434386	-0.482437	-0.041618	0.874941	0.007747	-0.999034	-0.043249	0.875896	-0.014087	0.482294
51712	2.297093	-3.256962	10.078384	1.350527	3.281641	0.611667	-0.510913	-0.047418	0.858324	0.022491	-0.998873	-0.041795	0.859338	-0.002049	0.511403
51713	3.645800	-3.246345	9.352342	1.269282	3.565005	0.780282	-0.540965	-0.055300	0.839225	0.037337	-0.998431	-0.041724	0.840216	0.008763	0.542181
51714	4.838840	-2.806000	9.176954	1.187604	3.780192	0.839938	-0.572046	-0.064157	0.817708	0.051832	-0.997771	-0.042025	0.818582	0.018343	0.574097
51715	6.057565	-2.734473	9.209638	1.115912	3.953534	0.792496	-0.603466	-0.072923	0.794047	0.065447	-0.996979	-0.041820	0.794698	0.026731	0.606416
51716	7.452602	-3.151971	9.395925	1.098243	4.110194	0.667506	-0.635215	-0.080797	0.768098	0.078121	-0.996134	-0.040178	0.768374	0.034482	0.639071
51717	8.585006	-3.507441	9.209420	1.146564	4.245872	0.527776	-0.666784	-0.087652	0.740079	0.090158	-0.995253	-0.036644	0.739778	0.042290	0.671521
51718	9.206939	-3.408628	8.960685	1.203065	4.334196	0.430309	-0.697870	-0.093902	0.710043	0.101749	-0.994312	-0.031491	0.708961	0.050269	0.703454
51719	9.542294	-2.819405	8.496710	1.224993	4.362590	0.393616	-0.727667	-0.100149	0.678581	0.112997	-0.993270	-0.025422	0.676560	0.058178	0.734086
51720	9.182185	-2.354379	7.660084	1.195670	4.338350	0.415259	-0.755892	-0.106914	0.645908	0.123891	-0.992109	-0.019232	0.642868	0.065485	0.763173
51721	8.593798	-1.896738	7.288137	1.200268	4.193434	0.413784	-0.781605	-0.113884	0.613289	0.134541	-0.990829	-0.012525	0.609091	0.072723	0.789759
51722	9.791592	-1.305096	7.766205	1.192477	4.001559	0.279877	-0.805005	-0.119661	0.581075	0.143742	-0.989604	-0.004655	0.575591	0.079778	0.813837
51723	11.715852	-0.788474	8.482185	1.113904	3.900607	-0.017402	-0.826828	-0.122692	0.548909	0.149781	-0.988708	0.004621	0.542144	0.086037	0.835869
51724	13.523939	-1.099694	8.659549	0.968818	3.901899	-0.391784	-0.847980	-0.122218	0.515746	0.151500	-0.988345	0.014882	0.507916	0.090755	0.856613
51725	14.765724	-1.649053	8.084138	0.785648	3.877804	-0.762237	-0.868152	-0.118231	0.482011	0.148771	-0.988543	0.025476	0.473476	0.093826	0.875795
51726	15.537477	-2.149621	6.596622	0.592582	3.801690	-0.980541	-0.886989	-0.112074	0.447985	0.142782	-0.989126	0.035247	0.439163	0.095228	0.893346
51727	16.064755	-2.273755	4.938521	0.386566	3.644053	-0.947132	-0.903707	-0.106137	0.414787	0.135892	-0.989799	0.042798	0.406013	0.095043	0.908912
51728	17.003029	-2.934674	3.029198	0.260058	3.396760	-0.729819	-0.917980	-0.102065	0.383268	0.130170	-0.990327	0.048051	0.374657	0.094000	0.922386
51729	17.372034	-3.286502	1.256890	0.288691	3.066564	-0.468171	-0.929631	-0.100274	0.354587	0.126844	-0.990536	0.052436	0.345973	0.093723	0.933552
51730	17.073455	-3.047885	-0.412325	0.373862	2.603307	-0.216363	-0.938617	-0.100523	0.329991	0.125980	-0.990415	0.056630	0.321136	0.094726	0.942284
51731	15.790281	-3.077647	-1.872921	0.505117	2.010833	0.001710	-0.944875	-0.102442	0.310995	0.127529	-0.989934	0.061376	0.301577	0.097653	0.948428
51732	14.493394	-3.179775	-2.701332	0.687165	1.322720	0.122657	-0.948635	-0.104918	0.298469	0.130626	-0.989133	0.067470	0.288146	0.102992	0.952032
51733	13.889828	-2.179349	-2.722892	0.813780	0.602601	0.103486	-0.950214	-0.106552	0.292815	0.133886	-0.988163	0.074892	0.281369	0.110367	0.953232
51734	10.099516	-0.497396	-3.539638	0.737626	-0.428296	-0.114892	-0.949168	-0.104864	0.296789	0.134793	-0.987459	0.082188	0.284449	0.118016	0.951400
51735	13.582838	4.335021	-6.611531	0.181036	-1.610032	-0.299301	-0.944867	-0.099948	0.311829	0.132448	-0.987556	0.084793	0.299474	0.121419	0.946347
51736	13.839388	1.228188	-5.379040	-0.485977	-2.322713	-0.293831	-0.938034	-0.094206	0.333494	0.128105	-0.988438	0.081110	0.321997	0.118806	0.939257
51737	12.300787	-0.731523	-1.374933	-0.445444	-2.670720	-0.592058	-0.929829	-0.085172	0.358000	0.121043	-0.989501	0.078970	0.347515	0.116762	0.930376
51738	8.574250	2.022317	13.656224	-0.346736	-2.270310	-0.649066	-0.922448	-0.076075	0.378552	0.113737	-0.990436	0.078110	0.368989	0.115108	0.922278
51739	16.319696	-0.992222	15.824933	-0.289845	-2.284109	-0.534751	-0.914366	-0.068129	0.399116	0.107683	-0.991159	0.077508	0.390307	0.113849	0.913619
51740	10.276413	-1.522457	14.614886	-0.228875	-0.838040	-0.645860	-0.911720	-0.060741	0.406296	0.100831	-0.991843	0.077983	0.398245	0.112066	0.910407
51741	2.660391	-1.654300	9.684111	-0.110186	-1.054818	-0.653543	-0.908103	-0.053045	0.415374	0.094398	-0.992343	0.079648	0.407969	0.111539	0.906157
51742	2.911750	-0.530993	6.247853	-0.019147	-1.315705	-0.454428	-0.903059	-0.047021	0.426934	0.090138	-0.992602	0.081340	0.419951	0.111938	0.900617
51743	4.640779	-0.184472	7.115555	-0.083522	-1.338739	-0.156745	-0.897492	-0.043936	0.438837	0.088328	-0.992772	0.081250	0.432096	0.111683	0.894886
51744	5.155249	-1.456781	10.353324	-0.067011	-1.420960	-0.000960	-0.891244	-0.042295	0.451548	0.087956	-0.992858	0.080605	0.444914	0.111555	0.888598
51745	6.809911	-1.847379	10.408025	0.002415	-1.426100	-0.006274	-0.884809	-0.040606	0.464181	0.087868	-0.992863	0.080637	0.457593	0.112135	0.882062
51746	6.291068	-0.581432	10.225240	0.048632	-1.467485	0.026001	-0.877957	-0.039162	0.477135	0.088240	-0.992810	0.080880	0.470537	0.113111	0.875100
51747	8.311974	-0.168077	9.767951	0.016599	-1.557186	0.186506	-0.870353	-0.039215	0.490865	0.089906	-0.992724	0.080105	0.484152	0.113852	0.867545
51748	7.565546	-0.567026	10.320016	0.046559	-1.309041	0.135005	-0.863797	-0.039010	0.502328	0.091217	-0.992631	0.079771	0.495515	0.114727	0.860990
51749	7.599126	0.851817	9.424853	0.121501	-1.325381	0.034810	-0.857117	-0.037791	0.513733	0.092081	-0.992482	0.080620	0.506825	0.116406	0.854154
51750	6.935593	0.257624	9.074993	0.123897	-1.159251	-0.001811	-0.851162	-0.036367	0.523641	0.092610	-0.992352	0.081616	0.516668	0.117963	0.848020
51751	6.536066	0.915229	9.717342	0.150412	-1.161896	-0.000771	-0.845098	-0.034945	0.533468	0.093343	-0.992179	0.082877	0.526400	0.119834	0.841750
51752	10.100152	3.911385	9.894814	-0.232944	-1.267860	0.349047	-0.838000	-0.036855	0.544424	0.094950	-0.992344	0.078974	0.537346	0.117873	0.835084
51753	12.220003	7.278690	9.069931	-0.681681	-0.671915	0.517297	-0.833870	-0.041188	0.550422	0.095545	-0.992929	0.070447	0.543629	0.111334	0.831909
51754	5.653267	1.684688	7.227605	-0.719122	0.104515	0.512878	-0.833916	-0.046356	0.549941	0.095847	-0.993489	0.061595	0.543505	0.104075	0.832929
51755	6.938283	-2.378481	10.086725	-0.616348	-0.602317	0.497864	-0.830141	-0.050662	0.555247	0.096577	-0.993876	0.053706	0.549126	0.098208	0.829950
51756	7.405877	-3.676846	10.088031	-0.309245	-0.210980	0.242881	-0.828714	-0.052834	0.557173	0.096818	-0.994058	0.049742	0.551234	0.095166	0.828905
51757	6.364900	-1.137120	8.403832	-0.003436	-0.386918	0.033193	-0.826537	-0.052763	0.560404	0.097029	-0.994049	0.049515	0.554457	0.095301	0.826738
51758	6.628097	0.534648	8.152082	-0.072725	-0.221741	0.038407	-0.825237	-0.052893	0.562305	0.096857	-0.994109	0.048637	0.556420	0.094600	0.825498
51759	6.256174	-0.523113	8.510897	-0.048108	-0.098120	0.013442	-0.824671	-0.052902	0.563133	0.096654	-0.994153	0.048152	0.557293	0.094139	0.824962
51760	6.072736	0.276759	8.425409	-0.053082	-0.099548	-0.003915	-0.824088	-0.052727	0.564003	0.096239	-0.994216	0.047673	0.558227	0.093566	0.824396
51761	6.056055	0.963875	8.313643	-0.067027	-0.066265	0.005153	-0.823707	-0.052684	0.564563	0.095862	-0.994281	0.047079	0.558854	0.092899	0.824046
51762	6.066603	0.564596	8.453504	-0.070225	-0.031661	0.016325	-0.823482	-0.052776	0.564883	0.095518	-0.994348	0.046346	0.559244	0.092122	0.823869
51763	6.018604	0.620959	8.448853	-0.068358	-0.025532	0.016046	-0.823318	-0.052880	0.565112	0.095222	-0.994407	0.045680	0.559536	0.091420	0.823749
51764	6.019518	0.540189	8.469951	-0.059319	0.009566	0.021698	-0.823318	-0.053063	0.565095	0.094985	-0.994461	0.045007	0.559576	0.090731	0.823797
51765	5.878576	0.753781	8.511466	-0.060618	0.010516	0.024708	-0.823347	-0.053286	0.565031	0.094803	-0.994507	0.044356	0.559564	0.090087	0.823877
51766	5.839194	0.760649	8.476933	-0.062838	-0.001845	0.039957	-0.823266	-0.053641	0.565115	0.094697	-0.994553	0.043553	0.559701	0.089370	0.823862
51767	5.834877	0.549483	8.469818	-0.076057	-0.019045	0.051755	-0.823105	-0.054107	0.565306	0.094652	-0.994598	0.042621	0.559946	0.088589	0.823779
51768	5.847938	0.338406	8.409946	-0.079071	-0.020796	0.061042	-0.822898	-0.054655	0.565555	0.094630	-0.994644	0.041566	0.560254	0.087723	0.823663
51769	5.788227	0.290213	8.445573	-0.084310	-0.019036	0.058929	-0.822729	-0.055193	0.565748	0.094596	-0.994691	0.040526	0.560507	0.086860	0.823582
51770	5.763204	0.475059	8.452016	-0.071756	-0.040810	0.054158	-0.822416	-0.055656	0.566157	0.094557	-0.994733	0.039570	0.560972	0.086078	0.823347
51771	5.850596	0.331711	8.369676	-0.061709	-0.044047	0.046450	-0.822119	-0.056048	0.566549	0.094547	-0.994765	0.038787	0.561409	0.085453	0.823114
51772	5.926630	0.088676	8.326267	-0.047906	-0.045600	0.036800	-0.821796	-0.056335	0.566990	0.094499	-0.994795	0.038126	0.561891	0.084912	0.822842
51773	5.890405	0.099134	8.323614	-0.041373	-0.024471	0.022379	-0.821631	-0.056505	0.567212	0.094404	-0.994822	0.037646	0.562148	0.084479	0.822711
51774	5.819862	0.256583	8.384437	-0.031199	-0.013691	0.017416	-0.821505	-0.056626	0.567383	0.094289	-0.994848	0.037232	0.562352	0.084084	0.822612
51775	5.620362	0.286467	8.468959	-0.009970	-0.027172	0.004639	-0.821342	-0.056617	0.567620	0.094226	-0.994859	0.037111	0.562601	0.083965	0.822454
51776	5.652266	0.317307	8.464889	-0.003877	-0.062689	0.000381	-0.820956	-0.056528	0.568187	0.094124	-0.994872	0.037018	0.563181	0.083870	0.822067
51777	5.698423	0.378665	8.509358	-0.002144	-0.091769	-0.000810	-0.820433	-0.056411	0.568953	0.094059	-0.994879	0.036993	0.563952	0.083865	0.821538
51778	6.013590	0.339978	8.278967	0.005223	-0.108412	-0.001745	-0.819790	-0.056263	0.569893	0.093992	-0.994886	0.036987	0.564898	0.083887	0.820886
51779	5.948658	0.277771	8.363297	0.010429	-0.072458	-0.005771	-0.819380	-0.056112	0.570498	0.093957	-0.994885	0.037093	0.565498	0.083996	0.820461
51780	5.832523	0.279299	8.445991	0.008368	-0.082057	-0.006853	-0.818890	-0.055935	0.571219	0.093866	-0.994892	0.037142	0.566223	0.084034	0.819957
51781	6.012593	0.365463	8.314598	0.010975	-0.089919	-0.007166	-0.818381	-0.055756	0.571965	0.093824	-0.994891	0.037261	0.566966	0.084157	0.819431
51782	6.019024	0.292705	8.330587	0.013518	-0.066007	-0.012576	-0.817985	-0.055536	0.572552	0.093715	-0.994897	0.037386	0.567554	0.084238	0.819015
51783	6.134697	0.265855	8.223670	0.016016	-0.048113	-0.012291	-0.817717	-0.055341	0.572953	0.093659	-0.994895	0.037575	0.567949	0.084388	0.818726
51784	5.992791	0.289191	8.325796	0.020977	-0.016969	-0.014194	-0.817601	-0.055145	0.573138	0.093580	-0.994895	0.037770	0.568129	0.084515	0.818588
51785	6.105837	0.342282	8.304116	0.021898	-0.010918	-0.017187	-0.817549	-0.054933	0.573233	0.093518	-0.994891	0.038035	0.568215	0.084703	0.818509
51786	5.977100	0.366036	8.321701	0.023211	0.012662	-0.016071	-0.817603	-0.054744	0.573174	0.093436	-0.994890	0.038259	0.568151	0.084836	0.818540
51787	5.814121	0.383819	8.375131	0.028396	0.012173	-0.017499	-0.817682	-0.054548	0.573080	0.093408	-0.994880	0.038580	0.568041	0.085076	0.818591
51788	5.869231	0.298776	8.344371	0.034613	-0.003397	-0.020053	-0.817648	-0.054306	0.573151	0.093360	-0.994871	0.038921	0.568098	0.085332	0.818525
51789	5.551174	0.309389	8.450706	0.053812	-0.001929	-0.029823	-0.817659	-0.053976	0.573167	0.093375	-0.994846	0.039519	0.568080	0.085833	0.818485
51790	5.403396	0.361204	8.551972	0.067058	-0.056283	-0.039846	-0.817343	-0.053491	0.573663	0.093349	-0.994820	0.040239	0.568538	0.086440	0.818103
51791	5.455351	0.327282	8.479061	0.087005	-0.133146	-0.052385	-0.816628	-0.052823	0.574742	0.093370	-0.994777	0.041239	0.569561	0.087340	0.817295
51792	5.831436	0.220879	8.419921	0.100829	-0.169868	-0.058243	-0.815681	-0.052054	0.576155	0.093387	-0.994729	0.042340	0.570914	0.088342	0.816243
51793	6.106652	0.314115	8.298529	0.092037	-0.155731	-0.055621	-0.814837	-0.051331	0.577413	0.093414	-0.994681	0.043399	0.572114	0.089302	0.815298
51794	5.928858	0.681981	8.307692	0.079473	-0.153922	-0.047768	-0.813967	-0.050678	0.578696	0.093398	-0.994644	0.044265	0.573353	0.090080	0.814341
51795	6.048871	0.768439	8.343663	0.066808	-0.162853	-0.031998	-0.813056	-0.050180	0.580019	0.093474	-0.994605	0.044982	0.574632	0.090790	0.813360
51796	5.950317	0.572251	8.329124	0.052923	-0.160125	-0.021124	-0.812122	-0.049785	0.581360	0.093527	-0.994577	0.045480	0.575944	0.091308	0.812374
51797	5.926698	0.520420	8.374253	0.037144	-0.186828	-0.012837	-0.811050	-0.049454	0.582883	0.093590	-0.994555	0.045844	0.577442	0.091734	0.811262
51798	5.737477	0.654968	8.463973	0.017800	-0.196480	-0.002063	-0.809882	-0.049215	0.584524	0.093597	-0.994549	0.045945	0.579077	0.091920	0.810074
51799	5.591103	0.622116	8.560758	0.012240	-0.250895	-0.000861	-0.808421	-0.048943	0.586566	0.093615	-0.994544	0.046037	0.581112	0.092129	0.808592
51800	5.501588	0.603082	8.705061	-0.003670	-0.303030	-0.000208	-0.806624	-0.048624	0.589062	0.093513	-0.994557	0.045955	0.583621	0.092153	0.806780
51801	5.621709	0.674954	8.714106	-0.025129	-0.380356	0.003507	-0.804388	-0.048276	0.592139	0.093347	-0.994583	0.045720	0.586725	0.092051	0.804538
51802	5.503662	0.924060	8.995282	-0.067723	-0.405626	0.017656	-0.801952	-0.048042	0.595453	0.093012	-0.994647	0.045019	0.590103	0.091488	0.802128
51803	5.432380	1.571446	9.113334	-0.122879	-0.516512	0.041213	-0.798849	-0.047949	0.599618	0.092567	-0.994744	0.043778	0.594367	0.090477	0.799088
51804	4.841226	2.333421	9.802029	-0.224727	-0.572878	0.037553	-0.795363	-0.047774	0.604248	0.091450	-0.994936	0.041712	0.599195	0.088435	0.795704
51805	1.210720	0.704620	10.494687	-0.091254	-0.747444	0.224611	-0.790648	-0.049318	0.610281	0.092635	-0.994912	0.039613	0.605222	0.087853	0.791194
51806	2.896400	0.765708	11.864375	0.158971	-1.817786	0.364078	-0.779145	-0.051285	0.624743	0.096393	-0.994596	0.038570	0.619388	0.090273	0.779877
51807	3.891052	-0.108252	10.938547	0.018291	-1.826505	0.286796	-0.767415	-0.052446	0.639002	0.098678	-0.994435	0.036890	0.633511	0.091366	0.768320
51808	3.670043	0.065119	11.273414	0.064873	-2.481572	0.382428	-0.751052	-0.053923	0.658038	0.101922	-0.994181	0.034860	0.652329	0.093250	0.752178
51809	5.011949	-0.156611	11.758233	-0.094862	-2.880389	0.475524	-0.731453	-0.055924	0.679595	0.104770	-0.994014	0.030968	0.673795	0.093853	0.732934
51810	4.203740	0.120869	11.879349	-0.191866	-3.300544	0.528043	-0.708235	-0.058044	0.703586	0.107173	-0.993903	0.025887	0.697794	0.093740	0.710138
51811	5.277759	0.707957	12.916613	-0.257898	-4.040316	0.633567	-0.678771	-0.060526	0.731851	0.109683	-0.993774	0.019541	0.726112	0.093536	0.681184
51812	7.675656	2.676673	11.991127	-0.101311	-4.676250	0.834298	-0.643134	-0.064371	0.763043	0.114361	-0.993359	0.012590	0.757166	0.095359	0.646225
51813	8.978477	2.734744	13.680131	-0.077878	-5.038084	1.117852	-0.602863	-0.070571	0.794718	0.120676	-0.992686	0.003393	0.788666	0.097949	0.606970
51814	9.836251	3.869660	12.066153	0.003842	-5.098041	1.287536	-0.560279	-0.078233	0.824601	0.128119	-0.991734	-0.007038	0.818335	0.101704	0.565671
51815	10.416905	6.976058	10.883421	-0.183725	-5.198202	1.484090	-0.515038	-0.087563	0.852683	0.134523	-0.990699	-0.020481	0.846546	0.104157	0.522027
51816	10.014720	10.559060	11.883932	-0.931772	-5.048805	1.756811	-0.469254	-0.099790	0.877407	0.135105	-0.990010	-0.040340	0.872667	0.099613	0.478048
51817	7.406376	12.272224	13.651182	-2.208349	-4.334031	1.858992	-0.428521	-0.114223	0.896283	0.123882	-0.990036	-0.066941	0.894999	0.082348	0.438402
51818	20.776820	0.410535	17.804762	-2.290319	-2.977163	0.869193	-0.400648	-0.120612	0.908259	0.106811	-0.990687	-0.084442	0.909985	0.063180	0.409799
51819	7.122930	-0.010610	19.743599	-1.418103	-0.956826	-0.027238	-0.391932	-0.119768	0.912165	0.093714	-0.991530	-0.089922	0.915209	0.050240	0.399836
51820	1.448526	-2.575900	15.039718	-0.211177	-0.263698	-0.391321	-0.389896	-0.115701	0.913561	0.090249	-0.992100	-0.087130	0.916426	0.048477	0.397258
51821	-3.213788	0.466347	11.798975	0.598769	0.057598	-0.419052	-0.390798	-0.111541	0.913693	0.094052	-0.992274	-0.080907	0.915659	0.054317	0.398270
51822	-4.360360	1.786558	10.323141	0.832796	0.186034	0.000609	-0.392542	-0.111605	0.912938	0.101663	-0.991793	-0.077532	0.914098	0.062377	0.400666
51823	-2.961836	1.085560	10.820629	0.793258	0.379411	0.438900	-0.395529	-0.116174	0.911077	0.110588	-0.990775	-0.078327	0.911772	0.069773	0.404727
51824	-0.779994	-0.757663	11.836293	0.873481	0.777004	0.677213	-0.401874	-0.123400	0.907342	0.121223	-0.989326	-0.080859	0.907636	0.077496	0.412543
51825	0.866316	-1.752785	12.224752	1.126903	1.336717	0.719447	-0.413031	-0.131578	0.901162	0.134298	-0.987490	-0.082630	0.900760	0.086895	0.425535
51826	1.498559	-1.344020	11.801596	1.363282	1.937098	0.679636	-0.429499	-0.140025	0.892145	0.149351	-0.985316	-0.082748	0.890632	0.097703	0.444105
51827	1.603934	-0.727981	10.927098	1.440005	2.441963	0.646814	-0.450065	-0.148874	0.880499	0.164882	-0.982906	-0.081911	0.877642	0.108313	0.466919
51828	2.102519	-0.472523	10.029433	1.397515	2.827464	0.622204	-0.473686	-0.158137	0.866380	0.179882	-0.980381	-0.080596	0.862128	0.117668	0.492839
51829	2.784486	-0.321779	9.302976	1.293871	3.133091	0.570483	-0.499350	-0.167496	0.850055	0.193652	-0.977890	-0.078927	0.844481	0.125203	0.520746
51830	3.436749	-0.288447	8.845878	1.174638	3.361656	0.460931	-0.526596	-0.176265	0.831641	0.205784	-0.975605	-0.076475	0.824833	0.130867	0.550022
51831	4.172557	-0.397794	8.741339	1.060365	3.517112	0.289175	-0.554620	-0.183724	0.811568	0.215935	-0.973686	-0.072856	0.803597	0.134838	0.579698
51832	5.204026	-0.665854	8.845779	0.975095	3.627619	0.074500	-0.583306	-0.189352	0.789873	0.224041	-0.972231	-0.067618	0.780743	0.137522	0.609531
51833	6.447552	-0.990198	8.943713	0.929897	3.734045	-0.129489	-0.612296	-0.193232	0.766652	0.230367	-0.971202	-0.060803	0.756323	0.139382	0.639178
51834	7.291328	-1.046896	8.768909	0.919407	3.827979	-0.298173	-0.641554	-0.195663	0.741704	0.235281	-0.970508	-0.052510	0.730104	0.140821	0.668669
51835	7.713824	-0.980652	8.577397	0.919078	3.865175	-0.430602	-0.670263	-0.196920	0.715521	0.238994	-0.970064	-0.043097	0.702588	0.142119	0.697261
51836	7.958517	-0.823760	8.412231	0.917952	3.846536	-0.542251	-0.698149	-0.197114	0.688283	0.241547	-0.969837	-0.032737	0.673976	0.143397	0.724703
51837	8.185930	-0.710648	8.301641	0.920662	3.766696	-0.628526	-0.724513	-0.196415	0.660683	0.243101	-0.969758	-0.021713	0.644968	0.144881	0.750351
51838	9.080867	-0.886740	8.447500	0.968702	3.681442	-0.696269	-0.749509	-0.194996	0.632624	0.244014	-0.969722	-0.009803	0.615381	0.147022	0.774397
51839	9.579192	-1.440716	8.655354	1.046964	3.653033	-0.777287	-0.773333	-0.192852	0.603957	0.244333	-0.969686	0.003220	0.585027	0.150057	0.797011
51840	9.557566	-2.872405	8.924287	1.224978	3.618077	-0.906460	-0.796235	-0.189539	0.574530	0.244128	-0.969567	0.018471	0.553544	0.154967	0.818275
51841	9.829816	-4.068476	9.422579	1.457952	3.488345	-1.101215	-0.817676	-0.184368	0.545357	0.243036	-0.969323	0.036696	0.521861	0.162547	0.837400
51842	10.863655	-4.851599	9.676982	1.663716	3.293464	-1.304001	-0.837581	-0.177203	0.516776	0.240584	-0.968912	0.057692	0.490487	0.172649	0.854175
51843	12.613703	-3.529071	9.742693	1.660508	3.092799	-1.407605	-0.855645	-0.169040	0.489181	0.236517	-0.968406	0.079061	0.460361	0.183347	0.868592
51844	14.075316	-2.035005	9.436945	1.293444	2.945351	-1.384957	-0.872085	-0.161085	0.462081	0.230223	-0.968297	0.096943	0.431816	0.190924	0.881523
51845	14.670796	-1.186700	8.504644	0.711199	2.814600	-1.266651	-0.886734	-0.154190	0.435807	0.222017	-0.968940	0.108923	0.405476	0.193343	0.893425
51846	14.808764	-1.095125	7.388112	0.075595	2.662125	-1.120160	-0.899696	-0.148371	0.410529	0.212208	-0.970516	0.114307	0.381465	0.189959	0.904655
51847	15.196832	-1.536376	6.163105	-0.401111	2.515799	-0.992715	-0.911072	-0.143375	0.386511	0.201691	-0.972723	0.114591	0.359538	0.182357	0.915138
51848	15.763107	-1.495566	4.625433	-0.691637	2.327098	-0.878859	-0.920973	-0.138881	0.364034	0.191126	-0.975214	0.111481	0.339528	0.172248	0.924690
51849	16.318600	-1.710105	2.509536	-0.821729	2.126545	-0.720832	-0.929345	-0.135356	0.343505	0.181700	-0.977584	0.106374	0.321407	0.161273	0.933107
51850	16.332796	-2.744328	0.215457	-0.773496	1.902344	-0.535888	-0.936183	-0.133746	0.325075	0.174943	-0.979398	0.100863	0.304888	0.151296	0.940294
51851	15.286324	-4.332509	-1.544577	-0.469602	1.554181	-0.416679	-0.941533	-0.131929	0.310017	0.169592	-0.980656	0.097732	0.291126	0.144595	0.945694
51852	12.858292	-3.363929	-2.931533	-0.103941	0.907456	-0.425183	-0.944864	-0.128999	0.300983	0.165197	-0.981381	0.097984	0.282739	0.142303	0.948582
51853	11.073381	-1.503019	-5.311583	-0.055246	0.070395	-0.388489	-0.945698	-0.125252	0.299945	0.161328	-0.981963	0.098601	0.282185	0.141637	0.948847
51854	11.153968	-1.202538	-4.761897	-0.321006	-0.798408	-0.247989	-0.943816	-0.121635	0.307272	0.157985	-0.982740	0.096245	0.290262	0.139382	0.946742
51855	12.546927	-2.378827	-3.001140	-0.396492	-1.498532	-0.199157	-0.939668	-0.117571	0.321250	0.154889	-0.983535	0.093100	0.305015	0.137241	0.942407
