// General information: 
//  MT Manager version: 2022.2.0 
//  XDA version: 2022.2.0 build 7381 rev 124627 built on 2023-07-19
// Device information: 
//  DeviceId: 00B4CB9F
//  ProductCode: MTW2-3A7G6
//  Firmware Version: 4.6.0
//  Hardware Version: 2.0.0
// Device settings: 
//  Filter Profile: human(46.1)
//  Option Flags: Orientation Smoother Disabled, Position/Velocity Smoother Disabled, Continuous Zero Rotation Update Disabled, AHS Disabled, ICC Disabled
// Coordinate system: ENU
PacketCounter	Acc_X	Acc_Y	Acc_Z	Gyr_X	Gyr_Y	Gyr_Z	Mat[1][1]	Mat[2][1]	Mat[3][1]	Mat[1][2]	Mat[2][2]	Mat[3][2]	Mat[1][3]	Mat[2][3]	Mat[3][3]
38462	10.063664	0.203738	-1.383263	-0.202974	0.035600	0.008833	-0.150743	-0.078969	0.985414	-0.589113	0.807651	-0.025396	-0.793865	-0.584348	-0.168270
38463	9.904922	-0.174413	-1.483834	-0.252575	0.045655	-0.008259	-0.150499	-0.078694	0.985473	-0.586911	0.809265	-0.025009	-0.795541	-0.582148	-0.167980
38464	9.758138	-0.428237	-1.560701	-0.241377	0.090527	-0.026711	-0.149689	-0.078373	0.985622	-0.585032	0.810643	-0.024391	-0.797076	-0.580272	-0.167195
38465	9.656993	-0.592332	-1.588267	-0.167980	0.045572	-0.031899	-0.149244	-0.078332	0.985693	-0.583692	0.811624	-0.023878	-0.798141	-0.578905	-0.166851
38466	9.655191	-0.650224	-1.613163	-0.098004	0.047686	-0.025775	-0.148779	-0.078254	0.985769	-0.582952	0.812166	-0.023511	-0.798769	-0.578154	-0.166452
38467	9.606743	-0.600472	-1.623115	-0.043469	0.039882	-0.020893	-0.148417	-0.078095	0.985836	-0.582557	0.812454	-0.023344	-0.799124	-0.577771	-0.166077
38468	9.665154	-0.546930	-1.739821	0.004090	0.014635	-0.004564	-0.148341	-0.078036	0.985853	-0.582600	0.812423	-0.023356	-0.799107	-0.577823	-0.165979
38469	9.768082	-0.506664	-1.795684	0.033294	0.013412	0.008979	-0.148286	-0.077873	0.985874	-0.583029	0.812110	-0.023546	-0.798804	-0.578285	-0.165826
38470	9.741332	-0.448191	-1.841286	0.053716	0.005062	0.015153	-0.148401	-0.077709	0.985869	-0.583440	0.811807	-0.023835	-0.798483	-0.578733	-0.165811
38471	9.670909	-0.387063	-1.807340	0.055116	-0.000420	0.016988	-0.148609	-0.077548	0.985851	-0.583758	0.811568	-0.024158	-0.798212	-0.579088	-0.165876
38472	9.664100	-0.316580	-1.799259	0.047751	-0.006403	0.004886	-0.148756	-0.077534	0.985830	-0.584136	0.811291	-0.024336	-0.797908	-0.579478	-0.165975
38473	9.679639	-0.230607	-1.825016	0.010028	-0.015525	-0.004705	-0.148854	-0.077624	0.985808	-0.584333	0.811148	-0.024362	-0.797745	-0.579667	-0.166101
38474	9.653795	-0.177070	-1.731136	-0.037844	-0.014182	-0.008669	-0.148984	-0.077765	0.985777	-0.584048	0.811356	-0.024264	-0.797930	-0.579356	-0.166297
38475	9.625708	-0.314558	-1.757126	-0.067891	-0.020892	-0.017167	-0.149081	-0.077957	0.985747	-0.583597	0.811686	-0.024070	-0.798241	-0.578868	-0.166502
38476	9.614157	-0.433540	-1.782975	-0.061179	-0.024811	-0.016693	-0.149248	-0.078224	0.985701	-0.583138	0.812023	-0.023854	-0.798546	-0.578359	-0.166809
38477	9.628997	-0.484202	-1.671491	-0.026306	-0.030111	-0.012474	-0.149415	-0.078490	0.985654	-0.582957	0.812157	-0.023697	-0.798646	-0.578135	-0.167105
38478	9.656836	-0.511974	-1.613394	0.007918	-0.029116	-0.011162	-0.149650	-0.078737	0.985599	-0.583041	0.812099	-0.023650	-0.798541	-0.578184	-0.167437
38479	9.701306	-0.522232	-1.554299	0.037389	-0.029794	-0.014760	-0.149786	-0.078992	0.985558	-0.583560	0.811726	-0.023631	-0.798136	-0.578672	-0.167682
38480	9.742739	-0.465728	-1.432579	0.065283	-0.027959	-0.022343	-0.149945	-0.079323	0.985507	-0.584118	0.811326	-0.023570	-0.797698	-0.579187	-0.167989
38481	9.827289	-0.282100	-1.299574	0.079580	-0.016648	-0.036533	-0.149948	-0.079628	0.985482	-0.584731	0.810888	-0.023450	-0.797249	-0.579758	-0.168151
38482	9.889584	-0.111097	-1.132728	0.063662	-0.005488	-0.046050	-0.149789	-0.080021	0.985475	-0.585311	0.810478	-0.023154	-0.796853	-0.580277	-0.168237
38483	9.924087	-0.039570	-1.116599	0.039678	0.010955	-0.051764	-0.149482	-0.080349	0.985494	-0.585711	0.810200	-0.022786	-0.796616	-0.580621	-0.168171
38484	9.781599	-0.000139	-1.178501	0.021170	0.025302	-0.050130	-0.149054	-0.080596	0.985539	-0.585958	0.810032	-0.022377	-0.796515	-0.580820	-0.167964
38485	9.638801	-0.021869	-1.356241	-0.003031	0.024973	-0.047429	-0.148545	-0.080845	0.985596	-0.586245	0.809837	-0.021928	-0.796399	-0.581058	-0.167692
38486	9.573908	-0.119024	-1.459496	-0.009025	0.018486	-0.038875	-0.148236	-0.081041	0.985626	-0.586235	0.809853	-0.021580	-0.796464	-0.581008	-0.167558
38487	9.611574	-0.176012	-1.620579	-0.012470	0.020420	-0.029252	-0.147939	-0.081167	0.985660	-0.586233	0.809862	-0.021298	-0.796521	-0.580977	-0.167393
38488	9.734827	-0.271687	-1.957509	-0.006096	-0.003249	-0.022492	-0.147899	-0.081356	0.985651	-0.586222	0.809875	-0.021116	-0.796536	-0.580933	-0.167473
38489	10.031850	-0.246039	-1.909902	-0.011723	-0.015394	-0.021886	-0.148004	-0.081539	0.985620	-0.586080	0.809981	-0.020999	-0.796621	-0.580760	-0.167669
38490	9.952468	0.013176	-1.547875	-0.037334	0.005569	-0.034652	-0.147823	-0.081776	0.985627	-0.585838	0.810165	-0.020645	-0.796833	-0.580469	-0.167668
38491	9.635564	0.143893	-1.544993	-0.083183	0.019566	-0.057097	-0.147368	-0.082053	0.985672	-0.585350	0.810533	-0.020042	-0.797276	-0.579916	-0.167477
38492	9.556334	-0.026839	-1.854402	-0.135903	0.009986	-0.058921	-0.147011	-0.082461	0.985692	-0.584357	0.811268	-0.019285	-0.798070	-0.578830	-0.167452
38493	9.650056	-0.367843	-1.886776	-0.155540	0.010945	-0.053941	-0.146725	-0.082768	0.985709	-0.582967	0.812283	-0.018570	-0.799138	-0.577360	-0.167433
38494	9.536855	-0.655265	-1.855175	-0.134935	0.031557	-0.041327	-0.146298	-0.082910	0.985760	-0.581953	0.813023	-0.017988	-0.799954	-0.576298	-0.167194
38495	9.508089	-0.651868	-1.928520	-0.094588	0.026317	-0.032813	-0.145859	-0.082946	0.985822	-0.581388	0.813437	-0.017579	-0.800446	-0.575709	-0.166871
38496	9.632443	-0.562124	-1.913854	-0.065607	0.032965	-0.034085	-0.145464	-0.083021	0.985874	-0.580917	0.813782	-0.017184	-0.800860	-0.575210	-0.166604
38497	9.643820	-0.535790	-1.876358	-0.059010	0.030680	-0.039273	-0.144991	-0.083173	0.985931	-0.580707	0.813941	-0.016735	-0.801098	-0.574963	-0.166313
38498	9.616849	-0.641460	-1.795661	-0.050622	0.045224	-0.049296	-0.144409	-0.083302	0.986006	-0.580377	0.814186	-0.016215	-0.801442	-0.574597	-0.165922
38499	9.663932	-0.615305	-1.714860	-0.018966	0.051254	-0.062160	-0.143709	-0.083442	0.986096	-0.580282	0.814265	-0.015666	-0.801636	-0.574465	-0.165437
38500	9.577694	-0.563775	-1.677590	0.000929	0.042294	-0.074656	-0.143003	-0.083794	0.986169	-0.580402	0.814193	-0.014982	-0.801676	-0.574516	-0.165066
38501	9.684810	-0.520474	-1.675827	0.016106	0.050856	-0.081144	-0.142133	-0.084132	0.986266	-0.580700	0.813993	-0.014249	-0.801614	-0.574750	-0.164551
38502	9.660295	-0.520799	-1.691949	0.029454	0.053912	-0.092860	-0.141228	-0.084566	0.986359	-0.581073	0.813741	-0.013433	-0.801504	-0.575043	-0.164062
38503	9.638491	-0.466744	-1.537566	0.044922	0.037988	-0.095902	-0.140380	-0.085080	0.986435	-0.581711	0.813297	-0.012637	-0.801190	-0.575595	-0.163662
38504	9.664460	-0.389937	-1.395818	0.067608	0.029645	-0.092454	-0.139670	-0.085648	0.986487	-0.582387	0.812825	-0.011886	-0.800823	-0.576178	-0.163408
38505	9.808776	-0.253002	-1.310540	0.082775	0.024415	-0.088421	-0.139001	-0.086081	0.986544	-0.583050	0.812358	-0.011268	-0.800457	-0.576771	-0.163108
38506	9.748338	-0.252821	-1.370609	0.082094	0.031260	-0.088726	-0.138300	-0.086608	0.986596	-0.583835	0.811804	-0.010577	-0.800006	-0.577472	-0.162837
38507	9.736022	-0.269410	-1.314690	0.093171	0.020136	-0.089767	-0.137673	-0.087138	0.986637	-0.584692	0.811194	-0.009943	-0.799488	-0.578248	-0.162628
38508	9.735457	-0.201125	-1.195331	0.090877	0.029510	-0.094065	-0.136953	-0.087717	0.986686	-0.585553	0.810582	-0.009214	-0.798982	-0.579019	-0.162374
38509	9.661715	-0.093127	-1.198595	0.080164	0.035604	-0.098415	-0.136206	-0.088241	0.986743	-0.586178	0.810138	-0.008466	-0.798651	-0.579560	-0.162071
38510	9.633117	-0.087136	-1.270667	0.061718	0.034152	-0.102967	-0.135396	-0.088864	0.986798	-0.586816	0.809685	-0.007601	-0.798320	-0.580098	-0.161775
38511	9.598577	-0.121995	-1.710216	0.047682	0.027948	-0.109484	-0.134536	-0.089528	0.986856	-0.587374	0.809288	-0.006656	-0.798055	-0.580549	-0.161465
38512	10.184540	-0.362814	-1.895000	0.048821	-0.044004	-0.104567	-0.134339	-0.090617	0.986783	-0.587909	0.808907	-0.005754	-0.797694	-0.580912	-0.161942
38513	10.554632	-0.092408	-1.277038	0.020384	-0.004946	-0.089290	-0.133771	-0.091378	0.986790	-0.588472	0.808503	-0.004906	-0.797374	-0.581355	-0.161927
38514	9.776191	0.352999	-0.740327	-0.035791	0.044126	-0.113520	-0.132817	-0.092027	0.986859	-0.588343	0.808602	-0.003779	-0.797629	-0.581114	-0.161540
38515	9.297863	0.569479	-0.916246	-0.118362	0.024780	-0.143398	-0.131745	-0.092933	0.986918	-0.587665	0.809101	-0.002259	-0.798306	-0.580275	-0.161209
38516	9.534458	0.358289	-1.216761	-0.189015	0.012933	-0.136498	-0.130906	-0.093950	0.986933	-0.586340	0.810065	-0.000658	-0.799418	-0.578764	-0.161130
38517	9.634309	-0.037367	-1.275785	-0.204626	0.037214	-0.109958	-0.130020	-0.094534	0.986994	-0.584811	0.811170	0.000655	-0.800682	-0.577120	-0.160753
38518	9.401470	-0.395056	-1.452448	-0.185820	0.051316	-0.094220	-0.129124	-0.094990	0.987068	-0.583449	0.812148	0.001832	-0.801819	-0.575668	-0.160290
38519	9.407069	-0.472451	-1.668753	-0.120942	0.028354	-0.096473	-0.128382	-0.095508	0.987115	-0.582572	0.812774	0.002872	-0.802576	-0.574697	-0.159986
38520	9.625755	-0.263360	-1.647015	-0.072884	0.015644	-0.107221	-0.127698	-0.096277	0.987129	-0.582130	0.813086	0.003996	-0.803006	-0.574127	-0.159875
38521	9.595646	-0.131639	-1.574916	-0.064201	0.018150	-0.118649	-0.126883	-0.097053	0.987158	-0.581711	0.813379	0.005199	-0.803438	-0.573582	-0.159661
38522	9.516407	-0.148561	-1.550467	-0.062253	0.002509	-0.121318	-0.126223	-0.098012	0.987148	-0.581370	0.813614	0.006444	-0.803789	-0.573085	-0.159678
38523	9.556588	-0.431047	-1.532010	-0.040981	-0.002694	-0.119205	-0.125688	-0.098861	0.987132	-0.580943	0.813909	0.007543	-0.804181	-0.572519	-0.159731
38524	9.619898	-0.636554	-1.517363	0.002503	-0.004263	-0.114765	-0.125121	-0.099805	0.987109	-0.581113	0.813777	0.008621	-0.804147	-0.572543	-0.159819
38525	9.611543	-0.594542	-1.381518	0.052823	-0.009679	-0.109834	-0.124559	-0.100674	0.987092	-0.581672	0.813368	0.009556	-0.803830	-0.572973	-0.159872
38526	9.575203	-0.212008	-1.161021	0.092454	-0.013699	-0.105746	-0.124119	-0.101599	0.987052	-0.582552	0.812727	0.010401	-0.803261	-0.573718	-0.160062
38527	9.556177	0.169155	-1.184927	0.087200	-0.017410	-0.101367	-0.123708	-0.102421	0.987019	-0.583324	0.812163	0.011165	-0.802764	-0.574370	-0.160216
38528	9.999730	0.131647	-1.418921	0.073145	-0.036785	-0.085914	-0.123568	-0.103316	0.986943	-0.584023	0.811651	0.011845	-0.802277	-0.574934	-0.160633
38529	10.582244	-0.179778	-1.229700	0.056273	-0.011665	-0.054992	-0.123383	-0.103734	0.986922	-0.584406	0.811370	0.012220	-0.802027	-0.575255	-0.160732
38530	10.263237	-0.212129	-0.858780	0.105450	0.058989	-0.053694	-0.122662	-0.103816	0.987004	-0.585323	0.810703	0.012530	-0.801468	-0.576179	-0.160208
38531	9.778764	0.130261	-1.170018	0.180549	0.066503	-0.093801	-0.121603	-0.104110	0.987104	-0.586936	0.809527	0.013075	-0.800449	-0.577777	-0.159547
38532	9.642998	0.716020	-1.391148	0.219874	0.047541	-0.109379	-0.120646	-0.104705	0.987158	-0.588833	0.808137	0.013753	-0.799200	-0.579613	-0.159152
38533	9.405051	1.130834	-1.616816	0.182991	0.039714	-0.115049	-0.119626	-0.105348	0.987214	-0.590482	0.806920	0.014557	-0.798136	-0.581190	-0.158734
38534	9.222078	1.181016	-1.919293	0.125995	0.016070	-0.111949	-0.118901	-0.106144	0.987216	-0.591626	0.806065	0.015410	-0.797396	-0.582231	-0.158640
38535	9.275508	1.052349	-2.036957	0.069455	-0.019136	-0.098684	-0.118527	-0.106883	0.987182	-0.592129	0.805681	0.016137	-0.797079	-0.582626	-0.158784
38536	9.354728	0.925706	-1.992153	0.010715	-0.023886	-0.088213	-0.118261	-0.107719	0.987123	-0.592325	0.805521	0.016939	-0.796973	-0.582694	-0.159066
38537	9.435647	0.666059	-1.861844	-0.036671	-0.023981	-0.078887	-0.118047	-0.108355	0.987078	-0.591930	0.805795	0.017665	-0.797297	-0.582197	-0.159261
38538	9.408730	0.490297	-1.583860	-0.066634	-0.018943	-0.070058	-0.117849	-0.109016	0.987029	-0.591487	0.806104	0.018411	-0.797655	-0.581646	-0.159481
38539	9.424837	0.446171	-1.470957	-0.092356	-0.024496	-0.067475	-0.117670	-0.109623	0.986984	-0.590801	0.806590	0.019151	-0.798190	-0.580858	-0.159677
38540	9.634760	0.400617	-1.393142	-0.132554	-0.033889	-0.065607	-0.117619	-0.110335	0.986910	-0.589826	0.807284	0.019958	-0.798919	-0.579758	-0.160030
38541	9.698822	0.317835	-1.322430	-0.139623	-0.052070	-0.050490	-0.117765	-0.110963	0.986822	-0.588708	0.808083	0.020610	-0.799721	-0.578524	-0.160489
38542	9.681503	0.169391	-1.155618	-0.131807	-0.053666	-0.043248	-0.118006	-0.111608	0.986721	-0.587711	0.808794	0.021196	-0.800419	-0.577405	-0.161036
38543	9.731897	0.161229	-1.132999	-0.070251	-0.067919	-0.022645	-0.118390	-0.112127	0.986616	-0.587248	0.809122	0.021488	-0.800702	-0.576844	-0.161639
38544	9.720887	0.488580	-1.103814	0.010000	-0.073672	-0.010366	-0.118985	-0.112621	0.986488	-0.587346	0.809050	0.021522	-0.800542	-0.576849	-0.162412
38545	9.651980	0.979103	-0.855514	0.034313	-0.077403	-0.009473	-0.119586	-0.113086	0.986362	-0.587577	0.808883	0.021500	-0.800283	-0.576993	-0.163177
38546	9.893434	1.298602	-1.098716	0.013388	-0.088891	-0.000560	-0.120359	-0.113588	0.986211	-0.587690	0.808802	0.021432	-0.800084	-0.577007	-0.164101
38547	10.401626	1.154350	-1.653011	-0.021016	-0.086873	0.011697	-0.121143	-0.113937	0.986074	-0.587446	0.808983	0.021305	-0.800144	-0.576685	-0.164934
38548	10.688462	0.811283	-1.574552	-0.070808	-0.070529	0.035280	-0.121980	-0.114043	0.985959	-0.586842	0.809428	0.021022	-0.800461	-0.576038	-0.165659
38549	9.950725	0.774303	-1.266782	-0.097095	-0.013372	0.021347	-0.122215	-0.113862	0.985951	-0.585962	0.810069	0.020917	-0.801070	-0.575173	-0.165722
38550	9.681873	0.559133	-1.382818	-0.110665	-0.019647	0.008534	-0.122488	-0.113891	0.985914	-0.585070	0.810712	0.020964	-0.801680	-0.574260	-0.165936
38551	10.112987	0.389279	-1.377175	-0.128304	0.000715	0.004535	-0.122498	-0.113755	0.985928	-0.584008	0.811474	0.021066	-0.802452	-0.573210	-0.165837
38552	9.734862	0.361548	-1.438808	-0.118054	0.060082	-0.008072	-0.122033	-0.113461	0.986020	-0.583076	0.812139	0.021289	-0.803200	-0.572326	-0.165264
38553	9.551208	0.439836	-1.718951	-0.108584	0.074591	-0.017176	-0.121372	-0.113065	0.986147	-0.582108	0.812826	0.021549	-0.804002	-0.571429	-0.164470
38554	9.472272	0.559362	-2.001698	-0.116379	0.059008	-0.018689	-0.120853	-0.112864	0.986233	-0.581200	0.813467	0.021872	-0.804737	-0.570555	-0.163907
38555	9.355225	0.570455	-2.052737	-0.152835	0.057817	-0.014766	-0.120326	-0.112590	0.986329	-0.579969	0.814336	0.022204	-0.805703	-0.569368	-0.163284
38556	9.372510	0.246284	-2.120027	-0.162234	0.044274	-0.000509	-0.120031	-0.112326	0.986395	-0.578666	0.815256	0.022422	-0.806683	-0.568103	-0.162855
38557	9.341533	-0.041392	-2.149691	-0.136065	0.012476	0.008761	-0.120036	-0.112087	0.986422	-0.577429	0.816131	0.022470	-0.807568	-0.566891	-0.162688
38558	9.519370	-0.028401	-2.170681	-0.084682	-0.001642	0.016939	-0.120212	-0.111942	0.986417	-0.576730	0.816628	0.022389	-0.808042	-0.566205	-0.162729
38559	9.666887	0.188511	-2.022902	-0.041896	-0.019979	0.019815	-0.120528	-0.111804	0.986394	-0.576240	0.816979	0.022191	-0.808344	-0.565725	-0.162895
38560	9.725126	0.445832	-1.842550	-0.055049	-0.014382	0.015637	-0.120799	-0.111742	0.986368	-0.575781	0.817306	0.022074	-0.808631	-0.565265	-0.163069
38561	9.689432	0.591907	-1.668955	-0.079139	-0.013346	0.006289	-0.120998	-0.111708	0.986347	-0.575032	0.817833	0.022082	-0.809134	-0.564509	-0.163192
38562	9.544218	0.576990	-1.518836	-0.106113	-0.018249	0.001621	-0.121220	-0.111782	0.986312	-0.574176	0.818431	0.022188	-0.809708	-0.563627	-0.163392
38563	9.628231	0.529658	-1.377133	-0.115809	-0.014836	0.007567	-0.121434	-0.111759	0.986288	-0.573173	0.819133	0.022248	-0.810387	-0.562612	-0.163527
38564	9.667490	0.460570	-1.312386	-0.101138	-0.018294	0.012216	-0.121716	-0.111745	0.986255	-0.572343	0.819713	0.022241	-0.810931	-0.561769	-0.163729
38565	9.696044	0.235076	-1.642144	-0.076093	-0.020240	0.026148	-0.122157	-0.111542	0.986223	-0.571546	0.820275	0.021979	-0.811426	-0.560987	-0.163954
38566	10.262715	-0.068078	-1.888270	-0.045456	-0.058321	0.047836	-0.122968	-0.111460	0.986132	-0.571124	0.820582	0.021530	-0.811601	-0.560556	-0.164563
38567	10.428251	-0.377571	-1.380259	-0.038131	-0.025610	0.072485	-0.123690	-0.110944	0.986099	-0.570640	0.820937	0.020784	-0.811832	-0.560137	-0.164851
38568	10.036364	-0.246090	-0.916374	0.026901	0.029703	0.051423	-0.123807	-0.110338	0.986153	-0.570800	0.820841	0.020181	-0.811702	-0.560397	-0.164607
38569	9.854800	0.273278	-1.164545	0.077260	0.040839	0.014119	-0.123618	-0.109916	0.986224	-0.571286	0.820511	0.019839	-0.811388	-0.560963	-0.164224
38570	9.836440	0.663544	-1.495137	0.064061	0.055175	-0.008504	-0.123186	-0.109659	0.986306	-0.571821	0.820140	0.019766	-0.811077	-0.561556	-0.163735
38571	9.629053	0.723744	-1.654778	0.029964	0.081800	-0.021013	-0.122436	-0.109276	0.986442	-0.571924	0.820066	0.019858	-0.811118	-0.561739	-0.162903
38572	9.352257	0.459795	-1.815998	0.012765	0.093704	-0.012726	-0.121668	-0.108837	0.986586	-0.572048	0.819978	0.019911	-0.811146	-0.561952	-0.162025
38573	9.261951	0.414679	-1.872779	0.007128	0.102978	-0.001633	-0.120911	-0.108220	0.986747	-0.572097	0.819947	0.019824	-0.811225	-0.562117	-0.161053
38574	9.383242	0.302197	-1.708361	-0.013454	0.106317	0.018020	-0.120216	-0.107457	0.986915	-0.571970	0.820040	0.019616	-0.811417	-0.562128	-0.160044
38575	9.369653	-0.044931	-1.619040	-0.034484	0.117653	0.045255	-0.119565	-0.106392	0.987109	-0.571601	0.820308	0.019178	-0.811774	-0.561940	-0.158894
38576	9.401075	-0.191357	-1.749859	-0.033637	0.103662	0.049399	-0.119070	-0.105387	0.987277	-0.571274	0.820547	0.018691	-0.812077	-0.561780	-0.157907
38577	9.490630	-0.100879	-1.856289	-0.013464	0.072253	0.040814	-0.118808	-0.104613	0.987391	-0.571109	0.820672	0.018231	-0.812231	-0.561742	-0.157248
38578	9.470261	0.184215	-1.614505	0.011931	0.042087	0.028317	-0.118693	-0.104127	0.987456	-0.571177	0.820632	0.017880	-0.812200	-0.561890	-0.156878
38579	9.661512	0.573572	-1.308928	-0.006479	0.012489	0.028436	-0.118805	-0.103750	0.987482	-0.570981	0.820776	0.017539	-0.812322	-0.561749	-0.156752
38580	9.532265	0.889727	-1.535616	-0.058456	-0.004761	0.048742	-0.119187	-0.103359	0.987477	-0.570452	0.821153	0.017097	-0.812637	-0.561271	-0.156832
38581	9.668864	0.920070	-1.408569	-0.121956	-0.044811	0.070511	-0.119980	-0.102998	0.987419	-0.569316	0.821952	0.016561	-0.813317	-0.560166	-0.157256
38582	9.788976	0.553555	-1.376056	-0.197898	-0.018301	0.084912	-0.120676	-0.102384	0.987398	-0.567608	0.823144	0.015982	-0.814407	-0.558526	-0.157448
38583	9.848782	0.115805	-1.436494	-0.167541	-0.002461	0.100255	-0.121291	-0.101531	0.987411	-0.566026	0.824247	0.015225	-0.815416	-0.557053	-0.157443
38584	9.868723	-0.016279	-1.298410	-0.111079	0.027271	0.094756	-0.121668	-0.100580	0.987462	-0.565009	0.824959	0.014411	-0.816065	-0.556171	-0.157200
38585	9.859459	0.017393	-1.300141	-0.087267	0.038750	0.077055	-0.121764	-0.099710	0.987538	-0.564106	0.825587	0.013803	-0.816675	-0.555396	-0.156774
38586	9.875722	0.104198	-1.405625	-0.082522	0.048713	0.060987	-0.121774	-0.098918	0.987616	-0.563362	0.826103	0.013278	-0.817187	-0.554769	-0.156325
38587	9.825943	-0.053231	-1.363178	-0.079217	0.054409	0.047453	-0.121667	-0.098171	0.987704	-0.562586	0.826639	0.012862	-0.817737	-0.554104	-0.155804
38588	9.760169	-0.154883	-1.433691	-0.035385	0.052523	0.052048	-0.121594	-0.097431	0.987786	-0.562238	0.826883	0.012350	-0.817988	-0.553869	-0.155324
38589	9.735190	-0.107017	-1.420751	0.044522	0.033071	0.059564	-0.121681	-0.096704	0.987847	-0.562422	0.826768	0.011657	-0.817848	-0.554169	-0.154990
38590	9.782876	0.158092	-1.305936	0.077788	0.030828	0.068955	-0.121881	-0.095945	0.987897	-0.562979	0.826401	0.010803	-0.817435	-0.554848	-0.154738
38591	9.770635	0.384557	-1.270629	0.057075	0.029877	0.069611	-0.122137	-0.095157	0.987941	-0.563378	0.826139	0.009923	-0.817121	-0.555373	-0.154511
38592	9.771262	0.377937	-1.267795	0.000713	0.030398	0.058372	-0.122281	-0.094488	0.987988	-0.563317	0.826189	0.009293	-0.817142	-0.555414	-0.154254
38593	9.764989	0.270870	-1.134338	-0.057205	0.039054	0.044922	-0.122272	-0.093844	0.988050	-0.562714	0.826604	0.008874	-0.817559	-0.554905	-0.153878
38594	9.739646	-0.000732	-1.132340	-0.079755	0.039939	0.036377	-0.122214	-0.093303	0.988108	-0.562022	0.827078	0.008584	-0.818044	-0.554289	-0.153519
38595	9.672762	-0.205759	-1.109011	-0.060021	0.026508	0.033662	-0.122207	-0.092859	0.988151	-0.561414	0.827493	0.008330	-0.818462	-0.553743	-0.153258
38596	9.688902	-0.159015	-1.089849	-0.030246	0.020977	0.031195	-0.122274	-0.092467	0.988180	-0.561132	0.827687	0.008016	-0.818645	-0.553519	-0.153091
38597	9.787551	0.002536	-0.994322	-0.000836	-0.001746	0.043180	-0.122579	-0.092067	0.988179	-0.561016	0.827771	0.007531	-0.818679	-0.553461	-0.153119
38598	9.880334	0.085360	-1.052898	-0.009202	0.015852	0.042265	-0.122751	-0.091611	0.988200	-0.560893	0.827858	0.007075	-0.818738	-0.553406	-0.153004
38599	9.880469	0.019182	-1.081700	-0.005990	0.020448	0.045899	-0.122931	-0.091051	0.988230	-0.560763	0.827950	0.006528	-0.818800	-0.553360	-0.152839
38600	9.804409	-0.134297	-1.206298	0.013133	0.024414	0.043906	-0.123041	-0.090534	0.988263	-0.560821	0.827915	0.006021	-0.818743	-0.553498	-0.152641
38601	9.813948	-0.210883	-1.213857	0.043104	0.032425	0.044570	-0.123071	-0.089939	0.988314	-0.561066	0.827753	0.005460	-0.818571	-0.553837	-0.152334
38602	9.671932	-0.090156	-1.230133	0.077291	0.029402	0.036238	-0.123098	-0.089458	0.988354	-0.561658	0.827355	0.004932	-0.818161	-0.554510	-0.152091
38603	9.617336	0.132641	-1.413851	0.094561	0.035215	0.025054	-0.122942	-0.089031	0.988412	-0.562349	0.826887	0.004535	-0.817709	-0.555276	-0.151726
38604	9.634749	0.221082	-1.521491	0.098260	0.011763	0.027068	-0.123062	-0.088723	0.988425	-0.563123	0.826363	0.004066	-0.817158	-0.556105	-0.151656
38605	9.533305	0.120844	-1.639127	0.098372	-0.002737	0.034836	-0.123342	-0.088397	0.988419	-0.563862	0.825862	0.003497	-0.816607	-0.556901	-0.151707
38606	9.668568	-0.038330	-1.602257	0.107545	-0.031417	0.042087	-0.123900	-0.088207	0.988367	-0.564692	0.825297	0.002865	-0.815949	-0.557767	-0.152064
38607	9.768536	-0.053139	-1.391147	0.086368	-0.031948	0.051599	-0.124504	-0.087908	0.988317	-0.565317	0.824871	0.002154	-0.815424	-0.558444	-0.152395
38608	9.689820	0.078374	-1.438157	0.065265	-0.029789	0.038324	-0.125027	-0.087740	0.988266	-0.565805	0.824537	0.001623	-0.815005	-0.558963	-0.152734
38609	9.604514	0.183739	-1.466490	0.049154	-0.030217	0.013753	-0.125400	-0.087749	0.988218	-0.566158	0.824296	0.001351	-0.814703	-0.559318	-0.153047
38610	9.673054	0.085831	-1.431012	0.027655	-0.040083	0.014134	-0.125871	-0.087839	0.988150	-0.566369	0.824151	0.001116	-0.814483	-0.559517	-0.153486
38611	9.735274	0.021472	-1.346810	0.009757	-0.033483	0.026855	-0.126357	-0.087788	0.988093	-0.566461	0.824088	0.000778	-0.814344	-0.559617	-0.153858
38612	9.767703	-0.212166	-1.271029	0.006542	-0.022876	0.043020	-0.126851	-0.087544	0.988051	-0.566463	0.824087	0.000291	-0.814265	-0.559658	-0.154127
38613	9.738531	-0.280900	-1.379169	0.033004	-0.022933	0.057581	-0.127456	-0.087118	0.988011	-0.566611	0.823986	-0.000439	-0.814068	-0.559873	-0.154384
38614	9.815607	-0.157194	-1.412972	0.051957	-0.027026	0.054234	-0.128048	-0.086804	0.987962	-0.566968	0.823739	-0.001108	-0.813727	-0.560285	-0.154693
38615	9.864729	0.048052	-1.335026	0.025643	-0.008659	0.039265	-0.128408	-0.086496	0.987942	-0.567161	0.823605	-0.001609	-0.813535	-0.560529	-0.154815
38616	9.792664	0.168235	-1.271007	-0.021448	0.010478	0.019315	-0.128496	-0.086260	0.987951	-0.566966	0.823739	-0.001819	-0.813658	-0.560368	-0.154754
38617	9.745778	0.186213	-1.385703	-0.050326	0.022105	-0.002496	-0.128330	-0.086107	0.987986	-0.566501	0.824059	-0.001763	-0.814007	-0.559922	-0.154531
38618	9.653214	0.081816	-1.480236	-0.058927	0.025694	-0.009147	-0.128133	-0.086020	0.988019	-0.566037	0.824378	-0.001634	-0.814361	-0.559465	-0.154320
38619	9.617277	-0.102208	-1.610332	-0.060650	0.023098	0.010100	-0.128009	-0.085802	0.988055	-0.565531	0.824725	-0.001650	-0.814732	-0.558987	-0.154096
38620	9.684820	-0.385699	-1.660384	-0.044146	0.012960	0.027489	-0.128123	-0.085484	0.988067	-0.565140	0.824993	-0.001906	-0.814986	-0.558640	-0.154011
38621	9.711111	-0.635419	-1.704258	-0.017853	0.012040	0.036836	-0.128292	-0.085045	0.988083	-0.564881	0.825169	-0.002321	-0.815139	-0.558447	-0.153903
38622	9.669330	-0.696721	-1.741364	0.022712	0.015591	0.036154	-0.128433	-0.084641	0.988100	-0.565023	0.825070	-0.002765	-0.815018	-0.558655	-0.153790
38623	9.674077	-0.571748	-1.767342	0.057401	0.009949	0.021966	-0.128533	-0.084355	0.988111	-0.565429	0.824791	-0.003139	-0.814720	-0.559110	-0.153710
38624	9.635906	-0.309711	-1.795967	0.054400	0.003722	0.001638	-0.128576	-0.084302	0.988110	-0.565874	0.824485	-0.003291	-0.814405	-0.559569	-0.153713
38625	9.552846	-0.045419	-1.745894	0.015625	-0.001918	-0.013459	-0.128603	-0.084385	0.988099	-0.566081	0.824343	-0.003277	-0.814256	-0.559766	-0.153781
38626	9.556947	0.104541	-1.617339	-0.029812	-0.015149	-0.019072	-0.128682	-0.084608	0.988070	-0.565867	0.824491	-0.003095	-0.814393	-0.559514	-0.153974
38627	9.541419	-0.084762	-1.499507	-0.080252	-0.010858	-0.018577	-0.128737	-0.084754	0.988050	-0.565189	0.824956	-0.002876	-0.814855	-0.558806	-0.154105
38628	9.655932	-0.321202	-1.405905	-0.079290	-0.011308	-0.011376	-0.128829	-0.084893	0.988027	-0.564561	0.825387	-0.002694	-0.815275	-0.558149	-0.154261
38629	9.772303	-0.423335	-1.393621	-0.061880	-0.002320	0.004567	-0.128964	-0.084785	0.988018	-0.564005	0.825767	-0.002757	-0.815639	-0.557603	-0.154313
38630	9.883214	-0.430029	-1.300699	-0.050567	0.018826	-0.007284	-0.128833	-0.084721	0.988041	-0.563606	0.826040	-0.002660	-0.815935	-0.557208	-0.154171
38631	9.937894	-0.407048	-1.343732	-0.053255	0.009154	-0.016327	-0.128768	-0.084747	0.988047	-0.563242	0.826288	-0.002533	-0.816197	-0.556835	-0.154132
38632	10.163179	-0.445862	-1.259933	-0.047330	0.035954	-0.030765	-0.128365	-0.084782	0.988096	-0.562899	0.826523	-0.002209	-0.816497	-0.556482	-0.153820
38633	10.194198	-0.570938	-1.185655	-0.031895	0.068232	-0.060628	-0.127474	-0.084858	0.988205	-0.562607	0.826723	-0.001583	-0.816837	-0.556173	-0.153127
38634	10.254643	-0.598945	-0.985923	-0.003502	0.111852	-0.094456	-0.126093	-0.084998	0.988370	-0.562702	0.826659	-0.000697	-0.816986	-0.556246	-0.152064
38635	9.769167	-0.352911	-1.016344	0.035324	0.132821	-0.129205	-0.124312	-0.085309	0.988569	-0.563182	0.826332	0.000489	-0.816929	-0.556684	-0.150767
38636	9.206576	0.011667	-1.246646	0.057205	0.162968	-0.141857	-0.122245	-0.085554	0.988806	-0.563829	0.825890	0.001753	-0.816795	-0.557303	-0.149199
38637	9.008131	0.338496	-1.722995	0.062105	0.104861	-0.116188	-0.120806	-0.085843	0.988957	-0.564377	0.825513	0.002714	-0.816630	-0.557817	-0.148175
38638	9.219909	0.359873	-2.099341	0.001634	0.045633	-0.054122	-0.120192	-0.086017	0.989017	-0.564460	0.825454	0.003194	-0.816663	-0.557876	-0.147766
38639	9.482950	0.159111	-2.345679	-0.064684	0.012610	-0.014202	-0.120030	-0.086014	0.989037	-0.563849	0.825871	0.003395	-0.817109	-0.557260	-0.147628
38640	9.483281	-0.085968	-2.466993	-0.114300	-0.012284	-0.004582	-0.120168	-0.086101	0.989013	-0.562924	0.826501	0.003556	-0.817726	-0.556312	-0.147788
38641	9.475999	-0.420051	-2.249504	-0.152411	-0.022138	-0.020043	-0.120284	-0.086359	0.988976	-0.561722	0.827317	0.003923	-0.818535	-0.555058	-0.148022
38642	9.368903	-0.775396	-1.910705	-0.153643	-0.027447	-0.031646	-0.120395	-0.086754	0.988928	-0.560506	0.828138	0.004411	-0.819352	-0.553769	-0.148329
38643	9.454925	-0.929116	-1.709118	-0.079635	-0.038314	-0.040297	-0.120541	-0.087270	0.988865	-0.559960	0.828505	0.004860	-0.819704	-0.553139	-0.148736
38644	9.581753	-0.778452	-1.346262	0.020545	-0.046257	-0.048193	-0.120714	-0.087906	0.988788	-0.560191	0.828347	0.005253	-0.819521	-0.553276	-0.149237
38645	9.678742	-0.269003	-1.087157	0.098616	-0.053850	-0.051242	-0.120842	-0.088620	0.988708	-0.560996	0.827799	0.005631	-0.818951	-0.553981	-0.149749
38646	9.732516	0.356503	-0.988345	0.119600	-0.066610	-0.038861	-0.121233	-0.089292	0.988600	-0.562026	0.827099	0.005783	-0.818187	-0.554918	-0.150456
38647	9.749087	0.741877	-1.110255	0.067152	-0.081286	-0.021919	-0.121833	-0.089866	0.988474	-0.562561	0.826736	0.005824	-0.817730	-0.555367	-0.151279
38648	9.812743	0.828712	-1.253496	-0.011278	-0.080700	-0.006025	-0.122523	-0.090345	0.988345	-0.562480	0.826790	0.005848	-0.817683	-0.555208	-0.152118
38649	9.736940	0.723076	-1.513945	-0.079965	-0.073360	0.002313	-0.123188	-0.090670	0.988233	-0.561742	0.827292	0.005880	-0.818090	-0.554407	-0.152846
38650	9.736315	0.384314	-1.688142	-0.131678	-0.069009	-0.007075	-0.123777	-0.091092	0.988120	-0.560677	0.828012	0.006099	-0.818731	-0.553261	-0.153562
38651	9.773059	0.100327	-1.736221	-0.146659	-0.071126	-0.016213	-0.124307	-0.091547	0.988012	-0.559328	0.828922	0.006434	-0.819573	-0.551822	-0.154246
38652	9.832216	-0.135425	-1.801808	-0.132678	-0.067229	-0.031466	-0.124746	-0.092159	0.987899	-0.558283	0.829622	0.006898	-0.820219	-0.550667	-0.154943
38653	9.853043	-0.343122	-1.807159	-0.096113	-0.077044	-0.036078	-0.125215	-0.092840	0.987776	-0.557499	0.830145	0.007353	-0.820680	-0.549763	-0.155705
38654	9.898670	-0.463064	-1.604277	-0.057856	-0.094629	-0.035910	-0.125855	-0.093639	0.987620	-0.557073	0.830428	0.007746	-0.820872	-0.549201	-0.156677
38655	9.989026	-0.564463	-1.324518	-0.002006	-0.089900	-0.041600	-0.126432	-0.094428	0.987471	-0.557120	0.830393	0.008075	-0.820751	-0.549119	-0.157596
38656	10.041969	-0.607487	-0.966284	0.069019	-0.063617	-0.055652	-0.126707	-0.095220	0.987359	-0.557760	0.829959	0.008463	-0.820273	-0.549638	-0.158272
38657	9.939572	-0.228428	-0.558226	0.164252	-0.024752	-0.079529	-0.126549	-0.095947	0.987309	-0.559196	0.828988	0.008886	-0.819320	-0.550975	-0.158561
38658	9.737909	0.520043	-0.422286	0.216035	0.005820	-0.090293	-0.126059	-0.096644	0.987304	-0.561082	0.827707	0.009382	-0.818105	-0.552776	-0.158565
38659	9.735975	1.090698	-0.588088	0.186993	0.020776	-0.084894	-0.125445	-0.097204	0.987327	-0.562760	0.826561	0.009875	-0.817046	-0.554390	-0.158390
38660	9.699943	1.276884	-0.836739	0.098312	0.029704	-0.057384	-0.124942	-0.097494	0.987362	-0.563639	0.825958	0.010233	-0.816517	-0.555237	-0.158148
38661	9.665575	1.108700	-1.109528	0.011228	0.030659	-0.050048	-0.124433	-0.097716	0.987405	-0.563826	0.825825	0.010672	-0.816466	-0.555397	-0.157855
38662	9.619584	0.791157	-1.389791	-0.047859	0.030950	-0.052234	-0.123949	-0.097956	0.987442	-0.563504	0.826037	0.011210	-0.816762	-0.555038	-0.157586
38663	9.557488	0.579980	-1.610995	-0.074793	0.024081	-0.054018	-0.123484	-0.098228	0.987473	-0.562926	0.826423	0.011813	-0.817231	-0.554416	-0.157345
38664	9.472905	0.415301	-1.770773	-0.093150	0.008136	-0.050937	-0.123194	-0.098584	0.987474	-0.562231	0.826887	0.012410	-0.817752	-0.553660	-0.157295
38665	9.476404	0.321270	-1.762672	-0.109808	-0.018094	-0.042633	-0.123179	-0.098966	0.987437	-0.561318	0.827499	0.012914	-0.818382	-0.552676	-0.157482
38666	9.610044	0.212892	-1.766341	-0.129332	-0.037127	-0.029208	-0.123383	-0.099393	0.987369	-0.560299	0.828183	0.013353	-0.819049	-0.551574	-0.157873
38667	9.673510	0.080576	-1.572064	-0.124861	-0.047597	-0.010629	-0.123792	-0.099677	0.987289	-0.559251	0.828888	0.013563	-0.819704	-0.550463	-0.158355
38668	9.692303	-0.011572	-1.425744	-0.102292	-0.056047	-0.000866	-0.124310	-0.099973	0.987194	-0.558417	0.829448	0.013681	-0.820194	-0.549565	-0.158936
38669	9.608291	0.059159	-1.417096	-0.080942	-0.069833	-0.002718	-0.124926	-0.100341	0.987079	-0.557800	0.829861	0.013763	-0.820520	-0.548873	-0.159642
38670	9.626045	0.101787	-1.353321	-0.053822	-0.083020	0.005000	-0.125698	-0.100735	0.986941	-0.557356	0.830160	0.013747	-0.820703	-0.548349	-0.160495
38671	9.618824	0.073130	-1.342607	-0.038267	-0.077762	0.010004	-0.126467	-0.101005	0.986815	-0.556952	0.830433	0.013622	-0.820860	-0.547886	-0.161278
38672	9.656214	0.014677	-1.426443	-0.013616	-0.066208	0.011072	-0.127136	-0.101256	0.986703	-0.556830	0.830517	0.013481	-0.820839	-0.547712	-0.161971
38673	9.928444	0.092299	-1.317228	0.020074	-0.066604	0.008474	-0.127806	-0.101505	0.986591	-0.557057	0.830368	0.013269	-0.820581	-0.547892	-0.162670
38674	10.092290	0.292239	-1.182134	0.033995	-0.027733	0.007169	-0.128137	-0.101577	0.986541	-0.557331	0.830187	0.013090	-0.820343	-0.548152	-0.162990
38675	10.171062	0.494717	-0.971746	0.027735	0.002568	0.001528	-0.128141	-0.101524	0.986546	-0.557532	0.830054	0.013003	-0.820206	-0.548365	-0.162967
38676	9.944783	0.595931	-1.018011	-0.005907	0.047887	-0.017438	-0.127714	-0.101387	0.986615	-0.557510	0.830067	0.013131	-0.820288	-0.548370	-0.162535
38677	9.821146	0.529852	-1.224238	-0.041456	0.063332	-0.023478	-0.127123	-0.101180	0.986713	-0.557175	0.830288	0.013357	-0.820607	-0.548074	-0.161923
38678	9.723738	0.411453	-1.438277	-0.066860	0.076889	-0.025018	-0.126415	-0.100947	0.986828	-0.556662	0.830627	0.013658	-0.821065	-0.547603	-0.161197
38679	9.608647	0.176624	-1.612102	-0.062818	0.080171	-0.019403	-0.125730	-0.100610	0.986950	-0.556200	0.830933	0.013850	-0.821482	-0.547200	-0.160433
38680	9.569485	0.010763	-1.848291	-0.034885	0.055031	-0.010688	-0.125282	-0.100378	0.987030	-0.555931	0.831111	0.013958	-0.821733	-0.546972	-0.159926
38681	9.592677	-0.020158	-2.049371	-0.010889	0.024444	-0.004565	-0.125097	-0.100241	0.987068	-0.555830	0.831178	0.013966	-0.821829	-0.546895	-0.159695
38682	9.464833	0.104998	-2.221554	0.006084	-0.002604	-0.001516	-0.125174	-0.100247	0.987057	-0.555886	0.831142	0.013918	-0.821780	-0.546949	-0.159763
38683	9.244165	0.202750	-2.307231	0.013926	-0.051677	0.005310	-0.125655	-0.100444	0.986976	-0.555901	0.831134	0.013811	-0.821697	-0.546925	-0.160273
38684	9.416876	0.300108	-2.199253	-0.006500	-0.080021	0.015746	-0.126463	-0.100730	0.986844	-0.555831	0.831184	0.013612	-0.821620	-0.546797	-0.161103
38685	9.574251	0.303439	-1.984764	-0.030855	-0.100603	0.024145	-0.127485	-0.101012	0.986683	-0.555404	0.831474	0.013361	-0.821751	-0.546304	-0.162103
38686	9.859868	0.194729	-1.740321	-0.062109	-0.098980	0.031832	-0.128538	-0.101268	0.986521	-0.554856	0.831843	0.013095	-0.821957	-0.545694	-0.163113
38687	9.831368	0.041638	-1.602906	-0.071855	-0.069602	0.036293	-0.129341	-0.101318	0.986410	-0.554183	0.832296	0.012822	-0.822284	-0.544994	-0.163799
38688	10.032122	-0.083571	-1.440752	-0.040491	-0.052552	0.030934	-0.130008	-0.101326	0.986322	-0.553814	0.832546	0.012530	-0.822428	-0.544610	-0.164353
38689	10.153903	-0.178064	-1.222844	0.012872	-0.025943	0.016305	-0.130348	-0.101304	0.986279	-0.553898	0.832493	0.012304	-0.822317	-0.544695	-0.164626
38690	10.107369	-0.076336	-0.851002	0.035769	0.027247	-0.012478	-0.130118	-0.101239	0.986316	-0.554212	0.832284	0.012315	-0.822142	-0.545026	-0.164403
38691	9.801825	0.057582	-0.841145	0.081289	0.057371	-0.048893	-0.129410	-0.101296	0.986404	-0.554903	0.831819	0.012621	-0.821788	-0.545725	-0.163855
38692	9.643432	0.354177	-1.147860	0.145678	0.064143	-0.071344	-0.128550	-0.101518	0.986493	-0.556195	0.830949	0.013034	-0.821049	-0.547008	-0.163282
38693	9.502618	0.438648	-1.420499	0.158839	0.057713	-0.047439	-0.127888	-0.101542	0.986577	-0.557581	0.830019	0.013150	-0.820213	-0.548414	-0.162767
38694	9.532119	0.360281	-1.528813	0.170164	0.042208	-0.011285	-0.127542	-0.101383	0.986638	-0.558993	0.829071	0.012932	-0.819304	-0.549875	-0.162414
38695	9.608560	0.395825	-1.602327	0.165232	0.036329	0.021059	-0.127394	-0.100962	0.986700	-0.560206	0.828260	0.012421	-0.818498	-0.551173	-0.162075
38696	9.645638	0.592583	-1.695932	0.131136	0.024295	0.034627	-0.127453	-0.100522	0.986738	-0.561238	0.827570	0.011814	-0.817782	-0.552289	-0.161892
38697	9.721678	0.688088	-1.740688	0.051193	0.015511	0.031866	-0.127537	-0.100139	0.986766	-0.561571	0.827350	0.011380	-0.817540	-0.552688	-0.161752
38698	9.684730	0.588707	-1.738607	-0.035773	0.025524	0.023502	-0.127523	-0.099783	0.986804	-0.561252	0.827570	0.011152	-0.817762	-0.552423	-0.161538
38699	9.604262	0.335289	-1.732581	-0.094293	0.021192	0.018558	-0.127511	-0.099471	0.986837	-0.560448	0.828116	0.011056	-0.818315	-0.551660	-0.161342
38700	9.548938	0.091496	-1.705944	-0.101402	0.009053	0.015373	-0.127586	-0.099274	0.986847	-0.559601	0.828689	0.011015	-0.818882	-0.550835	-0.161283
38701	9.508971	-0.102952	-1.663695	-0.082906	0.002442	0.018667	-0.127756	-0.099043	0.986848	-0.558859	0.829191	0.010871	-0.819362	-0.550120	-0.161285
38702	9.582311	-0.145658	-1.542125	-0.021048	-0.016793	0.031857	-0.128135	-0.098851	0.986818	-0.558649	0.829337	0.010537	-0.819446	-0.549935	-0.161490
38703	9.648129	-0.020856	-1.452629	0.041502	-0.019869	0.041488	-0.128574	-0.098603	0.986786	-0.559056	0.829070	0.010000	-0.819100	-0.550382	-0.161721
38704	9.866741	0.042672	-1.436790	0.091703	-0.031250	0.050998	-0.129179	-0.098332	0.986734	-0.559744	0.828613	0.009295	-0.818535	-0.551118	-0.162080
38705	10.161792	0.099653	-1.371632	0.124043	-0.024867	0.054477	-0.129724	-0.097999	0.986695	-0.560742	0.827947	0.008510	-0.817766	-0.552177	-0.162357
38706	10.253416	0.230389	-1.261246	0.137211	-0.014129	0.038966	-0.130121	-0.097735	0.986669	-0.561816	0.827225	0.007849	-0.816965	-0.553305	-0.162548
38707	10.145059	0.317626	-1.253682	0.106715	0.009444	0.022460	-0.130193	-0.097469	0.986686	-0.562602	0.826695	0.007429	-0.816412	-0.554144	-0.162466
38708	9.804356	0.429943	-1.448112	0.077214	0.017416	-0.006686	-0.130077	-0.097408	0.986708	-0.563244	0.826258	0.007316	-0.815988	-0.554805	-0.162341
38709	9.553780	0.273562	-1.639541	0.054331	0.024042	-0.004514	-0.129927	-0.097265	0.986741	-0.563711	0.825941	0.007189	-0.815689	-0.555303	-0.162141
38710	9.392678	0.013058	-1.893797	0.042742	0.026107	0.012419	-0.129847	-0.096998	0.986778	-0.564047	0.825714	0.006944	-0.815470	-0.555687	-0.161928
38711	9.402455	-0.050215	-2.044647	0.048101	-0.000954	0.035559	-0.130051	-0.096704	0.986780	-0.564361	0.825502	0.006520	-0.815220	-0.556053	-0.161934
38712	9.380015	0.003065	-2.123347	0.035449	0.011847	0.043577	-0.130264	-0.096259	0.986796	-0.564597	0.825345	0.005979	-0.815023	-0.556363	-0.161860
38713	9.326084	0.038609	-2.048055	0.021584	-0.001142	0.043424	-0.130575	-0.095843	0.986795	-0.564537	0.825389	0.005465	-0.815014	-0.556369	-0.161882
38714	9.249848	0.027873	-1.956533	-0.000003	-0.008922	0.040814	-0.130941	-0.095536	0.986776	-0.564487	0.825427	0.005009	-0.814990	-0.556366	-0.162011
38715	9.316534	0.142083	-1.725225	-0.023367	-0.009385	0.030771	-0.131259	-0.095309	0.986756	-0.564363	0.825513	0.004663	-0.815025	-0.556277	-0.162145
38716	9.641055	0.161908	-1.455432	-0.045597	0.000250	0.028843	-0.131483	-0.095050	0.986751	-0.563957	0.825793	0.004399	-0.815270	-0.555907	-0.162181
38717	9.864165	0.023608	-1.330914	-0.067217	0.033318	0.019416	-0.131374	-0.094688	0.986800	-0.563483	0.826116	0.004252	-0.815615	-0.555487	-0.161885
38718	9.998338	-0.154095	-1.358827	-0.044283	0.042410	0.017309	-0.131189	-0.094290	0.986863	-0.563103	0.826377	0.004100	-0.815907	-0.555167	-0.161506
38719	9.865446	-0.133787	-1.398293	-0.012056	0.056025	0.016900	-0.130887	-0.093817	0.986948	-0.563082	0.826392	0.003880	-0.815970	-0.555225	-0.160991
38720	9.621374	-0.014345	-1.483554	0.024668	0.054718	0.016187	-0.130595	-0.093359	0.987030	-0.563265	0.826268	0.003628	-0.815890	-0.555486	-0.160492
38721	9.545806	-0.011383	-1.529100	0.041567	0.038325	0.020278	-0.130413	-0.092985	0.987090	-0.563688	0.825981	0.003334	-0.815627	-0.555976	-0.160133
38722	9.616378	-0.097861	-1.629371	0.054500	0.029257	0.019680	-0.130348	-0.092639	0.987131	-0.564110	0.825694	0.003000	-0.815346	-0.556460	-0.159887
38723	9.960107	-0.157449	-1.787266	0.076077	0.006401	0.027428	-0.130524	-0.092332	0.987136	-0.564697	0.825294	0.002527	-0.814912	-0.557103	-0.159861
38724	10.236653	-0.110130	-1.773806	0.070735	0.002228	0.029152	-0.130734	-0.092060	0.987134	-0.565239	0.824925	0.002073	-0.814502	-0.557695	-0.159881
38725	9.944077	0.084044	-1.509575	0.046216	0.011494	0.027312	-0.130835	-0.091724	0.987152	-0.565444	0.824785	0.001694	-0.814343	-0.557958	-0.159775
38726	9.521769	0.192883	-1.579474	0.009951	0.020115	0.017825	-0.130835	-0.091445	0.987178	-0.565505	0.824743	0.001449	-0.814301	-0.558065	-0.159618
38727	9.410746	-0.020161	-1.776815	-0.010597	-0.011146	0.026263	-0.131075	-0.091311	0.987158	-0.565530	0.824727	0.001195	-0.814245	-0.558111	-0.159740
38728	9.594439	-0.318308	-1.683736	-0.006455	-0.009995	0.034904	-0.131417	-0.091059	0.987136	-0.565435	0.824792	0.000807	-0.814256	-0.558056	-0.159880
38729	9.679665	-0.472628	-1.532182	0.033461	0.003508	0.036115	-0.131614	-0.090747	0.987139	-0.565784	0.824554	0.000365	-0.813982	-0.558459	-0.159866
38730	9.930737	-0.321597	-1.337741	0.066388	0.012875	0.035510	-0.131773	-0.090363	0.987153	-0.566281	0.824213	-0.000145	-0.813611	-0.559024	-0.159780
38731	10.309480	0.090666	-0.927073	0.043912	0.046870	0.021407	-0.131518	-0.089936	0.987226	-0.566727	0.823905	-0.000441	-0.813341	-0.559546	-0.159327
38732	10.157733	0.275164	-0.787123	-0.003224	0.109751	-0.003229	-0.130669	-0.089329	0.987393	-0.566709	0.823918	-0.000458	-0.813490	-0.559625	-0.158284
38733	9.574655	0.192007	-1.074133	-0.019613	0.121317	-0.035174	-0.129577	-0.088904	0.987576	-0.566745	0.823893	-0.000192	-0.813640	-0.559729	-0.157143
38734	9.447131	-0.109033	-1.503456	0.002528	0.114277	-0.033613	-0.128519	-0.088522	0.987748	-0.566813	0.823847	0.000083	-0.813760	-0.559858	-0.156056
38735	9.351176	-0.230480	-1.714619	0.060098	0.079451	-0.021016	-0.127814	-0.088238	0.987865	-0.567515	0.823363	0.000117	-0.813382	-0.560613	-0.155314
38736	9.339935	-0.058461	-1.706937	0.106363	0.063918	-0.006025	-0.127324	-0.087909	0.987958	-0.568392	0.822758	-0.000042	-0.812847	-0.561552	-0.154723
38737	9.474594	0.146841	-1.693084	0.099724	0.048642	0.004753	-0.126981	-0.087578	0.988031	-0.569213	0.822190	-0.000277	-0.812325	-0.562436	-0.154253
38738	9.577613	0.159082	-1.758494	0.058737	0.040129	0.015140	-0.126804	-0.087208	0.988087	-0.569675	0.821870	-0.000570	-0.812029	-0.562961	-0.153897
38739	9.635454	0.171125	-1.745030	0.010080	0.034247	0.023453	-0.126692	-0.086797	0.988137	-0.569716	0.821841	-0.000855	-0.812018	-0.563066	-0.153570
38740	9.641316	0.186389	-1.619473	-0.025898	0.015485	0.023846	-0.126765	-0.086495	0.988155	-0.569479	0.822005	-0.001104	-0.812172	-0.562873	-0.153458
38741	9.643138	0.135740	-1.437236	-0.051826	0.007681	0.026624	-0.126919	-0.086217	0.988159	-0.569175	0.822215	-0.001367	-0.812362	-0.562609	-0.153427
38742	9.638399	-0.036458	-1.281812	-0.074747	0.003704	0.027791	-0.127110	-0.085948	0.988158	-0.568537	0.822657	-0.001580	-0.812779	-0.562005	-0.153433
38743	9.656013	-0.131130	-1.128806	-0.062492	0.006978	0.028761	-0.127245	-0.085671	0.988164	-0.568117	0.822946	-0.001809	-0.813051	-0.561624	-0.153387
38744	9.722632	-0.159869	-1.112602	-0.034185	0.013023	0.028919	-0.127367	-0.085341	0.988177	-0.567807	0.823159	-0.002096	-0.813248	-0.561361	-0.153300
38745	9.733382	-0.161109	-1.232427	0.004034	0.024052	0.027132	-0.127377	-0.084943	0.988210	-0.567777	0.823179	-0.002427	-0.813268	-0.561392	-0.153083
38746	9.754854	-0.130371	-1.458160	0.034645	0.025357	0.028047	-0.127393	-0.084550	0.988242	-0.568027	0.823005	-0.002811	-0.813091	-0.561706	-0.152872
38747	9.897362	-0.167584	-1.743512	0.058948	0.005028	0.026501	-0.127552	-0.084274	0.988245	-0.568497	0.822679	-0.003220	-0.812737	-0.562225	-0.152844
38748	10.039619	-0.234312	-1.692462	0.055174	-0.007292	0.030456	-0.127847	-0.084045	0.988226	-0.568911	0.822391	-0.003659	-0.812401	-0.562681	-0.152954
38749	9.923750	-0.184339	-1.526146	0.068736	-0.005710	0.024536	-0.128065	-0.083845	0.988215	-0.569402	0.822049	-0.004044	-0.812023	-0.563210	-0.153017
38750	9.545961	-0.053903	-1.524096	0.075740	-0.003965	0.004423	-0.128185	-0.083811	0.988203	-0.570016	0.821623	-0.004257	-0.811573	-0.563836	-0.153094
38751	9.508517	0.046061	-1.576823	0.051922	-0.022399	0.003604	-0.128419	-0.083902	0.988164	-0.570556	0.821247	-0.004418	-0.811156	-0.564370	-0.153334
38752	9.746149	0.092349	-1.519422	0.010134	-0.037262	0.013296	-0.128860	-0.083984	0.988100	-0.570625	0.821197	-0.004618	-0.811037	-0.564430	-0.153743
38753	9.725773	-0.118367	-1.524990	-0.013888	-0.010579	0.021776	-0.129116	-0.083846	0.988078	-0.570562	0.821240	-0.004869	-0.811041	-0.564389	-0.153875
38754	9.730921	-0.227336	-1.462493	-0.007756	-0.007672	0.022040	-0.129367	-0.083689	0.988059	-0.570475	0.821299	-0.005128	-0.811062	-0.564327	-0.153991
38755	9.701696	-0.179504	-1.366950	0.005165	0.001131	0.018469	-0.129540	-0.083486	0.988053	-0.570494	0.821284	-0.005401	-0.811021	-0.564379	-0.154017
38756	9.692400	-0.171209	-1.386939	0.019388	0.005682	0.008441	-0.129605	-0.083365	0.988055	-0.570645	0.821178	-0.005567	-0.810905	-0.564550	-0.154001
38757	9.701852	-0.150638	-1.350918	0.034427	0.008938	0.000406	-0.129536	-0.083312	0.988069	-0.571003	0.820929	-0.005639	-0.810664	-0.564920	-0.153912
38758	9.663489	-0.153472	-1.303990	0.062376	0.015886	-0.010331	-0.129411	-0.083288	0.988087	-0.571526	0.820564	-0.005686	-0.810315	-0.565453	-0.153792
38759	9.667715	-0.087333	-1.360509	0.079110	0.014428	-0.011338	-0.129305	-0.083249	0.988104	-0.572154	0.820126	-0.005777	-0.809889	-0.566095	-0.153678
38760	9.699953	0.011828	-1.326130	0.070758	0.019235	-0.010195	-0.129154	-0.083205	0.988128	-0.572745	0.819713	-0.005838	-0.809495	-0.566699	-0.153524
38761	9.729483	-0.006943	-1.404820	0.045669	0.025502	-0.008052	-0.128968	-0.083094	0.988161	-0.573194	0.819399	-0.005906	-0.809207	-0.567169	-0.153305
38762	9.720513	-0.059222	-1.452367	0.014380	0.025865	-0.008341	-0.128774	-0.082997	0.988195	-0.573325	0.819307	-0.005899	-0.809145	-0.567317	-0.153089
38763	9.672995	-0.176517	-1.483772	-0.007426	0.029495	0.001333	-0.128560	-0.082799	0.988239	-0.573274	0.819342	-0.005929	-0.809215	-0.567294	-0.152802
38764	9.694599	-0.421085	-1.489745	-0.015597	0.032556	0.008132	-0.128407	-0.082529	0.988282	-0.573142	0.819434	-0.006039	-0.809333	-0.567201	-0.152521
38765	9.691010	-0.519064	-1.442835	0.018050	0.040704	0.009601	-0.128151	-0.082185	0.988344	-0.573200	0.819392	-0.006187	-0.809332	-0.567312	-0.152114
38766	9.661135	-0.329094	-1.480008	0.086636	0.037391	0.008750	-0.127962	-0.081882	0.988393	-0.573895	0.818904	-0.006458	-0.808870	-0.568060	-0.151780
38767	9.792350	-0.039290	-1.690658	0.144153	0.005696	0.001418	-0.127935	-0.081827	0.988401	-0.575114	0.818046	-0.006717	-0.808008	-0.569302	-0.151716
38768	10.084832	0.307588	-1.542452	0.150117	-0.022435	0.004387	-0.128204	-0.081900	0.988360	-0.576325	0.817190	-0.007041	-0.807102	-0.570520	-0.151968
38769	9.939472	0.598989	-1.193728	0.098188	0.009713	-0.003723	-0.128185	-0.081838	0.988368	-0.577202	0.816570	-0.007246	-0.806478	-0.571416	-0.151909
38770	9.561938	0.513881	-1.295272	0.040530	0.011998	-0.021720	-0.128025	-0.081928	0.988381	-0.577561	0.816316	-0.007146	-0.806246	-0.571765	-0.151828
38771	9.628387	0.270875	-1.381999	0.000586	-0.005539	-0.030355	-0.127931	-0.082191	0.988372	-0.577676	0.816237	-0.006896	-0.806179	-0.571841	-0.151902
38772	9.759701	0.086096	-1.267567	-0.016623	-0.003678	-0.020486	-0.127906	-0.082360	0.988361	-0.577573	0.816311	-0.006722	-0.806257	-0.571710	-0.151980
38773	9.666667	-0.060129	-1.235544	-0.036046	0.023796	-0.012369	-0.127680	-0.082322	0.988393	-0.577464	0.816389	-0.006600	-0.806370	-0.571604	-0.151775
38774	9.714911	-0.160310	-1.302980	-0.027979	0.013050	0.004553	-0.127664	-0.082192	0.988406	-0.577238	0.816549	-0.006656	-0.806535	-0.571395	-0.151688
38775	9.763074	-0.167818	-1.326321	-0.041450	0.024693	0.010845	-0.127561	-0.081947	0.988440	-0.576968	0.816739	-0.006748	-0.806744	-0.571158	-0.151465
38776	9.693071	-0.426113	-1.383865	-0.046033	0.034135	0.009290	-0.127402	-0.081657	0.988484	-0.576589	0.817006	-0.006823	-0.807040	-0.570819	-0.151171
38777	9.564948	-0.495052	-1.559265	-0.008181	0.028666	0.002327	-0.127163	-0.081458	0.988531	-0.576465	0.817093	-0.006824	-0.807166	-0.570722	-0.150862
38778	9.554975	-0.281732	-1.685982	0.048380	0.002538	-0.013034	-0.127130	-0.081532	0.988529	-0.576877	0.816802	-0.006822	-0.806877	-0.571128	-0.150874
38779	9.578782	0.211946	-1.639843	0.072680	-0.007064	-0.013633	-0.127180	-0.081665	0.988512	-0.577648	0.816257	-0.006885	-0.806317	-0.571888	-0.150985
38780	9.639543	0.542086	-1.571964	0.041601	-0.013598	-0.007399	-0.127310	-0.081785	0.988485	-0.577998	0.816009	-0.006928	-0.806046	-0.572225	-0.151157
38781	9.752093	0.436331	-1.470060	-0.008306	-0.015716	0.004705	-0.127486	-0.081814	0.988460	-0.577931	0.816056	-0.006994	-0.806066	-0.572154	-0.151319
38782	9.876869	0.126783	-1.380426	-0.052119	0.008145	0.013041	-0.127558	-0.081642	0.988465	-0.577499	0.816360	-0.007097	-0.806364	-0.571743	-0.151282
38783	9.862195	-0.126860	-1.287007	-0.058912	0.022729	0.013313	-0.127502	-0.081365	0.988495	-0.576974	0.816731	-0.007194	-0.806749	-0.571253	-0.151080
38784	9.797021	-0.273227	-1.177538	-0.042945	0.033262	0.011158	-0.127360	-0.081065	0.988538	-0.576618	0.816981	-0.007293	-0.807026	-0.570938	-0.150795
38785	9.790791	-0.364072	-1.184505	-0.027127	0.040382	0.004238	-0.127059	-0.080791	0.988599	-0.576423	0.817119	-0.007307	-0.807213	-0.570780	-0.150392
38786	9.680763	-0.466910	-1.529524	0.006092	0.031109	-0.004638	-0.126844	-0.080632	0.988640	-0.576483	0.817076	-0.007324	-0.807204	-0.570864	-0.150124
38787	9.838507	-0.494773	-1.670389	0.042508	0.000873	-0.005450	-0.126864	-0.080650	0.988636	-0.576942	0.816752	-0.007406	-0.806873	-0.571325	-0.150147
38788	9.698525	-0.189050	-1.550289	0.058484	0.003718	-0.006256	-0.126861	-0.080661	0.988635	-0.577427	0.816408	-0.007485	-0.806526	-0.571814	-0.150146
38789	9.390633	0.092752	-1.745969	0.071881	-0.021144	-0.012911	-0.127027	-0.080852	0.988599	-0.578073	0.815950	-0.007545	-0.806037	-0.572441	-0.150386
38790	9.583370	0.291800	-1.888670	0.061282	-0.044934	-0.006754	-0.127412	-0.081146	0.988525	-0.578581	0.815589	-0.007624	-0.805612	-0.572913	-0.150865
38791	9.672331	0.326365	-1.683996	0.024485	-0.044601	0.010912	-0.127893	-0.081279	0.988452	-0.578783	0.815444	-0.007834	-0.805390	-0.573101	-0.151333
38792	9.670166	0.253261	-1.574492	-0.033905	-0.022320	0.015327	-0.128224	-0.081264	0.988410	-0.578496	0.815646	-0.007987	-0.805544	-0.572815	-0.151596
38793	9.693495	0.095815	-1.486139	-0.079648	-0.025733	0.014159	-0.128558	-0.081285	0.988365	-0.577954	0.816030	-0.008063	-0.805880	-0.572266	-0.151886
38794	9.808645	-0.141068	-1.388995	-0.110185	-0.006634	0.009648	-0.128730	-0.081225	0.988348	-0.577059	0.816663	-0.008044	-0.806494	-0.571370	-0.152001
38795	9.759213	-0.423841	-1.354628	-0.103457	0.007005	0.004452	-0.128724	-0.081140	0.988355	-0.576298	0.817201	-0.007969	-0.807038	-0.570613	-0.151954
38796	9.773812	-0.663847	-1.328549	-0.063332	0.014745	-0.004859	-0.128639	-0.081076	0.988372	-0.575798	0.817554	-0.007878	-0.807408	-0.570116	-0.151853
38797	9.764918	-0.684394	-1.361798	-0.000828	0.029465	-0.006880	-0.128354	-0.080965	0.988418	-0.575881	0.817496	-0.007819	-0.807394	-0.570215	-0.151555
38798	9.732513	-0.485583	-1.454343	0.068954	0.031760	-0.018509	-0.128053	-0.080916	0.988461	-0.576467	0.817083	-0.007793	-0.807024	-0.570813	-0.151276
38799	9.737017	-0.200717	-1.405549	0.108567	0.042498	-0.019371	-0.127635	-0.080785	0.988526	-0.577275	0.816513	-0.007808	-0.806513	-0.571647	-0.150851
38800	9.675254	-0.077459	-1.461485	0.132989	0.028664	-0.013861	-0.127386	-0.080715	0.988563	-0.578370	0.815736	-0.007925	-0.805767	-0.572765	-0.150597
38801	9.755488	0.013965	-1.451079	0.134539	0.036409	-0.011670	-0.127009	-0.080586	0.988623	-0.579441	0.814975	-0.008010	-0.805057	-0.573866	-0.150204
38802	9.730508	0.129600	-1.411263	0.136603	0.030921	-0.016115	-0.126729	-0.080521	0.988664	-0.580566	0.814173	-0.008108	-0.804290	-0.575012	-0.149927
38803	9.675821	0.233930	-1.306407	0.115216	0.023469	-0.016183	-0.126440	-0.080519	0.988701	-0.581604	0.813431	-0.008133	-0.803585	-0.576061	-0.149680
38804	9.719334	0.349891	-1.182983	0.067065	0.028971	-0.024298	-0.126128	-0.080532	0.988740	-0.582179	0.813021	-0.008046	-0.803218	-0.576639	-0.149428
38805	9.687582	0.346593	-1.168704	0.006021	0.025121	-0.031416	-0.125841	-0.080627	0.988769	-0.582488	0.812801	-0.007856	-0.803039	-0.576934	-0.149248
38806	9.843481	0.280741	-1.181356	-0.028074	0.014254	-0.026168	-0.125637	-0.080739	0.988785	-0.582301	0.812938	-0.007608	-0.803207	-0.576727	-0.149149
38807	9.588267	0.145065	-1.128494	-0.075844	0.032104	-0.023075	-0.125264	-0.080736	0.988833	-0.581828	0.813279	-0.007302	-0.803608	-0.576245	-0.148849
38808	9.834129	-0.057453	-1.214790	-0.087678	0.023250	-0.009659	-0.125083	-0.080663	0.988862	-0.581141	0.813771	-0.007130	-0.804132	-0.575560	-0.148666
38809	9.717210	-0.432374	-1.306066	-0.070601	0.016320	0.003779	-0.124974	-0.080512	0.988888	-0.580518	0.814217	-0.007074	-0.804599	-0.574951	-0.148495
38810	9.681719	-0.597272	-1.277283	-0.036951	0.035741	0.008697	-0.124799	-0.080217	0.988934	-0.580216	0.814431	-0.007158	-0.804845	-0.574688	-0.148184
38811	9.718163	-0.495179	-1.330306	0.028947	0.020296	-0.000510	-0.124620	-0.080095	0.988966	-0.580480	0.814242	-0.007203	-0.804682	-0.574973	-0.147964
38812	9.680065	-0.113093	-1.249392	0.064472	0.022182	-0.008636	-0.124454	-0.080019	0.988994	-0.581016	0.813860	-0.007265	-0.804321	-0.575525	-0.147780
38813	9.747169	0.245261	-1.198350	0.075067	0.015289	-0.009399	-0.124326	-0.079974	0.989013	-0.581652	0.813404	-0.007344	-0.803880	-0.576175	-0.147644
38814	9.753612	0.367677	-1.172026	0.036116	0.022836	-0.015412	-0.124115	-0.079949	0.989042	-0.581968	0.813179	-0.007298	-0.803685	-0.576496	-0.147455
38815	9.733724	0.300227	-1.308698	0.002638	0.025200	-0.016137	-0.123798	-0.079920	0.989084	-0.582000	0.813157	-0.007141	-0.803710	-0.576531	-0.147180
38816	9.709251	0.230116	-1.357585	-0.015513	0.019765	-0.012175	-0.123630	-0.079887	0.989108	-0.581897	0.813232	-0.007050	-0.803811	-0.576430	-0.147026
38817	9.712104	0.162485	-1.330660	-0.027496	0.017710	-0.005340	-0.123480	-0.079820	0.989132	-0.581796	0.813305	-0.006998	-0.803907	-0.576337	-0.146866
38818	9.697188	0.019410	-1.388613	-0.033386	0.018610	0.001761	-0.123403	-0.079680	0.989153	-0.581531	0.813494	-0.007020	-0.804110	-0.576090	-0.146724
38819	9.686514	-0.105352	-1.324039	-0.030199	0.010468	0.007618	-0.123393	-0.079505	0.989168	-0.581132	0.813778	-0.007085	-0.804400	-0.575712	-0.146617
38820	9.688996	-0.143550	-1.283899	-0.027743	0.001473	0.014531	-0.123528	-0.079359	0.989163	-0.580897	0.813945	-0.007241	-0.804549	-0.575496	-0.146645
38821	9.700413	-0.160323	-1.208833	-0.027763	0.006609	0.013626	-0.123507	-0.079211	0.989177	-0.580684	0.814097	-0.007312	-0.804707	-0.575302	-0.146543
38822	9.704919	-0.126679	-1.282174	-0.018152	-0.007995	0.004401	-0.123658	-0.079203	0.989159	-0.580538	0.814200	-0.007381	-0.804788	-0.575157	-0.146663
38823	9.658747	-0.047771	-1.371580	-0.013697	-0.020853	0.001220	-0.123893	-0.079281	0.989123	-0.580476	0.814244	-0.007444	-0.804797	-0.575084	-0.146900
38824	9.719830	0.032480	-1.422177	-0.016037	-0.026818	-0.000375	-0.124169	-0.079420	0.989078	-0.580353	0.814331	-0.007469	-0.804843	-0.574942	-0.147206
38825	9.646289	0.030850	-1.421877	-0.029586	-0.025860	0.005059	-0.124403	-0.079501	0.989042	-0.580062	0.814538	-0.007487	-0.805017	-0.574637	-0.147447
38826	9.687710	-0.098435	-1.474312	-0.033258	-0.030104	0.010342	-0.124767	-0.079571	0.988990	-0.579787	0.814733	-0.007593	-0.805158	-0.574351	-0.147786
38827	9.738126	-0.206342	-1.491533	-0.031665	-0.022416	0.012544	-0.125022	-0.079590	0.988956	-0.579596	0.814867	-0.007692	-0.805256	-0.574157	-0.148007
38828	9.788602	-0.314616	-1.508179	-0.014085	-0.016998	0.014860	-0.125307	-0.079548	0.988924	-0.579470	0.814955	-0.007871	-0.805303	-0.574038	-0.148215
38829	9.829852	-0.413677	-1.545313	0.013242	-0.022771	0.012700	-0.125601	-0.079549	0.988886	-0.579595	0.814864	-0.008066	-0.805167	-0.574167	-0.148454
38830	9.723902	-0.328455	-1.488911	0.040403	-0.024260	0.004421	-0.125883	-0.079633	0.988844	-0.579921	0.814631	-0.008222	-0.804888	-0.574487	-0.148730
38831	9.613100	-0.198797	-1.526925	0.062131	-0.038514	-0.005996	-0.126217	-0.079858	0.988783	-0.580401	0.814288	-0.008322	-0.804490	-0.574941	-0.149127
38832	9.614074	-0.064600	-1.614560	0.071029	-0.048381	-0.012477	-0.126596	-0.080220	0.988705	-0.580994	0.813865	-0.008358	-0.804002	-0.575490	-0.149639
38833	9.617566	0.016803	-1.467963	0.061920	-0.067931	-0.008864	-0.127091	-0.080668	0.988605	-0.581544	0.813472	-0.008383	-0.803527	-0.575982	-0.150297
38834	9.739967	0.130428	-1.388193	0.033876	-0.029277	-0.008894	-0.127336	-0.080891	0.988556	-0.581833	0.813265	-0.008399	-0.803278	-0.576244	-0.150623
38835	9.652860	0.072632	-1.350936	0.012163	-0.053878	0.005709	-0.127829	-0.081138	0.988472	-0.581998	0.813146	-0.008517	-0.803081	-0.576377	-0.151166
38836	9.715018	-0.145460	-1.338886	-0.001896	-0.037117	0.017335	-0.128290	-0.081192	0.988408	-0.581966	0.813166	-0.008739	-0.803030	-0.576341	-0.151572
38837	9.838572	-0.283814	-1.374058	0.005570	-0.022655	0.011054	-0.128550	-0.081237	0.988370	-0.582162	0.813024	-0.008893	-0.802846	-0.576535	-0.151807
38838	9.913904	-0.320797	-1.340249	0.041901	-0.032294	0.006676	-0.128910	-0.081350	0.988314	-0.582496	0.812783	-0.009075	-0.802546	-0.576859	-0.152162
38839	9.915374	-0.046151	-1.157248	0.054728	-0.013171	0.001248	-0.129008	-0.081406	0.988296	-0.582977	0.812436	-0.009179	-0.802181	-0.577339	-0.152269
38840	9.726353	0.220373	-1.240034	0.044938	0.002242	-0.022769	-0.128919	-0.081560	0.988295	-0.583373	0.812153	-0.009075	-0.801907	-0.577715	-0.152282
38841	9.608498	0.277324	-1.481693	0.014103	-0.006532	-0.035816	-0.128785	-0.081887	0.988286	-0.583692	0.811927	-0.008788	-0.801697	-0.577986	-0.152361
38842	9.618122	0.114224	-1.534206	-0.016757	-0.002059	-0.026153	-0.128711	-0.082093	0.988278	-0.583598	0.811998	-0.008556	-0.801778	-0.577858	-0.152422
38843	9.639858	-0.128173	-1.540999	-0.012443	-0.004627	-0.008777	-0.128715	-0.082188	0.988270	-0.583648	0.811962	-0.008490	-0.801740	-0.577894	-0.152480
38844	9.626923	-0.309200	-1.561225	0.011566	-0.004758	0.005985	-0.128849	-0.082149	0.988256	-0.583739	0.811895	-0.008619	-0.801652	-0.577994	-0.152566
38845	9.690580	-0.268065	-1.570882	0.033134	-0.006156	0.015650	-0.128994	-0.082042	0.988246	-0.584031	0.811683	-0.008848	-0.801417	-0.578307	-0.152617
38846	9.747337	-0.192947	-1.532700	0.032407	-0.012118	0.017618	-0.129255	-0.081951	0.988219	-0.584274	0.811505	-0.009124	-0.801197	-0.578570	-0.152773
38847	9.705615	-0.096674	-1.499165	0.034282	-0.016407	0.004917	-0.129417	-0.081994	0.988194	-0.584596	0.811272	-0.009247	-0.800936	-0.578891	-0.152925
38848	9.700161	-0.084770	-1.609826	0.026896	-0.030890	-0.011154	-0.129660	-0.082245	0.988142	-0.584832	0.811102	-0.009230	-0.800724	-0.579094	-0.153267
38849	9.737859	0.043909	-1.601181	0.010639	-0.045733	-0.018923	-0.129992	-0.082625	0.988066	-0.584982	0.810995	-0.009143	-0.800561	-0.579190	-0.153757
38850	9.606622	0.123514	-1.568442	-0.003861	-0.039250	-0.021572	-0.130241	-0.083010	0.988001	-0.584986	0.810994	-0.008977	-0.800518	-0.579136	-0.154184
38851	9.539501	0.120251	-1.602719	-0.012808	-0.042595	-0.015421	-0.130517	-0.083365	0.987935	-0.584969	0.811007	-0.008846	-0.800485	-0.579066	-0.154616
38852	9.586881	0.019950	-1.675844	-0.011651	-0.052377	-0.001171	-0.130991	-0.083660	0.987847	-0.584884	0.811068	-0.008869	-0.800470	-0.578938	-0.155174
38853	9.679320	-0.043530	-1.461045	-0.017268	-0.042513	0.012408	-0.131435	-0.083771	0.987779	-0.584705	0.811196	-0.009006	-0.800528	-0.578743	-0.155601
38854	9.753529	-0.120548	-1.300318	-0.035832	-0.021501	0.023386	-0.131805	-0.083688	0.987737	-0.584394	0.811418	-0.009234	-0.800694	-0.578444	-0.155856
38855	9.742987	-0.278105	-1.252794	-0.039679	-0.008688	0.020296	-0.132049	-0.083555	0.987715	-0.584154	0.811588	-0.009440	-0.800829	-0.578225	-0.155978
38856	9.793593	-0.386539	-1.268022	-0.018704	-0.002857	0.009859	-0.132191	-0.083474	0.987703	-0.583998	0.811699	-0.009561	-0.800919	-0.578081	-0.156047
38857	9.784182	-0.346074	-1.274082	0.027992	0.000249	-0.004226	-0.132203	-0.083480	0.987701	-0.584264	0.811507	-0.009615	-0.800724	-0.578349	-0.156058
38858	9.797068	-0.101778	-1.225490	0.061010	-0.004219	-0.016673	-0.132201	-0.083621	0.987689	-0.584781	0.811135	-0.009598	-0.800347	-0.578851	-0.156133
38859	9.807213	0.149010	-1.231175	0.064814	0.003446	-0.017224	-0.132056	-0.083732	0.987699	-0.585379	0.810704	-0.009538	-0.799933	-0.579438	-0.156073
38860	9.788326	0.294032	-1.213902	0.044471	0.005709	-0.011820	-0.132002	-0.083777	0.987703	-0.585757	0.810431	-0.009543	-0.799665	-0.579813	-0.156052
38861	9.804323	0.313269	-1.211828	0.018677	0.013094	-0.011689	-0.131830	-0.083800	0.987724	-0.586074	0.810202	-0.009483	-0.799461	-0.580130	-0.155922
38862	9.754033	0.264561	-1.268406	-0.009944	0.014959	-0.004249	-0.131746	-0.083730	0.987741	-0.586007	0.810250	-0.009478	-0.799524	-0.580072	-0.155814
38863	9.697229	0.187748	-1.305458	-0.033369	0.018071	-0.000725	-0.131630	-0.083611	0.987767	-0.585799	0.810401	-0.009466	-0.799696	-0.579878	-0.155652
38864	9.675298	-0.015278	-1.358385	-0.045230	0.011338	0.009679	-0.131657	-0.083449	0.987777	-0.585431	0.810666	-0.009544	-0.799961	-0.579531	-0.155583
38865	9.643932	-0.209364	-1.432595	-0.051980	0.005423	0.013560	-0.131712	-0.083274	0.987784	-0.584979	0.810991	-0.009632	-0.800282	-0.579101	-0.155531
38866	9.654831	-0.367679	-1.627175	-0.040490	-0.012528	0.019195	-0.131985	-0.083173	0.987756	-0.584636	0.811236	-0.009811	-0.800488	-0.578773	-0.155697
38867	9.692903	-0.303743	-1.645787	-0.022590	-0.026278	0.010517	-0.132244	-0.083254	0.987715	-0.584625	0.811244	-0.009895	-0.800453	-0.578751	-0.155954
38868	9.664299	-0.182265	-1.666121	-0.023159	-0.023705	0.016338	-0.132590	-0.083240	0.987669	-0.584425	0.811385	-0.010073	-0.800542	-0.578554	-0.156229
38869	9.642253	-0.032851	-1.705896	-0.021864	-0.033089	0.010814	-0.132924	-0.083326	0.987617	-0.584280	0.811488	-0.010173	-0.800592	-0.578397	-0.156552
38870	9.742822	0.002392	-1.621897	-0.042302	-0.028686	0.013161	-0.133291	-0.083367	0.987564	-0.583931	0.811738	-0.010289	-0.800786	-0.578041	-0.156878
38871	9.786461	-0.039454	-1.575967	-0.042317	-0.015896	0.010896	-0.133523	-0.083334	0.987536	-0.583571	0.811996	-0.010383	-0.801010	-0.577683	-0.157051
38872	9.671945	-0.131367	-1.625882	-0.050717	-0.009013	0.008968	-0.133708	-0.083295	0.987514	-0.583159	0.812291	-0.010444	-0.801279	-0.577274	-0.157184
38873	9.658647	-0.281155	-1.632395	-0.046250	-0.011166	0.006565	-0.133848	-0.083295	0.987495	-0.582868	0.812499	-0.010470	-0.801467	-0.576981	-0.157301
38874	9.649091	-0.334136	-1.683419	-0.025815	-0.015570	0.004208	-0.134058	-0.083332	0.987464	-0.582663	0.812646	-0.010523	-0.801581	-0.576769	-0.157496
38875	9.594379	-0.260967	-1.596634	-0.007658	-0.012722	0.000621	-0.134175	-0.083402	0.987442	-0.582744	0.812587	-0.010550	-0.801503	-0.576842	-0.157631
38876	9.622219	-0.164129	-1.478098	-0.016137	-0.011379	-0.003008	-0.134309	-0.083474	0.987417	-0.582626	0.812672	-0.010548	-0.801566	-0.576712	-0.157783
38877	9.656709	-0.132937	-1.422399	-0.031289	-0.010410	-0.001053	-0.134374	-0.083517	0.987405	-0.582353	0.812868	-0.010497	-0.801753	-0.576429	-0.157865
38878	9.739109	-0.171418	-1.420929	-0.042701	-0.004780	-0.001789	-0.134463	-0.083541	0.987391	-0.582020	0.813107	-0.010465	-0.801980	-0.576089	-0.157955
38879	9.729665	-0.192114	-1.456731	-0.037585	-0.009070	-0.007413	-0.134505	-0.083624	0.987378	-0.581722	0.813322	-0.010362	-0.802189	-0.575774	-0.158041
38880	9.745389	-0.047055	-1.398159	-0.023426	-0.017264	-0.015238	-0.134615	-0.083829	0.987346	-0.581562	0.813438	-0.010227	-0.802287	-0.575579	-0.158252
38881	9.726389	0.130494	-1.367083	-0.041777	-0.010721	-0.018660	-0.134611	-0.084020	0.987330	-0.581295	0.813631	-0.010015	-0.802481	-0.575278	-0.158364
38882	9.729060	0.064387	-1.343212	-0.050360	-0.009783	-0.024895	-0.134606	-0.084260	0.987310	-0.580931	0.813894	-0.009741	-0.802745	-0.574871	-0.158504
38883	9.833078	-0.028898	-1.261443	-0.050752	-0.003821	-0.014299	-0.134583	-0.084374	0.987304	-0.580580	0.814147	-0.009565	-0.803003	-0.574496	-0.158557
38884	9.813486	-0.142633	-1.218925	-0.042100	0.005898	-0.007244	-0.134554	-0.084381	0.987307	-0.580259	0.814377	-0.009479	-0.803240	-0.574169	-0.158541
38885	9.823056	-0.182190	-1.212100	-0.048145	0.018733	-0.007558	-0.134347	-0.084332	0.987339	-0.579976	0.814580	-0.009341	-0.803479	-0.573888	-0.158347
38886	9.889972	-0.238263	-1.209229	-0.059582	0.026939	-0.008733	-0.134140	-0.084230	0.987376	-0.579516	0.814909	-0.009213	-0.803846	-0.573436	-0.158125
38887	9.798554	-0.281231	-1.273396	-0.069734	0.028344	-0.015910	-0.133877	-0.084171	0.987417	-0.579050	0.815242	-0.009015	-0.804226	-0.572970	-0.157881
38888	9.644465	-0.262139	-1.425925	-0.086111	0.034092	-0.027282	-0.133505	-0.084180	0.987467	-0.578401	0.815707	-0.008662	-0.804754	-0.572308	-0.157590
38889	9.664749	-0.298207	-1.540265	-0.092674	0.006106	-0.036606	-0.133264	-0.084437	0.987477	-0.577828	0.816117	-0.008196	-0.805205	-0.571684	-0.157549
38890	9.668899	-0.351583	-1.658081	-0.095332	-0.006147	-0.045166	-0.133113	-0.084822	0.987464	-0.577128	0.816618	-0.007652	-0.805732	-0.570912	-0.157656
38891	9.726050	-0.331226	-1.649368	-0.089965	-0.011706	-0.042538	-0.132986	-0.085230	0.987446	-0.576605	0.816992	-0.007137	-0.806127	-0.570316	-0.157793
38892	9.700329	-0.240654	-1.628494	-0.087960	-0.022726	-0.048738	-0.132948	-0.085740	0.987407	-0.575968	0.817446	-0.006569	-0.806589	-0.569589	-0.158061
38893	9.928672	-0.207237	-1.606630	-0.106207	-0.030619	-0.044309	-0.132947	-0.086261	0.987362	-0.575244	0.817960	-0.005995	-0.807106	-0.568771	-0.158367
38894	10.007745	-0.368058	-1.579497	-0.133033	-0.019196	-0.046568	-0.132895	-0.086732	0.987328	-0.574239	0.818670	-0.005377	-0.807829	-0.567677	-0.158602
38895	9.941928	-0.749980	-1.649550	-0.123417	-0.007228	-0.055072	-0.132668	-0.087214	0.987316	-0.573464	0.819217	-0.004692	-0.808417	-0.566813	-0.158698
38896	9.745674	-0.961211	-1.635013	-0.082733	0.010866	-0.072436	-0.132225	-0.087727	0.987330	-0.572899	0.819617	-0.003898	-0.808890	-0.566156	-0.158633
38897	9.632463	-0.981618	-1.654242	-0.040615	0.014910	-0.091911	-0.131576	-0.088392	0.987357	-0.572844	0.819659	-0.002959	-0.809035	-0.565991	-0.158482
38898	9.556180	-0.749164	-1.598310	-0.016817	0.013187	-0.110011	-0.130899	-0.089200	0.987375	-0.572860	0.819651	-0.001898	-0.809133	-0.565876	-0.158390
38899	9.568421	-0.494713	-1.544109	0.003196	0.014501	-0.126751	-0.130080	-0.090136	0.987398	-0.573164	0.819440	-0.000705	-0.809050	-0.566033	-0.158256
38900	9.601536	-0.234972	-1.379795	0.005401	0.020095	-0.127743	-0.129245	-0.091050	0.987424	-0.573382	0.819288	0.000496	-0.809030	-0.566106	-0.158096
38901	9.627051	-0.182933	-1.340206	-0.011335	0.035165	-0.123679	-0.128303	-0.091840	0.987474	-0.573568	0.819156	0.001661	-0.809048	-0.566170	-0.157776
38902	9.717447	-0.211912	-1.368163	-0.038712	0.049431	-0.117476	-0.127289	-0.092503	0.987543	-0.573413	0.819261	0.002830	-0.809317	-0.565910	-0.157325
38903	9.749668	-0.341646	-1.504319	-0.058856	0.059092	-0.122270	-0.126152	-0.093150	0.987628	-0.573228	0.819386	0.004063	-0.809627	-0.565623	-0.156763
38904	9.717849	-0.420802	-1.586284	-0.062257	0.059301	-0.129390	-0.124990	-0.093856	0.987709	-0.572894	0.819611	0.005386	-0.810043	-0.565180	-0.156213
38905	9.643212	-0.624099	-1.649826	-0.054431	0.052730	-0.143636	-0.123740	-0.094726	0.987783	-0.572780	0.819681	0.006853	-0.810316	-0.564934	-0.155684
38906	9.459098	-0.704527	-1.693382	-0.011487	0.029400	-0.161998	-0.122634	-0.095868	0.987811	-0.572895	0.819585	0.008419	-0.810402	-0.564880	-0.155431
38907	9.176408	-0.648663	-1.627728	0.023880	0.012092	-0.177642	-0.121549	-0.097231	0.987812	-0.573445	0.819182	0.010071	-0.810177	-0.565232	-0.155328
38908	8.979040	-0.447241	-1.505428	0.044507	-0.021080	-0.180509	-0.120744	-0.098810	0.987754	-0.574033	0.818748	0.011732	-0.809881	-0.565587	-0.155579
38909	9.202385	-0.300821	-1.491102	0.039070	-0.037012	-0.162540	-0.120111	-0.100312	0.987679	-0.574591	0.818334	0.013237	-0.809579	-0.565922	-0.155930
38910	9.435127	-0.282186	-1.571237	0.006988	-0.021936	-0.136772	-0.119563	-0.101536	0.987621	-0.574821	0.818150	0.014525	-0.809497	-0.565969	-0.156185
38911	9.601049	-0.399212	-1.652962	-0.010208	-0.003776	-0.121632	-0.118919	-0.102508	0.987598	-0.574922	0.818058	0.015683	-0.809520	-0.565927	-0.156217
38912	9.856464	-0.653481	-1.722380	-0.012722	0.014197	-0.121930	-0.118163	-0.103406	0.987595	-0.574973	0.817999	0.016855	-0.809595	-0.565849	-0.156113
38913	9.789142	-0.756244	-1.565360	0.003341	0.048550	-0.131584	-0.117014	-0.104183	0.987650	-0.575269	0.817764	0.018106	-0.809551	-0.566046	-0.155624
38914	9.444437	-0.193150	-1.725997	0.047566	0.026552	-0.157290	-0.115954	-0.105300	0.987657	-0.575847	0.817324	0.019534	-0.809293	-0.566474	-0.155409
38915	9.297156	0.916154	-2.050993	0.044587	-0.022273	-0.183876	-0.115109	-0.106883	0.987586	-0.576479	0.816837	0.021212	-0.808963	-0.566881	-0.155641
38916	9.868178	1.985201	-2.127953	-0.028384	-0.101815	-0.173628	-0.114992	-0.108860	0.987384	-0.576459	0.816805	0.022918	-0.808995	-0.566550	-0.156679
38917	9.948656	2.443524	-2.203082	-0.162928	-0.064453	-0.156931	-0.114688	-0.110461	0.987241	-0.575389	0.817509	0.024626	-0.809799	-0.565223	-0.157317
38918	9.711099	2.314531	-2.308791	-0.311151	-0.042440	-0.137364	-0.114304	-0.111805	0.987134	-0.573034	0.819106	0.026420	-0.811522	-0.562641	-0.157695
38919	9.458484	1.214417	-2.277306	-0.463850	-0.049145	-0.112919	-0.114115	-0.112951	0.987026	-0.569320	0.821632	0.028202	-0.814158	-0.558715	-0.158066
38920	9.293591	-0.011114	-2.000556	-0.523474	-0.049786	-0.070664	-0.114180	-0.113790	0.986922	-0.565140	0.824461	0.029676	-0.817055	-0.554361	-0.158444
38921	9.241895	-0.380443	-1.517720	-0.446717	-0.065783	-0.059727	-0.114411	-0.114618	0.986799	-0.561588	0.826839	0.030927	-0.819469	-0.550636	-0.158967
38922	9.506039	0.114062	-0.972057	-0.329575	-0.098266	-0.055896	-0.114963	-0.115600	0.986621	-0.558958	0.828580	0.031952	-0.821188	-0.547806	-0.159872
38923	9.866866	0.942297	-0.513073	-0.283135	-0.128555	-0.020804	-0.115980	-0.116432	0.986404	-0.556681	0.830089	0.032527	-0.822590	-0.545340	-0.161089
38924	10.045338	1.483925	-0.161407	-0.344687	-0.125533	0.009362	-0.117125	-0.117016	0.986199	-0.553842	0.831970	0.032940	-0.824343	-0.542340	-0.162253
38925	10.079396	1.397680	0.072162	-0.460897	-0.102635	0.024215	-0.118181	-0.117316	0.986038	-0.549966	0.834520	0.033373	-0.826783	-0.538343	-0.163144
38926	9.996556	1.051865	0.084966	-0.532413	-0.076431	0.013651	-0.118948	-0.117591	0.985913	-0.545550	0.837386	0.034057	-0.829594	-0.533814	-0.163757
38927	9.837708	0.797919	-0.148689	-0.566696	-0.051078	-0.006395	-0.119403	-0.117859	0.985826	-0.540787	0.840432	0.034976	-0.832641	-0.528946	-0.164087
38928	9.647738	0.528816	-0.528961	-0.555972	-0.037863	-0.029102	-0.119621	-0.118281	0.985749	-0.536195	0.843321	0.036124	-0.835575	-0.524232	-0.164301
38929	9.561418	0.369884	-0.665018	-0.529550	-0.027340	-0.036565	-0.119751	-0.118659	0.985687	-0.531722	0.846099	0.037257	-0.838410	-0.519650	-0.164415
38930	9.467189	0.342509	-0.788437	-0.492581	-0.026526	-0.026826	-0.119890	-0.119001	0.985629	-0.527628	0.848613	0.038279	-0.840973	-0.515456	-0.164528
38931	9.538346	0.573339	-1.009077	-0.457042	-0.073172	-0.015851	-0.120525	-0.119422	0.985501	-0.523629	0.851049	0.039090	-0.843378	-0.511325	-0.165105
38932	9.857713	0.957712	-1.273141	-0.454612	-0.096793	-0.004734	-0.121376	-0.119932	0.985335	-0.519805	0.853356	0.039837	-0.845618	-0.507347	-0.165918
38933	10.083313	1.190032	-1.483590	-0.456652	-0.123932	-0.004674	-0.122487	-0.120520	0.985125	-0.515819	0.855737	0.040555	-0.847896	-0.503179	-0.166983
38934	10.044642	1.151896	-1.621375	-0.455821	-0.142047	-0.006811	-0.123716	-0.121266	0.984880	-0.511967	0.858010	0.041334	-0.850049	-0.499113	-0.168234
38935	10.086483	0.818332	-1.694959	-0.437802	-0.148698	-0.009079	-0.125002	-0.122004	0.984627	-0.508081	0.860280	0.042094	-0.852190	-0.495008	-0.169525
38936	10.016466	0.501364	-1.704476	-0.370355	-0.142884	-0.016775	-0.126194	-0.122829	0.984372	-0.504952	0.862084	0.042837	-0.853872	-0.491655	-0.170813
38937	9.774922	0.338143	-1.815429	-0.245833	-0.139176	-0.028278	-0.127351	-0.123664	0.984118	-0.502718	0.863358	0.043435	-0.855018	-0.489203	-0.172118
38938	9.523021	0.256375	-1.998628	-0.094383	-0.162620	-0.037171	-0.128613	-0.124755	0.983816	-0.501968	0.863771	0.043911	-0.855270	-0.488197	-0.173715
38939	9.477950	0.191427	-1.970635	0.027752	-0.178232	-0.019740	-0.130131	-0.125725	0.983493	-0.502167	0.863653	0.043961	-0.854924	-0.488157	-0.175523
38940	9.762434	-0.027876	-1.677530	0.103446	-0.189113	0.016896	-0.131890	-0.126478	0.983162	-0.503038	0.863166	0.043559	-0.854142	-0.488823	-0.177466
38941	9.684621	0.152739	-1.265111	0.127771	-0.121332	0.014090	-0.133059	-0.126885	0.982952	-0.504032	0.862608	0.043121	-0.853374	-0.489702	-0.178732
38942	9.621712	0.876436	-0.945956	0.142983	-0.123146	-0.007449	-0.134130	-0.127528	0.982724	-0.505271	0.861895	0.042885	-0.852473	-0.490789	-0.180042
38943	9.804847	1.845326	-0.617717	0.094649	-0.108285	-0.018577	-0.135106	-0.128111	0.982514	-0.505910	0.861525	0.042768	-0.851940	-0.491286	-0.181210
38944	9.733383	2.167744	-0.496139	-0.031736	-0.081919	-0.000387	-0.135860	-0.128492	0.982360	-0.505649	0.861678	0.042776	-0.851975	-0.490918	-0.182040
38945	9.734574	1.650420	-0.649125	-0.127080	-0.099760	0.028673	-0.136934	-0.128662	0.982189	-0.504429	0.862399	0.042644	-0.852526	-0.489606	-0.182993
38946	9.750357	1.108624	-0.730763	-0.155227	-0.098083	0.048864	-0.138075	-0.128695	0.982025	-0.503047	0.863219	0.042396	-0.853158	-0.488151	-0.183928
38947	9.692510	0.892205	-0.489121	-0.135098	-0.103654	0.056035	-0.139297	-0.128644	0.981859	-0.501672	0.864036	0.042035	-0.853769	-0.486715	-0.184894
38948	9.415543	0.801131	-0.338402	-0.081570	-0.158175	0.085921	-0.141136	-0.128646	0.981596	-0.500863	0.864541	0.041290	-0.853942	-0.485818	-0.186452
38949	9.530384	0.679619	-0.233801	0.016231	-0.221973	0.127885	-0.143748	-0.128543	0.981230	-0.500720	0.864688	0.039921	-0.853590	-0.485583	-0.188661
38950	9.444745	0.271775	-0.975042	0.024987	-0.228170	0.157662	-0.146542	-0.128262	0.980854	-0.500713	0.864767	0.038274	-0.853119	-0.485517	-0.190948
38951	9.413724	-0.229555	-1.867168	0.093921	-0.273234	0.174990	-0.149822	-0.128003	0.980392	-0.501182	0.864581	0.036292	-0.852274	-0.485917	-0.193686
38952	9.845061	-0.629539	-1.947877	0.183652	-0.213068	0.149253	-0.152443	-0.127724	0.980024	-0.502528	0.863876	0.034418	-0.851015	-0.487242	-0.195877
38953	9.383156	-0.424276	-1.301837	0.235261	-0.195570	0.084713	-0.154646	-0.127859	0.979662	-0.504337	0.862876	0.033004	-0.849546	-0.488976	-0.197924
38954	9.299039	-0.074768	-1.347985	0.228189	-0.230143	0.008379	-0.156700	-0.128889	0.979200	-0.506268	0.861767	0.032414	-0.848020	-0.490658	-0.200291
38955	9.397000	0.151845	-1.826909	0.325584	-0.290680	-0.023447	-0.159095	-0.130472	0.978604	-0.509139	0.860093	0.031899	-0.845852	-0.493170	-0.203265
38956	9.851863	0.626893	-1.610490	0.434093	-0.269376	-0.005748	-0.161399	-0.131830	0.978045	-0.512821	0.857935	0.031014	-0.843187	-0.496556	-0.206075
38957	9.559612	0.329911	-1.488846	0.431144	-0.270152	0.034466	-0.163922	-0.132836	0.977489	-0.516519	0.855761	0.029675	-0.840439	-0.500028	-0.208890
38958	9.517937	-0.446592	-1.776668	0.419886	-0.256178	0.054435	-0.166412	-0.133631	0.976959	-0.519960	0.853725	0.028207	-0.837824	-0.503286	-0.211553
38959	9.701021	-0.916370	-1.979535	0.537072	-0.328595	0.072108	-0.169641	-0.134621	0.976268	-0.524463	0.851030	0.026219	-0.834363	-0.507568	-0.214973
38960	9.173385	-0.524852	-2.137463	0.688045	-0.347164	0.075455	-0.172987	-0.135728	0.975527	-0.530066	0.847618	0.023937	-0.830124	-0.512953	-0.218572
38961	9.833435	0.349075	-2.051397	0.801917	-0.423785	0.089373	-0.177054	-0.137101	0.974605	-0.536633	0.843550	0.021177	-0.825031	-0.519256	-0.222927
38962	10.085538	1.177486	-1.497168	0.734484	-0.385742	0.083666	-0.180738	-0.138388	0.973747	-0.542532	0.839828	0.018656	-0.820361	-0.524917	-0.226869
38963	9.763335	1.976533	-1.231886	0.614548	-0.350445	0.051765	-0.183982	-0.139747	0.972945	-0.547576	0.836591	0.016617	-0.816279	-0.529704	-0.230440
38964	9.540013	2.212534	-1.295726	0.480750	-0.311541	0.047901	-0.186842	-0.140981	0.972221	-0.551409	0.834100	0.014981	-0.813042	-0.533293	-0.233583
38965	9.697319	1.753514	-1.414107	0.396149	-0.284277	0.081564	-0.189683	-0.141812	0.971550	-0.554749	0.831915	0.013122	-0.810108	-0.536477	-0.236470
38966	9.520922	1.111268	-1.243998	0.427590	-0.304050	0.114902	-0.192841	-0.142471	0.970832	-0.557991	0.829775	0.010934	-0.807129	-0.539607	-0.239512
38967	9.071476	0.889107	-1.123678	0.485065	-0.286369	0.137199	-0.196006	-0.142867	0.970140	-0.561859	0.827191	0.008298	-0.803677	-0.543455	-0.242406
38968	9.674021	0.958157	-0.784917	0.562362	-0.373564	0.156078	-0.199941	-0.143594	0.969229	-0.566063	0.824344	0.005357	-0.799747	-0.547574	-0.246104
38969	9.635209	1.024451	-0.294398	0.569223	-0.319639	0.157546	-0.203461	-0.144040	0.968430	-0.570495	0.821298	0.002299	-0.795700	-0.552017	-0.249276
38970	9.608041	1.155715	0.037595	0.602882	-0.318467	0.147893	-0.206895	-0.144572	0.967622	-0.574981	0.818167	-0.000699	-0.791575	-0.556509	-0.252401
38971	9.816321	1.350418	0.230532	0.656032	-0.287415	0.151522	-0.210109	-0.144959	0.966872	-0.580172	0.814484	-0.003963	-0.786927	-0.561785	-0.255232
38972	9.866701	1.582872	0.071389	0.739313	-0.273507	0.169242	-0.213301	-0.145109	0.966150	-0.585618	0.810552	-0.007550	-0.782020	-0.567405	-0.257870
38973	9.752363	1.817083	-0.420794	0.796134	-0.259386	0.195802	-0.216483	-0.145028	0.965454	-0.591662	0.806103	-0.011577	-0.776577	-0.573728	-0.260315
38974	10.006317	2.074945	-1.027424	0.820276	-0.288957	0.237829	-0.220193	-0.144764	0.964655	-0.597493	0.801713	-0.016073	-0.771049	-0.579914	-0.263027
38975	10.405393	2.608318	-1.713492	0.791430	-0.276099	0.272559	-0.223969	-0.144219	0.963866	-0.603236	0.797290	-0.020876	-0.765470	-0.586114	-0.265567
38976	11.048571	2.833394	-2.105803	0.695399	-0.251194	0.316517	-0.227863	-0.143162	0.963111	-0.607830	0.793647	-0.025835	-0.760671	-0.591295	-0.267861
38977	11.452561	2.255003	-1.920387	0.523243	-0.126171	0.333978	-0.230881	-0.141308	0.962666	-0.611321	0.790794	-0.030538	-0.756955	-0.595548	-0.268964
38978	11.643619	1.327685	-1.470060	0.340314	0.038869	0.329158	-0.232663	-0.138458	0.962651	-0.613133	0.789218	-0.034675	-0.754941	-0.598301	-0.268515
38979	11.471675	0.532858	-1.423959	0.164497	0.188942	0.308464	-0.233151	-0.134917	0.963036	-0.613853	0.788498	-0.038149	-0.754205	-0.600057	-0.266658
38980	11.752698	0.069367	-1.176040	0.021062	0.269714	0.288654	-0.232948	-0.131004	0.963625	-0.613342	0.788750	-0.041040	-0.754683	-0.600592	-0.264088
38981	12.234223	-0.315962	-0.455358	-0.024775	0.340401	0.261269	-0.231998	-0.126881	0.964406	-0.612639	0.789162	-0.043552	-0.755546	-0.600936	-0.260816
38982	13.026553	-0.560343	0.250573	-0.005906	0.401581	0.239755	-0.230491	-0.122557	0.965326	-0.612043	0.789491	-0.045905	-0.756490	-0.601402	-0.256980
38983	13.073341	-0.764701	0.988878	-0.019205	0.551036	0.234942	-0.227774	-0.117355	0.966616	-0.611437	0.789824	-0.048189	-0.757802	-0.602001	-0.251657
38984	12.745464	-0.741560	1.663053	-0.051214	0.727119	0.233462	-0.223744	-0.111114	0.968294	-0.610525	0.790393	-0.050375	-0.759735	-0.602439	-0.244683
38985	12.423569	-0.357587	1.852812	-0.102636	0.930020	0.232523	-0.218100	-0.103622	0.970410	-0.609309	0.791196	-0.052458	-0.762348	-0.602721	-0.235697
38986	11.952533	0.124083	1.944331	-0.179135	1.130082	0.208442	-0.210794	-0.095144	0.972889	-0.607498	0.792475	-0.054125	-0.765841	-0.602437	-0.224848
38987	11.448552	0.436232	2.019670	-0.341831	1.358776	0.182765	-0.201467	-0.085463	0.975760	-0.604597	0.794614	-0.055235	-0.770632	-0.601070	-0.211759
38988	10.906587	0.382163	2.045274	-0.569017	1.532508	0.165800	-0.190667	-0.074939	0.978790	-0.599874	0.798150	-0.055746	-0.777044	-0.597780	-0.197134
38989	10.541352	0.001359	1.810825	-0.811366	1.745425	0.156213	-0.177968	-0.063233	0.982003	-0.593366	0.802994	-0.055830	-0.785012	-0.592623	-0.180428
38990	10.031304	-0.553577	1.273262	-0.984964	1.943237	0.157433	-0.163613	-0.050495	0.985232	-0.585327	0.808878	-0.055746	-0.794118	-0.585804	-0.161899
38991	9.779305	-1.050622	0.729039	-1.027053	2.054632	0.160187	-0.148132	-0.037153	0.988270	-0.577008	0.814826	-0.055855	-0.803193	-0.578513	-0.142139
38992	9.858967	-1.260785	0.275087	-0.977587	2.230736	0.134386	-0.130947	-0.023210	0.991118	-0.568935	0.820477	-0.055954	-0.811890	-0.571208	-0.120644
38993	10.022068	-1.289296	-0.075365	-0.887151	2.319073	0.075534	-0.112454	-0.009326	0.993613	-0.561752	0.825420	-0.055830	-0.819627	-0.564443	-0.098061
38994	10.263463	-1.217804	-0.044378	-0.830000	2.341530	0.005588	-0.093270	0.003879	0.995633	-0.554926	0.830065	-0.055219	-0.826655	-0.557653	-0.075268
38995	9.965581	-0.813755	0.230046	-0.765783	2.309489	-0.074335	-0.073701	0.016172	0.997149	-0.548785	0.834212	-0.054091	-0.832708	-0.551207	-0.052608
38996	10.653796	-0.195678	0.574092	-0.659640	2.141422	-0.144644	-0.055086	0.026725	0.998124	-0.543383	0.837846	-0.052423	-0.837676	-0.545251	-0.031631
38997	11.444848	-0.204736	-0.301231	-0.559740	1.980633	-0.152451	-0.037630	0.036317	0.998632	-0.538909	0.840826	-0.050885	-0.841523	-0.540086	-0.012068
38998	12.755541	-0.488630	-1.462426	-0.377374	1.920428	-0.109917	-0.020913	0.045749	0.998734	-0.535777	0.842888	-0.049829	-0.844101	-0.536140	0.006884
38999	13.069672	-0.668681	-2.910722	-0.066524	1.957675	-0.059846	-0.004063	0.055847	0.998431	-0.535381	0.843168	-0.049342	-0.844601	-0.534741	0.026473
39000	12.821701	-1.390134	-4.312138	0.152801	1.895895	-0.014040	0.011957	0.065892	0.997755	-0.536688	0.842345	-0.049197	-0.843696	-0.534895	0.045435
39001	12.237326	-2.153313	-4.874966	0.143420	1.919157	0.008502	0.028077	0.076336	0.996687	-0.538045	0.841473	-0.049291	-0.842448	-0.534879	0.064698
39002	10.203723	-2.942398	-4.725341	0.082227	1.881144	-0.036013	0.044049	0.086111	0.995311	-0.538745	0.841048	-0.048922	-0.841317	-0.534064	0.083439
39003	9.324655	-2.974323	-4.610664	0.164049	1.765681	-0.130649	0.059565	0.094540	0.993738	-0.540185	0.840201	-0.047554	-0.839435	-0.533970	0.101116
39004	8.771423	-2.446169	-4.191746	0.377685	1.666217	-0.208651	0.074596	0.101722	0.992012	-0.543231	0.838370	-0.045118	-0.836263	-0.535526	0.117798
39005	8.827176	-1.760883	-3.778122	0.626977	1.571264	-0.276465	0.089174	0.107945	0.990149	-0.548352	0.835209	-0.041668	-0.831480	-0.539234	0.133671
39006	9.074351	-1.165563	-3.336342	0.816978	1.489237	-0.312330	0.103176	0.113434	0.988174	-0.554843	0.831111	-0.037473	-0.825533	-0.544415	0.148689
39007	9.085325	-0.623800	-2.960220	0.818781	1.458429	-0.333614	0.116994	0.118729	0.986010	-0.561313	0.826947	-0.032973	-0.819293	-0.549602	0.163392
39008	8.659151	-0.167704	-2.655195	0.717630	1.389244	-0.351629	0.130260	0.123514	0.983756	-0.566761	0.823395	-0.028335	-0.813520	-0.553864	0.177258
39009	7.995505	0.073339	-2.269986	0.569911	1.282842	-0.378307	0.142775	0.127600	0.981496	-0.570952	0.820643	-0.023634	-0.808473	-0.557013	0.190020
39010	7.521868	0.362726	-1.936333	0.393015	1.143872	-0.408649	0.154279	0.130653	0.979351	-0.573540	0.818959	-0.018905	-0.804518	-0.558780	0.201282
39011	7.036863	0.647473	-1.522891	0.194893	0.996503	-0.432861	0.164724	0.132735	0.977368	-0.574484	0.818391	-0.014322	-0.801769	-0.559123	0.211063
39012	6.958186	0.634120	-1.017473	-0.015984	0.866004	-0.445057	0.174156	0.133949	0.975565	-0.573628	0.819054	-0.010057	-0.800388	-0.557860	0.219481
39013	6.953592	0.323536	-0.335625	-0.220467	0.771596	-0.428762	0.182743	0.134772	0.973880	-0.571153	0.820818	-0.006417	-0.800243	-0.555062	0.226974
39014	7.213675	-0.171006	0.515366	-0.401827	0.709997	-0.377383	0.190516	0.135617	0.972271	-0.567259	0.823531	-0.003716	-0.801200	-0.550822	0.233826
39015	7.481169	-0.496434	1.443818	-0.528511	0.707029	-0.299696	0.197836	0.137059	0.970606	-0.562487	0.826803	-0.002102	-0.802788	-0.545537	0.240665
39016	7.701169	-0.642750	2.356051	-0.601686	0.742184	-0.216285	0.204953	0.139316	0.968806	-0.557243	0.830348	-0.001519	-0.804658	-0.539549	0.247815
39017	7.752825	-0.666965	3.070892	-0.599049	0.767628	-0.142575	0.211883	0.142290	0.966881	-0.552173	0.833728	-0.001691	-0.806356	-0.533527	0.255222
39018	7.707564	-0.748491	3.388715	-0.542370	0.737067	-0.071679	0.218167	0.145627	0.964985	-0.547670	0.836691	-0.002447	-0.807750	-0.527960	0.262294
39019	7.340198	-0.924421	3.282713	-0.445173	0.614598	0.002501	0.223077	0.148929	0.963357	-0.544138	0.838987	-0.003700	-0.808796	-0.523374	0.268197
39020	7.121736	-1.140646	3.030760	-0.309733	0.412155	0.036306	0.226157	0.151408	0.962252	-0.541743	0.840530	-0.004930	-0.809548	-0.520178	0.272116
39021	7.109276	-1.473125	2.784181	-0.109394	0.182227	0.055108	0.227289	0.152877	0.961753	-0.541052	0.840969	-0.005812	-0.809693	-0.519037	0.273858
39022	7.280026	-1.861326	2.656570	0.139229	-0.032673	0.046139	0.226716	0.153119	0.961849	-0.542313	0.840156	-0.005918	-0.809009	-0.520282	0.273516
39023	7.582352	-2.015688	2.601875	0.428617	-0.206665	0.004790	0.224975	0.152147	0.962412	-0.545867	0.837858	-0.004854	-0.807104	-0.524257	0.271549
39024	8.110227	-1.873859	2.620803	0.670633	-0.354850	-0.046268	0.222311	0.149912	0.963382	-0.551195	0.834372	-0.002643	-0.804215	-0.530424	0.268121
39025	8.844248	-1.544435	2.762549	0.784017	-0.447592	-0.098620	0.219218	0.146776	0.964573	-0.557358	0.830273	0.000331	-0.800810	-0.537684	0.263818
39026	9.799819	-1.068840	3.160880	0.766958	-0.506461	-0.141086	0.215902	0.142889	0.965903	-0.563209	0.826306	0.003653	-0.797610	-0.544794	0.258878
39027	10.994787	-0.424321	4.035466	0.645342	-0.468280	-0.179195	0.213139	0.138925	0.967094	-0.568057	0.822960	0.006975	-0.794911	-0.550851	0.254323
39028	11.350870	0.286211	4.921639	0.491768	-0.297000	-0.204166	0.211886	0.135627	0.967838	-0.571556	0.820501	0.010149	-0.792735	-0.555323	0.251371
39029	11.269557	0.949421	5.541373	0.333984	-0.141802	-0.224662	0.212002	0.133080	0.968166	-0.573823	0.818875	0.013093	-0.791064	-0.558332	0.249968
39030	10.795444	1.713956	5.430758	0.219982	-0.050083	-0.225229	0.212841	0.130978	0.968268	-0.575112	0.817922	0.015778	-0.789902	-0.560221	0.249415
39031	10.355914	2.715471	5.567354	-0.068602	-0.037883	-0.218237	0.213751	0.129069	0.968324	-0.574208	0.818519	0.017651	-0.790313	-0.559793	0.249072
39032	9.829173	3.203649	5.512980	-0.640714	0.022610	-0.206130	0.215049	0.127526	0.968241	-0.568720	0.822334	0.018006	-0.793922	-0.554530	0.249368
39033	9.009246	2.147375	4.982340	-1.169206	0.042153	-0.118244	0.216011	0.126869	0.968113	-0.559248	0.828842	0.016164	-0.800363	-0.544908	0.249990
39034	8.187856	0.478594	3.702576	-1.382109	-0.019820	0.024138	0.215659	0.126987	0.968176	-0.548215	0.836245	0.012431	-0.808055	-0.533449	0.249960
39035	7.846138	-1.006794	2.677444	-1.209696	-0.158231	0.166991	0.213428	0.127644	0.968584	-0.538864	0.842357	0.007730	-0.814907	-0.523585	0.248565
39036	7.663963	-1.981332	1.900060	-0.798779	-0.281353	0.247330	0.209745	0.128292	0.969303	-0.532888	0.846179	0.003314	-0.819779	-0.517225	0.245847
39037	7.169244	-2.263895	0.417859	-0.405113	-0.407552	0.250676	0.205025	0.128412	0.970296	-0.530198	0.847874	-0.000178	-0.822712	-0.514412	0.241919
39038	6.354055	-2.381103	-2.072300	-0.094108	-0.619005	0.219975	0.198703	0.127118	0.971781	-0.529896	0.848059	-0.002584	-0.824456	-0.514429	0.235871
39039	5.920060	-2.477850	-4.138206	0.169356	-0.922265	0.121639	0.190408	0.123490	0.973907	-0.531645	0.846960	-0.003451	-0.825287	-0.517116	0.226921
39040	6.363446	-2.708945	-4.879317	0.404558	-1.261193	-0.013354	0.180011	0.116848	0.976700	-0.534988	0.844856	-0.002474	-0.825460	-0.522078	0.214596
39041	7.861080	-2.544529	-4.134781	0.582443	-1.529726	-0.105284	0.167908	0.108008	0.979868	-0.539714	0.841849	-0.000310	-0.824934	-0.528796	0.199646
39042	10.206512	-1.619658	-2.264382	0.625372	-1.647091	-0.165446	0.155164	0.097874	0.983028	-0.544630	0.838673	0.002465	-0.824198	-0.535770	0.183437
39043	13.380321	-0.331461	0.217201	0.470321	-1.545935	-0.190499	0.143418	0.088028	0.985740	-0.548311	0.836259	0.005096	-0.823885	-0.541223	0.168201
39044	16.440972	1.709638	3.176452	0.088935	-1.242735	-0.133666	0.133846	0.080196	0.987752	-0.548885	0.835872	0.006512	-0.825112	-0.543034	0.155896
39045	17.778259	4.358978	5.251219	-0.493943	-0.777229	-0.051041	0.127650	0.075629	0.988932	-0.544815	0.838533	0.006197	-0.828783	-0.539576	0.148242
39046	15.845019	5.203942	4.682316	-1.209335	-0.445227	-0.031164	0.124053	0.073010	0.989586	-0.534736	0.845006	0.004691	-0.835864	-0.529749	0.143867
39047	12.131311	2.865586	3.001191	-1.752123	-0.404733	-0.035070	0.120793	0.070656	0.990160	-0.520033	0.854143	0.002491	-0.845562	-0.515217	0.139918
39048	9.354983	-0.919825	1.459398	-1.833975	-0.544392	-0.013953	0.116176	0.067799	0.990912	-0.504442	0.863445	0.000064	-0.855594	-0.499865	0.134512
39049	7.997948	-4.463810	-0.037402	-1.443335	-0.709884	-0.014741	0.110106	0.064223	0.991843	-0.492089	0.870543	-0.001742	-0.863554	-0.487883	0.127455
39050	7.305203	-6.778741	-1.406488	-0.636968	-0.901781	-0.105850	0.102760	0.058950	0.992958	-0.486488	0.873686	-0.001523	-0.867623	-0.482905	0.118459
39051	7.294385	-7.102893	-1.911537	0.349295	-1.159757	-0.248020	0.093869	0.051237	0.994265	-0.489364	0.872079	0.001261	-0.867013	-0.486676	0.106934
39052	8.290470	-4.974582	-1.721288	1.160761	-1.382457	-0.346684	0.083569	0.041447	0.995640	-0.499119	0.866514	0.005822	-0.862494	-0.497429	0.093101
39053	9.416543	-1.698823	-1.642136	1.562704	-1.468931	-0.354441	0.072696	0.031063	0.996870	-0.512372	0.858698	0.010607	-0.855681	-0.511540	0.078340
39054	10.219636	1.221230	-1.276779	1.492339	-1.456160	-0.275048	0.061653	0.021192	0.997873	-0.524930	0.851024	0.014359	-0.848909	-0.524699	0.063593
39055	10.828580	2.920440	-0.298525	1.048643	-1.327755	-0.153518	0.051180	0.012938	0.998606	-0.533815	0.845442	0.016406	-0.844051	-0.533910	0.050176
39056	10.804877	3.093752	0.811338	0.470799	-1.118372	-0.039169	0.041903	0.006637	0.999100	-0.537788	0.842910	0.016956	-0.842038	-0.538014	0.038890
39057	9.307436	2.421923	1.564565	-0.004647	-0.959377	0.021694	0.033660	0.001721	0.999432	-0.537835	0.842886	0.016662	-0.842378	-0.538090	0.029298
39058	8.943887	1.695026	1.698566	-0.307652	-0.933777	0.054282	0.025435	-0.002809	0.999673	-0.535277	0.844525	0.015992	-0.844293	-0.535509	0.019977
39059	9.455643	0.952970	1.587790	-0.464767	-0.930175	0.051276	0.017252	-0.007278	0.999825	-0.531437	0.846959	0.015336	-0.846922	-0.531609	0.010744
39060	9.792443	-0.076892	1.054925	-0.464845	-0.841511	0.012954	0.009987	-0.011601	0.999883	-0.527517	0.849410	0.015124	-0.849486	-0.527606	0.002363
39061	9.849307	-0.873416	0.485369	-0.325863	-0.797515	-0.052981	0.003442	-0.016187	0.999863	-0.524819	0.851071	0.015584	-0.851207	-0.524801	-0.005566
39062	9.984497	-1.136227	0.309327	-0.184865	-0.753821	-0.092463	-0.002553	-0.020899	0.999778	-0.523264	0.852011	0.016474	-0.852167	-0.523106	-0.013110
39063	10.155145	-0.624798	0.016659	-0.043641	-0.702297	-0.115629	-0.007976	-0.025493	0.999643	-0.522979	0.852165	0.017559	-0.852308	-0.522652	-0.020129
39064	10.076164	-0.292681	-0.173333	0.038221	-0.662805	-0.138956	-0.012956	-0.030116	0.999462	-0.523339	0.851915	0.018886	-0.852026	-0.522813	-0.026798
39065	10.176751	-0.269300	-0.092971	0.082206	-0.595785	-0.151170	-0.017281	-0.034455	0.999257	-0.524149	0.851385	0.020292	-0.851451	-0.523409	-0.032773
39066	9.912278	-0.161793	-0.184196	0.119452	-0.540383	-0.169397	-0.021050	-0.038703	0.999029	-0.525217	0.850687	0.021889	-0.850708	-0.524246	-0.038234
39067	10.148330	0.314509	-0.164341	0.172803	-0.553369	-0.157364	-0.024967	-0.042880	0.998768	-0.526809	0.849664	0.023309	-0.849617	-0.525578	-0.043803
39068	10.527042	1.281077	-0.287104	0.163825	-0.520723	-0.134606	-0.028737	-0.046738	0.998494	-0.528255	0.848732	0.024524	-0.848600	-0.526754	-0.049080
39069	10.361666	1.912695	-0.940648	0.109115	-0.466262	-0.092528	-0.032241	-0.049916	0.998233	-0.529302	0.848056	0.025311	-0.847821	-0.527550	-0.053763
39070	10.045563	1.868020	-1.335954	0.012880	-0.413693	-0.072934	-0.035421	-0.052692	0.997982	-0.529454	0.847941	0.025978	-0.847599	-0.527466	-0.057932
39071	9.764995	1.385038	-1.328364	-0.081466	-0.390164	-0.065129	-0.038424	-0.055244	0.997733	-0.528858	0.848294	0.026602	-0.847840	-0.526637	-0.061811
39072	9.677741	1.019108	-1.386358	-0.073031	-0.383041	-0.071191	-0.041355	-0.057839	0.997469	-0.528285	0.848628	0.027305	-0.848060	-0.525818	-0.065650
39073	9.691878	1.156708	-1.508122	0.008683	-0.383615	-0.084693	-0.044205	-0.060525	0.997187	-0.528444	0.848504	0.028075	-0.847816	-0.525717	-0.069492
39074	9.643862	1.339321	-1.613144	0.084024	-0.383417	-0.115537	-0.046902	-0.063497	0.996879	-0.529227	0.847981	0.029113	-0.847183	-0.526210	-0.073376
39075	9.635180	1.247242	-1.471791	0.130136	-0.395752	-0.125126	-0.049636	-0.066596	0.996545	-0.530438	0.847186	0.030195	-0.846269	-0.527106	-0.077376
39076	9.655025	1.092541	-1.286839	0.161384	-0.391469	-0.110739	-0.052417	-0.069575	0.996199	-0.531877	0.846250	0.031116	-0.845198	-0.528224	-0.081363
39077	9.650456	1.059559	-1.289173	0.179064	-0.379506	-0.087986	-0.055197	-0.072283	0.995856	-0.533493	0.845207	0.031778	-0.844001	-0.529528	-0.085215
39078	9.738712	0.916672	-1.120418	0.209488	-0.368779	-0.055049	-0.058072	-0.074679	0.995515	-0.535308	0.844047	0.032090	-0.842658	-0.531044	-0.088991
39079	9.594961	0.736199	-0.960670	0.246514	-0.362150	-0.012580	-0.061101	-0.076674	0.995182	-0.537425	0.842707	0.031930	-0.841095	-0.532885	-0.092697
39080	9.476626	0.711052	-0.902904	0.298640	-0.366985	0.014769	-0.064323	-0.078485	0.994838	-0.539942	0.841115	0.031446	-0.839241	-0.535132	-0.096480
39081	9.366432	0.943206	-0.920985	0.332738	-0.398379	0.024150	-0.067838	-0.080382	0.994453	-0.542755	0.839326	0.030818	-0.837147	-0.537653	-0.100566
39082	9.500918	1.450597	-0.584092	0.318778	-0.463138	0.026979	-0.071917	-0.082627	0.993982	-0.545417	0.837621	0.030167	-0.835074	-0.539966	-0.105305
39083	9.733281	2.012235	-0.266527	0.200827	-0.461516	0.058392	-0.076133	-0.084599	0.993502	-0.547088	0.836562	0.029311	-0.833606	-0.541301	-0.109973
39084	9.308880	2.115462	-0.106145	0.077979	-0.528554	0.095622	-0.081119	-0.086637	0.992932	-0.547678	0.836213	0.028219	-0.832748	-0.541518	-0.115282
39085	9.354364	1.703437	-0.031916	-0.004247	-0.630018	0.138458	-0.087167	-0.088857	0.992223	-0.547559	0.836338	0.026794	-0.832215	-0.540965	-0.121555
39086	10.174699	0.953284	-0.746428	-0.042029	-0.654929	0.180244	-0.093662	-0.090865	0.991449	-0.547062	0.836719	0.025004	-0.831836	-0.540042	-0.128077
39087	10.182917	0.242965	-0.870867	-0.076526	-0.503338	0.205315	-0.099013	-0.091831	0.990840	-0.546260	0.837299	0.023014	-0.831743	-0.538977	-0.133067
39088	9.804660	-0.282739	-0.389578	-0.073916	-0.499879	0.202972	-0.104337	-0.092799	0.990203	-0.545453	0.837877	0.021049	-0.831621	-0.537914	-0.138039
39089	9.727805	-0.404589	-0.397123	-0.089395	-0.457925	0.171118	-0.109120	-0.093793	0.989594	-0.544563	0.838495	0.019424	-0.831591	-0.536776	-0.142573
39090	9.583340	-0.841613	-0.866365	-0.116705	-0.439440	0.116108	-0.113465	-0.095150	0.988975	-0.543477	0.839222	0.018389	-0.831720	-0.535399	-0.146935
39091	9.555342	-0.860815	-1.142629	-0.010169	-0.430773	0.074473	-0.117493	-0.096795	0.988345	-0.543347	0.839324	0.017608	-0.831246	-0.534945	-0.151208
39092	9.588290	-0.601940	-1.271295	0.188430	-0.443804	0.050531	-0.121512	-0.098723	0.987668	-0.544865	0.838356	0.016765	-0.829673	-0.536109	-0.155661
39093	9.268141	-0.203656	-1.247511	0.344129	-0.455735	0.035544	-0.125521	-0.100837	0.986953	-0.547716	0.836515	0.015808	-0.827195	-0.538585	-0.160230
39094	9.283899	0.439790	-1.081617	0.483597	-0.523077	0.042828	-0.130133	-0.103282	0.986103	-0.551666	0.833938	0.014543	-0.823850	-0.542107	-0.165500
39095	9.655931	1.160510	-1.091635	0.518373	-0.566661	0.058303	-0.135154	-0.105841	0.985155	-0.555893	0.831151	0.013032	-0.820193	-0.545880	-0.171170
39096	9.534517	1.436884	-1.187041	0.462254	-0.581354	0.076914	-0.140400	-0.108362	0.984147	-0.559583	0.828695	0.011415	-0.816795	-0.549110	-0.176987
39097	9.425291	1.352763	-0.633432	0.393872	-0.622218	0.107215	-0.146114	-0.110865	0.983036	-0.562681	0.826618	0.009591	-0.813659	-0.551735	-0.183162
39098	9.618907	1.040520	-0.228748	0.333541	-0.670370	0.143178	-0.152425	-0.113365	0.981792	-0.565189	0.824928	0.007506	-0.810758	-0.553753	-0.189812
39099	9.874912	0.586132	-0.229210	0.343096	-0.662326	0.158466	-0.158720	-0.115700	0.980521	-0.567758	0.823179	0.005229	-0.807749	-0.555869	-0.196345
39100	9.749021	0.542452	-0.243602	0.412835	-0.636338	0.159715	-0.164818	-0.117911	0.979251	-0.570839	0.821058	0.002785	-0.804350	-0.558535	-0.202633
39101	9.863044	0.813311	0.195058	0.515436	-0.693002	0.148491	-0.171263	-0.120541	0.977824	-0.574767	0.818317	0.000209	-0.800195	-0.561985	-0.209430
39102	10.055999	1.066800	0.518987	0.549980	-0.625065	0.141142	-0.177125	-0.122890	0.976486	-0.578921	0.815380	-0.002395	-0.795913	-0.565732	-0.215568
39103	9.953588	1.152660	0.256138	0.602402	-0.562534	0.134447	-0.182402	-0.124955	0.975252	-0.583508	0.812092	-0.005084	-0.791359	-0.569994	-0.221040
39104	10.196753	1.231815	-0.040178	0.627960	-0.470860	0.149802	-0.187055	-0.126414	0.974182	-0.588195	0.808679	-0.008003	-0.786789	-0.574506	-0.225623
39105	10.447965	1.261404	-0.111156	0.563653	-0.300932	0.158840	-0.190383	-0.126831	0.973483	-0.592370	0.805592	-0.010892	-0.782849	-0.578736	-0.228502
39106	10.504934	1.132324	0.014023	0.536435	-0.186493	0.145651	-0.192765	-0.126722	0.973028	-0.596290	0.802654	-0.013596	-0.779282	-0.582828	-0.230286
39107	10.602630	1.067814	0.099772	0.589284	-0.049952	0.132758	-0.193973	-0.125914	0.972893	-0.600669	0.799332	-0.016309	-0.775611	-0.587549	-0.230682
39108	10.626662	1.323913	-0.127118	0.699873	0.021879	0.113499	-0.194548	-0.124860	0.972914	-0.605870	0.795335	-0.019083	-0.771409	-0.593172	-0.230380
39109	11.013308	1.526765	-0.421767	0.772828	0.103727	0.092443	-0.194336	-0.123471	0.973133	-0.611692	0.790795	-0.021820	-0.766855	-0.599499	-0.229206
39110	11.067113	1.759262	-0.335182	0.801002	0.207096	0.089300	-0.193362	-0.121499	0.973575	-0.617652	0.786068	-0.024573	-0.762310	-0.606082	-0.227040
39111	11.598039	2.131927	-0.199435	0.802351	0.278073	0.106952	-0.191933	-0.118929	0.974175	-0.623603	0.781258	-0.027485	-0.757814	-0.612774	-0.224114
39112	12.467628	2.595963	-0.162008	0.724160	0.421513	0.145902	-0.189720	-0.115178	0.975059	-0.628807	0.776960	-0.030571	-0.754061	-0.618924	-0.219830
39113	12.941886	2.911303	-0.098198	0.513288	0.611625	0.200729	-0.186399	-0.109786	0.976321	-0.632353	0.773947	-0.033699	-0.751921	-0.623661	-0.213687
39114	13.782370	2.757755	0.529744	0.167486	0.810813	0.222452	-0.181769	-0.102982	0.977934	-0.633212	0.773128	-0.036281	-0.752332	-0.625834	-0.205740
39115	14.012674	2.158373	1.730173	-0.253878	0.996773	0.209224	-0.175592	-0.095093	0.979860	-0.630983	0.774872	-0.037873	-0.755664	-0.624925	-0.196063
39116	13.713765	1.372660	3.102061	-0.583880	1.146035	0.149273	-0.167898	-0.086773	0.981978	-0.626307	0.778636	-0.038281	-0.761281	-0.621447	-0.185078
39117	12.728453	0.625805	4.204851	-0.835908	1.345208	0.052728	-0.157946	-0.077994	0.984363	-0.619900	0.783791	-0.037364	-0.768620	-0.616108	-0.172146
39118	11.475951	-0.277228	4.938236	-1.000780	1.612631	-0.036196	-0.145319	-0.068378	0.987019	-0.612230	0.789886	-0.035417	-0.777211	-0.609430	-0.156649
39119	10.722495	-0.972820	5.108203	-1.054663	1.868869	-0.070526	-0.130283	-0.057556	0.989805	-0.604183	0.796153	-0.033230	-0.786123	-0.602352	-0.138500
39120	10.626278	-1.406668	4.821690	-1.088728	2.152521	-0.041219	-0.113075	-0.044981	0.992568	-0.595637	0.802636	-0.031483	-0.795255	-0.594770	-0.117551
39121	10.494063	-1.443754	4.520693	-1.123927	2.400779	0.021478	-0.093997	-0.030546	0.995104	-0.586757	0.809185	-0.030585	-0.804289	-0.586759	-0.093984
39122	10.517972	-1.194856	4.090160	-1.167437	2.551517	0.097422	-0.073987	-0.014874	0.997148	-0.577248	0.815993	-0.030659	-0.813210	-0.577870	-0.068959
39123	11.446191	-0.876582	2.568104	-1.199976	2.561637	0.188580	-0.054121	0.001453	0.998533	-0.567476	0.822769	-0.031955	-0.821609	-0.568373	-0.043705
39124	12.611689	-1.505970	-0.543304	-1.298025	2.631083	0.245122	-0.033828	0.018313	0.999260	-0.556666	0.830038	-0.034057	-0.830047	-0.557407	-0.017884
39125	13.617846	-2.751864	-2.930824	-1.117564	2.536339	0.257359	-0.014108	0.034585	0.999302	-0.547462	0.836027	-0.036663	-0.836712	-0.547597	0.007139
39126	13.934042	-3.543327	-4.314752	-0.636259	2.457175	0.243669	0.005110	0.050029	0.998735	-0.542136	0.839372	-0.039272	-0.840275	-0.541250	0.031412
39127	13.151156	-3.640758	-4.901414	-0.059112	2.324886	0.167595	0.023731	0.064121	0.997660	-0.541833	0.839483	-0.041067	-0.840151	-0.539590	0.054665
39128	12.137664	-3.121646	-4.649640	0.509306	2.183223	0.067001	0.041613	0.076518	0.996199	-0.546148	0.836663	-0.041451	-0.836655	-0.542347	0.076606
39129	11.224335	-2.140870	-4.734790	0.844938	2.036636	0.000688	0.058574	0.087745	0.994419	-0.553352	0.831947	-0.040815	-0.830886	-0.547873	0.097284
39130	10.347444	-1.704413	-4.467615	0.874232	1.895900	-0.041607	0.074442	0.097863	0.992412	-0.560586	0.827153	-0.039517	-0.824744	-0.553390	0.116435
39131	9.959418	-1.396230	-4.200077	0.729281	1.811229	-0.106239	0.089903	0.107156	0.990169	-0.566643	0.823104	-0.037628	-0.819044	-0.557689	0.134718
39132	9.413748	-1.226102	-3.931679	0.664117	1.766049	-0.177360	0.105270	0.115603	0.987702	-0.571917	0.819566	-0.034969	-0.813529	-0.561202	0.152391
39133	9.010958	-0.997883	-3.630882	0.743359	1.682811	-0.251747	0.120323	0.123122	0.985070	-0.577782	0.815588	-0.031365	-0.807273	-0.565382	0.169272
39134	9.046155	-0.709071	-3.156136	0.827546	1.583880	-0.319421	0.134852	0.129539	0.982362	-0.584054	0.811272	-0.026803	-0.800435	-0.570138	0.185059
39135	9.001920	-0.145486	-2.841265	0.824843	1.493870	-0.345912	0.148752	0.135379	0.979564	-0.590248	0.806926	-0.021888	-0.793398	-0.574929	0.199939
39136	8.503644	0.439421	-2.539273	0.680846	1.400719	-0.355883	0.161871	0.140613	0.976742	-0.595104	0.803468	-0.017045	-0.787178	-0.578504	0.213738
39137	7.798727	0.940998	-2.321469	0.411933	1.286407	-0.377713	0.174181	0.145105	0.973964	-0.597792	0.801554	-0.012511	-0.782500	-0.580048	0.226358
39138	6.740940	1.013727	-2.167594	0.093559	1.135940	-0.403179	0.185406	0.148479	0.971380	-0.597827	0.801581	-0.008418	-0.779889	-0.579157	0.237383
39139	5.913359	0.857746	-2.067720	-0.222634	0.973587	-0.403622	0.195364	0.150919	0.969049	-0.595394	0.803417	-0.005090	-0.779319	-0.575972	0.246815
39140	5.379237	0.463440	-1.780422	-0.503803	0.796789	-0.374648	0.203742	0.152492	0.967076	-0.590748	0.806852	-0.002770	-0.780709	-0.570733	0.254474
39141	5.299484	-0.180212	-1.333141	-0.744388	0.662919	-0.309126	0.210702	0.153794	0.965377	-0.584341	0.811506	-0.001743	-0.783677	-0.563742	0.260854
39142	5.362123	-1.035053	-0.674037	-0.890195	0.537444	-0.193379	0.215989	0.155251	0.963974	-0.576966	0.816765	-0.002267	-0.787692	-0.555690	0.265987
39143	5.829732	-1.668020	0.200493	-0.949132	0.424575	-0.034982	0.219501	0.157344	0.962841	-0.569443	0.822019	-0.004514	-0.792183	-0.547292	0.270033
39144	6.419311	-1.968149	0.983980	-0.981317	0.402434	0.110497	0.222016	0.160464	0.961749	-0.561922	0.827149	-0.008289	-0.796839	-0.538587	0.273808
39145	6.693937	-2.036019	1.481368	-0.956870	0.405719	0.227963	0.223941	0.164565	0.960609	-0.554838	0.831854	-0.013161	-0.801252	-0.530035	0.277593
39146	6.854638	-1.781151	1.708657	-0.889665	0.368747	0.314391	0.225111	0.169151	0.959538	-0.548430	0.835987	-0.018707	-0.805326	-0.522028	0.280958
39147	7.156521	-1.036854	1.912221	-0.828980	0.267666	0.336871	0.225389	0.173409	0.958712	-0.542558	0.839666	-0.024324	-0.809216	-0.514674	0.283336
39148	7.427971	-0.419590	1.841916	-0.880835	0.169188	0.246981	0.225373	0.176379	0.958174	-0.536000	0.843712	-0.029236	-0.813579	-0.506993	0.284688
39149	7.949148	-0.255629	2.557543	-1.025737	0.032468	0.066573	0.225238	0.177155	0.958063	-0.527840	0.848709	-0.032841	-0.818934	-0.498307	0.284671
39150	8.068824	-1.694971	3.411297	-1.058467	-0.032956	-0.134410	0.225614	0.175875	0.958210	-0.518872	0.854151	-0.034605	-0.824542	-0.489381	0.283965
39151	8.149443	-3.174215	3.958230	-0.635209	-0.179337	-0.282929	0.225546	0.172636	0.958815	-0.513053	0.857694	-0.033741	-0.828194	-0.484312	0.282021
39152	8.051978	-2.365574	5.186136	0.001690	-0.417607	-0.403201	0.224096	0.167180	0.960121	-0.512193	0.858349	-0.029911	-0.829119	-0.485064	0.277981
39153	8.473871	-0.092507	6.494570	0.278498	-0.614012	-0.424003	0.221134	0.160624	0.961925	-0.513645	0.857635	-0.025130	-0.829017	-0.488531	0.272156
39154	8.952759	1.069293	6.896286	0.131348	-0.771112	-0.285511	0.216148	0.154427	0.964071	-0.514143	0.857420	-0.022071	-0.830022	-0.490900	0.264728
39155	9.418793	0.742851	7.078549	-0.205241	-0.835153	-0.087225	0.209609	0.149661	0.966264	-0.512348	0.858501	-0.021828	-0.832805	-0.490488	0.256628
39156	10.669603	-0.309919	6.639456	-0.435852	-0.798140	0.105908	0.202349	0.146694	0.968264	-0.508960	0.860455	-0.023998	-0.836668	-0.487952	0.248774
39157	11.390938	-1.459831	5.485725	-0.426792	-0.711179	0.216289	0.195249	0.145185	0.969948	-0.505922	0.862150	-0.027209	-0.840191	-0.485405	0.241786
39158	11.657995	-1.738902	4.629385	-0.286865	-0.524508	0.210709	0.189715	0.144490	0.971149	-0.503946	0.863215	-0.029985	-0.842643	-0.483718	0.236580
39159	9.725667	-1.390198	2.900497	-0.087919	-0.406723	0.111383	0.185684	0.143582	0.972062	-0.503535	0.863406	-0.031347	-0.843786	-0.483646	0.232620
39160	7.560638	-1.321597	-0.139945	0.160733	-0.542255	0.019222	0.180955	0.141148	0.973310	-0.504958	0.862580	-0.031210	-0.843963	-0.485833	0.227362
39161	6.322007	-1.660154	-4.023706	0.489793	-0.812567	-0.057529	0.174353	0.136782	0.975137	-0.509110	0.860191	-0.029630	-0.842857	-0.491286	0.219614
39162	6.030354	-2.239569	-6.231132	0.769930	-1.228720	-0.138888	0.164662	0.129530	0.977808	-0.515388	0.856542	-0.026674	-0.840988	-0.499558	0.207798
39163	7.858612	-2.675046	-5.547646	0.823519	-1.712861	-0.135006	0.150927	0.119822	0.981256	-0.522197	0.852493	-0.023780	-0.839364	-0.508820	0.191235
39164	11.643841	-1.552826	-2.856493	0.632425	-1.916157	-0.063749	0.135125	0.109484	0.984761	-0.527442	0.849305	-0.022050	-0.838777	-0.516425	0.172509
39165	15.326506	1.415461	0.724745	0.158213	-1.672247	-0.069876	0.121410	0.100298	0.987522	-0.528768	0.848502	-0.021170	-0.840038	-0.519600	0.156051
39166	17.677376	4.123294	3.642669	-0.497595	-1.190382	-0.161146	0.112177	0.092788	0.989347	-0.524418	0.851217	-0.020372	-0.844039	-0.516546	0.144147
39167	17.520228	4.660092	4.150887	-1.093729	-0.705748	-0.241680	0.107407	0.087165	0.990387	-0.514957	0.856992	-0.019578	-0.850460	-0.507904	0.136933
39168	13.788105	1.836999	1.588409	-1.608344	-0.531112	-0.272706	0.104195	0.082182	0.991156	-0.500948	0.865267	-0.019082	-0.859183	-0.494529	0.131326
39169	10.190762	-2.627639	-0.755805	-1.714383	-0.762859	-0.242467	0.098759	0.076403	0.992174	-0.485942	0.873787	-0.018917	-0.868394	-0.480270	0.123422
39170	8.827269	-6.393749	-1.388673	-1.266307	-0.929279	-0.154139	0.091341	0.070666	0.993309	-0.474782	0.879899	-0.018939	-0.875351	-0.469876	0.113922
39171	8.304300	-8.351608	-1.594932	-0.444066	-0.909696	-0.159499	0.084074	0.065059	0.994333	-0.470818	0.882049	-0.017903	-0.878215	-0.466644	0.104788
39172	7.710538	-8.081740	-1.891258	0.561262	-0.937537	-0.271749	0.077079	0.058294	0.995319	-0.475550	0.879566	-0.014687	-0.876305	-0.472192	0.095518
39173	8.233039	-5.368701	-1.684444	1.388480	-1.095546	-0.387087	0.069325	0.049733	0.996354	-0.487488	0.873076	-0.009661	-0.870373	-0.485041	0.084771
39174	8.961474	-1.974708	-1.453004	1.805932	-1.196155	-0.434957	0.061060	0.040084	0.997329	-0.502876	0.864350	-0.003951	-0.862199	-0.501292	0.072935
39175	9.208281	0.800541	-1.570515	1.864394	-1.247211	-0.406493	0.052389	0.030312	0.998167	-0.518747	0.854927	0.001264	-0.853321	-0.517862	0.060513
39176	9.524992	2.085576	-1.049768	1.656200	-1.262809	-0.319960	0.043288	0.020986	0.998842	-0.532685	0.846297	0.005305	-0.845206	-0.532298	0.047814
39177	10.053802	2.265079	0.154887	1.313131	-1.200978	-0.213120	0.034269	0.012793	0.999331	-0.543736	0.839219	0.007902	-0.838557	-0.543643	0.035715
39178	9.906022	2.701014	1.270016	0.958258	-1.037502	-0.155573	0.026388	0.005834	0.999635	-0.551724	0.833970	0.009697	-0.833609	-0.551779	0.025225
39179	9.199429	3.578856	2.150477	0.614948	-1.032744	-0.162755	0.018649	-0.001188	0.999825	-0.556881	0.830515	0.011374	-0.830383	-0.556996	0.014826
39180	9.390991	3.956126	1.853736	0.191653	-1.034210	-0.153289	0.010862	-0.008205	0.999907	-0.558472	0.829424	0.012872	-0.829452	-0.558560	0.004427
39181	10.439398	3.407448	0.783548	-0.182193	-1.007842	-0.103356	0.003022	-0.014637	0.999888	-0.557026	0.830380	0.013839	-0.830490	-0.557006	-0.005644
39182	10.832180	2.069100	0.059748	-0.499924	-0.856967	-0.060726	-0.003829	-0.019872	0.999795	-0.552890	0.833129	0.014442	-0.833246	-0.552721	-0.014177
39183	10.989641	0.512799	-0.074993	-0.645870	-0.691344	-0.042788	-0.009414	-0.023990	0.999668	-0.547568	0.836628	0.014921	-0.836708	-0.547246	-0.021012
39184	10.290159	-0.736254	-0.261254	-0.614294	-0.522194	-0.063938	-0.013502	-0.027345	0.999535	-0.542447	0.839944	0.015651	-0.839981	-0.541984	-0.026174
39185	9.634453	-1.182367	-0.734192	-0.429780	-0.493049	-0.112275	-0.017090	-0.030908	0.999376	-0.538907	0.842197	0.016831	-0.842192	-0.538283	-0.031050
39186	9.567473	-0.870362	-1.014192	-0.129445	-0.554481	-0.152528	-0.020999	-0.035149	0.999161	-0.537867	0.842830	0.018345	-0.842768	-0.537031	-0.036604
39187	9.659165	-0.050857	-1.177124	0.162125	-0.629966	-0.184055	-0.025357	-0.040038	0.998876	-0.539339	0.841850	0.020053	-0.841707	-0.538225	-0.042941
39188	9.582773	0.681122	-1.510321	0.385770	-0.699127	-0.211303	-0.030149	-0.045562	0.998506	-0.542661	0.839665	0.021930	-0.839410	-0.541190	-0.050040
39189	9.979971	1.285878	-1.719267	0.514382	-0.759205	-0.210378	-0.035414	-0.051407	0.998050	-0.547091	0.836738	0.023686	-0.836323	-0.545186	-0.057757
39190	9.927085	1.660011	-1.605478	0.558766	-0.764320	-0.206429	-0.040717	-0.057290	0.997527	-0.551854	0.833555	0.025347	-0.832946	-0.549457	-0.065556
39191	9.722840	1.734754	-1.442299	0.562287	-0.764440	-0.185060	-0.046095	-0.063009	0.996948	-0.556650	0.830317	0.026740	-0.829467	-0.553718	-0.073347
39192	9.846622	2.008758	-1.189079	0.531572	-0.756404	-0.140014	-0.051633	-0.068348	0.996325	-0.561138	0.827259	0.027670	-0.826110	-0.557647	-0.081066
39193	9.656932	2.305341	-0.739407	0.439272	-0.691982	-0.076334	-0.056960	-0.072817	0.995717	-0.564836	0.824728	0.028001	-0.823235	-0.560822	-0.088106
39194	9.820665	2.433743	-0.503175	0.339354	-0.652534	-0.007849	-0.062339	-0.076525	0.995117	-0.567649	0.822804	0.027714	-0.820907	-0.563150	-0.094732
39195	10.106894	2.400317	-0.617282	0.199387	-0.591902	0.068558	-0.067633	-0.079271	0.994556	-0.569265	0.821717	0.026783	-0.819367	-0.564355	-0.100702
39196	9.663132	2.071189	-0.618194	0.066015	-0.547228	0.084598	-0.072656	-0.081641	0.994010	-0.569765	0.821402	0.025819	-0.818590	-0.564476	-0.106196
39197	9.350971	1.498597	-0.492205	-0.068074	-0.543420	0.080625	-0.077613	-0.084021	0.993437	-0.569166	0.821841	0.025041	-0.818551	-0.563487	-0.111608
39198	9.299140	1.066075	-0.552034	-0.167231	-0.539857	0.055060	-0.082406	-0.086582	0.992831	-0.567771	0.822818	0.024630	-0.819052	-0.561670	-0.116963
39199	9.518577	0.922848	-0.823364	-0.201515	-0.517144	0.031651	-0.086873	-0.089198	0.992218	-0.566109	0.823966	0.024508	-0.819740	-0.559575	-0.122076
39200	9.544177	0.809191	-1.319686	-0.214204	-0.495237	0.004991	-0.091021	-0.091899	0.991600	-0.564365	0.825156	0.024669	-0.820492	-0.557379	-0.126971
39201	9.517539	0.401554	-1.443702	-0.172217	-0.520888	-0.005376	-0.095316	-0.094821	0.990921	-0.562971	0.826102	0.024898	-0.820962	-0.555486	-0.132122
39202	9.383447	-0.031840	-1.682946	-0.110913	-0.538285	-0.007350	-0.099752	-0.097844	0.990190	-0.562084	0.826700	0.025064	-0.821042	-0.554070	-0.137462
39203	9.124500	-0.336487	-2.187924	0.045908	-0.614329	0.017667	-0.104943	-0.101080	0.989328	-0.562456	0.826456	0.024777	-0.820141	-0.553853	-0.143584
39204	9.262831	-0.135972	-2.363380	0.216166	-0.688154	0.064043	-0.110999	-0.104342	0.988328	-0.564174	0.825314	0.023769	-0.818161	-0.554950	-0.150476
39205	9.454980	0.667234	-2.029170	0.279720	-0.691154	0.110967	-0.117325	-0.107248	0.987286	-0.566342	0.823871	0.022195	-0.815776	-0.556538	-0.157400
39206	9.351165	1.441419	-1.570271	0.251688	-0.740227	0.149115	-0.124259	-0.110121	0.986120	-0.568228	0.822622	0.020261	-0.813435	-0.557824	-0.164792
39207	9.671637	1.806203	-1.224198	0.113082	-0.691058	0.156441	-0.130818	-0.112672	0.984983	-0.568953	0.822162	0.018483	-0.811899	-0.557991	-0.171658
39208	10.015764	1.410880	-0.909737	-0.032298	-0.690345	0.145150	-0.137304	-0.115303	0.983795	-0.568511	0.822499	0.017054	-0.811137	-0.556957	-0.178483
39209	9.987499	0.647802	-0.468672	-0.113763	-0.603331	0.115836	-0.142907	-0.117689	0.982714	-0.567428	0.823266	0.016077	-0.810927	-0.555322	-0.184431
39210	9.764488	0.221885	-0.564244	-0.084617	-0.588639	0.097498	-0.148291	-0.120126	0.981621	-0.566614	0.823843	0.015221	-0.810530	-0.553943	-0.190234
39211	9.619828	0.438046	-0.462145	0.017410	-0.574628	0.092949	-0.153522	-0.122524	0.980520	-0.566620	0.823856	0.014230	-0.809551	-0.553398	-0.195905
39212	9.585397	0.689465	-0.307996	0.085180	-0.590553	0.070673	-0.158758	-0.125186	0.979349	-0.567212	0.823464	0.013311	-0.808125	-0.553386	-0.201738
39213	9.564052	0.951795	-0.399366	0.114223	-0.605811	0.086137	-0.164185	-0.127809	0.978114	-0.568004	0.822936	0.012188	-0.806483	-0.553572	-0.207710
39214	9.574388	1.133188	-0.640950	0.094217	-0.613733	0.131842	-0.169938	-0.130098	0.976829	-0.568556	0.822576	0.010643	-0.804901	-0.553573	-0.213755
39215	9.835568	0.784235	-0.804426	0.071248	-0.627821	0.179594	-0.176053	-0.132075	0.975480	-0.568828	0.822411	0.008689	-0.803393	-0.553351	-0.219916
39216	9.998160	0.496595	-0.759349	0.152285	-0.593997	0.194566	-0.181985	-0.133739	0.974164	-0.569714	0.821818	0.006395	-0.801441	-0.553831	-0.225752
39217	9.670066	0.407556	-0.457929	0.269501	-0.608947	0.163213	-0.187833	-0.135754	0.972774	-0.571581	0.820535	0.004142	-0.798758	-0.555241	-0.231718
39218	9.839354	0.245896	-0.384512	0.364840	-0.618968	0.103288	-0.193417	-0.138327	0.971316	-0.574304	0.818639	0.002224	-0.795466	-0.557400	-0.237780
39219	9.878941	0.468183	0.049654	0.498204	-0.611899	0.068554	-0.198707	-0.141164	0.969839	-0.578140	0.815938	0.000310	-0.791372	-0.560641	-0.243745
39220	9.777207	0.790200	0.337598	0.614118	-0.587367	0.068249	-0.203796	-0.143890	0.968382	-0.582858	0.812572	-0.001924	-0.786602	-0.564821	-0.249466
39221	9.672453	0.744425	0.322222	0.663286	-0.518734	0.115514	-0.208576	-0.145870	0.967067	-0.587845	0.808959	-0.004764	-0.781623	-0.569479	-0.254479
39222	9.754169	0.350160	0.063866	0.668880	-0.477336	0.178849	-0.213409	-0.147134	0.965820	-0.592689	0.805389	-0.008268	-0.776644	-0.574195	-0.259082
39223	9.749221	0.045915	-0.550199	0.711938	-0.426428	0.219060	-0.218047	-0.147806	0.964681	-0.597758	0.801582	-0.012295	-0.771454	-0.579327	-0.263135
39224	10.181606	0.061643	-1.076937	0.780177	-0.393301	0.223542	-0.222471	-0.148287	0.963596	-0.603272	0.797363	-0.016575	-0.765878	-0.584998	-0.266847
39225	10.655106	0.523416	-1.105613	0.836014	-0.332398	0.201269	-0.226257	-0.148613	0.962664	-0.609235	0.792717	-0.020812	-0.760027	-0.591197	-0.269898
39226	10.993224	1.488647	-1.065600	0.890041	-0.235939	0.154312	-0.229047	-0.148776	0.961979	-0.615630	0.787646	-0.024767	-0.754014	-0.597896	-0.271999
39227	11.893331	2.447880	-1.407207	0.938835	-0.160914	0.093233	-0.230859	-0.148985	0.961513	-0.622503	0.782106	-0.028277	-0.747792	-0.605073	-0.273300
39228	12.423809	2.991630	-1.626190	0.880902	0.002999	0.039250	-0.231142	-0.148641	0.961499	-0.628984	0.776795	-0.031119	-0.742262	-0.611960	-0.273042
39229	13.582668	2.860701	-1.645600	0.733469	0.237236	-0.004203	-0.229385	-0.147189	0.962142	-0.634457	0.772248	-0.033122	-0.738138	-0.618035	-0.270527
39230	13.209409	2.436791	-1.118775	0.519476	0.425193	0.025219	-0.226471	-0.144338	0.963264	-0.638236	0.769053	-0.034817	-0.735776	-0.622674	-0.266290
39231	13.681550	2.263728	-0.055077	0.270436	0.485798	0.063258	-0.223326	-0.140797	0.964521	-0.640115	0.767426	-0.036187	-0.735104	-0.625486	-0.261513
39232	14.578337	2.286336	0.836350	0.002642	0.629548	0.079640	-0.219263	-0.136227	0.966109	-0.639967	0.767510	-0.037020	-0.736455	-0.626395	-0.255467
39233	13.931860	2.027461	1.653405	-0.303496	0.836072	0.097658	-0.213731	-0.130219	0.968175	-0.637555	0.769504	-0.037247	-0.740164	-0.625225	-0.247489
39234	12.490267	1.188865	2.887517	-0.674008	0.982806	0.116577	-0.207225	-0.123175	0.970508	-0.632308	0.773842	-0.036798	-0.746488	-0.621286	-0.238244
39235	11.861926	0.501184	3.994960	-0.994036	1.183635	0.117514	-0.199086	-0.114913	0.973221	-0.624662	0.780080	-0.035676	-0.755091	-0.615037	-0.227085
39236	11.127876	-0.127198	4.558322	-1.207926	1.486526	0.091788	-0.188413	-0.105089	0.976451	-0.615311	0.787552	-0.033969	-0.765437	-0.607221	-0.213047
39237	10.608345	-0.259840	4.519465	-1.295603	1.792174	0.072234	-0.175035	-0.093666	0.980097	-0.605272	0.795372	-0.032083	-0.776537	-0.598840	-0.195911
39238	10.353199	-0.142165	3.827479	-1.344554	2.074252	0.068197	-0.159275	-0.080769	0.983925	-0.594651	0.803412	-0.030309	-0.788049	-0.589920	-0.175994
39239	10.061759	-0.158200	2.878550	-1.411466	2.332964	0.078067	-0.141204	-0.066429	0.987749	-0.583434	0.811649	-0.028819	-0.799791	-0.580356	-0.153365
39240	9.900826	-0.306742	2.378479	-1.514421	2.487972	0.092521	-0.121748	-0.051346	0.991232	-0.571124	0.820398	-0.027651	-0.811785	-0.569483	-0.129207
39241	10.126765	0.171117	2.448532	-1.555914	2.538626	0.065295	-0.101350	-0.036425	0.994184	-0.558455	0.829109	-0.026553	-0.823320	-0.557899	-0.104372
39242	11.378562	0.198804	0.645113	-1.594768	2.531014	0.091470	-0.080932	-0.021675	0.996484	-0.545171	0.837920	-0.026052	-0.834409	-0.545362	-0.079632
39243	12.120225	-0.504213	-2.222068	-1.502186	2.577014	0.127458	-0.059977	-0.006621	0.998178	-0.532610	0.845949	-0.026392	-0.844233	-0.533222	-0.054264
39244	12.423974	-1.377612	-3.969922	-1.223341	2.483304	0.152292	-0.039777	0.007812	0.999178	-0.522179	0.852394	-0.027452	-0.851908	-0.522842	-0.029826
39245	12.711576	-2.242234	-4.818012	-0.903606	2.347060	0.172454	-0.020608	0.021551	0.999555	-0.514540	0.856973	-0.029085	-0.857219	-0.514910	-0.006572
39246	12.265373	-2.519893	-4.642331	-0.529958	2.207869	0.128914	-0.002365	0.033997	0.999419	-0.509997	0.859637	-0.030449	-0.860173	-0.509773	0.015305
39247	12.498367	-2.449536	-4.442953	-0.162273	2.066571	0.069599	0.015060	0.045195	0.998865	-0.508733	0.860357	-0.031258	-0.860793	-0.507685	0.035949
39248	12.166753	-2.824858	-5.103534	0.009105	2.013745	0.038035	0.032139	0.055765	0.997927	-0.508845	0.860275	-0.031685	-0.860258	-0.506772	0.056024
39249	10.895730	-3.344548	-5.195641	0.080562	2.026990	0.025107	0.049423	0.066332	0.996573	-0.509668	0.859778	-0.031951	-0.858950	-0.506342	0.076301
39250	9.752005	-3.475134	-4.744667	0.235228	1.958934	0.015148	0.066093	0.076416	0.994883	-0.511722	0.858557	-0.031950	-0.856605	-0.506991	0.095849
39251	9.140257	-3.126495	-4.276593	0.528864	1.894184	-0.006330	0.082292	0.086076	0.992884	-0.516349	0.855803	-0.031396	-0.852415	-0.510091	0.114871
39252	8.935325	-2.766408	-3.749645	0.846104	1.794279	-0.050361	0.097738	0.094877	0.990679	-0.523519	0.851489	-0.029898	-0.846389	-0.515717	0.132893
39253	9.040843	-2.399211	-3.334740	1.102824	1.684702	-0.083178	0.112344	0.103004	0.988316	-0.532829	0.845774	-0.027580	-0.838733	-0.523505	0.149901
39254	8.907627	-1.771925	-2.967017	1.244802	1.560547	-0.117984	0.125944	0.110275	0.985889	-0.543105	0.839307	-0.024499	-0.830165	-0.532356	0.165597
39255	8.536279	-0.970999	-2.689387	1.197235	1.428088	-0.144899	0.138499	0.116799	0.983451	-0.552897	0.832983	-0.021065	-0.821659	-0.540830	0.179946
