// General information: 
//  MT Manager version: 2022.2.0 
//  XDA version: 2022.2.0 build 7381 rev 124627 built on 2023-07-19
// Device information: 
//  DeviceId: 00B4CB9F
//  ProductCode: MTW2-3A7G6
//  Firmware Version: 4.6.0
//  Hardware Version: 2.0.0
// Device settings: 
//  Filter Profile: human(46.1)
//  Option Flags: Orientation Smoother Disabled, Position/Velocity Smoother Disabled, Continuous Zero Rotation Update Disabled, AHS Disabled, ICC Disabled
// Coordinate system: ENU
PacketCounter	Acc_X	Acc_Y	Acc_Z	Gyr_X	Gyr_Y	Gyr_Z	Mat[1][1]	Mat[2][1]	Mat[3][1]	Mat[1][2]	Mat[2][2]	Mat[3][2]	Mat[1][3]	Mat[2][3]	Mat[3][3]
11635	9.444189	-1.884958	2.064023	-0.062306	0.028124	0.017758	-0.209997	-0.220405	0.952535	0.180302	-0.966279	-0.183836	0.960933	0.133139	0.242655
11636	9.431485	-1.823638	2.106872	-0.041864	0.028243	0.021416	-0.210165	-0.220683	0.952434	0.179992	-0.966273	-0.184172	0.960954	0.132724	0.242798
11637	9.370444	-1.768624	2.146819	-0.023730	0.033519	0.020549	-0.210363	-0.220945	0.952329	0.179847	-0.966248	-0.184447	0.960938	0.132473	0.242999
11638	9.358219	-1.684053	2.141121	-0.022498	0.034084	0.018708	-0.210593	-0.221204	0.952218	0.179718	-0.966221	-0.184710	0.960912	0.132232	0.243233
11639	9.309637	-1.734542	2.205567	-0.024030	0.038355	0.021285	-0.210835	-0.221479	0.952101	0.179571	-0.966195	-0.184992	0.960886	0.131967	0.243479
11640	9.357322	-1.707973	2.162592	-0.022953	0.036114	0.024519	-0.211074	-0.221796	0.951974	0.179450	-0.966156	-0.185313	0.960857	0.131717	0.243732
11641	9.345760	-1.665099	2.222458	-0.021637	0.041564	0.017002	-0.211355	-0.222034	0.951856	0.179318	-0.966135	-0.185548	0.960820	0.131468	0.244012
11642	9.332692	-1.602904	2.267659	-0.026615	0.051850	0.014387	-0.211763	-0.222274	0.951709	0.179140	-0.966123	-0.185781	0.960763	0.131147	0.244407
11643	9.349272	-1.548451	2.261900	-0.034132	0.050184	0.007552	-0.212143	-0.222431	0.951588	0.178867	-0.966140	-0.185956	0.960730	0.130759	0.244746
11644	9.304528	-1.590453	2.259147	-0.043639	0.058292	0.005948	-0.212628	-0.222597	0.951441	0.178508	-0.966169	-0.186150	0.960689	0.130259	0.245170
11645	9.286520	-1.666884	2.289417	-0.049298	0.063931	0.000013	-0.213154	-0.222698	0.951300	0.178074	-0.966222	-0.186291	0.960653	0.129693	0.245611
11646	9.238630	-1.735106	2.371271	-0.050584	0.068948	-0.001844	-0.213756	-0.222803	0.951140	0.177632	-0.966277	-0.186428	0.960602	0.129103	0.246124
11647	9.260092	-1.756171	2.428707	-0.055105	0.079692	0.006534	-0.214421	-0.222986	0.950947	0.177156	-0.966322	-0.186645	0.960541	0.128446	0.246704
11648	9.253245	-1.723684	2.438788	-0.055756	0.082029	-0.003037	-0.215151	-0.223095	0.950757	0.176662	-0.966386	-0.186785	0.960469	0.127776	0.247331
11649	9.258633	-1.623275	2.492393	-0.065775	0.084834	-0.009885	-0.215895	-0.223125	0.950581	0.176049	-0.966481	-0.186873	0.960415	0.127004	0.247939
11650	9.295432	-1.591116	2.575653	-0.090864	0.099328	-0.023666	-0.216826	-0.223055	0.950386	0.175172	-0.966634	-0.186904	0.960365	0.125956	0.248665
11651	9.234525	-1.725865	2.616019	-0.114591	0.103260	-0.031817	-0.217787	-0.222894	0.950204	0.174043	-0.966838	-0.186905	0.960353	0.124671	0.249357
11652	9.192783	-1.912915	2.511466	-0.135295	0.101095	-0.028378	-0.218743	-0.222778	0.950011	0.172729	-0.967054	-0.187004	0.960373	0.123189	0.250016
11653	9.209186	-2.030812	2.487681	-0.144256	0.094695	-0.025694	-0.219610	-0.222663	0.949838	0.171328	-0.967277	-0.187139	0.960426	0.121637	0.250572
11654	9.268965	-2.066190	2.406401	-0.143000	0.091821	-0.024292	-0.220469	-0.222573	0.949660	0.169949	-0.967490	-0.187297	0.960474	0.120101	0.251128
11655	9.304338	-1.931293	2.344097	-0.147212	0.093952	-0.030741	-0.221337	-0.222406	0.949497	0.168508	-0.967723	-0.187394	0.960528	0.118520	0.251671
11656	9.324269	-1.932678	2.386821	-0.141769	0.103696	-0.033224	-0.222325	-0.222241	0.949305	0.167120	-0.967950	-0.187466	0.960543	0.116970	0.252341
11657	9.268104	-1.886208	2.378150	-0.147044	0.104611	-0.039750	-0.223310	-0.221996	0.949131	0.165660	-0.968198	-0.187480	0.960567	0.115367	0.252984
11658	9.311104	-1.821582	2.343647	-0.148009	0.094068	-0.050266	-0.224233	-0.221652	0.948994	0.164173	-0.968466	-0.187408	0.960607	0.113777	0.253551
11659	9.346863	-1.726473	2.346927	-0.153037	0.092249	-0.058143	-0.225128	-0.221212	0.948885	0.162613	-0.968757	-0.187263	0.960663	0.112143	0.254066
11660	9.395282	-1.694288	2.308158	-0.158395	0.091756	-0.062133	-0.226046	-0.220746	0.948775	0.160999	-0.969056	-0.187107	0.960720	0.110457	0.254592
11661	9.418484	-1.646011	2.252112	-0.170902	0.092101	-0.062604	-0.226945	-0.220259	0.948674	0.159256	-0.969371	-0.186967	0.960798	0.108651	0.255072
11662	9.378247	-1.699451	2.229760	-0.184507	0.087692	-0.060084	-0.227819	-0.219806	0.948569	0.157395	-0.969689	-0.186898	0.960898	0.106721	0.255510
11663	9.392610	-1.799738	2.222123	-0.185625	0.085105	-0.057482	-0.228640	-0.219357	0.948476	0.155520	-0.970001	-0.186846	0.961008	0.104787	0.255896
11664	9.406001	-1.880784	2.198687	-0.179381	0.075413	-0.056722	-0.229389	-0.218920	0.948396	0.153715	-0.970298	-0.186797	0.961120	0.102933	0.256227
11665	9.414201	-1.971420	2.242480	-0.164579	0.066416	-0.048489	-0.230015	-0.218537	0.948333	0.152062	-0.970562	-0.186777	0.961234	0.101244	0.256475
11666	9.454814	-2.044418	2.185745	-0.148158	0.060234	-0.049069	-0.230605	-0.218156	0.948277	0.150573	-0.970805	-0.186722	0.961327	0.099726	0.256721
11667	9.446397	-2.014392	2.227264	-0.122964	0.062741	-0.035419	-0.231173	-0.217894	0.948199	0.149349	-0.970994	-0.186721	0.961381	0.098448	0.257010
11668	9.411245	-1.949468	2.237261	-0.099220	0.060176	-0.029789	-0.231733	-0.217699	0.948107	0.148374	-0.971143	-0.186723	0.961397	0.097405	0.257347
11669	9.307841	-1.908910	2.221083	-0.086628	0.063475	-0.032156	-0.232302	-0.217468	0.948021	0.147507	-0.971288	-0.186661	0.961394	0.096478	0.257710
11670	9.336656	-1.804894	2.277625	-0.086940	0.059133	-0.024634	-0.232843	-0.217321	0.947922	0.146662	-0.971412	-0.186681	0.961392	0.095557	0.258060
11671	9.268172	-1.785161	2.190990	-0.080697	0.052918	-0.027128	-0.233303	-0.217128	0.947853	0.145863	-0.971538	-0.186652	0.961402	0.094710	0.258333
11672	9.244810	-1.806937	2.206224	-0.080828	0.042845	-0.033331	-0.233700	-0.216881	0.947812	0.145056	-0.971673	-0.186574	0.961428	0.093884	0.258540
11673	9.284055	-1.813754	2.315712	-0.076863	0.038354	-0.037152	-0.234033	-0.216576	0.947799	0.144270	-0.971816	-0.186440	0.961465	0.093106	0.258682
11674	9.236897	-1.838307	2.327762	-0.061230	0.040335	-0.033693	-0.234406	-0.216321	0.947765	0.143650	-0.971933	-0.186309	0.961467	0.092475	0.258902
11675	9.201519	-1.816010	2.400636	-0.042673	0.040132	-0.037246	-0.234755	-0.216017	0.947748	0.143193	-0.972043	-0.186086	0.961450	0.092026	0.259125
11676	9.179545	-1.722136	2.485645	-0.031166	0.042188	-0.039759	-0.235155	-0.215705	0.947720	0.142848	-0.972145	-0.185820	0.961403	0.091684	0.259418
11677	9.190916	-1.672531	2.549573	-0.025136	0.042265	-0.043919	-0.235534	-0.215338	0.947710	0.142543	-0.972253	-0.185488	0.961356	0.091401	0.259694
11678	9.191832	-1.688312	2.567717	-0.023515	0.041600	-0.049610	-0.235942	-0.214929	0.947701	0.142249	-0.972368	-0.185109	0.961300	0.091134	0.259996
11679	9.171733	-1.702199	2.549108	-0.018960	0.038153	-0.046981	-0.236286	-0.214527	0.947706	0.141995	-0.972477	-0.184732	0.961253	0.090920	0.260244
11680	9.242479	-1.668560	2.545200	-0.022155	0.034450	-0.047309	-0.236621	-0.214134	0.947711	0.141718	-0.972586	-0.184371	0.961211	0.090682	0.260481
11681	9.252037	-1.712895	2.523672	-0.016137	0.025299	-0.044903	-0.236838	-0.213741	0.947746	0.141497	-0.972687	-0.184006	0.961190	0.090524	0.260613
11682	9.304335	-1.716925	2.511556	-0.016732	0.023643	-0.036057	-0.237054	-0.213447	0.947758	0.141299	-0.972767	-0.183737	0.961166	0.090362	0.260758
11683	9.299008	-1.680265	2.517859	-0.017652	0.018206	-0.035094	-0.237189	-0.213142	0.947793	0.141086	-0.972848	-0.183469	0.961164	0.090203	0.260820
11684	9.318954	-1.659823	2.541132	-0.023493	0.017494	-0.032855	-0.237341	-0.212874	0.947815	0.140830	-0.972927	-0.183249	0.961164	0.089989	0.260895
11685	9.291986	-1.666451	2.573769	-0.020824	0.017443	-0.023134	-0.237452	-0.212684	0.947830	0.140615	-0.972986	-0.183101	0.961168	0.089801	0.260944
11686	9.334496	-1.624006	2.585077	-0.024234	0.020037	-0.025079	-0.237618	-0.212494	0.947831	0.140371	-0.973048	-0.182957	0.961163	0.089574	0.261041
11687	9.297710	-1.583076	2.641882	-0.034552	0.020675	-0.024910	-0.237763	-0.212289	0.947841	0.140019	-0.973123	-0.182828	0.961178	0.089246	0.261097
11688	9.312384	-1.485862	2.606722	-0.041301	0.023761	-0.028265	-0.237968	-0.212071	0.947838	0.139603	-0.973207	-0.182698	0.961188	0.088845	0.261198
11689	9.303372	-1.569981	2.576614	-0.058451	0.020339	-0.025443	-0.238110	-0.211860	0.947850	0.139021	-0.973304	-0.182626	0.961237	0.088286	0.261207
11690	9.250745	-1.675866	2.521028	-0.067221	0.013176	-0.024955	-0.238209	-0.211665	0.947868	0.138364	-0.973404	-0.182595	0.961307	0.087655	0.261160
11691	9.326819	-1.792823	2.439352	-0.065056	0.009986	-0.021165	-0.238246	-0.211486	0.947899	0.137728	-0.973496	-0.182581	0.961389	0.087054	0.261059
11692	9.366153	-1.870965	2.412833	-0.050865	0.006321	-0.010436	-0.238258	-0.211426	0.947909	0.137263	-0.973550	-0.182644	0.961453	0.086596	0.260978
11693	9.348801	-1.928259	2.419940	-0.025632	0.008091	0.001109	-0.238246	-0.211463	0.947904	0.137060	-0.973561	-0.182738	0.961485	0.086383	0.260930
11694	9.341290	-1.919822	2.473894	0.002668	0.009182	0.003180	-0.238268	-0.211538	0.947882	0.137142	-0.973540	-0.182791	0.961468	0.086441	0.260974
11695	9.305949	-1.855899	2.482021	0.027443	0.011395	0.005782	-0.238280	-0.211625	0.947859	0.137461	-0.973494	-0.182792	0.961419	0.086738	0.261054
11696	9.251010	-1.695625	2.539052	0.038679	0.016210	0.004680	-0.238367	-0.211721	0.947816	0.137893	-0.973438	-0.182765	0.961336	0.087132	0.261230
11697	9.283982	-1.561384	2.512054	0.036476	0.012919	-0.008370	-0.238414	-0.211669	0.947816	0.138263	-0.973416	-0.182608	0.961271	0.087511	0.261342
11698	9.301020	-1.503065	2.506663	0.020359	0.016405	-0.008971	-0.238521	-0.211633	0.947797	0.138485	-0.973404	-0.182499	0.961212	0.087726	0.261486
11699	9.239925	-1.466226	2.561112	-0.001225	0.017902	-0.011230	-0.238620	-0.211559	0.947789	0.138489	-0.973420	-0.182413	0.961187	0.087731	0.261576
11700	9.216268	-1.424333	2.496615	-0.027779	0.017621	-0.021493	-0.238757	-0.211401	0.947789	0.138220	-0.973477	-0.182312	0.961192	0.087475	0.261644
11701	9.197660	-1.460360	2.490340	-0.054780	0.020709	-0.028394	-0.238907	-0.211161	0.947805	0.137666	-0.973576	-0.182202	0.961234	0.086951	0.261664
11702	9.240743	-1.595809	2.508670	-0.072303	0.015623	-0.033979	-0.239042	-0.210880	0.947834	0.136938	-0.973698	-0.182099	0.961305	0.086265	0.261632
11703	9.287047	-1.726240	2.492308	-0.070446	0.011585	-0.025784	-0.239102	-0.210655	0.947869	0.136238	-0.973805	-0.182053	0.961389	0.085606	0.261538
11704	9.277366	-1.791314	2.445777	-0.054632	0.007266	-0.020764	-0.239137	-0.210495	0.947895	0.135711	-0.973883	-0.182029	0.961455	0.085110	0.261458
11705	9.307183	-1.820645	2.443284	-0.037186	0.002296	-0.021458	-0.239103	-0.210305	0.947946	0.135343	-0.973951	-0.181937	0.961516	0.084796	0.261338
11706	9.344349	-1.858997	2.387295	-0.015395	-0.002612	-0.005357	-0.239022	-0.210287	0.947970	0.135231	-0.973963	-0.181956	0.961551	0.084703	0.261236
11707	9.300185	-1.816498	2.283616	-0.000587	-0.019555	0.006539	-0.238737	-0.210351	0.948028	0.135278	-0.973942	-0.182034	0.961615	0.084789	0.260972
11708	9.351616	-1.804923	2.252732	0.032273	-0.036871	0.021205	-0.238291	-0.210562	0.948093	0.135688	-0.973858	-0.182181	0.961668	0.085233	0.260633
11709	9.309657	-1.733695	2.310016	0.067118	-0.047491	0.035083	-0.237699	-0.210881	0.948171	0.136457	-0.973718	-0.182354	0.961706	0.086039	0.260228
11710	9.327503	-1.564944	2.370115	0.090868	-0.052174	0.041122	-0.237078	-0.211272	0.948239	0.137477	-0.973540	-0.182538	0.961714	0.087085	0.259850
11711	9.287237	-1.399667	2.512052	0.096159	-0.049533	0.044770	-0.236450	-0.211683	0.948305	0.138549	-0.973352	-0.182729	0.961715	0.088181	0.259478
11712	9.262661	-1.201853	2.695663	0.093981	-0.040628	0.037534	-0.235944	-0.212048	0.948349	0.139590	-0.973177	-0.182871	0.961689	0.089233	0.259215
11713	9.107480	-1.131168	2.884030	0.069428	-0.022037	0.032249	-0.235599	-0.212359	0.948365	0.140374	-0.973038	-0.183011	0.961659	0.090009	0.259056
11714	8.989832	-1.233095	2.961801	0.047187	-0.028711	0.029555	-0.235218	-0.212656	0.948393	0.140946	-0.972920	-0.183199	0.961669	0.090580	0.258822
11715	8.999483	-1.326374	2.999315	0.034936	-0.021938	0.021016	-0.234890	-0.212857	0.948430	0.141374	-0.972834	-0.183321	0.961686	0.091023	0.258602
11716	9.023472	-1.367442	3.063808	0.033336	-0.020639	0.011432	-0.234613	-0.212985	0.948469	0.141770	-0.972767	-0.183373	0.961696	0.091443	0.258418
11717	9.028676	-1.267749	3.113036	0.019975	-0.018682	0.005771	-0.234341	-0.213038	0.948525	0.142017	-0.972728	-0.183388	0.961725	0.091731	0.258205
11718	9.051336	-1.289324	3.163187	-0.001443	-0.009210	0.010316	-0.234175	-0.213166	0.948537	0.142075	-0.972695	-0.183519	0.961757	0.091788	0.258066
11719	9.013843	-1.409545	3.211061	-0.017978	-0.008028	0.016594	-0.233991	-0.213333	0.948545	0.141984	-0.972668	-0.183733	0.961815	0.091686	0.257885
11720	9.018932	-1.490219	3.268242	-0.025262	-0.017955	0.029149	-0.233714	-0.213636	0.948545	0.141857	-0.972616	-0.184105	0.961901	0.091530	0.257620
11721	9.019836	-1.557940	3.344081	-0.025016	-0.021316	0.043055	-0.233369	-0.214048	0.948537	0.141760	-0.972539	-0.184587	0.961999	0.091388	0.257304
11722	9.014869	-1.485341	3.283005	-0.021425	-0.025167	0.058386	-0.232982	-0.214629	0.948501	0.141739	-0.972421	-0.185226	0.962097	0.091285	0.256977
11723	9.056110	-1.323500	3.133859	-0.040263	-0.034410	0.057660	-0.232491	-0.215170	0.948499	0.141529	-0.972325	-0.185885	0.962246	0.091023	0.256510
11724	9.142752	-1.160594	3.023259	-0.072092	-0.034328	0.056167	-0.232018	-0.215721	0.948489	0.141014	-0.972257	-0.186632	0.962436	0.090448	0.256001
11725	9.165266	-1.081756	2.928936	-0.121833	-0.038018	0.053029	-0.231504	-0.216214	0.948503	0.140009	-0.972244	-0.187454	0.962706	0.089402	0.255350
11726	9.187210	-1.226008	2.904191	-0.172661	-0.046464	0.052878	-0.230920	-0.216723	0.948529	0.138517	-0.972270	-0.188426	0.963062	0.087876	0.254536
11727	9.228076	-1.467636	2.828651	-0.208640	-0.062551	0.058238	-0.230163	-0.217245	0.948593	0.136686	-0.972318	-0.189513	0.963505	0.086040	0.253486
11728	9.270076	-1.730325	2.764730	-0.221469	-0.079387	0.074926	-0.229234	-0.217942	0.948659	0.134771	-0.972330	-0.190814	0.963996	0.084111	0.252263
11729	9.309666	-1.910499	2.606530	-0.212036	-0.089644	0.094256	-0.228173	-0.218792	0.948719	0.132984	-0.972295	-0.192246	0.964496	0.082299	0.250947
11730	9.261843	-1.932377	2.589208	-0.188811	-0.091083	0.121042	-0.227071	-0.219931	0.948720	0.131486	-0.972170	-0.193897	0.964961	0.080715	0.249670
11731	9.229478	-1.814399	2.473558	-0.163176	-0.103493	0.138317	-0.225819	-0.221205	0.948722	0.130273	-0.971988	-0.195622	0.965419	0.079418	0.248311
11732	9.268535	-1.666967	2.350116	-0.160766	-0.127150	0.138630	-0.224349	-0.222489	0.948771	0.129081	-0.971795	-0.197365	0.965922	0.078190	0.246740
11733	9.379166	-1.490154	2.218527	-0.169515	-0.137702	0.142475	-0.222764	-0.223776	0.948842	0.127804	-0.971602	-0.199138	0.966459	0.076905	0.245037
11734	9.375844	-1.383134	2.083073	-0.187443	-0.142697	0.143769	-0.221139	-0.225100	0.948908	0.126359	-0.971409	-0.200991	0.967022	0.075456	0.243260
11735	9.319450	-1.355196	1.840492	-0.217583	-0.171980	0.142055	-0.219225	-0.226362	0.949053	0.124613	-0.971244	-0.202870	0.967684	0.073790	0.241128
11736	8.876459	-1.370000	1.310638	-0.268092	-0.227074	0.108770	-0.216830	-0.227290	0.949381	0.122302	-0.971180	-0.204576	0.968518	0.071753	0.238379
11737	10.086056	-1.098293	1.458785	-0.350424	-0.272564	0.103018	-0.213990	-0.228107	0.949829	0.119173	-0.971186	-0.206387	0.969539	0.069029	0.235008
11738	10.030721	-1.335972	1.030080	-0.436346	-0.278899	0.074203	-0.211135	-0.228677	0.950331	0.115145	-0.971298	-0.208140	0.970651	0.065480	0.231406
11739	9.923432	-1.642160	0.968016	-0.494504	-0.293482	0.079644	-0.208118	-0.229270	0.950853	0.110552	-0.971424	-0.210033	0.971836	0.061407	0.227517
11740	9.853025	-2.021816	1.135829	-0.500772	-0.326574	0.086795	-0.204787	-0.229957	0.951411	0.105909	-0.971510	-0.212018	0.973060	0.057344	0.223307
11741	9.846606	-2.327723	1.315953	-0.456891	-0.369967	0.096832	-0.201004	-0.230697	0.952038	0.101698	-0.971536	-0.213950	0.974297	0.053816	0.218744
11742	9.651215	-2.406614	1.368783	-0.406799	-0.363559	0.094892	-0.197303	-0.231467	0.952625	0.097969	-0.971518	-0.215767	0.975435	0.050756	0.214360
11743	9.703854	-2.229760	1.648924	-0.356794	-0.360902	0.095570	-0.193606	-0.232223	0.953199	0.094714	-0.971468	-0.217436	0.976497	0.048184	0.210077
11744	9.497503	-1.989861	1.702593	-0.331592	-0.336033	0.095189	-0.190173	-0.233028	0.953694	0.091704	-0.971391	-0.219066	0.977458	0.045797	0.206102
11745	9.314585	-1.753081	1.796789	-0.322577	-0.327355	0.073514	-0.186822	-0.233603	0.954216	0.088729	-0.971359	-0.220428	0.978379	0.043485	0.202199
11746	9.111697	-1.558242	1.919413	-0.352729	-0.319067	0.045265	-0.183598	-0.233947	0.954757	0.085407	-0.971391	-0.221599	0.979284	0.040858	0.198326
11747	8.979305	-1.742909	2.035248	-0.395386	-0.311648	0.019743	-0.180446	-0.234021	0.955339	0.081608	-0.971496	-0.222565	0.980194	0.037803	0.194400
11748	8.759399	-2.232034	1.777399	-0.443869	-0.316574	0.010566	-0.177271	-0.234049	0.955927	0.077321	-0.971620	-0.223552	0.981120	0.034284	0.190337
11749	8.595685	-2.808084	1.549680	-0.446064	-0.342786	-0.002034	-0.173826	-0.233923	0.956590	0.072978	-0.971767	-0.224373	0.982069	0.030808	0.185990
11750	8.600451	-3.150785	1.339994	-0.390863	-0.376497	-0.007457	-0.170071	-0.233780	0.957300	0.069172	-0.971888	-0.225054	0.983001	0.027943	0.181461
11751	8.622808	-3.287992	1.264893	-0.292590	-0.397456	-0.011169	-0.166087	-0.233573	0.958049	0.066314	-0.971989	-0.225475	0.983879	0.026083	0.176924
11752	8.603945	-3.439585	1.541644	-0.165176	-0.402564	-0.007846	-0.162069	-0.233433	0.958771	0.064722	-0.972039	-0.225723	0.984655	0.025471	0.172646
11753	8.400534	-3.695720	1.863675	-0.024120	-0.421725	0.006715	-0.157828	-0.233402	0.959486	0.064533	-0.972025	-0.225837	0.985356	0.026275	0.168475
11754	8.366028	-3.889838	2.172081	0.130269	-0.460882	0.023390	-0.153209	-0.233542	0.960201	0.065900	-0.971924	-0.225879	0.985994	0.028670	0.164297
11755	8.570362	-3.796919	2.537372	0.305017	-0.487062	0.054089	-0.148286	-0.233937	0.960877	0.069028	-0.971698	-0.225918	0.986532	0.032826	0.160238
11756	8.884888	-3.362669	2.967067	0.456001	-0.481089	0.083118	-0.143419	-0.234612	0.961451	0.073694	-0.971329	-0.226029	0.986915	0.038436	0.156596
11757	9.169548	-2.604638	3.309198	0.528205	-0.434412	0.091439	-0.138982	-0.235342	0.961924	0.079076	-0.970887	-0.226109	0.987133	0.044640	0.153546
11758	9.206519	-1.794549	3.622303	0.505022	-0.373970	0.067106	-0.135174	-0.235854	0.962341	0.084199	-0.970477	-0.226021	0.987238	0.050476	0.151042
11759	9.429235	-1.285192	3.794166	0.388544	-0.311598	0.023871	-0.132003	-0.235943	0.962760	0.088107	-0.970207	-0.225688	0.987326	0.055035	0.148859
11760	9.341043	-1.038316	3.699482	0.201669	-0.239202	-0.033528	-0.129609	-0.235521	0.963188	0.090100	-0.970160	-0.225102	0.987463	0.057608	0.146962
11761	9.508940	-1.118367	3.519535	-0.009064	-0.171978	-0.084559	-0.127920	-0.234621	0.963634	0.089945	-0.970356	-0.224318	0.987698	0.057979	0.145231
11762	9.188973	-1.405726	2.791821	-0.204739	-0.124915	-0.110763	-0.126722	-0.233512	0.964061	0.087826	-0.970721	-0.223581	0.988043	0.056337	0.143520
11763	9.066591	-1.913519	1.872116	-0.391600	-0.116061	-0.130229	-0.125625	-0.232202	0.964521	0.083836	-0.971230	-0.222898	0.988529	0.052860	0.141478
11764	9.238452	-2.838587	0.917365	-0.534472	-0.148201	-0.140017	-0.124211	-0.230805	0.965039	0.078421	-0.971812	-0.222331	0.989152	0.048063	0.138810
11765	9.609907	-3.798209	0.163156	-0.570501	-0.201188	-0.133521	-0.122260	-0.229435	0.965615	0.072656	-0.972372	-0.221841	0.989835	0.043036	0.135552
11766	9.942815	-4.224862	-0.502169	-0.507317	-0.255033	-0.134070	-0.119767	-0.228065	0.966252	0.067515	-0.972875	-0.221260	0.990504	0.038737	0.131916
11767	10.197779	-4.021878	-0.900086	-0.387293	-0.297305	-0.149350	-0.116854	-0.226526	0.966970	0.063544	-0.973351	-0.220342	0.991114	0.035698	0.128134
11768	10.135522	-3.469814	-0.671194	-0.246658	-0.314681	-0.152937	-0.113768	-0.224967	0.967702	0.060967	-0.973771	-0.219210	0.991635	0.034059	0.124500
11769	9.976784	-3.138415	-0.398328	-0.117952	-0.342932	-0.149304	-0.110385	-0.223425	0.968451	0.059671	-0.974137	-0.217936	0.992096	0.033731	0.120862
11770	9.876156	-2.873738	-0.052477	-0.032169	-0.386483	-0.139317	-0.106571	-0.221975	0.969211	0.059245	-0.974448	-0.216660	0.992538	0.034331	0.116999
11771	9.635401	-2.860862	0.147749	0.014881	-0.419107	-0.130098	-0.102412	-0.220592	0.969975	0.059295	-0.974722	-0.215411	0.992973	0.035454	0.112903
11772	9.592498	-2.642410	0.407512	0.042420	-0.458509	-0.132882	-0.097876	-0.219170	0.970765	0.059627	-0.974988	-0.214111	0.993411	0.036928	0.108496
11773	9.420053	-2.347023	0.725022	0.081250	-0.496437	-0.141192	-0.092949	-0.217637	0.971594	0.060338	-0.975256	-0.212685	0.993841	0.038855	0.103781
11774	9.605693	-2.054039	1.521845	0.098685	-0.481875	-0.149534	-0.088189	-0.216025	0.972397	0.061227	-0.975530	-0.211169	0.994220	0.040914	0.099258
11775	9.322948	-2.090992	2.266008	0.095468	-0.445791	-0.152230	-0.083772	-0.214386	0.973150	0.062083	-0.975808	-0.209627	0.994549	0.042855	0.095055
11776	8.940817	-2.299149	2.856715	0.057215	-0.408941	-0.139461	-0.079730	-0.212885	0.973819	0.062581	-0.976071	-0.208254	0.994850	0.044339	0.091145
11777	8.825438	-2.314435	3.232936	-0.008628	-0.379226	-0.149059	-0.075976	-0.211294	0.974465	0.062419	-0.976381	-0.206843	0.995154	0.045110	0.087370
11778	8.720339	-2.224757	3.546942	-0.093400	-0.352735	-0.169031	-0.072509	-0.209523	0.975112	0.061406	-0.976768	-0.205313	0.995476	0.044991	0.083690
11779	8.671097	-2.158852	3.906444	-0.198996	-0.318814	-0.212866	-0.069397	-0.207337	0.975805	0.059315	-0.977290	-0.203434	0.995824	0.043762	0.080119
11780	8.901999	-2.305800	4.318819	-0.307233	-0.279975	-0.254024	-0.066694	-0.204773	0.976535	0.056125	-0.977934	-0.201234	0.996194	0.041387	0.076715
11781	8.854341	-2.889505	4.806980	-0.396071	-0.215278	-0.275554	-0.064641	-0.202029	0.977244	0.052042	-0.978642	-0.198876	0.996551	0.038002	0.073775
11782	8.733875	-3.552281	5.050285	-0.449768	-0.154028	-0.257782	-0.063174	-0.199489	0.977861	0.047437	-0.979311	-0.196721	0.996875	0.033959	0.071330
11783	8.579596	-3.220102	4.567814	-0.453480	-0.129543	-0.232575	-0.061943	-0.197212	0.978402	0.042818	-0.979907	-0.194804	0.997161	0.029826	0.069142
11784	8.646317	-1.781906	4.000448	-0.507278	-0.126607	-0.280430	-0.060732	-0.194468	0.979027	0.037629	-0.980586	-0.192444	0.997445	0.025152	0.066871
11785	9.065710	-0.754084	3.446185	-0.671826	-0.098130	-0.387475	-0.059852	-0.190691	0.979824	0.030744	-0.981470	-0.189133	0.997734	0.018804	0.064606
11786	9.534183	-0.944151	3.120090	-0.906313	-0.017792	-0.517447	-0.059750	-0.185647	0.980798	0.021433	-0.982566	-0.184676	0.997983	0.009987	0.062687
11787	9.861301	-2.992243	3.194251	-1.081631	0.099322	-0.589442	-0.060809	-0.179901	0.981803	0.010335	-0.983684	-0.179606	0.998096	-0.000774	0.061676
11788	10.159757	-4.799147	2.495711	-1.073850	0.171180	-0.524317	-0.062484	-0.174773	0.982624	-0.000663	-0.984541	-0.175156	0.998046	-0.011596	0.061402
11789	10.668227	-4.678372	1.509406	-0.918577	0.233390	-0.416085	-0.064772	-0.170688	0.983194	-0.010041	-0.985101	-0.171681	0.997850	-0.020992	0.062093
11790	11.110488	-3.471392	1.397328	-0.740047	0.326103	-0.392417	-0.067913	-0.166784	0.983652	-0.017642	-0.985573	-0.168327	0.997535	-0.028785	0.063991
11791	11.610076	-3.188333	1.927319	-0.592856	0.465317	-0.432771	-0.072448	-0.162426	0.984057	-0.023803	-0.986088	-0.164514	0.997088	-0.035342	0.067574
11792	11.596061	-3.080776	1.721189	-0.440513	0.584476	-0.481260	-0.078091	-0.157502	0.984426	-0.028514	-0.986685	-0.160125	0.996538	-0.040574	0.072560
11793	11.309624	-2.212252	1.363898	-0.241748	0.631997	-0.566785	-0.084205	-0.151702	0.984833	-0.031326	-0.987452	-0.154784	0.995956	-0.043885	0.078396
11794	11.191454	-1.066625	1.200351	-0.124329	0.658666	-0.637206	-0.090500	-0.145156	0.985261	-0.033077	-0.988337	-0.148647	0.995347	-0.046042	0.084643
11795	11.075055	-0.335119	0.863181	-0.169655	0.662653	-0.677039	-0.096850	-0.138210	0.985656	-0.035344	-0.989209	-0.142181	0.994671	-0.048607	0.090920
11796	10.926294	-0.278989	0.629061	-0.278320	0.650502	-0.690069	-0.103005	-0.131098	0.986004	-0.038757	-0.989995	-0.135678	0.993925	-0.052190	0.096894
11797	10.733596	-0.683148	0.385146	-0.371150	0.635521	-0.658917	-0.109037	-0.124286	0.986237	-0.043088	-0.990629	-0.129603	0.993103	-0.056626	0.102660
11798	10.337572	-1.365747	0.125011	-0.381083	0.597952	-0.604812	-0.114642	-0.117986	0.986375	-0.047503	-0.991135	-0.124077	0.992270	-0.061080	0.108021
11799	10.105361	-2.093132	0.104093	-0.303243	0.539459	-0.519254	-0.119722	-0.112558	0.986406	-0.051064	-0.991539	-0.119342	0.991493	-0.064658	0.112962
11800	9.920237	-2.826711	0.347509	-0.181725	0.498620	-0.417279	-0.124390	-0.108138	0.986323	-0.053330	-0.991878	-0.115473	0.990799	-0.066964	0.117613
11801	9.423704	-3.639022	0.651491	-0.024970	0.449080	-0.318076	-0.128651	-0.104743	0.986143	-0.053926	-0.992196	-0.112421	0.990223	-0.067642	0.121998
11802	9.495691	-4.246276	1.074637	0.110791	0.415365	-0.172957	-0.132614	-0.102793	0.985823	-0.053010	-0.992449	-0.110615	0.989749	-0.066928	0.126164
11803	9.627118	-4.713142	1.388893	0.253694	0.397756	0.009382	-0.136537	-0.102695	0.985298	-0.050433	-0.992602	-0.110445	0.989350	-0.064771	0.130347
11804	9.717336	-4.841080	1.543462	0.431585	0.392557	0.217307	-0.140468	-0.104651	0.984539	-0.045817	-0.992646	-0.112049	0.989025	-0.060848	0.134640
11805	10.023200	-4.502221	1.846932	0.641494	0.414705	0.414987	-0.144727	-0.108610	0.983493	-0.038827	-0.992569	-0.115326	0.988710	-0.054877	0.139434
11806	9.974728	-3.754508	2.037406	0.882714	0.461527	0.567842	-0.149425	-0.114057	0.982173	-0.029220	-0.992381	-0.119688	0.988341	-0.046584	0.144954
11807	10.237811	-2.635305	2.287010	1.107416	0.519845	0.668209	-0.154699	-0.120559	0.980578	-0.017206	-0.992047	-0.124684	0.987812	-0.036161	0.151395
11808	10.013976	-1.418409	2.474434	1.254947	0.629570	0.688179	-0.160930	-0.127238	0.978730	-0.003683	-0.991571	-0.129513	0.986959	-0.024447	0.159105
11809	9.549260	-0.442823	2.783120	1.305198	0.700531	0.657369	-0.167801	-0.133713	0.976711	0.010329	-0.990943	-0.133886	0.985767	-0.012377	0.167662
11810	8.973327	0.149145	3.150948	1.271489	0.742783	0.605551	-0.174955	-0.139705	0.974614	0.023939	-0.990193	-0.137641	0.984285	-0.000750	0.176584
11811	8.478618	0.504083	3.142860	1.187681	0.688932	0.532583	-0.181555	-0.145091	0.972618	0.036628	-0.989367	-0.140752	0.982698	0.010071	0.184939
11812	8.447240	0.922753	2.854408	1.057063	0.616574	0.487469	-0.187343	-0.150044	0.970767	0.047954	-0.988484	-0.143528	0.981123	0.019663	0.192381
11813	8.830602	1.197944	2.514374	0.886023	0.577220	0.432801	-0.192762	-0.154532	0.969001	0.057523	-0.987603	-0.146056	0.979558	0.027586	0.199261
11814	9.128282	1.247663	1.996234	0.673226	0.559728	0.388462	-0.197942	-0.158578	0.967301	0.064919	-0.986781	-0.148487	0.978062	0.033404	0.205620
11815	9.285786	0.633015	1.771029	0.445274	0.558715	0.353945	-0.203152	-0.162333	0.965597	0.070041	-0.986044	-0.151035	0.976639	0.036949	0.211687
11816	9.820458	-0.700555	1.644357	0.303462	0.573658	0.355808	-0.208434	-0.166098	0.963829	0.073783	-0.985336	-0.153848	0.975249	0.039047	0.217633
11817	10.190663	-2.181302	1.354139	0.308676	0.607924	0.397038	-0.214045	-0.170315	0.961862	0.077691	-0.984532	-0.157040	0.973729	0.041114	0.223966
11818	10.192880	-3.377551	1.140251	0.497000	0.595004	0.417442	-0.219436	-0.174718	0.959855	0.083479	-0.983588	-0.159954	0.972049	0.045028	0.230420
11819	10.733401	-3.648306	1.267046	0.814534	0.620260	0.435630	-0.225058	-0.179366	0.957693	0.092417	-0.982408	-0.162276	0.969952	0.051986	0.237675
11820	10.696934	-3.271532	1.277767	1.167441	0.704332	0.401861	-0.231423	-0.183751	0.955342	0.104691	-0.981002	-0.163326	0.967204	0.062218	0.246263
11821	10.420463	-2.534850	1.360805	1.453328	0.797125	0.347491	-0.238706	-0.187771	0.952765	0.119599	-0.979343	-0.163045	0.963699	0.075030	0.256233
11822	10.273325	-1.825887	1.491061	1.626870	0.878568	0.311595	-0.246694	-0.191579	0.949968	0.136049	-0.977403	-0.161781	0.959496	0.089331	0.267184
11823	9.928837	-1.352352	1.550037	1.698977	0.972908	0.283669	-0.255568	-0.195355	0.946848	0.153081	-0.975194	-0.159884	0.954595	0.104083	0.279133
11824	9.713560	-1.087868	1.668585	1.710513	1.040896	0.260140	-0.264992	-0.199083	0.943475	0.170089	-0.972762	-0.157490	0.949130	0.118741	0.291637
11825	9.613829	-0.863102	1.719712	1.674425	1.109867	0.270529	-0.274978	-0.203169	0.939739	0.186721	-0.970093	-0.155094	0.943145	0.132822	0.304691
11826	9.372489	-0.682823	1.761347	1.606945	1.173109	0.265584	-0.285425	-0.207410	0.935689	0.202620	-0.967293	-0.152608	0.936738	0.146031	0.318115
11827	9.032118	-0.644088	1.787566	1.526591	1.217799	0.270905	-0.296185	-0.211936	0.931320	0.217714	-0.964383	-0.150221	0.929986	0.158268	0.331778
11828	8.857983	-0.559262	1.818925	1.435963	1.229662	0.266636	-0.306915	-0.216550	0.926773	0.231873	-0.961442	-0.147863	0.923059	0.169512	0.345293
11829	8.430063	-0.432669	1.820085	1.339859	1.237876	0.256143	-0.317647	-0.221223	0.922042	0.245051	-0.958522	-0.145555	0.915997	0.179712	0.358682
11830	8.110360	-0.428283	1.891545	1.248272	1.212321	0.236248	-0.328051	-0.225749	0.917289	0.257254	-0.955676	-0.143194	0.908957	0.189002	0.371586
11831	7.958133	-0.446031	1.896833	1.161383	1.172454	0.215442	-0.338058	-0.230118	0.912558	0.268544	-0.952920	-0.140813	0.901998	0.197459	0.383939
11832	7.960625	-0.507681	1.927186	1.096045	1.132426	0.203707	-0.347611	-0.234365	0.907876	0.279142	-0.950221	-0.138418	0.895124	0.205311	0.395729
11833	7.952016	-0.642096	1.953222	1.064752	1.102012	0.194848	-0.356837	-0.238562	0.903192	0.289378	-0.947513	-0.135939	0.888216	0.212856	0.407142
11834	7.951405	-0.644748	2.175201	1.069429	1.059859	0.208151	-0.365536	-0.242855	0.898557	0.299643	-0.944676	-0.133424	0.881248	0.220475	0.418083
11835	7.874939	-0.735974	2.235328	1.071334	1.007091	0.224792	-0.373641	-0.247273	0.894007	0.309932	-0.941700	-0.130932	0.874262	0.228160	0.428495
11836	7.799001	-0.763752	2.450785	1.069961	0.958171	0.228989	-0.381198	-0.251676	0.889577	0.320164	-0.938626	-0.128357	0.867285	0.235881	0.438380
11837	7.769272	-0.639672	2.668346	1.059606	0.901871	0.236421	-0.388166	-0.256089	0.885294	0.330281	-0.935464	-0.125787	0.860373	0.243570	0.447697
11838	7.864039	-0.328153	2.956581	1.020044	0.831395	0.238769	-0.394427	-0.260400	0.881260	0.340009	-0.932304	-0.123305	0.853710	0.251001	0.456264
11839	7.914284	-0.030586	3.312806	0.946140	0.754367	0.255660	-0.399907	-0.264732	0.877492	0.349125	-0.929202	-0.121222	0.847458	0.257877	0.464019
11840	7.900939	0.303803	3.583724	0.835712	0.679780	0.254359	-0.404686	-0.268889	0.874030	0.357258	-0.926322	-0.119562	0.841782	0.263869	0.470932
11841	7.951547	0.537029	3.959295	0.698633	0.576961	0.284634	-0.408445	-0.273087	0.870974	0.364332	-0.923666	-0.118754	0.836920	0.268820	0.476761
11842	7.842858	0.693980	4.211398	0.542761	0.496165	0.308715	-0.411389	-0.277301	0.868253	0.370180	-0.921325	-0.118855	0.832902	0.272514	0.481674
11843	7.669209	0.606720	4.566567	0.402087	0.424304	0.302694	-0.413733	-0.281272	0.865858	0.374825	-0.919356	-0.119548	0.829657	0.275084	0.485796
11844	7.507511	0.470651	4.815795	0.283707	0.352637	0.283669	-0.415522	-0.284873	0.863822	0.378402	-0.917747	-0.120635	0.827136	0.276745	0.489140
11845	7.574017	0.293957	5.188570	0.196991	0.252286	0.257192	-0.416576	-0.287952	0.862292	0.381153	-0.916441	-0.121898	0.825340	0.277886	0.491521
11846	7.782280	0.150666	5.414565	0.170184	0.168998	0.219226	-0.417067	-0.290452	0.861216	0.383521	-0.915309	-0.122966	0.823995	0.279009	0.493140
11847	7.854476	0.155174	5.669233	0.179028	0.139716	0.181411	-0.417469	-0.292520	0.860321	0.385806	-0.914257	-0.123648	0.822723	0.280298	0.494530
11848	7.939336	0.335722	6.126958	0.174281	0.142090	0.148963	-0.417996	-0.294303	0.859456	0.387912	-0.913306	-0.124082	0.821465	0.281527	0.495922
11849	7.720637	0.623412	6.241602	0.122903	0.200235	0.102008	-0.419196	-0.295814	0.858352	0.389402	-0.912635	-0.124348	0.820147	0.282118	0.497764
11850	7.449748	0.340603	6.495838	-0.051727	0.200292	0.110168	-0.420344	-0.297405	0.857240	0.389491	-0.912431	-0.125567	0.819517	0.281106	0.499372
11851	7.527152	-0.936424	7.318586	-0.222473	0.201072	0.188576	-0.421217	-0.299703	0.856011	0.388518	-0.912467	-0.128291	0.819531	0.278537	0.500786
11852	7.767521	-1.859634	7.549439	-0.288640	0.216628	0.295097	-0.421783	-0.303017	0.854564	0.387446	-0.912353	-0.132279	0.819747	0.275305	0.502218
11853	7.668591	-1.704356	7.203997	-0.295662	0.231498	0.367238	-0.422223	-0.307018	0.852917	0.386630	-0.912018	-0.136897	0.819906	0.271963	0.503777
11854	7.141377	-0.964375	6.872743	-0.343748	0.196374	0.354806	-0.422399	-0.310807	0.851457	0.385360	-0.911826	-0.141670	0.820413	0.268276	0.504927
11855	6.507523	0.200964	6.385090	-0.462511	0.120918	0.271583	-0.422317	-0.313625	0.850463	0.382769	-0.912184	-0.146313	0.821667	0.263741	0.505277
11856	5.893619	0.740144	5.763736	-0.647077	-0.004007	0.182536	-0.421524	-0.315304	0.850236	0.378265	-0.913274	-0.151147	0.824156	0.257903	0.504236
11857	5.300438	0.477392	4.981008	-0.828526	-0.193600	0.136359	-0.419387	-0.316077	0.851005	0.372056	-0.914928	-0.156465	0.828063	0.251003	0.501307
11858	5.287348	-0.315187	4.160956	-0.932050	-0.499463	0.122086	-0.414723	-0.315983	0.853323	0.364872	-0.916826	-0.162167	0.833591	0.244100	0.495522
11859	6.315060	-1.314987	3.713132	-0.932930	-0.811855	0.133695	-0.407422	-0.315271	0.857095	0.357677	-0.918631	-0.167884	0.840282	0.238164	0.487035
11860	7.270362	-2.343023	3.470477	-0.736524	-0.973609	0.168911	-0.398544	-0.314548	0.861523	0.352196	-0.919817	-0.172904	0.846830	0.234515	0.477370
11861	7.742385	-2.202209	3.286820	-0.430604	-1.074901	0.202753	-0.388675	-0.313915	0.866250	0.349398	-0.920165	-0.176683	0.852556	0.233994	0.467327
11862	7.798160	-1.262297	2.046092	-0.265340	-1.209858	0.229047	-0.377463	-0.313208	0.871448	0.348056	-0.920047	-0.179917	0.858125	0.235401	0.456298
11863	9.527396	-0.452508	1.176741	-0.357208	-1.393172	0.227862	-0.364644	-0.312037	0.877307	0.345887	-0.920155	-0.183512	0.864521	0.236532	0.443459
11864	12.898972	-2.363732	2.951430	-0.440335	-1.257597	0.183201	-0.353037	-0.310774	0.882488	0.342774	-0.920603	-0.187070	0.870558	0.236451	0.431533
11865	14.924550	-5.562341	6.979394	-0.150290	-0.767092	0.140931	-0.345830	-0.310268	0.885514	0.342015	-0.920501	-0.188955	0.873743	0.237513	0.424453
11866	13.404677	-5.162001	9.022383	0.470804	-0.297740	0.083604	-0.342876	-0.310346	0.886635	0.346464	-0.919088	-0.187723	0.873154	0.242822	0.422657
11867	11.130287	-0.354455	8.923148	0.848863	-0.202350	-0.027803	-0.341174	-0.309611	0.887548	0.353831	-0.917054	-0.183891	0.870864	0.251303	0.422425
11868	9.357349	2.388105	8.148458	0.641373	-0.265514	-0.010969	-0.338836	-0.308858	0.888705	0.359424	-0.915431	-0.181109	0.869485	0.258055	0.421192
11869	8.484748	2.221890	5.504991	0.161393	-0.582416	0.129189	-0.333277	-0.308542	0.890914	0.361324	-0.914590	-0.181576	0.870845	0.261393	0.416296
11870	9.847072	1.906948	2.049812	-0.414660	-0.978703	0.197040	-0.323955	-0.307814	0.894597	0.358399	-0.915042	-0.185063	0.875559	0.260671	0.406753
11871	11.944154	0.976883	-0.335918	-0.927142	-1.020710	0.206956	-0.314228	-0.307081	0.898311	0.350973	-0.916777	-0.190623	0.882088	0.255384	0.395854
11872	11.889685	0.263802	-1.330767	-1.209344	-0.847753	0.243194	-0.305813	-0.307208	0.901167	0.341067	-0.919045	-0.197561	0.888905	0.246941	0.385834
11873	10.641254	-0.101515	-0.768044	-1.346076	-0.725300	0.301239	-0.298297	-0.308221	0.903338	0.330024	-0.921357	-0.205389	0.895602	0.236856	0.376559
11874	9.573289	-1.461785	0.446621	-1.372241	-0.705140	0.306664	-0.290898	-0.309442	0.905331	0.318641	-0.923567	-0.213290	0.902134	0.226430	0.367264
11875	9.123474	-2.940439	0.786540	-1.249577	-0.714639	0.255228	-0.283588	-0.310206	0.907386	0.308119	-0.925534	-0.220113	0.908097	0.217162	0.358051
11876	8.963380	-3.871096	1.607541	-1.008794	-0.704003	0.227758	-0.276419	-0.310839	0.909380	0.299619	-0.926960	-0.225775	0.913138	0.210059	0.349362
11877	8.624888	-4.600753	2.553878	-0.703428	-0.661825	0.213920	-0.269681	-0.311440	0.911196	0.293819	-0.927743	-0.230136	0.917029	0.205664	0.341701
11878	8.147455	-4.601027	2.850233	-0.424331	-0.639951	0.214385	-0.263110	-0.312146	0.912874	0.290541	-0.927922	-0.233552	0.919978	0.203777	0.334836
11879	8.161803	-3.796919	2.832987	-0.221813	-0.623971	0.224612	-0.256661	-0.312957	0.914430	0.289134	-0.927658	-0.236330	0.922240	0.203736	0.328580
11880	8.388428	-2.386404	2.798354	-0.167638	-0.580028	0.228011	-0.250581	-0.313916	0.915787	0.288212	-0.927264	-0.238989	0.924199	0.204055	0.322829
11881	10.840992	1.507899	4.243717	-0.389415	-0.555289	0.276731	-0.244597	-0.315355	0.916910	0.285345	-0.927170	-0.242764	0.926688	0.202256	0.316768
11882	6.686730	1.005176	2.602034	-1.360458	0.106914	-0.102180	-0.245808	-0.314643	0.916830	0.272510	-0.930134	-0.246147	0.930224	0.189341	0.314378
11883	7.116825	-1.964140	0.879210	-1.270993	-0.515505	-0.177722	-0.241427	-0.312032	0.918885	0.260277	-0.933022	-0.248448	0.934863	0.179183	0.306471
11884	8.638925	-4.395573	0.616258	-1.113703	-0.668454	-0.115453	-0.235391	-0.309813	0.921199	0.249613	-0.935310	-0.250776	0.939300	0.170913	0.297497
11885	9.304024	-4.803552	0.007279	-0.898366	-0.739211	-0.084924	-0.228589	-0.307774	0.923592	0.241011	-0.937070	-0.252615	0.943218	0.164851	0.288381
11886	9.909229	-4.256928	-0.276075	-0.831147	-0.790968	-0.062546	-0.221196	-0.305934	0.926000	0.233062	-0.938590	-0.254422	0.946971	0.159539	0.278914
11887	9.962640	-3.605442	-0.350203	-0.815083	-0.815383	-0.055412	-0.213526	-0.304135	0.928390	0.225256	-0.940028	-0.256139	0.950614	0.154433	0.269229
11888	10.460984	-2.124821	0.240598	-0.874478	-0.830504	-0.074001	-0.205714	-0.302210	0.930780	0.216819	-0.941559	-0.257791	0.954291	0.148779	0.259217
11889	10.377564	-0.826161	0.973086	-1.165982	-0.719970	-0.150043	-0.199079	-0.299757	0.933013	0.205409	-0.943685	-0.259357	0.958214	0.140017	0.249440
11890	9.691744	-2.518423	1.335092	-1.320796	-0.747790	-0.217141	-0.192265	-0.296729	0.935407	0.192348	-0.946096	-0.260584	0.962308	0.129822	0.238976
11891	9.084891	-4.322934	0.968736	-1.470585	-0.739437	-0.286571	-0.185594	-0.293096	0.937896	0.177667	-0.948757	-0.261332	0.966431	0.118131	0.228157
11892	9.096014	-5.486450	1.019112	-1.348214	-0.819438	-0.329488	-0.178158	-0.289074	0.940583	0.164059	-0.951222	-0.261269	0.970229	0.107764	0.216893
11893	9.489376	-3.631656	1.510724	-0.923728	-0.980940	-0.176617	-0.168834	-0.286370	0.943126	0.154816	-0.952690	-0.261560	0.973410	0.101851	0.205181
11894	9.413140	-1.192228	2.221039	-1.268792	-0.781726	-0.217625	-0.161471	-0.283572	0.945259	0.142132	-0.954524	-0.262072	0.976589	0.092035	0.194432
11895	8.676793	-1.598748	2.579642	-1.588057	-0.606106	-0.353455	-0.155944	-0.279683	0.947343	0.126078	-0.956868	-0.261741	0.979687	0.078622	0.184479
11896	8.155950	-3.116446	2.871841	-1.696754	-0.607144	-0.458154	-0.150462	-0.274897	0.949628	0.108774	-0.959334	-0.260472	0.982614	0.064103	0.174245
11897	8.147316	-4.797595	2.800225	-1.570871	-0.630488	-0.509468	-0.144703	-0.269650	0.952024	0.092607	-0.961618	-0.258292	0.985132	0.050789	0.164120
11898	7.855881	-6.527293	2.349359	-1.221804	-0.661436	-0.503812	-0.138553	-0.264536	0.954371	0.079890	-0.963510	-0.255471	0.987128	0.040849	0.154631
11899	8.175044	-5.494801	2.406865	-0.751827	-0.691277	-0.438834	-0.131991	-0.260060	0.956529	0.071912	-0.964941	-0.252424	0.988639	0.035468	0.146065
11900	8.408841	-4.476581	2.615450	-0.467906	-0.699011	-0.376060	-0.125275	-0.256229	0.958464	0.066845	-0.966059	-0.249523	0.989868	0.032809	0.138151
11901	7.666780	-4.066277	2.677830	-0.290937	-0.630030	-0.357497	-0.119206	-0.252598	0.960200	0.063570	-0.967053	-0.246509	0.990832	0.031654	0.131336
11902	8.678931	-3.864382	3.290688	-0.123559	-0.764618	-0.357529	-0.111789	-0.248933	0.962048	0.061976	-0.967978	-0.243266	0.991797	0.032430	0.123637
11903	8.167441	-3.447996	1.965853	-0.066982	-0.585946	-0.329337	-0.106119	-0.245583	0.963549	0.060998	-0.968804	-0.240205	0.992481	0.033284	0.117789
11904	7.669317	-2.657905	1.512577	-0.003504	-0.712264	-0.344286	-0.099196	-0.242042	0.965182	0.060653	-0.969633	-0.236925	0.993218	0.035039	0.110864
11905	7.836542	-1.979629	0.936252	-0.052310	-0.795048	-0.395539	-0.091477	-0.237955	0.966959	0.059801	-0.970590	-0.233192	0.994010	0.036494	0.103017
11906	7.962559	-2.060222	0.800220	-0.154657	-0.853753	-0.465890	-0.083200	-0.233156	0.968874	0.057900	-0.971733	-0.228872	0.994849	0.037055	0.094348
11907	8.265455	-2.734145	0.957186	-0.297019	-0.881744	-0.495944	-0.074646	-0.228046	0.970785	0.054596	-0.972975	-0.224362	0.995714	0.036254	0.085080
11908	8.665640	-2.556528	0.920782	-0.468184	-0.893433	-0.527524	-0.065960	-0.222636	0.972668	0.049604	-0.974317	-0.219649	0.996589	0.033761	0.075310
11909	9.384937	-1.547737	1.677988	-0.705830	-0.894126	-0.570007	-0.057251	-0.216835	0.974528	0.042260	-0.975780	-0.214631	0.997465	0.028895	0.065028
11910	9.773503	-2.718612	2.694390	-1.005180	-0.791626	-0.595815	-0.049512	-0.210860	0.976262	0.031953	-0.977294	-0.209463	0.998262	0.020824	0.055125
11911	9.503927	-7.359021	2.394587	-0.688266	-0.800852	-0.607534	-0.041636	-0.204810	0.977916	0.024848	-0.978674	-0.203911	0.998824	0.015809	0.045837
11912	11.113286	-20.697123	-0.201894	0.862772	-1.204937	-0.444222	-0.029668	-0.200245	0.979297	0.033349	-0.979381	-0.199252	0.999003	0.026747	0.035735
11913	8.822083	-2.877788	-1.504424	2.460161	-1.574209	0.183881	-0.013811	-0.201476	0.979396	0.058004	-0.978001	-0.200371	0.998221	0.054041	0.025193
11914	12.968020	3.384650	-0.517625	2.116015	-1.388987	0.109319	0.000182	-0.201668	0.979454	0.079161	-0.976377	-0.201049	0.996862	0.077571	0.015786
11915	11.661051	5.251321	3.790997	1.175911	-0.769152	-0.188175	0.007742	-0.199242	0.979920	0.090927	-0.975749	-0.199113	0.995827	0.090643	0.010562
11916	10.579309	4.804706	5.767002	0.241676	-0.562038	-0.481105	0.012958	-0.194063	0.980904	0.093423	-0.976460	-0.194418	0.995542	0.094158	0.005477
11917	10.260887	2.124995	6.391742	-0.473693	-0.448705	-0.696793	0.016834	-0.186879	0.982239	0.088855	-0.978212	-0.187635	0.995902	0.090435	0.000138
11918	10.215674	-1.378980	7.541971	-0.848301	-0.271231	-0.734936	0.018976	-0.179483	0.983578	0.080574	-0.980281	-0.180436	0.996568	0.082675	-0.004140
11919	9.639456	-5.162261	8.729311	-0.912300	-0.102108	-0.635712	0.019534	-0.173203	0.984692	0.071651	-0.982106	-0.174169	0.997238	0.073956	-0.006775
11920	9.431647	-8.777401	9.287139	-0.676983	0.009262	-0.439592	0.019203	-0.168927	0.985442	0.065022	-0.983326	-0.169831	0.997699	0.067337	-0.007899
11921	9.822368	-10.120180	9.102461	-0.185902	0.102358	-0.162246	0.018081	-0.167452	0.985714	0.063253	-0.983709	-0.168271	0.997834	0.065392	-0.007194
11922	10.249795	-8.209046	8.561687	0.392600	0.290429	0.004297	0.015247	-0.167727	0.985716	0.067208	-0.983429	-0.168377	0.997622	0.068816	-0.003722
11923	10.727540	-5.094903	7.959710	0.718020	0.580517	-0.007235	0.009434	-0.168145	0.985717	0.074433	-0.982908	-0.168379	0.997181	0.074958	0.003242
11924	11.309851	-2.351656	6.741149	0.774604	0.911196	-0.086230	0.000345	-0.168046	0.985779	0.082199	-0.982438	-0.167505	0.996616	0.081088	0.013474
11925	12.040570	0.162609	4.461324	0.646317	1.250321	-0.221952	-0.012336	-0.166985	0.985882	0.088692	-0.982254	-0.165260	0.995983	0.085402	0.026927
11926	12.226773	1.887891	2.287531	0.366661	1.660590	-0.380971	-0.029152	-0.164704	0.985912	0.092305	-0.982560	-0.161415	0.995304	0.086299	0.043847
11927	12.158789	1.940210	1.257581	0.018541	1.869305	-0.494279	-0.048249	-0.161503	0.985692	0.092367	-0.983334	-0.156596	0.994555	0.083490	0.062363
11928	12.664642	0.776412	0.799524	-0.396091	2.029314	-0.442680	-0.068761	-0.158807	0.984912	0.088213	-0.984350	-0.152558	0.993726	0.076392	0.081694
11929	11.121547	-1.540306	-0.805156	-0.761603	2.003533	-0.276326	-0.088938	-0.157573	0.983494	0.080500	-0.985314	-0.150585	0.992779	0.065778	0.100316
11930	11.654971	-3.736948	-1.866386	-1.002043	1.746259	-0.037967	-0.106233	-0.158276	0.981663	0.070563	-0.985961	-0.151333	0.991834	0.053192	0.115910
11931	11.770859	-5.564761	-2.716492	-1.018164	1.543421	0.207610	-0.121433	-0.161115	0.979437	0.060775	-0.986094	-0.154675	0.990737	0.040743	0.129536
11932	12.135176	-6.691942	-2.951013	-0.794207	1.319937	0.458034	-0.134179	-0.166143	0.976930	0.053542	-0.985621	-0.160267	0.989510	0.030802	0.141146
11933	11.897766	-6.841841	-2.705317	-0.397171	1.109173	0.667398	-0.144823	-0.173105	0.974198	0.050615	-0.984585	-0.167426	0.988162	0.025062	0.151352
11934	11.719537	-6.245444	-2.388793	0.090650	0.900749	0.783454	-0.153252	-0.181076	0.971455	0.052723	-0.983166	-0.174942	0.986780	0.024408	0.160220
11935	11.565896	-5.015776	-2.329556	0.532113	0.809879	0.793678	-0.160804	-0.189174	0.968687	0.059285	-0.981539	-0.181842	0.985204	0.028188	0.169050
11936	10.185866	-3.142803	-2.655742	0.900684	0.785630	0.683030	-0.168037	-0.196163	0.966066	0.069320	-0.979926	-0.186920	0.983340	0.035558	0.178261
11937	9.658051	-1.102416	-1.895229	1.144347	0.642666	0.557458	-0.173927	-0.201973	0.963824	0.081582	-0.978332	-0.190291	0.981373	0.045534	0.186636
11938	10.213149	-0.854590	-0.439722	1.306619	0.635246	0.422624	-0.179719	-0.206469	0.961807	0.095184	-0.976788	-0.191899	0.979102	0.057061	0.195200
11939	9.744318	-1.440975	-0.652393	1.542222	0.593280	0.429018	-0.185066	-0.211121	0.959780	0.111111	-0.974884	-0.193019	0.976425	0.070921	0.203876
11940	10.460824	-1.474482	-0.638897	1.785545	0.542213	0.475648	-0.189717	-0.216218	0.957736	0.129456	-0.972443	-0.193894	0.973267	0.087200	0.212480
11941	10.534016	-1.259677	-0.756308	2.015327	0.735827	0.465677	-0.196193	-0.221529	0.955214	0.149990	-0.969462	-0.194026	0.969026	0.105206	0.223429
11942	10.767811	-0.445890	-0.485066	2.271413	0.869025	0.457041	-0.203789	-0.226987	0.952338	0.172902	-0.965805	-0.193198	0.963626	0.125289	0.236067
11943	10.702271	0.393956	-0.180447	2.455450	1.053382	0.465097	-0.213015	-0.232975	0.948866	0.197512	-0.961373	-0.191705	0.956877	0.146576	0.250802
11944	8.676662	0.502721	-0.054896	2.538775	1.206706	0.459554	-0.223484	-0.239312	0.944873	0.222756	-0.956276	-0.189513	0.948912	0.168123	0.267020
11945	8.528126	0.252326	0.317879	2.594829	1.130404	0.440620	-0.233089	-0.245602	0.940930	0.248332	-0.950534	-0.186591	0.940213	0.190171	0.282550
11946	8.452838	-0.091941	0.107055	2.665248	1.086475	0.454236	-0.241999	-0.252122	0.936948	0.274392	-0.944015	-0.183153	0.930669	0.212768	0.297631
11947	8.484024	-0.070568	-0.333824	2.744984	1.054996	0.451377	-0.250424	-0.258789	0.932907	0.300965	-0.936676	-0.179045	0.920167	0.235935	0.312452
11948	8.881608	0.320740	-0.666912	2.780149	1.041982	0.443942	-0.258490	-0.265534	0.928803	0.327568	-0.928608	-0.174315	0.908780	0.259187	0.327017
11949	7.555964	0.337285	-1.068900	2.735616	1.105769	0.345725	-0.267248	-0.271765	0.924512	0.353226	-0.920255	-0.168407	0.896554	0.281556	0.341931
11950	8.255622	0.748604	-0.831954	2.629784	1.129572	0.268018	-0.276257	-0.277542	0.920137	0.377414	-0.911814	-0.161719	0.883878	0.302597	0.356643
11951	7.873593	0.984236	-0.706656	2.444425	1.162563	0.201497	-0.285621	-0.283033	0.915594	0.399483	-0.903593	-0.154704	0.871111	0.321577	0.371152
11952	7.937603	1.395157	-0.414511	2.182781	1.197168	0.156310	-0.295268	-0.288406	0.910845	0.418864	-0.895924	-0.147899	0.858703	0.337850	0.385340
11953	7.896615	1.687310	-0.026785	1.848394	1.218845	0.111260	-0.305128	-0.293619	0.905916	0.435013	-0.889207	-0.141684	0.847148	0.350854	0.399050
11954	7.832941	1.814926	0.433108	1.470616	1.175016	0.066750	-0.314660	-0.298407	0.901078	0.447651	-0.883752	-0.136348	0.837017	0.360465	0.411664
11955	7.731721	1.925201	0.924481	1.079186	1.083356	0.032686	-0.323472	-0.302647	0.896533	0.456791	-0.879703	-0.132154	0.828679	0.366780	0.422805
11956	7.500411	1.883279	1.375196	0.704860	0.931930	0.004028	-0.331078	-0.306132	0.892564	0.462670	-0.877066	-0.129198	0.822389	0.370188	0.432015
11957	7.281303	1.822620	1.624519	0.363430	0.702092	0.008003	-0.336736	-0.308808	0.889520	0.465725	-0.875668	-0.127695	0.818358	0.371272	0.438689
11958	7.412515	1.523803	1.682357	0.026860	0.463273	0.013782	-0.340391	-0.310661	0.887481	0.466038	-0.875498	-0.127719	0.816665	0.370126	0.442792
11959	7.582069	1.053270	1.680211	-0.256641	0.268734	-0.000883	-0.342525	-0.311640	0.886316	0.463985	-0.876422	-0.128850	0.816942	0.367103	0.444793
11960	7.834857	0.724243	1.894114	-0.480469	0.111483	-0.021872	-0.343470	-0.311871	0.885869	0.460027	-0.878215	-0.130814	0.818781	0.362594	0.445110
11961	7.823906	0.368110	2.285352	-0.664396	-0.050653	-0.033053	-0.343139	-0.311389	0.886167	0.454509	-0.880686	-0.133470	0.821996	0.356972	0.443727
11962	8.018845	-0.212939	2.801175	-0.798180	-0.205548	-0.053688	-0.341620	-0.310205	0.887169	0.447794	-0.883649	-0.136544	0.826303	0.350623	0.440780
11963	8.374863	-0.963766	3.956306	-0.834357	-0.265015	-0.073637	-0.339683	-0.308621	0.888464	0.440675	-0.886754	-0.139546	0.830916	0.344122	0.437217
11964	8.682651	-2.467212	6.740770	-0.825950	-0.219264	-0.071684	-0.338102	-0.307255	0.889540	0.433599	-0.889763	-0.142527	0.835272	0.337515	0.434056
11965	9.800882	-5.835891	11.945051	-0.690662	-0.013723	-0.077998	-0.338258	-0.306506	0.889739	0.427601	-0.892291	-0.144821	0.838295	0.331467	0.432887
11966	10.236129	-9.385606	15.617063	-0.072735	0.411583	-0.023565	-0.341739	-0.307674	0.888004	0.426960	-0.892578	-0.144948	0.837210	0.329608	0.436393
11967	9.846446	-7.341793	14.101374	0.950212	0.833109	0.136381	-0.348041	-0.311671	0.884154	0.435403	-0.888970	-0.141976	0.830236	0.335550	0.445100
11968	8.996915	-2.462943	12.164682	1.250837	1.055668	0.334071	-0.355216	-0.318234	0.878948	0.446953	-0.883645	-0.139304	0.821009	0.343365	0.456120
11969	6.744240	-0.146967	10.232415	0.974784	1.100338	0.389007	-0.362402	-0.325492	0.873338	0.456365	-0.878991	-0.138225	0.812647	0.348468	0.467091
11970	4.201924	0.200660	8.345090	0.638395	0.886185	0.430711	-0.367529	-0.332387	0.868586	0.463153	-0.875313	-0.138985	0.806481	0.351207	0.475649
11971	3.049658	-0.233764	6.788817	0.314602	0.260052	0.387816	-0.367786	-0.336720	0.866806	0.467169	-0.872876	-0.140858	0.804044	0.353139	0.478336
11972	4.325083	-0.897863	4.773969	0.146582	-0.490254	0.315751	-0.362295	-0.337751	0.868716	0.469549	-0.871263	-0.142917	0.805150	0.356126	0.474244
11973	5.946064	-1.291690	2.138344	0.204739	-1.061566	0.363549	-0.351993	-0.337135	0.873179	0.472557	-0.869268	-0.145130	0.807955	0.361542	0.465291
11974	7.217483	-1.093793	-1.099577	0.295656	-1.389631	0.555852	-0.338034	-0.336899	0.878767	0.476915	-0.866286	-0.148659	0.811347	0.368846	0.453507
11975	8.320979	-0.615850	-3.061671	0.198895	-1.573665	0.648556	-0.322094	-0.336673	0.884820	0.480730	-0.863329	-0.153499	0.815570	0.375918	0.439922
11976	10.289733	-0.597953	-3.690180	-0.194824	-1.655160	0.494381	-0.306099	-0.334699	0.891224	0.480734	-0.862376	-0.158752	0.821705	0.379848	0.424873
11977	14.289382	-0.602853	-3.281600	-0.636301	-1.480259	0.325327	-0.292276	-0.331903	0.896892	0.476507	-0.863677	-0.164329	0.829166	0.379345	0.410586
11978	16.599861	-2.404368	1.063349	-0.392435	-0.721830	0.423567	-0.284194	-0.332841	0.899139	0.474511	-0.863726	-0.169752	0.833111	0.378409	0.403402
11979	13.596069	-2.483091	6.399325	0.657373	-0.126232	0.707989	-0.279698	-0.338463	0.898450	0.482022	-0.858814	-0.173473	0.830316	0.384553	0.403355
11980	9.424152	1.650803	7.079302	1.397273	-0.404989	0.797992	-0.272375	-0.343712	0.898707	0.495831	-0.850596	-0.175038	0.824599	0.397931	0.402104
11981	10.331856	8.478261	2.552338	0.822503	-0.956118	0.502418	-0.261931	-0.344121	0.901650	0.503997	-0.845523	-0.176288	0.823031	0.408254	0.394905
11982	11.604184	10.625624	0.702076	-0.529124	-0.857201	0.137909	-0.254093	-0.341807	0.904768	0.500029	-0.847176	-0.179622	0.827894	0.406769	0.386174
11983	9.562264	6.066587	1.188929	-1.539233	-0.635976	-0.017961	-0.248839	-0.339078	0.907252	0.487216	-0.853392	-0.185316	0.837078	0.395914	0.377561
11984	8.466173	-0.454605	0.883475	-1.870354	-0.745781	-0.059428	-0.242770	-0.335679	0.910155	0.471356	-0.860842	-0.191765	0.847871	0.382452	0.367212
11985	8.906201	-5.817680	-0.543724	-1.783820	-0.892140	0.014184	-0.235046	-0.332412	0.913376	0.456218	-0.867490	-0.198310	0.858265	0.370087	0.355553
11986	9.378926	-9.249424	-0.643550	-1.383860	-0.921210	0.230438	-0.225993	-0.331063	0.916146	0.444858	-0.871756	-0.205285	0.866619	0.361162	0.344287
11987	8.659561	-10.472126	0.243125	-0.806654	-0.917146	0.427400	-0.216069	-0.331474	0.918389	0.438833	-0.873220	-0.211927	0.872204	0.357228	0.334138
11988	8.403564	-9.206379	0.863548	-0.241330	-0.985450	0.475158	-0.205306	-0.332111	0.920626	0.437769	-0.872479	-0.217117	0.875333	0.358446	0.324513
11989	8.445879	-6.171798	1.472971	0.130273	-1.012936	0.420497	-0.194512	-0.332111	0.922966	0.439790	-0.870591	-0.220581	0.876784	0.363006	0.315400
11990	8.974718	-2.587886	1.720491	0.167744	-1.025042	0.349290	-0.183908	-0.331418	0.925386	0.441966	-0.868790	-0.223314	0.877977	0.367920	0.306253
11991	9.420285	0.179035	1.757748	-0.071493	-0.998754	0.285994	-0.173785	-0.330206	0.927773	0.441887	-0.868086	-0.226191	0.880077	0.370662	0.296774
11992	9.987779	0.926015	2.050117	-0.432272	-0.975342	0.207218	-0.164201	-0.328408	0.930154	0.438467	-0.868976	-0.229405	0.883620	0.370173	0.286683
11993	10.203870	0.250880	1.622225	-0.746208	-0.945709	0.085055	-0.155373	-0.325649	0.932637	0.432028	-0.871428	-0.232303	0.888375	0.366832	0.276086
11994	10.290722	-0.915262	1.101113	-0.960328	-0.936297	-0.009149	-0.146997	-0.322175	0.935198	0.423499	-0.874927	-0.234845	0.893891	0.361533	0.265053
11995	10.113963	-1.834965	0.552898	-1.096200	-0.937255	-0.042782	-0.138690	-0.318423	0.937748	0.413641	-0.878974	-0.237289	0.899814	0.354982	0.253618
11996	9.825018	-2.531591	-0.128585	-1.182476	-0.996569	-0.074529	-0.129926	-0.314282	0.940397	0.402906	-0.883337	-0.239546	0.905972	0.347769	0.241394
11997	10.036539	-2.846514	-0.312033	-1.200270	-1.061095	-0.087222	-0.120542	-0.309837	0.943117	0.391919	-0.887724	-0.241547	0.912068	0.340509	0.228439
11998	10.213656	-3.066728	-0.015956	-1.165430	-1.065307	-0.103373	-0.111124	-0.305345	0.945736	0.381178	-0.891943	-0.243189	0.917799	0.333469	0.215507
11999	10.025093	-3.632059	0.385455	-1.056718	-1.000175	-0.137983	-0.102349	-0.300788	0.948183	0.371336	-0.895837	-0.244100	0.922840	0.327111	0.203381
12000	9.835929	-3.940145	0.895402	-0.904736	-0.938198	-0.140693	-0.094117	-0.296500	0.950384	0.362870	-0.899168	-0.244586	0.927074	0.321847	0.192218
12001	9.232626	-4.152234	1.209383	-0.745663	-0.886683	-0.122844	-0.086229	-0.292540	0.952358	0.355863	-0.901901	-0.244820	0.930551	0.317798	0.181874
12002	8.693608	-4.129813	1.460168	-0.592925	-0.854620	-0.092997	-0.078523	-0.289016	0.954098	0.350301	-0.904022	-0.245017	0.933340	0.314983	0.172229
12003	8.636712	-3.932131	1.687737	-0.450487	-0.851258	-0.066490	-0.070704	-0.285727	0.955699	0.346071	-0.905614	-0.245150	0.935541	0.313407	0.162912
12004	8.295942	-3.352298	1.975220	-0.373454	-0.815622	-0.080079	-0.063271	-0.282469	0.957188	0.342560	-0.906985	-0.245010	0.937363	0.312392	0.154149
12005	8.267820	-2.778970	2.070252	-0.372059	-0.813217	-0.101726	-0.055892	-0.279000	0.958663	0.339037	-0.908416	-0.244610	0.939111	0.311351	0.145364
12006	8.206625	-2.317280	1.899038	-0.447434	-0.779215	-0.135769	-0.048954	-0.275367	0.960092	0.334799	-0.910157	-0.243973	0.941017	0.309495	0.136749
12007	8.350730	-2.322089	1.868275	-0.551113	-0.753801	-0.192262	-0.042397	-0.271285	0.961565	0.329548	-0.912365	-0.242874	0.943186	0.306585	0.128083
12008	8.515129	-2.616580	1.855655	-0.617632	-0.738086	-0.233682	-0.036120	-0.266922	0.963041	0.323663	-0.914853	-0.241426	0.945483	0.302981	0.119437
12009	8.517533	-2.694523	1.796376	-0.658121	-0.720794	-0.262927	-0.030047	-0.262338	0.964508	0.317375	-0.917514	-0.239669	0.947824	0.298909	0.110828
12010	8.916291	-2.830148	1.718494	-0.675192	-0.726496	-0.291058	-0.023997	-0.257529	0.965972	0.310928	-0.920251	-0.237616	0.950131	0.294646	0.102156
12011	8.778499	-2.945151	1.423987	-0.692625	-0.717123	-0.305345	-0.018023	-0.252616	0.967399	0.304304	-0.923040	-0.235363	0.952404	0.290142	0.093508
12012	8.555551	-3.206300	1.413198	-0.690779	-0.755162	-0.312510	-0.011694	-0.247575	0.968798	0.297710	-0.925788	-0.232990	0.954585	0.285696	0.084532
12013	8.605279	-3.625328	1.505054	-0.680896	-0.805531	-0.285123	-0.004745	-0.242649	0.970103	0.291209	-0.928403	-0.230794	0.956648	0.281408	0.075067
12014	8.225704	-4.050248	1.673539	-0.637908	-0.857332	-0.254772	0.002799	-0.237907	0.971284	0.285137	-0.930776	-0.228807	0.958483	0.277589	0.065231
12015	8.824921	-4.236032	2.469948	-0.555523	-0.964595	-0.238894	0.011466	-0.233023	0.972404	0.279855	-0.932857	-0.226847	0.959974	0.274733	0.054516
12016	8.319379	-4.331944	2.887302	-0.509675	-0.948404	-0.207934	0.020068	-0.228512	0.973334	0.275029	-0.934710	-0.225114	0.961226	0.272213	0.044089
12017	7.768562	-4.126206	3.298431	-0.461710	-1.021546	-0.215781	0.029390	-0.223736	0.974207	0.270673	-0.936433	-0.223226	0.962223	0.270252	0.033037
12018	9.132357	-3.227672	3.776771	-0.463165	-1.093211	-0.219610	0.039392	-0.218757	0.974984	0.266327	-0.938146	-0.221252	0.963077	0.268380	0.021305
12019	9.697815	-1.670580	3.965005	-0.565691	-1.002802	-0.249271	0.048478	-0.213760	0.975683	0.261018	-0.940176	-0.218950	0.964116	0.265285	0.010217
12020	9.568007	-1.333956	4.067285	-0.704908	-0.936236	-0.296227	0.056815	-0.208533	0.976364	0.254410	-0.942636	-0.216134	0.965426	0.260676	-0.000503
12021	9.727451	-2.317846	3.785718	-0.830307	-0.801193	-0.323442	0.063816	-0.203437	0.977006	0.246617	-0.945423	-0.212970	0.967010	0.254537	-0.010162
12022	10.039812	-3.631414	3.319194	-0.789878	-0.717810	-0.353465	0.069971	-0.198311	0.977638	0.239246	-0.948101	-0.209442	0.968435	0.248551	-0.018895
12023	10.052093	-3.806674	3.519434	-0.664174	-0.558584	-0.343842	0.074634	-0.193699	0.978218	0.233095	-0.950390	-0.205973	0.969586	0.243391	-0.025781
12024	11.065478	-3.468593	4.288804	-0.573854	-0.485806	-0.299845	0.078723	-0.189701	0.978681	0.227794	-0.952331	-0.202917	0.970522	0.238912	-0.031758
12025	11.202444	-2.982760	4.583448	-0.523954	-0.233839	-0.231939	0.080524	-0.186970	0.979060	0.222931	-0.953989	-0.200517	0.971503	0.234409	-0.035138
12026	11.147363	-2.077370	4.665769	-0.501490	-0.062933	-0.179285	0.080807	-0.185139	0.979384	0.218236	-0.955469	-0.198624	0.972545	0.229787	-0.036805
12027	11.547364	-1.048816	4.563626	-0.473696	0.111983	-0.151996	0.079432	-0.183977	0.979716	0.213791	-0.956808	-0.197008	0.973645	0.225103	-0.036668
12028	11.574720	-0.708894	4.235944	-0.492282	0.292074	-0.164921	0.076304	-0.183075	0.980133	0.209159	-0.958189	-0.195259	0.974900	0.219903	-0.034822
12029	11.597542	-0.656981	3.348074	-0.576636	0.408239	-0.222624	0.071892	-0.181861	0.980693	0.203744	-0.959827	-0.192928	0.976381	0.213680	-0.031951
12030	11.808894	-0.397069	2.525856	-0.682687	0.496660	-0.357049	0.066389	-0.179502	0.981515	0.197356	-0.961889	-0.189261	0.978081	0.206272	-0.028433
12031	11.969616	-0.323974	2.206061	-0.826212	0.656753	-0.529254	0.058957	-0.175764	0.982665	0.189646	-0.964479	-0.183889	0.980081	0.197200	-0.023529
12032	12.243926	-1.109015	1.776486	-0.968628	0.812308	-0.664385	0.049822	-0.170934	0.984022	0.180540	-0.967474	-0.177201	0.982305	0.186484	-0.017341
12033	13.022039	-2.154113	0.997553	-1.067958	1.011309	-0.717140	0.038634	-0.165844	0.985395	0.170404	-0.970593	-0.170034	0.984617	0.174484	-0.009238
12034	12.833530	-3.702783	0.656207	-1.042718	1.206580	-0.706549	0.025638	-0.161040	0.986615	0.160391	-0.973491	-0.163066	0.986721	0.162424	0.000871
12035	12.775449	-5.207058	0.929499	-0.947393	1.359973	-0.577062	0.011322	-0.157585	0.987441	0.151191	-0.975881	-0.157474	0.988440	0.151075	0.012777
12036	11.421367	-6.716095	0.423686	-0.694618	1.425972	-0.378281	-0.003276	-0.156014	0.987749	0.144376	-0.977480	-0.153913	0.989517	0.142103	0.025726
12037	10.939207	-7.486664	0.173129	-0.340901	1.442613	-0.088651	-0.017665	-0.157205	0.987408	0.141045	-0.978078	-0.153196	0.989846	0.136563	0.039451
12038	11.305916	-7.361422	0.330947	0.045226	1.442564	0.222354	-0.031563	-0.161370	0.986389	0.141588	-0.977651	-0.155410	0.989422	0.134756	0.053705
12039	10.437986	-6.341615	0.263278	0.401988	1.472957	0.502120	-0.045389	-0.168333	0.984685	0.145811	-0.976260	-0.160172	0.988271	0.136308	0.068856
12040	10.111124	-4.621225	0.544139	0.664847	1.441857	0.732120	-0.058468	-0.177501	0.982382	0.152798	-0.974062	-0.166903	0.986526	0.140347	0.084074
12041	10.364233	-2.730226	0.889629	0.822557	1.408195	0.881175	-0.070939	-0.188156	0.979574	0.161531	-0.971253	-0.174860	0.984315	0.145827	0.099293
12042	9.970344	-1.199741	0.994651	0.868980	1.410702	0.917765	-0.083217	-0.199186	0.976422	0.170824	-0.968169	-0.182944	0.981781	0.151572	0.114594
12043	10.181924	-0.247797	0.939436	0.860142	1.372881	0.860862	-0.095145	-0.209695	0.973127	0.180083	-0.965058	-0.190349	0.979039	0.157133	0.129582
12044	10.668387	0.820023	0.772170	0.784858	1.329397	0.822617	-0.106559	-0.219773	0.969714	0.188629	-0.962024	-0.197302	0.976250	0.161892	0.143968
12045	9.755897	1.650386	0.582729	0.658897	1.441819	0.645086	-0.119351	-0.228389	0.966227	0.195839	-0.959478	-0.202604	0.973346	0.165044	0.159242
12046	9.283184	2.241905	0.556029	0.516292	1.358711	0.424760	-0.131648	-0.234747	0.963101	0.201435	-0.957621	-0.205877	0.970615	0.166899	0.173355
12047	9.445857	1.698451	0.601486	0.301816	1.339888	0.256041	-0.144091	-0.239484	0.960148	0.204772	-0.956489	-0.207841	0.968146	0.166664	0.186861
12048	9.028542	0.133760	0.303018	0.121358	1.256177	0.137269	-0.155892	-0.242910	0.957441	0.206197	-0.955940	-0.208956	0.966013	0.164847	0.199110
12049	9.834895	-0.782911	0.157539	0.091282	1.163806	0.129412	-0.166828	-0.246099	0.954779	0.207344	-0.955453	-0.210043	0.963938	0.162927	0.210423
12050	10.516866	-1.136806	-0.196178	0.122163	1.183171	0.139873	-0.177863	-0.249383	0.951931	0.208807	-0.954891	-0.211144	0.961647	0.161215	0.221913
12051	8.614391	-1.626590	-1.242940	0.269323	1.226570	0.128565	-0.189339	-0.252626	0.948857	0.211687	-0.954115	-0.211785	0.958822	0.160761	0.234129
12052	9.643189	-1.463611	-1.164927	0.545559	1.090130	0.171364	-0.199341	-0.256057	0.945885	0.217288	-0.952778	-0.212131	0.955536	0.163243	0.245566
12053	8.425645	-1.505782	-1.627988	0.817573	1.036569	0.191274	-0.208763	-0.259635	0.942872	0.225530	-0.950909	-0.211914	0.951606	0.168406	0.257070
12054	9.208008	-1.868700	-1.451411	1.060866	0.886657	0.223417	-0.216600	-0.263315	0.940080	0.236125	-0.948479	-0.211263	0.947275	0.176216	0.267616
12055	9.743621	-2.976666	-1.679995	1.344724	0.855298	0.285814	-0.223939	-0.267609	0.937143	0.249511	-0.945260	-0.210304	0.942123	0.186732	0.278452
12056	9.962652	-3.952574	-1.867344	1.709810	0.929311	0.377052	-0.231625	-0.272992	0.933716	0.266470	-0.940912	-0.208993	0.935598	0.200400	0.290683
12057	9.838565	-4.213671	-1.923026	2.142395	1.030941	0.498904	-0.239787	-0.279861	0.929613	0.287652	-0.935032	-0.207294	0.927232	0.217699	0.304711
12058	9.666829	-3.893941	-1.717786	2.564387	1.131390	0.589491	-0.248382	-0.287957	0.924871	0.312784	-0.927489	-0.204771	0.916773	0.238423	0.320440
12059	9.397679	-3.131653	-1.324039	2.883752	1.239478	0.623028	-0.257562	-0.296838	0.919537	0.340666	-0.918434	-0.201061	0.904217	0.261469	0.337676
12060	9.002902	-2.347813	-0.934794	3.016707	1.341489	0.622162	-0.267321	-0.306210	0.913660	0.369412	-0.908290	-0.196327	0.889986	0.285035	0.355922
12061	8.442561	-1.564359	-0.307783	2.973100	1.421632	0.601204	-0.277481	-0.315878	0.907318	0.397330	-0.897584	-0.190975	0.874719	0.307512	0.374570
12062	7.866055	-0.700272	0.444983	2.770255	1.454156	0.543125	-0.287793	-0.325362	0.900730	0.422931	-0.887018	-0.185278	0.859247	0.327625	0.392883
12063	7.480266	-0.018575	1.255167	2.454630	1.412330	0.456175	-0.297759	-0.334154	0.894249	0.445221	-0.877234	-0.179550	0.844463	0.344675	0.409977
12064	7.445852	0.534068	1.906562	2.085871	1.292583	0.364121	-0.306865	-0.341894	0.888224	0.463844	-0.868640	-0.174107	0.831073	0.358570	0.425140
12065	7.541766	1.015704	2.269077	1.752443	1.136378	0.296427	-0.314758	-0.348610	0.882835	0.479268	-0.861206	-0.169195	0.819286	0.369859	0.438149
12066	7.214251	1.498814	2.361325	1.456159	0.936146	0.255118	-0.321074	-0.354319	0.878277	0.491982	-0.854826	-0.165003	0.809237	0.379118	0.448781
12067	7.300274	2.025644	2.603568	1.182611	0.655851	0.248932	-0.325032	-0.358957	0.874931	0.502350	-0.849381	-0.161854	0.801248	0.386914	0.456399
12068	7.655238	2.207390	2.821093	0.903669	0.416574	0.244716	-0.327050	-0.362668	0.872645	0.510408	-0.844942	-0.159864	0.795313	0.393121	0.461447
12069	7.954140	2.070527	2.996551	0.641489	0.253237	0.230826	-0.327791	-0.365613	0.871137	0.516293	-0.841538	-0.158920	0.791198	0.397669	0.464612
12070	8.213437	1.790015	3.193143	0.406160	0.154245	0.206031	-0.327873	-0.367972	0.870112	0.520222	-0.839130	-0.158841	0.788586	0.400572	0.466555
12071	8.239794	1.552306	3.610204	0.179044	0.072870	0.179574	-0.327431	-0.369760	0.869521	0.522261	-0.837723	-0.159573	0.787422	0.401867	0.467408
12072	8.094813	0.997695	4.352052	0.006756	0.001725	0.126393	-0.326715	-0.370837	0.869331	0.522772	-0.837196	-0.160659	0.787379	0.401973	0.467388
12073	7.845623	0.131137	5.343837	-0.030439	-0.031857	0.059635	-0.326075	-0.371193	0.869420	0.522767	-0.837073	-0.161320	0.787648	0.401901	0.466996
12074	8.029189	-0.438934	6.300655	0.006922	-0.034306	0.043280	-0.325510	-0.371429	0.869531	0.523008	-0.836852	-0.161682	0.787722	0.402142	0.466664
12075	8.105036	-1.440595	8.515680	-0.108136	0.079512	0.048423	-0.325809	-0.372138	0.869116	0.522353	-0.837082	-0.162605	0.788033	0.401007	0.467116
12076	8.261973	-2.672321	10.509696	-0.185323	0.308252	0.067567	-0.327817	-0.373948	0.867582	0.521159	-0.837539	-0.164078	0.787991	0.398361	0.469445
12077	8.161154	-2.792278	10.588199	-0.126122	0.568295	0.095641	-0.331726	-0.376994	0.864774	0.520524	-0.837654	-0.165499	0.786773	0.395235	0.474106
12078	7.544879	-1.176588	9.367110	-0.171368	0.723613	0.069467	-0.336984	-0.380433	0.861227	0.519455	-0.838033	-0.166933	0.785244	0.391115	0.480022
12079	7.027813	0.722944	8.290376	-0.419560	0.765079	-0.023497	-0.343053	-0.383201	0.857597	0.516127	-0.839723	-0.168755	0.784811	0.384737	0.485849
12080	6.179091	1.876978	7.448460	-0.773200	0.740251	-0.147743	-0.349557	-0.384784	0.854255	0.509588	-0.843198	-0.171283	0.786212	0.375445	0.490827
12081	4.716152	1.528776	6.359557	-1.039422	0.531027	-0.254066	-0.354974	-0.384598	0.852102	0.500552	-0.847995	-0.174221	0.789583	0.364677	0.493527
12082	3.803547	0.553940	4.959724	-1.233453	0.104561	-0.245408	-0.356950	-0.382901	0.852041	0.489950	-0.853337	-0.178226	0.795321	0.353840	0.492201
12083	3.946275	-0.554686	3.543475	-1.290506	-0.411433	-0.134339	-0.354269	-0.380313	0.854316	0.479209	-0.858330	-0.183380	0.803026	0.344430	0.486329
12084	4.977586	-1.513239	2.166543	-1.174450	-0.911139	0.004507	-0.346823	-0.377260	0.858713	0.469790	-0.862290	-0.189089	0.811795	0.337834	0.476295
12085	6.589760	-2.382388	0.559556	-0.934031	-1.285687	0.096989	-0.335834	-0.373774	0.864586	0.462548	-0.865041	-0.194301	0.820527	0.334660	0.463399
12086	8.663958	-3.202799	-0.299335	-0.604930	-1.476374	0.091564	-0.323174	-0.369640	0.871163	0.457910	-0.866697	-0.197875	0.828177	0.334966	0.449356
12087	11.660906	-4.055558	1.081028	-0.464605	-1.474277	0.079235	-0.310502	-0.365377	0.877547	0.454346	-0.867941	-0.200617	0.834960	0.336418	0.435505
12088	16.473743	-7.119463	5.685235	-0.350047	-1.100738	0.030757	-0.301076	-0.361953	0.882238	0.451555	-0.868980	-0.202414	0.839911	0.337437	0.425070
12089	17.417750	-9.968208	10.945525	0.344493	-0.319369	-0.034497	-0.298491	-0.360569	0.883682	0.454391	-0.867911	-0.200649	0.839305	0.341645	0.422903
12090	14.191023	-8.117929	12.257227	1.279114	0.213375	0.088278	-0.299800	-0.362089	0.882616	0.465395	-0.863126	-0.196012	0.832783	0.352001	0.427280
12091	8.032102	-0.810591	7.658367	1.713148	-0.016556	0.418005	-0.297627	-0.365633	0.881890	0.480890	-0.855419	-0.192364	0.824720	0.366839	0.430425
12092	7.624235	6.858870	3.221226	1.100457	-0.681346	0.415925	-0.289928	-0.366653	0.884029	0.491214	-0.849763	-0.191342	0.821371	0.378772	0.426475
12093	8.856239	9.154312	0.556024	-0.124691	-0.873775	0.284570	-0.281288	-0.365754	0.887187	0.491049	-0.849166	-0.194390	0.824468	0.380973	0.418464
12094	9.646560	6.677609	-1.491935	-1.320170	-0.804385	0.261769	-0.273280	-0.364965	0.890011	0.480878	-0.853155	-0.202197	0.833111	0.372730	0.408653
12095	9.850101	2.145460	-2.124227	-1.922335	-0.646636	0.349244	-0.266155	-0.365572	0.891918	0.465746	-0.858889	-0.213052	0.843944	0.358702	0.398862
12096	9.270604	-2.369229	-1.638256	-1.946110	-0.614051	0.407077	-0.259006	-0.366937	0.893461	0.450333	-0.864208	-0.224376	0.854468	0.344240	0.389079
12097	9.292416	-5.317750	-1.567965	-1.663147	-0.747855	0.433906	-0.250599	-0.368141	0.895361	0.437192	-0.868226	-0.234620	0.863749	0.332650	0.378525
12098	9.510678	-6.790285	-1.209384	-1.210488	-0.895927	0.348904	-0.241249	-0.368244	0.897884	0.427595	-0.870896	-0.242287	0.871184	0.325479	0.367562
12099	9.553149	-6.700984	-0.924057	-0.702745	-0.981799	0.283940	-0.231394	-0.367516	0.900771	0.422164	-0.872114	-0.247376	0.876490	0.323032	0.356954
12100	9.811421	-5.417564	-0.633302	-0.322375	-1.045873	0.290811	-0.220913	-0.366685	0.903736	0.420035	-0.872061	-0.251158	0.880209	0.324116	0.346671
12101	9.765357	-3.804679	-0.057707	-0.125968	-1.061747	0.333397	-0.210073	-0.366118	0.906547	0.419678	-0.871233	-0.254605	0.883029	0.326972	0.336674
12102	9.750049	-2.482604	0.927862	-0.027549	-1.072306	0.373596	-0.198953	-0.365862	0.909155	0.420243	-0.869927	-0.258113	0.885333	0.330713	0.326825
12103	9.864147	-1.656403	1.371301	-0.033398	-1.038049	0.351526	-0.188187	-0.365448	0.911610	0.420660	-0.868737	-0.261423	0.887486	0.334281	0.317214
12104	10.441329	-0.871340	1.536231	-0.139179	-0.989356	0.271892	-0.178182	-0.364507	0.913994	0.419964	-0.868183	-0.264366	0.889877	0.336740	0.307774
12105	11.349491	0.933767	2.749823	-0.636724	-0.675736	0.129530	-0.171527	-0.363345	0.915729	0.414543	-0.869831	-0.267485	0.893718	0.333728	0.299821
12106	7.966947	-0.886808	1.300696	-0.850907	-0.686902	-0.136345	-0.165861	-0.359898	0.918130	0.406731	-0.873115	-0.268776	0.898365	0.328853	0.291198
12107	8.860558	-2.408802	0.967586	-0.891957	-0.910960	-0.129619	-0.158089	-0.355761	0.921109	0.398515	-0.876480	-0.270127	0.903434	0.324372	0.280338
12108	9.272496	-3.868282	0.765193	-0.904025	-0.977252	-0.014527	-0.149222	-0.352504	0.923837	0.390345	-0.879416	-0.272504	0.908495	0.319952	0.268826
12109	9.715161	-4.036504	0.745396	-0.917316	-1.007803	0.068050	-0.139687	-0.349874	0.926324	0.382115	-0.882080	-0.275541	0.913496	0.315472	0.256907
12110	9.675517	-3.552894	0.822246	-0.964040	-0.939486	0.073889	-0.130732	-0.347606	0.928482	0.373427	-0.884811	-0.278677	0.918402	0.310288	0.245479
12111	9.634470	-3.132251	1.055913	-1.005944	-0.867751	0.027376	-0.122546	-0.345156	0.930510	0.364225	-0.887798	-0.281345	0.923213	0.304437	0.234510
12112	9.619545	-2.556740	1.351906	-1.097975	-0.752908	-0.006989	-0.115532	-0.342849	0.932259	0.354095	-0.891099	-0.283830	0.928046	0.297317	0.224351
12113	9.307119	-1.827901	1.916148	-1.297512	-0.608568	-0.075451	-0.110034	-0.340369	0.933832	0.341959	-0.895144	-0.285975	0.933250	0.287865	0.214888
12114	8.977917	-1.201213	2.461035	-1.608228	-0.472016	-0.160798	-0.106083	-0.337619	0.935286	0.326771	-0.900190	-0.287886	0.939131	0.275085	0.205819
12115	8.645667	-1.267337	2.635745	-1.994023	-0.393749	-0.263851	-0.103114	-0.334160	0.936859	0.307726	-0.906388	-0.289422	0.945871	0.258452	0.196291
12116	8.093856	-2.078383	2.255534	-2.336261	-0.332640	-0.352472	-0.100932	-0.330150	0.938517	0.285224	-0.913339	-0.290619	0.953132	0.238355	0.186352
12117	8.049945	-3.408033	1.680069	-2.486497	-0.359882	-0.445910	-0.098614	-0.325219	0.940483	0.261015	-0.920453	-0.290924	0.960284	0.216791	0.175657
12118	8.179882	-4.467041	1.159789	-2.393665	-0.407906	-0.512361	-0.095894	-0.319671	0.942664	0.237496	-0.927025	-0.290208	0.966644	0.196050	0.164817
12119	8.304992	-5.116969	0.785640	-2.170188	-0.436045	-0.532935	-0.092783	-0.313884	0.944917	0.215983	-0.932759	-0.288638	0.971979	0.177305	0.154338
12120	8.832290	-5.313566	0.807276	-1.859191	-0.491685	-0.512212	-0.088986	-0.308291	0.947121	0.197449	-0.937482	-0.286602	0.976266	0.161504	0.144295
12121	8.849007	-4.989609	0.817235	-1.544426	-0.501979	-0.451998	-0.084841	-0.303257	0.949124	0.181978	-0.941253	-0.284475	0.979636	0.148585	0.135043
12122	8.971505	-4.417408	0.936756	-1.298275	-0.549024	-0.385866	-0.080067	-0.298864	0.950931	0.168966	-0.944257	-0.282539	0.982364	0.138053	0.126102
12123	8.762177	-4.100476	1.220431	-1.062981	-0.535092	-0.359114	-0.075298	-0.294748	0.952604	0.158260	-0.946740	-0.280424	0.984522	0.129643	0.117934
12124	8.688759	-4.454690	1.546041	-0.807438	-0.559025	-0.340554	-0.070250	-0.290845	0.954188	0.150098	-0.948742	-0.278134	0.986172	0.123683	0.110304
12125	8.492134	-4.841980	1.508336	-0.505572	-0.573292	-0.312328	-0.064960	-0.287180	0.955672	0.144925	-0.950256	-0.275701	0.987308	0.120591	0.103348
12126	8.640448	-4.833505	1.540253	-0.200841	-0.588440	-0.264092	-0.059464	-0.283993	0.956981	0.142819	-0.951235	-0.273413	0.987961	0.120417	0.097124
12127	8.698536	-4.212798	1.575561	0.029120	-0.574316	-0.220398	-0.054234	-0.281122	0.958138	0.142263	-0.951937	-0.271250	0.988342	0.121596	0.091621
12128	8.627567	-3.399517	1.871989	0.133287	-0.529533	-0.202091	-0.049225	-0.278580	0.959151	0.143517	-0.952322	-0.269231	0.988423	0.124402	0.086859
12129	8.344632	-3.400656	2.232749	0.121451	-0.475893	-0.199013	-0.044929	-0.276023	0.960101	0.143925	-0.952833	-0.267198	0.988568	0.126178	0.082536
12130	8.048860	-3.776484	2.233602	0.085459	-0.474323	-0.210769	-0.040479	-0.273443	0.961036	0.144722	-0.953287	-0.265142	0.988644	0.128350	0.078162
12131	8.260525	-4.036970	1.764381	0.025427	-0.514030	-0.209782	-0.035807	-0.270729	0.961989	0.144242	-0.953927	-0.263092	0.988894	0.129339	0.073208
12132	8.465174	-3.752481	1.083643	-0.099979	-0.577192	-0.197820	-0.030318	-0.268126	0.962907	0.143229	-0.954573	-0.261296	0.989225	0.129994	0.067344
12133	8.778762	-3.085753	0.749774	-0.236614	-0.624187	-0.214855	-0.024556	-0.265226	0.963874	0.140159	-0.955555	-0.259366	0.989825	0.128726	0.060638
12134	9.387784	-2.134314	0.801892	-0.435802	-0.651562	-0.266993	-0.018408	-0.261875	0.964926	0.135826	-0.956798	-0.257078	0.990562	0.126330	0.053183
12135	9.034954	-1.760634	0.530420	-0.740942	-0.607146	-0.353145	-0.012948	-0.257717	0.966134	0.127806	-0.958716	-0.254025	0.991715	0.120188	0.045351
12136	9.847756	-1.987760	0.962603	-1.061183	-0.641474	-0.433285	-0.007049	-0.252848	0.967480	0.117271	-0.961037	-0.250309	0.993075	0.111693	0.036426
12137	9.902849	-1.772957	0.964684	-1.335426	-0.591090	-0.516042	-0.001835	-0.247235	0.968954	0.103335	-0.963815	-0.245728	0.994645	0.099676	0.027316
12138	10.156863	-1.133067	1.453838	-1.580487	-0.512388	-0.617619	0.002739	-0.240833	0.970563	0.087645	-0.966773	-0.240140	0.996148	0.085723	0.018460
12139	10.083500	-1.596392	1.957029	-1.822824	-0.381371	-0.735812	0.005883	-0.233400	0.972363	0.068877	-0.969976	-0.233244	0.997608	0.068345	0.010369
12140	10.055429	-3.531870	2.283127	-1.839968	-0.304069	-0.819545	0.008490	-0.225294	0.974254	0.050609	-0.972944	-0.225432	0.998682	0.051220	0.003141
12141	9.679100	-6.189658	2.762660	-1.624553	-0.264726	-0.796993	0.010737	-0.217410	0.976021	0.033889	-0.975438	-0.217653	0.999368	0.035414	-0.003106
12142	9.971991	-8.877270	3.514338	-1.004460	-0.296227	-0.695266	0.013557	-0.210570	0.977485	0.023973	-0.977225	-0.210847	0.999621	0.026292	-0.008200
12143	10.944711	-9.528288	4.598921	-0.368185	-0.267285	-0.450954	0.016092	-0.206110	0.978397	0.019892	-0.978264	-0.206409	0.999673	0.022784	-0.011642
12144	11.163683	-9.374769	5.529868	0.268232	-0.092048	-0.198212	0.017029	-0.204188	0.978784	0.022646	-0.978596	-0.204543	0.999599	0.025649	-0.012041
12145	11.017874	-8.336287	6.242498	0.864511	0.108727	0.009978	0.015892	-0.204346	0.978770	0.030791	-0.978329	-0.204754	0.999399	0.033391	-0.009256
12146	10.600507	-5.790195	6.491962	1.318065	0.255518	0.134838	0.013450	-0.205805	0.978501	0.043980	-0.977520	-0.206204	0.998942	0.045808	-0.004097
12147	10.666555	-3.399987	6.431534	1.484697	0.374543	0.185814	0.009747	-0.207854	0.978111	0.058334	-0.976374	-0.208066	0.998250	0.059085	0.002608
12148	11.123169	-2.032522	5.332336	1.498976	0.543573	0.164921	0.004494	-0.209858	0.977722	0.073318	-0.975031	-0.209617	0.997298	0.072627	0.011005
12149	11.796152	-1.343431	3.667833	1.398776	0.764440	0.121303	-0.003112	-0.211668	0.977337	0.086758	-0.973713	-0.210607	0.996225	0.084137	0.021394
12150	11.950958	-1.061061	2.620172	1.290143	0.869872	-0.009981	-0.011719	-0.212385	0.977116	0.099642	-0.972567	-0.210201	0.994954	0.094899	0.032560
12151	11.238657	-0.896466	2.408861	1.221366	1.137365	-0.186112	-0.023299	-0.211725	0.977052	0.111315	-0.971789	-0.207930	0.993512	0.103916	0.046210
12152	11.691568	-1.268720	2.226475	1.153212	1.184241	-0.237178	-0.035268	-0.210738	0.976906	0.122734	-0.971028	-0.205039	0.991813	0.112668	0.060111
12153	11.065538	-1.485896	0.798052	0.983787	1.223820	-0.193616	-0.047721	-0.210280	0.976476	0.131960	-0.970348	-0.202511	0.990106	0.119192	0.074055
12154	10.592015	-1.918289	-0.278442	0.735263	1.175558	-0.112294	-0.059439	-0.210653	0.975752	0.139216	-0.969677	-0.200861	0.988477	0.123901	0.086963
12155	10.694441	-2.699466	-0.422778	0.459603	1.119807	-0.017965	-0.070601	-0.211866	0.974745	0.143317	-0.969200	-0.200280	0.987155	0.125558	0.098790
12156	10.548020	-3.677537	-0.727749	0.293189	1.038995	0.119490	-0.080614	-0.214365	0.973421	0.146342	-0.968562	-0.201176	0.985944	0.126235	0.109450
12157	10.940324	-4.243609	-0.649308	0.288732	0.862218	0.294761	-0.088741	-0.218296	0.971840	0.149038	-0.967615	-0.203738	0.984841	0.126761	0.118401
12158	9.725575	-4.346686	-0.934763	0.448715	0.770829	0.469521	-0.095551	-0.223856	0.969927	0.153930	-0.965988	-0.207782	0.983451	0.129447	0.126759
12159	10.106063	-4.042653	-0.801434	0.680262	0.550635	0.580716	-0.100102	-0.230176	0.967987	0.160833	-0.963823	-0.212553	0.981892	0.134407	0.133501
12160	10.157510	-3.480162	-0.750475	0.898285	0.494095	0.605974	-0.103881	-0.236724	0.966008	0.170306	-0.961151	-0.217219	0.979900	0.141951	0.140161
12161	9.603749	-2.937210	-0.839307	1.094372	0.490864	0.578686	-0.107713	-0.242990	0.964030	0.181313	-0.958211	-0.221264	0.977509	0.150958	0.147269
12162	9.453085	-2.644522	-0.645754	1.325635	0.433356	0.539691	-0.110862	-0.248863	0.962173	0.194885	-0.954788	-0.224498	0.974541	0.162624	0.154350
12163	9.129345	-2.245370	-1.054382	1.514994	0.472722	0.466273	-0.114564	-0.254094	0.960370	0.209827	-0.951114	-0.226614	0.971003	0.175550	0.162279
12164	9.020956	-2.457379	-1.271373	1.736798	0.354909	0.339935	-0.117194	-0.258000	0.959011	0.227093	-0.947041	-0.227029	0.966796	0.191178	0.169577
12165	9.641226	-4.336866	-1.526709	2.059856	0.302068	0.275885	-0.119485	-0.261202	0.957861	0.246998	-0.942260	-0.226137	0.961621	0.209570	0.177103
12166	10.403069	-5.991158	-1.757315	2.618233	0.286603	0.266938	-0.121471	-0.264370	0.956741	0.272448	-0.935739	-0.223976	0.954472	0.233456	0.185692
12167	11.137432	-6.931697	-1.792851	3.393810	0.294108	0.261084	-0.123534	-0.267523	0.955600	0.304718	-0.926678	-0.220034	0.944397	0.264007	0.195995
12168	11.050995	-6.384304	-2.092027	4.202042	0.386866	0.249919	-0.126280	-0.270940	0.954277	0.344466	-0.914095	-0.213948	0.930267	0.301698	0.208762
12169	10.864838	-4.710727	-2.067786	4.827140	0.457946	0.225210	-0.129698	-0.274441	0.952817	0.388928	-0.898007	-0.205713	0.912093	0.343897	0.223207
12170	10.523403	-2.573526	-1.942143	5.190124	0.560699	0.150958	-0.134058	-0.277851	0.951224	0.435943	-0.878553	-0.195186	0.889934	0.388513	0.238904
12171	9.775472	-0.461848	-1.751710	5.087454	0.781361	0.087701	-0.140530	-0.281784	0.949131	0.480451	-0.857615	-0.183478	0.865690	0.430226	0.255904
12172	8.791029	-0.601505	-1.876508	5.177400	0.706773	0.070911	-0.146126	-0.285583	0.947148	0.524722	-0.834020	-0.170518	0.838638	0.472073	0.271724
12173	9.808151	2.849850	-0.307976	4.849222	0.840485	0.105894	-0.152387	-0.290607	0.944630	0.564920	-0.809874	-0.158019	0.810952	0.509560	0.287584
12174	7.096226	0.714816	-1.781536	4.480374	0.891859	0.072159	-0.159005	-0.295879	0.941899	0.600794	-0.786051	-0.145500	0.783431	0.542751	0.302749
12175	8.832650	4.466744	-0.182348	3.844348	1.014687	0.125296	-0.166065	-0.302432	0.938593	0.630398	-0.764479	-0.134793	0.758301	0.569303	0.317605
12176	6.787511	0.896243	-1.252445	3.744326	0.661163	0.141910	-0.170009	-0.307349	0.936287	0.658597	-0.742200	-0.124051	0.733039	0.595546	0.328600
12177	8.157156	1.560257	-0.679965	3.632385	0.620469	0.145432	-0.173507	-0.312110	0.934068	0.684812	-0.719854	-0.113326	0.707763	0.619998	0.338637
12178	8.174308	2.215320	-0.098296	3.336610	0.643094	0.098834	-0.177222	-0.316861	0.931768	0.708231	-0.698454	-0.102814	0.683375	0.641686	0.348192
12179	8.606650	4.605222	1.278797	2.933109	0.613539	0.053448	-0.180973	-0.321133	0.929582	0.727855	-0.679395	-0.093003	0.661419	0.659770	0.356690
12180	6.341050	3.156589	0.461823	2.090595	0.769244	-0.138924	-0.186948	-0.325307	0.926944	0.741286	-0.665888	-0.084187	0.644628	0.671392	0.365632
12181	7.422799	2.060366	1.257284	2.024224	0.416322	-0.141505	-0.190671	-0.327092	0.925557	0.753728	-0.652843	-0.075442	0.628919	0.683233	0.371016
12182	7.798866	2.146056	1.320277	1.812518	0.316195	-0.160071	-0.193784	-0.328220	0.924510	0.764722	-0.640845	-0.067222	0.614531	0.693967	0.375182
12183	8.124832	2.464447	1.829161	1.415375	0.281151	-0.199297	-0.197031	-0.328813	0.923613	0.772805	-0.631795	-0.060064	0.603284	0.701938	0.378591
12184	7.457905	1.371512	1.195495	1.172907	0.132401	-0.216948	-0.199439	-0.328369	0.923254	0.779428	-0.624192	-0.053633	0.593899	0.708913	0.380429
12185	8.151636	1.266962	1.683496	1.019926	-0.084805	-0.188046	-0.200429	-0.326478	0.923710	0.784902	-0.617756	-0.048031	0.586308	0.715395	0.380069
12186	8.546125	1.382659	2.316160	0.763320	-0.074513	-0.150898	-0.201114	-0.324998	0.924083	0.789084	-0.612725	-0.043761	0.580431	0.720378	0.379679
12187	8.423051	1.020924	2.604282	0.532830	-0.056849	-0.082186	-0.201447	-0.323967	0.924373	0.791851	-0.609338	-0.040990	0.576535	0.723708	0.379283
12188	8.529594	0.952121	3.057825	0.342465	-0.007357	-0.014142	-0.201449	-0.323811	0.924427	0.793823	-0.606859	-0.039584	0.573815	0.725857	0.379300
12189	8.876250	0.983369	3.818800	0.132817	0.094420	0.012495	-0.201901	-0.324453	0.924103	0.794466	-0.606041	-0.039203	0.572764	0.726254	0.380127
12190	9.145599	0.660515	4.361458	-0.063068	0.213449	0.035345	-0.202776	-0.326199	0.923296	0.794208	-0.606342	-0.039794	0.572814	0.725220	0.382021
12191	9.488304	0.313555	5.238649	-0.203047	0.310640	0.028892	-0.204345	-0.328501	0.922134	0.792953	-0.607912	-0.040844	0.573994	0.722862	0.384709
12192	11.240139	-0.634595	8.398909	-0.120336	0.427883	-0.152805	-0.207945	-0.330642	0.920562	0.791979	-0.609242	-0.039925	0.574046	0.720763	0.388550
12193	14.279183	3.112263	12.542615	0.250723	0.777028	-0.416603	-0.215701	-0.333589	0.917710	0.792404	-0.608985	-0.035118	0.570586	0.719622	0.395696
12194	20.188013	21.591296	19.904572	-2.404356	2.348829	-0.328344	-0.231775	-0.348180	0.908323	0.777818	-0.627091	-0.041903	0.584191	0.696798	0.416165
12195	-6.008031	10.698776	3.263823	-4.254020	5.163857	-2.716954	-0.283196	-0.365300	0.886767	0.745419	-0.665615	-0.036142	0.603449	0.650778	0.460801
12196	-0.134906	3.779775	8.034325	-3.054546	1.468410	-1.792379	-0.305271	-0.362493	0.880573	0.721471	-0.691581	-0.034578	0.621522	0.624751	0.472648
12197	4.143371	3.905247	7.143363	-3.298644	0.839448	-1.024711	-0.317893	-0.360304	0.876998	0.697316	-0.715578	-0.041224	0.642413	0.598439	0.478723
12198	5.891156	2.234820	6.132304	-3.718865	0.232785	-0.548625	-0.323105	-0.357669	0.876171	0.671244	-0.739249	-0.054241	0.667109	0.570599	0.478938
12199	6.410820	0.822211	3.163815	-4.069656	-0.355289	-0.277635	-0.322584	-0.353474	0.878064	0.642456	-0.763014	-0.071133	0.695118	0.541171	0.473228
12200	6.815413	0.126534	0.301620	-4.316283	-0.857710	-0.030291	-0.316615	-0.348728	0.882124	0.611749	-0.785791	-0.091074	0.724926	0.510804	0.462128
12201	7.605408	-0.438232	-1.332277	-4.417000	-1.265959	0.120653	-0.306594	-0.343292	0.887779	0.579258	-0.807391	-0.112161	0.755288	0.479865	0.446395
12202	9.800778	-1.718820	-2.207389	-4.417473	-1.376080	0.146825	-0.295104	-0.338110	0.893642	0.545732	-0.827367	-0.132820	0.784277	0.448493	0.428677
12203	12.575654	-3.520644	-2.203887	-4.206236	-1.056701	0.158974	-0.285885	-0.334758	0.897890	0.512513	-0.845136	-0.151908	0.809691	0.416753	0.413179
12204	13.386086	-8.066668	-0.513762	-3.615824	-0.731421	0.364937	-0.278001	-0.334934	0.900297	0.483943	-0.858442	-0.169927	0.829768	0.388453	0.400737
12205	13.171080	-12.185031	0.050078	-2.595543	-0.926747	0.613874	-0.267338	-0.336642	0.902886	0.463792	-0.866271	-0.185664	0.844646	0.369116	0.387719
12206	14.156966	-11.794657	-1.459849	-1.657338	-1.064910	0.609854	-0.255428	-0.338078	0.905793	0.451346	-0.870214	-0.197522	0.855011	0.358373	0.374867
12207	13.691682	-6.899629	-2.870242	-0.712447	-0.809938	0.566145	-0.245927	-0.340058	0.907679	0.446556	-0.870888	-0.205284	0.860295	0.354844	0.366030
12208	11.385795	-1.555119	-1.459211	-0.167365	-0.658269	0.561458	-0.237680	-0.342621	0.908911	0.446516	-0.869538	-0.211015	0.862631	0.355690	0.359657
12209	11.123824	-0.287277	-0.778740	-0.242810	-0.713310	0.459922	-0.229429	-0.344030	0.910497	0.445420	-0.868861	-0.216059	0.865426	0.355984	0.352580
12210	11.118824	0.044066	-0.495637	-0.426090	-0.757785	0.351758	-0.221226	-0.344408	0.912383	0.442562	-0.869136	-0.220775	0.869021	0.354944	0.344697
12211	10.542129	-0.378229	0.421487	-0.429869	-0.789876	0.273490	-0.213097	-0.343933	0.914494	0.439343	-0.869755	-0.224731	0.872678	0.353887	0.336447
12212	9.671767	-1.425826	0.265459	-0.383946	-0.892298	0.221384	-0.204255	-0.342718	0.916965	0.436491	-0.870325	-0.228057	0.876217	0.353665	0.327362
12213	9.329066	-2.408393	0.371525	-0.328814	-1.008829	0.229731	-0.194356	-0.341087	0.919720	0.433974	-0.870750	-0.231218	0.879711	0.354196	0.317258
12214	9.136302	-3.410132	0.929837	-0.185850	-1.051405	0.308348	-0.183685	-0.340052	0.922293	0.432962	-0.870331	-0.234664	0.882498	0.356214	0.307097
12215	8.451012	-3.683097	1.745121	0.005720	-1.063008	0.390752	-0.172546	-0.339591	0.924611	0.433639	-0.869019	-0.238249	0.884412	0.359838	0.297206
12216	8.225848	-3.291476	2.486858	0.094358	-1.089370	0.445928	-0.160896	-0.339532	0.926731	0.435260	-0.867135	-0.242129	0.885811	0.364411	0.287303
12217	8.196401	-2.419761	2.897452	0.037696	-1.084180	0.467925	-0.149201	-0.339556	0.928677	0.436215	-0.865462	-0.246360	0.887387	0.368345	0.277247
12218	8.333765	-1.312124	3.124665	-0.184559	-1.057518	0.434597	-0.137840	-0.339423	0.930479	0.435240	-0.864639	-0.250930	0.889700	0.370393	0.266913
12219	8.648323	-1.055405	3.513601	-0.504808	-0.985034	0.326966	-0.127575	-0.338568	0.932253	0.431133	-0.865418	-0.255297	0.893224	0.369355	0.256373
12220	8.607334	-1.526025	3.651318	-0.823602	-0.910995	0.210504	-0.118445	-0.337060	0.934003	0.424056	-0.867704	-0.259358	0.897857	0.365350	0.245708
12221	8.806617	-2.347473	3.329119	-1.105955	-0.836309	0.109838	-0.110392	-0.334947	0.935748	0.414168	-0.871363	-0.263041	0.903481	0.358520	0.234916
12222	8.633113	-3.156428	2.960462	-1.320412	-0.778922	0.037184	-0.103108	-0.332530	0.937439	0.402278	-0.875887	-0.266450	0.909693	0.349638	0.224080
12223	8.625678	-3.940916	2.521342	-1.431191	-0.762455	-0.002292	-0.096092	-0.329847	0.939131	0.389167	-0.880845	-0.269556	0.916142	0.339577	0.213008
12224	8.606595	-4.338570	1.768916	-1.453306	-0.769515	-0.022376	-0.089034	-0.327093	0.940789	0.375826	-0.885753	-0.272391	0.922403	0.329321	0.201792
12225	8.834971	-4.146182	1.140041	-1.412351	-0.800699	-0.042341	-0.081709	-0.324094	0.942490	0.362695	-0.890481	-0.274765	0.928319	0.319386	0.190308
12226	8.983230	-3.911490	0.669482	-1.342727	-0.801202	-0.066502	-0.074417	-0.320997	0.944152	0.350182	-0.894895	-0.276650	0.933721	0.310038	0.179003
12227	8.987467	-3.811457	0.439561	-1.254107	-0.792917	-0.122780	-0.067332	-0.317455	0.945880	0.338360	-0.899116	-0.277674	0.938605	0.301351	0.167953
12228	9.149520	-4.057555	0.342767	-1.147507	-0.793698	-0.169284	-0.060359	-0.313589	0.947639	0.327496	-0.903039	-0.277970	0.942923	0.293570	0.157205
12229	9.017839	-4.377733	0.115663	-1.012451	-0.792887	-0.195325	-0.053408	-0.309507	0.949396	0.317830	-0.906578	-0.277669	0.946642	0.286917	0.146789
12230	8.862913	-4.659058	-0.039902	-0.838009	-0.808851	-0.203228	-0.046307	-0.305382	0.951103	0.309823	-0.909562	-0.276960	0.949666	0.281848	0.136734
12231	8.977210	-4.638084	0.019944	-0.644836	-0.843313	-0.184924	-0.038763	-0.301326	0.952733	0.303621	-0.911922	-0.276065	0.952004	0.278569	0.126837
12232	8.935153	-4.209624	0.130076	-0.470524	-0.866999	-0.194281	-0.031018	-0.297166	0.954322	0.299109	-0.913787	-0.274822	0.953715	0.276922	0.117229
12233	9.009699	-3.553220	0.261628	-0.346072	-0.876733	-0.207045	-0.023164	-0.292843	0.955880	0.295779	-0.915339	-0.273256	0.954975	0.276400	0.107819
12234	9.393424	-2.802478	0.636400	-0.299801	-0.885082	-0.213823	-0.015267	-0.288461	0.957370	0.292912	-0.916766	-0.271555	0.956017	0.276279	0.098490
12235	9.304656	-2.272731	0.770760	-0.304766	-0.849393	-0.239993	-0.007744	-0.283909	0.958820	0.289978	-0.918285	-0.269565	0.957002	0.275949	0.089439
12236	9.348652	-1.722701	1.021536	-0.353154	-0.827899	-0.250954	-0.000472	-0.279344	0.960191	0.286624	-0.919942	-0.267494	0.958043	0.275088	0.080501
12237	9.505205	-1.787956	1.113023	-0.423298	-0.802378	-0.246325	0.006620	-0.274871	0.961458	0.282594	-0.921773	-0.265471	0.959217	0.273460	0.071574
12238	9.355778	-1.779414	1.117938	-0.465624	-0.756786	-0.249316	0.013254	-0.270531	0.962620	0.278187	-0.923699	-0.263423	0.960435	0.271280	0.063016
12239	9.260779	-2.102736	1.233107	-0.509077	-0.727139	-0.239195	0.019682	-0.266352	0.963675	0.273355	-0.925703	-0.261440	0.961712	0.268571	0.054589
12240	9.235593	-2.533574	1.440306	-0.512283	-0.714825	-0.230585	0.026004	-0.262329	0.964628	0.268515	-0.927660	-0.259514	0.962924	0.265766	0.046316
12241	9.249896	-2.739782	1.632720	-0.468656	-0.697104	-0.229248	0.032221	-0.258353	0.965513	0.264135	-0.929470	-0.257524	0.963947	0.263324	0.038292
12242	9.017685	-2.783895	2.060968	-0.414869	-0.657443	-0.205958	0.038089	-0.254737	0.966260	0.260243	-0.931065	-0.255717	0.964791	0.261203	0.030830
12243	8.704951	-2.818407	2.420388	-0.428124	-0.655037	-0.173131	0.044067	-0.251419	0.966875	0.256233	-0.932596	-0.254183	0.965610	0.258946	0.023325
12244	8.671257	-2.937033	2.596790	-0.453613	-0.670622	-0.151780	0.050228	-0.248298	0.967381	0.251959	-0.934124	-0.252844	0.966434	0.256440	0.015642
12245	8.871932	-3.118170	2.800492	-0.477691	-0.683591	-0.126509	0.056614	-0.245372	0.967774	0.247439	-0.935639	-0.251700	0.967248	0.253715	0.007744
12246	8.695825	-3.037742	2.604327	-0.511478	-0.696183	-0.110519	0.063147	-0.242606	0.968068	0.242591	-0.937179	-0.250689	0.968071	0.250675	-0.000326
12247	8.777793	-2.596306	2.194124	-0.592674	-0.725059	-0.113809	0.069987	-0.239739	0.968311	0.236967	-0.938911	-0.249587	0.968994	0.246925	-0.008901
12248	8.519328	-1.935391	1.666482	-0.750778	-0.746671	-0.157556	0.076926	-0.236459	0.968592	0.229838	-0.941100	-0.248001	0.970184	0.241697	-0.018048
12249	8.702688	-1.468946	1.204116	-0.950473	-0.767448	-0.240529	0.083934	-0.232369	0.968999	0.220897	-0.943898	-0.245483	0.971679	0.234653	-0.027895
12250	9.087479	-1.296569	0.655850	-1.160577	-0.780515	-0.327788	0.090885	-0.227499	0.969528	0.209930	-0.947303	-0.241963	0.973483	0.225524	-0.038337
12251	9.822126	-1.544662	0.193491	-1.320012	-0.812772	-0.388067	0.098099	-0.222032	0.970092	0.197483	-0.951065	-0.237647	0.975386	0.214890	-0.049451
12252	9.190661	-2.326076	-0.362242	-1.341401	-0.803870	-0.483485	0.105088	-0.215768	0.970773	0.184913	-0.954915	-0.232261	0.977120	0.203916	-0.060452
12253	9.077625	-3.230646	-0.328256	-1.274471	-0.740546	-0.519937	0.111490	-0.209328	0.971469	0.173105	-0.958528	-0.226405	0.978573	0.193408	-0.070631
12254	10.876850	-3.803481	0.506092	-1.109785	-0.796173	-0.504582	0.118502	-0.203008	0.971980	0.162854	-0.961648	-0.220705	0.979508	0.184445	-0.080897
12255	9.106207	-3.645220	0.219075	-0.912320	-0.534124	-0.446073	0.123117	-0.197756	0.972489	0.154547	-0.964168	-0.215629	0.980284	0.176843	-0.088143
12256	10.190284	-3.403944	1.268848	-0.801110	-0.625014	-0.398015	0.128709	-0.192859	0.972748	0.147227	-0.966321	-0.211065	0.980693	0.170381	-0.095980
12257	10.870825	-3.682335	2.103202	-0.691922	-0.489533	-0.360101	0.133083	-0.188564	0.973002	0.141036	-0.968140	-0.206913	0.981019	0.164765	-0.102248
12258	11.139129	-3.784800	3.323601	-0.641547	-0.315076	-0.277445	0.135855	-0.185397	0.973227	0.135147	-0.969684	-0.203587	0.981468	0.159187	-0.106680
12259	11.857929	-4.049306	4.954724	-0.528932	-0.280529	-0.262221	0.138342	-0.182426	0.973438	0.130434	-0.970972	-0.200501	0.981758	0.154707	-0.110532
12260	13.236205	-4.754366	6.152867	-0.411338	0.065727	-0.187947	0.137518	-0.180732	0.973871	0.126686	-0.971928	-0.198261	0.982364	0.150641	-0.110761
12261	12.625063	-4.506353	6.227817	-0.235852	0.373904	-0.127843	0.133758	-0.180065	0.974518	0.124697	-0.972481	-0.196803	0.983138	0.147844	-0.107623
12262	12.726500	-3.290128	6.751535	-0.115022	0.724010	-0.153010	0.126509	-0.179670	0.975558	0.123798	-0.972911	-0.195237	0.984210	0.145472	-0.100839
12263	13.118705	-1.903295	7.422588	-0.039853	1.120923	-0.261271	0.115201	-0.178771	0.977123	0.123857	-0.973411	-0.192695	0.985590	0.143222	-0.089996
12264	13.124830	-1.013002	7.389610	-0.046545	1.589262	-0.346657	0.099157	-0.177679	0.979080	0.123804	-0.974081	-0.189310	0.987340	0.139986	-0.074590
12265	11.976925	-0.577665	5.930936	-0.162234	2.101677	-0.369560	0.077977	-0.176993	0.981118	0.122721	-0.974926	-0.185630	0.989373	0.134879	-0.054301
12266	10.408891	-0.143212	4.254461	-0.248106	2.200032	-0.422051	0.055741	-0.175808	0.982845	0.120583	-0.975985	-0.181420	0.991137	0.128627	-0.033203
12267	11.071928	0.079105	3.572754	-0.443815	2.351880	-0.507728	0.031852	-0.173812	0.984264	0.116631	-0.977389	-0.176372	0.992664	0.120413	-0.010860
12268	10.436549	-0.691591	2.065188	-0.772253	2.537554	-0.557211	0.006078	-0.171300	0.985200	0.109104	-0.979223	-0.170933	0.994012	0.108528	0.012737
12269	11.014145	-2.193067	0.479740	-1.153480	2.480266	-0.505964	-0.019085	-0.168881	0.985452	0.097785	-0.981221	-0.166262	0.995025	0.093189	0.035241
12270	12.015712	-3.593849	-1.262952	-1.438151	2.458018	-0.337171	-0.043794	-0.167673	0.984869	0.083405	-0.982987	-0.163643	0.995553	0.074976	0.057034
12271	12.959402	-4.479017	-1.964533	-1.491147	2.353646	-0.110388	-0.067266	-0.168196	0.983456	0.068774	-0.984125	-0.163607	0.995362	0.056631	0.077766
12272	13.646317	-4.731326	-1.955780	-1.302512	2.241665	0.129460	-0.089427	-0.170593	0.981275	0.055959	-0.984527	-0.166059	0.994420	0.040061	0.097590
12273	13.090860	-4.673773	-1.626510	-0.946330	2.036030	0.310115	-0.109453	-0.174407	0.978572	0.047118	-0.984290	-0.170156	0.992875	0.027484	0.115951
12274	13.004472	-4.428216	-1.532207	-0.553520	1.779557	0.477052	-0.126832	-0.179554	0.975538	0.042235	-0.983566	-0.175540	0.991025	0.018937	0.132331
12275	12.222637	-3.756852	-1.645007	-0.221605	1.498393	0.566634	-0.141374	-0.185462	0.972429	0.041071	-0.982548	-0.181421	0.989104	0.014290	0.146524
12276	11.612975	-2.795176	-1.617985	0.017303	1.440084	0.612540	-0.155288	-0.191705	0.969090	0.042196	-0.981382	-0.187375	0.986968	0.011794	0.160486
12277	9.956734	-2.141945	-2.328422	0.210158	1.227949	0.463160	-0.167129	-0.196485	0.966158	0.045267	-0.980437	-0.191559	0.984895	0.011721	0.172753
12278	9.693019	-2.054621	-1.791885	0.245682	1.121183	0.352940	-0.177935	-0.200118	0.963479	0.048340	-0.979699	-0.194559	0.982854	0.011956	0.183996
12279	10.285822	-2.649730	-1.419309	0.289020	0.981178	0.338433	-0.187331	-0.203647	0.960955	0.052027	-0.978958	-0.197320	0.980918	0.013032	0.193984
12280	9.749282	-3.649420	-2.054099	0.435061	1.026469	0.309149	-0.197160	-0.206858	0.958300	0.056931	-0.978252	-0.199452	0.978717	0.015233	0.204649
12281	10.163837	-4.212813	-2.406522	0.724923	0.971877	0.368300	-0.206363	-0.210724	0.955515	0.064970	-0.977331	-0.201503	0.976316	0.020497	0.215375
12282	10.045836	-4.101139	-3.074721	1.133304	0.974874	0.477312	-0.215467	-0.215669	0.952397	0.077073	-0.976020	-0.203582	0.973465	0.029539	0.226923
12283	10.003135	-3.542462	-3.612479	1.623994	1.001881	0.584355	-0.224653	-0.221783	0.948864	0.094187	-0.974137	-0.205390	0.969876	0.043229	0.239732
12284	9.650828	-3.135678	-3.678984	2.106409	0.993479	0.642531	-0.233530	-0.228592	0.945098	0.116090	-0.971575	-0.206311	0.965395	0.061537	0.253429
12285	9.306394	-2.917793	-3.610993	2.544427	0.990799	0.689838	-0.242081	-0.236097	0.941092	0.142410	-0.968084	-0.206236	0.959748	0.084096	0.267978
12286	8.645150	-2.862355	-3.618699	2.945365	0.963329	0.742612	-0.250062	-0.244241	0.936918	0.172454	-0.963423	-0.205123	0.952748	0.110282	0.283035
12287	8.338519	-2.873562	-3.471581	3.346673	0.897395	0.792289	-0.256999	-0.253021	0.932701	0.206251	-0.957243	-0.202848	0.944146	0.140238	0.298196
12288	8.078104	-2.621086	-3.386088	3.743723	0.857814	0.827996	-0.263126	-0.262293	0.928422	0.243604	-0.949213	-0.199126	0.933500	0.173772	0.313658
12289	7.815827	-2.036301	-3.099855	4.097457	0.852004	0.835856	-0.268704	-0.271900	0.924050	0.283960	-0.939058	-0.193744	0.920415	0.210334	0.329538
12290	7.592353	-1.194405	-2.932858	4.349944	0.874420	0.790032	-0.274209	-0.281305	0.919607	0.325857	-0.926869	-0.186362	0.904780	0.248558	0.345821
12291	7.361677	-0.377564	-2.550046	4.489936	0.915188	0.688152	-0.279923	-0.290123	0.915135	0.368029	-0.912846	-0.176824	0.886678	0.287299	0.362300
12292	7.286195	0.458446	-1.937513	4.512771	0.969612	0.539928	-0.286257	-0.298001	0.910633	0.409167	-0.897407	-0.165052	0.866394	0.325354	0.378822
12293	7.500720	1.261905	-0.871803	4.407039	1.020752	0.383767	-0.293241	-0.304945	0.906101	0.448026	-0.881085	-0.151531	0.844561	0.361522	0.394993
12294	8.035011	2.654240	0.787909	4.133319	1.048814	0.261777	-0.300695	-0.311209	0.901516	0.483301	-0.864625	-0.137272	0.822194	0.394426	0.410396
12295	9.716486	4.238814	2.074539	3.678877	1.028235	0.248553	-0.307692	-0.317552	0.896931	0.513953	-0.848780	-0.124193	0.800736	0.422768	0.424370
12296	7.518152	5.060361	2.462350	3.058571	1.069899	0.181689	-0.315131	-0.323735	0.892126	0.538760	-0.834893	-0.112657	0.781301	0.445139	0.437516
12297	7.426649	6.969293	3.618888	2.372813	0.708070	0.121829	-0.319836	-0.327958	0.888903	0.557547	-0.823694	-0.103288	0.766059	0.462570	0.446299
12298	7.872040	8.009435	3.872079	1.513968	0.429609	0.101089	-0.322468	-0.330805	0.886895	0.569439	-0.816242	-0.097408	0.756144	0.473621	0.451585
12299	7.975844	7.342603	3.549886	0.690915	0.275163	-0.033438	-0.324636	-0.331828	0.885721	0.574583	-0.813031	-0.093998	0.751310	0.478405	0.454601
12300	7.994149	6.354127	3.533051	0.020982	0.195153	-0.221902	-0.327307	-0.330962	0.885062	0.574061	-0.813633	-0.091957	0.750549	0.477981	0.456300
12301	7.995663	5.393303	3.702446	-0.517675	0.097014	-0.386116	-0.330152	-0.328250	0.885015	0.568947	-0.817335	-0.090904	0.753193	0.473514	0.456602
12302	8.102023	4.248100	4.246170	-0.926287	0.031114	-0.497954	-0.333131	-0.324318	0.885348	0.560339	-0.823278	-0.090742	0.758317	0.465866	0.455987
12303	8.328650	2.850544	4.919005	-1.221605	-0.017146	-0.537245	-0.335895	-0.319766	0.885960	0.549286	-0.830606	-0.091536	0.765153	0.455899	0.454639
12304	8.440004	0.792758	5.956262	-1.445464	0.008137	-0.493661	-0.338570	-0.315691	0.886403	0.536549	-0.838646	-0.093742	0.772972	0.443860	0.453324
12305	9.082088	-2.095394	8.423291	-1.590628	0.089040	-0.379922	-0.341192	-0.312847	0.886405	0.522949	-0.846762	-0.097563	0.781096	0.430257	0.452512
12306	9.802654	-4.676390	10.833791	-1.495571	0.375737	-0.219957	-0.345208	-0.312578	0.884944	0.510510	-0.853751	-0.102415	0.787535	0.416418	0.454296
12307	10.013893	-5.372046	11.292404	-1.161619	0.718403	-0.030949	-0.350958	-0.315239	0.881733	0.501286	-0.858586	-0.107436	0.790912	0.404295	0.459352
12308	9.563885	-4.106811	9.846542	-0.917183	0.954854	0.168871	-0.357607	-0.320513	0.877148	0.494671	-0.861678	-0.113186	0.792097	0.393423	0.466691
12309	8.416125	-2.157550	8.194157	-0.942418	1.039231	0.240946	-0.364589	-0.326610	0.872010	0.488123	-0.864525	-0.119722	0.792976	0.381999	0.474622
12310	7.349933	-0.515830	6.698438	-1.097122	0.978682	0.182177	-0.371409	-0.331879	0.867129	0.480131	-0.868018	-0.126570	0.794689	0.369326	0.481735
12311	6.148644	0.224161	5.622847	-1.232795	0.813894	0.096928	-0.377361	-0.335667	0.863091	0.470731	-0.872138	-0.133372	0.797503	0.355954	0.487119
12312	4.796770	0.257432	4.653930	-1.329192	0.528714	0.032399	-0.381371	-0.337813	0.860487	0.460273	-0.876643	-0.140161	0.801689	0.342606	0.489813
12313	4.386968	-0.507718	4.006542	-1.405393	0.097600	0.026033	-0.381976	-0.338364	0.860002	0.449116	-0.881256	-0.147249	0.807706	0.329996	0.488583
12314	4.825006	-1.289995	2.875380	-1.367023	-0.324718	0.140360	-0.378651	-0.338568	0.861391	0.438607	-0.885191	-0.155119	0.815014	0.319076	0.483677
12315	5.216535	-2.062036	1.344646	-1.166459	-0.687272	0.330851	-0.371525	-0.339332	0.864189	0.430349	-0.887720	-0.163560	0.822660	0.311137	0.475842
12316	6.120556	-2.512095	-0.173000	-0.858274	-1.025417	0.508466	-0.360809	-0.340698	0.868183	0.425167	-0.888618	-0.172022	0.830090	0.307056	0.465475
12317	7.433934	-2.833785	-1.177398	-0.522157	-1.273164	0.584396	-0.347653	-0.341980	0.873033	0.422937	-0.888202	-0.179502	0.836816	0.306834	0.453422
12318	8.653202	-3.094995	-0.932079	-0.224706	-1.403348	0.543084	-0.333505	-0.342493	0.878335	0.422948	-0.887010	-0.185282	0.842549	0.309698	0.440679
12319	10.991428	-4.086847	1.550788	-0.060961	-1.390845	0.438516	-0.319821	-0.342039	0.883586	0.423915	-0.885675	-0.189408	0.847355	0.313989	0.428253
12320	14.870166	-5.670115	5.454407	0.108155	-1.104006	0.423928	-0.308579	-0.342315	0.887468	0.426212	-0.883855	-0.192725	0.850366	0.318779	0.418638
12321	16.453701	-6.471211	9.638402	0.692039	-0.562830	0.314790	-0.302363	-0.343273	0.889236	0.433103	-0.880518	-0.192641	0.849117	0.326883	0.414908
12322	14.309413	-4.389330	11.864314	1.535740	-0.062549	0.191469	-0.300923	-0.344762	0.889148	0.446716	-0.874706	-0.187975	0.842550	0.340631	0.417230
12323	10.137022	1.382822	9.389454	1.943958	-0.117819	0.284692	-0.298561	-0.346829	0.889140	0.463914	-0.866904	-0.182379	0.834053	0.358033	0.419723
12324	7.586644	6.653491	4.766231	1.263520	-0.522542	0.299153	-0.292741	-0.347525	0.890803	0.475354	-0.861231	-0.179775	0.829663	0.370820	0.417315
12325	8.354017	8.200430	1.989448	-0.020363	-0.674216	0.230703	-0.285973	-0.346995	0.893204	0.475902	-0.860479	-0.181914	0.831707	0.373055	0.411210
12326	8.871656	5.950777	-0.168999	-1.269241	-0.574288	0.301034	-0.279688	-0.347488	0.895001	0.466194	-0.864083	-0.189799	0.839308	0.364159	0.403670
12327	8.910820	1.575526	-0.844263	-1.943277	-0.456350	0.423531	-0.273824	-0.349511	0.896026	0.451008	-0.869513	-0.201341	0.849477	0.348983	0.395726
12328	8.285042	-3.137561	-0.331789	-2.031306	-0.480892	0.478694	-0.267524	-0.352062	0.896930	0.434989	-0.874733	-0.213607	0.859776	0.333009	0.387155
12329	8.714357	-6.427572	-0.549058	-1.841654	-0.711058	0.475790	-0.259267	-0.353891	0.898633	0.420369	-0.879041	-0.224893	0.869523	0.319450	0.376672
12330	9.541667	-7.800785	-0.907410	-1.498098	-0.895208	0.419373	-0.249638	-0.354788	0.901003	0.408392	-0.882238	-0.234247	0.878007	0.309485	0.365133
12331	9.503053	-7.482145	-0.336978	-1.049427	-0.949056	0.365983	-0.239711	-0.355093	0.903575	0.400087	-0.884137	-0.241314	0.884573	0.303663	0.354006
12332	9.238350	-6.216712	0.399896	-0.639221	-1.021112	0.361817	-0.229145	-0.355222	0.906261	0.395310	-0.884760	-0.246841	0.889507	0.301692	0.343161
12333	9.022296	-4.601579	0.743095	-0.343842	-1.071337	0.395928	-0.217942	-0.355475	0.908922	0.393175	-0.884371	-0.251598	0.893261	0.302532	0.332506
12334	9.080176	-3.222085	1.133186	-0.174772	-1.059110	0.414811	-0.206767	-0.355945	0.911346	0.392537	-0.883399	-0.255970	0.896193	0.304810	0.322379
12335	9.116671	-2.506386	1.288730	-0.092983	-1.020136	0.356098	-0.196117	-0.355953	0.913693	0.392462	-0.882396	-0.259521	0.898616	0.307694	0.312751
12336	9.256452	-1.930403	1.333634	-0.072555	-0.990401	0.258377	-0.186123	-0.355188	0.916078	0.392347	-0.881674	-0.262134	0.900790	0.310631	0.303457
12337	9.256225	-1.484870	1.411937	-0.104093	-0.920142	0.144301	-0.177159	-0.353577	0.918476	0.391712	-0.881467	-0.263776	0.902871	0.313048	0.294660
12338	9.236982	-1.150947	1.521381	-0.177926	-0.867023	0.061987	-0.169009	-0.351421	0.920836	0.390254	-0.881780	-0.264889	0.905062	0.314591	0.286173
12339	9.161148	-1.314337	1.653886	-0.275839	-0.827145	-0.005313	-0.161432	-0.348753	0.923207	0.387786	-0.882647	-0.265623	0.907503	0.315127	0.277729
12340	9.006554	-1.711767	1.678275	-0.377043	-0.805770	-0.037736	-0.154184	-0.345901	0.925516	0.384342	-0.883939	-0.266333	0.910224	0.314650	0.269234
12341	9.111566	-2.384543	1.638088	-0.445733	-0.800910	-0.053825	-0.146985	-0.342890	0.927805	0.380238	-0.885505	-0.267019	0.913134	0.313539	0.260536
12342	9.162454	-3.136786	1.713271	-0.466689	-0.791142	-0.045873	-0.139853	-0.340027	0.929958	0.375946	-0.887095	-0.267818	0.916027	0.312159	0.251895
12343	9.287003	-3.855179	1.784451	-0.424721	-0.775835	-0.010039	-0.132669	-0.337501	0.931929	0.372076	-0.888435	-0.268781	0.918672	0.311090	0.243444
12344	9.342635	-3.990008	1.882062	-0.355602	-0.741371	0.057637	-0.125567	-0.335729	0.933552	0.368922	-0.889319	-0.270200	0.920940	0.310480	0.235526
12345	9.214331	-3.620757	1.910709	-0.312151	-0.714985	0.113048	-0.118453	-0.334498	0.934922	0.366220	-0.889891	-0.271987	0.922958	0.310170	0.227911
12346	9.109529	-3.120055	1.870727	-0.349132	-0.687506	0.127129	-0.111568	-0.333519	0.936118	0.363182	-0.890521	-0.273989	0.925014	0.309413	0.220481
12347	8.964667	-2.750079	1.685589	-0.439678	-0.670317	0.113751	-0.104842	-0.332448	0.937276	0.359271	-0.891481	-0.276017	0.927326	0.307798	0.212903
12348	9.094567	-2.596964	1.468425	-0.571587	-0.673533	0.060446	-0.098301	-0.330943	0.938517	0.354065	-0.893006	-0.277810	0.930040	0.304987	0.204959
12349	9.130269	-2.579868	1.217169	-0.700558	-0.673467	-0.012283	-0.091963	-0.328777	0.939920	0.347564	-0.895152	-0.279111	0.933136	0.301014	0.196592
12350	9.338112	-2.637438	0.949566	-0.798610	-0.687567	-0.075116	-0.085724	-0.326070	0.941451	0.340072	-0.897757	-0.279971	0.936484	0.296161	0.187847
12351	9.377755	-2.861100	0.782318	-0.867223	-0.689062	-0.128757	-0.079584	-0.322875	0.943090	0.331866	-0.900702	-0.280358	0.939964	0.290667	0.178832
12352	9.279717	-3.373973	0.734739	-0.875911	-0.695848	-0.172100	-0.073526	-0.319340	0.944784	0.323526	-0.903751	-0.280293	0.943358	0.285054	0.169764
12353	9.352486	-3.722896	0.901531	-0.803959	-0.714301	-0.176969	-0.067233	-0.315705	0.946473	0.315841	-0.906569	-0.279959	0.946427	0.280113	0.160663
12354	9.280674	-3.958188	1.153998	-0.678035	-0.703755	-0.168300	-0.061020	-0.312241	0.948041	0.309348	-0.908959	-0.279458	0.948989	0.276222	0.152056
12355	9.105968	-3.958855	1.345758	-0.537500	-0.693105	-0.146477	-0.054774	-0.308990	0.949487	0.304191	-0.910876	-0.278877	0.951035	0.273550	0.143885
12356	9.020690	-3.717111	1.477593	-0.422075	-0.674998	-0.125542	-0.048660	-0.306027	0.950778	0.300149	-0.912389	-0.278310	0.952650	0.271833	0.136250
12357	8.860730	-3.394082	1.638758	-0.343902	-0.670585	-0.107818	-0.042478	-0.303213	0.951975	0.296855	-0.913635	-0.277756	0.953977	0.270801	0.128820
12358	8.696303	-3.053658	1.686226	-0.327712	-0.663387	-0.099602	-0.036371	-0.300532	0.953078	0.293727	-0.914798	-0.277252	0.955197	0.269861	0.121546
12359	8.814493	-2.812064	1.929744	-0.333645	-0.662986	-0.103873	-0.030227	-0.297787	0.954154	0.290538	-0.915991	-0.276672	0.956386	0.268854	0.114206
12360	8.895164	-2.780674	2.170159	-0.369045	-0.653747	-0.115778	-0.024237	-0.294995	0.955191	0.287013	-0.917301	-0.276011	0.957620	0.267463	0.106900
12361	8.852555	-2.770827	2.331735	-0.409889	-0.617150	-0.122567	-0.018564	-0.292218	0.956172	0.283093	-0.918738	-0.275281	0.958913	0.265575	0.099781
12362	8.714502	-2.766886	2.502543	-0.466203	-0.580203	-0.141602	-0.013326	-0.289405	0.957114	0.278635	-0.920359	-0.274412	0.960305	0.263029	0.092903
12363	8.497832	-2.832342	2.541416	-0.542207	-0.540611	-0.154794	-0.008453	-0.286560	0.958025	0.273441	-0.922206	-0.273434	0.961851	0.259652	0.086153
12364	8.205663	-2.985480	2.498122	-0.625983	-0.515607	-0.177513	-0.003901	-0.283617	0.958930	0.267443	-0.924302	-0.272288	0.963566	0.255396	0.079457
12365	8.137971	-3.015888	2.267623	-0.719597	-0.526900	-0.196911	0.000763	-0.280459	0.959866	0.260533	-0.926661	-0.270965	0.965465	0.250283	0.072362
12366	8.436814	-2.926300	1.815214	-0.824221	-0.554128	-0.232255	0.005590	-0.276958	0.960866	0.252612	-0.929325	-0.269337	0.967551	0.244232	0.064768
12367	8.687693	-2.949163	1.334994	-0.919544	-0.572241	-0.268722	0.010565	-0.273079	0.961934	0.243761	-0.932263	-0.267333	0.969778	0.237306	0.056717
12368	9.023655	-3.067231	0.933973	-0.988347	-0.605191	-0.304738	0.015780	-0.268845	0.963054	0.234243	-0.935376	-0.264957	0.972050	0.229770	0.048215
12369	9.314385	-3.213988	0.559123	-1.038356	-0.611778	-0.337256	0.021057	-0.264306	0.964209	0.224235	-0.938604	-0.262184	0.974308	0.221730	0.039502
12370	9.489912	-3.096293	0.195385	-1.061450	-0.634343	-0.382926	0.026472	-0.259352	0.965420	0.214010	-0.941897	-0.258901	0.976473	0.213463	0.030570
12371	9.511891	-3.338599	0.421146	-1.064335	-0.635849	-0.440799	0.031863	-0.253866	0.966714	0.203769	-0.945242	-0.254943	0.978500	0.205109	0.021612
12372	9.294122	-3.925836	0.615489	-1.026691	-0.650281	-0.477635	0.037348	-0.248064	0.968024	0.193916	-0.948487	-0.250539	0.980307	0.197072	0.012679
12373	9.238401	-4.127399	0.705810	-0.962036	-0.679824	-0.491048	0.043183	-0.242092	0.969292	0.184709	-0.951537	-0.245886	0.981844	0.189655	0.003626
12374	9.403608	-3.777645	0.941862	-0.906315	-0.705392	-0.491944	0.049292	-0.236119	0.970473	0.176069	-0.954383	-0.241147	0.983143	0.182757	-0.005470
12375	9.196810	-3.274437	1.456105	-0.872436	-0.718456	-0.499422	0.055594	-0.230069	0.971585	0.167782	-0.957100	-0.236239	0.984255	0.176148	-0.014608
12376	9.670634	-2.980257	2.232056	-0.867703	-0.685821	-0.496995	0.061599	-0.224150	0.972606	0.159565	-0.959712	-0.231285	0.985264	0.169441	-0.023351
12377	10.395962	-3.044071	3.214837	-0.856198	-0.625743	-0.513415	0.067058	-0.218193	0.973599	0.151490	-0.962256	-0.226085	0.986182	0.162651	-0.031473
12378	10.787587	-3.626793	4.315095	-0.804403	-0.506389	-0.507725	0.071368	-0.212525	0.974546	0.143941	-0.964616	-0.220901	0.987009	0.156042	-0.038252
12379	10.474164	-4.629101	5.160036	-0.720661	-0.320535	-0.447463	0.073985	-0.207733	0.975384	0.137185	-0.966646	-0.216278	0.987779	0.149810	-0.043020
12380	10.605935	-5.652770	6.432534	-0.550493	-0.170141	-0.361086	0.075244	-0.204021	0.976070	0.132051	-0.968186	-0.212553	0.988383	0.144885	-0.045909
12381	10.366153	-6.099092	7.349503	-0.324890	0.064883	-0.229959	0.074372	-0.201914	0.976575	0.129047	-0.969105	-0.210197	0.988846	0.141657	-0.046018
12382	10.139465	-5.979982	7.614762	-0.121132	0.294098	-0.100268	0.071398	-0.201388	0.976906	0.127958	-0.969464	-0.209206	0.989206	0.139940	-0.043449
12383	10.488231	-4.381958	6.813244	0.018248	0.516818	-0.050636	0.066275	-0.201655	0.977212	0.128211	-0.969525	-0.208764	0.989530	0.139125	-0.038401
12384	11.087008	-1.924295	5.572268	0.064381	0.811249	-0.120821	0.058155	-0.201640	0.977732	0.128960	-0.969666	-0.207647	0.989943	0.138164	-0.030387
12385	11.459035	-0.080619	4.632321	0.049354	1.131611	-0.258194	0.046659	-0.200729	0.978535	0.129624	-0.970102	-0.205180	0.990465	0.136415	-0.019244
12386	11.388494	0.977484	3.670757	-0.027262	1.390971	-0.394585	0.032430	-0.198809	0.979501	0.129547	-0.970914	-0.201355	0.991043	0.133422	-0.005731
12387	10.667971	1.110827	2.496280	-0.205673	1.603227	-0.547215	0.015866	-0.195627	0.980550	0.127683	-0.972248	-0.196036	0.991688	0.128310	0.009552
12388	11.011810	0.824249	2.082555	-0.463291	1.646533	-0.673216	-0.001249	-0.191158	0.981558	0.123175	-0.974114	-0.189551	0.992384	0.120667	0.024762
12389	11.011793	0.398272	1.164231	-0.722865	1.697705	-0.798907	-0.019028	-0.185360	0.982486	0.115962	-0.976442	-0.181974	0.993071	0.110469	0.040075
12390	11.598648	-0.288221	-0.126402	-0.993984	1.724311	-0.833926	-0.037020	-0.179035	0.983146	0.105895	-0.978984	-0.174290	0.993688	0.097658	0.055201
12391	11.801569	-1.179595	-1.780309	-1.291716	1.723935	-0.795082	-0.054916	-0.172819	0.983421	0.092737	-0.981533	-0.167309	0.994175	0.082011	0.069929
12392	11.527362	-2.590706	-2.702305	-1.552211	1.617506	-0.720500	-0.071549	-0.166957	0.983365	0.076888	-0.983881	-0.161450	0.994469	0.064058	0.083233
12393	11.489789	-4.445273	-2.863328	-1.705697	1.395263	-0.568557	-0.085780	-0.162150	0.983031	0.059524	-0.985739	-0.157402	0.994534	0.045012	0.094208
12394	11.682569	-6.437341	-2.766038	-1.589859	1.114571	-0.323667	-0.096970	-0.159401	0.982440	0.043461	-0.986828	-0.155823	0.994338	0.027588	0.102620
12395	11.691656	-7.759121	-2.597994	-1.190361	0.838195	-0.011584	-0.105267	-0.159503	0.981569	0.031661	-0.987090	-0.157005	0.993940	0.014550	0.108958
12396	11.783539	-7.856405	-2.291197	-0.613024	0.607696	0.312747	-0.111156	-0.162697	0.980395	0.025952	-0.986647	-0.160792	0.993464	0.007570	0.113894
12397	11.047661	-6.939056	-2.091164	0.001011	0.480851	0.561541	-0.115738	-0.168321	0.978914	0.026643	-0.985709	-0.166339	0.992922	0.006830	0.118568
12398	10.382244	-5.588124	-1.631749	0.571431	0.388773	0.698735	-0.119328	-0.175281	0.977260	0.033181	-0.984447	-0.172519	0.992300	0.011840	0.123288
12399	10.044769	-3.879832	-0.872888	1.052134	0.382472	0.745257	-0.122779	-0.182734	0.975466	0.044562	-0.982926	-0.178523	0.991433	0.021550	0.128825
12400	9.617067	-2.160535	-0.404067	1.405707	0.415449	0.697262	-0.126472	-0.189738	0.973655	0.059404	-0.981224	-0.183497	0.990190	0.034631	0.135368
12401	9.510085	-0.681740	-0.607570	1.669854	0.455202	0.622402	-0.130494	-0.196091	0.971864	0.076767	-0.979302	-0.187284	0.988473	0.050167	0.142846
12402	9.175952	0.100413	-0.575080	1.827748	0.514395	0.493620	-0.135086	-0.201260	0.970179	0.095514	-0.977239	-0.189425	0.986220	0.067077	0.151234
12403	9.637398	-0.173251	0.336887	1.912665	0.575753	0.383017	-0.140290	-0.205489	0.968552	0.114921	-0.974994	-0.190210	0.983418	0.084622	0.160397
12404	9.735016	-0.756995	1.002756	2.024820	0.669535	0.364463	-0.146344	-0.209701	0.966752	0.135366	-0.972326	-0.190418	0.979928	0.102998	0.170680
12405	9.850012	-1.007617	1.243362	2.185920	0.688672	0.408007	-0.152416	-0.214487	0.964762	0.157393	-0.968976	-0.190559	0.975703	0.122803	0.181446
12406	9.803133	-0.745153	1.216835	2.364759	0.734520	0.448265	-0.158741	-0.219835	0.962535	0.181149	-0.964832	-0.190484	0.970560	0.144125	0.192981
12407	9.749190	0.072218	1.213895	2.530118	0.811971	0.438134	-0.165680	-0.225356	0.960086	0.206383	-0.959906	-0.189699	0.964342	0.166716	0.205547
12408	9.357115	0.936742	1.073501	2.619159	0.913572	0.363389	-0.173594	-0.230493	0.957464	0.232208	-0.954393	-0.187653	0.957050	0.189756	0.219199
12409	9.350125	1.597208	1.181721	2.569682	1.015116	0.280221	-0.182513	-0.235234	0.954649	0.257242	-0.948560	-0.184553	0.948955	0.211892	0.233637
12410	9.393189	1.714879	1.316530	2.419581	1.058854	0.204153	-0.191901	-0.239543	0.951732	0.280529	-0.942683	-0.180701	0.940467	0.232311	0.248100
12411	9.566797	1.440188	1.429426	2.208106	1.183736	0.188202	-0.202364	-0.244194	0.948377	0.301615	-0.936880	-0.176875	0.931707	0.250252	0.263243
12412	8.765188	0.348826	1.312529	2.049929	1.134776	0.075718	-0.212584	-0.247858	0.945185	0.320829	-0.931374	-0.172078	0.922972	0.266661	0.277515
12413	8.893837	-0.139762	1.229132	1.927073	1.201190	0.036002	-0.223426	-0.251505	0.941714	0.338653	-0.925980	-0.166956	0.913999	0.281612	0.292061
12414	9.197503	-0.481754	1.204595	1.848784	1.211253	-0.015843	-0.234429	-0.254877	0.938126	0.355476	-0.920662	-0.161302	0.904809	0.295668	0.306432
12415	9.416607	-0.542346	1.157109	1.738773	1.292914	-0.047591	-0.246165	-0.258359	0.934159	0.371059	-0.915510	-0.155422	0.895387	0.308369	0.321233
12416	9.405081	-0.565267	1.314062	1.589412	1.384330	-0.088794	-0.258762	-0.261913	0.929755	0.385037	-0.910730	-0.149393	0.885883	0.319333	0.336508
12417	9.214144	-0.540475	1.762174	1.399979	1.477501	-0.110806	-0.272139	-0.265700	0.924848	0.397126	-0.906466	-0.143564	0.876488	0.328212	0.352201
12418	8.820976	-0.696241	2.179177	1.214762	1.563205	-0.122518	-0.286193	-0.269794	0.919405	0.407422	-0.902741	-0.138082	0.867238	0.335067	0.368278
12419	8.338505	-0.799972	2.285977	1.042756	1.573609	-0.080477	-0.300023	-0.274390	0.913617	0.416230	-0.899415	-0.133439	0.858335	0.340240	0.384054
12420	7.731538	-0.658189	2.407105	0.888459	1.526667	-0.051211	-0.313210	-0.279171	0.907724	0.423708	-0.896492	-0.129516	0.849924	0.344044	0.399077
12421	7.189719	-0.412404	2.465402	0.759290	1.411570	-0.043119	-0.325258	-0.283667	0.902075	0.430042	-0.893965	-0.126059	0.842183	0.346929	0.412758
12422	6.971227	-0.141460	2.517110	0.637754	1.257372	-0.051692	-0.335960	-0.287599	0.896894	0.435267	-0.891867	-0.122944	0.835268	0.349084	0.424814
12423	7.043885	-0.082301	2.458105	0.544927	1.093158	-0.058896	-0.345236	-0.290903	0.892293	0.439649	-0.890105	-0.120086	0.829169	0.350838	0.435192
12424	7.070767	-0.048230	2.305657	0.494002	0.924425	-0.068768	-0.353112	-0.293560	0.888332	0.443540	-0.888543	-0.117322	0.823762	0.352583	0.443961
12425	7.216175	-0.072030	2.146426	0.475094	0.766375	-0.072750	-0.359651	-0.295626	0.885018	0.447231	-0.887052	-0.114561	0.818923	0.354605	0.451242
12426	7.405901	0.026892	2.040656	0.494744	0.588076	-0.066719	-0.364687	-0.297144	0.882445	0.451078	-0.885462	-0.111743	0.814575	0.357300	0.456952
12427	7.610596	0.278141	1.972070	0.493768	0.402518	-0.051602	-0.368111	-0.298132	0.880688	0.454950	-0.883817	-0.109030	0.810873	0.360534	0.460978
12428	7.852714	0.628694	2.173953	0.438749	0.233667	-0.036993	-0.370105	-0.298667	0.879671	0.458413	-0.882312	-0.106695	0.808010	0.363764	0.463461
12429	7.819818	0.818407	2.454235	0.337492	0.103926	0.020728	-0.370766	-0.299225	0.879202	0.461262	-0.880991	-0.105317	0.806083	0.366495	0.464663
12430	7.766736	0.888271	2.794465	0.195545	0.014453	0.125182	-0.370237	-0.300396	0.879026	0.463348	-0.879871	-0.105527	0.805129	0.368226	0.464948
12431	7.911955	0.920750	3.377881	0.027614	-0.032986	0.223241	-0.368852	-0.302230	0.878979	0.464445	-0.879070	-0.107363	0.805133	0.368636	0.464616
12432	7.639118	0.695003	3.972101	-0.172327	-0.025141	0.279586	-0.367285	-0.304610	0.878814	0.464133	-0.878829	-0.110639	0.806029	0.367251	0.464160
12433	7.685664	-0.412737	5.298329	-0.397696	-0.068231	0.361338	-0.364978	-0.307527	0.878760	0.462295	-0.879151	-0.115658	0.808130	0.364034	0.463039
12434	8.307340	-2.435359	7.517328	-0.425960	-0.074283	0.442814	-0.362266	-0.311167	0.878600	0.460506	-0.879297	-0.121537	0.810369	0.360572	0.461834
12435	8.836485	-3.520858	8.823053	-0.107492	0.021152	0.501390	-0.360047	-0.315641	0.877916	0.461494	-0.878087	-0.126437	0.810796	0.359630	0.461819
12436	8.180567	-2.293118	8.688223	0.181812	0.173408	0.504145	-0.359049	-0.320702	0.876490	0.464827	-0.875801	-0.130036	0.809333	0.360726	0.463526
12437	7.040407	-0.258442	7.918211	0.130947	0.190561	0.444020	-0.358445	-0.325272	0.875052	0.467527	-0.873868	-0.133320	0.808044	0.361322	0.465307
12438	6.055112	0.911864	7.339400	-0.088809	0.100487	0.389051	-0.357370	-0.329047	0.874079	0.468249	-0.872887	-0.137154	0.808103	0.360272	0.466019
12439	5.153493	1.224378	6.620684	-0.224640	-0.110817	0.358229	-0.354728	-0.331773	0.874125	0.467756	-0.872485	-0.141330	0.809550	0.358744	0.464684
12440	4.826840	1.380105	5.811706	-0.274393	-0.487254	0.318187	-0.349222	-0.332818	0.875943	0.466698	-0.872383	-0.145402	0.812550	0.358023	0.459981
12441	5.591488	1.206407	5.049075	-0.309281	-0.872488	0.297172	-0.340667	-0.332282	0.879508	0.465252	-0.872477	-0.149416	0.816999	0.358292	0.451819
