// General information: 
//  MT Manager version: 2022.2.0 
//  XDA version: 2022.2.0 build 7381 rev 124627 built on 2023-07-19
// Device information: 
//  DeviceId: 00B4CB9F
//  ProductCode: MTW2-3A7G6
//  Firmware Version: 4.6.0
//  Hardware Version: 2.0.0
// Device settings: 
//  Filter Profile: human(46.1)
//  Option Flags: Orientation Smoother Disabled, Position/Velocity Smoother Disabled, Continuous Zero Rotation Update Disabled, AHS Disabled, ICC Disabled
// Coordinate system: ENU
PacketCounter	Acc_X	Acc_Y	Acc_Z	Gyr_X	Gyr_Y	Gyr_Z	Mat[1][1]	Mat[2][1]	Mat[3][1]	Mat[1][2]	Mat[2][2]	Mat[3][2]	Mat[1][3]	Mat[2][3]	Mat[3][3]
35089	9.710353	0.652063	-0.260300	0.006962	-0.005860	-0.013641	-0.026040	0.064734	0.997563	0.569888	-0.818902	0.068017	0.821309	0.570270	-0.015567
35090	9.778626	0.675610	-0.232772	0.002431	-0.004148	-0.011015	-0.026007	0.064838	0.997557	0.569940	-0.818861	0.068082	0.821275	0.570318	-0.015657
35091	9.757845	0.678718	-0.205683	-0.004416	-0.005570	-0.010252	-0.025962	0.064940	0.997551	0.569957	-0.818845	0.068140	0.821265	0.570330	-0.015754
35092	9.787035	0.667649	-0.161595	-0.010488	-0.003932	-0.008135	-0.025915	0.065019	0.997547	0.569903	-0.818879	0.068179	0.821303	0.570272	-0.015833
35093	9.785748	0.642571	-0.074086	-0.017110	0.001389	-0.011696	-0.025929	0.065095	0.997542	0.569796	-0.818947	0.068251	0.821377	0.570165	-0.015856
35094	9.806371	0.641684	-0.101323	-0.019033	0.002811	-0.011782	-0.025958	0.065165	0.997537	0.569671	-0.819028	0.068328	0.821463	0.570042	-0.015862
35095	9.824601	0.618899	0.001242	-0.015650	0.005583	-0.013138	-0.026018	0.065228	0.997531	0.569580	-0.819084	0.068416	0.821524	0.569954	-0.015842
35096	9.815906	0.600077	-0.024531	-0.008501	0.009633	-0.016274	-0.026129	0.065296	0.997524	0.569540	-0.819101	0.068536	0.821548	0.569921	-0.015787
35097	9.786547	0.613712	-0.068182	-0.007736	0.006647	-0.017121	-0.026223	0.065385	0.997516	0.569532	-0.819096	0.068662	0.821551	0.569918	-0.015759
35098	9.766924	0.613366	-0.081851	0.000610	0.010205	-0.018349	-0.026350	0.065467	0.997507	0.569567	-0.819061	0.068801	0.821523	0.569960	-0.015705
35099	9.786432	0.677442	-0.157315	0.007625	0.009438	-0.013008	-0.026440	0.065507	0.997502	0.569657	-0.818991	0.068884	0.821457	0.570055	-0.015662
35100	9.724311	0.745094	-0.164689	0.005016	0.009726	-0.010297	-0.026518	0.065526	0.997498	0.569730	-0.818935	0.068942	0.821404	0.570133	-0.015616
35101	9.753530	0.764469	-0.164891	-0.003802	0.005733	-0.012800	-0.026575	0.065587	0.997493	0.569711	-0.818941	0.069026	0.821415	0.570117	-0.015602
35102	9.785068	0.715180	-0.158468	-0.011375	0.005233	-0.010218	-0.026615	0.065631	0.997489	0.569649	-0.818979	0.069085	0.821457	0.570058	-0.015589
35103	9.766702	0.709990	-0.214240	-0.015607	0.009567	-0.009966	-0.026688	0.065646	0.997486	0.569549	-0.819044	0.069141	0.821524	0.569963	-0.015530
35104	9.786122	0.682794	-0.153398	-0.013643	0.006087	-0.008906	-0.026728	0.065675	0.997483	0.569469	-0.819096	0.069188	0.821578	0.569885	-0.015507
35105	9.797059	0.695787	-0.210139	-0.012144	0.008221	-0.009371	-0.026788	0.065691	0.997480	0.569417	-0.819128	0.069238	0.821612	0.569837	-0.015463
35106	9.799387	0.658451	-0.248220	-0.010266	0.002816	-0.012465	-0.026821	0.065767	0.997474	0.569364	-0.819158	0.069320	0.821648	0.569786	-0.015474
35107	9.790756	0.639316	-0.274824	-0.001371	-0.003357	-0.010215	-0.026792	0.065855	0.997469	0.569426	-0.819110	0.069374	0.821606	0.569843	-0.015554
35108	9.750478	0.670412	-0.307743	0.000595	-0.006837	-0.009155	-0.026727	0.065959	0.997464	0.569462	-0.819081	0.069422	0.821583	0.569874	-0.015669
35109	9.748004	0.709675	-0.269586	-0.003597	-0.004565	-0.007928	-0.026673	0.066038	0.997461	0.569463	-0.819078	0.069456	0.821584	0.569869	-0.015759
35110	9.788136	0.680482	-0.237502	-0.014765	-0.003587	-0.011070	-0.026646	0.066139	0.997455	0.569373	-0.819134	0.069525	0.821647	0.569776	-0.015831
35111	9.788047	0.651268	-0.191970	-0.023191	0.003017	-0.009590	-0.026665	0.066187	0.997451	0.569220	-0.819236	0.069579	0.821752	0.569625	-0.015830
35112	9.808694	0.620047	-0.173621	-0.021309	0.003660	-0.010479	-0.026694	0.066242	0.997446	0.569077	-0.819330	0.069643	0.821851	0.569483	-0.015826
35113	9.768412	0.620901	-0.159866	-0.017499	0.008928	-0.009076	-0.026760	0.066253	0.997444	0.568973	-0.819398	0.069692	0.821921	0.569384	-0.015769
35114	9.768338	0.591716	-0.113642	-0.015662	0.005586	-0.013145	-0.026820	0.066319	0.997438	0.568875	-0.819458	0.069781	0.821986	0.569289	-0.015750
35115	9.728018	0.593062	-0.100160	-0.013824	0.002244	-0.017216	-0.026874	0.066437	0.997429	0.568759	-0.819528	0.069912	0.822065	0.569175	-0.015763
35116	9.736455	0.645330	-0.118922	-0.009204	-0.003579	-0.017895	-0.026885	0.066594	0.997418	0.568713	-0.819548	0.070048	0.822097	0.569127	-0.015839
35117	9.764382	0.729928	-0.168874	-0.006465	-0.004000	-0.015478	-0.026880	0.066732	0.997409	0.568677	-0.819564	0.070159	0.822122	0.569089	-0.015919
35118	9.721596	0.769492	-0.117257	-0.006422	-0.000016	-0.012296	-0.026889	0.066823	0.997402	0.568655	-0.819572	0.070239	0.822136	0.569067	-0.015962
35119	9.749523	0.823378	-0.121565	-0.019390	-0.003805	-0.012605	-0.026868	0.066935	0.997396	0.568542	-0.819643	0.070322	0.822215	0.568951	-0.016033
35120	9.779913	0.808499	-0.119126	-0.032744	-0.000056	-0.010281	-0.026865	0.067009	0.997391	0.568305	-0.819802	0.070385	0.822379	0.568713	-0.016057
35121	9.810325	0.763296	-0.070972	-0.037413	0.001787	-0.012784	-0.026890	0.067092	0.997384	0.568021	-0.819991	0.070473	0.822575	0.568430	-0.016061
35122	9.834694	0.659490	-0.088179	-0.038485	0.002143	-0.009564	-0.026900	0.067148	0.997380	0.567737	-0.820183	0.070531	0.822771	0.568147	-0.016059
35123	9.824889	0.644261	-0.072256	-0.031639	0.003578	-0.010321	-0.026926	0.067202	0.997376	0.567489	-0.820349	0.070594	0.822940	0.567901	-0.016048
35124	9.826055	0.641295	-0.113815	-0.018241	0.003814	-0.009462	-0.026950	0.067248	0.997372	0.567371	-0.820426	0.070648	0.823021	0.567784	-0.016044
35125	9.836988	0.624111	-0.125747	-0.005568	-0.001071	-0.008993	-0.026933	0.067315	0.997368	0.567360	-0.820429	0.070694	0.823029	0.567771	-0.016096
35126	9.807728	0.576098	-0.079387	-0.000560	0.003699	-0.005674	-0.026934	0.067330	0.997367	0.567389	-0.820409	0.070706	0.823009	0.567799	-0.016105
35127	9.757667	0.621120	-0.141119	0.006586	0.007766	-0.008797	-0.026986	0.067347	0.997365	0.567466	-0.820352	0.070748	0.822955	0.567879	-0.016079
35128	9.766080	0.702919	-0.204442	0.004703	0.007123	-0.007910	-0.027028	0.067361	0.997363	0.567537	-0.820300	0.070782	0.822904	0.567953	-0.016058
35129	9.745246	0.766298	-0.267321	-0.004368	-0.001568	-0.007086	-0.026995	0.067415	0.997360	0.567539	-0.820296	0.070808	0.822904	0.567952	-0.016117
35130	9.737929	0.712825	-0.290692	-0.014518	0.001120	-0.014424	-0.027025	0.067517	0.997352	0.567450	-0.820349	0.070910	0.822964	0.567864	-0.016143
35131	9.765835	0.736383	-0.249409	-0.015158	-0.002083	-0.010659	-0.027007	0.067604	0.997347	0.567362	-0.820404	0.070973	0.823025	0.567774	-0.016199
35132	9.757303	0.686765	-0.230677	-0.023166	0.000958	-0.008626	-0.027002	0.067659	0.997343	0.567204	-0.820510	0.071019	0.823135	0.567615	-0.016220
35133	9.767053	0.643122	-0.154988	-0.025140	0.004440	-0.009682	-0.027032	0.067701	0.997339	0.567025	-0.820628	0.071075	0.823257	0.567438	-0.016205
35134	9.787797	0.611559	-0.136331	-0.014354	0.010998	-0.003892	-0.027084	0.067660	0.997341	0.566941	-0.820687	0.071072	0.823313	0.567358	-0.016132
35135	9.795018	0.636183	-0.066254	-0.000314	0.014441	-0.006794	-0.027179	0.067622	0.997341	0.566974	-0.820662	0.071093	0.823287	0.567398	-0.016035
35136	9.820404	0.727713	-0.029830	0.001608	0.019065	-0.004492	-0.027300	0.067540	0.997343	0.567020	-0.820630	0.071094	0.823251	0.567455	-0.015893
35137	9.831375	0.710328	-0.040308	-0.004598	0.014792	-0.009724	-0.027417	0.067522	0.997341	0.567043	-0.820610	0.071145	0.823232	0.567486	-0.015789
35138	9.814384	0.670857	-0.092055	-0.014150	0.017759	-0.008205	-0.027549	0.067478	0.997340	0.566959	-0.820665	0.071185	0.823286	0.567412	-0.015649
35139	9.787689	0.614994	-0.128341	-0.009140	0.016488	-0.007099	-0.027664	0.067431	0.997340	0.566906	-0.820699	0.071213	0.823318	0.567368	-0.015523
35140	9.819455	0.595890	-0.166494	-0.009907	0.013431	-0.008464	-0.027762	0.067414	0.997339	0.566856	-0.820729	0.071255	0.823349	0.567326	-0.015429
35141	9.777886	0.630769	-0.155304	-0.010295	0.014924	-0.008037	-0.027864	0.067385	0.997338	0.566776	-0.820782	0.071291	0.823401	0.567254	-0.015322
35142	9.775270	0.669780	-0.114954	-0.017146	0.013487	-0.007290	-0.027955	0.067358	0.997337	0.566667	-0.820854	0.071323	0.823472	0.567152	-0.015223
35143	9.816781	0.636537	-0.123406	-0.017913	0.010430	-0.008655	-0.028030	0.067355	0.997335	0.566584	-0.820908	0.071364	0.823527	0.567075	-0.015153
35144	9.840089	0.567449	-0.143239	-0.026994	0.012776	-0.019223	-0.028183	0.067430	0.997326	0.566391	-0.821028	0.071516	0.823654	0.566892	-0.015053
35145	9.884179	0.466680	-0.144939	-0.029360	0.017753	-0.019852	-0.028382	0.067481	0.997317	0.566177	-0.821162	0.071674	0.823795	0.566692	-0.014900
35146	9.919895	0.345892	-0.173029	-0.012236	0.021353	-0.021715	-0.028620	0.067527	0.997307	0.566104	-0.821197	0.071848	0.823837	0.566636	-0.014725
35147	9.882244	0.278912	-0.151092	0.002603	0.031841	-0.020044	-0.028936	0.067499	0.997300	0.566159	-0.821145	0.072003	0.823788	0.566714	-0.014454
35148	9.837974	0.352981	-0.099044	0.012909	0.037982	-0.017969	-0.029290	0.067420	0.997295	0.566295	-0.821040	0.072137	0.823682	0.566876	-0.014132
35149	9.752027	0.461265	-0.037008	0.001259	0.038539	-0.024867	-0.029688	0.067394	0.997285	0.566332	-0.820997	0.072339	0.823643	0.566941	-0.013794
35150	9.746505	0.570946	-0.000701	-0.030645	0.037405	-0.031912	-0.030115	0.067433	0.997269	0.566104	-0.821129	0.072618	0.823783	0.566745	-0.013446
35151	9.765678	0.546270	0.062742	-0.058035	0.030607	-0.044777	-0.030559	0.067615	0.997243	0.565646	-0.821409	0.073026	0.824082	0.566318	-0.013145
35152	9.927849	0.487945	0.062884	-0.093065	0.025356	-0.056062	-0.031024	0.067921	0.997208	0.564896	-0.821877	0.073554	0.824579	0.565601	-0.012871
35153	9.901114	0.375866	0.118298	-0.103219	0.032048	-0.060240	-0.031569	0.068221	0.997171	0.564072	-0.822392	0.074122	0.825122	0.564816	-0.012520
35154	9.893906	0.297239	0.143753	-0.105969	0.041507	-0.073075	-0.032262	0.068578	0.997124	0.563209	-0.822920	0.074820	0.825684	0.564003	-0.012074
35155	9.939645	0.167575	0.148091	-0.096658	0.052895	-0.076227	-0.033068	0.068892	0.997076	0.562449	-0.823374	0.075543	0.826170	0.563303	-0.011521
35156	9.975917	0.083558	0.078206	-0.080518	0.061770	-0.083298	-0.033985	0.069219	0.997022	0.561791	-0.823749	0.076339	0.826581	0.562713	-0.010891
35157	9.859386	0.048682	0.041902	-0.052502	0.070840	-0.089965	-0.035013	0.069549	0.996964	0.561351	-0.823970	0.077195	0.826837	0.562349	-0.010192
35158	9.743106	0.106688	-0.129154	-0.016790	0.076328	-0.097236	-0.036129	0.069910	0.996899	0.561212	-0.823977	0.078123	0.826883	0.562294	-0.009465
35159	9.670680	0.227428	-0.204688	0.017882	0.076131	-0.103512	-0.037277	0.070321	0.996828	0.561355	-0.823786	0.079106	0.826735	0.562523	-0.008767
35160	9.678809	0.349634	-0.305969	0.036744	0.071613	-0.100938	-0.038375	0.070739	0.996756	0.561655	-0.823488	0.080066	0.826481	0.562906	-0.008130
35161	9.707793	0.439806	-0.389804	0.045724	0.072451	-0.108108	-0.039514	0.071211	0.996678	0.561981	-0.823165	0.081094	0.826206	0.563318	-0.007493
35162	9.701331	0.457128	-0.497521	0.045460	0.063790	-0.107997	-0.040587	0.071730	0.996598	0.562348	-0.822812	0.082124	0.825904	0.563768	-0.006941
35163	9.780141	0.503951	-0.520150	0.032756	0.054669	-0.117178	-0.041637	0.072372	0.996508	0.562606	-0.822524	0.083243	0.825676	0.564107	-0.006469
35164	9.724552	0.601522	-0.496773	0.024563	0.045954	-0.129935	-0.042686	0.073170	0.996406	0.562789	-0.822271	0.084493	0.825497	0.564373	-0.006080
35165	9.389485	0.655626	-0.426263	-0.008989	0.019872	-0.145199	-0.043603	0.074237	0.996287	0.562700	-0.822187	0.085891	0.825511	0.564355	-0.005923
35166	9.652521	0.709595	-0.332967	-0.045826	-0.011114	-0.158181	-0.044340	0.075590	0.996153	0.562287	-0.822308	0.087426	0.825753	0.564000	-0.006042
35167	9.963444	0.786935	-0.226783	-0.070195	-0.015772	-0.171142	-0.045109	0.077072	0.996005	0.561668	-0.822553	0.089088	0.826132	0.563442	-0.006184
35168	9.871721	0.785510	-0.188181	-0.088077	-0.030459	-0.177192	-0.045791	0.078691	0.995847	0.560895	-0.822891	0.090815	0.826620	0.562724	-0.006456
35169	9.674257	0.724714	-0.163464	-0.107488	-0.024467	-0.179418	-0.046531	0.080291	0.995685	0.559960	-0.823333	0.092561	0.827212	0.561851	-0.006650
35170	9.623954	0.631773	-0.001950	-0.121546	-0.019126	-0.181907	-0.047329	0.081886	0.995517	0.558904	-0.823849	0.094337	0.827880	0.560864	-0.006774
35171	9.598658	0.530700	0.048399	-0.132199	-0.013028	-0.184751	-0.048190	0.083465	0.995345	0.557774	-0.824406	0.096136	0.828593	0.559810	-0.006827
35172	9.655081	0.587004	0.047232	-0.135520	-0.012918	-0.190984	-0.049086	0.085102	0.995162	0.556594	-0.824984	0.098003	0.829333	0.558712	-0.006872
35173	9.721175	0.629849	0.076092	-0.145773	-0.012252	-0.197481	-0.050020	0.086786	0.994970	0.555315	-0.825614	0.099931	0.830134	0.557521	-0.006897
35174	9.784768	0.707893	0.101964	-0.169213	-0.022154	-0.205278	-0.050913	0.088594	0.994766	0.553842	-0.826358	0.101942	0.831064	0.556133	-0.006995
35175	9.786488	0.598865	-0.002217	-0.169246	-0.019153	-0.212843	-0.051869	0.090443	0.994550	0.552386	-0.827073	0.104021	0.831973	0.554771	-0.007060
35176	9.723599	0.249546	-0.020960	-0.166856	-0.017155	-0.216575	-0.052860	0.092319	0.994325	0.550919	-0.827781	0.106143	0.832883	0.553404	-0.007104
35177	9.587521	-0.021649	-0.077786	-0.134564	-0.017025	-0.209848	-0.053814	0.094133	0.994104	0.549740	-0.828300	0.108192	0.833601	0.552321	-0.007175
35178	9.532769	0.047513	-0.057297	-0.069579	-0.024949	-0.197639	-0.054631	0.095896	0.993891	0.549089	-0.828478	0.110118	0.833977	0.551750	-0.007395
35179	9.594935	0.493870	0.025915	-0.005117	-0.031130	-0.190129	-0.055346	0.097629	0.993683	0.548963	-0.828314	0.111958	0.834012	0.551692	-0.007751
35180	9.413695	1.076874	0.116366	0.028550	-0.051191	-0.175229	-0.055821	0.099352	0.993485	0.549140	-0.827966	0.113654	0.833864	0.551907	-0.008340
35181	9.604817	1.391308	0.168058	0.033376	-0.069716	-0.174009	-0.056134	0.101159	0.993285	0.549373	-0.827580	0.115330	0.833689	0.552158	-0.009119
35182	9.592612	1.542823	0.108213	0.021098	-0.080350	-0.183749	-0.056413	0.103112	0.993069	0.549482	-0.827257	0.117110	0.833599	0.552280	-0.009990
35183	9.602093	1.783353	0.042726	-0.008238	-0.082355	-0.188549	-0.056700	0.105108	0.992843	0.549366	-0.827075	0.118932	0.833656	0.552177	-0.010848
35184	9.685021	2.097872	-0.052565	-0.051008	-0.079132	-0.186836	-0.057005	0.107079	0.992615	0.548870	-0.827140	0.120749	0.833961	0.551700	-0.011621
35185	9.747704	2.289933	-0.138404	-0.111194	-0.073710	-0.186200	-0.057348	0.109010	0.992385	0.547874	-0.827534	0.122563	0.834593	0.550731	-0.012266
35186	9.647505	2.202350	-0.279091	-0.187407	-0.054246	-0.176377	-0.057799	0.110757	0.992165	0.546244	-0.828353	0.124293	0.835630	0.549148	-0.012622
35187	9.995561	1.902315	-0.315925	-0.260917	-0.047815	-0.167317	-0.058249	0.112393	0.991955	0.543986	-0.829589	0.125940	0.837070	0.546946	-0.012818
35188	9.425069	1.584496	-0.356874	-0.312555	-0.028613	-0.153363	-0.058781	0.113811	0.991762	0.541314	-0.831104	0.127457	0.838763	0.544347	-0.012755
35189	9.461938	1.664777	-0.215269	-0.359398	-0.028622	-0.154168	-0.059311	0.115229	0.991567	0.538283	-0.832836	0.128981	0.840675	0.541393	-0.012629
35190	9.617975	1.845005	-0.046391	-0.398839	-0.050888	-0.165037	-0.059708	0.116868	0.991351	0.534864	-0.834780	0.130624	0.842826	0.538037	-0.012665
35191	9.441213	1.925604	0.172426	-0.443149	-0.062595	-0.178489	-0.060067	0.118679	0.991114	0.531065	-0.836923	0.132401	0.845200	0.534299	-0.012754
35192	9.457868	2.002279	0.298537	-0.495607	-0.106462	-0.184934	-0.060084	0.120783	0.990859	0.526795	-0.839323	0.134255	0.847866	0.530046	-0.013198
35193	9.502362	2.010718	0.398448	-0.537173	-0.131251	-0.194322	-0.059927	0.123090	0.990585	0.522183	-0.841887	0.136203	0.850726	0.525428	-0.013824
35194	9.519298	1.998029	0.495673	-0.574533	-0.172841	-0.190253	-0.059382	0.125584	0.990304	0.517210	-0.844639	0.138126	0.853796	0.520397	-0.014797
35195	9.502930	1.912250	0.647928	-0.619076	-0.192691	-0.183055	-0.058621	0.128108	0.990026	0.511888	-0.847570	0.139984	0.857050	0.514989	-0.015892
35196	9.463380	1.856169	0.825167	-0.659390	-0.204167	-0.172873	-0.057687	0.130608	0.989754	0.506162	-0.850708	0.141760	0.860507	0.509154	-0.017034
35197	9.586868	1.954060	1.046047	-0.718066	-0.209802	-0.164218	-0.056640	0.133052	0.989489	0.499924	-0.854105	0.143463	0.864215	0.502795	-0.018139
35198	9.834709	2.146510	1.088318	-0.774453	-0.194266	-0.154608	-0.055665	0.135330	0.989236	0.493166	-0.857750	0.145093	0.868152	0.495934	-0.018994
35199	9.957080	2.132257	1.048129	-0.818249	-0.169268	-0.152753	-0.054882	0.137454	0.988987	0.486039	-0.861535	0.146712	0.872212	0.488738	-0.019525
35200	10.042908	1.855048	0.852613	-0.817397	-0.135234	-0.159379	-0.054409	0.139470	0.988730	0.478844	-0.865266	0.148404	0.876212	0.481522	-0.019706
35201	9.986458	1.464059	0.452691	-0.747934	-0.106313	-0.167950	-0.054211	0.141415	0.988465	0.472235	-0.868588	0.150164	0.879804	0.474929	-0.019695
35202	9.863594	1.054949	0.017704	-0.603811	-0.091421	-0.168239	-0.054136	0.143294	0.988199	0.466861	-0.871187	0.151902	0.882672	0.469575	-0.019736
35203	9.777102	0.736199	-0.235985	-0.420383	-0.079862	-0.148818	-0.054068	0.144938	0.987962	0.463157	-0.872899	0.153405	0.884625	0.465876	-0.019933
35204	9.759641	0.489857	-0.348230	-0.210669	-0.072899	-0.112586	-0.053884	0.146242	0.987780	0.461270	-0.873702	0.154516	0.885622	0.463959	-0.020378
35205	9.715627	0.529691	-0.382467	-0.020455	-0.067378	-0.074178	-0.053574	0.147176	0.987658	0.461133	-0.873653	0.155201	0.885712	0.463757	-0.021063
35206	9.585787	0.849444	-0.381441	0.126426	-0.068455	-0.039876	-0.053093	0.147825	0.987587	0.462270	-0.872994	0.155524	0.885149	0.464789	-0.021985
35207	9.473250	1.428541	-0.360779	0.212557	-0.091349	-0.018468	-0.052307	0.148388	0.987545	0.464210	-0.871949	0.155606	0.884179	0.466568	-0.023274
35208	9.513659	2.057691	-0.271128	0.232933	-0.118114	-0.004995	-0.051228	0.148966	0.987514	0.466304	-0.870840	0.155556	0.883140	0.468451	-0.024853
35209	9.400629	2.456932	-0.109522	0.173599	-0.140205	-0.005016	-0.049958	0.149642	0.987477	0.467913	-0.869985	0.155509	0.882361	0.469823	-0.026557
35210	9.425661	2.562764	-0.011214	0.057969	-0.169130	-0.018186	-0.048491	0.150578	0.987408	0.468454	-0.869673	0.155629	0.882156	0.470102	-0.028367
35211	9.418650	2.594248	0.183476	-0.064581	-0.203460	-0.034022	-0.046803	0.151803	0.987302	0.467947	-0.869891	0.155933	0.882516	0.469303	-0.030322
35212	9.420386	2.646149	0.322315	-0.164684	-0.232276	-0.040471	-0.044882	0.153226	0.987171	0.466512	-0.870588	0.156340	0.883375	0.467544	-0.032409
35213	9.399198	2.424476	0.156509	-0.203270	-0.262900	-0.039672	-0.042683	0.154779	0.987027	0.464737	-0.871463	0.156754	0.884419	0.465399	-0.034735
35214	9.402485	2.084605	-0.030151	-0.198908	-0.295177	-0.028471	-0.040143	0.156380	0.986881	0.463003	-0.872330	0.157062	0.885447	0.463234	-0.037386
35215	9.634971	1.749720	-0.037620	-0.185733	-0.317604	-0.011957	-0.037331	0.157930	0.986744	0.461407	-0.873150	0.157205	0.886403	0.461159	-0.040274
35216	9.529665	1.546748	-0.100065	-0.133625	-0.319392	0.002650	-0.034427	0.159359	0.986620	0.460260	-0.873757	0.157190	0.887116	0.459514	-0.043266
35217	9.440873	1.608856	-0.225097	-0.079752	-0.325454	-0.003636	-0.031498	0.160862	0.986474	0.459616	-0.874092	0.157212	0.887559	0.458351	-0.046403
35218	9.666014	1.652519	-0.199834	-0.038738	-0.336413	0.006860	-0.028421	0.162325	0.986328	0.459312	-0.874269	0.157118	0.887820	0.457497	-0.049710
35219	9.819625	1.388991	-0.158141	0.023127	-0.320619	0.025116	-0.025408	0.163547	0.986208	0.459598	-0.874174	0.156809	0.887763	0.457244	-0.052955
35220	9.772423	1.046726	-0.114812	0.097841	-0.281852	0.032926	-0.022695	0.164531	0.986111	0.460512	-0.873769	0.156386	0.887363	0.457665	-0.055938
35221	9.641462	0.900433	-0.017856	0.189360	-0.257552	0.040616	-0.020167	0.165336	0.986031	0.462240	-0.872955	0.155830	0.886525	0.458926	-0.058820
35222	9.818253	1.120414	0.142028	0.284705	-0.247322	0.049832	-0.017686	0.166021	0.985964	0.464809	-0.871717	0.155122	0.885235	0.461028	-0.061751
35223	10.011083	1.407135	0.442104	0.352795	-0.243418	0.065715	-0.015170	0.166555	0.985915	0.467972	-0.870185	0.154205	0.883613	0.463721	-0.064743
35224	10.008345	1.731107	1.071480	0.371427	-0.202733	0.077021	-0.012959	0.166812	0.985904	0.471299	-0.868574	0.153155	0.881879	0.466640	-0.067362
35225	9.774607	2.335517	1.347929	0.396897	-0.155293	0.072184	-0.011191	0.166893	0.985911	0.474840	-0.866824	0.152124	0.880001	0.469853	-0.069547
35226	9.228373	2.861741	1.179157	0.421082	-0.149761	0.074311	-0.009461	0.166939	0.985922	0.478586	-0.864951	0.151049	0.877990	0.473277	-0.071712
35227	9.068723	2.961557	1.115428	0.433895	-0.188040	0.095590	-0.007304	0.166985	0.985932	0.482439	-0.863035	0.149744	0.875899	0.476746	-0.074257
35228	9.191218	2.764155	0.895055	0.468622	-0.216040	0.118826	-0.004778	0.166978	0.985949	0.486582	-0.860978	0.148172	0.873622	0.480453	-0.077135
35229	9.121879	2.644138	0.636405	0.515475	-0.259091	0.157905	-0.001693	0.166851	0.985981	0.491121	-0.858741	0.146163	0.871090	0.484483	-0.080491
35230	9.422233	2.317393	0.517777	0.529424	-0.262910	0.201501	0.001648	0.166387	0.986059	0.495761	-0.856489	0.143694	0.868457	0.488613	-0.083900
35231	9.190295	1.767816	0.310885	0.551546	-0.271337	0.243486	0.005267	0.165619	0.986176	0.500557	-0.854181	0.140779	0.865688	0.492895	-0.087400
35232	9.565490	1.544365	0.417630	0.566137	-0.273908	0.277154	0.009088	0.164596	0.986319	0.505464	-0.851822	0.137494	0.862800	0.497300	-0.090939
35233	9.636579	1.650227	0.576211	0.542081	-0.247689	0.300451	0.012801	0.163260	0.986500	0.510131	-0.849597	0.133984	0.860001	0.501529	-0.094160
35234	9.422597	1.809621	0.536606	0.500884	-0.236691	0.295378	0.016407	0.161931	0.986666	0.514423	-0.847542	0.130544	0.857380	0.505422	-0.097207
35235	9.020474	1.761242	0.513569	0.467839	-0.230671	0.276664	0.019864	0.160743	0.986796	0.518407	-0.845604	0.127308	0.854903	0.509034	-0.100127
35236	8.926291	1.606555	0.436958	0.469278	-0.251746	0.262809	0.023441	0.159795	0.986872	0.522390	-0.843614	0.124191	0.852384	0.512621	-0.103250
35237	9.156647	1.268701	0.149626	0.514649	-0.294409	0.265462	0.027388	0.159057	0.986889	0.526727	-0.841380	0.120988	0.849593	0.516508	-0.106824
35238	9.755338	0.847413	0.066536	0.616304	-0.341520	0.277604	0.031814	0.158484	0.986849	0.531904	-0.838609	0.117530	0.846207	0.521170	-0.110978
35239	10.215958	0.716005	0.285266	0.749977	-0.360748	0.310917	0.036574	0.157759	0.986800	0.538144	-0.835166	0.113571	0.842059	0.526887	-0.115443
35240	10.908552	1.271173	1.027833	0.816568	-0.314706	0.354414	0.041197	0.156461	0.986825	0.544896	-0.831380	0.109067	0.837491	0.533224	-0.119505
35241	11.684590	2.132794	1.482453	0.876683	-0.239102	0.376781	0.045311	0.154604	0.986937	0.552079	-0.827250	0.104243	0.832560	0.540143	-0.122837
35242	12.551994	2.393521	1.148610	0.931784	-0.069335	0.377932	0.048048	0.151852	0.987235	0.559667	-0.822745	0.099312	0.827323	0.547751	-0.124518
35243	12.919197	2.144141	0.527055	0.976106	0.148245	0.403955	0.049149	0.147706	0.987809	0.567539	-0.817955	0.094070	0.821879	0.555996	-0.124031
35244	13.282444	1.632705	-0.049724	0.945861	0.402733	0.452508	0.048496	0.141749	0.988714	0.575098	-0.813295	0.088391	0.816646	0.564321	-0.120961
35245	13.288722	1.327537	0.195881	0.795753	0.566367	0.497698	0.046808	0.134483	0.989810	0.581358	-0.809456	0.082486	0.812301	0.571572	-0.116072
35246	13.190212	1.466451	1.290185	0.525572	0.667380	0.518151	0.044480	0.126453	0.990975	0.585414	-0.807097	0.076713	0.809513	0.576718	-0.109927
35247	12.309402	1.510459	2.169195	0.225553	0.796857	0.507678	0.041056	0.117737	0.992196	0.587050	-0.806396	0.071398	0.808509	0.579537	-0.102225
35248	10.414781	1.534646	2.614662	0.007642	0.835348	0.509981	0.037356	0.108768	0.993365	0.586943	-0.806911	0.066280	0.808766	0.580572	-0.093984
35249	9.589757	1.580178	2.992907	-0.135142	0.858099	0.524184	0.033534	0.099542	0.994468	0.585688	-0.808226	0.061150	0.809842	0.580398	-0.085404
35250	9.166047	1.500070	3.165192	-0.283829	0.884255	0.532060	0.029536	0.090100	0.995495	0.583251	-0.810357	0.056039	0.811755	0.578968	-0.076486
35251	9.457822	0.963399	3.253650	-0.413472	0.909674	0.537377	0.025310	0.080468	0.996436	0.579773	-0.813184	0.050942	0.814385	0.576418	-0.067235
35252	10.832604	0.143051	3.267715	-0.483997	1.044312	0.530343	0.019915	0.070133	0.997339	0.575737	-0.816345	0.045909	0.817393	0.573290	-0.056636
35253	11.007762	-0.802802	2.940502	-0.494077	1.297339	0.525527	0.012350	0.058400	0.998217	0.571640	-0.819486	0.040871	0.820411	0.570116	-0.043504
35254	9.985983	-1.453993	2.747054	-0.437209	1.461081	0.516984	0.003351	0.045836	0.998943	0.568040	-0.822221	0.035822	0.822994	0.567320	-0.028792
35255	9.919305	-1.358382	2.696852	-0.349762	1.626097	0.469180	-0.007346	0.032746	0.999437	0.565205	-0.824362	0.031164	0.824918	0.565115	-0.012452
35256	9.914622	-0.946520	2.399447	-0.268868	1.787019	0.395780	-0.019805	0.019386	0.999616	0.563073	-0.825960	0.027174	0.826170	0.563395	0.005443
35257	9.725657	-0.521153	1.937418	-0.220872	1.910222	0.335502	-0.033665	0.005843	0.999416	0.561375	-0.827221	0.023746	0.826877	0.561846	0.024568
35258	10.054489	0.183340	1.671094	-0.215433	2.005060	0.286164	-0.048584	-0.007785	0.998789	0.559746	-0.828404	0.020771	0.827239	0.560077	0.044604
35259	10.353113	0.758436	1.490781	-0.254034	2.032088	0.249418	-0.063961	-0.021233	0.997726	0.557824	-0.829762	0.018102	0.827491	0.557714	0.064917
35260	10.333683	1.035592	1.636213	-0.312309	1.994695	0.233270	-0.079111	-0.034276	0.996276	0.555443	-0.831410	0.015502	0.827783	0.554601	0.084812
35261	10.628759	1.266629	1.479866	-0.370049	1.856961	0.246301	-0.093081	-0.046613	0.994567	0.552632	-0.833329	0.012665	0.828211	0.550808	0.103327
35262	15.188774	1.455931	1.050135	-0.333554	1.608978	0.229634	-0.105082	-0.057374	0.992807	0.550134	-0.835017	0.009973	0.828438	0.547225	0.119309
35263	8.648853	0.873229	-0.814794	-0.366812	2.172898	0.152633	-0.122200	-0.070516	0.989997	0.547312	-0.836891	0.007947	0.827960	0.542808	0.140862
35264	9.341463	1.429966	-0.271091	-0.221808	1.459111	0.241967	-0.132893	-0.080453	0.987860	0.545824	-0.837884	0.005189	0.827294	0.539887	0.155263
35265	10.428846	1.316845	-0.436931	-0.270707	1.341553	0.265896	-0.142499	-0.089926	0.985701	0.543994	-0.839087	0.002093	0.826901	0.536514	0.168488
35266	10.844260	0.800382	-1.114408	-0.388971	1.295585	0.245172	-0.151823	-0.098920	0.983445	0.541178	-0.840908	-0.001036	0.827089	0.532061	0.181202
35267	10.465147	0.179993	-2.304988	-0.434391	1.338642	0.201835	-0.161765	-0.107730	0.980931	0.537945	-0.842971	-0.003866	0.827313	0.527061	0.194316
35268	9.986286	-0.162057	-2.755143	-0.391503	1.335956	0.179161	-0.171796	-0.116265	0.978248	0.535046	-0.844799	-0.006442	0.827171	0.522300	0.207340
35269	10.415973	-0.572016	-2.759400	-0.351635	1.337565	0.138984	-0.182070	-0.124417	0.975382	0.532428	-0.846432	-0.008583	0.826662	0.517758	0.220353
35270	10.167144	-0.539917	-2.453125	-0.292438	1.357517	0.116882	-0.192605	-0.132422	0.972300	0.530273	-0.847763	-0.010417	0.825660	0.513578	0.233503
35271	10.018846	-0.281277	-1.954925	-0.230224	1.357394	0.078050	-0.203344	-0.140050	0.969039	0.528573	-0.848807	-0.011758	0.824174	0.509817	0.246626
35272	9.664092	0.057375	-1.496351	-0.195155	1.314892	0.022758	-0.213990	-0.146938	0.965721	0.527056	-0.849739	-0.012503	0.822448	0.506314	0.259280
35273	9.678601	0.362141	-1.028610	-0.170923	1.288438	-0.004272	-0.224549	-0.153424	0.962309	0.525688	-0.850579	-0.012944	0.820506	0.502968	0.271650
35274	9.342572	0.697577	-0.768130	-0.212615	1.253848	-0.023844	-0.234892	-0.159519	0.958843	0.523934	-0.851655	-0.013336	0.818730	0.499237	0.283624
35275	8.666713	0.846079	-0.434488	-0.292331	1.201577	-0.055458	-0.244963	-0.165037	0.955383	0.521455	-0.853169	-0.013678	0.817360	0.494838	0.295054
35276	8.271020	0.844933	0.004611	-0.392656	1.137138	-0.095798	-0.254692	-0.169832	0.951992	0.518051	-0.855235	-0.013973	0.816550	0.489622	0.305803
35277	8.014449	0.956439	0.362995	-0.563768	1.085536	-0.143711	-0.264249	-0.173898	0.948648	0.513121	-0.858196	-0.014385	0.816627	0.482970	0.316008
35278	7.896776	0.750021	0.960929	-0.749465	1.048790	-0.198787	-0.273774	-0.177226	0.945325	0.506507	-0.862107	-0.014936	0.817618	0.474724	0.325789
35279	7.874602	0.428498	1.595252	-0.891075	1.000531	-0.239600	-0.283118	-0.179876	0.942066	0.498593	-0.866695	-0.015643	0.819298	0.465279	0.335062
35280	7.912596	0.059439	2.203794	-0.995358	0.962823	-0.254786	-0.292218	-0.182109	0.938853	0.489740	-0.871709	-0.016653	0.821439	0.454928	0.343915
35281	8.015659	-0.239189	2.818941	-1.072999	0.916071	-0.248240	-0.300910	-0.184075	0.935719	0.480224	-0.876959	-0.018085	0.823916	0.443913	0.352283
35282	8.165695	-0.554996	3.449725	-1.108552	0.871257	-0.230688	-0.309139	-0.185883	0.932674	0.470419	-0.882218	-0.019905	0.826522	0.432595	0.360171
35283	8.032026	-1.108409	3.879440	-1.077558	0.798027	-0.196370	-0.316611	-0.187576	0.929824	0.460934	-0.887161	-0.022018	0.829034	0.421616	0.367345
35284	7.714564	-1.873904	4.012254	-0.950109	0.702065	-0.137908	-0.323012	-0.189295	0.927270	0.452654	-0.891356	-0.024283	0.831124	0.411889	0.373604
35285	7.317590	-2.559736	3.978460	-0.758519	0.580786	-0.053518	-0.328036	-0.191210	0.925111	0.446219	-0.894527	-0.026663	0.832635	0.404056	0.378759
35286	7.129366	-3.200598	3.728713	-0.532581	0.453544	0.042175	-0.331571	-0.193429	0.923388	0.441969	-0.896558	-0.029105	0.833501	0.398459	0.382762
35287	7.130120	-3.780217	3.341193	-0.280871	0.309473	0.131434	-0.333523	-0.195861	0.922172	0.440115	-0.897391	-0.031421	0.833703	0.395382	0.385503
35288	7.298222	-4.095680	3.108338	-0.004920	0.176035	0.209981	-0.334010	-0.198462	0.921439	0.440823	-0.896972	-0.033400	0.833134	0.395036	0.387084
35289	7.643580	-4.006314	2.988404	0.303564	0.073072	0.256640	-0.333433	-0.201078	0.921081	0.444257	-0.895230	-0.034613	0.831539	0.397656	0.387830
35290	8.163661	-3.397382	3.078894	0.603927	-0.000862	0.270833	-0.332159	-0.203516	0.921006	0.450220	-0.892240	-0.034789	0.828838	0.403100	0.387992
35291	8.648502	-2.358232	3.339639	0.845428	-0.033718	0.242136	-0.330730	-0.205562	0.921065	0.458065	-0.888277	-0.033766	0.825103	0.410740	0.387941
35292	9.146112	-1.228045	3.700982	0.957349	-0.038548	0.183522	-0.329508	-0.207048	0.921171	0.466597	-0.883900	-0.031767	0.820800	0.419348	0.387860
35293	9.324568	-0.070741	4.028164	0.924133	-0.028750	0.110847	-0.328701	-0.207931	0.921260	0.474577	-0.879729	-0.029231	0.816537	0.427601	0.387847
35294	9.260178	0.946371	4.435935	0.751849	0.002856	0.029285	-0.328527	-0.208219	0.921257	0.480846	-0.876401	-0.026608	0.812931	0.434241	0.388043
35295	9.079565	1.694404	4.854441	0.449105	0.032000	-0.056409	-0.329009	-0.207891	0.921159	0.484356	-0.874532	-0.024371	0.810650	0.438150	0.388422
35296	8.978633	1.989421	5.091196	0.096621	0.056687	-0.123543	-0.330010	-0.207078	0.920984	0.484779	-0.874337	-0.022882	0.809990	0.438922	0.388927
35297	8.938624	1.839636	5.220208	-0.251672	0.055821	-0.146966	-0.331123	-0.206061	0.920813	0.482303	-0.875715	-0.022534	0.811013	0.436649	0.389353
35298	8.829140	1.323685	5.064128	-0.529621	0.037173	-0.141583	-0.332048	-0.205000	0.920717	0.477579	-0.878279	-0.023317	0.813427	0.431973	0.389534
35299	8.881332	0.602723	4.802390	-0.733917	-0.012553	-0.105407	-0.332397	-0.204044	0.920803	0.471296	-0.881614	-0.025229	0.816941	0.425585	0.389211
35300	8.976540	-0.224690	4.385948	-0.833345	-0.069634	-0.034549	-0.331932	-0.203464	0.921099	0.464403	-0.885176	-0.028174	0.821067	0.418410	0.388307
35301	8.962697	-1.123227	4.036029	-0.824768	-0.122314	0.033898	-0.330721	-0.203283	0.921575	0.457777	-0.888502	-0.031708	0.825266	0.411389	0.386904
35302	9.080189	-2.115639	3.726091	-0.730494	-0.173012	0.097190	-0.328791	-0.203462	0.922225	0.452102	-0.891262	-0.035448	0.829156	0.405285	0.385024
35303	9.320245	-2.709038	3.621118	-0.577271	-0.205495	0.130904	-0.326446	-0.203830	0.922977	0.447786	-0.893294	-0.038898	0.832419	0.400598	0.382885
35304	9.608659	-2.765818	3.565639	-0.432673	-0.188001	0.102378	-0.324366	-0.204016	0.923669	0.444559	-0.894787	-0.041520	0.834957	0.397158	0.380936
35305	9.710211	-2.468574	3.432582	-0.304859	-0.146561	0.024188	-0.322985	-0.203681	0.924226	0.442140	-0.895918	-0.042930	0.836775	0.394772	0.379424
35306	9.544781	-2.078900	3.329007	-0.188810	-0.089974	-0.067805	-0.322475	-0.202740	0.924611	0.440388	-0.896775	-0.043044	0.837895	0.393308	0.378472
35307	9.127092	-1.605926	2.934117	-0.050668	-0.051503	-0.148687	-0.322648	-0.201234	0.924880	0.439535	-0.897248	-0.041889	0.838277	0.393002	0.377945
35308	8.661886	-1.034836	2.325733	0.021801	-0.047095	-0.199591	-0.323074	-0.199279	0.925155	0.439121	-0.897538	-0.039985	0.838329	0.393337	0.377479
35309	8.188838	-0.549761	1.737159	0.027147	-0.135266	-0.224522	-0.322875	-0.196761	0.925763	0.438674	-0.897849	-0.037833	0.838640	0.393893	0.376207
35310	8.247106	-0.214253	1.439662	-0.038125	-0.272379	-0.244629	-0.321605	-0.193512	0.926889	0.437614	-0.898453	-0.035735	0.839681	0.394127	0.373631
35311	8.448110	0.160012	1.448134	-0.193225	-0.406270	-0.280720	-0.319364	-0.189418	0.928508	0.435140	-0.899725	-0.033879	0.841819	0.393211	0.369763
35312	8.839588	0.374145	1.459371	-0.393064	-0.505639	-0.351216	-0.316564	-0.184295	0.930496	0.430756	-0.901898	-0.032083	0.845125	0.390660	0.364894
35313	8.983694	0.443153	1.479318	-0.528142	-0.553784	-0.406049	-0.313559	-0.178503	0.932640	0.425053	-0.904663	-0.030243	0.849124	0.386938	0.359538
35314	8.974069	-0.013315	1.442041	-0.549907	-0.605769	-0.439888	-0.310203	-0.172207	0.934943	0.419048	-0.907529	-0.028123	0.853331	0.383062	0.353681
35315	9.012786	-0.569831	1.556427	-0.434061	-0.701462	-0.486718	-0.306179	-0.165136	0.937542	0.413885	-0.909983	-0.025116	0.857294	0.380344	0.346965
35316	9.185028	-0.785858	1.589441	-0.249893	-0.803971	-0.526717	-0.301387	-0.157306	0.940436	0.410186	-0.911759	-0.021055	0.860763	0.379409	0.339317
35317	9.256441	-0.680676	1.279562	-0.114092	-0.863148	-0.538854	-0.296095	-0.149143	0.943443	0.407642	-0.912995	-0.016393	0.863803	0.379733	0.331130
35318	9.026368	-0.575292	1.334334	-0.046597	-0.894721	-0.539398	-0.290492	-0.140837	0.946456	0.405705	-0.913932	-0.011476	0.866613	0.380648	0.322628
35319	9.470266	-0.304271	1.104936	0.009017	-1.004732	-0.536653	-0.283891	-0.132127	0.949710	0.404291	-0.914608	-0.006392	0.869457	0.382145	0.313067
35320	10.932560	0.116671	1.151886	0.049248	-1.117927	-0.571722	-0.276406	-0.122637	0.953184	0.403166	-0.915127	-0.000829	0.872386	0.384062	0.302390
35321	11.964944	0.317860	1.944470	0.033448	-1.100175	-0.653773	-0.269370	-0.112446	0.956450	0.401723	-0.915745	0.005479	0.875248	0.385703	0.291846
35322	11.612998	-0.184606	3.472830	-0.074272	-0.980336	-0.688298	-0.263476	-0.102379	0.959218	0.399285	-0.916751	0.011829	0.878153	0.386118	0.282420
35323	10.842047	-0.640944	4.840558	-0.290451	-0.912696	-0.581827	-0.257702	-0.093552	0.961685	0.395261	-0.918419	0.016575	0.881679	0.384388	0.273656
35324	9.738887	-0.835147	5.608388	-0.576630	-0.802227	-0.417615	-0.252193	-0.086669	0.963788	0.389147	-0.920980	0.019008	0.885982	0.379849	0.265992
35325	8.558933	-1.082094	5.879655	-0.727984	-0.701301	-0.305588	-0.247089	-0.081237	0.965582	0.381966	-0.923960	0.020008	0.890533	0.373763	0.259330
35326	7.891557	-1.410038	5.399161	-0.656790	-0.650761	-0.301563	-0.242366	-0.076056	0.967199	0.375412	-0.926615	0.021208	0.894609	0.368238	0.253132
35327	8.139446	-1.684059	4.306755	-0.381919	-0.686806	-0.397427	-0.237643	-0.069883	0.968836	0.371084	-0.928287	0.024064	0.897676	0.365238	0.246533
35328	8.719947	-1.875222	3.287728	-0.014104	-0.806215	-0.477605	-0.232111	-0.062526	0.970678	0.369882	-0.928638	0.028629	0.899617	0.365681	0.238675
35329	9.816968	-1.529766	2.451958	0.305487	-0.930172	-0.497480	-0.225531	-0.054524	0.972709	0.371542	-0.927788	0.034139	0.900607	0.369101	0.229503
35330	10.465317	-1.009683	2.218945	0.499730	-0.943023	-0.486091	-0.218795	-0.046537	0.974660	0.375009	-0.926159	0.039962	0.900831	0.374250	0.220091
35331	10.795701	-0.418157	2.432192	0.538210	-0.851347	-0.429839	-0.212695	-0.039384	0.976325	0.378977	-0.924298	0.045276	0.900631	0.379635	0.211519
35332	10.791340	-0.148339	2.710895	0.436269	-0.692361	-0.349498	-0.207734	-0.033536	0.977610	0.382217	-0.922742	0.049564	0.900420	0.383955	0.204503
35333	10.895764	-0.293828	2.230344	0.373839	-0.566073	-0.284924	-0.203678	-0.028759	0.978615	0.385044	-0.921372	0.053062	0.900142	0.387618	0.198737
35334	10.706483	-1.054468	1.482213	0.491724	-0.497582	-0.283783	-0.200243	-0.024229	0.979447	0.388940	-0.919512	0.056771	0.899238	0.392314	0.193549
35335	9.965378	-1.790541	0.681001	0.743517	-0.507658	-0.282112	-0.196735	-0.019663	0.980259	0.395106	-0.916614	0.060911	0.897322	0.399290	0.188099
35336	9.434931	-1.557800	0.249696	0.971990	-0.559349	-0.244024	-0.192641	-0.015194	0.981152	0.403384	-0.912714	0.065067	0.894523	0.408315	0.181955
35337	9.294196	0.007807	0.336793	1.066744	-0.587820	-0.186293	-0.188098	-0.011101	0.982088	0.412601	-0.908313	0.068758	0.891280	0.418143	0.175432
35338	9.209498	2.312005	0.721401	0.939527	-0.581028	-0.173166	-0.183592	-0.007098	0.982977	0.420684	-0.904343	0.072042	0.888437	0.426748	0.169016
35339	8.781277	4.027606	1.109431	0.606634	-0.553986	-0.209600	-0.179506	-0.002857	0.983753	0.425733	-0.901730	0.075065	0.886865	0.432291	0.163082
35340	8.467924	4.574510	1.239845	0.172249	-0.565314	-0.253608	-0.175515	0.001858	0.984475	0.426855	-0.900967	0.077801	0.887124	0.433883	0.157340
35341	8.631464	3.918611	1.126795	-0.209967	-0.583267	-0.281801	-0.171479	0.006894	0.985164	0.424546	-0.901847	0.080208	0.889019	0.432001	0.151721
35342	9.335691	2.367427	1.408660	-0.440330	-0.577869	-0.298381	-0.167536	0.012052	0.985792	0.420163	-0.903695	0.082456	0.891849	0.428008	0.146338
35343	9.884116	0.608853	1.971078	-0.500731	-0.529125	-0.303489	-0.164023	0.017022	0.986310	0.415231	-0.905766	0.084685	0.894807	0.423437	0.141498
35344	10.181507	-0.820267	2.270349	-0.377977	-0.456581	-0.283065	-0.161044	0.021493	0.986713	0.411428	-0.907289	0.086913	0.897102	0.419958	0.137271
35345	10.309014	-1.633402	2.132994	-0.099946	-0.417988	-0.251845	-0.158273	0.025502	0.987066	0.410173	-0.907633	0.089220	0.898169	0.418989	0.133193
35346	10.516987	-1.683843	1.931744	0.259423	-0.399269	-0.207680	-0.155484	0.029043	0.987411	0.412220	-0.906471	0.091573	0.897719	0.421269	0.128970
35347	10.393842	-0.748142	1.932062	0.591014	-0.383223	-0.172082	-0.152706	0.032194	0.987747	0.417300	-0.903897	0.093976	0.895847	0.426537	0.124596
35348	9.888674	0.894328	1.855311	0.784807	-0.350330	-0.146393	-0.150131	0.035002	0.988046	0.424141	-0.900457	0.096346	0.893065	0.433535	0.120341
35349	9.387683	2.569587	1.504324	0.812621	-0.369256	-0.133829	-0.147356	0.037788	0.988361	0.431231	-0.896840	0.098582	0.890127	0.440739	0.115859
35350	9.154877	3.845170	1.103525	0.743487	-0.347173	-0.144925	-0.144842	0.040608	0.988621	0.437670	-0.893465	0.100822	0.887393	0.447293	0.111639
35351	8.994083	4.517147	0.976425	0.643698	-0.370362	-0.178315	-0.142291	0.043837	0.988854	0.443162	-0.890476	0.103245	0.885077	0.452913	0.107279
35352	8.720557	4.487176	0.843438	0.545218	-0.391477	-0.224229	-0.139770	0.047595	0.989040	0.447708	-0.887875	0.105996	0.883189	0.457616	0.102790
35353	8.785478	4.389840	1.317761	0.393978	-0.435467	-0.224904	-0.136883	0.051564	0.989244	0.450917	-0.885938	0.108573	0.882007	0.460929	0.098019
35354	9.191552	4.127033	1.880522	0.123650	-0.439582	-0.180800	-0.133763	0.055175	0.989476	0.451805	-0.885254	0.110441	0.882032	0.461823	0.093486
35355	9.481132	3.518720	1.959853	-0.134914	-0.448096	-0.102659	-0.130218	0.058126	0.989780	0.450521	-0.885802	0.111291	0.883218	0.460409	0.089161
35356	9.686240	2.707549	1.108577	-0.236368	-0.431640	-0.036864	-0.126510	0.060417	0.990124	0.448425	-0.886850	0.111411	0.884822	0.458091	0.085103
35357	9.380478	2.098535	0.899146	-0.240151	-0.432383	-0.028068	-0.122754	0.062617	0.990460	0.446306	-0.887914	0.111448	0.886421	0.455728	0.081048
35358	9.226944	1.572521	0.696212	-0.305611	-0.503570	-0.033919	-0.118377	0.065188	0.990827	0.443594	-0.889264	0.111504	0.888376	0.452724	0.076352
35359	9.098365	0.903885	-0.375452	-0.280924	-0.616518	-0.023376	-0.112946	0.068154	0.991261	0.441111	-0.890501	0.111487	0.890317	0.449848	0.070515
35360	9.259564	-0.109672	-1.562190	-0.093388	-0.709391	-0.025682	-0.106680	0.071551	0.991716	0.440291	-0.890887	0.111639	0.891495	0.448553	0.063537
35361	9.326945	-0.524696	-1.477722	0.037641	-0.730975	-0.030855	-0.100245	0.075080	0.992126	0.440636	-0.890681	0.111925	0.892071	0.448387	0.056203
35362	9.552149	-0.040611	-0.798116	0.122875	-0.762788	-0.029373	-0.093510	0.078745	0.992499	0.441745	-0.890092	0.112240	0.892254	0.448927	0.048448
35363	9.333294	0.517568	-0.273341	0.232697	-0.763607	-0.053398	-0.086881	0.082630	0.992786	0.443813	-0.888988	0.112830	0.891898	0.450414	0.040564
35364	9.507047	1.166352	0.244640	0.338514	-0.766903	-0.066125	-0.080280	0.086662	0.992998	0.446815	-0.887388	0.113568	0.891017	0.452804	0.032518
35365	9.819548	1.960384	0.588709	0.397048	-0.750702	-0.047579	-0.073755	0.090470	0.993164	0.450354	-0.885528	0.114109	0.889798	0.455692	0.024568
35366	9.138089	2.361372	0.781675	0.382290	-0.736402	-0.043198	-0.067343	0.094200	0.993273	0.453762	-0.883726	0.114575	0.888575	0.458426	0.016768
35367	9.062244	2.348900	0.571848	0.325657	-0.768225	-0.036910	-0.060634	0.098033	0.993334	0.456670	-0.882180	0.114939	0.887567	0.460595	0.008722
35368	9.276452	2.243712	0.667996	0.282416	-0.809177	-0.028262	-0.053526	0.101998	0.993344	0.459198	-0.880834	0.115189	0.886720	0.462307	0.000310
35369	9.164121	2.060906	1.108685	0.227601	-0.857920	-0.033962	-0.046024	0.106246	0.993274	0.461237	-0.879731	0.115473	0.886082	0.463449	-0.008516
35370	9.257281	1.728182	1.463276	0.239783	-0.910733	-0.042372	-0.038094	0.110827	0.993109	0.463381	-0.878558	0.115818	0.885340	0.464600	-0.017887
35371	9.382990	1.078708	1.563728	0.298831	-0.904281	-0.010615	-0.030089	0.115107	0.992897	0.466059	-0.877141	0.115811	0.884242	0.466234	-0.027254
35372	9.789502	0.779796	1.713077	0.380845	-0.835285	0.047560	-0.022428	0.118578	0.992691	0.469473	-0.875403	0.115174	0.882662	0.468625	-0.036036
35373	9.639947	1.041766	1.667283	0.473420	-0.750675	0.097933	-0.015296	0.121230	0.992507	0.473703	-0.873280	0.113967	0.880552	0.471896	-0.044069
35374	9.273455	1.495286	1.448399	0.542442	-0.713289	0.126359	-0.008362	0.123491	0.992311	0.478524	-0.870850	0.112408	0.878035	0.475784	-0.051811
35375	9.326703	1.824758	1.323519	0.587919	-0.714913	0.138667	-0.001377	0.125680	0.992070	0.483721	-0.868199	0.110658	0.875221	0.480037	-0.059599
35376	9.417186	1.858235	1.386795	0.612395	-0.701205	0.147749	0.005529	0.127764	0.991789	0.489104	-0.865418	0.108759	0.872208	0.484487	-0.067275
35377	8.881208	1.837722	1.816669	0.627468	-0.663228	0.145356	0.012068	0.129716	0.991478	0.494590	-0.862536	0.106826	0.869043	0.489086	-0.074566
35378	9.208010	1.754166	2.609295	0.659586	-0.700958	0.151485	0.018962	0.131841	0.991089	0.500322	-0.859479	0.104761	0.865632	0.493877	-0.082260
35379	9.023201	1.619661	2.908315	0.734608	-0.681056	0.197905	0.025890	0.133505	0.990710	0.506657	-0.856078	0.102122	0.861759	0.499306	-0.089805
35380	9.205722	1.946004	2.953932	0.826963	-0.591782	0.271165	0.032420	0.134147	0.990431	0.513720	-0.852271	0.098618	0.857345	0.505607	-0.096545
35381	9.795120	2.924196	3.230969	0.847435	-0.561089	0.357766	0.039116	0.133940	0.990217	0.520872	-0.848423	0.094184	0.852738	0.512092	-0.102953
35382	11.920065	4.319854	3.771462	0.703587	-0.384454	0.402747	0.044557	0.132494	0.990182	0.526723	-0.845322	0.089409	0.848869	0.517567	-0.107453
35383	14.878563	4.896322	4.019732	0.535812	-0.176527	0.390290	0.048163	0.130097	0.990331	0.531116	-0.843033	0.084917	0.845929	0.521891	-0.109699
35384	16.585356	4.157077	3.797912	0.303533	0.270061	0.376198	0.047943	0.125501	0.990934	0.533533	-0.841910	0.080814	0.844420	0.524821	-0.107323
35385	15.238334	1.888225	4.635511	-0.041791	0.660856	0.363991	0.044344	0.118946	0.991910	0.533046	-0.842557	0.077206	0.844924	0.525310	-0.100766
35386	14.376233	0.156151	6.300481	-0.389037	0.931258	0.341946	0.038342	0.111165	0.993062	0.529645	-0.844973	0.074139	0.847352	0.523128	-0.091276
35387	12.985573	-0.311036	6.683763	-0.539560	1.262697	0.349598	0.029504	0.101599	0.994388	0.524981	-0.848141	0.071080	0.850603	0.519937	-0.078361
35388	12.019966	0.337593	5.940943	-0.441051	1.516502	0.393315	0.018702	0.090376	0.995732	0.521162	-0.850790	0.067432	0.853253	0.517677	-0.063012
35389	11.295939	1.352236	4.981707	-0.310954	1.695657	0.428828	0.006483	0.077930	0.996938	0.518489	-0.852739	0.063286	0.855060	0.516491	-0.045934
35390	10.714869	2.438273	4.123668	-0.329079	1.836624	0.433064	-0.006937	0.064746	0.997878	0.515708	-0.854728	0.059043	0.856736	0.515023	-0.027460
35391	9.978289	3.388653	4.261071	-0.478347	1.822946	0.432124	-0.020322	0.051659	0.998458	0.511702	-0.857415	0.054776	0.858923	0.512026	-0.009009
35392	9.956208	4.059126	4.213687	-0.758088	1.758578	0.436711	-0.033176	0.038936	0.998691	0.505330	-0.861454	0.050373	0.862288	0.506340	0.008904
35393	11.440693	3.173241	2.292681	-1.293450	1.812671	0.414404	-0.046757	0.026243	0.998562	0.494346	-0.868049	0.045960	0.868007	0.495784	0.027615
35394	12.228325	1.584428	-0.096103	-1.896017	1.932339	0.379628	-0.061704	0.013488	0.998003	0.478054	-0.877354	0.041415	0.876161	0.479655	0.047689
35395	12.289490	0.261892	-1.857199	-2.174400	2.078552	0.302183	-0.078563	0.001020	0.996909	0.459161	-0.887578	0.037093	0.884872	0.460656	0.069262
35396	12.353594	-0.269532	-1.530462	-2.058677	2.181122	0.172561	-0.097109	-0.010386	0.995220	0.441059	-0.896846	0.033677	0.892209	0.442221	0.091672
35397	11.823527	0.026219	-1.221473	-1.671469	2.323893	0.046493	-0.117667	-0.020934	0.992832	0.426201	-0.904082	0.031450	0.896943	0.426846	0.115303
35398	12.473338	-0.470672	-2.367176	-1.262539	2.219697	0.026013	-0.137438	-0.030533	0.990040	0.414935	-0.909371	0.029557	0.899411	0.414865	0.137651
35399	13.344615	-1.506499	-2.862915	-1.165766	2.204134	0.103249	-0.156826	-0.040525	0.986794	0.404640	-0.914084	0.026768	0.900928	0.403495	0.159750
35400	12.688994	-2.694280	-3.044217	-1.194586	2.150935	0.244061	-0.175186	-0.051335	0.983196	0.394319	-0.918703	0.022292	0.902121	0.391598	0.181186
35401	11.965915	-3.369262	-2.844543	-1.119923	2.131235	0.366576	-0.192956	-0.062968	0.979185	0.384937	-0.922795	0.016513	0.902547	0.380110	0.202297
35402	10.023171	-3.908988	-2.522019	-0.801367	2.096723	0.459592	-0.210057	-0.075117	0.974799	0.378680	-0.925471	0.010285	0.901375	0.371297	0.222847
35403	10.192200	-3.675040	-2.010389	-0.327155	1.950705	0.547987	-0.225505	-0.087424	0.970312	0.376979	-0.926212	0.004161	0.898351	0.366726	0.241822
35404	10.188631	-3.399249	-1.821423	0.101211	1.922280	0.587154	-0.240451	-0.099926	0.965504	0.379300	-0.925273	-0.001300	0.893484	0.365904	0.260385
35405	10.175492	-2.562340	-1.728556	0.497792	1.864935	0.605843	-0.254698	-0.112409	0.960465	0.385283	-0.922780	-0.005828	0.886953	0.368566	0.278340
35406	9.423660	-1.328728	-1.812005	0.787651	1.808478	0.558362	-0.268438	-0.124287	0.955245	0.393746	-0.919176	-0.008946	0.879150	0.373723	0.295679
35407	9.266341	-0.263643	-1.768404	0.955843	1.647095	0.451345	-0.281009	-0.134672	0.950209	0.403401	-0.914965	-0.010378	0.870805	0.380399	0.311441
35408	8.597322	0.211795	-1.832478	1.024512	1.614013	0.306893	-0.293684	-0.143694	0.945040	0.413207	-0.910582	-0.010045	0.861980	0.387547	0.326799
35409	7.318108	0.233095	-1.789231	1.038670	1.544472	0.233986	-0.305906	-0.151894	0.939867	0.422866	-0.906150	-0.008811	0.852998	0.394742	0.341428
35410	6.982488	0.360347	-1.532662	1.030104	1.409528	0.197087	-0.316969	-0.159311	0.934960	0.432269	-0.901717	-0.007100	0.844200	0.401904	0.354682
35411	6.787802	0.427236	-0.847884	0.951229	1.352915	0.142955	-0.327663	-0.166109	0.930078	0.440770	-0.897606	-0.005028	0.835678	0.408303	0.367329
35412	6.609221	0.486784	-0.082610	0.849267	1.277318	0.111106	-0.337737	-0.172376	0.925322	0.448251	-0.893903	-0.002914	0.827650	0.413793	0.379171
35413	6.184446	0.603794	0.550594	0.665583	1.207150	0.073720	-0.347305	-0.178081	0.920688	0.454039	-0.890981	-0.001061	0.820504	0.417660	0.390298
35414	5.716150	0.902013	1.193789	0.460194	1.107856	0.037109	-0.356137	-0.183071	0.916325	0.457980	-0.888962	0.000394	0.814506	0.419799	0.400435
35415	5.582902	1.132671	1.879155	0.274049	0.949084	0.003092	-0.363783	-0.187114	0.912497	0.460268	-0.887779	0.001449	0.809824	0.420520	0.409082
35416	5.689381	1.389444	2.397195	0.091058	0.763353	-0.017542	-0.369978	-0.190186	0.909366	0.460988	-0.887404	0.001962	0.806602	0.419933	0.415993
35417	5.833912	1.545649	2.415959	-0.191976	0.561216	-0.023773	-0.374564	-0.192351	0.907030	0.459403	-0.888227	0.001350	0.805389	0.417198	0.421064
35418	6.187882	1.598095	2.293185	-0.567779	0.329975	-0.043140	-0.377365	-0.193355	0.905654	0.454713	-0.890638	-0.000680	0.806741	0.411556	0.424017
35419	7.143186	1.477669	2.648998	-0.889208	0.131515	-0.070287	-0.378699	-0.193291	0.905111	0.447310	-0.894371	-0.003843	0.810248	0.403410	0.425158
35420	7.861375	1.351782	3.174126	-1.119618	-0.000640	-0.092374	-0.379047	-0.192481	0.905138	0.437909	-0.898985	-0.007788	0.815204	0.393416	0.425047
35421	8.612047	1.049417	3.963317	-1.350037	-0.130889	-0.131069	-0.378497	-0.190820	0.905720	0.426416	-0.904443	-0.012353	0.821529	0.381538	0.423697
35422	9.572105	0.101074	4.570630	-1.452109	-0.255339	-0.193656	-0.377149	-0.188127	0.906845	0.413753	-0.910235	-0.016754	0.828593	0.368891	0.421132
35423	9.979920	-1.083948	4.683639	-1.249300	-0.370344	-0.216291	-0.374905	-0.184836	0.908450	0.402600	-0.915156	-0.020053	0.835080	0.358224	0.417512
35424	9.847831	-2.199870	4.524353	-0.908332	-0.487285	-0.147761	-0.371357	-0.181777	0.910522	0.394489	-0.918625	-0.022503	0.840519	0.350834	0.412847
35425	9.457275	-2.831981	4.432533	-0.599461	-0.537853	-0.065639	-0.367036	-0.179329	0.912757	0.389247	-0.920810	-0.024388	0.844850	0.346337	0.407774
35426	8.667369	-2.608972	4.862679	-0.413561	-0.521324	-0.009201	-0.362604	-0.177471	0.914889	0.385763	-0.922232	-0.026003	0.848354	0.343501	0.402867
35427	8.114974	-2.071339	5.055812	-0.291599	-0.542625	0.017372	-0.357880	-0.175804	0.917069	0.383399	-0.923177	-0.027356	0.851426	0.341813	0.397790
35428	8.558465	-1.786567	4.762490	-0.211953	-0.575790	-0.010894	-0.352957	-0.173763	0.919363	0.381603	-0.923899	-0.028118	0.854284	0.340907	0.392405
35429	9.173086	-1.848705	4.404206	-0.160921	-0.555006	-0.103721	-0.348558	-0.170947	0.921566	0.379915	-0.924603	-0.027818	0.856839	0.340420	0.387223
35430	9.264973	-1.874803	4.000429	-0.088339	-0.508244	-0.227470	-0.345006	-0.167138	0.923600	0.378418	-0.925267	-0.026084	0.858936	0.340507	0.382470
35431	9.199496	-1.655280	3.324513	0.011729	-0.492911	-0.328206	-0.341962	-0.162454	0.925565	0.377443	-0.925746	-0.023034	0.860580	0.341472	0.377887
35432	8.565760	-1.306393	2.023872	0.104203	-0.579299	-0.386356	-0.338376	-0.156918	0.927836	0.377076	-0.925985	-0.019088	0.862157	0.343406	0.372501
35433	8.306001	-0.880890	0.329797	0.175231	-0.796208	-0.427446	-0.333069	-0.150249	0.930855	0.377206	-0.926016	-0.014500	0.864165	0.346294	0.365101
35434	9.065857	-0.586216	-1.223966	0.202488	-1.037808	-0.480922	-0.325846	-0.142208	0.934666	0.377423	-0.925994	-0.009310	0.866820	0.349731	0.355404
35435	10.182140	-0.235099	-2.354324	0.200732	-1.179529	-0.572818	-0.317717	-0.132791	0.938841	0.377374	-0.926055	-0.003274	0.869853	0.353253	0.344336
35436	10.629012	0.130359	-3.201737	0.194889	-1.177265	-0.731613	-0.310163	-0.121861	0.942841	0.376824	-0.926275	0.004242	0.872813	0.356601	0.333217
35437	10.250610	0.641015	-3.262026	0.210319	-1.191532	-0.843262	-0.302870	-0.109812	0.946684	0.376128	-0.926479	0.012865	0.875670	0.359970	0.321906
35438	10.380730	1.633425	-1.963167	0.178774	-1.285973	-0.841456	-0.294694	-0.097391	0.950616	0.375230	-0.926685	0.021383	0.878839	0.363001	0.309633
35439	10.710955	2.367456	0.690284	-0.062264	-1.313945	-0.763670	-0.285921	-0.085567	0.954425	0.372513	-0.927591	0.028435	0.882883	0.363666	0.297093
35440	10.837733	2.182044	3.495125	-0.437831	-1.367364	-0.647062	-0.276148	-0.074629	0.958213	0.366866	-0.929677	0.033321	0.888342	0.360737	0.284108
35441	10.455433	0.819299	5.458512	-0.816671	-1.391419	-0.617173	-0.265923	-0.063937	0.961872	0.357958	-0.933006	0.036944	0.895070	0.354134	0.270995
35442	9.647671	-1.804542	6.302858	-1.016436	-1.411491	-0.549740	-0.255122	-0.053884	0.965406	0.347439	-0.936869	0.039524	0.902330	0.345503	0.257737
35443	10.087901	-4.694895	6.159522	-0.947039	-1.386817	-0.364944	-0.243759	-0.045756	0.968756	0.337999	-0.940269	0.040638	0.909031	0.337345	0.244665
35444	11.526072	-6.178448	5.762212	-0.610968	-1.235729	-0.086483	-0.232730	-0.040831	0.971684	0.332271	-0.942336	0.039986	0.914020	0.332169	0.232877
35445	12.648622	-5.821619	5.808999	-0.181121	-0.917481	0.065875	-0.224061	-0.038446	0.973816	0.330812	-0.942895	0.038890	0.916712	0.330864	0.223985
35446	11.219297	-4.078903	5.416087	0.233440	-0.549085	-0.004946	-0.218988	-0.036602	0.975041	0.332988	-0.942107	0.039421	0.917150	0.333310	0.218498
35447	8.585013	-1.575914	3.962044	0.583263	-0.352492	-0.230497	-0.216478	-0.033287	0.975720	0.337880	-0.940212	0.042888	0.915956	0.338960	0.214782
35448	7.859622	0.779456	2.629845	0.742702	-0.350343	-0.449199	-0.214748	-0.027894	0.976271	0.343754	-0.937790	0.048820	0.914175	0.346081	0.210978
35449	9.105606	2.580445	1.310430	0.716944	-0.330476	-0.545520	-0.213568	-0.021669	0.976688	0.349181	-0.935404	0.055601	0.912393	0.352915	0.207339
35450	9.852812	3.853137	0.116580	0.652618	-0.338829	-0.610573	-0.212570	-0.014783	0.977034	0.353875	-0.933177	0.062872	0.910816	0.359113	0.203597
35451	9.717347	3.788329	-0.536274	0.538987	-0.382494	-0.692838	-0.211500	-0.006977	0.977353	0.357359	-0.931288	0.070685	0.909704	0.364216	0.199461
35452	9.358539	2.039393	-0.960054	0.348933	-0.462693	-0.646041	-0.209551	0.000704	0.977797	0.359219	-0.930017	0.077654	0.909423	0.367516	0.194633
35453	10.120459	0.532156	-0.305161	0.048718	-0.561923	-0.470822	-0.206075	0.007114	0.978510	0.358730	-0.929805	0.082309	0.910410	0.367983	0.189057
35454	11.089676	0.434520	0.101579	-0.150820	-0.615706	-0.325914	-0.201574	0.012383	0.979395	0.356737	-0.930313	0.085184	0.912199	0.366558	0.183110
35455	11.285822	1.507858	-0.011224	-0.142051	-0.623620	-0.262303	-0.196759	0.017071	0.980303	0.354964	-0.930781	0.087454	0.913940	0.365180	0.177080
35456	10.861084	3.342138	0.358187	-0.155423	-0.561256	-0.226451	-0.192371	0.021200	0.981093	0.353147	-0.931290	0.089369	0.915577	0.363662	0.171666
35457	9.671278	4.344957	0.165214	-0.295712	-0.543796	-0.222803	-0.188115	0.025213	0.981823	0.350058	-0.932296	0.091012	0.917645	0.360816	0.166553
35458	9.280638	4.345802	-0.317544	-0.492618	-0.548686	-0.205282	-0.183730	0.029071	0.982547	0.345195	-0.933993	0.092184	0.920371	0.356107	0.161568
35459	9.271873	3.322060	-0.285734	-0.711058	-0.570119	-0.230500	-0.179206	0.033206	0.983251	0.338265	-0.936417	0.093276	0.923830	0.349315	0.156579
35460	9.819724	1.712224	0.009042	-0.773680	-0.543989	-0.298087	-0.175113	0.037856	0.983820	0.330621	-0.938972	0.094978	0.927375	0.341904	0.151910
35461	9.790757	0.272687	0.009284	-0.543247	-0.496155	-0.370965	-0.171666	0.042994	0.984217	0.324978	-0.940654	0.097773	0.930011	0.336633	0.147506
35462	9.756778	-0.372443	0.110741	-0.094931	-0.476058	-0.408738	-0.168506	0.048413	0.984511	0.323445	-0.940774	0.101622	0.931123	0.335559	0.142867
35463	9.309328	-0.416271	0.158889	0.324433	-0.463583	-0.398566	-0.165428	0.053691	0.984759	0.325845	-0.939467	0.105960	0.930838	0.338407	0.137919
35464	8.681969	0.189104	0.089854	0.633787	-0.537444	-0.358941	-0.161552	0.058867	0.985107	0.331198	-0.937091	0.110313	0.929628	0.344087	0.131892
35465	8.797544	1.616701	0.278793	0.775843	-0.631467	-0.282940	-0.156576	0.063678	0.985611	0.337999	-0.934210	0.114052	0.928030	0.350994	0.124752
35466	9.117940	3.043965	0.995084	0.680361	-0.666218	-0.202278	-0.151032	0.067898	0.986194	0.344042	-0.931657	0.116832	0.926728	0.356938	0.117350
35467	9.299912	3.832710	1.746642	0.375780	-0.669449	-0.144180	-0.145270	0.071611	0.986797	0.347354	-0.930199	0.118639	0.926413	0.360003	0.110256
35468	9.511659	3.881377	1.958958	-0.013183	-0.647061	-0.148526	-0.139732	0.075295	0.987322	0.347064	-0.930126	0.120052	0.927373	0.359439	0.103836
35469	9.524021	3.023003	2.185892	-0.356690	-0.611031	-0.205808	-0.134713	0.079367	0.987701	0.343514	-0.931231	0.121682	0.929436	0.355681	0.098186
35470	9.472955	1.782241	2.224062	-0.560596	-0.597403	-0.275694	-0.130036	0.084020	0.987943	0.337974	-0.932973	0.123830	0.932129	0.350002	0.092924
35471	9.777977	0.359042	1.829292	-0.574657	-0.558695	-0.311335	-0.125809	0.088838	0.988069	0.332255	-0.934689	0.126344	0.934761	0.344186	0.088076
35472	9.805833	-0.721639	1.236828	-0.437931	-0.477809	-0.295290	-0.122257	0.093208	0.988112	0.327834	-0.935908	0.128846	0.936791	0.339689	0.083864
35473	9.800375	-1.083113	0.966595	-0.138767	-0.464977	-0.262020	-0.118700	0.097206	0.988161	0.326261	-0.936119	0.131278	0.937797	0.337981	0.079403
35474	9.774831	-1.054298	0.774992	0.159501	-0.449712	-0.217282	-0.115138	0.100736	0.988229	0.327546	-0.935355	0.133508	0.937794	0.339062	0.074699
35475	9.734375	-1.011294	0.676924	0.408923	-0.430170	-0.160259	-0.111578	0.103668	0.988334	0.331240	-0.933789	0.135342	0.936926	0.342477	0.069851
35476	9.401026	-0.814206	0.772480	0.591287	-0.405941	-0.097634	-0.108048	0.105954	0.988483	0.336711	-0.931637	0.136666	0.935388	0.347600	0.064985
35477	9.201157	0.086011	1.069695	0.712117	-0.409241	-0.046551	-0.104326	0.107791	0.988685	0.343358	-0.929081	0.137524	0.933392	0.353820	0.059916
35478	9.301453	1.451324	1.016358	0.815625	-0.435796	-0.022714	-0.100286	0.109535	0.988911	0.350981	-0.926132	0.138174	0.930997	0.360946	0.054433
35479	9.011155	2.783435	0.940800	0.823373	-0.498762	-0.026908	-0.095687	0.111570	0.989139	0.358652	-0.923092	0.138815	0.928554	0.368039	0.048313
35480	8.944996	3.897811	0.953384	0.715563	-0.593648	-0.040760	-0.090272	0.114125	0.989357	0.365293	-0.920381	0.139498	0.926505	0.373998	0.041395
35481	8.851661	4.383343	0.910226	0.500496	-0.658869	-0.077073	-0.084398	0.117281	0.989506	0.369901	-0.918401	0.140403	0.925230	0.377869	0.034129
35482	8.755957	4.343684	0.989216	0.240694	-0.745909	-0.123250	-0.077898	0.121212	0.989565	0.372068	-0.917333	0.141654	0.924931	0.379220	0.026359
35483	9.129931	3.868474	0.850637	0.028757	-0.798782	-0.157099	-0.071037	0.125652	0.989528	0.372258	-0.917020	0.143169	0.925407	0.378530	0.018368
35484	9.696988	3.394874	1.132563	-0.113721	-0.827262	-0.173103	-0.063964	0.130339	0.989404	0.371129	-0.917218	0.144823	0.926376	0.376460	0.010296
35485	9.682346	2.642253	1.372186	-0.204208	-0.795339	-0.177158	-0.057193	0.134920	0.989204	0.369169	-0.917740	0.146517	0.927601	0.373563	0.002680
35486	9.163982	1.703283	0.997906	-0.154318	-0.781726	-0.186503	-0.050568	0.139519	0.988927	0.367676	-0.918050	0.148321	0.928578	0.371105	-0.004874
35487	9.239582	1.218009	0.923852	-0.008045	-0.800605	-0.166331	-0.043690	0.143986	0.988615	0.367563	-0.917835	0.149921	0.928972	0.369928	-0.012824
35488	9.345235	1.179952	1.043471	0.143861	-0.777131	-0.104313	-0.036798	0.147795	0.988333	0.368896	-0.917142	0.150884	0.928742	0.370145	-0.020772
35489	9.475634	1.182588	0.883243	0.275649	-0.765160	-0.052034	-0.029834	0.151082	0.988071	0.371477	-0.916034	0.151284	0.927963	0.371559	-0.028795
35490	9.562229	1.469607	0.520689	0.405231	-0.745282	-0.026018	-0.022963	0.154076	0.987792	0.375267	-0.914475	0.151364	0.926632	0.374161	-0.036820
35491	9.707833	1.682986	0.699524	0.483665	-0.734679	0.000031	-0.016108	0.156810	0.987497	0.379783	-0.912649	0.151119	0.924935	0.377469	-0.044852
35492	9.288407	1.701622	0.886429	0.534941	-0.690638	0.018426	-0.009599	0.159239	0.987193	0.384766	-0.910640	0.150632	0.922964	0.381285	-0.052528
35493	9.162196	1.974052	1.034706	0.581233	-0.708735	0.029716	-0.002898	0.161659	0.986842	0.390164	-0.908451	0.149963	0.920741	0.385465	-0.060441
35494	9.258811	1.962089	1.435945	0.596435	-0.726405	0.029834	0.003956	0.164182	0.986422	0.395686	-0.906179	0.149239	0.918378	0.389723	-0.068549
35495	8.894595	1.383093	2.039920	0.591626	-0.735205	0.037476	0.010900	0.166697	0.985948	0.401146	-0.903915	0.148392	0.915949	0.393892	-0.076723
35496	9.168956	0.787315	2.456996	0.636802	-0.691732	0.057669	0.017518	0.168895	0.985478	0.406999	-0.901480	0.147264	0.913261	0.398509	-0.084532
35497	9.812238	0.526088	2.653779	0.759411	-0.706350	0.102507	0.024428	0.170781	0.985006	0.413936	-0.898597	0.145534	0.909978	0.404175	-0.092644
35498	10.676950	1.011529	2.811590	0.921457	-0.567420	0.159741	0.030306	0.171642	0.984693	0.422295	-0.895103	0.143028	0.905952	0.411496	-0.099611
35499	10.878919	2.100450	2.954419	1.076352	-0.494771	0.248179	0.035886	0.171456	0.984538	0.431974	-0.891043	0.139429	0.901172	0.420291	-0.106041
35500	12.275790	3.665374	2.885569	1.159697	-0.319692	0.301924	0.040137	0.170112	0.984607	0.442315	-0.886618	0.135152	0.895961	0.430081	-0.110829
35501	12.926076	4.635853	1.797677	1.063704	-0.006041	0.305068	0.041602	0.167414	0.985009	0.451730	-0.882498	0.130912	0.891184	0.439512	-0.112339
35502	12.682471	4.440114	1.038752	0.825798	0.208922	0.313010	0.041228	0.163712	0.985646	0.458979	-0.879344	0.126857	0.887490	0.447161	-0.111394
35503	12.620100	3.396991	1.265892	0.555714	0.315671	0.322123	0.039961	0.159438	0.986399	0.463808	-0.877353	0.123022	0.885034	0.452583	-0.109009
35504	14.375768	2.760122	2.115704	0.295899	0.429032	0.331138	0.037766	0.154568	0.987260	0.466330	-0.876517	0.119391	0.883804	0.455880	-0.105182
35505	14.955183	2.249475	2.914094	0.032316	0.640687	0.334328	0.033705	0.148688	0.988310	0.466532	-0.876864	0.116010	0.883862	0.457168	-0.098923
35506	13.455457	1.793615	3.515948	-0.226850	0.850105	0.364226	0.027941	0.141590	0.989531	0.464447	-0.878416	0.112576	0.885160	0.456440	-0.090305
35507	12.049994	1.353687	4.258956	-0.438906	1.025726	0.402627	0.020752	0.133353	0.990851	0.460495	-0.880954	0.108919	0.887420	0.454022	-0.079690
35508	10.667372	0.717555	5.024031	-0.623601	1.186882	0.439031	0.012270	0.124095	0.992195	0.454915	-0.884326	0.104978	0.890450	0.450076	-0.067303
35509	10.332884	0.060885	5.673799	-0.760312	1.438423	0.475541	0.001620	0.113414	0.993546	0.448135	-0.888280	0.100667	0.893964	0.445080	-0.052264
35510	10.369557	-0.520989	5.719362	-0.801946	1.721256	0.521252	-0.011421	0.101138	0.994807	0.441014	-0.892374	0.095788	0.897427	0.439818	-0.034411
35511	10.266002	-0.747356	5.246984	-0.792754	1.998077	0.562190	-0.026891	0.087343	0.995815	0.434034	-0.896355	0.090340	0.900495	0.434647	-0.013806
35512	10.282308	-0.385009	5.004579	-0.830067	2.212939	0.540134	-0.044466	0.072914	0.996346	0.426779	-0.900359	0.084936	0.903262	0.428996	0.008918
35513	9.998009	0.451865	4.981600	-0.931781	2.332561	0.434601	-0.063699	0.059030	0.996222	0.418626	-0.904596	0.080368	0.905922	0.422164	0.032911
35514	10.639864	0.980975	3.784512	-1.024001	2.311433	0.392264	-0.082987	0.045786	0.995498	0.409663	-0.909069	0.075961	0.908454	0.414123	0.056684
35515	10.244150	0.937196	1.024817	-1.052397	2.339633	0.387638	-0.102668	0.032629	0.994180	0.400495	-0.913518	0.071340	0.910529	0.405489	0.080722
35516	10.856447	0.694771	-1.448415	-0.867686	2.233333	0.372100	-0.121481	0.020226	0.992388	0.393049	-0.917088	0.066805	0.911458	0.398172	0.103459
35517	11.912407	0.146342	-2.903766	-0.681798	2.171944	0.360085	-0.139842	0.008297	0.990139	0.387351	-0.919817	0.062415	0.911265	0.392260	0.125415
35518	12.383913	-0.286838	-2.970589	-0.597381	2.153187	0.395053	-0.157877	-0.003752	0.987452	0.382542	-0.922137	0.057658	0.910350	0.386844	0.147019
35519	12.932428	-0.541300	-3.120855	-0.514773	2.025632	0.481756	-0.174438	-0.016023	0.984538	0.378706	-0.924052	0.052060	0.908929	0.381932	0.167258
35520	13.550474	-0.381079	-3.451759	-0.514509	1.934153	0.571507	-0.189793	-0.028671	0.981405	0.375119	-0.925859	0.045496	0.907339	0.376779	0.186477
35521	11.851923	-1.046128	-3.639517	-0.583408	1.898900	0.616567	-0.204673	-0.041520	0.977949	0.371095	-0.927806	0.038275	0.905758	0.370746	0.205305
35522	10.547747	-1.723057	-3.183164	-0.461850	1.827359	0.621810	-0.218851	-0.054046	0.974260	0.368279	-0.929192	0.031181	0.903590	0.365624	0.223259
35523	9.503051	-1.745435	-2.716631	-0.179531	1.808887	0.645249	-0.232752	-0.066669	0.970248	0.368166	-0.929438	0.024454	0.900156	0.362904	0.240874
35524	9.239513	-1.548394	-2.257515	0.148852	1.730933	0.697614	-0.245658	-0.079457	0.966095	0.371218	-0.928371	0.018038	0.895461	0.363063	0.257557
35525	7.885543	-1.382749	-2.263794	0.389301	1.690668	0.751932	-0.257897	-0.092624	0.961722	0.376636	-0.926287	0.011788	0.889739	0.365259	0.273772
35526	9.188958	-0.838252	-1.922574	0.635341	1.472188	0.823486	-0.267760	-0.105674	0.957673	0.384480	-0.923116	0.005638	0.883448	0.369716	0.287803
35527	9.955592	-0.173638	-1.796108	0.722281	1.485653	0.757091	-0.277848	-0.118215	0.953324	0.392952	-0.919559	0.000498	0.876578	0.374748	0.301950
35528	9.328708	0.674617	-1.521020	0.695340	1.493755	0.642669	-0.288283	-0.129769	0.948711	0.400890	-0.916120	-0.003494	0.869586	0.379321	0.316125
35529	8.898557	1.182508	-1.412284	0.543663	1.439065	0.498292	-0.298692	-0.139842	0.944048	0.407112	-0.913355	-0.006488	0.863159	0.382395	0.329743
35530	8.707519	1.199388	-1.236321	0.317287	1.395298	0.365864	-0.309145	-0.148546	0.939342	0.411002	-0.911591	-0.008894	0.857617	0.383322	0.342866
35531	8.182753	0.940043	-0.811278	0.096381	1.341273	0.276703	-0.319429	-0.156233	0.934642	0.412745	-0.910778	-0.011181	0.852998	0.382198	0.355413
35532	7.854129	0.566796	-0.027349	-0.098203	1.259294	0.213516	-0.329211	-0.162995	0.930082	0.412650	-0.910789	-0.013553	0.849317	0.379337	0.367102
35533	7.904695	0.017323	1.144001	-0.286176	1.180837	0.184045	-0.338417	-0.169156	0.925667	0.410888	-0.911539	-0.016356	0.846549	0.374811	0.377985
35534	7.824353	-0.788689	2.198032	-0.434220	1.126230	0.199029	-0.347070	-0.175183	0.921333	0.407948	-0.912789	-0.019882	0.844465	0.368955	0.388267
35535	7.318945	-1.414973	2.919551	-0.506675	1.067900	0.222717	-0.355125	-0.181154	0.917099	0.404506	-0.914222	-0.023950	0.842770	0.362466	0.397940
35536	6.642427	-1.650968	3.219841	-0.445759	0.916733	0.227473	-0.361872	-0.186555	0.913370	0.401618	-0.915384	-0.027848	0.841280	0.356748	0.406176
35537	6.136778	-1.586106	2.806297	-0.269117	0.682730	0.218466	-0.366686	-0.191011	0.910525	0.400202	-0.915903	-0.030970	0.839869	0.353038	0.412292
35538	5.768056	-1.536451	2.306963	-0.038171	0.386952	0.201346	-0.369073	-0.194243	0.908876	0.400672	-0.915628	-0.032982	0.838598	0.351989	0.415761
35539	5.648466	-1.512127	1.913957	0.173816	0.100236	0.199452	-0.369062	-0.196454	0.908405	0.402916	-0.914602	-0.034100	0.837528	0.353426	0.416699
35540	5.797508	-1.465327	1.762648	0.326020	-0.152067	0.210246	-0.366883	-0.197860	0.908982	0.406469	-0.913006	-0.034677	0.836768	0.356750	0.415391
35541	6.469682	-1.279818	1.872898	0.409031	-0.385462	0.209734	-0.362751	-0.198422	0.910517	0.410706	-0.911099	-0.034923	0.836500	0.361287	0.411995
35542	7.559195	-0.971899	2.096352	0.426431	-0.570466	0.139022	-0.357349	-0.197635	0.912821	0.414824	-0.909249	-0.034467	0.836793	0.366343	0.406903
35543	8.695465	-0.927708	2.380237	0.399441	-0.688511	0.005193	-0.351512	-0.195175	0.915612	0.418236	-0.907741	-0.032933	0.837567	0.371366	0.400711
35544	9.804847	-0.620960	3.075612	0.347733	-0.773000	-0.155317	-0.345629	-0.190900	0.918748	0.420658	-0.906718	-0.030151	0.838801	0.376058	0.393692
35545	10.564534	-0.630520	4.357472	0.288043	-0.741736	-0.322193	-0.340707	-0.185207	0.921747	0.422020	-0.906211	-0.026094	0.840130	0.380105	0.386914
35546	10.482055	0.042020	5.536948	0.358354	-0.616746	-0.412547	-0.337213	-0.179134	0.924228	0.423682	-0.905569	-0.020934	0.840703	0.384520	0.381266
35547	9.384511	1.631460	6.517640	0.265038	-0.479558	-0.423057	-0.334922	-0.173484	0.926138	0.424538	-0.905268	-0.016048	0.841187	0.387805	0.376844
35548	8.430762	2.687145	7.097369	-0.050566	-0.438315	-0.376915	-0.332772	-0.168392	0.927851	0.422902	-0.906085	-0.012768	0.842862	0.388141	0.372734
35549	8.437684	2.634275	7.210428	-0.441434	-0.427169	-0.356346	-0.330613	-0.163539	0.929489	0.418041	-0.908360	-0.011127	0.846130	0.384886	0.368682
35550	8.658409	1.914064	7.316855	-0.825405	-0.381920	-0.377151	-0.328878	-0.158672	0.930947	0.409843	-0.912094	-0.010672	0.850804	0.378032	0.364998
35551	8.929291	0.696112	6.742873	-1.057566	-0.359535	-0.407325	-0.327410	-0.153637	0.932308	0.399530	-0.916657	-0.010750	0.856259	0.368965	0.361505
35552	8.942985	-0.362687	5.889082	-0.989695	-0.383908	-0.419243	-0.325712	-0.148409	0.933749	0.389710	-0.920879	-0.010424	0.861416	0.360496	0.357778
35553	8.031451	-0.471813	4.853411	-0.771875	-0.461458	-0.399322	-0.323221	-0.143110	0.935440	0.381798	-0.924197	-0.009468	0.865886	0.354089	0.353359
35554	7.222084	-0.222352	2.529891	-0.563160	-0.647387	-0.353900	-0.318888	-0.137581	0.937754	0.375823	-0.926656	-0.008152	0.870096	0.349830	0.347205
35555	7.304506	-0.095762	-1.253035	-0.478519	-0.921484	-0.307029	-0.311949	-0.131558	0.940946	0.370730	-0.928715	-0.006941	0.874784	0.346672	0.338484
35556	8.078460	-0.163784	-4.527118	-0.575864	-1.218405	-0.359560	-0.302522	-0.124038	0.945037	0.364620	-0.931140	-0.005494	0.880643	0.342917	0.326918
35557	10.381887	-0.311778	-5.044882	-0.736592	-1.489625	-0.513757	-0.291156	-0.114210	0.949834	0.356631	-0.934240	-0.003016	0.887718	0.337862	0.312740
35558	13.100156	-1.200414	-3.141518	-0.879444	-1.483446	-0.663903	-0.280213	-0.103058	0.954390	0.346943	-0.937886	0.000588	0.895048	0.331284	0.298563
35559	13.785835	-2.492294	0.012275	-0.893331	-1.169375	-0.740398	-0.272189	-0.092302	0.957807	0.336923	-0.941519	0.005014	0.901330	0.324072	0.287370
35560	11.612443	-3.293031	2.743179	-0.848088	-0.811692	-0.763122	-0.267333	-0.082530	0.960064	0.327247	-0.944887	0.009898	0.906335	0.316824	0.279607
35561	9.417422	-3.535558	3.699570	-0.805701	-0.750333	-0.725656	-0.262802	-0.073346	0.962058	0.318050	-0.947961	0.014609	0.910922	0.309822	0.272454
35562	10.203716	-3.185043	3.805811	-0.621893	-0.936263	-0.585009	-0.256039	-0.064945	0.964482	0.310902	-0.950261	0.018547	0.915305	0.304608	0.263495
35563	12.659334	-2.383714	4.057197	-0.306458	-1.035887	-0.391402	-0.247695	-0.058118	0.967093	0.307153	-0.951417	0.021493	0.918860	0.302369	0.253512
35564	13.582853	-1.895290	4.542937	0.016292	-0.839634	-0.260230	-0.240716	-0.053128	0.969140	0.306715	-0.951498	0.024021	0.920859	0.303032	0.245336
35565	12.288929	-2.043952	4.060893	0.356205	-0.551916	-0.254904	-0.236364	-0.049062	0.970425	0.309434	-0.950528	0.027312	0.921077	0.306739	0.239852
35566	10.562123	-2.188899	2.673554	0.668710	-0.402165	-0.364041	-0.233744	-0.044386	0.971284	0.314782	-0.948611	0.032404	0.919933	0.313317	0.235704
35567	9.068953	-2.002615	1.012910	0.945585	-0.421360	-0.503866	-0.231423	-0.038314	0.972098	0.322345	-0.945799	0.039461	0.917898	0.322484	0.231230
35568	8.487562	-1.485860	0.017133	1.251125	-0.551172	-0.558129	-0.228145	-0.031262	0.973125	0.332576	-0.941869	0.047713	0.915064	0.334524	0.225279
35569	8.444705	-0.194600	-0.530761	1.487890	-0.667385	-0.518187	-0.223749	-0.024155	0.974348	0.345040	-0.936915	0.056008	0.911528	0.348721	0.217968
35570	8.813947	1.726562	-0.369541	1.565686	-0.722356	-0.472080	-0.218783	-0.017197	0.975622	0.358283	-0.931422	0.063927	0.907616	0.363535	0.209941
35571	8.992964	3.072548	-0.104155	1.414466	-0.713930	-0.447051	-0.213886	-0.010440	0.976803	0.370173	-0.926234	0.071155	0.904005	0.376806	0.201973
35572	8.951933	3.600203	0.037133	1.098813	-0.724622	-0.440878	-0.208940	-0.003621	0.977922	0.379206	-0.922052	0.077606	0.901414	0.387049	0.194027
35573	9.169620	3.506566	0.472290	0.697539	-0.787797	-0.438932	-0.203460	0.003460	0.979077	0.384629	-0.919316	0.083177	0.900369	0.393505	0.185713
35574	9.647391	3.073933	1.071247	0.308579	-0.814906	-0.417445	-0.197674	0.010490	0.980212	0.386616	-0.918052	0.087792	0.900807	0.396320	0.177419
35575	10.323184	2.424575	1.438539	-0.006126	-0.796356	-0.345835	-0.191770	0.016788	0.981296	0.385931	-0.918016	0.091126	0.902375	0.396188	0.169569
35576	10.813046	1.931023	1.727787	-0.247794	-0.747061	-0.227763	-0.185839	0.021809	0.982338	0.383307	-0.918935	0.092915	0.904732	0.393805	0.162415
35577	10.605264	1.821527	2.219253	-0.371074	-0.671268	-0.171448	-0.180352	0.025985	0.983259	0.379675	-0.920336	0.093963	0.907370	0.390265	0.156119
35578	9.863853	2.034566	2.603808	-0.357039	-0.600504	-0.206079	-0.175618	0.030193	0.983995	0.376108	-0.921651	0.095406	0.909781	0.386844	0.150503
35579	9.429783	2.205108	2.375083	-0.299763	-0.541406	-0.294926	-0.171733	0.034967	0.984523	0.372909	-0.922697	0.097819	0.911837	0.383936	0.145418
35580	9.300784	1.895526	1.601068	-0.165172	-0.496708	-0.361272	-0.168487	0.040181	0.984885	0.370832	-0.923180	0.101103	0.913289	0.382261	0.140643
35581	9.484005	1.540976	1.198418	0.046896	-0.436810	-0.354579	-0.165753	0.045092	0.985136	0.370711	-0.922838	0.104614	0.913838	0.382541	0.136247
35582	9.438619	1.222215	0.746957	0.284597	-0.377513	-0.311596	-0.163406	0.049392	0.985322	0.372842	-0.921585	0.108029	0.913393	0.385022	0.132177
35583	9.110567	1.174180	-0.173128	0.555892	-0.384339	-0.263662	-0.160829	0.053276	0.985543	0.377531	-0.919283	0.111303	0.911923	0.389974	0.127734
35584	9.014805	1.557177	-0.672770	0.720101	-0.447318	-0.227897	-0.157565	0.057104	0.985856	0.383772	-0.916313	0.114413	0.909886	0.396371	0.122464
35585	9.135764	2.357535	-0.885509	0.687010	-0.501540	-0.201705	-0.153727	0.060923	0.986234	0.389745	-0.913438	0.117177	0.908002	0.402393	0.116675
35586	9.190195	2.923060	-0.980802	0.502671	-0.577770	-0.187651	-0.149162	0.064950	0.986677	0.394066	-0.911273	0.119560	0.906897	0.406649	0.110333
35587	9.314945	2.462360	-0.728489	0.233634	-0.640941	-0.183836	-0.144015	0.069209	0.987152	0.395957	-0.910185	0.121578	0.906906	0.408379	0.103676
35588	9.509393	1.232152	-0.390271	0.001350	-0.667749	-0.141886	-0.138460	0.073204	0.987659	0.395812	-0.910065	0.122942	0.907833	0.407950	0.097033
35589	9.455481	0.857035	0.135257	-0.077780	-0.681045	-0.092121	-0.132576	0.076790	0.988194	0.395022	-0.910301	0.123733	0.909055	0.406763	0.090350
35590	9.579511	1.363748	0.895652	-0.042150	-0.704836	-0.079654	-0.126422	0.080357	0.988716	0.394578	-0.910396	0.124444	0.910124	0.405859	0.083387
35591	9.774824	2.050578	1.366665	0.000200	-0.745006	-0.104433	-0.119988	0.084302	0.989190	0.394493	-0.910298	0.125431	0.911031	0.405278	0.075968
35592	9.925811	2.092598	1.644292	0.003575	-0.722247	-0.152738	-0.113950	0.088596	0.989528	0.394389	-0.910139	0.126904	0.911851	0.404720	0.068770
35593	9.529817	1.706884	1.922263	0.040434	-0.670029	-0.198812	-0.108562	0.093089	0.989722	0.394577	-0.909784	0.128851	0.912427	0.404510	0.062037
35594	9.078641	1.347841	2.091360	0.096369	-0.650782	-0.219723	-0.103433	0.097699	0.989826	0.395265	-0.909172	0.131042	0.912725	0.404798	0.055421
35595	9.106262	1.154814	2.090759	0.192330	-0.640904	-0.195891	-0.098299	0.102050	0.989911	0.396864	-0.908186	0.133034	0.912599	0.405937	0.048774
35596	9.346065	1.089313	1.955653	0.294890	-0.593266	-0.136110	-0.093371	0.105679	0.990007	0.399465	-0.906832	0.134475	0.911981	0.408029	0.042457
35597	9.467228	1.397726	1.758204	0.400681	-0.536755	-0.074772	-0.088720	0.108527	0.990127	0.403089	-0.905100	0.135326	0.910850	0.411115	0.036554
35598	9.510544	2.130352	1.405373	0.459648	-0.495051	-0.067490	-0.084430	0.111161	0.990210	0.407254	-0.903116	0.136108	0.909404	0.414759	0.030979
35599	9.433046	2.484210	0.669997	0.421539	-0.494746	-0.106815	-0.080312	0.114158	0.990211	0.411037	-0.901230	0.137237	0.908074	0.418035	0.025456
35600	9.382562	2.442107	0.063524	0.329132	-0.517381	-0.143882	-0.076152	0.117602	0.990137	0.413951	-0.899671	0.138694	0.907108	0.420430	0.019830
35601	8.784495	2.234988	-0.453261	0.241372	-0.607479	-0.181891	-0.071339	0.121770	0.989991	0.416045	-0.898426	0.140488	0.906541	0.421904	0.013431
35602	8.980041	2.101029	-0.874240	0.153290	-0.696767	-0.188502	-0.065751	0.126384	0.989800	0.417345	-0.897533	0.142326	0.906366	0.422446	0.006268
35603	8.855661	1.896463	-0.431364	0.007592	-0.784269	-0.202696	-0.059427	0.131487	0.989535	0.417326	-0.897229	0.144285	0.906812	0.421533	-0.001553
35604	9.106447	1.629582	0.256751	-0.094383	-0.862644	-0.224327	-0.052478	0.137108	0.989165	0.416384	-0.897314	0.146467	0.907673	0.419558	-0.010000
35605	9.502363	1.631483	1.064129	-0.121936	-0.953367	-0.252628	-0.044811	0.143339	0.988659	0.415192	-0.897460	0.148935	0.908630	0.417157	-0.019297
35606	9.326572	1.871845	1.361576	-0.103180	-0.991449	-0.284672	-0.036921	0.149997	0.987997	0.414176	-0.897461	0.151730	0.909448	0.414807	-0.028990
35607	9.318817	1.747758	1.508255	-0.023742	-1.015612	-0.285201	-0.028805	0.156735	0.987221	0.413904	-0.897113	0.154506	0.909865	0.413065	-0.039032
35608	9.407085	1.017508	1.704661	0.064531	-0.947719	-0.254977	-0.021180	0.162911	0.986413	0.414466	-0.896429	0.156949	0.909819	0.412159	-0.048534
35609	9.108139	0.376586	1.863849	0.250972	-0.860848	-0.198013	-0.014118	0.168211	0.985650	0.416750	-0.895057	0.158720	0.908912	0.413010	-0.057465
35610	9.700499	0.661768	1.871504	0.529059	-0.821961	-0.111825	-0.007067	0.172599	0.984967	0.421578	-0.892663	0.159449	0.906764	0.416368	-0.066456
35611	9.956287	1.485461	1.959888	0.714265	-0.736689	-0.038700	-0.000506	0.176003	0.984389	0.428079	-0.889595	0.159275	0.903741	0.421477	-0.074893
35612	9.708574	2.242276	1.613115	0.803659	-0.644177	0.008950	0.005401	0.178638	0.983900	0.435364	-0.886190	0.158508	0.900238	0.427499	-0.082560
35613	9.782744	2.682704	1.296956	0.821164	-0.595299	0.056537	0.011052	0.180676	0.983481	0.442773	-0.882747	0.157194	0.896566	0.433721	-0.089755
35614	9.655092	2.583125	0.951049	0.794657	-0.519592	0.086797	0.016148	0.182161	0.983136	0.449907	-0.879424	0.155555	0.892930	0.439808	-0.096156
35615	9.816923	2.239719	1.052124	0.746164	-0.470311	0.126370	0.020965	0.183109	0.982869	0.456568	-0.876343	0.153524	0.889442	0.445528	-0.101974
35616	9.875087	2.146077	1.381174	0.694926	-0.406589	0.149131	0.025319	0.183608	0.982673	0.462738	-0.873491	0.151285	0.886134	0.450890	-0.107078
35617	10.092784	1.966251	1.803190	0.687335	-0.345141	0.163205	0.029184	0.183725	0.982544	0.468807	-0.870663	0.148880	0.882818	0.456279	-0.111541
35618	10.263475	1.431741	2.319812	0.735974	-0.268060	0.180136	0.032455	0.183373	0.982507	0.475270	-0.867604	0.146228	0.879241	0.462210	-0.115310
35619	10.326926	1.209088	2.741796	0.779416	-0.168607	0.188119	0.034885	0.182504	0.982586	0.482078	-0.864310	0.143420	0.875433	0.468680	-0.118133
35620	10.797727	1.675221	3.054948	0.818985	-0.068494	0.196637	0.036498	0.181115	0.982785	0.489195	-0.860789	0.140465	0.871410	0.475647	-0.120017
35621	12.729410	2.846253	3.359139	0.856753	0.055957	0.208211	0.037085	0.179033	0.983144	0.496600	-0.857046	0.137338	0.867187	0.483136	-0.120691
35622	15.162337	4.075730	3.453548	0.861648	0.283687	0.247993	0.035932	0.175514	0.983821	0.503996	-0.853276	0.133818	0.862958	0.491034	-0.119118
35623	15.826979	4.728583	3.550608	0.743786	0.628905	0.330406	0.032235	0.169564	0.984992	0.510322	-0.850154	0.129650	0.859379	0.498484	-0.113937
35624	15.216716	5.178660	4.411834	0.391331	0.955196	0.385064	0.026066	0.161493	0.986530	0.513603	-0.848818	0.125379	0.857632	0.503417	-0.105069
35625	14.070142	4.936071	5.286873	-0.125831	1.331120	0.362931	0.016546	0.151677	0.988292	0.512480	-0.850006	0.121874	0.858540	0.504464	-0.091795
35626	12.857480	3.371840	5.609545	-0.686266	1.548454	0.319235	0.004910	0.141158	0.989975	0.506576	-0.853910	0.119244	0.862181	0.500912	-0.075700
35627	11.679033	1.225467	5.479757	-1.154749	1.796946	0.307834	-0.009057	0.129559	0.991530	0.496629	-0.860053	0.116915	0.867916	0.493481	-0.056553
35628	10.296664	-0.336643	5.149599	-1.415093	2.005723	0.325468	-0.024875	0.116930	0.992829	0.484391	-0.867354	0.114289	0.874498	0.483760	-0.035064
35629	8.860656	-1.016708	5.617818	-1.476126	2.121082	0.293932	-0.042056	0.104189	0.993668	0.471571	-0.874728	0.111677	0.880825	0.473282	-0.012345
35630	8.932631	-1.003814	5.495151	-1.399133	2.136802	0.252872	-0.059701	0.091946	0.993973	0.459375	-0.881512	0.109134	0.886234	0.463122	0.010389
35631	9.989110	-1.360311	3.015306	-1.206190	2.261366	0.279922	-0.078488	0.079059	0.993775	0.448895	-0.887270	0.106040	0.890131	0.454423	0.034151
35632	10.426324	-2.207700	0.224892	-1.084356	2.359201	0.334652	-0.097976	0.065435	0.993035	0.439563	-0.892382	0.102171	0.892852	0.446511	0.058669
35633	11.629178	-2.301867	-2.069115	-0.790027	2.371402	0.379589	-0.117477	0.051479	0.991740	0.432956	-0.896094	0.097800	0.893727	0.440869	0.082983
35634	11.839121	-2.075963	-3.188382	-0.311562	2.354261	0.379928	-0.136801	0.037692	0.989881	0.430698	-0.897619	0.093701	0.892068	0.439159	0.106561
35635	12.483165	-0.826210	-2.095995	0.077016	2.292675	0.398481	-0.155462	0.023990	0.987551	0.432009	-0.897386	0.089807	0.888369	0.440593	0.129146
35636	13.057643	0.643854	-2.170284	0.320720	2.137513	0.481968	-0.172250	0.010195	0.985000	0.435684	-0.896033	0.085464	0.883465	0.443870	0.149900
35637	12.607457	2.049315	-2.321031	0.296847	1.970660	0.571615	-0.187079	-0.003737	0.982338	0.439370	-0.894712	0.080271	0.878610	0.446627	0.169024
35638	12.731031	2.589337	-2.435432	-0.022952	1.878191	0.606372	-0.200823	-0.017567	0.979470	0.440389	-0.894732	0.074247	0.875059	0.446258	0.187419
35639	12.851343	2.084037	-2.694888	-0.414476	1.828622	0.625591	-0.214023	-0.031330	0.976326	0.438109	-0.896401	0.067274	0.873072	0.442135	0.205576
35640	11.800515	1.217483	-2.752283	-0.704518	1.828581	0.674405	-0.226983	-0.045426	0.972839	0.433493	-0.899213	0.059155	0.872102	0.435146	0.223798
35641	10.056630	0.307381	-2.566653	-0.857175	1.838845	0.688342	-0.240012	-0.059585	0.968940	0.427674	-0.902525	0.050436	0.871487	0.426495	0.242100
35642	9.350301	-0.529816	-2.121235	-0.824814	1.790232	0.638743	-0.252835	-0.072939	0.964756	0.422109	-0.905564	0.042159	0.870573	0.417892	0.259747
35643	7.646091	-1.079936	-1.896921	-0.593230	1.841882	0.556433	-0.266470	-0.085654	0.960030	0.418444	-0.907561	0.035172	0.868273	0.411091	0.277679
35644	9.155981	-0.948310	-1.307173	-0.254895	1.603861	0.515424	-0.278158	-0.096918	0.955633	0.417685	-0.908114	0.029478	0.864967	0.407353	0.293080
35645	9.845527	-0.213319	-1.185879	0.028534	1.576619	0.439872	-0.289875	-0.107359	0.951024	0.419228	-0.907527	0.025334	0.860360	0.406040	0.308077
35646	9.671374	0.632712	-1.317947	0.103094	1.532713	0.353118	-0.301484	-0.116801	0.946290	0.421205	-0.906692	0.022280	0.855391	0.405299	0.322550
35647	8.925560	0.844808	-1.511785	0.103418	1.465533	0.270054	-0.312798	-0.125216	0.941530	0.422964	-0.905925	0.020037	0.850446	0.404501	0.336334
35648	7.791581	0.924912	-1.474585	0.118447	1.347717	0.208123	-0.323290	-0.132570	0.936968	0.424679	-0.905156	0.018461	0.845655	0.403879	0.348927
35649	6.807836	0.820001	-1.182544	0.128877	1.209546	0.175198	-0.332697	-0.139070	0.932723	0.426389	-0.904376	0.017248	0.841133	0.403441	0.360181
35650	6.557387	0.360750	-0.869162	0.127278	1.027779	0.179435	-0.340499	-0.144858	0.929019	0.428109	-0.903585	0.016016	0.837128	0.403175	0.369685
35651	6.870081	-0.121070	-0.475801	0.083301	0.856699	0.222965	-0.346650	-0.150354	0.925866	0.429620	-0.902898	0.014228	0.833823	0.402703	0.377585
35652	7.002375	-1.065519	0.147541	0.003962	0.743807	0.292962	-0.351527	-0.156012	0.923087	0.430725	-0.902410	0.011510	0.831207	0.401642	0.384420
35653	6.827167	-1.845165	0.686823	-0.043769	0.691272	0.383430	-0.355560	-0.162272	0.920459	0.431765	-0.901952	0.007775	0.828949	0.400187	0.390762
35654	6.539232	-1.915132	1.348973	-0.065321	0.644918	0.453628	-0.358883	-0.168960	0.917963	0.432894	-0.901439	0.003324	0.826926	0.398573	0.396653
35655	6.571979	-1.385093	2.149048	-0.075758	0.590566	0.479813	-0.361628	-0.175663	0.915624	0.434045	-0.900890	-0.001409	0.825124	0.396912	0.402033
35656	6.755161	-0.787284	2.760340	-0.070919	0.496202	0.481084	-0.363572	-0.181983	0.913618	0.435254	-0.900287	-0.006119	0.823632	0.395431	0.406528
35657	7.014774	-0.302764	2.851300	-0.046885	0.338236	0.466824	-0.364268	-0.187551	0.912214	0.436615	-0.899586	-0.010604	0.822604	0.394423	0.409578
35658	7.333276	0.046822	2.483494	-0.061349	0.154023	0.420387	-0.363642	-0.191960	0.911546	0.437689	-0.899006	-0.014713	0.822310	0.393624	0.410935
35659	7.782210	0.111164	2.430504	-0.170663	-0.018762	0.313606	-0.362061	-0.194736	0.911586	0.437471	-0.899046	-0.018304	0.823123	0.392165	0.410701
35660	8.145992	0.135324	2.489453	-0.316939	-0.177361	0.128758	-0.359982	-0.195223	0.912305	0.435373	-0.900010	-0.020800	0.825145	0.389705	0.408982
35661	8.599306	-0.036462	2.720237	-0.505546	-0.319770	-0.105292	-0.357739	-0.193065	0.913646	0.430863	-0.902151	-0.021931	0.828481	0.385810	0.405919
35662	8.869827	-0.282826	3.469394	-0.640237	-0.383037	-0.317812	-0.355862	-0.188747	0.915280	0.424460	-0.905188	-0.021635	0.832584	0.380801	0.402238
35663	8.506563	-0.335397	4.346381	-0.584515	-0.398731	-0.415424	-0.354230	-0.183502	0.916978	0.418155	-0.908151	-0.020202	0.836461	0.376283	0.398426
35664	7.995604	0.034247	5.128529	-0.338930	-0.461573	-0.382783	-0.351900	-0.178313	0.918897	0.414013	-0.910092	-0.018055	0.839500	0.374082	0.394085
35665	7.871150	0.386482	5.621474	-0.120776	-0.594194	-0.277398	-0.347995	-0.173596	0.921284	0.412075	-0.911009	-0.016008	0.842077	0.374067	0.388562
35666	8.614730	0.211491	6.812405	-0.211519	-0.736801	-0.145153	-0.342320	-0.169542	0.924160	0.409838	-0.912026	-0.015508	0.845488	0.373448	0.381690
35667	10.009666	-0.753292	6.563754	-0.485960	-0.866257	-0.033629	-0.335059	-0.166046	0.927451	0.405651	-0.913869	-0.017065	0.850401	0.370504	0.373556
35668	10.738796	-1.607095	6.135372	-0.630201	-0.852167	0.015700	-0.327671	-0.163074	0.930612	0.400376	-0.916142	-0.019565	0.855763	0.366184	0.365484
35669	9.729745	-2.009080	5.533642	-0.580470	-0.706431	-0.044284	-0.321733	-0.160130	0.933191	0.395300	-0.918306	-0.021289	0.860364	0.362041	0.358749
35670	8.125178	-2.243214	4.322706	-0.296440	-0.610910	-0.134168	-0.316941	-0.156714	0.935408	0.392365	-0.919567	-0.021117	0.863480	0.360329	0.352938
35671	6.678687	-2.551886	1.677524	0.024221	-0.663159	-0.174188	-0.311840	-0.152755	0.937775	0.392074	-0.919728	-0.019438	0.865467	0.361616	0.346699
35672	5.867509	-2.425952	-1.248829	0.269214	-0.961347	-0.183990	-0.304179	-0.147591	0.941112	0.393888	-0.919004	-0.016815	0.867368	0.365578	0.337676
35673	6.417262	-1.172650	-3.042886	0.466773	-1.283589	-0.245649	-0.293951	-0.140640	0.945417	0.397253	-0.917617	-0.012990	0.869358	0.371752	0.325604
35674	8.235786	0.090406	-3.337949	0.600409	-1.498283	-0.386244	-0.282397	-0.131496	0.950242	0.401414	-0.915867	-0.007445	0.871274	0.379338	0.311422
35675	11.677287	0.209626	-1.519244	0.676868	-1.599122	-0.610568	-0.270857	-0.119812	0.955134	0.405673	-0.914018	0.000387	0.872964	0.387577	0.296173
35676	16.705899	0.078346	2.162893	0.703090	-1.524193	-0.787873	-0.260698	-0.106670	0.959509	0.409768	-0.912136	0.009930	0.874144	0.395765	0.281502
35677	18.925631	0.942567	5.866037	0.509463	-1.281577	-0.723402	-0.252401	-0.094998	0.962948	0.412412	-0.910815	0.018243	0.875334	0.401736	0.269069
35678	19.065278	1.659811	7.707221	-0.036758	-0.837634	-0.496801	-0.247048	-0.087127	0.965078	0.410896	-0.911395	0.022904	0.877572	0.402205	0.260958
35679	13.839986	0.255607	7.366745	-0.634580	-0.316934	-0.274142	-0.245320	-0.083391	0.965849	0.404685	-0.914145	0.023861	0.880936	0.396718	0.258005
35680	10.069279	-2.631326	5.488615	-0.722432	-0.219387	-0.161964	-0.243977	-0.081067	0.966387	0.397958	-0.917101	0.023537	0.884367	0.390324	0.256013
35681	8.519542	-4.776637	2.130668	-0.151952	-0.193449	-0.214015	-0.243057	-0.078385	0.966840	0.396137	-0.917846	0.025173	0.885437	0.389119	0.254140
35682	6.906554	-5.597752	-0.603952	0.881502	-0.311145	-0.359109	-0.241685	-0.073893	0.967537	0.403105	-0.914634	0.030840	0.882663	0.397473	0.250840
35683	6.013288	-4.674137	-1.680220	1.852922	-0.621975	-0.434997	-0.237940	-0.067441	0.968936	0.418404	-0.907398	0.039589	0.876540	0.414826	0.244124
35684	6.991661	-1.422265	-1.408153	2.351145	-0.884459	-0.459184	-0.232132	-0.059552	0.970860	0.437886	-0.897659	0.049636	0.868545	0.436648	0.234452
35685	7.401219	2.628395	-0.683026	2.287541	-0.945087	-0.513189	-0.226192	-0.050780	0.972758	0.456528	-0.887696	0.059815	0.860477	0.457621	0.223972
35686	7.634022	5.838775	0.018142	1.837399	-0.965664	-0.567325	-0.220486	-0.041285	0.974516	0.471057	-0.879374	0.069323	0.854102	0.474338	0.213338
35687	8.723205	7.330155	0.343392	1.240336	-0.945402	-0.583022	-0.215138	-0.031668	0.976070	0.480398	-0.873616	0.077542	0.850255	0.485584	0.203161
35688	9.814546	6.106893	0.551088	0.667754	-0.878314	-0.514253	-0.210100	-0.022908	0.977412	0.485022	-0.870472	0.083856	0.848889	0.491684	0.193997
35689	10.461613	3.538374	1.517303	0.114598	-0.900075	-0.313237	-0.203908	-0.015777	0.978863	0.485388	-0.869951	0.087090	0.850188	0.492886	0.185048
35690	10.761604	2.060786	2.480124	-0.330025	-0.905822	-0.110502	-0.196668	-0.010379	0.980415	0.482398	-0.871567	0.087541	0.853589	0.490167	0.176416
35691	10.889227	1.839712	2.570265	-0.555624	-0.868699	-0.068720	-0.189500	-0.005566	0.981865	0.477552	-0.874265	0.087212	0.857924	0.485418	0.168331
35692	11.094026	1.551360	2.044865	-0.576155	-0.750466	-0.141387	-0.183659	-0.000720	0.982990	0.472376	-0.877032	0.087615	0.862050	0.480432	0.161415
35693	10.919901	1.257098	1.762492	-0.527810	-0.621337	-0.216790	-0.179247	0.004129	0.983795	0.467464	-0.879535	0.088863	0.865649	0.475817	0.155724
35694	10.148246	1.036380	1.700591	-0.420663	-0.495977	-0.264167	-0.176118	0.008789	0.984330	0.463390	-0.881492	0.090781	0.868477	0.472116	0.151174
35695	9.084558	1.068962	1.678396	-0.189892	-0.433641	-0.275866	-0.173560	0.013240	0.984734	0.461298	-0.882340	0.093167	0.870104	0.470426	0.147032
35696	8.388251	1.032409	1.593459	0.097435	-0.427361	-0.274883	-0.171051	0.017659	0.985104	0.461715	-0.881821	0.095979	0.870380	0.471254	0.142683
35697	8.670677	1.023066	0.858719	0.379861	-0.460710	-0.225532	-0.168025	0.021799	0.985542	0.464677	-0.879964	0.098687	0.869392	0.474541	0.137727
35698	9.131692	1.051680	-0.162489	0.645082	-0.500393	-0.172908	-0.164430	0.025689	0.986054	0.470033	-0.876825	0.101224	0.867197	0.480123	0.132102
35699	9.165070	1.305769	-0.674759	0.800701	-0.563218	-0.132199	-0.160116	0.029545	0.986656	0.476791	-0.872900	0.103513	0.864311	0.487003	0.125678
35700	9.168733	1.647431	-1.013286	0.820174	-0.649228	-0.116919	-0.155017	0.033732	0.987336	0.483726	-0.868822	0.105630	0.861382	0.493974	0.118365
35701	9.137001	2.287764	-1.017760	0.736107	-0.750364	-0.097759	-0.148973	0.038287	0.988100	0.489949	-0.865112	0.107389	0.858928	0.500116	0.110120
35702	8.989574	3.036353	-0.724975	0.511061	-0.868224	-0.082039	-0.141866	0.043340	0.988937	0.494257	-0.862493	0.108701	0.857662	0.504210	0.100937
35703	8.734432	3.655126	-0.103973	0.201702	-1.006376	-0.081906	-0.133572	0.049107	0.989822	0.495914	-0.861420	0.109658	0.858038	0.505513	0.090709
35704	9.496838	4.062519	0.309285	-0.095753	-1.060308	-0.024082	-0.124524	0.054652	0.990710	0.495100	-0.861873	0.109775	0.859866	0.504171	0.080266
35705	9.983211	4.000921	0.715003	-0.423922	-0.971426	0.030694	-0.115938	0.059247	0.991488	0.491524	-0.864002	0.109104	0.863112	0.499990	0.071050
35706	9.774214	3.062896	1.289729	-0.755210	-0.859541	-0.022391	-0.108549	0.063692	0.992049	0.485003	-0.867721	0.108779	0.867749	0.492954	0.063300
35707	9.645673	1.646519	1.650722	-1.021723	-0.779280	-0.126886	-0.102310	0.068584	0.992385	0.476013	-0.872610	0.109381	0.873467	0.483579	0.056630
35708	9.555170	0.063853	1.864071	-1.066067	-0.707797	-0.222105	-0.097095	0.073899	0.992528	0.466489	-0.877538	0.110972	0.879182	0.473778	0.050732
35709	9.247720	-1.151198	1.950384	-0.838051	-0.669567	-0.280352	-0.092427	0.079491	0.992541	0.458876	-0.881246	0.113309	0.883680	0.465926	0.044974
35710	9.306735	-1.428993	1.553782	-0.407286	-0.686668	-0.258100	-0.087471	0.084935	0.992540	0.455079	-0.882908	0.115659	0.886144	0.461801	0.038577
35711	9.257963	-0.483632	0.635176	0.077336	-0.691511	-0.165018	-0.082031	0.089564	0.992597	0.455663	-0.882393	0.117277	0.886365	0.461910	0.031573
35712	9.126125	0.800765	-0.379700	0.467560	-0.711409	-0.077007	-0.076025	0.093523	0.992710	0.459782	-0.880140	0.118129	0.884772	0.465411	0.023912
35713	9.207674	1.951161	-0.986716	0.634298	-0.748810	-0.015127	-0.069414	0.097138	0.992847	0.465413	-0.877144	0.118357	0.882367	0.470300	0.015677
35714	9.228452	2.755631	-1.254041	0.631159	-0.823308	0.008973	-0.062059	0.100933	0.992956	0.471019	-0.874155	0.118295	0.879937	0.475042	0.006707
35715	8.910572	3.090939	-1.195097	0.493430	-0.880324	0.004255	-0.054236	0.105073	0.992984	0.475396	-0.871793	0.118215	0.878099	0.478472	-0.002669
35716	9.068790	3.342115	-0.663175	0.281910	-0.977634	-0.005509	-0.045622	0.109789	0.992907	0.477905	-0.870422	0.118205	0.877226	0.479908	-0.012758
35717	9.776809	3.008679	-0.489978	0.084166	-1.011480	-0.007197	-0.036719	0.114687	0.992723	0.478677	-0.869996	0.118214	0.877223	0.479535	-0.022952
35718	9.288158	2.191420	-0.070468	-0.084559	-0.988843	0.000761	-0.027978	0.119396	0.992452	0.477972	-0.870388	0.118185	0.877929	0.477671	-0.032716
35719	9.413579	1.418729	0.855933	-0.180550	-0.976176	-0.012532	-0.019399	0.124138	0.992075	0.476419	-0.871219	0.118331	0.879004	0.474939	-0.042241
35720	9.631651	0.978796	1.851096	-0.234182	-0.965048	-0.035747	-0.011020	0.129000	0.991583	0.474390	-0.872268	0.118750	0.880246	0.471706	-0.051584
35721	9.822834	0.681857	2.976819	-0.208726	-0.915529	-0.057175	-0.003165	0.133786	0.991005	0.472583	-0.873162	0.119386	0.881280	0.468710	-0.060462
35722	9.722327	0.672732	3.920758	-0.091287	-0.868049	-0.065641	0.004236	0.138402	0.990367	0.471815	-0.873487	0.120050	0.881688	0.466761	-0.069001
35723	10.043738	0.558543	4.423168	0.083045	-0.776311	-0.042223	0.010940	0.142373	0.989753	0.472585	-0.873028	0.120359	0.881217	0.466425	-0.076834
35724	10.352321	0.189583	4.158073	0.256851	-0.637687	0.003927	0.016633	0.145300	0.989248	0.474881	-0.871821	0.120068	0.879893	0.467778	-0.083501
35725	9.722272	0.044747	3.334326	0.475370	-0.502698	0.062442	0.021404	0.147094	0.988891	0.479080	-0.869668	0.118991	0.877510	0.471211	-0.089085
35726	9.136976	0.691244	1.863351	0.703759	-0.443390	0.124859	0.025949	0.148095	0.988633	0.485248	-0.866505	0.117064	0.873991	0.476695	-0.094348
35727	9.425743	1.246058	0.567276	0.851108	-0.429398	0.195095	0.030701	0.148446	0.988444	0.492647	-0.862696	0.114259	0.869688	0.483446	-0.099617
35728	9.529160	1.535760	-0.258593	0.910810	-0.434009	0.250825	0.035771	0.148385	0.988282	0.500497	-0.858619	0.110802	0.864999	0.490669	-0.104980
35729	9.362703	1.875881	-0.598223	0.898800	-0.432798	0.309787	0.041121	0.147848	0.988155	0.508164	-0.854623	0.106722	0.860278	0.497756	-0.110274
35730	9.769966	2.378762	-0.181151	0.886674	-0.438260	0.317047	0.046564	0.147327	0.987991	0.515665	-0.850632	0.102541	0.855524	0.504697	-0.115580
35731	10.328705	2.952795	0.581268	0.890624	-0.443399	0.309808	0.052009	0.146930	0.987779	0.523142	-0.846549	0.098377	0.850657	0.511632	-0.120893
35732	12.639606	3.501459	1.412756	0.882556	-0.371108	0.306471	0.056832	0.146239	0.987615	0.530493	-0.842437	0.094215	0.845782	0.518569	-0.125456
35733	13.707707	3.766717	2.070413	0.806175	-0.130862	0.322635	0.059709	0.144190	0.987747	0.537137	-0.838684	0.089961	0.841379	0.525184	-0.127527
35734	15.473196	4.117438	3.296667	0.630154	0.172386	0.361780	0.060274	0.140238	0.988282	0.542243	-0.835856	0.085538	0.838057	0.530733	-0.126423
35735	15.745343	3.370712	5.050022	0.394304	0.542376	0.393963	0.057923	0.134040	0.989282	0.545343	-0.834280	0.081108	0.836209	0.534800	-0.121421
35736	14.342056	2.192779	6.590820	0.173477	0.831752	0.462236	0.053554	0.125712	0.990620	0.546567	-0.833934	0.076281	0.835701	0.537355	-0.113370
35737	13.946686	1.055214	7.410169	-0.057393	1.177694	0.503966	0.046500	0.115152	0.992259	0.545868	-0.834832	0.071302	0.836580	0.538327	-0.101677
35738	12.307599	-0.410253	6.959408	-0.231917	1.504196	0.544090	0.036926	0.102497	0.994048	0.543730	-0.836655	0.066070	0.838447	0.538054	-0.086625
35739	11.985939	-1.173986	5.850583	-0.237637	1.866332	0.577852	0.024432	0.087591	0.995857	0.541592	-0.838464	0.060460	0.840286	0.537871	-0.067923
35740	11.133175	-1.112400	4.651851	-0.168380	2.135007	0.564016	0.009588	0.071358	0.997405	0.540114	-0.839800	0.054890	0.841537	0.538186	-0.046594
35741	9.709783	-0.176227	4.555114	-0.252147	2.258844	0.479529	-0.006820	0.055147	0.998455	0.538019	-0.841440	0.050149	0.842905	0.537530	-0.023931
35742	9.150654	0.557105	4.652052	-0.449355	2.158569	0.383821	-0.022919	0.040325	0.998924	0.534318	-0.844013	0.046331	0.844973	0.534805	-0.002202
35743	10.370205	0.624736	2.583161	-0.644191	2.133387	0.369118	-0.038985	0.025811	0.998906	0.529018	-0.847544	0.042546	0.847715	0.530098	0.019387
35744	10.774332	-0.315829	0.036948	-0.968304	2.214831	0.380726	-0.055746	0.010905	0.998385	0.521006	-0.852689	0.038405	0.851731	0.522306	0.041853
35745	11.446387	-1.048221	-1.914993	-1.131739	2.242396	0.393306	-0.072837	-0.004100	0.997335	0.511634	-0.858537	0.033836	0.856111	0.512735	0.064631
35746	11.706950	-1.392453	-3.148938	-0.929945	2.225221	0.364398	-0.090010	-0.018571	0.995768	0.503993	-0.863205	0.029459	0.859005	0.504512	0.087057
35747	12.275415	-0.661670	-2.549056	-0.541922	2.225324	0.320187	-0.107495	-0.032544	0.993673	0.499694	-0.865821	0.025700	0.859506	0.499295	0.109333
35748	12.466627	0.515160	-1.706227	-0.128426	2.163376	0.250795	-0.124758	-0.045513	0.991143	0.498922	-0.866341	0.023018	0.857620	0.497375	0.130790
35749	12.968324	1.246087	-2.417832	0.060091	1.991071	0.241590	-0.140565	-0.057539	0.988398	0.499799	-0.865895	0.020672	0.854659	0.496906	0.150472
35750	13.347402	1.367010	-3.082802	-0.108978	1.928239	0.267187	-0.155629	-0.069430	0.985373	0.499306	-0.866242	0.017824	0.852334	0.494776	0.169479
35751	11.607841	0.381844	-3.374812	-0.421354	1.873327	0.255283	-0.170281	-0.080898	0.982069	0.496176	-0.868101	0.014522	0.851360	0.489752	0.187960
35752	10.157396	-0.518095	-3.245311	-0.586683	1.844231	0.200687	-0.184928	-0.091630	0.978471	0.491580	-0.870758	0.011364	0.850970	0.483099	0.206071
35753	8.975422	-0.987502	-2.579987	-0.517284	1.810294	0.160559	-0.199499	-0.101750	0.974601	0.487534	-0.873061	0.008649	0.850006	0.476876	0.223782
35754	8.795437	-1.540218	-2.082519	-0.288753	1.715466	0.204405	-0.213010	-0.111696	0.970644	0.485547	-0.874190	0.005957	0.847862	0.472563	0.240445
35755	9.001955	-1.859657	-1.681838	-0.041260	1.635553	0.289308	-0.225401	-0.121966	0.966602	0.485877	-0.874022	0.003017	0.844463	0.470329	0.256266
35756	10.178607	-1.404457	-1.509167	0.179564	1.631496	0.302975	-0.237607	-0.132299	0.962310	0.488135	-0.872768	0.000538	0.839802	0.469865	0.271956
35757	7.815661	-0.558712	-1.084657	0.308778	1.607506	0.290074	-0.249596	-0.142415	0.957820	0.491471	-0.870893	-0.001419	0.834361	0.470387	0.287365
35758	8.367396	0.277873	-0.825763	0.369089	1.562007	0.166686	-0.261704	-0.151237	0.953225	0.495011	-0.868885	-0.001953	0.828538	0.471346	0.302254
35759	8.244681	0.891407	-0.769060	0.311712	1.535888	0.016230	-0.274257	-0.158648	0.948480	0.497673	-0.867364	-0.001176	0.822864	0.471710	0.316835
35760	8.045145	1.204562	-0.652873	0.200269	1.471969	-0.093917	-0.286742	-0.164790	0.943729	0.499098	-0.866546	0.000333	0.817729	0.471108	0.330721
35761	8.103869	1.346913	-0.253273	0.085170	1.404801	-0.157116	-0.298932	-0.170061	0.938999	0.499378	-0.866382	0.002068	0.813180	0.469534	0.343914
35762	8.243513	1.300715	0.398085	-0.021336	1.341125	-0.208956	-0.310796	-0.174548	0.934312	0.498614	-0.866815	0.003924	0.809191	0.467080	0.356435
35763	8.376962	0.963999	1.094564	-0.119478	1.268367	-0.250927	-0.322236	-0.178299	0.929717	0.496901	-0.867788	0.005801	0.805763	0.463847	0.368229
35764	8.352785	0.453620	1.809662	-0.246897	1.192541	-0.264008	-0.333080	-0.181530	0.925259	0.494097	-0.869376	0.007302	0.803073	0.459600	0.379265
35765	7.958510	-0.166638	2.430676	-0.385113	1.116932	-0.259075	-0.343263	-0.184401	0.920960	0.490179	-0.871583	0.008186	0.801184	0.454245	0.389571
35766	7.161632	-0.898044	2.796675	-0.474230	1.033491	-0.246040	-0.352680	-0.186935	0.916882	0.485574	-0.874154	0.008553	0.799897	0.448230	0.399067
35767	6.124548	-1.666227	2.815782	-0.427406	0.900290	-0.208771	-0.360834	-0.189142	0.913249	0.481460	-0.876425	0.008714	0.798746	0.442838	0.407308
35768	5.359534	-2.030544	2.624582	-0.256199	0.704872	-0.162232	-0.367182	-0.190847	0.910360	0.478873	-0.877837	0.009119	0.797407	0.439295	0.413718
35769	4.950042	-1.905339	2.444376	-0.065685	0.448515	-0.125521	-0.371304	-0.191737	0.908499	0.477934	-0.878339	0.009960	0.796060	0.437901	0.417769
35770	5.118985	-1.245436	2.117651	0.071213	0.135652	-0.087762	-0.372747	-0.191580	0.907941	0.478222	-0.878169	0.011032	0.795212	0.438310	0.418953
35771	5.670927	-0.481224	2.001054	0.097550	-0.150346	-0.109272	-0.372022	-0.189987	0.908573	0.478639	-0.877924	0.012404	0.795302	0.439493	0.417542
35772	6.820258	0.181189	2.277884	0.033406	-0.369881	-0.195539	-0.369958	-0.186661	0.910104	0.478227	-0.878120	0.014299	0.796511	0.440527	0.414133
35773	8.042700	0.959481	2.529459	-0.105141	-0.492592	-0.338514	-0.367591	-0.181543	0.912096	0.476188	-0.879181	0.016921	0.798826	0.440549	0.409627
35774	8.951163	1.340920	2.915939	-0.267247	-0.537233	-0.461414	-0.365423	-0.175137	0.914217	0.472406	-0.881154	0.020023	0.802059	0.439198	0.404730
35775	9.372727	1.347825	4.307762	-0.338494	-0.534747	-0.495215	-0.363399	-0.168450	0.916278	0.467927	-0.883463	0.023165	0.805596	0.437170	0.399872
35776	9.578359	2.419737	6.536974	-0.522960	-0.487689	-0.427385	-0.361392	-0.162564	0.918133	0.462203	-0.886422	0.024981	0.809793	0.433392	0.395484
35777	9.098997	2.917701	7.620415	-0.974420	-0.491780	-0.328140	-0.358844	-0.157561	0.920003	0.453148	-0.891108	0.024136	0.816019	0.425559	0.391168
35778	9.342751	1.721422	7.474202	-1.503117	-0.575438	-0.185572	-0.354897	-0.153509	0.922217	0.440203	-0.897676	0.019979	0.824785	0.413053	0.386157
35779	9.518005	-0.530212	6.913952	-1.956914	-0.610247	-0.077951	-0.350119	-0.150363	0.924558	0.423733	-0.905692	0.013167	0.835385	0.396375	0.380814
35780	9.556298	-2.774862	6.455142	-2.058983	-0.595556	-0.079372	-0.345386	-0.147356	0.926820	0.406195	-0.913766	0.006091	0.845999	0.378573	0.375458
35781	8.135365	-4.013385	5.229963	-1.708229	-0.611563	-0.132681	-0.340667	-0.143900	0.929106	0.391262	-0.920279	0.000927	0.854904	0.363839	0.369812
35782	6.800561	-4.641918	3.067908	-1.195065	-0.836308	-0.132607	-0.333944	-0.139699	0.932183	0.380602	-0.924736	-0.002237	0.862336	0.354044	0.361980
35783	6.709649	-4.702166	-0.622785	-0.694680	-1.185405	-0.014518	-0.323691	-0.135432	0.936420	0.374590	-0.927179	-0.004612	0.868854	0.349281	0.350851
35784	6.922005	-3.668819	-4.807138	-0.005898	-1.380587	-0.025902	-0.311707	-0.130382	0.941190	0.374505	-0.927214	-0.004416	0.873261	0.351104	0.337848
35785	8.521460	-2.239055	-7.060006	0.740029	-1.470404	-0.273549	-0.299834	-0.122659	0.946073	0.380184	-0.924911	0.000574	0.874963	0.359854	0.323953
35786	12.576677	-1.285527	-5.304983	1.033590	-1.539581	-0.575426	-0.288512	-0.111742	0.950933	0.387586	-0.921787	0.009276	0.875521	0.371245	0.309257
35787	16.507386	-0.003193	-0.572836	0.824886	-1.408912	-0.698950	-0.278839	-0.100046	0.955112	0.392873	-0.919409	0.018390	0.876299	0.380365	0.295672
35788	17.723038	2.145278	4.083625	0.458833	-1.146405	-0.562220	-0.270945	-0.090513	0.958330	0.395398	-0.918168	0.025070	0.877638	0.385715	0.284562
35789	16.435845	3.048586	7.687333	-0.196263	-0.721736	-0.354282	-0.265934	-0.084510	0.960280	0.392765	-0.919216	0.027874	0.880349	0.384577	0.277644
35790	13.549298	0.874028	8.472839	-0.828440	-0.318153	-0.167367	-0.263722	-0.081780	0.961126	0.385059	-0.922492	0.027163	0.884409	0.377254	0.274772
35791	12.500538	-2.497485	5.607174	-0.905328	-0.146098	-0.090509	-0.262712	-0.080432	0.961516	0.376841	-0.925927	0.025508	0.888242	0.369040	0.273562
35792	9.621054	-4.937432	1.132424	-0.164588	-0.117297	-0.229187	-0.262476	-0.077901	0.961789	0.374824	-0.926696	0.027232	0.889165	0.367649	0.272434
35793	6.862315	-5.871134	-1.792159	1.060415	-0.424105	-0.387111	-0.260117	-0.072776	0.962830	0.383269	-0.923019	0.033777	0.886253	0.377809	0.267986
35794	6.724406	-4.542524	-2.682957	2.050729	-0.853864	-0.442844	-0.254254	-0.065419	0.964922	0.400292	-0.915358	0.043417	0.880410	0.397290	0.258920
35795	7.837471	-1.308737	-2.333842	2.409518	-1.067610	-0.460081	-0.246714	-0.056904	0.967416	0.420308	-0.905778	0.053911	0.873197	0.419914	0.247385
35796	8.362450	1.988827	-1.459860	2.173482	-1.111110	-0.456972	-0.238953	-0.048027	0.969843	0.438152	-0.896652	0.063551	0.866559	0.440124	0.235300
35797	9.134531	4.394214	-0.377873	1.625806	-1.100791	-0.457846	-0.231404	-0.039043	0.972074	0.451166	-0.889557	0.071672	0.861917	0.455152	0.223462
35798	9.283184	5.620743	0.562946	0.991000	-0.977022	-0.467117	-0.225061	-0.030425	0.973869	0.458675	-0.885143	0.078347	0.859630	0.464323	0.213167
35799	8.991028	5.163779	1.485118	0.373367	-0.927365	-0.440836	-0.219044	-0.022231	0.975462	0.460947	-0.883503	0.083372	0.859970	0.467898	0.203773
35800	9.262789	3.634904	2.097026	-0.131489	-0.914053	-0.372419	-0.212827	-0.014685	0.976980	0.459054	-0.884166	0.086711	0.862539	0.466941	0.194916
35801	9.971112	2.177666	2.466249	-0.423378	-0.863281	-0.330482	-0.206805	-0.007770	0.978351	0.454742	-0.886157	0.089086	0.866280	0.463321	0.186794
35802	10.689094	1.085187	2.690447	-0.521875	-0.766518	-0.307083	-0.201480	-0.001529	0.979491	0.449628	-0.888558	0.091101	0.870196	0.458761	0.179714
35803	11.058981	0.359083	2.848746	-0.473652	-0.649510	-0.267957	-0.196946	0.003795	0.980407	0.445005	-0.890703	0.092842	0.873603	0.454571	0.173732
35804	10.826508	0.427542	3.195965	-0.369359	-0.535113	-0.209884	-0.193137	0.008071	0.981139	0.441408	-0.892345	0.094232	0.876275	0.451282	0.168782
35805	10.289294	0.815797	3.429637	-0.239995	-0.426008	-0.157704	-0.190026	0.011370	0.981713	0.439041	-0.893395	0.095330	0.878142	0.449127	0.164776
35806	9.438326	0.927516	3.178335	-0.107307	-0.310689	-0.156644	-0.187925	0.014145	0.982082	0.437845	-0.893839	0.096657	0.879190	0.448164	0.161782
35807	8.599191	1.166731	2.199623	0.106784	-0.268394	-0.201257	-0.186380	0.017119	0.982329	0.438448	-0.893314	0.098756	0.879219	0.449106	0.158990
35808	8.096026	1.704456	1.266906	0.344910	-0.305208	-0.277671	-0.184861	0.020954	0.982541	0.441007	-0.891690	0.101990	0.878259	0.452162	0.155598
35809	8.097930	2.209975	0.056564	0.564832	-0.400065	-0.348146	-0.182827	0.025845	0.982805	0.445363	-0.889026	0.106228	0.876485	0.457127	0.151028
35810	8.733207	2.252642	-1.116733	0.718680	-0.547745	-0.360574	-0.179590	0.031547	0.983236	0.451044	-0.885597	0.110799	0.874246	0.463381	0.144816
35811	9.656945	2.427625	-1.100555	0.720077	-0.702111	-0.290675	-0.174711	0.037367	0.983911	0.456857	-0.882124	0.114624	0.872214	0.469533	0.137045
35812	9.661190	3.152194	-0.651431	0.607917	-0.866868	-0.198086	-0.168007	0.043186	0.984839	0.461859	-0.879157	0.117342	0.870896	0.474571	0.127759
35813	9.378054	4.294004	-0.683732	0.463083	-1.063869	-0.113537	-0.159201	0.049229	0.986018	0.465745	-0.876884	0.118979	0.870481	0.478175	0.116673
35814	9.365187	4.781357	-1.051186	0.183948	-1.279759	-0.110264	-0.148509	0.056304	0.987307	0.467220	-0.875928	0.120231	0.871579	0.479145	0.103777
35815	10.744798	4.669380	-0.619168	-0.266776	-1.182995	-0.013412	-0.138174	0.062054	0.988462	0.464912	-0.877179	0.120056	0.874509	0.476136	0.092354
35816	9.730988	3.589486	0.194186	-0.740801	-1.025550	0.010761	-0.129073	0.066788	0.989383	0.458471	-0.880671	0.119261	0.879286	0.468997	0.083050
35817	9.487584	1.718285	1.043933	-1.124335	-0.943636	-0.108776	-0.121169	0.072108	0.990009	0.448454	-0.885794	0.119405	0.885555	0.458442	0.074994
35818	9.458485	-0.071687	1.404066	-1.337894	-0.872335	-0.252207	-0.114471	0.078276	0.990338	0.436303	-0.891640	0.120906	0.892489	0.445928	0.067915
35819	9.610491	-1.611124	1.713785	-1.157154	-0.820214	-0.368199	-0.108645	0.085162	0.990426	0.425571	-0.896422	0.123762	0.898380	0.434943	0.061149
35820	9.399266	-2.456205	1.989000	-0.602116	-0.753219	-0.394943	-0.103477	0.091940	0.990373	0.419774	-0.898659	0.127285	0.901711	0.428904	0.054397
35821	9.635702	-2.086294	1.733269	0.061908	-0.678358	-0.301216	-0.098555	0.097533	0.990341	0.420067	-0.898097	0.130252	0.902126	0.428846	0.047541
35822	9.195757	-0.682908	1.127185	0.581883	-0.606383	-0.171773	-0.093758	0.101668	0.990390	0.425186	-0.895404	0.132168	0.900237	0.433492	0.040724
35823	8.867359	1.090053	0.909811	0.887032	-0.608476	-0.069585	-0.088519	0.104925	0.990533	0.433132	-0.891444	0.133136	0.896973	0.440816	0.033464
35824	8.774691	2.554605	0.855741	0.946727	-0.643833	-0.001450	-0.082704	0.107782	0.990729	0.441646	-0.887219	0.133389	0.893370	0.448583	0.025775
35825	8.660272	3.403179	0.506726	0.894226	-0.705160	0.010176	-0.076302	0.110857	0.990903	0.449665	-0.883175	0.133431	0.889932	0.455755	0.017539
35826	9.242031	4.010396	0.316751	0.713527	-0.781150	0.001165	-0.069296	0.114410	0.991014	0.456045	-0.879891	0.133470	0.887255	0.461196	0.008797
35827	9.459555	3.979596	0.073616	0.449088	-0.849322	-0.022593	-0.061803	0.118518	0.991027	0.460049	-0.877775	0.133664	0.885740	0.464181	-0.000275
35828	9.301814	3.435835	0.033854	0.215081	-0.873317	-0.027820	-0.054139	0.122802	0.990953	0.461975	-0.876729	0.133886	0.885239	0.465044	-0.009267
35829	9.086231	2.854710	0.236336	0.043522	-0.963980	-0.050018	-0.045768	0.127701	0.990756	0.462373	-0.876452	0.134328	0.885504	0.464247	-0.018932
35830	8.923137	2.577423	1.027895	-0.140599	-1.027298	-0.073366	-0.036945	0.133083	0.990416	0.461134	-0.876994	0.135044	0.886561	0.461704	-0.028968
35831	9.216604	2.188298	1.415552	-0.296010	-1.061401	-0.099620	-0.027919	0.138819	0.989924	0.458512	-0.878207	0.136084	0.888250	0.457691	-0.039132
35832	9.490769	1.516053	1.536129	-0.354608	-1.045065	-0.131122	-0.019167	0.144712	0.989288	0.455365	-0.879624	0.137493	0.890099	0.453122	-0.049038
35833	9.668463	0.900495	1.907554	-0.285161	-1.003034	-0.131459	-0.010765	0.150376	0.988570	0.452841	-0.880705	0.138899	0.891526	0.449161	-0.058616
35834	9.682872	0.685409	2.222514	-0.092110	-0.941605	-0.109719	-0.002805	0.155543	0.987825	0.452049	-0.880939	0.139996	0.891989	0.446938	-0.067842
35835	9.657485	0.888698	2.262223	0.158267	-0.880656	-0.069965	0.004792	0.160075	0.987093	0.453496	-0.880110	0.140524	0.891245	0.446969	-0.076811
35836	9.596421	0.889245	2.165535	0.391809	-0.802061	-0.008274	0.011954	0.163723	0.986434	0.457021	-0.878330	0.140242	0.889376	0.449144	-0.085324
35837	10.093984	0.571495	2.376870	0.541626	-0.708639	0.063427	0.018598	0.166340	0.985893	0.461855	-0.875983	0.139083	0.886760	0.452753	-0.093117
35838	9.670572	0.035769	2.772246	0.658728	-0.584061	0.130914	0.024436	0.167836	0.985512	0.467693	-0.873192	0.137111	0.883553	0.457567	-0.099833
35839	11.625595	-0.029735	3.611327	0.824558	-0.417433	0.179939	0.029021	0.168168	0.985331	0.474947	-0.869684	0.134441	0.879536	0.464078	-0.105110
35840	9.875394	0.054711	3.982111	0.965880	-0.253392	0.228425	0.032398	0.167355	0.985364	0.483383	-0.865535	0.131110	0.874809	0.472061	-0.108938
35841	9.793470	0.515614	4.307497	1.045833	-0.123526	0.258679	0.034792	0.165685	0.985565	0.492451	-0.860972	0.127355	0.869645	0.480911	-0.111547
35842	10.382326	0.988914	4.224422	1.094758	0.045218	0.279690	0.035850	0.163048	0.985967	0.501876	-0.856102	0.123324	0.864196	0.490412	-0.112521
35843	11.267341	1.813168	3.717328	1.129940	0.233879	0.285534	0.035333	0.159425	0.986578	0.511539	-0.850953	0.119189	0.858533	0.500462	-0.111619
35844	12.745742	3.383628	3.121128	1.159964	0.408229	0.285824	0.033377	0.154921	0.987363	0.521399	-0.845523	0.115041	0.852660	0.510970	-0.108996
35845	15.115490	5.271706	2.460530	1.150326	0.621136	0.276807	0.029602	0.149354	0.988341	0.531118	-0.839992	0.111029	0.846781	0.521639	-0.104190
35846	16.286653	6.257325	2.126179	0.969682	0.913145	0.306424	0.023592	0.141967	0.989590	0.539257	-0.835319	0.106979	0.841811	0.531119	-0.096264
35847	15.417733	5.698554	3.617258	0.543055	1.129453	0.334870	0.015955	0.133116	0.990972	0.543787	-0.832863	0.103123	0.839072	0.537233	-0.085675
35848	13.315311	4.231288	5.523123	-0.158233	1.396785	0.331805	0.006090	0.122831	0.992409	0.542456	-0.834122	0.099910	0.840062	0.537729	-0.071710
35849	13.000406	2.606412	6.411125	-0.837904	1.565959	0.364171	-0.005103	0.111378	0.993765	0.535430	-0.839016	0.096784	0.844564	0.532586	-0.055354
35850	12.127048	1.218015	6.475519	-1.264445	1.859032	0.419140	-0.018582	0.098013	0.995012	0.524794	-0.846118	0.093147	0.851026	0.523907	-0.035714
35851	10.758856	0.291719	7.181535	-1.530930	2.052134	0.459971	-0.033710	0.083434	0.995943	0.511865	-0.854453	0.088906	0.858404	0.512785	-0.013903
35852	10.089810	-0.240510	7.031207	-1.621297	2.148809	0.477461	-0.049764	0.068431	0.996414	0.498124	-0.863013	0.084147	0.865677	0.500525	0.008860
35853	10.173899	-1.161582	3.805174	-1.426502	2.263345	0.466559	-0.067104	0.053147	0.996330	0.486045	-0.870341	0.079162	0.871354	0.489573	0.032572
35854	10.333451	-2.140750	1.060864	-1.152935	2.349291	0.455183	-0.085370	0.037758	0.995634	0.476362	-0.876124	0.074071	0.875095	0.480605	0.056808
35855	11.097935	-2.431123	-1.283896	-0.810907	2.383187	0.457759	-0.104057	0.022320	0.994321	0.469733	-0.880115	0.068914	0.876655	0.474236	0.081098
35856	11.502464	-2.248192	-2.687119	-0.370725	2.413141	0.432111	-0.123118	0.007085	0.992367	0.467016	-0.881913	0.064237	0.875636	0.471360	0.105270
35857	11.499921	-1.851279	-3.018995	-0.013609	2.330600	0.419414	-0.141506	-0.007640	0.989908	0.467493	-0.881957	0.060020	0.872598	0.471268	0.128374
35858	12.678932	-0.452467	-2.713658	0.210657	2.189676	0.419761	-0.158540	-0.021695	0.987114	0.469998	-0.880881	0.056126	0.868313	0.472840	0.149852
35859	13.062974	1.259625	-2.197023	0.235997	2.051110	0.456447	-0.174122	-0.035468	0.984085	0.472843	-0.879613	0.051961	0.863771	0.474365	0.169931
35860	13.646867	2.460690	-2.111874	0.040735	1.977261	0.453327	-0.188960	-0.048848	0.980769	0.474060	-0.879208	0.047545	0.859978	0.473927	0.189291
35861	13.484863	2.455085	-2.583762	-0.295202	1.936605	0.451514	-0.203421	-0.062001	0.977126	0.472453	-0.880330	0.042498	0.857559	0.470292	0.208370
35862	11.829662	1.531258	-2.641151	-0.648499	1.979628	0.428879	-0.218312	-0.075041	0.972990	0.467844	-0.883042	0.036868	0.856424	0.463256	0.227886
35863	9.749544	0.238230	-2.485668	-0.816806	1.952702	0.416365	-0.233058	-0.087720	0.968498	0.461835	-0.886429	0.030849	0.855799	0.454476	0.247101
35864	8.299999	-0.754858	-2.050086	-0.728911	1.882583	0.393998	-0.247292	-0.099716	0.963796	0.456593	-0.889321	0.025142	0.854617	0.446280	0.265451
35865	8.550996	-0.969161	-1.702052	-0.520312	1.829793	0.368375	-0.261193	-0.111136	0.958868	0.453134	-0.891215	0.020138	0.852319	0.439755	0.283139
35866	9.318079	-0.815015	-1.511458	-0.267868	1.807633	0.344940	-0.274949	-0.122140	0.953669	0.451827	-0.891962	0.016027	0.848679	0.435300	0.300430
35867	8.068544	-0.042391	-1.502419	-0.111593	1.789095	0.328498	-0.288565	-0.132863	0.948197	0.451854	-0.892004	0.012524	0.844132	0.432060	0.317435
35868	8.727167	0.774915	-1.456623	-0.053399	1.694389	0.236820	-0.301700	-0.142293	0.942725	0.452150	-0.891885	0.010083	0.839367	0.429295	0.333420
35869	8.784155	1.478526	-1.408029	-0.091862	1.639698	0.099308	-0.314930	-0.150223	0.937151	0.451734	-0.892109	0.008803	0.834719	0.426115	0.348813
35870	8.219482	1.569387	-1.371903	-0.150640	1.582499	0.000385	-0.328047	-0.156960	0.931530	0.450529	-0.892724	0.008236	0.830307	0.422383	0.363571
35871	7.459252	1.513235	-1.230408	-0.195607	1.486243	-0.035159	-0.340466	-0.162922	0.926034	0.448838	-0.893579	0.007808	0.826212	0.418298	0.377359
35872	7.028712	1.211668	-0.896079	-0.255796	1.363691	-0.059061	-0.351918	-0.168088	0.920815	0.446574	-0.894717	0.007347	0.822634	0.413797	0.389930
35873	7.223688	0.702518	-0.293753	-0.322020	1.194807	-0.075089	-0.362013	-0.172357	0.916100	0.443709	-0.896145	0.006736	0.819798	0.408921	0.400893
35874	7.576601	-0.154627	0.355766	-0.417876	1.042620	-0.058427	-0.370753	-0.176089	0.911885	0.440123	-0.897921	0.005552	0.817823	0.403400	0.410408
35875	7.571328	-1.023578	1.113033	-0.529331	0.938549	-0.033142	-0.378515	-0.179573	0.908009	0.435721	-0.900074	0.003632	0.816623	0.397014	0.418936
35876	7.226531	-1.829889	1.663262	-0.613150	0.844814	0.000329	-0.385356	-0.182922	0.904456	0.430767	-0.902463	0.001015	0.816052	0.390001	0.426566
35877	6.669410	-2.464542	2.030041	-0.559979	0.710837	0.039021	-0.390934	-0.186051	0.901419	0.426398	-0.904534	-0.001770	0.815693	0.383671	0.432945
35878	6.260341	-2.763965	1.978005	-0.375943	0.487436	0.104606	-0.394410	-0.188880	0.899314	0.423793	-0.905749	-0.004370	0.815377	0.379399	0.437282
35879	5.947475	-2.515980	1.505710	-0.231315	0.213619	0.186980	-0.395305	-0.191410	0.898385	0.422693	-0.906245	-0.007093	0.815515	0.376937	0.439151
35880	5.937992	-2.211850	1.262970	-0.192115	-0.091676	0.230867	-0.393527	-0.193181	0.898787	0.422086	-0.906500	-0.010031	0.816688	0.375417	0.438272
35881	6.520732	-1.980711	1.399175	-0.121630	-0.392824	0.212749	-0.389360	-0.193664	0.900496	0.421971	-0.906523	-0.012507	0.818743	0.375113	0.434685
35882	7.589584	-1.079964	1.594368	-0.002644	-0.588797	0.100637	-0.384053	-0.192388	0.903045	0.422388	-0.906315	-0.013448	0.821031	0.376271	0.429336
35883	8.498224	-0.083271	2.237999	-0.074684	-0.649699	-0.125625	-0.379180	-0.188832	0.905850	0.421341	-0.906814	-0.012663	0.823829	0.376870	0.423409
35884	9.673188	1.298307	3.595525	-0.275041	-0.611469	-0.412827	-0.375809	-0.182807	0.908487	0.417561	-0.908593	-0.010098	0.827291	0.375554	0.417791
35885	10.167109	2.867186	4.982868	-0.488882	-0.454030	-0.733476	-0.375023	-0.174463	0.910451	0.410800	-0.911709	-0.005492	0.831024	0.371954	0.413581
35886	9.450680	3.492262	5.865862	-0.747933	-0.373482	-0.868095	-0.375381	-0.165176	0.912034	0.401361	-0.915920	-0.000685	0.835463	0.365798	0.410114
35887	8.834466	2.701405	6.965853	-0.888210	-0.461963	-0.705680	-0.374248	-0.157052	0.913933	0.391320	-0.920252	0.002104	0.840718	0.358427	0.405861
35888	8.159961	0.917026	7.474004	-0.925103	-0.601460	-0.392407	-0.370638	-0.151325	0.916367	0.382104	-0.924117	0.001942	0.846537	0.350867	0.400335
35889	7.669385	-1.397029	6.812634	-0.878193	-0.754472	-0.087387	-0.364504	-0.147924	0.919378	0.374370	-0.927279	-0.000770	0.852634	0.343907	0.393375
35890	7.892079	-2.732890	6.267559	-0.742162	-0.870581	0.051187	-0.356811	-0.145455	0.922783	0.368255	-0.929715	-0.004155	0.858530	0.338337	0.385297
35891	8.803740	-2.907234	6.306480	-0.584833	-0.958887	0.011734	-0.348456	-0.142371	0.926449	0.363308	-0.931646	-0.006523	0.864052	0.334314	0.376363
35892	8.905483	-2.143616	5.360285	-0.442680	-0.990034	-0.089925	-0.340148	-0.138262	0.930152	0.359212	-0.933227	-0.007359	0.869060	0.331619	0.367101
35893	7.710729	-1.066982	3.551446	-0.348931	-1.055260	-0.186394	-0.331566	-0.133067	0.934001	0.355593	-0.934615	-0.006921	0.873852	0.329829	0.357204
35894	7.196126	-0.569627	0.085547	-0.249108	-1.245162	-0.207031	-0.321334	-0.127054	0.938404	0.352783	-0.935686	-0.005884	0.878799	0.329163	0.345490
35895	7.988614	-0.190238	-3.586697	-0.110811	-1.459874	-0.203476	-0.309131	-0.120374	0.943371	0.351212	-0.936286	-0.004383	0.883792	0.329968	0.331711
35896	10.266858	-0.374346	-5.362038	-0.010328	-1.598016	-0.342245	-0.296114	-0.111908	0.948574	0.350134	-0.936699	-0.001207	0.888664	0.331770	0.316553
35897	12.934866	-1.200232	-4.047100	-0.010997	-1.608425	-0.505627	-0.283489	-0.101854	0.953551	0.348615	-0.937259	0.003529	0.893365	0.333423	0.301211
35898	14.120176	-1.377484	0.107021	-0.089686	-1.442136	-0.542075	-0.272403	-0.091984	0.957776	0.346353	-0.938066	0.008416	0.897684	0.334022	0.287392
35899	13.790271	-0.618628	4.248522	-0.305290	-1.084454	-0.413643	-0.264006	-0.084522	0.960811	0.342540	-0.939433	0.011480	0.901647	0.332147	0.276968
35900	12.698042	-0.220209	6.309472	-0.698486	-0.784486	-0.255479	-0.257727	-0.079562	0.962937	0.335608	-0.941925	0.011998	0.906060	0.326262	0.269461
35901	13.409297	-0.681721	5.906291	-0.858129	-0.692423	-0.223346	-0.252112	-0.075257	0.964767	0.327287	-0.944851	0.011823	0.910672	0.318736	0.262839
35902	12.378507	-1.423831	4.436910	-0.608267	-0.602182	-0.348893	-0.247694	-0.070080	0.966300	0.320913	-0.947011	0.013579	0.914146	0.313462	0.257059
