// General information: 
//  MT Manager version: 2022.2.0 
//  XDA version: 2022.2.0 build 7381 rev 124627 built on 2023-07-19
// Device information: 
//  DeviceId: 00B4CBA7
//  ProductCode: MTW2-3A7G6
//  Firmware Version: 4.6.0
//  Hardware Version: 2.0.0
// Device settings: 
//  Filter Profile: human(46.1)
//  Option Flags: Orientation Smoother Disabled, Position/Velocity Smoother Disabled, Continuous Zero Rotation Update Disabled, AHS Disabled, ICC Disabled
// Coordinate system: ENU
PacketCounter	Acc_X	Acc_Y	Acc_Z	Gyr_X	Gyr_Y	Gyr_Z	Mat[1][1]	Mat[2][1]	Mat[3][1]	Mat[1][2]	Mat[2][2]	Mat[3][2]	Mat[1][3]	Mat[2][3]	Mat[3][3]
49677	9.649473	-1.001003	-2.256070	-0.088498	-0.012094	0.007621	0.218250	-0.052181	0.974497	0.149248	-0.985038	-0.086171	0.964413	0.164248	-0.207197
49678	9.508472	-1.081391	-2.374009	-0.063966	-0.009867	0.003248	0.218334	-0.052167	0.974479	0.148592	-0.985149	-0.086030	0.964495	0.163583	-0.207340
49679	9.558602	-0.907567	-2.295300	-0.025064	0.003387	-0.000085	0.218286	-0.052136	0.974491	0.148341	-0.985195	-0.085937	0.964545	0.163316	-0.207320
49680	9.548228	-0.799851	-2.116438	-0.041073	0.004309	-0.000443	0.218224	-0.052116	0.974506	0.147881	-0.985276	-0.085807	0.964629	0.162836	-0.207304
49681	9.506132	-0.875449	-2.072789	-0.052440	0.010488	-0.000793	0.218107	-0.052090	0.974534	0.147367	-0.985366	-0.085651	0.964734	0.162295	-0.207239
49682	9.506119	-0.975801	-2.031656	-0.020725	0.009223	-0.005044	0.217994	-0.052016	0.974563	0.147189	-0.985405	-0.085519	0.964787	0.162087	-0.207156
49683	9.531417	-0.850770	-1.896951	-0.014774	0.008450	-0.008660	0.217885	-0.051909	0.974593	0.147055	-0.985438	-0.085363	0.964832	0.161918	-0.207078
49684	9.482906	-0.884682	-1.895188	-0.014604	0.006711	-0.001795	0.217802	-0.051870	0.974614	0.146901	-0.985468	-0.085276	0.964874	0.161745	-0.207018
49685	9.561956	-0.804015	-1.841391	-0.015019	0.000801	-0.006909	0.217769	-0.051768	0.974626	0.146762	-0.985501	-0.085137	0.964903	0.161578	-0.207014
49686	9.504209	-0.844688	-1.916677	-0.018387	0.000174	-0.006458	0.217739	-0.051679	0.974638	0.146543	-0.985546	-0.084996	0.964943	0.161333	-0.207019
49687	9.554404	-0.796769	-2.005131	-0.016878	-0.000237	-0.006504	0.217717	-0.051579	0.974648	0.146384	-0.985581	-0.084857	0.964972	0.161148	-0.207027
49688	9.536119	-0.860183	-2.137829	-0.015804	-0.001225	-0.009622	0.217696	-0.051457	0.974659	0.146199	-0.985623	-0.084690	0.965005	0.160931	-0.207043
49689	9.515190	-0.846806	-2.136471	-0.009573	0.002754	-0.006227	0.217645	-0.051365	0.974676	0.146111	-0.985647	-0.084570	0.965030	0.160817	-0.207016
49690	9.523318	-0.825020	-2.201530	-0.007713	0.003792	-0.006632	0.217584	-0.051261	0.974695	0.146092	-0.985660	-0.084450	0.965046	0.160770	-0.206975
49691	9.515527	-0.845071	-2.135657	-0.008037	0.009705	-0.009556	0.217461	-0.051147	0.974728	0.146026	-0.985682	-0.084300	0.965084	0.160667	-0.206879
49692	9.506440	-0.826709	-2.002494	-0.010619	0.011102	-0.006390	0.217328	-0.051074	0.974762	0.145892	-0.985713	-0.084175	0.965134	0.160504	-0.206771
49693	9.552796	-0.840117	-2.036761	-0.020394	0.015996	-0.003351	0.217153	-0.051032	0.974803	0.145693	-0.985752	-0.084060	0.965204	0.160276	-0.206624
49694	9.555651	-0.841104	-1.981086	-0.020020	0.012114	-0.005753	0.217015	-0.050952	0.974838	0.145541	-0.985786	-0.083924	0.965258	0.160092	-0.206515
49695	9.530891	-0.838374	-1.946107	-0.015494	0.010884	-0.005891	0.216886	-0.050876	0.974870	0.145395	-0.985819	-0.083794	0.965309	0.159915	-0.206414
49696	9.519140	-0.818402	-1.867666	-0.015036	0.006130	-0.004864	0.216807	-0.050785	0.974893	0.145340	-0.985837	-0.083677	0.965335	0.159833	-0.206356
49697	9.553366	-0.812661	-1.824979	-0.018754	0.004053	-0.004056	0.216747	-0.050716	0.974909	0.145158	-0.985874	-0.083559	0.965375	0.159627	-0.206324
49698	9.515286	-0.827405	-1.834862	-0.017923	-0.004583	-0.005434	0.216769	-0.050614	0.974910	0.145018	-0.985905	-0.083429	0.965392	0.159464	-0.206373
49699	9.578471	-0.762089	-1.879962	-0.018274	-0.006032	-0.005076	0.216805	-0.050519	0.974907	0.144843	-0.985942	-0.083302	0.965410	0.159268	-0.206439
49700	9.562790	-0.776739	-1.978936	-0.022932	-0.005964	-0.003042	0.216844	-0.050443	0.974902	0.144628	-0.985983	-0.083186	0.965433	0.159037	-0.206509
49701	9.543074	-0.802007	-2.045298	-0.015039	-0.006563	-0.003631	0.216887	-0.050362	0.974897	0.144481	-0.986014	-0.083079	0.965445	0.158873	-0.206578
49702	9.552420	-0.818489	-2.178208	-0.005153	-0.004963	-0.006519	0.216908	-0.050268	0.974897	0.144375	-0.986039	-0.082964	0.965457	0.158746	-0.206622
49703	9.552411	-0.817909	-2.178466	0.002716	-0.000232	-0.005061	0.216888	-0.050182	0.974906	0.144402	-0.986042	-0.082880	0.965457	0.158755	-0.206614
49704	9.545934	-0.826202	-2.200196	0.005142	0.002542	-0.004285	0.216841	-0.050114	0.974920	0.144430	-0.986044	-0.082809	0.965464	0.158764	-0.206577
49705	9.538040	-0.847235	-2.134426	0.009861	0.006931	-0.000839	0.216758	-0.050081	0.974940	0.144517	-0.986034	-0.082781	0.965469	0.158839	-0.206493
49706	9.526276	-0.828121	-2.055765	0.015004	0.009473	-0.005123	0.216643	-0.050007	0.974969	0.144681	-0.986014	-0.082723	0.965471	0.158980	-0.206378
49707	9.502498	-0.789872	-1.899478	0.015329	0.003558	-0.002204	0.216590	-0.049956	0.974984	0.144824	-0.985996	-0.082693	0.965461	0.159111	-0.206323
49708	9.539209	-0.786815	-1.802109	0.001618	0.006081	0.000108	0.216518	-0.049926	0.975001	0.144861	-0.985993	-0.082658	0.965472	0.159136	-0.206253
49709	9.520785	-0.725512	-1.766309	-0.006361	-0.005141	-0.001505	0.216550	-0.049867	0.974997	0.144793	-0.986009	-0.082590	0.965475	0.159057	-0.206300
49710	9.552157	-0.769138	-1.759166	-0.015654	-0.010336	0.000513	0.216637	-0.049814	0.974980	0.144665	-0.986033	-0.082523	0.965474	0.158924	-0.206405
49711	9.549406	-0.766938	-1.815002	-0.024814	-0.014370	0.000639	0.216762	-0.049763	0.974955	0.144415	-0.986077	-0.082438	0.965484	0.158667	-0.206557
49712	9.569040	-0.815158	-1.939506	-0.026539	-0.014249	-0.000850	0.216881	-0.049702	0.974932	0.144126	-0.986128	-0.082335	0.965500	0.158370	-0.206709
49713	9.509517	-0.817989	-1.949849	-0.020878	-0.024699	0.002595	0.217108	-0.049653	0.974884	0.143909	-0.986165	-0.082277	0.965481	0.158158	-0.206959
49714	9.563103	-0.810784	-2.052749	-0.015893	-0.017988	0.002254	0.217273	-0.049600	0.974850	0.143800	-0.986185	-0.082227	0.965461	0.158050	-0.207138
49715	9.562698	-0.810585	-2.054713	-0.021335	-0.019945	0.001574	0.217452	-0.049549	0.974812	0.143581	-0.986222	-0.082158	0.965453	0.157830	-0.207342
49716	9.587360	-0.811905	-2.090526	-0.018295	-0.013398	-0.001793	0.217564	-0.049477	0.974791	0.143390	-0.986258	-0.082063	0.965456	0.157629	-0.207479
49717	9.605558	-0.822017	-2.147665	-0.011849	-0.009134	0.003140	0.217641	-0.049459	0.974775	0.143259	-0.986280	-0.082028	0.965458	0.157498	-0.207570
49718	9.539682	-0.833952	-2.178502	-0.005706	-0.004281	0.003107	0.217670	-0.049448	0.974769	0.143188	-0.986292	-0.082007	0.965462	0.157425	-0.207606
49719	9.522514	-0.861902	-2.189898	0.010690	-0.001703	-0.002229	0.217668	-0.049388	0.974772	0.143286	-0.986281	-0.081967	0.965448	0.157513	-0.207605
49720	9.569846	-0.789119	-2.123776	0.018209	0.001579	-0.000417	0.217640	-0.049337	0.974781	0.143525	-0.986247	-0.081962	0.965419	0.157743	-0.207566
49721	9.513306	-0.845212	-2.057114	0.016615	0.002864	-0.003799	0.217592	-0.049269	0.974796	0.143684	-0.986227	-0.081919	0.965406	0.157887	-0.207516
49722	9.531687	-0.781311	-1.924177	0.007037	0.000672	0.004062	0.217575	-0.049280	0.974799	0.143710	-0.986222	-0.081933	0.965406	0.157915	-0.207495
49723	9.542168	-0.813046	-1.914817	-0.000218	-0.000287	-0.001537	0.217560	-0.049229	0.974805	0.143702	-0.986228	-0.081878	0.965410	0.157894	-0.207490
49724	9.530313	-0.743214	-1.857250	-0.013249	-0.002233	0.003346	0.217569	-0.049216	0.974803	0.143594	-0.986247	-0.081843	0.965425	0.157782	-0.207510
49725	9.540675	-0.774528	-1.848681	-0.030144	-0.009837	0.000129	0.217650	-0.049167	0.974788	0.143293	-0.986299	-0.081741	0.965451	0.157471	-0.207622
49726	9.579906	-0.796670	-1.907416	-0.035717	-0.012956	0.001345	0.217758	-0.049128	0.974766	0.142919	-0.986362	-0.081640	0.965482	0.157090	-0.207767
49727	9.561176	-0.961713	-2.001588	-0.024676	-0.013210	-0.001241	0.217869	-0.049060	0.974744	0.142674	-0.986406	-0.081536	0.965493	0.156834	-0.207907
49728	9.509685	-0.994487	-2.056076	0.037708	-0.010231	-0.001209	0.217950	-0.048993	0.974729	0.143049	-0.986349	-0.081563	0.965419	0.157211	-0.207966
49729	9.575400	-0.705544	-1.918085	0.043788	-0.009830	-0.006724	0.218020	-0.048876	0.974720	0.143477	-0.986288	-0.081549	0.965340	0.157629	-0.208018
49730	9.517441	-0.645289	-2.034376	-0.033291	-0.010182	0.002128	0.218104	-0.048836	0.974703	0.143192	-0.986337	-0.081460	0.965364	0.157336	-0.208131
49731	9.494741	-0.820882	-2.095729	-0.051497	-0.011763	0.002555	0.218206	-0.048808	0.974681	0.142679	-0.986421	-0.081338	0.965416	0.156815	-0.208279
49732	9.524627	-1.001632	-2.170845	-0.028719	-0.009371	-0.003338	0.218270	-0.048742	0.974670	0.142321	-0.986484	-0.081204	0.965455	0.156441	-0.208383
49733	9.586297	-0.898287	-2.149196	0.003631	-0.009739	-0.003024	0.218345	-0.048661	0.974658	0.142353	-0.986484	-0.081142	0.965433	0.156463	-0.208467
49734	9.588835	-0.848908	-2.115529	-0.004435	-0.007387	-0.009281	0.218389	-0.048500	0.974656	0.142436	-0.986484	-0.081004	0.965411	0.156516	-0.208529
49735	9.612449	-0.862176	-2.063207	-0.004304	-0.006224	-0.011174	0.218418	-0.048344	0.974657	0.142409	-0.986501	-0.080845	0.965408	0.156458	-0.208585
49736	9.629525	-0.934291	-2.012817	-0.019670	-0.006870	-0.017702	0.218444	-0.048129	0.974662	0.142227	-0.986548	-0.080592	0.965429	0.156228	-0.208660
49737	9.517806	-0.980816	-1.988290	-0.014203	-0.010241	-0.019078	0.218501	-0.047889	0.974661	0.142122	-0.986584	-0.080336	0.965432	0.156074	-0.208763
49738	9.463998	-0.934787	-1.908524	-0.020979	-0.008585	-0.026918	0.218532	-0.047572	0.974670	0.141988	-0.986631	-0.079991	0.965445	0.155872	-0.208856
49739	9.549551	-0.894165	-1.813983	-0.031073	-0.010483	-0.025551	0.218582	-0.047268	0.974673	0.141734	-0.986696	-0.079637	0.965471	0.155552	-0.208974
49740	9.512772	-0.768806	-1.743269	-0.057034	-0.010320	-0.026401	0.218629	-0.046951	0.974678	0.141264	-0.986797	-0.079221	0.965529	0.155007	-0.209110
49741	9.493040	-0.841439	-1.790992	-0.102802	-0.017842	-0.026920	0.218749	-0.046622	0.974667	0.140320	-0.986973	-0.078703	0.965639	0.153982	-0.209357
49742	9.424634	-0.948368	-1.838622	-0.079315	-0.025222	-0.032325	0.218930	-0.046232	0.974645	0.139607	-0.987116	-0.078182	0.965702	0.153183	-0.209655
49743	9.470232	-0.855621	-1.917211	-0.083891	-0.028446	-0.037649	0.219137	-0.045781	0.974619	0.138870	-0.987266	-0.077599	0.965761	0.152350	-0.209989
49744	9.447554	-0.873427	-2.040720	-0.085569	-0.026275	-0.044438	0.219315	-0.045243	0.974604	0.138249	-0.987404	-0.076948	0.965809	0.151614	-0.210298
49745	9.447043	-0.765550	-2.083617	-0.088543	-0.030790	-0.046385	0.219534	-0.044703	0.974580	0.137486	-0.987563	-0.076269	0.965869	0.150735	-0.210657
49746	9.416547	-0.803795	-2.142355	-0.106466	-0.030075	-0.049692	0.219742	-0.044131	0.974559	0.136567	-0.987748	-0.075521	0.965952	0.149688	-0.211023
49747	9.466691	-0.952506	-2.155694	-0.091717	-0.035590	-0.049855	0.220004	-0.043550	0.974526	0.135781	-0.987911	-0.074801	0.966003	0.148779	-0.211431
49748	9.582952	-0.799627	-2.115461	-0.061549	-0.036318	-0.054161	0.220262	-0.042930	0.974496	0.135281	-0.988032	-0.074103	0.966014	0.148153	-0.211818
49749	9.700117	-0.922304	-2.185876	-0.125361	-0.024314	-0.060427	0.220401	-0.042261	0.974493	0.134193	-0.988247	-0.073208	0.966134	0.146906	-0.212139
49750	9.804263	-1.176152	-2.173339	-0.066468	-0.011441	-0.072070	0.220400	-0.041481	0.974527	0.133781	-0.988368	-0.072326	0.966192	0.146314	-0.212287
49751	9.543593	-0.941852	-2.128168	0.011065	-0.001651	-0.083203	0.220290	-0.040621	0.974588	0.134062	-0.988390	-0.071499	0.966178	0.146405	-0.212287
49752	9.428108	-0.414570	-2.021553	0.000506	-0.008577	-0.090380	0.220237	-0.039659	0.974640	0.134360	-0.988416	-0.070581	0.966148	0.146498	-0.212357
49753	9.443602	-0.600390	-2.196768	-0.058202	-0.010913	-0.089127	0.220208	-0.038727	0.974684	0.133985	-0.988540	-0.069548	0.966207	0.145908	-0.212496
49754	9.387668	-0.596909	-2.151415	-0.064487	-0.004273	-0.088348	0.220115	-0.037808	0.974741	0.133572	-0.988668	-0.068511	0.966286	0.145278	-0.212570
49755	9.452061	-0.674238	-2.138043	-0.090748	-0.005688	-0.088758	0.220037	-0.036886	0.974794	0.132881	-0.988837	-0.067412	0.966399	0.144365	-0.212679
49756	9.435043	-0.568847	-1.980441	-0.114839	-0.006683	-0.084609	0.219972	-0.036005	0.974842	0.131949	-0.989037	-0.066304	0.966541	0.143214	-0.212809
49757	9.510002	-0.942927	-1.830235	-0.182957	-0.005228	-0.091332	0.219888	-0.035059	0.974895	0.130371	-0.989333	-0.064983	0.966774	0.141387	-0.212972
49758	9.742586	-1.409172	-1.530218	-0.135607	-0.006396	-0.100395	0.219804	-0.034015	0.974951	0.129306	-0.989558	-0.063677	0.966936	0.140063	-0.213111
49759	9.606811	-1.878377	-1.255660	-0.038418	-0.023876	-0.118793	0.219867	-0.032770	0.974979	0.129186	-0.989655	-0.062396	0.966938	0.139672	-0.213359
49760	9.535362	-1.634663	-1.351017	0.198389	-0.048019	-0.145827	0.220129	-0.031211	0.974971	0.131485	-0.989417	-0.061361	0.966569	0.141702	-0.213695
49761	9.510481	-0.344929	-1.211332	0.247038	-0.079640	-0.145133	0.220691	-0.029626	0.974894	0.134183	-0.989112	-0.060434	0.966070	0.144151	-0.214313
49762	9.470724	-0.378182	-1.733828	0.118255	-0.101282	-0.134536	0.221468	-0.028114	0.974762	0.135618	-0.988983	-0.059337	0.965691	0.145337	-0.215215
49763	9.453027	-0.376292	-2.224325	0.150908	-0.106391	-0.134859	0.222297	-0.026590	0.974616	0.137365	-0.988803	-0.058308	0.965254	0.146840	-0.216155
49764	9.485033	-0.119806	-2.476109	0.156945	-0.100605	-0.138255	0.223058	-0.025036	0.974484	0.139201	-0.988607	-0.057262	0.964815	0.148422	-0.217031
49765	9.419461	-0.048115	-2.653754	0.110132	-0.090522	-0.131094	0.223733	-0.023570	0.974366	0.140547	-0.988479	-0.056183	0.964464	0.149514	-0.217842
49766	9.549951	-0.135927	-2.771958	0.035219	-0.072162	-0.118244	0.224243	-0.022247	0.974279	0.141198	-0.988448	-0.055070	0.964250	0.149916	-0.218511
49767	9.478488	-0.348114	-2.805099	-0.044033	-0.050325	-0.108985	0.224559	-0.021059	0.974233	0.141009	-0.988542	-0.053871	0.964204	0.149473	-0.219017
49768	9.477310	-0.448950	-2.737632	-0.082131	-0.035549	-0.106954	0.224732	-0.019906	0.974217	0.140491	-0.988683	-0.052610	0.964239	0.148692	-0.219392
49769	9.519430	-0.572352	-2.672872	-0.119697	-0.023495	-0.109200	0.224791	-0.018756	0.974227	0.139573	-0.988885	-0.051243	0.964359	0.147495	-0.219675
49770	9.555866	-0.518316	-2.511312	-0.138553	-0.009947	-0.105491	0.224723	-0.017648	0.974263	0.138540	-0.989100	-0.049872	0.964524	0.146181	-0.219828
49771	9.474272	-0.486934	-2.277177	-0.210259	-0.005613	-0.107533	0.224614	-0.016541	0.974307	0.136744	-0.989427	-0.048322	0.964806	0.144084	-0.219977
49772	9.528297	-1.140759	-1.953738	-0.207292	-0.007876	-0.121775	0.224510	-0.015264	0.974352	0.135131	-0.989729	-0.046642	0.965057	0.142137	-0.220141
49773	10.099826	-1.709145	-1.383785	0.010729	0.008394	-0.127040	0.224242	-0.013983	0.974433	0.135511	-0.989736	-0.045387	0.965066	0.142224	-0.220046
49774	10.053248	-0.773798	-0.664966	0.202501	0.003339	-0.149264	0.223991	-0.012459	0.974512	0.137879	-0.989456	-0.044341	0.964789	0.144296	-0.219911
49775	9.737144	0.251702	-0.367542	0.149661	-0.028447	-0.132317	0.224067	-0.011073	0.974511	0.139610	-0.989258	-0.043340	0.964522	0.145762	-0.220114
49776	9.469664	0.279160	-0.979417	-0.097023	-0.072117	-0.105431	0.224596	-0.009875	0.974402	0.138978	-0.989402	-0.042061	0.964490	0.144867	-0.220843
49777	9.427020	-0.392552	-2.014057	-0.143378	-0.098713	-0.101535	0.225393	-0.008693	0.974229	0.137814	-0.989621	-0.040714	0.964472	0.143439	-0.221855
49778	9.434692	0.079984	-2.505814	-0.055932	-0.102768	-0.104248	0.226222	-0.007463	0.974047	0.137585	-0.989701	-0.039537	0.964310	0.142958	-0.222865
49779	9.419136	0.473780	-2.769331	-0.088314	-0.099796	-0.096879	0.227036	-0.006326	0.973866	0.136944	-0.989836	-0.038355	0.964210	0.142073	-0.223862
49780	9.316479	0.295923	-3.054518	-0.161772	-0.086903	-0.089241	0.227736	-0.005274	0.973709	0.135633	-0.990065	-0.037085	0.964230	0.140512	-0.224758
49781	9.236744	0.008980	-3.356556	-0.192824	-0.063977	-0.084679	0.228224	-0.004310	0.973599	0.133957	-0.990341	-0.035786	0.964349	0.138588	-0.225442
49782	9.227659	-0.118018	-3.521486	-0.208613	-0.029492	-0.084093	0.228380	-0.003380	0.973566	0.132234	-0.990619	-0.034459	0.964550	0.136608	-0.225791
49783	9.262006	-0.097041	-3.481064	-0.252781	0.005005	-0.077427	0.228216	-0.002584	0.973607	0.129963	-0.990966	-0.033094	0.964897	0.134086	-0.225819
49784	9.362527	0.030387	-3.062541	-0.346804	0.045347	-0.068582	0.227674	-0.001909	0.973735	0.126861	-0.991417	-0.031605	0.965438	0.130724	-0.225478
49785	9.294675	-0.106097	-2.382360	-0.508033	0.071691	-0.056329	0.226897	-0.001406	0.973918	0.122073	-0.992072	-0.029872	0.966238	0.125667	-0.224927
49786	9.218529	-1.345730	-2.348804	-0.533476	0.063576	-0.069449	0.226184	-0.000739	0.974084	0.117165	-0.992719	-0.027959	0.967012	0.120452	-0.224451
49787	9.485103	-1.243849	-2.106756	-0.186601	0.058551	-0.093118	0.225496	0.000152	0.974244	0.115561	-0.992944	-0.026593	0.967366	0.118582	-0.223922
49788	9.607060	-0.171245	-1.769220	-0.159356	0.051844	-0.094395	0.224870	0.001084	0.974388	0.114328	-0.993121	-0.025280	0.967658	0.117085	-0.223448
49789	9.695679	-0.222839	-1.929559	-0.305568	0.036835	-0.076731	0.224413	0.001840	0.974492	0.111534	-0.993475	-0.023809	0.968090	0.114032	-0.223154
49790	9.495449	-0.793096	-2.520260	-0.297008	0.029493	-0.071157	0.224033	0.002557	0.974578	0.108849	-0.993806	-0.022414	0.968484	0.111103	-0.222924
49791	9.400553	-0.031421	-2.407657	-0.215459	0.032406	-0.065323	0.223635	0.003207	0.974668	0.106899	-0.994043	-0.021257	0.968793	0.108945	-0.222646
49792	9.286104	0.238738	-2.408664	-0.340715	0.024675	-0.049624	0.223330	0.003715	0.974736	0.103729	-0.994405	-0.019976	0.969208	0.105570	-0.222466
49793	9.406030	-0.139730	-2.491732	-0.328000	0.023402	-0.048900	0.223040	0.004213	0.974800	0.100650	-0.994746	-0.018730	0.969599	0.102291	-0.222292
49794	9.568639	0.228868	-2.445295	-0.240865	0.032117	-0.047989	0.222666	0.004703	0.974883	0.098464	-0.994983	-0.017689	0.969910	0.099929	-0.222012
49795	9.536362	0.329202	-2.408657	-0.284771	0.042440	-0.047150	0.222195	0.005167	0.974989	0.095797	-0.995263	-0.016557	0.970285	0.097080	-0.221638
49796	9.527928	-0.065579	-2.343608	-0.316905	0.038447	-0.039855	0.221770	0.005565	0.975083	0.092812	-0.995564	-0.015427	0.970672	0.093921	-0.221303
49797	9.555028	-0.345810	-2.249648	-0.297736	0.043943	-0.037913	0.221296	0.005938	0.975189	0.089996	-0.995839	-0.014359	0.971045	0.090941	-0.220910
49798	9.626079	-0.235826	-2.086464	-0.261680	0.044712	-0.031967	0.220820	0.006252	0.975295	0.087515	-0.996073	-0.013430	0.971380	0.088318	-0.220500
49799	9.624381	-0.258982	-1.965036	-0.271691	0.043430	-0.033837	0.220356	0.006588	0.975397	0.084940	-0.996308	-0.012460	0.971714	0.085596	-0.220102
49800	9.529759	-0.161698	-1.989661	-0.242601	0.051184	-0.033328	0.219816	0.006912	0.975517	0.082648	-0.996512	-0.011562	0.972034	0.083166	-0.219621
49801	9.572712	0.427623	-1.813581	-0.242325	0.049167	-0.026512	0.219304	0.007173	0.975630	0.080341	-0.996710	-0.010732	0.972343	0.080736	-0.219159
49802	9.676554	0.510109	-1.728891	-0.291663	0.038387	-0.016297	0.218904	0.007340	0.975719	0.077531	-0.996941	-0.009894	0.972661	0.077814	-0.218803
49803	9.715853	0.257928	-1.679637	-0.314847	0.023137	-0.006269	0.218662	0.007422	0.975773	0.074473	-0.997182	-0.009104	0.972955	0.074659	-0.218598
49804	9.561326	-0.216678	-1.615336	-0.275268	0.003227	-0.012891	0.218607	0.007584	0.975783	0.071812	-0.997383	-0.008336	0.973167	0.071895	-0.218580
49805	9.592233	-0.288342	-1.495402	-0.185134	-0.016681	-0.008697	0.218751	0.007719	0.975750	0.070020	-0.997515	-0.007806	0.973265	0.070029	-0.218748
49806	9.747349	0.113997	-1.216423	-0.124291	-0.040395	-0.000945	0.219129	0.007792	0.975665	0.068802	-0.997602	-0.007485	0.973267	0.068768	-0.219140
49807	9.767724	0.470493	-1.178423	-0.156670	-0.064741	0.017902	0.219759	0.007695	0.975524	0.067229	-0.997711	-0.007275	0.973235	0.067182	-0.219774
49808	9.855149	0.781311	-1.305385	-0.216936	-0.085809	0.037420	0.220605	0.007414	0.975335	0.065026	-0.997858	-0.007123	0.973193	0.064993	-0.220615
49809	9.791140	0.543788	-1.725079	-0.247230	-0.096599	0.045704	0.221562	0.007056	0.975121	0.062510	-0.998020	-0.006981	0.973141	0.062501	-0.221565
49810	9.635033	0.480461	-2.040924	-0.215815	-0.104772	0.058350	0.222603	0.006575	0.974887	0.060271	-0.998157	-0.007030	0.973044	0.060323	-0.222589
49811	9.572042	0.337579	-2.175493	-0.170296	-0.108681	0.059155	0.223684	0.006086	0.974643	0.058473	-0.998263	-0.007186	0.972906	0.058598	-0.223651
49812	9.638170	0.294680	-2.140171	-0.139717	-0.110025	0.064213	0.224777	0.005545	0.974394	0.056962	-0.998349	-0.007458	0.972744	0.057180	-0.224722
49813	9.645412	0.311724	-2.159216	-0.149644	-0.110412	0.076543	0.225882	0.004880	0.974142	0.055325	-0.998438	-0.007826	0.972582	0.055662	-0.225799
49814	9.628435	0.137639	-2.246239	-0.205337	-0.094149	0.087673	0.226831	0.004094	0.973926	0.053121	-0.998555	-0.008175	0.972484	0.053590	-0.226721
49815	9.413159	-0.128507	-2.221880	-0.247503	-0.090758	0.088487	0.227748	0.003294	0.973715	0.050504	-0.998688	-0.008434	0.972410	0.051097	-0.227615
49816	9.345885	-0.298867	-2.084453	-0.211760	-0.094478	0.086946	0.228695	0.002511	0.973495	0.048239	-0.998797	-0.008756	0.972302	0.048963	-0.228542
49817	9.369950	-0.357211	-1.717814	-0.181862	-0.120355	0.078601	0.229891	0.001820	0.973215	0.046282	-0.998887	-0.009064	0.972115	0.047126	-0.229720
49818	9.348324	-0.679351	-1.687697	-0.140397	-0.147716	0.077164	0.231348	0.001155	0.972870	0.044731	-0.998954	-0.009451	0.971842	0.045704	-0.231158
49819	9.347360	-0.937628	-1.552990	-0.091648	-0.171197	0.061438	0.233027	0.000656	0.972470	0.043690	-0.998997	-0.009795	0.971488	0.044769	-0.232822
49820	9.288872	-0.962647	-1.680002	0.005304	-0.191875	0.042992	0.234896	0.000349	0.972021	0.043632	-0.998996	-0.010185	0.971041	0.044804	-0.234675
49821	9.345167	-0.343545	-1.787571	0.072199	-0.210671	0.051466	0.236952	-0.000033	0.971521	0.044203	-0.998964	-0.010815	0.970515	0.045507	-0.236705
49822	9.395216	0.142241	-1.673479	0.019174	-0.235849	0.057033	0.239251	-0.000458	0.970958	0.044245	-0.998956	-0.011374	0.969949	0.045681	-0.238981
49823	9.408285	0.305284	-1.618123	0.002546	-0.266472	0.070615	0.241855	-0.001005	0.970312	0.044092	-0.998955	-0.012025	0.969310	0.045691	-0.241558
49824	9.342601	0.585530	-1.574532	-0.008241	-0.291022	0.080939	0.244696	-0.001644	0.969598	0.043807	-0.998959	-0.012749	0.968610	0.045595	-0.244369
49825	9.597791	0.898283	-1.721268	-0.022545	-0.302297	0.089452	0.247651	-0.002363	0.968847	0.043360	-0.998968	-0.013520	0.967879	0.045358	-0.247293
49826	10.024149	0.999303	-2.181790	-0.066516	-0.290518	0.099197	0.250489	-0.003186	0.968114	0.042463	-0.998996	-0.014274	0.967188	0.044685	-0.250102
49827	9.783122	0.708446	-2.717561	-0.148444	-0.277710	0.110244	0.253209	-0.004128	0.967403	0.040743	-0.999058	-0.014927	0.966553	0.043194	-0.252802
49828	9.635693	-0.301231	-3.558274	-0.157077	-0.264723	0.118811	0.255799	-0.005165	0.966716	0.038916	-0.999120	-0.015636	0.965946	0.041621	-0.255373
49829	9.672266	-0.701564	-4.046326	0.041195	-0.240206	0.110883	0.258151	-0.006135	0.966085	0.039021	-0.999098	-0.016772	0.965316	0.042028	-0.257679
49830	9.661995	-0.551955	-4.087204	0.139094	-0.216646	0.120252	0.260275	-0.007206	0.965508	0.040046	-0.999031	-0.018252	0.964704	0.043415	-0.259734
49831	9.836067	-0.360529	-3.560392	0.223294	-0.192903	0.121624	0.262174	-0.008298	0.964985	0.041874	-0.998923	-0.019967	0.964112	0.045643	-0.261544
49832	9.868106	-1.392152	-3.010146	0.235175	-0.179011	0.125835	0.263940	-0.009434	0.964493	0.043804	-0.998803	-0.021757	0.963544	0.047991	-0.263210
49833	9.735223	-1.992716	-2.626148	0.632103	-0.190544	0.080413	0.265801	-0.010103	0.963975	0.049672	-0.998473	-0.024160	0.962747	0.054304	-0.264893
49834	9.635950	0.212640	-1.574329	0.996881	-0.199076	0.085527	0.267749	-0.010802	0.963428	0.059028	-0.997875	-0.027593	0.961679	0.064257	-0.266542
49835	9.513263	0.714223	-1.339860	0.624335	-0.229829	0.122364	0.270022	-0.011831	0.962782	0.064693	-0.997442	-0.030401	0.960678	0.070494	-0.268566
49836	9.222026	-0.318853	-1.624676	0.585784	-0.271772	0.134093	0.272706	-0.012932	0.962010	0.069947	-0.996997	-0.033231	0.959551	0.076352	-0.270983
49837	9.164836	-0.019450	-1.031950	0.693825	-0.323774	0.141750	0.275902	-0.014050	0.961083	0.076204	-0.996426	-0.036443	0.958160	0.083293	-0.273845
49838	8.991024	0.442382	-0.184940	0.586936	-0.389497	0.178855	0.279756	-0.015460	0.959947	0.081318	-0.995896	-0.039737	0.956621	0.089178	-0.277350
49839	9.018741	0.152495	0.616322	0.487184	-0.464874	0.215649	0.284366	-0.017144	0.958563	0.085360	-0.995416	-0.043126	0.954908	0.094086	-0.281599
49840	9.395919	-0.111349	1.360814	0.538705	-0.553178	0.249647	0.289844	-0.019056	0.956884	0.089778	-0.994852	-0.047006	0.952854	0.099532	-0.286641
49841	9.367219	0.302678	1.636757	0.648509	-0.661545	0.247881	0.296355	-0.020805	0.954851	0.095217	-0.994138	-0.051213	0.950320	0.106095	-0.292637
49842	9.416882	1.846795	2.327875	0.608779	-0.797298	0.274814	0.304169	-0.022628	0.952349	0.100165	-0.993416	-0.055595	0.947337	0.112303	-0.299900
49843	9.030709	0.968780	1.794597	0.276557	-0.949148	0.322255	0.313457	-0.024713	0.949281	0.101780	-0.993028	-0.059460	0.944132	0.115256	-0.308757
49844	9.538402	1.315797	1.475016	0.442160	-1.083545	0.352296	0.324009	-0.026898	0.945672	0.104822	-0.992420	-0.064142	0.940229	0.119910	-0.318733
49845	10.718204	2.941542	1.659222	0.393443	-1.188809	0.415682	0.335588	-0.029535	0.941546	0.107138	-0.991826	-0.069299	0.935897	0.124131	-0.329680
49846	11.045107	2.430879	1.107513	0.040787	-1.309240	0.472157	0.348290	-0.032547	0.936822	0.105907	-0.991632	-0.073826	0.931385	0.124929	-0.341928
49847	11.126816	0.160403	0.128385	-0.045107	-1.422356	0.475410	0.361987	-0.035449	0.931509	0.103796	-0.991530	-0.078068	0.926386	0.124947	-0.355242
49848	11.177818	-1.738255	-0.892147	0.267717	-1.513213	0.447035	0.376401	-0.037923	0.925680	0.104625	-0.991030	-0.083143	0.920530	0.128145	-0.369057
49849	11.969239	-1.811710	-0.626435	0.522986	-1.587019	0.433444	0.391405	-0.040102	0.919344	0.107756	-0.990180	-0.089068	0.913888	0.133926	-0.383240
49850	12.663396	-2.519085	0.105333	0.350359	-1.662957	0.480117	0.407038	-0.042551	0.912419	0.109038	-0.989508	-0.094789	0.906880	0.138071	-0.398128
49851	12.433037	-1.388563	0.296169	0.411147	-1.773423	0.462152	0.423547	-0.044595	0.904776	0.110831	-0.988733	-0.100616	0.899069	0.142893	-0.413833
49852	12.180784	-1.038371	0.058096	0.260285	-1.866943	0.544505	0.440830	-0.047237	0.896347	0.110818	-0.988110	-0.106574	0.890723	0.146313	-0.430354
49853	12.497986	-1.272010	-0.154058	0.287229	-1.953422	0.603146	0.458797	-0.050264	0.887118	0.110651	-0.987395	-0.113172	0.881625	0.150084	-0.447452
49854	12.743190	-0.232176	0.486788	0.170808	-2.038717	0.639042	0.477345	-0.053443	0.877089	0.109172	-0.986808	-0.119544	0.871908	0.152817	-0.465214
49855	12.796330	-0.909164	0.209332	-0.210819	-2.138663	0.647152	0.496562	-0.056536	0.866158	0.104196	-0.986778	-0.124143	0.861725	0.151895	-0.484106
49856	12.963839	-1.831382	-0.266264	-0.203071	-2.209429	0.633302	0.516094	-0.059395	0.854470	0.099268	-0.986723	-0.128545	0.850760	0.151163	-0.503346
49857	12.840252	-2.356190	-0.846897	-0.186319	-2.239735	0.600082	0.535590	-0.061900	0.842207	0.094542	-0.986645	-0.132639	0.839170	0.150664	-0.522585
49858	12.295478	-2.184807	-2.233524	-0.083421	-2.238363	0.539025	0.554707	-0.063797	0.829597	0.090929	-0.986436	-0.136657	0.827063	0.151239	-0.541382
49859	11.362418	-1.136157	-3.334670	-0.134741	-2.252051	0.451601	0.573583	-0.064809	0.816580	0.087282	-0.986355	-0.139592	0.814484	0.151340	-0.560099
49860	10.283977	-1.167987	-5.364892	-0.343193	-2.275180	0.306968	0.592196	-0.064373	0.803219	0.082742	-0.986677	-0.140080	0.801534	0.149415	-0.578980
49861	9.686514	-1.169448	-7.371139	-0.168294	-2.226845	0.106611	0.609974	-0.062065	0.789987	0.080772	-0.986866	-0.139900	0.788294	0.149144	-0.596950
49862	9.250051	-0.786961	-8.525826	-0.124690	-2.093437	-0.055716	0.626267	-0.058349	0.777422	0.080167	-0.987089	-0.138665	0.775476	0.149165	-0.613504
49863	9.074113	-1.256426	-9.315131	0.007099	-1.842503	-0.147613	0.640319	-0.054098	0.766202	0.081166	-0.987166	-0.137530	0.763809	0.150253	-0.627710
49864	8.425167	-0.890304	-9.271261	0.297434	-1.526061	-0.149096	0.651745	-0.050260	0.756771	0.084414	-0.986795	-0.138235	0.753726	0.153976	-0.638896
49865	9.092631	-0.385924	-7.674706	0.299385	-1.186230	-0.140911	0.660506	-0.046987	0.749349	0.087594	-0.986402	-0.139060	0.745694	0.157488	-0.647409
49866	8.721977	-0.373660	-6.492286	0.298495	-0.778912	-0.149666	0.666131	-0.044226	0.744523	0.090833	-0.985999	-0.139839	0.740283	0.160779	-0.652787
49867	7.753969	0.828772	-5.383310	0.205333	-0.335794	-0.170765	0.668444	-0.041964	0.742578	0.093502	-0.985745	-0.139873	0.737862	0.162929	-0.654992
49868	6.865568	0.615317	-6.184848	-0.243357	0.046938	-0.213159	0.667869	-0.039891	0.743209	0.093160	-0.986229	-0.136651	0.738426	0.160502	-0.654955
49869	6.208735	-1.714975	-7.805616	-0.313700	0.434595	-0.256865	0.664403	-0.038012	0.746407	0.092561	-0.986832	-0.132648	0.741620	0.157220	-0.652136
49870	6.106507	-2.305084	-7.841684	0.190246	0.842126	-0.277555	0.657844	-0.036556	0.752267	0.095843	-0.986638	-0.131758	0.747031	0.158775	-0.645550
49871	5.717209	-1.538907	-7.194451	0.454684	1.249096	-0.274056	0.648183	-0.035826	0.760641	0.101058	-0.986010	-0.132557	0.754749	0.162790	-0.635495
49872	5.439955	-1.002103	-6.867831	0.479753	1.617239	-0.275604	0.635581	-0.035729	0.771207	0.106500	-0.985321	-0.133419	0.764653	0.166932	-0.622446
49873	5.205466	-1.102638	-6.736394	0.422825	1.950402	-0.305800	0.620206	-0.035971	0.783614	0.111688	-0.984722	-0.133600	0.776447	0.170380	-0.606713
49874	5.034237	-1.320046	-6.654945	0.377199	2.249298	-0.346133	0.602165	-0.036383	0.797542	0.116784	-0.984202	-0.133072	0.789784	0.173271	-0.588403
49875	4.882810	-1.821872	-6.780959	0.286745	2.510669	-0.399130	0.581665	-0.036794	0.812596	0.121440	-0.983853	-0.131476	0.804313	0.175157	-0.567804
49876	4.879584	-2.781338	-7.163191	0.219891	2.736752	-0.445143	0.558860	-0.037179	0.828428	0.125787	-0.983634	-0.129001	0.819666	0.176299	-0.545037
49877	4.971145	-3.855833	-7.189152	0.401668	2.922528	-0.495875	0.534025	-0.037462	0.844638	0.131827	-0.983110	-0.126951	0.835128	0.179141	-0.520067
49878	5.347635	-3.665560	-6.792859	0.744361	3.080321	-0.537899	0.507302	-0.037747	0.860941	0.140919	-0.981959	-0.126088	0.850168	0.185288	-0.492831
49879	5.881046	-2.659821	-6.289010	0.909453	3.181827	-0.566179	0.479178	-0.038175	0.876887	0.151513	-0.980459	-0.125479	0.864542	0.192986	-0.464030
49880	6.587920	-1.924862	-5.680678	0.830292	3.228343	-0.587023	0.450093	-0.038725	0.892141	0.161490	-0.979057	-0.123971	0.878258	0.199870	-0.434413
49881	7.161634	-1.908035	-5.535213	0.710594	3.249399	-0.591319	0.420345	-0.039492	0.906504	0.170352	-0.977853	-0.121592	0.891230	0.205535	-0.404308
49882	7.571796	-1.504897	-5.084428	0.682061	3.237444	-0.572185	0.390265	-0.040602	0.919807	0.178801	-0.976665	-0.118976	0.903174	0.210894	-0.373899
49883	7.953129	-0.855919	-4.791699	0.475319	3.202912	-0.511583	0.360209	-0.042381	0.931908	0.185038	-0.975873	-0.115903	0.914336	0.214188	-0.343676
49884	8.274336	-0.801970	-4.686948	0.180940	3.156948	-0.434383	0.330332	-0.044873	0.942798	0.188209	-0.975678	-0.112381	0.924910	0.214566	-0.313852
49885	8.486412	-1.089866	-4.596896	-0.037944	3.086101	-0.337958	0.300980	-0.048134	0.952415	0.188918	-0.975922	-0.109024	0.934730	0.212742	-0.284640
49886	8.681239	-1.357253	-4.252084	-0.169518	3.002618	-0.236364	0.272300	-0.052130	0.960799	0.188007	-0.976403	-0.106260	0.943666	0.209572	-0.256074
49887	8.791946	-1.557300	-3.861276	-0.280920	2.906974	-0.152008	0.244448	-0.056640	0.968007	0.185730	-0.977074	-0.104073	0.951709	0.205228	-0.228324
49888	8.809552	-1.509728	-3.455478	-0.384940	2.800192	-0.088161	0.217503	-0.061413	0.974126	0.182257	-0.977910	-0.102345	0.958893	0.199802	-0.201505
49889	9.008513	-1.864292	-3.418068	-0.608123	2.702792	-0.051285	0.191386	-0.066173	0.979282	0.176501	-0.979140	-0.100657	0.965515	0.192108	-0.175714
49890	8.793844	-2.982548	-3.443239	-0.779326	2.613241	-0.055091	0.165949	-0.070493	0.983612	0.169049	-0.980643	-0.098802	0.971537	0.182674	-0.150820
49891	8.262227	-4.441559	-3.747541	-0.739644	2.521136	-0.099447	0.141209	-0.073973	0.987212	0.161984	-0.982038	-0.096756	0.976638	0.173576	-0.126690
49892	7.882141	-5.332450	-3.604327	-0.389006	2.396878	-0.188181	0.117423	-0.076183	0.990156	0.158414	-0.982849	-0.094407	0.980366	0.167940	-0.103341
49893	8.060112	-5.446931	-4.375670	0.144863	2.248172	-0.249168	0.094945	-0.077471	0.992463	0.160087	-0.982803	-0.092031	0.982526	0.167618	-0.080910
49894	8.285321	-3.753540	-3.919112	0.987918	2.053339	-0.256713	0.074317	-0.078442	0.994145	0.169999	-0.981313	-0.090138	0.982638	0.175703	-0.059593
49895	8.045907	-0.819033	-2.504004	1.468764	1.810722	-0.183370	0.056194	-0.079908	0.995217	0.184527	-0.978789	-0.089009	0.981220	0.188646	-0.040257
49896	7.689475	1.744144	-1.713066	1.089800	1.536174	-0.076178	0.040958	-0.082102	0.995782	0.195235	-0.976750	-0.088563	0.979901	0.198039	-0.023977
49897	7.298293	1.672179	-1.599411	0.325007	1.189510	0.025946	0.029337	-0.084690	0.995975	0.198394	-0.976088	-0.088842	0.979683	0.200202	-0.011834
49898	7.575052	0.029501	-1.929503	-0.158275	0.846765	0.087288	0.021184	-0.087195	0.995966	0.196806	-0.976334	-0.089662	0.980214	0.197912	-0.003523
49899	7.607549	-1.231744	-2.050051	-0.187458	0.524695	0.114299	0.016247	-0.089308	0.995872	0.194930	-0.976609	-0.090761	0.980683	0.195600	0.001542
49900	7.567565	-1.032184	-1.869192	-0.177274	0.212465	0.150053	0.014427	-0.091154	0.995732	0.193153	-0.976825	-0.092222	0.981063	0.193659	0.003514
49901	7.888804	-0.787293	-2.007765	-0.392976	-0.096892	0.198843	0.015741	-0.092877	0.995553	0.189249	-0.977403	-0.094176	0.981803	0.189890	0.002191
49902	8.087701	-1.074262	-2.570299	-0.653043	-0.376700	0.217791	0.019822	-0.094270	0.995349	0.182780	-0.978426	-0.096307	0.982954	0.183839	-0.002164
49903	8.123423	-1.697111	-3.557222	-0.724210	-0.592614	0.196533	0.025986	-0.095089	0.995130	0.175595	-0.979554	-0.098186	0.984119	0.177291	-0.008758
49904	9.445378	-1.449756	-3.520740	-0.550133	-0.678660	0.134715	0.032877	-0.095188	0.994916	0.170124	-0.980395	-0.099421	0.984874	0.172527	-0.016039
49905	9.690828	-1.411105	-3.738347	-0.534137	-0.600712	0.080336	0.038914	-0.094919	0.994724	0.164816	-0.981234	-0.100079	0.985556	0.167841	-0.022539
49906	10.516979	-1.212192	-2.937974	-0.401864	-0.386412	0.019776	0.042734	-0.094438	0.994613	0.160830	-0.981889	-0.100140	0.986056	0.164243	-0.026772
49907	11.076068	-1.296828	-1.705640	-0.438663	-0.100380	-0.015048	0.043684	-0.094092	0.994605	0.156494	-0.982621	-0.099832	0.986712	0.160011	-0.028200
49908	10.555993	-0.957119	-0.958474	-0.464455	0.091408	-0.026640	0.042721	-0.093940	0.994661	0.151904	-0.983384	-0.099400	0.987471	0.155340	-0.027741
49909	9.811237	0.174336	-0.714681	-0.700283	0.082582	-0.054153	0.041809	-0.093498	0.994741	0.144992	-0.984505	-0.098629	0.988549	0.148353	-0.027605
49910	9.749972	-0.797693	-1.514270	-1.067880	-0.006898	-0.088417	0.041734	-0.092582	0.994830	0.134449	-0.986121	-0.097412	0.990041	0.137819	-0.028708
49911	10.608160	-1.859394	-1.836673	-0.930514	-0.059993	-0.103331	0.042180	-0.091447	0.994916	0.125258	-0.987462	-0.096072	0.991227	0.128673	-0.030196
49912	12.004253	-1.575551	-0.632976	-0.779276	-0.054467	-0.078583	0.042606	-0.090568	0.994978	0.117547	-0.988512	-0.095013	0.992153	0.121004	-0.031471
49913	12.292879	-1.818837	0.436229	-0.968565	-0.097933	-0.036965	0.043523	-0.090052	0.994986	0.107931	-0.989677	-0.094293	0.993205	0.111494	-0.033354
49914	11.587198	-2.947845	0.807221	-1.157948	-0.192306	-0.025810	0.045390	-0.089559	0.994947	0.096419	-0.990930	-0.093596	0.994305	0.100180	-0.036343
49915	10.858408	-4.033516	0.381159	-1.130791	-0.289423	-0.065190	0.048196	-0.088602	0.994900	0.085184	-0.992064	-0.092476	0.995199	0.089207	-0.040266
49916	10.161839	-3.988942	-0.053663	-0.833117	-0.350875	-0.125708	0.051570	-0.087022	0.994871	0.076936	-0.992890	-0.090836	0.995701	0.081225	-0.044508
49917	9.753060	-3.133357	-0.369617	-0.517252	-0.403378	-0.172052	0.055446	-0.084959	0.994841	0.071861	-0.993450	-0.088845	0.995872	0.076416	-0.048978
49918	9.619894	-2.306282	-0.927546	-0.290043	-0.444507	-0.209936	0.059708	-0.082506	0.994800	0.069073	-0.993848	-0.086573	0.995823	0.073883	-0.053641
49919	9.571741	-1.954024	-1.784669	-0.089000	-0.458422	-0.247502	0.064090	-0.079672	0.994759	0.068325	-0.994119	-0.084023	0.995602	0.073352	-0.058269
49920	9.420779	-1.302731	-2.171949	0.139882	-0.441613	-0.286458	0.068271	-0.076465	0.994732	0.069886	-0.994243	-0.081224	0.995216	0.075063	-0.062534
49921	9.554086	-0.360077	-2.504126	0.258926	-0.404755	-0.316341	0.072060	-0.072973	0.994727	0.072669	-0.994285	-0.078205	0.994750	0.077921	-0.066345
49922	9.809096	0.686047	-2.295575	0.267481	-0.362576	-0.327983	0.075407	-0.069393	0.994735	0.075550	-0.994311	-0.075091	0.994287	0.080814	-0.069735
49923	9.780162	0.447061	-2.270934	0.123510	-0.303004	-0.336391	0.078150	-0.065764	0.994770	0.077021	-0.994441	-0.071794	0.993962	0.082229	-0.072650
49924	9.772158	-0.052741	-2.343165	0.121297	-0.271416	-0.333353	0.080573	-0.062192	0.994807	0.078471	-0.994558	-0.068532	0.993655	0.083585	-0.075254
49925	9.954921	-0.474914	-2.386695	0.138772	-0.244417	-0.325427	0.082730	-0.058713	0.994841	0.080101	-0.994641	-0.065362	0.993348	0.085095	-0.077584
49926	9.949160	-0.783110	-2.277415	0.155650	-0.207617	-0.317623	0.084520	-0.055343	0.994884	0.081892	-0.994693	-0.062289	0.993051	0.086738	-0.079540
49927	9.657882	-1.186914	-1.856378	0.166292	-0.186575	-0.318183	0.086096	-0.051978	0.994930	0.083800	-0.994721	-0.059218	0.992756	0.088474	-0.081286
49928	9.557940	-1.723579	-1.779233	0.311101	-0.159444	-0.334050	0.087379	-0.048479	0.994995	0.087158	-0.994613	-0.056115	0.992355	0.091625	-0.082683
49929	9.589112	-0.979169	-1.167102	0.465120	-0.136216	-0.331861	0.088420	-0.045014	0.995066	0.092049	-0.994334	-0.053161	0.991821	0.096296	-0.083775
49930	9.564678	-0.268458	-0.434760	0.389003	-0.130449	-0.313826	0.089404	-0.041735	0.995121	0.096165	-0.994092	-0.050331	0.991342	0.100196	-0.084863
49931	9.717790	-0.563184	-0.365073	0.281313	-0.159259	-0.293419	0.090682	-0.038620	0.995131	0.099203	-0.993927	-0.047613	0.990927	0.103037	-0.086300
49932	9.794697	-0.045703	-0.321669	0.404512	-0.167913	-0.286175	0.092041	-0.035568	0.995120	0.103451	-0.993612	-0.045082	0.990367	0.107096	-0.087774
49933	9.733757	0.588865	-0.119450	0.318034	-0.194553	-0.274762	0.093665	-0.032590	0.995070	0.106841	-0.993363	-0.042591	0.989854	0.110303	-0.089561
49934	9.738091	0.384238	0.092793	0.255293	-0.240651	-0.265345	0.095744	-0.029654	0.994964	0.109599	-0.993165	-0.040147	0.989354	0.112891	-0.091840
49935	9.927522	-0.103295	0.162470	0.296788	-0.261511	-0.259431	0.098028	-0.026743	0.994824	0.112771	-0.992902	-0.037803	0.988774	0.115894	-0.094317
49936	9.793718	0.307191	0.494370	0.394843	-0.284438	-0.272714	0.100511	-0.023668	0.994654	0.116926	-0.992508	-0.035433	0.988041	0.119862	-0.096990
49937	9.767716	0.231759	0.399406	0.332558	-0.335372	-0.269884	0.103488	-0.020546	0.994418	0.120472	-0.992167	-0.033037	0.987308	0.123218	-0.100203
49938	9.938249	0.151966	0.135965	0.401051	-0.386353	-0.244534	0.106985	-0.017605	0.994105	0.124669	-0.991715	-0.030979	0.986414	0.127249	-0.103904
49939	10.031338	0.704415	-0.141346	0.390238	-0.410584	-0.210034	0.110752	-0.014956	0.993736	0.128732	-0.991248	-0.029266	0.985476	0.131166	-0.107858
49940	9.892840	0.706722	-0.762569	0.246408	-0.428461	-0.174617	0.114729	-0.012625	0.993317	0.131339	-0.990949	-0.027765	0.984676	0.133647	-0.112032
49941	9.858651	0.441077	-1.305896	0.237860	-0.449431	-0.145647	0.118944	-0.010540	0.992845	0.133837	-0.990648	-0.026551	0.983839	0.136037	-0.116421
49942	9.897488	0.215951	-1.668215	0.336341	-0.448178	-0.145024	0.123137	-0.008454	0.992354	0.137304	-0.990201	-0.025473	0.982845	0.139391	-0.120770
49943	9.860794	0.116364	-1.719047	0.443247	-0.436966	-0.156540	0.127196	-0.006250	0.991858	0.141841	-0.989588	-0.024425	0.981683	0.143793	-0.124985
49944	9.609226	-0.082912	-1.952751	0.515367	-0.411591	-0.164666	0.130978	-0.003986	0.991377	0.147094	-0.988845	-0.023409	0.980412	0.148892	-0.128931
49945	9.453877	-0.198882	-1.726361	0.441967	-0.393544	-0.156391	0.134585	-0.001810	0.990900	0.151620	-0.988185	-0.022398	0.979234	0.153254	-0.132720
49946	9.391399	-1.151671	-1.927253	0.383403	-0.373892	-0.146032	0.138002	0.000246	0.990432	0.155556	-0.987595	-0.021429	0.978140	0.157025	-0.136329
49947	9.648093	-0.956800	-1.793789	0.414103	-0.366495	-0.121497	0.141378	0.002064	0.989954	0.159761	-0.986937	-0.020758	0.976979	0.161091	-0.139861
49948	9.633265	-0.596764	-1.673644	0.312386	-0.353821	-0.102571	0.144649	0.003684	0.989476	0.162943	-0.986430	-0.020148	0.975974	0.164143	-0.143287
49949	9.670271	-0.295290	-1.676621	0.226239	-0.353773	-0.094518	0.147929	0.005236	0.988984	0.165276	-0.986054	-0.019501	0.975090	0.166341	-0.146732
49950	9.555627	-0.128890	-1.511017	0.171765	-0.355269	-0.087776	0.151229	0.006727	0.988476	0.167067	-0.985765	-0.018851	0.974278	0.167992	-0.150200
49951	9.502832	0.101913	-1.224381	0.205438	-0.370695	-0.084394	0.154681	0.008221	0.987930	0.169185	-0.985415	-0.018290	0.973371	0.169972	-0.153815
49952	9.643994	0.601786	-0.880067	0.240149	-0.381759	-0.082056	0.158237	0.009714	0.987353	0.171634	-0.985000	-0.017816	0.972370	0.172283	-0.157531
49953	9.726371	0.992207	-0.912594	0.211038	-0.384793	-0.076177	0.161829	0.011167	0.986756	0.173796	-0.984629	-0.017360	0.971394	0.174303	-0.161282
49954	9.844568	1.243236	-1.112599	0.151083	-0.375501	-0.069606	0.165335	0.012542	0.986158	0.175363	-0.984359	-0.016882	0.970522	0.175727	-0.164948
49955	9.805975	1.036295	-1.621937	0.035008	-0.360563	-0.054338	0.168721	0.013746	0.985568	0.175782	-0.984293	-0.016364	0.969863	0.176006	-0.168488
49956	9.693541	0.583702	-2.196163	-0.034813	-0.347175	-0.039910	0.171999	0.014782	0.984986	0.175500	-0.984351	-0.015873	0.969338	0.175595	-0.171902
49957	9.693073	0.401489	-2.559321	0.014017	-0.334260	-0.031485	0.175166	0.015715	0.984413	0.175680	-0.984325	-0.015547	0.968738	0.175665	-0.175181
49958	9.713346	0.181505	-2.419624	-0.071027	-0.317257	-0.016663	0.178192	0.016469	0.983858	0.175010	-0.984449	-0.015218	0.968307	0.174896	-0.178303
49959	9.441577	-1.466382	-2.544199	-0.162149	-0.313293	-0.022409	0.181169	0.017270	0.983300	0.173469	-0.984730	-0.014666	0.968032	0.173230	-0.181399
49960	9.491087	-1.737876	-2.468915	0.243083	-0.303493	-0.041996	0.184015	0.018246	0.982754	0.175886	-0.984301	-0.014659	0.967059	0.175550	-0.184335
49961	9.796763	0.269114	-1.507295	0.384426	-0.303168	-0.029492	0.186876	0.019109	0.982198	0.179646	-0.983616	-0.015043	0.965818	0.179259	-0.187247
49962	9.619861	1.139867	-1.109974	0.112995	-0.317325	0.003595	0.189928	0.019678	0.981601	0.180718	-0.983417	-0.015253	0.965023	0.180289	-0.190334
49963	9.468034	0.994705	-0.984471	-0.041147	-0.334058	0.019198	0.193169	0.020125	0.980959	0.180274	-0.983497	-0.015322	0.964462	0.179801	-0.193609
49964	9.450573	0.733221	-0.843709	-0.089116	-0.363059	0.026648	0.196699	0.020548	0.980249	0.179352	-0.983665	-0.015369	0.963920	0.178832	-0.197171
49965	9.579294	0.763972	-0.763665	-0.048110	-0.382014	0.028083	0.200414	0.020989	0.979486	0.178822	-0.983759	-0.015508	0.963253	0.178262	-0.200912
49966	9.620697	0.936838	-0.615948	-0.063920	-0.415794	0.047215	0.204483	0.021299	0.978638	0.178102	-0.983885	-0.015801	0.962531	0.177528	-0.204981
49967	9.334763	0.196794	-0.530017	-0.254362	-0.458022	0.063547	0.208986	0.021516	0.977682	0.175513	-0.984349	-0.015855	0.962039	0.174909	-0.209492
49968	8.953679	-2.410862	-1.672108	-0.199168	-0.501558	0.050097	0.213878	0.021929	0.976614	0.173483	-0.984709	-0.015882	0.961332	0.172823	-0.214411
49969	9.308725	-1.496828	-1.616646	0.393169	-0.518391	0.021641	0.218878	0.022657	0.975489	0.177203	-0.984029	-0.016905	0.959527	0.176560	-0.219397
49970	9.579679	0.125236	-1.303162	0.326001	-0.549267	0.030710	0.224179	0.023367	0.974268	0.180251	-0.983458	-0.017889	0.957734	0.179623	-0.224682
49971	9.472501	0.223393	-1.568527	0.198188	-0.581248	0.050729	0.229816	0.023952	0.972939	0.182023	-0.983115	-0.018793	0.956061	0.181416	-0.230295
49972	9.343165	0.211521	-1.724631	0.140208	-0.595267	0.064958	0.235601	0.024431	0.971543	0.183202	-0.982878	-0.019711	0.954426	0.182633	-0.236043
49973	9.406109	0.298873	-1.819854	0.104382	-0.609231	0.073956	0.241530	0.024854	0.970075	0.184013	-0.982707	-0.020638	0.952787	0.183491	-0.241927
49974	9.505077	0.512865	-1.931024	0.082220	-0.618532	0.095120	0.247573	0.025090	0.968544	0.184555	-0.982582	-0.021721	0.951129	0.184128	-0.247891
49975	9.390438	0.686043	-2.319834	0.067312	-0.621536	0.109215	0.253664	0.025198	0.966964	0.184914	-0.982488	-0.022906	0.949453	0.184615	-0.253882
49976	9.341713	0.974143	-2.615577	0.072114	-0.615196	0.120542	0.259703	0.025186	0.965360	0.185281	-0.982387	-0.024215	0.947747	0.185152	-0.259795
49977	9.838559	1.529340	-2.969673	0.045208	-0.595036	0.138407	0.265577	0.024964	0.963766	0.185339	-0.982340	-0.025628	0.946107	0.185429	-0.265514
49978	10.165819	0.829065	-2.945416	-0.226278	-0.554785	0.159838	0.271097	0.024451	0.962242	0.182765	-0.982799	-0.026518	0.945042	0.183053	-0.270902
49979	9.401140	-1.753036	-3.537866	-0.199979	-0.557131	0.149659	0.276614	0.024029	0.960681	0.180460	-0.983201	-0.027369	0.943885	0.180935	-0.276304
49980	9.065310	-2.777420	-3.410763	0.402370	-0.581588	0.102921	0.282264	0.024116	0.959034	0.183961	-0.982493	-0.029438	0.941534	0.184734	-0.281759
49981	9.403714	-0.795062	-1.614702	0.901716	-0.590002	0.104388	0.287989	0.024242	0.957327	0.192132	-0.980815	-0.032962	0.938162	0.193425	-0.287122
49982	9.769731	1.225038	0.508852	0.800023	-0.646245	0.150847	0.294315	0.024072	0.955405	0.199179	-0.979276	-0.036684	0.934723	0.201093	-0.293011
49983	9.499139	1.486279	1.416626	0.677140	-0.745565	0.187423	0.301633	0.023796	0.953127	0.204932	-0.977940	-0.040439	0.931139	0.207524	-0.299855
49984	9.430656	2.184181	2.377399	0.511527	-0.864998	0.245650	0.310156	0.023245	0.950401	0.208931	-0.976927	-0.044289	0.927443	0.212305	-0.307857
49985	9.275189	1.549288	1.995172	0.259368	-1.009533	0.299194	0.320111	0.022513	0.947113	0.210384	-0.976445	-0.047897	0.923725	0.214590	-0.317307
49986	9.084606	0.813136	1.229439	0.257261	-1.133349	0.326713	0.331220	0.021804	0.943302	0.211691	-0.975965	-0.051772	0.919500	0.216836	-0.327874
49987	9.300557	0.866724	0.368023	0.286416	-1.238473	0.354974	0.343315	0.021076	0.938984	0.213116	-0.975419	-0.056027	0.914722	0.219348	-0.339367
49988	9.570579	0.396802	-0.695185	0.262021	-1.334033	0.379426	0.356266	0.020354	0.934163	0.214181	-0.974922	-0.060442	0.909506	0.221613	-0.351691
49989	9.628516	-0.033520	-1.677165	0.349013	-1.400825	0.396632	0.369802	0.019649	0.928903	0.215903	-0.974226	-0.065345	0.903677	0.224717	-0.364513
49990	9.752363	0.293257	-2.266609	0.377695	-1.452367	0.414254	0.383751	0.018940	0.923242	0.217748	-0.973453	-0.070538	0.897397	0.228103	-0.377687
49991	10.237403	0.364670	-3.117960	0.272042	-1.494573	0.451406	0.398082	0.018008	0.917173	0.218414	-0.972916	-0.075697	0.890969	0.230457	-0.391234
49992	11.380355	0.827633	-3.347488	0.205034	-1.513415	0.487266	0.412552	0.016806	0.910779	0.218266	-0.972529	-0.080921	0.884399	0.232176	-0.404887
49993	12.989861	0.426466	-3.085997	0.164796	-1.527990	0.509125	0.427106	0.015448	0.904069	0.217580	-0.972231	-0.086178	0.877633	0.233515	-0.418607
49994	14.323038	-0.211646	-1.140438	0.156158	-1.543085	0.555207	0.441771	0.013703	0.897023	0.216542	-0.971948	-0.091796	0.870602	0.234796	-0.432345
49995	14.011094	-0.178964	0.974988	0.104067	-1.640783	0.597553	0.457265	0.011788	0.889252	0.214759	-0.971783	-0.097550	0.863010	0.235581	-0.446894
49996	14.263741	-0.834647	2.301694	-0.050082	-1.799424	0.657254	0.474088	0.009673	0.880424	0.211281	-0.971974	-0.103091	0.854752	0.234891	-0.462845
49997	14.273554	-1.810059	3.408177	-0.118353	-1.958355	0.728425	0.492244	0.007212	0.870427	0.206758	-0.972316	-0.108869	0.845545	0.233557	-0.480108
49998	14.121154	-1.100882	5.217334	0.054445	-2.165394	0.808516	0.512058	0.004452	0.858940	0.203170	-0.972238	-0.116081	0.834577	0.233950	-0.498746
49999	14.481094	0.320227	6.189605	-0.225470	-2.416079	0.916861	0.533892	0.001194	0.845552	0.196511	-0.972793	-0.122706	0.822401	0.231672	-0.519601
50000	15.332611	-0.154408	5.229057	-0.415648	-2.635589	1.005821	0.557283	-0.002504	0.830319	0.187652	-0.973743	-0.128882	0.808840	0.227634	-0.542181
50001	15.789198	-0.000050	4.278892	-0.443067	-2.806675	1.047793	0.581675	-0.006348	0.813397	0.178141	-0.974701	-0.134998	0.793675	0.223424	-0.565828
50002	16.080371	0.049489	1.716320	-0.640052	-2.933419	1.023210	0.606443	-0.009822	0.795066	0.167058	-0.976031	-0.139482	0.777379	0.217410	-0.590266
50003	15.159823	0.371408	-1.525847	-0.741461	-2.985190	0.934038	0.630887	-0.012524	0.775774	0.155588	-0.977517	-0.142311	0.760115	0.210483	-0.614754
50004	14.486562	1.178326	-3.963689	-0.945896	-2.927480	0.812130	0.654057	-0.014396	0.756309	0.143291	-0.979359	-0.142560	0.742750	0.201615	-0.638494
50005	12.831683	0.775258	-6.530241	-1.326799	-2.806214	0.681176	0.675580	-0.015560	0.737122	0.129030	-0.981853	-0.138984	0.725908	0.189006	-0.661313
50006	10.699051	0.761133	-9.422982	-1.112122	-2.722757	0.519256	0.695709	-0.015614	0.718154	0.117527	-0.983817	-0.135244	0.708644	0.178493	-0.682615
50007	10.070065	1.299408	-9.848995	-1.147248	-2.554815	0.319920	0.713949	-0.014309	0.700051	0.107251	-0.985758	-0.129529	0.691935	0.167558	-0.702247
50008	9.332176	-0.938204	-11.773562	-1.123998	-2.285095	0.207733	0.729760	-0.012603	0.683588	0.098098	-0.987555	-0.122931	0.676630	0.156769	-0.719441
50009	8.769985	-1.966672	-12.336827	-0.488145	-1.921358	0.195428	0.742806	-0.011530	0.669408	0.093405	-0.988289	-0.120670	0.662959	0.152160	-0.733030
50010	9.998697	-2.348805	-7.618348	-0.065434	-1.288665	0.211355	0.751445	-0.011611	0.659693	0.091435	-0.988365	-0.121548	0.653429	0.151655	-0.741641
50011	9.109913	-0.165979	-5.026361	0.279236	-0.575712	0.240934	0.755404	-0.013075	0.655129	0.091454	-0.987911	-0.125169	0.648845	0.154468	-0.745077
50012	7.004093	1.150605	-5.576004	-0.426793	-0.044929	0.050424	0.755703	-0.013454	0.654776	0.088345	-0.988557	-0.122274	0.648929	0.150249	-0.745867
50013	5.478103	-2.295631	-8.086497	-0.669174	0.429353	-0.236227	0.752693	-0.011712	0.658268	0.085788	-0.989573	-0.115701	0.652759	0.143558	-0.743839
50014	4.777446	-4.385663	-8.960569	0.221503	0.959259	-0.406869	0.745997	-0.009376	0.665884	0.089856	-0.989340	-0.114598	0.659860	0.145323	-0.737202
50015	4.208774	-2.779200	-7.755397	0.975850	1.518377	-0.455784	0.735456	-0.007113	0.677535	0.099738	-0.987916	-0.118637	0.670191	0.154828	-0.725859
50016	3.510873	-1.256548	-6.872478	1.088021	2.004586	-0.484703	0.721333	-0.005977	0.692563	0.109999	-0.986282	-0.123080	0.683797	0.164963	-0.710780
50017	3.139902	-1.382549	-6.661991	0.918287	2.415780	-0.562284	0.703959	-0.004493	0.710227	0.120375	-0.984759	-0.125541	0.699966	0.173869	-0.692688
50018	2.841107	-1.792026	-6.959560	0.868079	2.786680	-0.629230	0.683363	-0.003699	0.730070	0.130227	-0.983333	-0.126878	0.718370	0.181779	-0.671491
50019	2.587734	-1.802468	-7.437343	0.805772	3.145269	-0.662038	0.659542	-0.002999	0.751662	0.140555	-0.981862	-0.127246	0.738410	0.189574	-0.647158
50020	2.510559	-1.953494	-8.015493	0.677175	3.466150	-0.647288	0.632589	-0.003533	0.774479	0.149453	-0.980638	-0.126546	0.759931	0.195800	-0.619813
50021	2.603728	-2.631136	-8.488688	0.593826	3.751719	-0.599310	0.602723	-0.005076	0.797934	0.157744	-0.979487	-0.125384	0.782203	0.201441	-0.589559
50022	2.832253	-2.442022	-8.208570	0.730888	4.008159	-0.542094	0.569992	-0.008214	0.821609	0.166269	-0.978109	-0.125129	0.804651	0.207931	-0.556149
50023	3.200860	-1.312248	-7.747158	0.614313	4.204062	-0.473904	0.534872	-0.012406	0.844842	0.173906	-0.976868	-0.124445	0.826843	0.213485	-0.520341
50024	3.708709	-1.049853	-7.410549	0.225514	4.340400	-0.410446	0.497734	-0.017657	0.867150	0.177935	-0.976448	-0.122015	0.848882	0.215027	-0.482869
50025	4.226030	-1.905880	-7.827838	-0.179773	4.455549	-0.353706	0.458777	-0.023690	0.888235	0.178083	-0.976910	-0.118036	0.870523	0.212332	-0.443966
50026	4.579387	-2.824128	-7.945067	-0.333574	4.533636	-0.321785	0.418226	-0.030031	0.907847	0.176571	-0.977701	-0.113684	0.891016	0.207845	-0.403597
50027	5.082910	-3.348769	-7.847932	-0.401799	4.568262	-0.281884	0.376573	-0.036610	0.925663	0.174071	-0.978624	-0.109520	0.909886	0.202373	-0.362151
50028	5.204050	-3.657360	-7.839889	-0.450005	4.586761	-0.240175	0.333984	-0.043362	0.941581	0.170799	-0.979620	-0.105697	0.926975	0.196122	-0.319771
50029	5.448137	-3.757163	-7.581398	-0.385189	4.527968	-0.216400	0.291286	-0.049954	0.955331	0.167871	-0.980471	-0.102453	0.941792	0.190215	-0.277211
50030	6.053212	-3.604827	-7.182651	-0.275659	4.419527	-0.188996	0.249027	-0.056361	0.966855	0.165770	-0.981093	-0.099887	0.954204	0.185150	-0.234976
50031	6.624018	-3.505937	-7.228742	-0.072811	4.294219	-0.175430	0.207525	-0.062485	0.976232	0.165463	-0.981336	-0.097986	0.964134	0.181865	-0.193313
50032	7.456179	-2.928497	-6.891438	0.269137	4.141674	-0.162020	0.167129	-0.068394	0.983560	0.168367	-0.980958	-0.096822	0.971453	0.181781	-0.152432
50033	8.302730	-2.105387	-6.384178	0.546519	3.939200	-0.145502	0.128495	-0.074144	0.988935	0.173893	-0.980067	-0.096073	0.976345	0.184314	-0.113041
50034	8.950321	-0.852257	-5.059803	0.716243	3.641167	-0.131611	0.092622	-0.079611	0.992514	0.181033	-0.978838	-0.095408	0.979106	0.188514	-0.076250
50035	9.114561	0.012375	-3.591170	0.547157	3.240609	-0.126628	0.060617	-0.084490	0.994579	0.186477	-0.977910	-0.094439	0.980588	0.191190	-0.043522
50036	9.331951	0.013348	-2.850284	0.333490	2.771130	-0.110247	0.033192	-0.088689	0.995506	0.189788	-0.977372	-0.093402	0.981264	0.192035	-0.015608
50037	9.440828	-0.098932	-2.406792	0.107471	2.281451	-0.096020	0.010600	-0.092086	0.995695	0.190847	-0.977260	-0.092413	0.981563	0.191005	0.007215
50038	9.552234	-0.352451	-1.546703	-0.122511	1.748040	-0.081293	-0.006747	-0.094572	0.995495	0.189632	-0.977575	-0.091584	0.981832	0.188160	0.024530
50039	9.117079	-0.248597	-1.148989	-0.411306	1.200934	-0.017749	-0.018593	-0.096592	0.995150	0.185572	-0.978362	-0.091495	0.982455	0.182971	0.036115
50040	8.466821	-0.875160	-2.191629	-0.799155	0.648643	0.025607	-0.024954	-0.097968	0.994877	0.177707	-0.979771	-0.092024	0.983767	0.174500	0.041859
50041	8.025824	-1.393600	-3.901844	-0.853577	0.175926	0.034730	-0.026642	-0.098573	0.994773	0.169294	-0.981197	-0.092694	0.985206	0.165939	0.042829
50042	7.572927	-0.521214	-5.178629	-0.844552	-0.192846	0.048290	-0.024689	-0.098701	0.994811	0.160964	-0.982523	-0.093487	0.986651	0.157821	0.040145
50043	7.358996	0.656714	-6.139131	-1.146184	-0.440181	0.067768	-0.020253	-0.098661	0.994915	0.149641	-0.984209	-0.094553	0.988533	0.146965	0.034697
50044	6.975097	0.828815	-7.490262	-1.450488	-0.615321	0.077561	-0.014077	-0.098528	0.995035	0.135285	-0.986171	-0.095736	0.990707	0.133266	0.027212
50045	7.003577	1.353750	-8.223049	-1.725086	-0.728216	0.094438	-0.006749	-0.098513	0.995113	0.118166	-0.988242	-0.097031	0.992971	0.116933	0.018311
50046	9.606427	0.447162	-7.429725	-1.765665	-0.692068	0.073256	0.000191	-0.098449	0.995142	0.100604	-0.990091	-0.097969	0.994927	0.100134	0.009715
50047	11.360562	-1.227563	-5.527968	-1.577681	-0.376339	0.086272	0.004005	-0.098919	0.995087	0.084875	-0.991471	-0.098901	0.996384	0.084855	0.004425
50048	12.334376	-1.407103	-1.960440	-1.331881	0.027428	0.077002	0.003778	-0.099666	0.995014	0.071580	-0.992442	-0.099680	0.997428	0.071600	0.003385
50049	11.602103	-2.934931	1.146543	-1.580973	0.189836	0.008854	0.001876	-0.099838	0.995002	0.055785	-0.993444	-0.099787	0.998441	0.055693	0.003705
50050	10.579628	-6.570052	2.024896	-1.338897	0.154056	-0.109510	0.000272	-0.098786	0.995109	0.042398	-0.994213	-0.098709	0.999101	0.042217	0.003918
50051	9.658420	-6.602380	3.369630	-0.616494	0.035025	-0.147471	-0.000148	-0.097296	0.995255	0.036219	-0.994603	-0.097227	0.999344	0.036033	0.003671
50052	9.929463	-5.249125	4.350959	-0.371265	-0.129206	-0.097049	0.001097	-0.096251	0.995356	0.032490	-0.994828	-0.096236	0.999471	0.032445	0.002036
50053	10.899573	-4.453313	5.360569	-0.545900	-0.290503	-0.037007	0.003978	-0.095759	0.995397	0.027017	-0.995031	-0.095832	0.999627	0.027274	-0.001371
50054	11.410859	-3.620939	5.722983	-0.608110	-0.393318	0.003604	0.007895	-0.095665	0.995382	0.020917	-0.995180	-0.095812	0.999750	0.021576	-0.005856
50055	10.841235	-2.145611	5.159906	-0.672593	-0.509829	0.033373	0.012987	-0.095866	0.995309	0.014171	-0.995276	-0.096048	0.999815	0.015352	-0.011567
50056	9.591327	-1.371590	3.453970	-0.633301	-0.658965	0.000637	0.019556	-0.095758	0.995213	0.007819	-0.995358	-0.095926	0.999778	0.009657	-0.018717
50057	9.345125	-0.385842	1.691858	-0.414659	-0.762972	-0.079561	0.027169	-0.094868	0.995119	0.003675	-0.995470	-0.095002	0.999624	0.006238	-0.026697
50058	9.481925	0.286189	0.294659	-0.277339	-0.809668	-0.164955	0.035238	-0.093151	0.995028	0.000935	-0.995643	-0.093242	0.999379	0.004216	-0.034997
50059	10.120517	1.275822	-1.766435	0.024751	-0.870705	-0.273832	0.043924	-0.090346	0.994941	0.001274	-0.995897	-0.090489	0.999034	0.005242	-0.043629
50060	11.002277	4.106876	-1.878714	-0.004132	-1.028572	-0.369797	0.054173	-0.086571	0.994772	0.001397	-0.996227	-0.086774	0.998531	0.006090	-0.053848
50061	9.891630	1.061402	-2.606413	-0.863944	-1.109549	-0.365357	0.065249	-0.082868	0.994422	-0.007025	-0.996559	-0.082585	0.997844	-0.001597	-0.065606
50062	9.817162	-2.581668	-3.543780	-0.752432	-1.044454	-0.354461	0.075686	-0.079351	0.993969	-0.014295	-0.996812	-0.078490	0.997029	-0.008268	-0.076579
50063	10.058800	-2.691903	-3.668539	-0.514969	-1.014914	-0.331532	0.085847	-0.076114	0.993397	-0.019174	-0.997019	-0.074735	0.996124	-0.012632	-0.087050
50064	10.360882	-2.379394	-4.572207	-0.244287	-1.011727	-0.321567	0.095969	-0.073010	0.992703	-0.021329	-0.997228	-0.071281	0.995156	-0.014333	-0.097260
50065	10.407095	-1.133040	-4.510991	-0.163778	-0.968639	-0.280371	0.105656	-0.070320	0.991913	-0.022690	-0.997407	-0.068292	0.994144	-0.015291	-0.106977
50066	10.110413	-0.703123	-4.768980	-0.241424	-0.893202	-0.229376	0.114571	-0.068143	0.991075	-0.024853	-0.997529	-0.065713	0.993104	-0.017102	-0.115982
50067	10.048547	0.175786	-4.717937	-0.285417	-0.802082	-0.169641	0.122568	-0.066559	0.990226	-0.027498	-0.997593	-0.063651	0.992079	-0.019428	-0.124103
50068	9.888405	-0.196390	-5.094166	-0.337488	-0.708370	-0.144775	0.129623	-0.065229	0.989416	-0.030679	-0.997620	-0.061751	0.991089	-0.022350	-0.131315
50069	10.218416	0.132880	-4.735952	-0.037201	-0.601123	-0.152443	0.135616	-0.063805	0.988705	-0.030858	-0.997712	-0.060153	0.990281	-0.022352	-0.137274
50070	10.160684	0.777744	-3.969558	0.042439	-0.506837	-0.157087	0.140672	-0.062315	0.988093	-0.030237	-0.997822	-0.058623	0.989594	-0.021630	-0.142250
50071	9.577231	-0.083743	-3.568741	0.016884	-0.444267	-0.170548	0.145109	-0.060670	0.987554	-0.029839	-0.997933	-0.056923	0.988966	-0.021208	-0.146619
50072	9.460634	-0.850993	-2.869778	0.272581	-0.403266	-0.186632	0.149141	-0.058853	0.987063	-0.026885	-0.998100	-0.055448	0.988450	-0.018268	-0.150440
50073	9.320739	-0.738966	-1.747604	0.541833	-0.388938	-0.184763	0.153020	-0.057031	0.986576	-0.021264	-0.998292	-0.054410	0.987994	-0.012653	-0.153971
50074	9.358637	-0.356077	-0.769228	0.658987	-0.382565	-0.164388	0.156820	-0.055391	0.986073	-0.014516	-0.998447	-0.053777	0.987520	-0.005880	-0.157381
50075	9.499955	0.235675	0.008866	0.613418	-0.404337	-0.129630	0.160817	-0.054070	0.985502	-0.008266	-0.998537	-0.053436	0.986950	0.000447	-0.161029
50076	9.520731	0.562263	0.558848	0.436363	-0.447766	-0.088509	0.165231	-0.053139	0.984822	-0.003831	-0.998574	-0.053238	0.986247	0.005023	-0.165199
50077	9.406906	0.178448	0.784120	0.216323	-0.510315	-0.059826	0.170254	-0.052472	0.984002	-0.001610	-0.998595	-0.052972	0.985399	0.007434	-0.170099
50078	9.452722	-0.142835	0.540500	0.158893	-0.571132	-0.042264	0.175869	-0.051967	0.983041	0.000015	-0.998605	-0.052793	0.984414	0.009299	-0.175623
50079	9.630839	-0.221086	-0.031627	0.161775	-0.616568	-0.040218	0.181924	-0.051465	0.981965	0.001667	-0.998612	-0.052647	0.983311	0.011215	-0.181586
50080	9.677322	-0.361330	-0.639884	0.160484	-0.648636	-0.052416	0.188286	-0.050827	0.980798	0.003329	-0.998621	-0.052390	0.982109	0.013129	-0.187857
50081	9.761168	-0.825344	-1.419536	0.213000	-0.676090	-0.067289	0.194908	-0.050021	0.979545	0.005538	-0.998627	-0.052097	0.980806	0.015579	-0.194363
50082	9.552596	-0.903509	-2.189304	0.349687	-0.685766	-0.072603	0.201612	-0.049141	0.978232	0.009097	-0.998604	-0.052039	0.979423	0.019391	-0.200883
50083	9.132153	-0.636365	-2.411995	0.461873	-0.703030	-0.064813	0.208474	-0.048303	0.976834	0.013741	-0.998536	-0.052308	0.977931	0.024327	-0.207505
50084	9.299132	-0.550491	-2.367298	0.498202	-0.709681	-0.044272	0.215389	-0.047634	0.975366	0.018691	-0.998426	-0.052888	0.976349	0.029622	-0.214160
50085	9.323669	-0.389433	-2.251065	0.526445	-0.716772	-0.009945	0.222368	-0.047265	0.973816	0.023839	-0.998262	-0.053895	0.974671	0.035200	-0.220855
50086	9.282596	0.132579	-1.923084	0.547771	-0.720321	0.024598	0.229377	-0.047202	0.972193	0.029107	-0.998044	-0.055324	0.972902	0.040988	-0.227554
50087	9.514090	0.748265	-1.339560	0.435821	-0.721842	0.054978	0.236399	-0.047400	0.970499	0.033206	-0.997832	-0.056824	0.971088	0.045660	-0.234312
50088	9.160555	0.319937	-1.290636	0.143386	-0.739902	0.079455	0.243591	-0.047813	0.968699	0.034397	-0.997730	-0.057896	0.969268	0.047424	-0.241394
50089	9.189838	-0.288899	-1.393282	0.165320	-0.757769	0.095104	0.250951	-0.048358	0.966791	0.035755	-0.997607	-0.059181	0.967339	0.049419	-0.248621
50090	9.130052	-0.251474	-1.087563	0.189575	-0.799082	0.100095	0.258695	-0.048917	0.964720	0.037323	-0.997465	-0.060586	0.965238	0.051680	-0.256213
50091	9.258996	-0.623686	-1.270199	0.273332	-0.846287	0.114571	0.266887	-0.049572	0.962452	0.039650	-0.997266	-0.062360	0.962912	0.054804	-0.264191
50092	9.460039	0.133698	-0.866892	0.375647	-0.886271	0.142959	0.275454	-0.050457	0.959989	0.042868	-0.996983	-0.064702	0.960358	0.058975	-0.272460
50093	9.684604	0.241527	-0.753788	0.321883	-0.949642	0.182731	0.284630	-0.051665	0.957244	0.045436	-0.996697	-0.067304	0.957560	0.062650	-0.281342
50094	9.500146	0.237790	-1.056723	0.431471	-0.987491	0.207797	0.294153	-0.053056	0.954285	0.048954	-0.996311	-0.070483	0.954504	0.067449	-0.290470
50095	9.450021	0.965067	-0.654473	0.485395	-1.040386	0.230920	0.304172	-0.054590	0.951052	0.052882	-0.995850	-0.074075	0.951148	0.072825	-0.300022
50096	9.768414	1.169343	-0.224438	0.564027	-1.103838	0.293094	0.314795	-0.056632	0.947469	0.057326	-0.995262	-0.078536	0.947427	0.079037	-0.310056
50097	9.506049	0.969069	0.512879	0.526818	-1.203255	0.306324	0.326339	-0.058657	0.943431	0.061320	-0.994657	-0.083053	0.943262	0.084954	-0.320999
50098	9.406733	1.384908	1.824042	0.691401	-1.338762	0.345152	0.339136	-0.060861	0.938766	0.066676	-0.993840	-0.088519	0.938371	0.092613	-0.332990
50099	9.891345	1.535771	2.789577	0.392917	-1.501671	0.395969	0.353443	-0.063332	0.933310	0.068977	-0.993225	-0.093519	0.932909	0.097431	-0.346680
50100	10.120643	0.276221	2.519829	0.323212	-1.669100	0.424795	0.369236	-0.065847	0.927000	0.070451	-0.992633	-0.098571	0.926661	0.101704	-0.361877
50101	11.339493	0.680996	1.939208	0.505033	-1.804678	0.442420	0.386201	-0.068309	0.919882	0.073439	-0.991811	-0.104484	0.919486	0.107907	-0.378022
50102	12.856332	2.126496	1.347355	0.517498	-1.931463	0.474990	0.404214	-0.070830	0.911918	0.076308	-0.990910	-0.110789	0.911476	0.114369	-0.395135
50103	14.735296	1.350297	0.438541	0.067031	-2.051653	0.482911	0.423180	-0.073210	0.903083	0.074917	-0.990490	-0.115401	0.902943	0.116492	-0.413671
50104	16.642275	-2.300618	-0.371714	0.076502	-2.140300	0.454574	0.442715	-0.075148	0.893508	0.073649	-0.990067	-0.119760	0.893632	0.118826	-0.432783
50105	16.406290	-4.030075	0.292952	0.585190	-2.212164	0.467151	0.462708	-0.077023	0.883158	0.076734	-0.989000	-0.126457	0.883183	0.126281	-0.451708
50106	15.564230	-3.230105	1.852029	0.511932	-2.310207	0.544604	0.483372	-0.079366	0.871810	0.078666	-0.987915	-0.133552	0.871873	0.133137	-0.471287
50107	14.474931	-3.313310	2.459267	0.439849	-2.436064	0.677936	0.504985	-0.082704	0.859157	0.079127	-0.986771	-0.141497	0.859493	0.139436	-0.491761
50108	14.154041	-0.997144	2.767349	0.269794	-2.532097	0.851684	0.527210	-0.087469	0.845221	0.077051	-0.985669	-0.150065	0.846235	0.144241	-0.512915
50109	13.870016	0.134871	2.164672	-0.300329	-2.601863	1.004812	0.549773	-0.093591	0.830055	0.069124	-0.985198	-0.156867	0.832449	0.143618	-0.535165
50110	13.367083	0.041336	0.192725	-0.771086	-2.661692	1.081671	0.572363	-0.100543	0.813813	0.056547	-0.985252	-0.161494	0.818048	0.138451	-0.558237
50111	13.166024	-0.830763	-2.719211	-1.173909	-2.656820	1.023424	0.594390	-0.107033	0.797022	0.041067	-0.985770	-0.163006	0.803128	0.129620	-0.581536
50112	12.679736	-0.455449	-4.543269	-1.135403	-2.595291	0.891553	0.615281	-0.112613	0.780223	0.026520	-0.986227	-0.163260	0.787862	0.121143	-0.603820
50113	12.004745	-0.151373	-5.709569	-1.434690	-2.509367	0.745343	0.634989	-0.117033	0.763605	0.010676	-0.987034	-0.160155	0.772447	0.109849	-0.625506
50114	10.871979	-1.639192	-7.851478	-1.522290	-2.440795	0.588403	0.653605	-0.120400	0.747197	-0.004937	-0.987922	-0.154870	0.756819	0.097535	-0.646306
50115	9.800725	-1.556367	-8.593979	-1.050800	-2.334506	0.389970	0.671046	-0.122029	0.731305	-0.015380	-0.988441	-0.150823	0.741257	0.089962	-0.665166
50116	9.258898	-2.398406	-9.105464	-1.136399	-2.096021	0.204602	0.686340	-0.122283	0.716927	-0.025189	-0.989169	-0.144604	0.726845	0.081189	-0.681986
50117	8.214647	-5.447983	-10.587791	-0.640968	-1.729871	0.083611	0.698779	-0.121707	0.704908	-0.030375	-0.989580	-0.140746	0.714693	0.076938	-0.695194
50118	9.199580	-5.695622	-7.248850	0.272559	-1.150696	-0.018560	0.706916	-0.120627	0.696935	-0.028362	-0.989392	-0.142478	0.706728	0.080954	-0.702838
50119	8.312471	-2.955760	-5.722798	0.786937	-0.493924	-0.086751	0.710415	-0.119312	0.693596	-0.022184	-0.988832	-0.147376	0.703434	0.089311	-0.705127
50120	6.582908	-0.414159	-5.759117	0.462287	0.038433	-0.282019	0.710160	-0.116530	0.694330	-0.016920	-0.988747	-0.148636	0.703837	0.093807	-0.704140
50121	5.557366	-2.418999	-7.514137	0.136523	0.468091	-0.542809	0.706930	-0.111566	0.698429	-0.012097	-0.989244	-0.145776	0.707181	0.094605	-0.700675
50122	4.987873	-3.973754	-8.406250	0.748067	0.930272	-0.732220	0.700326	-0.105233	0.706024	-0.001665	-0.989312	-0.145806	0.713822	0.100936	-0.693016
50123	4.653682	-2.789446	-7.806901	1.387132	1.408009	-0.796843	0.690150	-0.098824	0.716887	0.013858	-0.988645	-0.149627	0.723534	0.113199	-0.680944
50124	4.317500	-1.367686	-7.040128	1.557800	1.844329	-0.830334	0.676456	-0.092868	0.730605	0.030810	-0.987581	-0.154060	0.735838	0.126725	-0.665194
50125	4.013549	-0.708454	-6.559451	1.428978	2.221601	-0.889907	0.659591	-0.086998	0.746573	0.047385	-0.986490	-0.156820	0.750129	0.138813	-0.646558
50126	3.926839	-0.958769	-6.661762	1.259440	2.546334	-0.954660	0.639713	-0.081255	0.764307	0.063088	-0.985490	-0.157573	0.766021	0.149020	-0.625304
50127	3.883670	-1.733259	-6.977679	1.114316	2.831161	-1.008921	0.617060	-0.075624	0.783274	0.078070	-0.984578	-0.156562	0.783034	0.157758	-0.601639
50128	3.824218	-2.819859	-7.251779	1.050443	3.082633	-1.041802	0.591713	-0.070323	0.803076	0.092699	-0.983644	-0.154437	0.800801	0.165827	-0.575516
50129	3.774480	-4.049568	-7.911636	1.079693	3.301610	-1.076542	0.563882	-0.065317	0.823268	0.107671	-0.982544	-0.151702	0.818806	0.174184	-0.547007
50130	3.871349	-4.522891	-7.834700	1.410653	3.482332	-1.115974	0.533709	-0.060653	0.843490	0.125374	-0.980727	-0.149851	0.836323	0.185729	-0.515819
50131	4.186761	-3.375823	-7.160283	1.726556	3.641970	-1.144168	0.501379	-0.056445	0.863385	0.145885	-0.978068	-0.148660	0.852840	0.200490	-0.482149
50132	4.334942	-1.853623	-6.407488	1.622434	3.748300	-1.165460	0.467255	-0.052800	0.882544	0.165508	-0.975345	-0.145979	0.868493	0.214278	-0.446996
50133	4.673938	-0.969843	-6.303466	1.267033	3.825999	-1.160855	0.431703	-0.049852	0.900637	0.181829	-0.973165	-0.141023	0.883499	0.224642	-0.411053
50134	5.246851	-1.155945	-6.764256	0.735564	3.888873	-1.108628	0.394931	-0.047874	0.917463	0.192973	-0.972040	-0.133789	0.898215	0.229883	-0.374651
50135	5.628414	-3.152759	-7.265134	0.395163	3.921927	-1.019356	0.357403	-0.046988	0.932768	0.200383	-0.971617	-0.125724	0.912201	0.231845	-0.337843
50136	6.061929	-4.138745	-7.112711	0.683284	3.952588	-0.921200	0.319172	-0.047268	0.946517	0.209777	-0.970456	-0.119202	0.924187	0.236604	-0.299827
50137	6.657798	-2.199382	-6.030606	0.947450	3.957664	-0.805731	0.280643	-0.048930	0.958564	0.220993	-0.968573	-0.114142	0.934025	0.243869	-0.261010
50138	7.358236	-0.697573	-5.262508	0.513797	3.915162	-0.660433	0.242368	-0.052112	0.968784	0.227540	-0.967652	-0.108977	0.943124	0.246850	-0.222670
50139	7.902293	-1.133481	-5.051389	0.058232	3.822600	-0.503443	0.204982	-0.056614	0.977127	0.229209	-0.967789	-0.104157	0.951549	0.245317	-0.185403
50140	8.462290	-1.670372	-5.050231	-0.095358	3.741176	-0.344795	0.168414	-0.062365	0.983742	0.228935	-0.968232	-0.100574	0.958762	0.242151	-0.148786
50141	8.847973	-1.828484	-5.279283	-0.193826	3.662719	-0.194658	0.132721	-0.069237	0.988732	0.227352	-0.968832	-0.098361	0.964726	0.237845	-0.112844
50142	9.490107	-2.324307	-5.937569	-0.340715	3.548541	-0.069237	0.098204	-0.076870	0.992193	0.224127	-0.969690	-0.097310	0.969600	0.231933	-0.077998
50143	9.714304	-3.401376	-4.706952	-0.125829	3.316803	0.039736	0.066061	-0.084850	0.994201	0.222857	-0.969954	-0.097589	0.972610	0.228012	-0.045167
50144	9.606569	-2.820052	-3.386984	0.406116	3.018580	0.157896	0.037011	-0.093252	0.994954	0.226713	-0.968892	-0.099243	0.973258	0.229242	-0.014718
50145	8.830488	-0.064876	-1.653694	0.544896	2.595037	0.184097	0.012164	-0.100986	0.994814	0.231953	-0.967465	-0.101046	0.972651	0.231979	0.011655
50146	8.318511	0.907488	-0.761990	-0.241493	2.030587	0.178223	-0.007215	-0.107345	0.994196	0.229582	-0.967842	-0.102834	0.973263	0.227507	0.031627
50147	7.911462	-1.678692	-1.166488	-0.871544	1.412735	0.155607	-0.020645	-0.111962	0.993498	0.221095	-0.969618	-0.104676	0.975034	0.217496	0.044772
50148	7.456721	-3.518562	-1.601638	-0.621166	0.854981	0.116782	-0.028763	-0.114893	0.992961	0.215046	-0.970823	-0.106103	0.976180	0.210481	0.052632
50149	7.283657	-2.571746	-1.865224	-0.220973	0.351678	0.100493	-0.032000	-0.116571	0.992667	0.212900	-0.971177	-0.107184	0.976550	0.207909	0.055896
50150	7.308072	-0.339740	-2.247786	-0.098406	-0.102175	0.134053	-0.030747	-0.117631	0.992581	0.211962	-0.971232	-0.108535	0.976794	0.207052	0.054796
50151	7.533107	0.893531	-2.878255	-0.529030	-0.484114	0.183003	-0.025650	-0.118383	0.992637	0.206824	-0.972108	-0.110590	0.978042	0.202464	0.049419
50152	7.574440	0.357865	-4.369320	-0.944827	-0.771005	0.229331	-0.017665	-0.119054	0.992731	0.197604	-0.973717	-0.113258	0.980123	0.194167	0.040726
50153	7.896705	0.254726	-5.870621	-1.160426	-0.944357	0.252777	-0.007930	-0.119698	0.992779	0.186230	-0.975617	-0.116141	0.982474	0.183965	0.030028
50154	7.949235	0.231346	-7.276821	-1.384793	-1.016187	0.255743	0.002503	-0.120355	0.992728	0.172597	-0.977780	-0.118978	0.984989	0.171639	0.018325
50155	10.677002	-1.389623	-6.963876	-1.547017	-0.869644	0.233316	0.011448	-0.121173	0.992565	0.157305	-0.980052	-0.121460	0.987484	0.157526	0.007841
50156	11.915171	-2.653083	-5.433416	-1.162944	-0.427946	0.211842	0.015983	-0.122565	0.992332	0.145765	-0.981570	-0.123583	0.989190	0.146622	0.002177
50157	12.534476	-1.567086	-2.303466	-0.965622	0.050252	0.153194	0.015686	-0.124105	0.992145	0.136165	-0.982758	-0.125084	0.990562	0.137057	0.001483
50158	11.544399	-0.473162	-0.134183	-1.184613	0.242903	0.066033	0.013351	-0.125038	0.992062	0.124393	-0.984236	-0.125725	0.992143	0.125084	0.002413
50159	10.451223	-2.220654	0.061825	-1.602309	0.186116	-0.033665	0.011449	-0.124888	0.992105	0.108467	-0.986160	-0.125391	0.994034	0.109046	0.002256
50160	9.893282	-3.693133	0.024205	-1.358980	0.122071	-0.086346	0.010136	-0.124125	0.992215	0.094939	-0.987664	-0.124525	0.995432	0.095462	0.001774
50161	9.533974	-3.832116	0.712800	-1.154053	0.032223	-0.098986	0.009713	-0.123139	0.992342	0.083437	-0.988828	-0.123520	0.996466	0.083998	0.000670
50162	9.952684	-5.179147	1.224756	-0.828597	-0.078976	-0.109962	0.010402	-0.121954	0.992481	0.075168	-0.989631	-0.122392	0.997117	0.075876	-0.001127
50163	10.354703	-4.961669	2.508684	-0.433956	-0.189327	-0.123109	0.012187	-0.120559	0.992631	0.070837	-0.990107	-0.121122	0.997413	0.071791	-0.003526
50164	9.969766	-4.313794	3.440190	-0.374649	-0.284409	-0.125467	0.014925	-0.119086	0.992772	0.067093	-0.990525	-0.119825	0.997635	0.068397	-0.006794
50165	9.613863	-4.239096	3.818840	-0.402518	-0.333230	-0.100912	0.018172	-0.117828	0.992868	0.063077	-0.990919	-0.118751	0.997843	0.064785	-0.010574
50166	8.952915	-4.261572	3.597405	-0.177030	-0.377943	-0.101863	0.021865	-0.116547	0.992944	0.061306	-0.991157	-0.117687	0.997879	0.063447	-0.014527
50167	9.191908	-2.563971	3.227125	0.188918	-0.432331	-0.134003	0.026083	-0.114903	0.993034	0.063206	-0.991195	-0.116350	0.997660	0.065800	-0.018590
50168	9.479071	0.360943	3.205862	0.248049	-0.491570	-0.157172	0.030867	-0.112988	0.993117	0.065700	-0.991212	-0.114813	0.997362	0.068792	-0.023173
50169	9.421696	1.294929	2.897004	-0.207958	-0.540148	-0.160049	0.036138	-0.110997	0.993163	0.063663	-0.991538	-0.113132	0.997317	0.067316	-0.028766
50170	9.421794	0.058069	2.082526	-0.521480	-0.598498	-0.178392	0.041978	-0.108811	0.993176	0.058509	-0.992078	-0.111163	0.997404	0.062776	-0.035279
50171	10.125793	-0.614526	-0.102491	-0.266510	-0.701602	-0.243784	0.048823	-0.105921	0.993175	0.055945	-0.992510	-0.108600	0.997239	0.060865	-0.042532
50172	11.512370	2.943212	-0.795723	0.019820	-0.909841	-0.355264	0.057675	-0.101807	0.993131	0.056311	-0.992871	-0.105051	0.996746	0.061983	-0.051531
50173	11.109292	2.050911	-1.606517	-0.659646	-1.127073	-0.371318	0.068697	-0.097414	0.992870	0.049956	-0.993637	-0.100946	0.996386	0.056534	-0.063394
50174	10.579667	-0.951706	-2.793770	-0.618665	-1.144877	-0.333359	0.079925	-0.093451	0.992411	0.044023	-0.994293	-0.097174	0.995828	0.051455	-0.075355
50175	10.306807	-1.735612	-3.675997	-0.524625	-1.113437	-0.302642	0.090871	-0.089855	0.991801	0.039044	-0.994834	-0.093707	0.995097	0.047239	-0.086894
50176	10.062204	-2.404325	-5.207694	-0.204243	-1.072707	-0.304407	0.101407	-0.086293	0.991095	0.037288	-0.995201	-0.090466	0.994146	0.046129	-0.097703
50177	10.235145	-1.293499	-5.387088	0.100905	-0.987596	-0.312883	0.111090	-0.082678	0.990365	0.038609	-0.995422	-0.087431	0.993060	0.047949	-0.107389
50178	9.947505	-0.070449	-5.114538	0.291920	-0.869286	-0.283306	0.119589	-0.079394	0.989644	0.041814	-0.995510	-0.084918	0.991943	0.051537	-0.115733
50179	9.596380	0.899952	-4.799456	0.051240	-0.756142	-0.206959	0.126987	-0.076903	0.988919	0.042564	-0.995649	-0.082892	0.990991	0.052619	-0.123161
50180	9.775457	0.297998	-4.949943	-0.014066	-0.660866	-0.149945	0.133459	-0.075030	0.988210	0.042602	-0.995774	-0.081357	0.990138	0.052958	-0.129698
50181	9.923929	0.259982	-4.207075	0.007632	-0.576380	-0.116447	0.139102	-0.073527	0.987545	0.042824	-0.995860	-0.080178	0.989352	0.053443	-0.135377
50182	9.796584	-0.329437	-3.525973	-0.000519	-0.504409	-0.112834	0.144033	-0.072100	0.986943	0.042962	-0.995946	-0.079027	0.988640	0.053783	-0.140352
50183	9.608548	-0.947289	-2.787213	0.100307	-0.453621	-0.120227	0.148452	-0.070618	0.986395	0.044116	-0.995981	-0.077944	0.987935	0.055087	-0.144740
50184	9.492611	-1.082421	-2.164687	0.273452	-0.418952	-0.132238	0.152522	-0.069031	0.985886	0.046999	-0.995922	-0.077005	0.987182	0.058081	-0.148656
50185	9.243202	-0.820533	-1.720189	0.428718	-0.400754	-0.129087	0.156401	-0.067467	0.985387	0.051417	-0.995755	-0.076338	0.986354	0.062605	-0.152268
50186	9.525497	-0.061859	-0.946677	0.466828	-0.398207	-0.107828	0.160262	-0.066102	0.984859	0.056174	-0.995527	-0.075959	0.985475	0.067496	-0.155832
50187	9.454458	-0.598696	-0.861343	0.330556	-0.429093	-0.076643	0.164432	-0.065005	0.984244	0.059542	-0.995352	-0.075686	0.984590	0.071049	-0.159797
50188	9.593353	-1.109144	-0.913652	0.411536	-0.450578	-0.061205	0.168821	-0.064033	0.983565	0.063678	-0.995094	-0.075714	0.983588	0.075414	-0.163915
50189	9.837955	-0.734644	-0.683989	0.481432	-0.473253	-0.060712	0.173420	-0.063024	0.982829	0.068504	-0.994761	-0.075876	0.982463	0.080486	-0.168194
50190	9.854254	-0.275775	-0.769462	0.366615	-0.484845	-0.049942	0.178137	-0.062095	0.982045	0.072176	-0.994494	-0.075974	0.981355	0.084414	-0.172675
50191	9.319880	-1.664910	-1.453327	0.244345	-0.531889	-0.067273	0.183291	-0.060933	0.981168	0.074683	-0.994330	-0.075702	0.980218	0.087152	-0.177702
50192	9.324334	-2.041350	-1.696995	0.572609	-0.541333	-0.072913	0.188528	-0.059688	0.980252	0.080412	-0.993861	-0.075982	0.978770	0.093149	-0.182571
50193	9.468003	-0.583096	-1.379289	0.753461	-0.553753	-0.061630	0.193878	-0.058502	0.979280	0.087888	-0.993171	-0.076732	0.977081	0.100943	-0.187412
50194	9.351701	0.326017	-1.197817	0.669973	-0.576800	-0.030481	0.199471	-0.057566	0.978211	0.094473	-0.992493	-0.077670	0.975339	0.107908	-0.192535
50195	9.334850	0.276082	-1.050068	0.546990	-0.612198	0.013484	0.205436	-0.056985	0.977010	0.099766	-0.991883	-0.078830	0.973572	0.113667	-0.198083
50196	9.181550	0.072799	-0.756152	0.523002	-0.653291	0.059158	0.211840	-0.056779	0.975654	0.104716	-0.991245	-0.080423	0.971678	0.119203	-0.204039
50197	9.044520	0.210022	-0.101771	0.553989	-0.707745	0.089527	0.218791	-0.056766	0.974119	0.109891	-0.990522	-0.082403	0.969564	0.125076	-0.210479
50198	9.139766	0.448146	0.441350	0.563461	-0.779192	0.111400	0.226450	-0.056838	0.972363	0.115087	-0.989742	-0.084656	0.967200	0.131077	-0.217585
50199	9.625521	0.752881	0.635244	0.496231	-0.833530	0.129925	0.234639	-0.056973	0.970412	0.119572	-0.989008	-0.086976	0.964700	0.136442	-0.225248
50200	10.087826	1.151594	0.241887	0.349856	-0.842609	0.173594	0.242953	-0.057489	0.968333	0.122518	-0.988430	-0.089422	0.962270	0.140364	-0.233098
50201	9.833498	1.809615	-0.012187	-0.005544	-0.869638	0.227616	0.251575	-0.058481	0.966069	0.121894	-0.988310	-0.091570	0.960131	0.140795	-0.241506
50202	9.251325	-0.031139	-2.120556	-0.402371	-0.918632	0.285176	0.260711	-0.059986	0.963551	0.117297	-0.988705	-0.093290	0.958265	0.137343	-0.250730
50203	9.190237	-1.277480	-3.859994	0.025446	-0.948946	0.295897	0.270124	-0.061569	0.960855	0.116748	-0.988495	-0.096161	0.955721	0.138153	-0.259829
50204	9.426076	0.010990	-3.468193	0.311775	-0.952425	0.324891	0.279579	-0.063410	0.958027	0.118824	-0.987861	-0.100061	0.952742	0.141811	-0.268650
50205	9.541771	0.370299	-2.544650	0.187146	-0.980847	0.359404	0.289323	-0.065521	0.954986	0.119575	-0.987366	-0.103969	0.949734	0.144273	-0.277833
50206	9.477835	-0.327011	-1.674367	0.404310	-1.020304	0.377678	0.299436	-0.067715	0.951710	0.122291	-0.986527	-0.108669	0.946247	0.148925	-0.287121
50207	9.703839	0.107588	0.079202	0.562704	-1.067246	0.407250	0.310006	-0.070073	0.948149	0.126358	-0.985396	-0.114139	0.942300	0.155190	-0.296624
50208	9.686890	0.319817	1.099707	0.686518	-1.136095	0.450398	0.321248	-0.072664	0.944203	0.131388	-0.983989	-0.120428	0.937836	0.162744	-0.306558
50209	9.989102	1.499705	2.733589	0.519727	-1.242633	0.500157	0.333523	-0.075487	0.939715	0.134608	-0.982763	-0.126720	0.933082	0.168757	-0.317613
50210	10.397377	1.697304	3.304003	0.271724	-1.381621	0.564650	0.347120	-0.078637	0.934518	0.135216	-0.981870	-0.132847	0.928022	0.172475	-0.330194
50211	10.170233	1.209574	3.524776	-0.050261	-1.557393	0.595886	0.362314	-0.081760	0.928463	0.132633	-0.981485	-0.138187	0.922571	0.173212	-0.344762
50212	11.371014	-0.328083	2.662539	-0.114576	-1.742136	0.589054	0.379077	-0.084479	0.921501	0.129402	-0.981200	-0.143184	0.916273	0.173521	-0.361018
50213	12.288070	-1.325004	1.263960	0.004629	-1.881476	0.557670	0.396949	-0.086634	0.913743	0.127278	-0.980721	-0.148277	0.908973	0.175158	-0.378270
50214	14.001751	-2.061152	0.415761	0.189903	-1.990980	0.501758	0.415571	-0.087988	0.905295	0.126966	-0.979953	-0.153528	0.900656	0.178744	-0.396068
50215	15.494736	-3.023719	0.902191	0.287968	-2.095009	0.481674	0.434942	-0.088878	0.896061	0.127498	-0.979013	-0.158992	0.891386	0.183399	-0.414482
50216	14.716076	-3.391499	1.232863	0.490413	-2.198346	0.534016	0.455074	-0.089956	0.885898	0.129479	-0.977625	-0.165782	0.880990	0.190149	-0.433245
50217	14.299839	-2.363080	1.846839	0.321728	-2.301165	0.645130	0.476041	-0.091789	0.874620	0.129294	-0.976426	-0.172845	0.869867	0.195365	-0.452951
50218	14.218543	-1.344228	2.344091	0.100601	-2.402152	0.782480	0.497755	-0.094655	0.862137	0.126368	-0.975505	-0.180060	0.858062	0.198572	-0.473601
50219	14.124051	-0.475873	1.763136	-0.269041	-2.475229	0.936620	0.519981	-0.098843	0.848440	0.119313	-0.975140	-0.186727	0.845804	0.198324	-0.495260
50220	13.832897	-0.116372	0.756523	-0.609810	-2.539601	1.019226	0.542416	-0.103749	0.833679	0.108800	-0.975313	-0.192164	0.833035	0.194937	-0.517738
50221	13.634817	0.027890	-1.085827	-0.807634	-2.565907	1.033389	0.564669	-0.108861	0.818106	0.096410	-0.975776	-0.196385	0.819667	0.189767	-0.540495
50222	13.234833	0.058897	-3.493435	-1.149726	-2.544487	0.956606	0.586157	-0.113436	0.802217	0.081585	-0.976853	-0.197742	0.806079	0.181357	-0.563334
50223	12.135896	-0.004174	-6.125135	-1.282768	-2.512785	0.803898	0.606821	-0.116824	0.786206	0.066547	-0.978200	-0.196716	0.792048	0.171691	-0.585818
50224	11.405312	0.090324	-7.922621	-1.316866	-2.486830	0.595914	0.626646	-0.118465	0.770247	0.052567	-0.979702	-0.193447	0.777529	0.161712	-0.607699
50225	10.717351	-0.709969	-8.566660	-1.284121	-2.394054	0.403470	0.645264	-0.118632	0.754693	0.040120	-0.981244	-0.188546	0.762906	0.151940	-0.628402
50226	9.462872	-2.798240	-9.143135	-1.140985	-2.141997	0.292401	0.661518	-0.118291	0.740542	0.029615	-0.982590	-0.183410	0.749345	0.143261	-0.646497
50227	8.312486	-4.774610	-9.687263	-0.682303	-1.786826	0.232657	0.674855	-0.118024	0.728451	0.023000	-0.983284	-0.180620	0.737592	0.138646	-0.660860
50228	8.593095	-5.245882	-7.340796	-0.167851	-1.344513	0.092929	0.684691	-0.117016	0.719379	0.021185	-0.983415	-0.180129	0.728526	0.138572	-0.670856
50229	7.665581	-4.137853	-5.963942	0.260295	-0.831031	-0.071193	0.690696	-0.115115	0.713924	0.023576	-0.983139	-0.181333	0.722760	0.142077	-0.676337
50230	6.410611	-2.417629	-4.921985	0.147570	-0.366025	-0.290517	0.693224	-0.111672	0.712018	0.026709	-0.983264	-0.180218	0.720227	0.143949	-0.678640
50231	5.527422	-3.572854	-6.395190	-0.033131	0.055564	-0.528976	0.692665	-0.106514	0.713351	0.030148	-0.983895	-0.176184	0.720629	0.143543	-0.678299
50232	4.904959	-5.220312	-7.666859	0.345353	0.495901	-0.723096	0.688791	-0.100099	0.718016	0.037632	-0.984150	-0.173300	0.723983	0.146388	-0.674106
50233	4.622095	-5.141852	-7.849124	0.991825	0.956964	-0.859335	0.681444	-0.093052	0.725931	0.050743	-0.983490	-0.173700	0.730109	0.155203	-0.665472
50234	4.484805	-4.041670	-7.518264	1.424823	1.417612	-0.973062	0.670417	-0.085690	0.737020	0.067888	-0.982058	-0.175933	0.738873	0.167983	-0.652571
50235	4.316681	-2.851340	-7.119712	1.630815	1.839664	-1.061317	0.655889	-0.078466	0.750768	0.087078	-0.980078	-0.178506	0.749818	0.182455	-0.635990
50236	4.217607	-2.130857	-6.760696	1.649437	2.208221	-1.134228	0.638041	-0.071544	0.766671	0.106868	-0.977810	-0.180185	0.762550	0.196898	-0.616237
50237	4.272359	-1.800514	-6.460806	1.641818	2.545332	-1.184282	0.617054	-0.065137	0.784220	0.126946	-0.975276	-0.180892	0.776614	0.211174	-0.593529
50238	4.440392	-1.323150	-6.302501	1.596480	2.841703	-1.210389	0.593065	-0.059504	0.802952	0.146821	-0.972552	-0.180516	0.791654	0.224948	-0.568051
50239	4.726133	-1.442247	-6.394127	1.334222	3.084926	-1.211592	0.566496	-0.054813	0.822239	0.164523	-0.970175	-0.178025	0.807474	0.236128	-0.540582
50240	4.700592	-3.012979	-6.574512	1.134816	3.267920	-1.219121	0.537690	-0.050831	0.841609	0.180527	-0.968092	-0.173806	0.823589	0.245387	-0.511357
50241	4.905418	-3.913676	-6.570862	1.335111	3.428840	-1.220485	0.506857	-0.047605	0.860714	0.198007	-0.965347	-0.169994	0.838981	0.256590	-0.479867
50242	5.220659	-3.186030	-6.325018	1.529936	3.568414	-1.214437	0.474090	-0.045260	0.879312	0.216923	-0.961890	-0.166467	0.853336	0.269663	-0.446205
50243	5.528176	-2.303856	-5.750768	1.504605	3.656744	-1.213258	0.439876	-0.043673	0.896996	0.235411	-0.958282	-0.162100	0.866655	0.282467	-0.411244
50244	5.945359	-1.310400	-5.309569	1.349289	3.722080	-1.182679	0.404449	-0.043054	0.913547	0.252190	-0.954913	-0.156655	0.879102	0.293746	-0.375356
50245	6.351023	-0.214212	-5.001644	1.025899	3.774502	-1.098485	0.368175	-0.043787	0.928725	0.265514	-0.952342	-0.150159	0.891039	0.301874	-0.339002
50246	6.952226	0.534012	-5.119068	0.503443	3.819859	-0.952148	0.331289	-0.046285	0.942393	0.273364	-0.951249	-0.142818	0.903061	0.304931	-0.302485
50247	7.416508	0.242188	-5.542551	-0.080398	3.850965	-0.767683	0.294146	-0.050640	0.954418	0.275029	-0.951873	-0.135267	0.915334	0.302281	-0.266062
50248	7.920474	-0.757209	-6.048367	-0.418279	3.883014	-0.567249	0.256767	-0.056824	0.964801	0.272739	-0.953436	-0.128740	0.927192	0.296195	-0.229312
50249	8.348553	-1.336232	-6.034863	-0.476819	3.908036	-0.371401	0.219293	-0.064688	0.973512	0.269168	-0.955065	-0.124095	0.937795	0.289252	-0.192027
50250	8.770053	-1.252459	-5.554790	-0.538498	3.922571	-0.208132	0.181719	-0.073858	0.980573	0.264506	-0.956753	-0.121082	0.947108	0.281371	-0.154324
50251	9.132863	-1.580271	-5.396845	-0.751130	3.914029	-0.069361	0.144280	-0.083974	0.985967	0.257462	-0.958890	-0.119343	0.955456	0.271068	-0.116729
50252	9.715170	-2.675845	-5.665896	-0.872767	3.873624	-0.020387	0.107034	-0.094016	0.989800	0.249110	-0.961230	-0.118240	0.962542	0.259225	-0.079464
50253	9.963901	-4.144011	-4.603298	-0.728439	3.740369	-0.030625	0.070837	-0.103184	0.992137	0.242092	-0.963118	-0.117451	0.967664	0.248508	-0.043244
50254	9.663202	-4.583117	-3.649285	-0.285681	3.535068	-0.071359	0.036371	-0.111133	0.993140	0.239351	-0.963903	-0.116628	0.970252	0.241950	-0.008459
50255	9.519893	-3.311917	-2.627705	0.237598	3.246111	-0.106354	0.004596	-0.117906	0.993014	0.241661	-0.963460	-0.115516	0.970350	0.240504	0.024065
50256	9.280363	-1.250929	-0.836066	0.444972	2.819518	-0.135488	-0.023110	-0.123364	0.992092	0.245947	-0.962560	-0.113962	0.969008	0.241369	0.052585
50257	8.684022	-0.337119	-0.106865	0.103255	2.286242	-0.175895	-0.045706	-0.127134	0.990832	0.246868	-0.962541	-0.112116	0.967971	0.239480	0.075379
50258	7.835502	-0.711668	-0.167045	-0.164917	1.680663	-0.193099	-0.062478	-0.129236	0.989644	0.245150	-0.963190	-0.110305	0.967470	0.235719	0.091860
50259	7.109476	-0.989196	0.325076	-0.185546	1.078762	-0.188880	-0.073394	-0.129908	0.988806	0.243206	-0.963878	-0.108581	0.967194	0.232515	0.102337
50260	6.582160	-1.232688	0.761471	-0.141815	0.464208	-0.176300	-0.078343	-0.129251	0.988512	0.241682	-0.964444	-0.106950	0.967188	0.230527	0.106795
50261	6.907349	-0.743632	0.637433	-0.058558	-0.102694	-0.137869	-0.077702	-0.127651	0.988771	0.240988	-0.964764	-0.105614	0.967413	0.230075	0.105726
50262	7.989434	0.345468	0.271189	-0.212144	-0.633174	-0.069887	-0.071773	-0.125492	0.989495	0.238863	-0.965348	-0.105104	0.968397	0.228810	0.099261
50263	6.843262	0.042037	-1.789869	-0.727381	-1.092042	-0.007592	-0.061221	-0.122917	0.990527	0.231785	-0.967010	-0.105673	0.970839	0.223120	0.087692
50264	7.425658	-0.193987	-2.939981	-1.098530	-1.315817	0.033716	-0.048379	-0.120334	0.991554	0.221103	-0.969379	-0.106855	0.974050	0.214066	0.073504
50265	10.871651	-2.378041	-4.153094	-1.296992	-1.128217	0.083751	-0.037209	-0.118761	0.992225	0.208465	-0.971990	-0.108522	0.977322	0.202806	0.060924
50266	11.642707	-1.531673	-3.192449	-1.127025	-0.686025	0.166813	-0.030182	-0.118994	0.992436	0.197475	-0.974028	-0.110781	0.979843	0.192637	0.052897
50267	10.540713	-0.011495	-1.426719	-1.691411	-0.404470	0.215568	-0.025822	-0.120315	0.992400	0.180914	-0.976901	-0.113729	0.983160	0.176603	0.046992
50268	8.913887	-2.559196	-1.601264	-2.337983	-0.383628	0.176550	-0.021765	-0.121373	0.992368	0.157905	-0.980562	-0.116466	0.987214	0.154165	0.040507
50269	8.221117	-4.967962	-2.202944	-2.069075	-0.442874	0.095751	-0.017260	-0.121639	0.992424	0.137445	-0.983438	-0.118147	0.990359	0.134365	0.033693
50270	8.512834	-4.551610	-2.259270	-1.588814	-0.467205	0.053816	-0.012576	-0.121543	0.992507	0.121682	-0.985394	-0.119130	0.992489	0.119272	0.027181
50271	9.651416	-4.661061	-1.946833	-1.260932	-0.482134	0.027677	-0.007770	-0.121233	0.992594	0.109142	-0.986796	-0.119671	0.993996	0.107404	0.020899
50272	11.433632	-5.683221	-0.790950	-0.880637	-0.430533	-0.006233	-0.003509	-0.120696	0.992683	0.100362	-0.987720	-0.119738	0.994945	0.099207	0.015579
50273	12.397762	-5.264472	1.144821	-0.450408	-0.381971	-0.051311	0.000228	-0.119781	0.992800	0.095860	-0.988226	-0.119252	0.995395	0.095197	0.011257
50274	12.078471	-3.794104	2.181117	-0.229036	-0.390969	-0.072701	0.004037	-0.118667	0.992926	0.093557	-0.988534	-0.118523	0.995606	0.093374	0.007111
50275	10.864568	-1.074644	2.244450	-0.149775	-0.495008	-0.098011	0.008861	-0.117202	0.993069	0.092054	-0.988795	-0.117519	0.995715	0.092457	0.002027
50276	10.658423	0.485575	1.628730	-0.322390	-0.642384	-0.139956	0.015116	-0.115206	0.993227	0.088836	-0.989257	-0.116097	0.995932	0.089989	-0.004719
50277	10.440193	0.497136	0.911380	-0.477918	-0.757517	-0.150875	0.022517	-0.113010	0.993339	0.084086	-0.989856	-0.114520	0.996204	0.086105	-0.012786
50278	10.070321	-1.123158	-0.315300	-0.565789	-0.848740	-0.181680	0.030809	-0.110472	0.993402	0.078475	-0.990538	-0.112588	0.996440	0.081426	-0.021848
50279	10.091412	-2.366607	-1.746142	-0.216169	-0.921181	-0.255166	0.039776	-0.107163	0.993445	0.076394	-0.990996	-0.109958	0.996284	0.080267	-0.031232
50280	9.800485	-1.908258	-2.578034	0.271862	-0.951993	-0.341423	0.048977	-0.102971	0.993478	0.079231	-0.991137	-0.106634	0.995652	0.083936	-0.040384
50281	9.528564	0.426538	-1.878266	0.496650	-0.932057	-0.370722	0.057936	-0.098451	0.993454	0.084355	-0.991084	-0.103135	0.994750	0.089778	-0.049114
50282	9.426250	1.009160	-1.819459	0.108015	-0.892488	-0.327142	0.066519	-0.094371	0.993312	0.085611	-0.991306	-0.099914	0.994106	0.091685	-0.057862
50283	9.222445	-0.630091	-2.455279	-0.274292	-0.864096	-0.285422	0.074853	-0.090721	0.993059	0.083071	-0.991824	-0.096869	0.993728	0.089746	-0.066705
50284	9.537807	-1.866614	-3.099211	-0.254473	-0.845148	-0.272000	0.083015	-0.087243	0.992722	0.080737	-0.992297	-0.093957	0.993272	0.087949	-0.075332
50285	9.994545	-1.412261	-3.347472	-0.168003	-0.809094	-0.251493	0.090834	-0.084003	0.992317	0.079272	-0.992664	-0.091289	0.992706	0.086955	-0.083509
50286	9.861522	-1.833009	-3.708713	-0.232562	-0.764395	-0.233019	0.098229	-0.081003	0.991862	0.077163	-0.993061	-0.088743	0.992168	0.085253	-0.091297
50287	9.787130	-1.432460	-3.993679	-0.044433	-0.692324	-0.226294	0.104908	-0.078129	0.991408	0.076938	-0.993284	-0.086418	0.991501	0.085343	-0.098192
50288	9.966727	0.104924	-3.192430	-0.133244	-0.628399	-0.219637	0.110963	-0.075386	0.990961	0.075833	-0.993570	-0.084076	0.990927	0.084477	-0.104532
50289	10.044547	-0.450520	-3.039120	-0.172701	-0.584245	-0.207060	0.116582	-0.072802	0.990509	0.074344	-0.993872	-0.081800	0.990395	0.083175	-0.110455
50290	10.153364	0.257783	-2.058519	0.018921	-0.548876	-0.197799	0.121864	-0.070350	0.990050	0.074746	-0.994002	-0.079831	0.989728	0.083731	-0.115875
50291	10.143429	0.906259	-1.448305	-0.090047	-0.521894	-0.157092	0.126898	-0.068316	0.989560	0.074037	-0.994190	-0.078130	0.989149	0.083179	-0.121103
50292	10.247883	0.684036	-1.398350	-0.116988	-0.516686	-0.125317	0.131912	-0.066613	0.989021	0.073023	-0.994376	-0.076713	0.988568	0.082341	-0.126306
50293	10.086393	0.265385	-1.464170	-0.067276	-0.501625	-0.124358	0.136766	-0.064928	0.988473	0.072512	-0.994517	-0.075358	0.987946	0.081983	-0.131308
50294	9.800454	-0.450515	-1.537797	0.041215	-0.484649	-0.119750	0.141462	-0.063307	0.987917	0.073068	-0.994563	-0.074195	0.987243	0.082681	-0.136067
50295	9.494066	-0.711871	-1.298498	0.215199	-0.472266	-0.128727	0.146013	-0.061594	0.987363	0.075364	-0.994467	-0.073182	0.986408	0.085097	-0.140563
50296	9.519221	-0.670964	-1.096531	0.413896	-0.478828	-0.124935	0.150634	-0.059902	0.986773	0.079612	-0.994186	-0.072505	0.985379	0.089481	-0.144989
50297	9.462930	-0.070419	-0.845004	0.508868	-0.474850	-0.081909	0.155229	-0.058614	0.986138	0.084737	-0.993769	-0.072406	0.984238	0.094802	-0.149295
50298	9.355424	0.406227	-0.729822	0.320236	-0.484195	-0.049472	0.159946	-0.057624	0.985442	0.087948	-0.993493	-0.072369	0.983200	0.098243	-0.153837
50299	9.449676	0.211560	-1.000909	0.082300	-0.497994	-0.010589	0.164817	-0.056991	0.984676	0.088763	-0.993421	-0.072354	0.982322	0.099327	-0.158674
50300	9.345224	-0.564819	-1.507018	0.015731	-0.514779	-0.000160	0.169866	-0.056444	0.983849	0.088902	-0.993410	-0.072342	0.981449	0.099754	-0.163729
50301	9.358865	-0.509520	-1.288153	0.139985	-0.532401	-0.004782	0.175071	-0.055825	0.982972	0.090272	-0.993276	-0.072488	0.980409	0.101425	-0.168854
50302	9.635780	0.169936	-0.739884	0.174235	-0.554926	0.011751	0.180514	-0.055340	0.982014	0.091943	-0.993095	-0.072866	0.979266	0.103443	-0.174179
50303	9.649620	0.757640	-0.386849	0.060934	-0.580671	0.051283	0.186230	-0.055210	0.980954	0.092434	-0.993007	-0.073437	0.978148	0.104350	-0.179825
50304	9.603352	0.412900	-0.557601	-0.160295	-0.615069	0.084748	0.192315	-0.055380	0.979769	0.090693	-0.993130	-0.073937	0.977133	0.103078	-0.185971
50305	9.508898	-0.444847	-0.946943	-0.200466	-0.649862	0.099199	0.198737	-0.055664	0.978471	0.088531	-0.993284	-0.074489	0.976046	0.101429	-0.192474
50306	9.323658	-1.522213	-1.083010	-0.175144	-0.694484	0.098213	0.205589	-0.055906	0.977040	0.086612	-0.993410	-0.075067	0.974798	0.100057	-0.199392
50307	9.303842	-2.240860	-1.471123	0.186714	-0.726010	0.075602	0.212713	-0.055886	0.975515	0.088263	-0.993183	-0.076144	0.973120	0.102298	-0.206330
50308	9.302620	-0.753808	-0.941903	0.424177	-0.763806	0.085492	0.220207	-0.055903	0.973850	0.092189	-0.992695	-0.077830	0.971087	0.106917	-0.213445
50309	9.077465	-0.332143	-0.713792	0.327052	-0.820979	0.105332	0.228256	-0.056019	0.971988	0.095116	-0.992285	-0.079525	0.968944	0.110603	-0.221166
50310	9.097953	-0.433001	-0.578622	0.319595	-0.876911	0.125357	0.236854	-0.056244	0.969916	0.097906	-0.991859	-0.081425	0.966600	0.114246	-0.229419
50311	9.228214	-0.621320	-0.781527	0.325581	-0.937033	0.143444	0.246028	-0.056542	0.967612	0.100694	-0.991404	-0.083535	0.964018	0.117984	-0.238219
50312	9.426773	-1.008041	-1.492502	0.376667	-0.967187	0.154972	0.255485	-0.056883	0.965138	0.103921	-0.990868	-0.085909	0.961212	0.122246	-0.247241
50313	9.411282	-1.017651	-2.051683	0.548230	-0.984501	0.161908	0.265091	-0.057218	0.962524	0.108753	-0.990094	-0.088809	0.958071	0.128220	-0.256242
50314	9.294256	0.023150	-2.276478	0.635281	-0.995785	0.179555	0.274803	-0.057652	0.959771	0.114334	-0.989159	-0.092153	0.954679	0.135059	-0.265232
50315	9.226449	0.473055	-2.395203	0.597492	-1.018864	0.201554	0.284733	-0.058200	0.956839	0.119457	-0.988221	-0.095656	0.951135	0.141538	-0.274426
50316	9.680923	0.552877	-1.975175	0.558123	-1.025968	0.226941	0.294736	-0.058924	0.953760	0.124090	-0.987286	-0.099343	0.947487	0.147632	-0.283677
50317	10.003150	-0.459207	-1.304029	0.542421	-1.030463	0.263340	0.304798	-0.059936	0.950529	0.128424	-0.986317	-0.103373	0.943719	0.153579	-0.292930
50318	9.814337	-0.313178	0.326522	0.805871	-1.084807	0.280826	0.315367	-0.060956	0.947010	0.135135	-0.984880	-0.108395	0.939299	0.162158	-0.302362
50319	9.213784	0.740657	2.277914	0.972051	-1.199813	0.324533	0.327043	-0.062107	0.942966	0.143193	-0.983060	-0.114410	0.934098	0.172443	-0.312609
50320	9.003294	1.918628	4.046791	0.626932	-1.359113	0.399409	0.340263	-0.063604	0.938177	0.147696	-0.981711	-0.120123	0.928659	0.179438	-0.324646
50321	9.901191	0.640516	3.830963	0.278734	-1.554522	0.439428	0.355290	-0.065063	0.932489	0.148744	-0.980929	-0.125117	0.922845	0.183155	-0.338837
50322	10.517358	0.130282	2.998565	0.400707	-1.761446	0.456757	0.372142	-0.066233	0.925810	0.150768	-0.979890	-0.130706	0.915849	0.188224	-0.354673
50323	12.748494	1.071550	2.535163	0.593879	-1.913758	0.442546	0.390252	-0.066862	0.918277	0.154494	-0.978463	-0.136901	0.907654	0.195294	-0.371517
50324	13.416536	-0.518559	0.958490	0.371624	-2.078237	0.402924	0.409616	-0.066654	0.909820	0.156244	-0.977465	-0.141953	0.898778	0.200300	-0.389971
50325	16.116384	-2.357925	0.462277	0.648537	-2.179295	0.319878	0.429584	-0.065294	0.900663	0.160698	-0.975936	-0.147397	0.888613	0.208054	-0.408754
50326	16.808928	-4.189156	0.398001	0.814914	-2.238882	0.317478	0.449835	-0.063588	0.890845	0.166507	-0.974003	-0.153602	0.877453	0.217427	-0.427553
50327	15.923489	-2.307178	2.078626	1.026343	-2.337474	0.391777	0.470851	-0.062149	0.880021	0.173647	-0.971473	-0.161516	0.864954	0.228863	-0.446627
50328	15.622616	-1.950311	2.619358	0.460199	-2.433216	0.578267	0.492706	-0.062086	0.867978	0.174824	-0.970052	-0.168626	0.852453	0.234827	-0.467097
50329	14.868584	-1.941351	2.556561	0.036267	-2.510950	0.781348	0.515289	-0.063709	0.854645	0.171197	-0.969482	-0.175489	0.839743	0.236740	-0.488657
50330	14.334212	-0.172686	2.308027	-0.473765	-2.544658	0.933006	0.538000	-0.066737	0.840299	0.162351	-0.969994	-0.180982	0.827163	0.233791	-0.511022
50331	13.053749	1.125312	0.691117	-1.182381	-2.551841	1.034016	0.560539	-0.070902	0.825087	0.146967	-0.971996	-0.183371	0.814982	0.224048	-0.534421
50332	11.859018	1.214762	-1.965159	-1.675026	-2.644497	1.049212	0.583322	-0.075204	0.808752	0.127690	-0.974833	-0.182745	0.802141	0.209869	-0.559039
50333	11.532022	0.126436	-5.026585	-1.717359	-2.714569	0.932792	0.605996	-0.078778	0.791557	0.108495	-0.977600	-0.180354	0.788034	0.195174	-0.583875
50334	11.065180	-0.056050	-6.990448	-1.428536	-2.703937	0.771799	0.627846	-0.080948	0.774117	0.092978	-0.979655	-0.177851	0.772765	0.183639	-0.607546
50335	10.417132	0.198133	-8.868143	-1.050374	-2.647304	0.591038	0.648596	-0.081954	0.756708	0.081182	-0.981066	-0.175837	0.756791	0.175478	-0.629663
50336	10.171153	0.131782	-9.294155	-0.860404	-2.467175	0.466221	0.667405	-0.082003	0.740166	0.072058	-0.982143	-0.173787	0.741200	0.169321	-0.649579
50337	9.760870	-1.772661	-8.893932	-0.730090	-2.221869	0.438316	0.684001	-0.082572	0.724793	0.063750	-0.983006	-0.172151	0.726690	0.163957	-0.667113
50338	9.541557	-3.092489	-6.561094	-0.301335	-1.835288	0.429750	0.697465	-0.083488	0.711739	0.059035	-0.983121	-0.173172	0.714183	0.162799	-0.680763
50339	7.971723	-1.368833	-5.062476	-0.199152	-1.428636	0.377051	0.707803	-0.084839	0.701297	0.054986	-0.983133	-0.174431	0.704267	0.162025	-0.691199
50340	6.342596	-1.689189	-5.991617	-0.742527	-1.092292	0.190208	0.715539	-0.084601	0.693431	0.048934	-0.984131	-0.170562	0.696857	0.155976	-0.700044
50341	5.856635	-4.090487	-7.582430	-0.732192	-0.720165	-0.007497	0.720528	-0.083393	0.688393	0.043917	-0.985261	-0.165323	0.692034	0.149352	-0.706246
50342	5.639642	-4.867480	-7.787439	-0.172233	-0.260307	-0.138124	0.722249	-0.081285	0.686839	0.044204	-0.985614	-0.163127	0.690219	0.148179	-0.708266
50343	5.257552	-4.206980	-7.400819	0.264323	0.216167	-0.221125	0.720645	-0.079393	0.688743	0.047640	-0.985403	-0.163437	0.691665	0.150591	-0.706344
50344	4.803148	-3.684265	-7.203613	0.486070	0.668353	-0.322103	0.715827	-0.076886	0.694032	0.053807	-0.984891	-0.164604	0.696202	0.155172	-0.700874
50345	4.389536	-3.428836	-7.296533	0.689129	1.085672	-0.447745	0.707960	-0.074159	0.702349	0.061832	-0.984145	-0.166239	0.703541	0.161118	-0.692150
50346	4.125872	-3.110093	-7.475371	0.904204	1.472292	-0.568804	0.697125	-0.070669	0.713458	0.072684	-0.983037	-0.168392	0.713256	0.169247	-0.680163
50347	4.003833	-3.121942	-7.669387	1.046313	1.849262	-0.680326	0.683277	-0.067164	0.727064	0.084918	-0.981693	-0.170490	0.725204	0.178233	-0.665065
50348	3.823221	-3.222183	-7.626751	1.189865	2.192150	-0.770239	0.666495	-0.063301	0.742817	0.099302	-0.979972	-0.172610	0.738866	0.188808	-0.646860
50349	3.849468	-3.076811	-7.666422	1.393096	2.517232	-0.840492	0.646792	-0.059943	0.760307	0.115232	-0.977781	-0.175117	0.753911	0.200876	-0.625513
50350	3.982027	-2.492975	-7.222695	1.556396	2.795378	-0.895798	0.624355	-0.056685	0.779082	0.133272	-0.975011	-0.177745	0.769688	0.214805	-0.601198
50351	4.106262	-1.949848	-6.763381	1.505056	3.027570	-0.936505	0.599457	-0.054232	0.798567	0.150721	-0.972205	-0.179165	0.786088	0.227763	-0.574622
50352	4.447618	-1.953021	-6.877946	1.292977	3.224620	-0.960718	0.572275	-0.052186	0.818400	0.167013	-0.969641	-0.178615	0.802875	0.238901	-0.546185
50353	4.790228	-2.393154	-6.715592	1.193317	3.378059	-0.970733	0.543157	-0.050987	0.838082	0.182116	-0.967238	-0.176873	0.819643	0.248698	-0.516077
50354	5.154337	-2.063230	-6.292621	1.187182	3.517490	-0.960770	0.512173	-0.050462	0.857399	0.197296	-0.964665	-0.174631	0.835915	0.258602	-0.484119
50355	5.422815	-1.012255	-6.086132	0.904846	3.613954	-0.903606	0.479814	-0.051191	0.875875	0.209419	-0.962759	-0.170991	0.852011	0.265469	-0.451225
50356	5.716029	-1.001113	-6.541864	0.397801	3.706035	-0.841495	0.446104	-0.052777	0.893424	0.217120	-0.962057	-0.165243	0.868246	0.267696	-0.417718
50357	5.931880	-1.774772	-6.944599	0.006057	3.789871	-0.774693	0.411174	-0.055397	0.909872	0.220495	-0.962467	-0.158241	0.884488	0.265686	-0.383526
50358	6.128679	-2.693820	-7.581249	-0.230803	3.874837	-0.708613	0.374991	-0.058646	0.925171	0.221526	-0.963414	-0.150860	0.900171	0.261521	-0.348280
50359	6.677285	-3.574126	-8.494188	-0.300591	3.953403	-0.648336	0.337654	-0.062597	0.939186	0.221106	-0.964593	-0.143782	0.914933	0.256208	-0.311858
50360	7.243215	-4.108215	-8.292480	-0.009727	4.002095	-0.603696	0.299390	-0.066945	0.951779	0.222938	-0.965015	-0.138003	0.927720	0.253504	-0.273991
50361	7.765710	-3.038588	-6.484081	0.468296	4.005225	-0.549157	0.260765	-0.071803	0.962728	0.228839	-0.964212	-0.133897	0.937888	0.255225	-0.235001
50362	8.009344	-0.971774	-4.939581	0.471406	3.948557	-0.474147	0.222420	-0.077317	0.971880	0.234419	-0.963366	-0.130287	0.946349	0.256805	-0.196147
50363	8.504508	-0.345065	-3.887294	-0.047272	3.803391	-0.396483	0.185323	-0.083164	0.979152	0.234768	-0.963812	-0.126295	0.954222	0.253279	-0.159092
50364	9.564175	-1.960892	-4.751158	-0.472803	3.646019	-0.333080	0.149582	-0.089018	0.984734	0.230787	-0.965286	-0.122316	0.961438	0.245560	-0.123845
50365	9.913106	-3.424051	-5.944906	-0.293884	3.503746	-0.289505	0.115115	-0.094686	0.988829	0.228324	-0.966272	-0.119106	0.966756	0.239485	-0.089614
50366	9.435377	-3.309066	-4.486480	0.217150	3.275183	-0.236677	0.082827	-0.100198	0.991514	0.230646	-0.965992	-0.116886	0.969506	0.238370	-0.056900
50367	9.099997	-1.942126	-3.027165	0.616552	2.968325	-0.135045	0.053704	-0.105979	0.992917	0.236704	-0.964660	-0.115765	0.970097	0.241244	-0.026720
50368	8.517044	0.436725	-1.673527	0.626388	2.564210	-0.054272	0.028672	-0.111657	0.993333	0.242783	-0.963207	-0.115278	0.969657	0.244470	-0.000508
50369	8.220701	1.647238	-0.147185	-0.047260	2.037584	0.004108	0.008899	-0.116616	0.993137	0.242307	-0.963326	-0.115286	0.970159	0.241670	0.019684
50370	7.924003	-0.433179	0.122305	-0.840932	1.462694	0.032015	-0.005260	-0.120358	0.992717	0.234122	-0.965287	-0.115791	0.972193	0.231807	0.033256
50371	7.258605	-3.475330	-0.913177	-1.056579	0.897268	0.025652	-0.013954	-0.122601	0.992358	0.223822	-0.967654	-0.116401	0.974530	0.220487	0.040944
50372	7.163768	-4.535766	-2.414281	-0.573929	0.408875	-0.016655	-0.018006	-0.123300	0.992206	0.218203	-0.968931	-0.116447	0.975737	0.214405	0.044351
50373	7.474000	-1.799104	-2.972400	-0.057896	-0.042721	-0.009987	-0.017630	-0.123077	0.992240	0.217618	-0.969076	-0.116337	0.975875	0.213878	0.043868
50374	7.008228	0.895843	-3.866760	-0.404999	-0.451395	0.031512	-0.013179	-0.122398	0.992394	0.213647	-0.969905	-0.116787	0.976822	0.210483	0.038932
50375	6.931102	1.493627	-5.636309	-0.926293	-0.755472	0.096471	-0.005608	-0.121741	0.992546	0.204580	-0.971708	-0.118029	0.978834	0.202394	0.030355
50376	8.339949	1.193047	-5.930040	-1.284876	-0.801777	0.147679	0.002526	-0.121570	0.992580	0.191969	-0.974063	-0.119790	0.981398	0.190847	0.020877
50377	10.526430	0.637308	-4.933344	-1.391879	-0.564772	0.195392	0.008420	-0.122399	0.992445	0.178263	-0.976399	-0.121933	0.983947	0.177943	0.013598
50378	10.740793	-0.407624	-3.357532	-1.779778	-0.306039	0.169176	0.011713	-0.123500	0.992275	0.160689	-0.979214	-0.123771	0.986936	0.160897	0.008376
50379	10.623966	-3.252159	-2.765189	-1.754485	-0.124394	0.027491	0.012968	-0.123544	0.992254	0.143329	-0.981861	-0.124123	0.989590	0.143828	0.004975
50380	10.104948	-4.146039	-2.027112	-1.262715	-0.029331	-0.101643	0.013114	-0.122469	0.992386	0.130816	-0.983731	-0.123130	0.991320	0.131435	0.003120
50381	10.014318	-4.506386	-1.375467	-0.925975	0.000716	-0.179859	0.012865	-0.120664	0.992610	0.121637	-0.985131	-0.121331	0.992491	0.122299	0.002004
50382	10.404647	-5.404037	-0.739761	-0.485645	-0.018141	-0.206308	0.012797	-0.118576	0.992862	0.116820	-0.985967	-0.119258	0.993071	0.117513	0.001235
50383	11.070379	-4.854408	0.932487	-0.118086	-0.074366	-0.202443	0.013286	-0.116457	0.993107	0.115657	-0.986349	-0.117212	0.993200	0.116417	0.000365
50384	11.920740	-4.341930	2.621886	-0.157866	-0.169308	-0.168647	0.014772	-0.114569	0.993305	0.114087	-0.986733	-0.115508	0.993361	0.115030	-0.001505
50385	11.689496	-3.683122	3.093485	-0.261817	-0.288041	-0.127074	0.017475	-0.112951	0.993447	0.111489	-0.987182	-0.114200	0.993612	0.112755	-0.004659
50386	10.797258	-2.759391	2.681635	-0.370431	-0.411806	-0.129783	0.021421	-0.111188	0.993569	0.107807	-0.987745	-0.112860	0.993941	0.109531	-0.009172
50387	10.204321	-2.389827	1.458851	-0.338135	-0.547077	-0.166653	0.026668	-0.108913	0.993693	0.104469	-0.988300	-0.111126	0.994171	0.106773	-0.014978
50388	9.976664	-1.293131	0.392997	-0.030533	-0.631886	-0.212000	0.032721	-0.106120	0.993815	0.104201	-0.988566	-0.108990	0.994018	0.107123	-0.021289
50389	10.077975	0.373061	-0.334281	0.025245	-0.676749	-0.247632	0.039174	-0.102908	0.993919	0.104525	-0.988804	-0.106498	0.993750	0.108061	-0.027979
50390	10.112731	0.877025	-1.657876	0.029934	-0.702857	-0.293990	0.045842	-0.099215	0.994010	0.104921	-0.989074	-0.103561	0.993423	0.109040	-0.034932
50391	9.928533	1.734682	-1.982775	0.115844	-0.722568	-0.346138	0.052639	-0.094960	0.994088	0.106226	-0.989288	-0.100126	0.992948	0.110869	-0.041988
50392	9.575129	1.569580	-1.234763	-0.216605	-0.731367	-0.344353	0.059532	-0.090721	0.994095	0.104245	-0.989851	-0.096577	0.992768	0.109379	-0.049471
50393	9.375085	-1.091835	-1.595946	-0.454950	-0.710166	-0.320017	0.066241	-0.086753	0.994025	0.099914	-0.990629	-0.093115	0.992789	0.105486	-0.056953
50394	9.418893	-2.761653	-1.998156	-0.371270	-0.696725	-0.330243	0.072830	-0.082729	0.993907	0.096436	-0.991300	-0.089578	0.992671	0.102373	-0.064218
50395	9.696613	-2.605871	-2.155161	-0.096218	-0.668499	-0.348343	0.079115	-0.078556	0.993765	0.095731	-0.991684	-0.086013	0.992258	0.101939	-0.070937
50396	9.774559	-0.669434	-1.581842	-0.077235	-0.660892	-0.346349	0.085339	-0.074422	0.993569	0.095227	-0.992032	-0.082486	0.991791	0.101653	-0.077572
50397	9.646956	-0.877015	-1.886750	-0.457162	-0.678646	-0.323977	0.091753	-0.070495	0.993283	0.090965	-0.992727	-0.078858	0.991618	0.097590	-0.084673
50398	9.848676	-1.665164	-2.483766	-0.422730	-0.654992	-0.298033	0.097982	-0.066883	0.992938	0.087034	-0.993340	-0.075498	0.991375	0.093817	-0.091508
50399	9.924932	-0.977812	-2.696945	-0.322004	-0.611081	-0.287171	0.103779	-0.063428	0.992576	0.084118	-0.993829	-0.072304	0.991037	0.090997	-0.097804
50400	9.971163	-0.471879	-2.580185	-0.287935	-0.583723	-0.286579	0.109328	-0.060031	0.992191	0.081548	-0.994268	-0.069142	0.990655	0.088470	-0.103806
50401	10.206458	0.106449	-2.440838	-0.160815	-0.540363	-0.284313	0.114436	-0.056692	0.991812	0.080260	-0.994579	-0.066111	0.990183	0.087168	-0.109266
50402	9.997677	0.842191	-2.127007	-0.146358	-0.509880	-0.270721	0.119272	-0.053532	0.991417	0.079105	-0.994859	-0.063235	0.989705	0.085968	-0.114424
50403	9.981182	0.903686	-1.898344	-0.166591	-0.495653	-0.249080	0.123967	-0.050595	0.990996	0.077747	-0.995134	-0.060532	0.989236	0.084550	-0.119430
50404	10.043593	0.805230	-1.713943	-0.069842	-0.473511	-0.218241	0.128486	-0.047995	0.990549	0.077311	-0.995304	-0.058254	0.988693	0.084065	-0.124172
50405	10.004005	1.042767	-1.377503	-0.002817	-0.462965	-0.199840	0.132894	-0.045580	0.990082	0.077532	-0.995403	-0.056232	0.988093	0.084236	-0.128749
50406	9.822201	0.658339	-1.128329	-0.059328	-0.464286	-0.176291	0.137349	-0.043405	0.989571	0.077165	-0.995534	-0.054377	0.987512	0.083829	-0.133386
50407	9.709937	0.204017	-1.080879	-0.001726	-0.463321	-0.163913	0.141783	-0.041348	0.989034	0.077365	-0.995608	-0.052713	0.986870	0.083990	-0.137961
50408	9.616507	0.625746	-0.866054	0.042884	-0.453655	-0.141095	0.146153	-0.039529	0.988472	0.077974	-0.995632	-0.051344	0.986184	0.084579	-0.142433
50409	9.362061	0.766906	-0.603120	-0.116924	-0.462781	-0.118072	0.150611	-0.037927	0.987865	0.076984	-0.995779	-0.049968	0.985591	0.083576	-0.147055
50410	9.173712	-0.668065	-0.884829	-0.314601	-0.485738	-0.102154	0.155324	-0.036478	0.987190	0.074025	-0.996079	-0.048453	0.985086	0.080602	-0.152015
50411	9.184508	-1.808383	-1.208503	-0.225129	-0.504750	-0.109934	0.160201	-0.034945	0.986466	0.071969	-0.996300	-0.046981	0.984457	0.078522	-0.157094
50412	9.256364	-1.784835	-1.070916	-0.082136	-0.523821	-0.110976	0.165280	-0.033397	0.985681	0.071326	-0.996405	-0.045720	0.983664	0.077861	-0.162304
50413	9.407362	-1.571075	-1.013867	0.014768	-0.569933	-0.116577	0.170787	-0.031754	0.984796	0.071656	-0.996434	-0.044556	0.982699	0.078176	-0.167903
50414	9.548870	-0.439053	-1.058244	0.227825	-0.586161	-0.116673	0.176462	-0.030096	0.983847	0.074079	-0.996292	-0.043764	0.981516	0.080605	-0.173578
50415	9.465600	0.816144	-0.904704	0.136775	-0.612264	-0.090556	0.182387	-0.028659	0.982809	0.075573	-0.996210	-0.043075	0.980318	0.082130	-0.179530
50416	9.436250	0.393435	-1.272764	-0.015408	-0.648101	-0.072915	0.188683	-0.027369	0.981656	0.075542	-0.996245	-0.042296	0.979128	0.082136	-0.185907
50417	9.627418	-0.196210	-1.546917	0.094873	-0.666531	-0.067914	0.195140	-0.026105	0.980428	0.076590	-0.996187	-0.041769	0.977780	0.083242	-0.192397
50418	9.667114	-0.115356	-1.835933	0.262060	-0.672846	-0.074137	0.201658	-0.024766	0.979143	0.079283	-0.995987	-0.041520	0.976242	0.086002	-0.198885
50419	9.570528	-0.023637	-2.117803	0.348395	-0.664888	-0.073846	0.208070	-0.023410	0.977834	0.082823	-0.995701	-0.041461	0.974601	0.089614	-0.205237
50420	9.215407	-0.744717	-2.243266	0.288865	-0.675626	-0.082697	0.214580	-0.021939	0.976460	0.085797	-0.995460	-0.041220	0.972931	0.092622	-0.211724
50421	9.140993	-1.670910	-2.592802	0.503736	-0.676443	-0.081740	0.221069	-0.020445	0.975044	0.090862	-0.995000	-0.041464	0.971016	0.097761	-0.218106
50422	9.421853	-0.534393	-2.160181	0.714104	-0.681055	-0.057255	0.227622	-0.019154	0.973561	0.097903	-0.994290	-0.042452	0.968815	0.104978	-0.224448
50423	9.467649	0.268083	-1.875948	0.606744	-0.696761	-0.021660	0.234329	-0.018150	0.971988	0.103816	-0.993641	-0.043583	0.966598	0.111121	-0.230955
50424	9.444753	0.508154	-1.595550	0.446845	-0.721469	0.013885	0.241310	-0.017439	0.970291	0.108085	-0.993135	-0.044730	0.964410	0.115668	-0.237769
50425	9.491943	0.442467	-1.829695	0.312753	-0.740660	0.037641	0.248472	-0.016908	0.968491	0.110997	-0.992764	-0.045809	0.962258	0.118882	-0.244798
50426	10.464652	0.125252	-2.324726	0.267594	-0.703887	0.035981	0.255278	-0.016387	0.966729	0.113468	-0.992440	-0.046785	0.960186	0.121636	-0.251489
50427	10.012300	0.283648	-2.548029	0.273966	-0.645951	0.028234	0.261492	-0.015836	0.965076	0.116015	-0.992101	-0.047714	0.958208	0.124440	-0.257589
50428	9.096941	0.547680	-3.211874	0.224644	-0.647839	0.022510	0.267719	-0.015213	0.963377	0.118096	-0.991818	-0.048480	0.956232	0.126750	-0.263732
50429	9.096418	0.389823	-3.889731	0.360964	-0.662044	0.059001	0.274098	-0.014910	0.961586	0.121377	-0.991348	-0.049970	0.954011	0.130411	-0.269917
50430	9.534534	0.247716	-3.276444	0.282537	-0.642949	0.099898	0.280347	-0.015018	0.959781	0.123783	-0.990964	-0.051663	0.951884	0.133288	-0.275955
50431	9.900479	-0.327588	-2.107007	0.262178	-0.649171	0.137210	0.286676	-0.015468	0.957903	0.125881	-0.990593	-0.053669	0.949721	0.135967	-0.282032
50432	9.534911	-0.253023	-0.838990	0.444060	-0.692864	0.152040	0.293447	-0.015845	0.955844	0.130167	-0.989888	-0.056371	0.947072	0.140961	-0.288417
50433	9.571917	0.249788	1.031655	0.558752	-0.774696	0.160630	0.300970	-0.016285	0.953495	0.134967	-0.989062	-0.059494	0.944034	0.146596	-0.295480
50434	9.499091	1.142387	2.768855	0.562203	-0.885280	0.203763	0.309592	-0.016807	0.950721	0.140121	-0.988122	-0.063097	0.940488	0.152751	-0.303560
50435	9.162751	1.069268	3.880045	0.304200	-1.056789	0.229326	0.319820	-0.017406	0.947318	0.142250	-0.987617	-0.066170	0.936739	0.155919	-0.313384
50436	8.865676	-0.158654	4.055717	0.204454	-1.246314	0.250019	0.331818	-0.017743	0.943177	0.143802	-0.987187	-0.069162	0.932319	0.158580	-0.325014
50437	8.880615	-0.501687	3.344386	0.349507	-1.431338	0.243343	0.345462	-0.017813	0.938264	0.146223	-0.986586	-0.072569	0.926971	0.162266	-0.338223
50438	9.137471	0.637809	3.145106	0.453445	-1.631395	0.262545	0.360905	-0.017527	0.932438	0.149950	-0.985724	-0.076567	0.920469	0.167452	-0.353124
50439	9.311341	1.248985	2.683788	0.246515	-1.818677	0.303087	0.378022	-0.017409	0.925633	0.151088	-0.985259	-0.080233	0.913385	0.170182	-0.369819
50440	10.118741	0.960826	1.707437	0.081802	-1.994785	0.337889	0.396651	-0.017121	0.917810	0.151000	-0.984990	-0.083631	0.905465	0.171761	-0.388112
50441	11.458018	1.196249	0.818716	0.149759	-2.169168	0.362561	0.416726	-0.016910	0.908875	0.150874	-0.984673	-0.087497	0.896424	0.173588	-0.407788
50442	13.452001	1.166013	0.468764	-0.007399	-2.318825	0.390369	0.437954	-0.016508	0.898846	0.149583	-0.984556	-0.090965	0.886465	0.174291	-0.428721
50443	16.061264	-1.428400	-0.666109	-0.081370	-2.406396	0.394449	0.459729	-0.016168	0.887912	0.147097	-0.984637	-0.094090	0.875792	0.173865	-0.450288
50444	16.773567	-2.525405	-0.298728	0.189623	-2.460583	0.393357	0.481674	-0.015483	0.876213	0.147374	-0.984173	-0.098405	0.863870	0.176530	-0.471769
50445	16.765940	-3.156842	0.176163	0.387300	-2.544546	0.431079	0.504114	-0.015144	0.863505	0.148573	-0.983419	-0.103983	0.850762	0.180713	-0.493505
50446	17.025620	-2.678439	1.672481	0.698499	-2.647075	0.512158	0.527165	-0.015020	0.849630	0.152318	-0.981980	-0.111868	0.836000	0.188387	-0.515377
50447	16.373712	-0.593674	3.359931	0.664220	-2.748546	0.642703	0.550898	-0.016019	0.834419	0.154360	-0.980610	-0.120737	0.820174	0.195315	-0.537743
50448	15.858638	0.609714	3.756794	0.034360	-2.886414	0.772106	0.575461	-0.017555	0.817641	0.150948	-0.980313	-0.127286	0.803778	0.196669	-0.561482
50449	15.461350	0.020263	0.811600	-0.375694	-2.945956	0.877901	0.600170	-0.020381	0.799612	0.142807	-0.980883	-0.132189	0.787021	0.193526	-0.585787
50450	14.538468	0.503444	-2.437249	-0.533620	-2.903637	0.920831	0.623991	-0.023387	0.781081	0.133780	-0.981598	-0.136264	0.769895	0.189521	-0.609380
50451	13.335728	1.057211	-5.016003	-1.036539	-2.833710	0.889498	0.646690	-0.026855	0.762280	0.120244	-0.983294	-0.136651	0.753215	0.180031	-0.632658
50452	12.152696	-0.193292	-7.172129	-1.659220	-2.723564	0.768729	0.667793	-0.029177	0.743775	0.103661	-0.985849	-0.131744	0.737093	0.165079	-0.655319
50453	9.960342	-2.588664	-9.267522	-1.677917	-2.597618	0.598473	0.687295	-0.030966	0.725718	0.087384	-0.988310	-0.124928	0.721103	0.149278	-0.676554
50454	8.482123	-3.529625	-10.112395	-1.144153	-2.458009	0.386452	0.705096	-0.030527	0.708455	0.077571	-0.989757	-0.119852	0.704857	0.139463	-0.695505
50455	8.033414	-3.112795	-10.207952	-0.778162	-2.203431	0.168257	0.720576	-0.029162	0.692763	0.070960	-0.990768	-0.115516	0.689736	0.132397	-0.711854
50456	6.728189	-3.612411	-11.417610	-0.553019	-1.905598	0.022495	0.733563	-0.026196	0.679116	0.068007	-0.991412	-0.111702	0.676210	0.128125	-0.725482
50457	7.607713	-4.548343	-9.639340	-0.015508	-1.454400	-0.052770	0.743275	-0.023771	0.668564	0.068309	-0.991448	-0.111195	0.665490	0.128317	-0.735295
50458	8.097271	-3.397154	-5.847698	0.511402	-0.869712	-0.082395	0.748928	-0.021215	0.662312	0.073124	-0.990737	-0.114422	0.658605	0.134125	-0.740439
50459	6.555907	-0.595951	-5.208665	0.308859	-0.323944	-0.138056	0.750944	-0.019372	0.660081	0.076206	-0.990349	-0.115761	0.655954	0.137233	-0.742221
50460	5.027547	-0.863633	-6.701042	-0.237124	0.092590	-0.358979	0.750008	-0.015304	0.661252	0.078211	-0.990667	-0.111637	0.656789	0.135446	-0.741811
50461	4.334551	-3.692177	-8.955479	-0.171685	0.484373	-0.578836	0.746345	-0.010185	0.665481	0.081427	-0.990974	-0.106488	0.660559	0.133666	-0.738780
50462	3.998993	-4.629330	-9.626925	0.736012	0.957844	-0.680259	0.739337	-0.004180	0.673322	0.092169	-0.989940	-0.107351	0.666997	0.141428	-0.731514
50463	3.701887	-3.041934	-8.738346	1.407826	1.444465	-0.674182	0.728955	0.000380	0.684562	0.106590	-0.987866	-0.112954	0.676213	0.155306	-0.720150
50464	3.514020	-1.528778	-7.907516	1.579879	1.882112	-0.663523	0.715290	0.004331	0.698814	0.122834	-0.985191	-0.119625	0.687948	0.171405	-0.705229
50465	3.203132	-1.315498	-7.376829	1.457830	2.251077	-0.704131	0.698714	0.007273	0.715364	0.137960	-0.982549	-0.124760	0.701972	0.185863	-0.687524
50466	3.056130	-1.680136	-7.206209	1.453699	2.581119	-0.753767	0.679222	0.010103	0.733863	0.154098	-0.979580	-0.129139	0.717573	0.200801	-0.666909
50467	2.978638	-1.487843	-7.281797	1.520930	2.892510	-0.787520	0.656929	0.011812	0.753860	0.170416	-0.976327	-0.133206	0.734441	0.215976	-0.643390
50468	3.091700	-0.990889	-7.566836	1.394904	3.179624	-0.787362	0.631813	0.012744	0.775016	0.186414	-0.973017	-0.135969	0.752371	0.230381	-0.617140
50469	3.187669	-1.285492	-7.978986	1.144905	3.425668	-0.755007	0.604238	0.012025	0.796713	0.199815	-0.970223	-0.136899	0.771344	0.241914	-0.588648
50470	3.308468	-2.241145	-8.001241	1.024233	3.637770	-0.712709	0.574286	0.010223	0.818591	0.212501	-0.967510	-0.136998	0.790594	0.252627	-0.557800
50471	3.496457	-2.334230	-7.403332	1.145591	3.819488	-0.672853	0.542236	0.006890	0.840198	0.225431	-0.964497	-0.137577	0.809420	0.264006	-0.524537
50472	3.750372	-1.542517	-7.077190	1.055312	3.961831	-0.641988	0.508251	0.002613	0.861205	0.237836	-0.961532	-0.137445	0.827717	0.274682	-0.489321
50473	4.092809	-1.366223	-6.836184	0.742402	4.059814	-0.634009	0.472719	-0.002561	0.881210	0.247163	-0.959470	-0.135378	0.845841	0.281798	-0.452926
50474	4.327848	-2.131282	-6.705738	0.502966	4.146453	-0.648954	0.435593	-0.007958	0.900108	0.254761	-0.957986	-0.131757	0.863340	0.286705	-0.415265
50475	4.749789	-2.530193	-7.126544	0.363648	4.228116	-0.658658	0.397016	-0.013805	0.917708	0.260674	-0.957015	-0.127168	0.880016	0.289711	-0.376351
50476	5.133998	-2.994414	-7.582569	0.224700	4.280790	-0.659276	0.357224	-0.019806	0.933809	0.265479	-0.956387	-0.121842	0.895495	0.291431	-0.336386
50477	6.023775	-3.388190	-7.602885	0.198619	4.342829	-0.606264	0.316380	-0.026652	0.948258	0.269311	-0.955954	-0.116722	0.909601	0.292305	-0.295267
50478	6.839670	-3.286969	-7.221850	0.337231	4.361628	-0.510878	0.275016	-0.034461	0.960822	0.274244	-0.955027	-0.112750	0.921497	0.294508	-0.253197
50479	7.603225	-1.565380	-5.790383	0.551269	4.324517	-0.390585	0.233850	-0.043516	0.971298	0.280339	-0.953553	-0.110215	0.930980	0.298066	-0.210790
50480	8.241216	0.317082	-3.953450	0.171236	4.141790	-0.242463	0.194404	-0.053480	0.979463	0.282730	-0.953082	-0.108156	0.939293	0.297949	-0.170162
