// General information: 
//  MT Manager version: 2022.2.0 
//  XDA version: 2022.2.0 build 7381 rev 124627 built on 2023-07-19
// Device information: 
//  DeviceId: 00B4CAF0
//  ProductCode: MTW2-3A7G6
//  Firmware Version: 4.6.0
//  Hardware Version: 2.0.0
// Device settings: 
//  Filter Profile: human(46.1)
//  Option Flags: Orientation Smoother Disabled, Position/Velocity Smoother Disabled, Continuous Zero Rotation Update Disabled, AHS Disabled, ICC Disabled
// Coordinate system: ENU
PacketCounter	Acc_X	Acc_Y	Acc_Z	Gyr_X	Gyr_Y	Gyr_Z	Mat[1][1]	Mat[2][1]	Mat[3][1]	Mat[1][2]	Mat[2][2]	Mat[3][2]	Mat[1][3]	Mat[2][3]	Mat[3][3]
07494	4.982306	-1.643288	8.823202	0.002771	0.001082	0.006329	-0.764243	-0.399987	0.505908	0.358492	-0.915557	-0.182317	0.536112	0.042030	0.843100
07495	4.947892	-1.661943	8.806193	0.002119	0.010242	0.006184	-0.764277	-0.400021	0.505830	0.358506	-0.915544	-0.182353	0.536055	0.041975	0.843139
07496	4.616756	-1.749231	8.892110	0.000153	-0.008745	-0.001917	-0.764292	-0.400025	0.505804	0.358496	-0.915544	-0.182374	0.536039	0.041942	0.843150
07497	4.622887	-1.815577	8.920792	0.001035	-0.041426	-0.014897	-0.764124	-0.399845	0.506200	0.358343	-0.915616	-0.182312	0.536381	0.042084	0.842926
07498	4.565959	-2.140728	8.873979	0.008509	-0.064482	-0.039117	-0.763974	-0.399485	0.506710	0.358093	-0.915761	-0.182073	0.536761	0.042350	0.842671
07499	4.667866	-2.116807	8.942899	0.024762	-0.110695	-0.070767	-0.763634	-0.398763	0.507791	0.357641	-0.916046	-0.181528	0.537546	0.042986	0.842138
07500	4.882140	-1.985441	8.891195	0.033803	-0.135881	-0.090166	-0.763282	-0.397904	0.508993	0.357139	-0.916383	-0.180818	0.538380	0.043766	0.841565
07501	5.119722	-1.758089	8.866162	0.041315	-0.142461	-0.100576	-0.762874	-0.396893	0.510392	0.356549	-0.916777	-0.179980	0.539348	0.044678	0.840897
07502	5.201532	-1.498387	8.833403	0.036818	-0.125526	-0.089963	-0.762573	-0.396037	0.511504	0.356065	-0.917109	-0.179243	0.540092	0.045443	0.840378
07503	5.183744	-1.384828	8.769788	0.031518	-0.112190	-0.078741	-0.762248	-0.395237	0.512607	0.355591	-0.917419	-0.178597	0.540864	0.046143	0.839843
07504	5.174147	-1.317230	8.805980	0.013186	-0.102942	-0.062388	-0.761969	-0.394642	0.513479	0.355190	-0.917652	-0.178197	0.541520	0.046602	0.839396
07505	5.203745	-1.330939	8.779466	0.003864	-0.086976	-0.048306	-0.761670	-0.394131	0.514315	0.354798	-0.917854	-0.177938	0.542197	0.046948	0.838939
07506	5.210861	-1.373433	8.755496	-0.004997	-0.074011	-0.036134	-0.761453	-0.393789	0.514897	0.354499	-0.917992	-0.177823	0.542696	0.047127	0.838606
07507	5.227753	-1.559631	8.691849	-0.009590	-0.055317	-0.022810	-0.761234	-0.393527	0.515421	0.354228	-0.918100	-0.177808	0.543180	0.047223	0.838287
07508	5.302214	-1.508437	8.632951	-0.006954	-0.032685	-0.015300	-0.761168	-0.393393	0.515621	0.354077	-0.918157	-0.177814	0.543372	0.047223	0.838163
07509	5.241829	-1.545932	8.657360	-0.006309	-0.012539	-0.002013	-0.761107	-0.393342	0.515749	0.353982	-0.918181	-0.177879	0.543518	0.047181	0.838070
07510	5.234042	-1.559826	8.688028	-0.000188	0.010485	0.004584	-0.761204	-0.393411	0.515553	0.354019	-0.918157	-0.177930	0.543359	0.047074	0.838180
07511	5.140782	-1.660836	8.737506	0.001415	0.024622	0.014022	-0.761289	-0.393525	0.515342	0.354088	-0.918114	-0.178013	0.543195	0.046957	0.838293
07512	5.105137	-1.613114	8.751645	0.003420	0.028837	0.010905	-0.761463	-0.393660	0.514981	0.354192	-0.918063	-0.178065	0.542883	0.046812	0.838503
07513	5.019501	-1.611116	8.810578	0.004704	0.032899	0.013697	-0.761594	-0.393774	0.514701	0.354277	-0.918020	-0.178118	0.542644	0.046693	0.838664
07514	5.020825	-1.700341	8.832199	0.006182	0.027342	0.013237	-0.761751	-0.393929	0.514349	0.354414	-0.917960	-0.178159	0.542334	0.046580	0.838871
07515	5.031999	-1.664196	8.872147	0.008634	0.017504	0.011586	-0.761805	-0.394017	0.514201	0.354504	-0.917923	-0.178168	0.542198	0.046557	0.838960
07516	5.079828	-1.640408	8.818660	0.009113	0.014499	0.009662	-0.761906	-0.394133	0.513964	0.354630	-0.917875	-0.178165	0.541976	0.046522	0.839105
07517	5.023644	-1.685905	8.804504	0.015348	0.011664	0.008424	-0.761940	-0.394189	0.513871	0.354732	-0.917848	-0.178102	0.541861	0.046584	0.839176
07518	4.858642	-1.756056	8.789957	0.017316	0.012419	-0.000006	-0.762062	-0.394215	0.513669	0.354828	-0.917834	-0.177980	0.541625	0.046633	0.839326
07519	4.751489	-1.837036	8.920153	0.018920	-0.007946	-0.011680	-0.762061	-0.394077	0.513776	0.354797	-0.917885	-0.177783	0.541647	0.046804	0.839302
07520	4.978882	-1.836940	8.859927	0.027232	-0.035018	-0.027842	-0.762026	-0.393825	0.514021	0.354735	-0.917976	-0.177434	0.541737	0.047131	0.839226
07521	5.012237	-1.747291	8.845518	0.031689	-0.041511	-0.033937	-0.761922	-0.393468	0.514449	0.354603	-0.918108	-0.177016	0.541969	0.047553	0.839052
07522	5.149743	-1.632284	8.771515	0.030432	-0.044714	-0.035406	-0.761861	-0.393141	0.514789	0.354501	-0.918227	-0.176601	0.542122	0.047947	0.838931
07523	5.162240	-1.569705	8.758798	0.027968	-0.036611	-0.036423	-0.761793	-0.392763	0.515179	0.354330	-0.918370	-0.176201	0.542330	0.048315	0.838775
07524	5.187417	-1.449112	8.794913	0.019777	-0.025217	-0.032807	-0.761828	-0.392468	0.515351	0.354190	-0.918484	-0.175889	0.542373	0.048535	0.838735
07525	5.163380	-1.473906	8.736566	0.015864	-0.016537	-0.020670	-0.761812	-0.392244	0.515546	0.354073	-0.918571	-0.175671	0.542471	0.048713	0.838661
07526	5.151914	-1.463548	8.717117	0.008420	-0.010843	-0.011594	-0.761850	-0.392151	0.515561	0.354033	-0.918607	-0.175561	0.542444	0.048774	0.838675
07527	5.144724	-1.475972	8.747728	0.007492	-0.001363	-0.002438	-0.761851	-0.392101	0.515596	0.354010	-0.918626	-0.175508	0.542457	0.048815	0.838664
07528	5.123406	-1.525158	8.740113	0.005287	0.004049	0.003929	-0.761915	-0.392157	0.515460	0.354071	-0.918604	-0.175504	0.542328	0.048790	0.838749
07529	5.147748	-1.608940	8.748940	0.006082	0.011125	0.008640	-0.761945	-0.392215	0.515371	0.354124	-0.918580	-0.175519	0.542250	0.048769	0.838801
07530	5.167110	-1.603771	8.737889	0.008611	0.016662	0.010233	-0.762055	-0.392334	0.515118	0.354251	-0.918531	-0.175518	0.542014	0.048726	0.838956
07531	5.115865	-1.604695	8.803609	0.009160	0.029030	0.011546	-0.762172	-0.392428	0.514874	0.354344	-0.918495	-0.175523	0.541789	0.048664	0.839105
07532	5.099444	-1.663161	8.756866	0.009690	0.030354	0.016262	-0.762333	-0.392609	0.514496	0.354522	-0.918422	-0.175544	0.541445	0.048578	0.839332
07533	5.084026	-1.587388	8.769335	0.011951	0.038582	0.010473	-0.762506	-0.392697	0.514173	0.354621	-0.918388	-0.175519	0.541137	0.048503	0.839535
07534	5.047247	-1.561108	8.774124	0.011195	0.034971	0.011073	-0.762710	-0.392832	0.513767	0.354768	-0.918335	-0.175500	0.540752	0.048413	0.839788
07535	4.989895	-1.540214	8.790566	0.007469	0.033165	0.018635	-0.762824	-0.392992	0.513475	0.354906	-0.918271	-0.175555	0.540501	0.048318	0.839955
07536	4.895081	-1.663131	8.831149	0.007429	0.028831	0.011998	-0.762992	-0.393132	0.513119	0.355039	-0.918217	-0.175571	0.540177	0.048218	0.840169
07537	4.818415	-1.905090	8.900560	0.013548	0.006287	0.000900	-0.763023	-0.393117	0.513084	0.355074	-0.918220	-0.175483	0.540109	0.048285	0.840209
07538	4.872786	-1.946058	8.876429	0.026406	-0.012793	-0.019414	-0.763078	-0.392948	0.513132	0.355071	-0.918280	-0.175179	0.540035	0.048523	0.840243
07539	5.008367	-1.809287	8.813355	0.035822	-0.027062	-0.030849	-0.763042	-0.392625	0.513433	0.354984	-0.918396	-0.174741	0.540143	0.048925	0.840150
07540	5.132406	-1.595815	8.760350	0.041816	-0.026344	-0.038144	-0.763089	-0.392278	0.513627	0.354920	-0.918522	-0.174211	0.540117	0.049358	0.840141
07541	5.135845	-1.523582	8.789008	0.035353	-0.024926	-0.030265	-0.763063	-0.391961	0.513909	0.354835	-0.918636	-0.173781	0.540210	0.049747	0.840058
07542	5.175150	-1.442696	8.734368	0.031391	-0.020571	-0.024776	-0.763094	-0.391738	0.514032	0.354817	-0.918714	-0.173406	0.540178	0.050062	0.840060
07543	5.197702	-1.389587	8.741765	0.023729	-0.005237	-0.012480	-0.763111	-0.391594	0.514117	0.354806	-0.918764	-0.173165	0.540162	0.050268	0.840058
07544	5.156451	-1.397507	8.765718	0.013518	0.002824	-0.004424	-0.763196	-0.391570	0.514009	0.354846	-0.918771	-0.173043	0.540015	0.050328	0.840149
07545	5.134331	-1.468554	8.748916	0.012600	0.014054	0.007370	-0.763246	-0.391618	0.513898	0.354926	-0.918749	-0.172997	0.539892	0.050356	0.840227
07546	5.153292	-1.485501	8.728274	0.008121	0.018818	0.010798	-0.763363	-0.391740	0.513630	0.355053	-0.918700	-0.172999	0.539642	0.050305	0.840390
07547	5.080583	-1.558646	8.776483	0.007172	0.026575	0.017283	-0.763446	-0.391886	0.513396	0.355179	-0.918641	-0.173049	0.539442	0.050234	0.840523
07548	5.119121	-1.571377	8.744528	0.003417	0.030605	0.013471	-0.763617	-0.392038	0.513026	0.355301	-0.918584	-0.173103	0.539120	0.050094	0.840738
07549	5.074653	-1.559664	8.779732	0.002225	0.035216	0.023949	-0.763722	-0.392249	0.512707	0.355451	-0.918502	-0.173229	0.538872	0.049944	0.840906
07550	5.021687	-1.606071	8.826307	0.005205	0.033401	0.016986	-0.763895	-0.392435	0.512308	0.355610	-0.918430	-0.173285	0.538522	0.049810	0.841138
07551	5.018566	-1.629000	8.818102	0.001420	0.026396	0.016595	-0.763979	-0.392573	0.512076	0.355700	-0.918378	-0.173380	0.538343	0.049687	0.841260
07552	4.954185	-1.622175	8.864566	0.000633	0.020182	0.013223	-0.764094	-0.392717	0.511794	0.355805	-0.918323	-0.173454	0.538111	0.049564	0.841416
07553	4.994061	-1.635219	8.831832	0.000075	0.007815	0.011933	-0.764094	-0.392804	0.511727	0.355852	-0.918289	-0.173537	0.538079	0.049501	0.841440
07554	4.992996	-1.680548	8.812567	-0.000707	0.002470	0.009888	-0.764126	-0.392908	0.511600	0.355925	-0.918248	-0.173605	0.537987	0.049435	0.841503
07555	5.047592	-1.656953	8.817585	0.002498	-0.005499	0.005010	-0.764079	-0.392925	0.511657	0.355931	-0.918240	-0.173632	0.538048	0.049447	0.841462
07556	5.098033	-1.566667	8.792156	-0.000251	-0.003145	0.003996	-0.764101	-0.392972	0.511588	0.355962	-0.918222	-0.173665	0.537997	0.049408	0.841497
07557	5.201987	-1.497424	8.752631	0.001324	0.008412	0.009411	-0.764114	-0.393036	0.511520	0.355996	-0.918198	-0.173724	0.537957	0.049354	0.841526
07558	5.146335	-1.477322	8.767822	-0.002341	0.021128	0.018854	-0.764213	-0.393231	0.511222	0.356128	-0.918122	-0.173851	0.537728	0.049201	0.841681
07559	5.152020	-1.443376	8.747919	-0.012552	0.028327	0.025565	-0.764275	-0.393453	0.510959	0.356211	-0.918041	-0.174110	0.537585	0.048942	0.841788
07560	5.106197	-1.523190	8.743911	-0.014436	0.042968	0.037197	-0.764426	-0.393826	0.510445	0.356419	-0.917900	-0.174431	0.537233	0.048593	0.842033
07561	5.106393	-1.548375	8.795832	-0.017134	0.048792	0.041479	-0.764541	-0.394204	0.509981	0.356599	-0.917758	-0.174809	0.536949	0.048211	0.842236
07562	5.101513	-1.529965	8.807874	-0.023352	0.052496	0.044022	-0.764717	-0.394643	0.509376	0.356811	-0.917593	-0.175238	0.536557	0.047743	0.842513
07563	5.062394	-1.530878	8.803081	-0.023791	0.057235	0.048580	-0.764852	-0.395090	0.508828	0.357010	-0.917426	-0.175708	0.536232	0.047266	0.842746
07564	5.047951	-1.593489	8.816910	-0.022503	0.059561	0.048703	-0.765049	-0.395574	0.508155	0.357263	-0.917242	-0.176154	0.535783	0.046779	0.843059
07565	5.020190	-1.670033	8.802019	-0.022451	0.062155	0.052670	-0.765195	-0.396059	0.507557	0.357501	-0.917057	-0.176633	0.535416	0.046294	0.843319
07566	5.035286	-1.602434	8.822528	-0.018145	0.066134	0.051144	-0.765417	-0.396568	0.506824	0.357796	-0.916861	-0.177053	0.534901	0.045821	0.843672
07567	5.049472	-1.601656	8.813848	-0.015865	0.065909	0.052742	-0.765582	-0.397055	0.506194	0.358071	-0.916672	-0.177476	0.534481	0.045381	0.843961
07568	4.845416	-1.628606	8.813086	-0.024029	0.074714	0.052318	-0.765845	-0.397577	0.505386	0.358343	-0.916474	-0.177950	0.533922	0.044819	0.844345
07569	4.714318	-1.640116	8.895633	-0.027519	0.047616	0.044138	-0.765941	-0.397976	0.504924	0.358490	-0.916323	-0.178428	0.533684	0.044345	0.844520
07570	4.742825	-1.884013	8.955922	-0.027566	0.017440	0.029755	-0.765979	-0.398266	0.504640	0.358572	-0.916215	-0.178818	0.533575	0.043979	0.844608
07571	4.791064	-1.930799	8.872205	-0.015059	-0.006532	0.010864	-0.765906	-0.398336	0.504695	0.358530	-0.916192	-0.179022	0.533708	0.043834	0.844532
07572	4.850611	-1.997147	8.897145	-0.001730	-0.023436	-0.003330	-0.765844	-0.398304	0.504814	0.358497	-0.916204	-0.179027	0.533820	0.043868	0.844460
07573	4.945955	-1.873734	8.857747	0.012959	-0.027841	-0.022133	-0.765775	-0.398063	0.505108	0.358352	-0.916299	-0.178828	0.534015	0.044065	0.844326
07574	5.063274	-1.699346	8.826141	0.017921	-0.033022	-0.023480	-0.765734	-0.397842	0.505344	0.358269	-0.916383	-0.178565	0.534130	0.044316	0.844240
07575	5.125264	-1.570526	8.779389	0.020785	-0.021753	-0.021903	-0.765697	-0.397606	0.505587	0.358168	-0.916474	-0.178301	0.534251	0.044560	0.844151
07576	5.060953	-1.471229	8.803450	0.016654	-0.009507	-0.015861	-0.765754	-0.397465	0.505611	0.358137	-0.916528	-0.178088	0.534190	0.044707	0.844181
07577	5.040806	-1.474459	8.815037	0.009728	-0.003337	-0.003445	-0.765749	-0.397405	0.505665	0.358117	-0.916550	-0.178010	0.534210	0.044776	0.844165
07578	5.029065	-1.398337	8.825418	0.002266	0.000646	0.002934	-0.765793	-0.397440	0.505571	0.358153	-0.916536	-0.178012	0.534124	0.044752	0.844221
07579	5.053873	-1.438531	8.853740	-0.011706	0.003464	0.013191	-0.765765	-0.397536	0.505538	0.358147	-0.916502	-0.178200	0.534168	0.044598	0.844201
07580	5.031032	-1.557138	8.816444	-0.015190	0.004817	0.016748	-0.765781	-0.397699	0.505385	0.358194	-0.916441	-0.178417	0.534112	0.044398	0.844247
07581	5.020147	-1.729466	8.778515	-0.017678	0.004486	0.023105	-0.765723	-0.397886	0.505326	0.358232	-0.916370	-0.178706	0.534170	0.044185	0.844222
07582	4.985550	-1.728307	8.771297	-0.014370	0.011018	0.020119	-0.765760	-0.398083	0.505115	0.358311	-0.916295	-0.178933	0.534064	0.043969	0.844300
07583	4.997000	-1.738738	8.790662	-0.009634	0.010262	0.014045	-0.765766	-0.398190	0.505023	0.358322	-0.916256	-0.179107	0.534049	0.043807	0.844318
07584	5.025686	-1.677158	8.768106	-0.006921	0.006169	0.012415	-0.765804	-0.398313	0.504867	0.358381	-0.916209	-0.179232	0.533954	0.043678	0.844384
07585	5.004356	-1.638455	8.799837	-0.005354	0.013378	0.011210	-0.765836	-0.398395	0.504754	0.358394	-0.916180	-0.179357	0.533900	0.043543	0.844426
07586	5.002996	-1.639516	8.800412	-0.004851	0.012967	0.013272	-0.765908	-0.398529	0.504540	0.358470	-0.916128	-0.179468	0.533746	0.043406	0.844530
07587	4.926209	-1.646606	8.817128	-0.004066	0.016572	0.012669	-0.765952	-0.398626	0.504396	0.358501	-0.916092	-0.179589	0.533662	0.043270	0.844590
07588	4.854074	-1.697940	8.873516	-0.006464	0.002297	0.009174	-0.765981	-0.398717	0.504280	0.358537	-0.916058	-0.179693	0.533597	0.043162	0.844637
07589	4.865717	-1.796570	8.853035	-0.002831	-0.008673	0.002394	-0.765927	-0.398708	0.504369	0.358495	-0.916063	-0.179751	0.533702	0.043138	0.844572
07590	4.862534	-1.898699	8.903346	0.004261	-0.022727	-0.010594	-0.765893	-0.398608	0.504500	0.358438	-0.916102	-0.179665	0.533789	0.043228	0.844512
07591	5.033399	-1.769358	8.847713	0.003901	-0.032799	-0.017208	-0.765780	-0.398410	0.504827	0.358282	-0.916182	-0.179567	0.534055	0.043361	0.844337
07592	5.137243	-1.632147	8.777340	0.010740	-0.024161	-0.018448	-0.765766	-0.398237	0.504985	0.358200	-0.916250	-0.179387	0.534131	0.043517	0.844281
07593	5.114398	-1.568646	8.758099	0.011104	-0.014089	-0.011837	-0.765734	-0.398096	0.505144	0.358124	-0.916305	-0.179256	0.534227	0.043642	0.844214
07594	5.116270	-1.500220	8.787218	0.009700	-0.005070	-0.006096	-0.765777	-0.398044	0.505119	0.358130	-0.916324	-0.179146	0.534161	0.043713	0.844252
07595	5.048945	-1.514511	8.762864	0.004802	0.004437	0.001877	-0.765795	-0.398037	0.505098	0.358125	-0.916328	-0.179137	0.534138	0.043706	0.844267
07596	5.040325	-1.505602	8.803854	0.000874	0.010529	0.009999	-0.765864	-0.398139	0.504913	0.358207	-0.916287	-0.179182	0.533985	0.043634	0.844368
07597	5.008829	-1.636310	8.797691	-0.003401	0.007413	0.012834	-0.765859	-0.398233	0.504847	0.358242	-0.916250	-0.179298	0.533969	0.043541	0.844382
07598	4.999322	-1.672770	8.819081	0.000888	0.011394	0.011324	-0.765928	-0.398346	0.504653	0.358334	-0.916205	-0.179348	0.533808	0.043466	0.844488
07599	5.005623	-1.704873	8.769276	-0.004849	0.012970	0.013272	-0.765951	-0.398447	0.504539	0.358365	-0.916167	-0.179479	0.533755	0.043337	0.844528
07600	4.963385	-1.670870	8.812771	-0.003902	0.007822	0.010771	-0.766002	-0.398553	0.504377	0.358426	-0.916126	-0.179567	0.533640	0.043233	0.844606
07601	4.966885	-1.715957	8.852972	-0.002944	0.003540	0.009595	-0.765987	-0.398616	0.504349	0.358440	-0.916102	-0.179663	0.533652	0.043160	0.844602
07602	5.029307	-1.679603	8.827832	0.000562	0.003916	0.008688	-0.766026	-0.398701	0.504224	0.358509	-0.916067	-0.179702	0.533551	0.043112	0.844669
07603	5.021653	-1.626469	8.888149	-0.002465	0.001399	0.009006	-0.766002	-0.398758	0.504216	0.358520	-0.916045	-0.179791	0.533578	0.043051	0.844655
07604	5.004041	-1.619101	8.809452	-0.003237	-0.001340	0.010934	-0.766003	-0.398862	0.504131	0.358588	-0.916002	-0.179874	0.533530	0.042992	0.844687
07605	5.057773	-1.641177	8.795307	-0.005676	0.005904	0.008573	-0.766004	-0.398917	0.504086	0.358578	-0.915984	-0.179987	0.533534	0.042883	0.844691
07606	5.044725	-1.611454	8.786267	-0.008667	0.005983	0.012866	-0.766038	-0.399040	0.503937	0.358630	-0.915937	-0.180125	0.533451	0.042744	0.844750
07607	4.980635	-1.671989	8.801975	-0.005135	0.008088	0.014610	-0.766030	-0.399151	0.503862	0.358670	-0.915893	-0.180264	0.533436	0.042632	0.844765
07608	4.916238	-1.754414	8.807913	-0.002671	0.006689	0.005604	-0.766093	-0.399208	0.503720	0.358698	-0.915872	-0.180314	0.533327	0.042546	0.844839
07609	4.919361	-1.843364	8.828446	0.008016	-0.000072	0.002313	-0.766085	-0.399203	0.503736	0.358714	-0.915873	-0.180281	0.533327	0.042587	0.844836
07610	4.987370	-1.804993	8.862829	0.013188	-0.005565	-0.008321	-0.766132	-0.399128	0.503724	0.358721	-0.915900	-0.180127	0.533255	0.042695	0.844877
07611	5.101103	-1.720757	8.793295	0.019221	-0.002264	-0.011608	-0.766163	-0.398995	0.503783	0.358690	-0.915952	-0.179928	0.533232	0.042848	0.844883
07612	5.056111	-1.616765	8.806638	0.019825	0.008360	-0.012964	-0.766301	-0.398882	0.503662	0.358695	-0.915995	-0.179695	0.533029	0.042961	0.845005
07613	5.055549	-1.614663	8.807347	0.017839	0.007620	-0.004546	-0.766359	-0.398817	0.503625	0.358711	-0.916019	-0.179544	0.532936	0.043061	0.845059
07614	5.008705	-1.578072	8.791664	0.023432	0.015658	-0.003273	-0.766501	-0.398797	0.503426	0.358811	-0.916022	-0.179328	0.532664	0.043179	0.845224
07615	4.999189	-1.589743	8.823462	0.012913	0.014533	-0.000556	-0.766581	-0.398772	0.503323	0.358831	-0.916032	-0.179239	0.532535	0.043207	0.845304
07616	4.989601	-1.602120	8.855169	0.011687	0.015667	0.004608	-0.766695	-0.398823	0.503110	0.358927	-0.916009	-0.179161	0.532307	0.043218	0.845448
07617	4.933747	-1.625161	8.850427	0.004353	0.008307	0.005113	-0.766721	-0.398847	0.503050	0.358945	-0.916000	-0.179173	0.532256	0.043192	0.845481
07618	4.874963	-1.683800	8.925698	0.000968	-0.003416	0.000152	-0.766750	-0.398847	0.503006	0.358949	-0.916000	-0.179163	0.532213	0.043181	0.845509
07619	4.958773	-1.709071	8.858850	0.000328	-0.016638	-0.002461	-0.766671	-0.398791	0.503171	0.358887	-0.916023	-0.179170	0.532368	0.043217	0.845409
07620	4.981368	-1.704073	8.846219	-0.000970	-0.020699	-0.005245	-0.766625	-0.398737	0.503283	0.358843	-0.916044	-0.179150	0.532463	0.043259	0.845347
07621	5.025436	-1.694200	8.821539	-0.000307	-0.029861	-0.005076	-0.766486	-0.398651	0.503564	0.358758	-0.916078	-0.179149	0.532722	0.043342	0.845180
07622	5.057488	-1.630837	8.797394	0.002026	-0.020782	-0.009540	-0.766456	-0.398555	0.503685	0.358693	-0.916117	-0.179082	0.532808	0.043410	0.845122
07623	5.025748	-1.626805	8.789089	-0.001432	-0.017693	-0.003335	-0.766375	-0.398490	0.503860	0.358615	-0.916144	-0.179099	0.532978	0.043434	0.845014
07624	5.069045	-1.594685	8.774745	0.000652	-0.010028	-0.001157	-0.766372	-0.398477	0.503876	0.358608	-0.916149	-0.179085	0.532987	0.043449	0.845007
07625	5.053997	-1.576666	8.855460	0.000198	-0.006155	0.002080	-0.766332	-0.398467	0.503944	0.358581	-0.916153	-0.179116	0.533062	0.043442	0.844960
07626	5.041115	-1.613200	8.816526	-0.003285	-0.004798	0.005637	-0.766331	-0.398519	0.503904	0.358608	-0.916133	-0.179169	0.533045	0.043401	0.844973
07627	4.998668	-1.690481	8.810360	-0.002010	-0.002469	0.005770	-0.766298	-0.398544	0.503934	0.358597	-0.916124	-0.179237	0.533100	0.043360	0.844940
07628	4.976736	-1.784810	8.782784	0.004979	-0.003452	0.001305	-0.766320	-0.398556	0.503891	0.358633	-0.916117	-0.179198	0.533044	0.043389	0.844974
07629	5.006696	-1.721373	8.759827	0.005727	-0.002446	-0.003274	-0.766320	-0.398499	0.503937	0.358594	-0.916141	-0.179156	0.533071	0.043418	0.844956
07630	5.011922	-1.720092	8.819352	0.008450	-0.005675	-0.003577	-0.766347	-0.398465	0.503922	0.358611	-0.916152	-0.179062	0.533020	0.043488	0.844984
07631	5.062900	-1.651008	8.784716	0.016739	-0.002597	-0.005261	-0.766353	-0.398389	0.503973	0.358615	-0.916179	-0.178917	0.533008	0.043619	0.844985
07632	5.042634	-1.632010	8.806342	0.010988	-0.001884	-0.004636	-0.766405	-0.398346	0.503929	0.358637	-0.916194	-0.178797	0.532919	0.043697	0.845037
07633	5.043309	-1.586177	8.826085	0.010534	0.001990	-0.001401	-0.766421	-0.398308	0.503934	0.358638	-0.916208	-0.178723	0.532895	0.043753	0.845049
07634	5.043375	-1.562905	8.836170	0.011062	0.003314	0.003311	-0.766472	-0.398339	0.503832	0.358720	-0.916192	-0.178642	0.532767	0.043811	0.845127
07635	5.028999	-1.643245	8.778367	0.006573	0.005490	0.002743	-0.766493	-0.398340	0.503800	0.358732	-0.916191	-0.178623	0.532730	0.043816	0.845150
07636	5.020174	-1.678557	8.799627	0.006280	0.000610	0.004087	-0.766526	-0.398377	0.503720	0.358794	-0.916173	-0.178585	0.532639	0.043842	0.845206
07637	5.032728	-1.664038	8.828829	0.010853	0.008601	-0.000096	-0.766573	-0.398353	0.503667	0.358807	-0.916182	-0.178516	0.532563	0.043874	0.845252
07638	5.048412	-1.636708	8.767793	0.006586	0.006356	0.004067	-0.766637	-0.398392	0.503539	0.358870	-0.916165	-0.178475	0.532428	0.043879	0.845337
07639	5.060990	-1.600043	8.806890	0.007862	0.008685	0.004199	-0.766669	-0.398407	0.503477	0.358900	-0.916158	-0.178453	0.532362	0.043884	0.845379
07640	5.030746	-1.617793	8.850140	0.008696	0.015755	0.008889	-0.766765	-0.398496	0.503262	0.359013	-0.916120	-0.178418	0.532147	0.043873	0.845514
07641	4.962249	-1.610311	8.836286	0.003410	0.013461	0.007602	-0.766810	-0.398545	0.503154	0.359045	-0.916102	-0.178450	0.532061	0.043817	0.845572
07642	4.961043	-1.610469	8.836935	0.002638	0.010723	0.009532	-0.766877	-0.398635	0.502980	0.359130	-0.916065	-0.178470	0.531907	0.043770	0.845671
07643	4.879394	-1.785864	8.875417	0.004048	0.002565	0.005127	-0.766874	-0.398657	0.502969	0.359146	-0.916055	-0.178484	0.531901	0.043764	0.845675
07644	4.911921	-1.878283	8.843714	0.012426	-0.008314	-0.006389	-0.766898	-0.398591	0.502985	0.359158	-0.916079	-0.178341	0.531859	0.043882	0.845695
07645	5.006016	-1.777012	8.794863	0.013040	-0.020944	-0.011511	-0.766828	-0.398449	0.503202	0.359094	-0.916132	-0.178195	0.532001	0.044052	0.845597
07646	5.071978	-1.648614	8.807887	0.017606	-0.013823	-0.017021	-0.766860	-0.398286	0.503283	0.359055	-0.916194	-0.177955	0.531982	0.044240	0.845599
07647	5.052735	-1.628891	8.829020	0.016406	-0.010950	-0.009209	-0.766836	-0.398170	0.503412	0.359027	-0.916236	-0.177793	0.532036	0.044401	0.845557
07648	5.049627	-1.582874	8.788646	0.013658	-0.009455	-0.011557	-0.766872	-0.398055	0.503447	0.359005	-0.916280	-0.177613	0.531998	0.044533	0.845573
07649	5.050918	-1.536439	8.808059	0.014995	-0.002790	-0.004807	-0.766876	-0.397984	0.503499	0.359004	-0.916305	-0.177485	0.531995	0.044649	0.845570
07650	5.051162	-1.535326	8.808113	0.008505	-0.002210	0.001722	-0.766899	-0.398000	0.503450	0.359064	-0.916295	-0.177415	0.531920	0.044711	0.845613
07651	5.054690	-1.623594	8.828877	0.009805	0.001854	0.004499	-0.766894	-0.398015	0.503446	0.359106	-0.916286	-0.177378	0.531900	0.044760	0.845624
07652	5.032457	-1.695083	8.811720	0.007092	0.005951	0.006124	-0.766946	-0.398073	0.503321	0.359189	-0.916260	-0.177342	0.531768	0.044776	0.845706
07653	5.018780	-1.708474	8.783405	0.009607	0.008006	0.002412	-0.766981	-0.398072	0.503269	0.359214	-0.916260	-0.177295	0.531701	0.044799	0.845747
07654	5.081201	-1.648493	8.768297	0.011375	0.009060	0.003281	-0.767059	-0.398105	0.503123	0.359298	-0.916243	-0.177209	0.531531	0.044842	0.845851
07655	5.101641	-1.598035	8.776812	0.014934	0.012903	0.007666	-0.767101	-0.398154	0.503020	0.359392	-0.916219	-0.177143	0.531407	0.044894	0.845926
07656	5.121024	-1.570105	8.775997	0.012050	0.024888	0.009847	-0.767242	-0.398250	0.502729	0.359525	-0.916178	-0.177084	0.531113	0.044878	0.846112
07657	5.001105	-1.607580	8.807377	0.011109	0.030040	0.012337	-0.767358	-0.398350	0.502473	0.359634	-0.916137	-0.177074	0.530872	0.044827	0.846266
07658	4.998311	-1.607215	8.809029	0.011603	0.028764	0.013075	-0.767506	-0.398479	0.502144	0.359793	-0.916083	-0.177034	0.530550	0.044793	0.846469
07659	4.995253	-1.629238	8.800929	0.011607	0.028763	0.013073	-0.767613	-0.398585	0.501897	0.359910	-0.916039	-0.177024	0.530316	0.044752	0.846618
07660	4.952148	-1.548895	8.864758	0.010320	0.025566	0.011619	-0.767748	-0.398700	0.501598	0.360052	-0.915990	-0.176988	0.530024	0.044719	0.846803
07661	4.894113	-1.639791	8.831460	0.000780	0.022771	0.017142	-0.767808	-0.398841	0.501395	0.360143	-0.915935	-0.177090	0.529875	0.044603	0.846902
07662	4.845535	-1.796894	8.887569	-0.001707	0.003286	0.005745	-0.767847	-0.398892	0.501295	0.360175	-0.915915	-0.177125	0.529798	0.044549	0.846953
07663	4.962805	-1.781259	8.848117	0.007177	-0.008013	-0.003691	-0.767818	-0.398828	0.501389	0.360140	-0.915940	-0.177068	0.529862	0.044614	0.846909
07664	4.993766	-1.695103	8.834476	0.009410	-0.009970	-0.004727	-0.767823	-0.398778	0.501421	0.360152	-0.915957	-0.176957	0.529847	0.044716	0.846914
07665	5.023863	-1.676009	8.791636	0.009411	-0.009970	-0.004727	-0.767789	-0.398704	0.501533	0.360121	-0.915984	-0.176876	0.529918	0.044809	0.846864
07666	5.067533	-1.598103	8.797044	0.011168	-0.009785	-0.005181	-0.767796	-0.398651	0.501565	0.360140	-0.916002	-0.176748	0.529895	0.044928	0.846872
07667	5.076908	-1.539000	8.785570	0.009270	-0.000348	-0.001529	-0.767800	-0.398610	0.501590	0.360133	-0.916017	-0.176684	0.529893	0.044981	0.846871
07668	4.993495	-1.534995	8.842339	0.006068	0.005026	-0.000650	-0.767872	-0.398599	0.501489	0.360153	-0.916021	-0.176621	0.529775	0.044990	0.846944
07669	5.004923	-1.610393	8.832506	0.003275	-0.000164	0.007058	-0.767847	-0.398637	0.501497	0.360180	-0.916005	-0.176652	0.529794	0.044988	0.846933
07670	5.016778	-1.663715	8.832262	0.002785	0.001110	0.006318	-0.767870	-0.398693	0.501417	0.360241	-0.915981	-0.176651	0.529718	0.044986	0.846980
07671	4.962274	-1.665052	8.836582	0.000253	-0.001809	0.008706	-0.767831	-0.398745	0.501437	0.360265	-0.915959	-0.176715	0.529760	0.044963	0.846955
07672	5.024661	-1.673181	8.791719	0.004504	-0.001310	0.001896	-0.767859	-0.398754	0.501385	0.360296	-0.915954	-0.176678	0.529697	0.044984	0.846993
07673	4.991487	-1.646711	8.794088	0.005771	0.000149	0.000702	-0.767859	-0.398734	0.501402	0.360288	-0.915962	-0.176655	0.529704	0.045003	0.846988
07674	5.025307	-1.627522	8.811289	0.005771	0.000149	0.000702	-0.767898	-0.398736	0.501341	0.360320	-0.915960	-0.176601	0.529625	0.045032	0.847035
07675	5.046022	-1.622375	8.799749	0.005808	0.002754	0.004669	-0.767896	-0.398753	0.501329	0.360342	-0.915951	-0.176598	0.529612	0.045041	0.847043
07676	5.012496	-1.595895	8.802314	0.007062	0.003345	0.002152	-0.767946	-0.398771	0.501239	0.360393	-0.915942	-0.176540	0.529505	0.045070	0.847109
07677	5.045931	-1.577026	8.819673	0.002321	0.004121	0.008222	-0.767939	-0.398821	0.501209	0.360424	-0.915922	-0.176584	0.529494	0.045042	0.847117
07678	5.024099	-1.582089	8.831864	0.002181	0.013745	0.011418	-0.768012	-0.398925	0.501015	0.360517	-0.915879	-0.176613	0.529325	0.044984	0.847226
07679	5.010057	-1.596517	8.803590	0.000603	0.006542	0.012643	-0.768002	-0.399018	0.500957	0.360573	-0.915842	-0.176694	0.529301	0.044930	0.847243
07680	4.941820	-1.612259	8.779439	-0.004390	0.009127	0.010005	-0.768054	-0.399108	0.500805	0.360622	-0.915807	-0.176772	0.529192	0.044831	0.847317
07681	4.873736	-1.729526	8.866274	-0.006008	-0.000682	0.007263	-0.768025	-0.399147	0.500818	0.360602	-0.915794	-0.176882	0.529248	0.044746	0.847287
07682	4.856511	-1.845976	8.888654	-0.000163	-0.014499	-0.001844	-0.767992	-0.399124	0.500887	0.360590	-0.915803	-0.176864	0.529304	0.044785	0.847249
07683	4.971166	-1.786019	8.808254	0.005030	-0.019156	-0.011140	-0.767932	-0.398987	0.501089	0.360486	-0.915858	-0.176788	0.529462	0.044874	0.847146
07684	5.028354	-1.738721	8.822430	0.013501	-0.023978	-0.013379	-0.767897	-0.398842	0.501258	0.360443	-0.915912	-0.176598	0.529543	0.045066	0.847085
07685	5.060754	-1.651432	8.808097	0.015521	-0.021524	-0.019155	-0.767853	-0.398630	0.501494	0.360333	-0.915994	-0.176393	0.529681	0.045261	0.846988
07686	5.100910	-1.573039	8.753334	0.017293	-0.020472	-0.018289	-0.767848	-0.398451	0.501644	0.360284	-0.916061	-0.176145	0.529722	0.045481	0.846951
07687	5.048453	-1.527337	8.776657	0.013225	-0.004730	-0.006991	-0.767849	-0.398358	0.501716	0.360256	-0.916096	-0.176021	0.529739	0.045589	0.846935
07688	5.069933	-1.498783	8.774698	0.012785	0.000020	-0.002442	-0.767897	-0.398331	0.501664	0.360301	-0.916103	-0.175890	0.529639	0.045684	0.846992
07689	5.073511	-1.564275	8.805536	0.008329	0.004805	0.000953	-0.767920	-0.398315	0.501641	0.360308	-0.916109	-0.175847	0.529601	0.045709	0.847015
07690	4.997196	-1.614352	8.802569	0.007064	0.003346	0.002148	-0.767969	-0.398331	0.501555	0.360358	-0.916101	-0.175788	0.529496	0.045740	0.847078
07691	5.042951	-1.626098	8.829356	0.005332	0.004900	0.005247	-0.767977	-0.398354	0.501523	0.360382	-0.916091	-0.175792	0.529468	0.045736	0.847096
07692	5.016983	-1.608944	8.791586	0.005618	0.008906	0.002570	-0.768053	-0.398376	0.501389	0.360428	-0.916081	-0.175747	0.529326	0.045732	0.847185
07693	5.020306	-1.652850	8.832298	0.003601	0.006453	0.008346	-0.768058	-0.398429	0.501339	0.360466	-0.916060	-0.175781	0.529293	0.045706	0.847207
07694	5.015340	-1.631258	8.782678	0.004067	0.003441	0.006443	-0.768092	-0.398481	0.501245	0.360530	-0.916037	-0.175768	0.529199	0.045708	0.847265
07695	5.006288	-1.644378	8.813980	0.005670	0.012382	0.007858	-0.768131	-0.398532	0.501146	0.360576	-0.916016	-0.175782	0.529113	0.045678	0.847321
07696	5.005042	-1.666666	8.804849	0.005346	0.005768	0.006569	-0.768175	-0.398590	0.501032	0.360652	-0.915991	-0.175759	0.528997	0.045684	0.847393
07697	5.046699	-1.612145	8.801241	0.006136	0.009369	0.005954	-0.768204	-0.398622	0.500962	0.360685	-0.915977	-0.175760	0.528931	0.045670	0.847435
07698	5.003949	-1.621318	8.825287	0.007403	0.010827	0.004759	-0.768288	-0.398654	0.500808	0.360744	-0.915964	-0.175710	0.528770	0.045668	0.847536
07699	5.023477	-1.638570	8.804566	0.007404	0.010827	0.004758	-0.768329	-0.398676	0.500728	0.360775	-0.915955	-0.175694	0.528689	0.045660	0.847587
07700	5.044130	-1.566386	8.822599	0.005699	0.014120	0.010500	-0.768401	-0.398777	0.500537	0.360888	-0.915912	-0.175687	0.528508	0.045639	0.847701
07701	5.008482	-1.607380	8.796717	0.008724	0.015761	0.008850	-0.768453	-0.398839	0.500407	0.360957	-0.915885	-0.175680	0.528384	0.045624	0.847779
07702	5.052854	-1.619430	8.824277	0.003768	0.020953	0.010176	-0.768564	-0.398935	0.500160	0.361051	-0.915847	-0.175688	0.528158	0.045556	0.847923
07703	5.059024	-1.606509	8.794618	0.003796	0.022692	0.012818	-0.768639	-0.399036	0.499965	0.361125	-0.915807	-0.175743	0.527999	0.045467	0.848027
07704	5.048173	-1.619892	8.826872	0.008157	0.030136	0.016581	-0.768774	-0.399198	0.499628	0.361295	-0.915740	-0.175745	0.527687	0.045404	0.848225
07705	5.044328	-1.664830	8.809347	0.008478	0.035878	0.016543	-0.768904	-0.399339	0.499314	0.361422	-0.915683	-0.175779	0.527409	0.045306	0.848403
07706	5.007817	-1.638782	8.813443	0.009460	0.033329	0.018025	-0.769046	-0.399522	0.498949	0.361618	-0.915606	-0.175777	0.527068	0.045248	0.848618
07707	4.983999	-1.621120	8.836605	0.008964	0.033732	0.015959	-0.769167	-0.399657	0.498655	0.361744	-0.915552	-0.175803	0.526805	0.045163	0.848785
07708	4.968185	-1.612806	8.819258	0.007712	0.033143	0.018473	-0.769312	-0.399831	0.498290	0.361919	-0.915479	-0.175819	0.526472	0.045081	0.848996
07709	4.943844	-1.639930	8.823000	0.011694	0.030495	0.015667	-0.769417	-0.399962	0.498023	0.362057	-0.915425	-0.175820	0.526224	0.045033	0.849152
07710	4.924201	-1.688653	8.876414	0.003817	0.022687	0.012807	-0.769529	-0.400078	0.497758	0.362165	-0.915378	-0.175840	0.525986	0.044956	0.849304
07711	4.971966	-1.688639	8.813813	0.008310	0.020504	0.013388	-0.769589	-0.400183	0.497580	0.362267	-0.915334	-0.175859	0.525827	0.044918	0.849404
07712	4.991976	-1.616568	8.832227	0.008786	0.018360	0.012809	-0.769676	-0.400301	0.497351	0.362407	-0.915283	-0.175837	0.525605	0.044907	0.849543
07713	4.986701	-1.527698	8.812402	0.007367	0.024789	0.014541	-0.769754	-0.400419	0.497135	0.362514	-0.915234	-0.175869	0.525416	0.044842	0.849663
07714	5.005089	-1.523151	8.802183	0.006910	0.027800	0.016438	-0.769876	-0.400575	0.496820	0.362673	-0.915169	-0.175881	0.525128	0.044777	0.849844
07715	5.011447	-1.443490	8.801934	-0.001513	0.035240	0.022613	-0.769980	-0.400771	0.496501	0.362794	-0.915092	-0.176029	0.524891	0.044589	0.850001
07716	4.914686	-1.544390	8.851991	-0.010274	0.036069	0.027506	-0.770106	-0.401030	0.496097	0.362946	-0.914991	-0.176240	0.524602	0.044333	0.850193
07717	4.871807	-1.689617	8.878416	-0.008352	0.029233	0.027836	-0.770159	-0.401271	0.495819	0.363072	-0.914897	-0.176472	0.524436	0.044106	0.850307
07718	4.850421	-1.852530	8.883003	-0.014062	0.015995	0.018662	-0.770211	-0.401441	0.495601	0.363138	-0.914832	-0.176672	0.524315	0.043897	0.850392
07719	5.018003	-1.749544	8.819393	-0.006455	0.004085	0.011786	-0.770190	-0.401525	0.495565	0.363150	-0.914801	-0.176808	0.524336	0.043788	0.850385
07720	5.005391	-1.675225	8.829562	-0.008782	0.016537	0.017311	-0.770247	-0.401686	0.495346	0.363238	-0.914738	-0.176957	0.524192	0.043628	0.850482
07721	4.988157	-1.579284	8.790112	-0.003504	0.017079	0.015961	-0.770280	-0.401813	0.495192	0.363298	-0.914688	-0.177089	0.524103	0.043494	0.850544
07722	4.978814	-1.526567	8.850725	-0.006964	0.020192	0.022141	-0.770343	-0.402011	0.494933	0.363420	-0.914609	-0.177245	0.523925	0.043329	0.850662
07723	4.845612	-1.602022	8.842285	-0.009673	0.023427	0.022422	-0.770386	-0.402199	0.494714	0.363498	-0.914536	-0.177462	0.523809	0.043113	0.850744
07724	4.581387	-1.829881	8.944959	-0.012989	0.002956	0.015642	-0.770378	-0.402336	0.494614	0.363546	-0.914483	-0.177637	0.523786	0.042967	0.850766
07725	4.833099	-1.876450	8.916349	-0.008768	-0.032898	-0.003292	-0.770219	-0.402265	0.494919	0.363430	-0.914513	-0.177718	0.524100	0.042986	0.850571
07726	4.987176	-1.866010	8.883231	-0.013846	-0.036384	-0.015188	-0.770118	-0.402103	0.495208	0.363236	-0.914585	-0.177749	0.524383	0.042990	0.850397
07727	5.031165	-1.700487	8.865905	-0.002669	-0.044461	-0.017685	-0.769950	-0.401896	0.495637	0.363041	-0.914670	-0.177707	0.524764	0.043111	0.850155
07728	4.997363	-1.674458	8.806379	-0.003756	-0.033161	-0.017312	-0.769876	-0.401711	0.495902	0.362879	-0.914747	-0.177641	0.524986	0.043191	0.850014
07729	5.034883	-1.632894	8.831491	-0.002781	-0.035711	-0.015829	-0.769747	-0.401525	0.496254	0.362698	-0.914825	-0.177609	0.525300	0.043276	0.849816
07730	5.035253	-1.521116	8.818599	-0.002904	-0.026960	-0.013968	-0.769688	-0.401380	0.496461	0.362573	-0.914885	-0.177553	0.525471	0.043343	0.849706
07731	5.039815	-1.386620	8.875293	-0.008104	-0.023161	-0.006013	-0.769590	-0.401289	0.496688	0.362440	-0.914926	-0.177615	0.525708	0.043329	0.849561
07732	5.018106	-1.549037	8.818038	-0.014276	-0.016815	0.000459	-0.769536	-0.401272	0.496784	0.362358	-0.914937	-0.177726	0.525843	0.043247	0.849482
07733	5.018810	-1.595497	8.797568	-0.018532	-0.017303	0.007259	-0.769420	-0.401305	0.496938	0.362272	-0.914929	-0.177942	0.526072	0.043114	0.849346
07734	5.038534	-1.459138	8.783431	-0.015414	-0.010456	0.013541	-0.769347	-0.401420	0.496958	0.362295	-0.914884	-0.178128	0.526163	0.043003	0.849296
07735	4.943341	-1.427322	8.829565	-0.026840	-0.003787	0.022689	-0.769246	-0.401600	0.496969	0.362284	-0.914817	-0.178491	0.526318	0.042740	0.849213
07736	4.931247	-1.645842	8.772632	-0.025760	-0.000262	0.033419	-0.769158	-0.401896	0.496867	0.362400	-0.914699	-0.178863	0.526368	0.042491	0.849195
07737	4.999045	-1.835359	8.769357	-0.015714	0.001230	0.028649	-0.769061	-0.402132	0.496824	0.362493	-0.914604	-0.179161	0.526444	0.042309	0.849156
07738	4.992305	-1.961833	8.811338	-0.002343	0.008367	0.019561	-0.769064	-0.402313	0.496674	0.362635	-0.914527	-0.179265	0.526342	0.042245	0.849223
07739	4.969725	-2.011728	8.803954	0.007606	0.004653	0.006866	-0.769065	-0.402351	0.496642	0.362684	-0.914509	-0.179258	0.526308	0.042263	0.849243
07740	4.915337	-2.011388	8.808329	0.019465	-0.005897	-0.005506	-0.769091	-0.402282	0.496657	0.362729	-0.914532	-0.179053	0.526238	0.042444	0.849277
07741	4.865423	-1.808103	8.899739	0.024145	-0.010155	-0.016849	-0.769100	-0.402097	0.496793	0.362682	-0.914602	-0.178787	0.526258	0.042673	0.849254
07742	4.867036	-1.582001	8.936354	0.017824	-0.031396	-0.020680	-0.769042	-0.401887	0.497053	0.362613	-0.914681	-0.178521	0.526390	0.042948	0.849158
07743	4.862917	-1.570653	8.975097	0.007570	-0.048254	-0.019065	-0.768858	-0.401666	0.497516	0.362462	-0.914768	-0.178384	0.526763	0.043178	0.848915
07744	4.792601	-1.619804	8.968652	-0.002560	-0.074737	-0.020638	-0.768571	-0.401437	0.498143	0.362286	-0.914856	-0.178291	0.527302	0.043441	0.848567
07745	4.802807	-1.752752	8.966042	-0.005819	-0.094352	-0.026122	-0.768169	-0.401131	0.499010	0.362010	-0.914976	-0.178233	0.528077	0.043734	0.848070
07746	4.837671	-1.980410	8.811757	-0.007377	-0.118135	-0.038674	-0.767716	-0.400720	0.500036	0.361673	-0.915137	-0.178090	0.528966	0.044127	0.847495
07747	4.845004	-2.080000	8.857178	0.007617	-0.141033	-0.062551	-0.767196	-0.400058	0.501362	0.361189	-0.915398	-0.177735	0.530050	0.044728	0.846786
07748	4.798568	-2.044454	8.904571	0.021072	-0.171145	-0.085232	-0.766627	-0.399195	0.502917	0.360644	-0.915732	-0.177118	0.531242	0.045591	0.845993
07749	4.600430	-2.120768	9.035217	0.023766	-0.207250	-0.103857	-0.765900	-0.398121	0.504873	0.359930	-0.916148	-0.176416	0.532773	0.046602	0.844974
07750	4.581603	-2.067209	9.167812	0.036483	-0.279665	-0.132918	-0.764919	-0.396763	0.507423	0.359102	-0.916664	-0.175425	0.534738	0.048031	0.843652
07751	4.647793	-1.244997	9.490183	0.030617	-0.333670	-0.183792	-0.763790	-0.394888	0.510576	0.357816	-0.917389	-0.174253	0.537207	0.049599	0.841991
07752	3.345463	-2.050204	9.808259	-0.050658	-0.468110	-0.203442	-0.762034	-0.392766	0.514819	0.355971	-0.918226	-0.173626	0.540915	0.050952	0.839533
07753	4.897569	-0.673076	9.743486	-0.068554	-0.567924	-0.182465	-0.759598	-0.390769	0.519914	0.354165	-0.918990	-0.173278	0.545508	0.052514	0.836459
07754	4.648603	-1.435926	9.463492	-0.064370	-0.724749	-0.164946	-0.756252	-0.388842	0.526199	0.352540	-0.919678	-0.172941	0.551180	0.054719	0.832590
07755	4.524720	-1.249274	9.556432	-0.099603	-0.827525	-0.148600	-0.752186	-0.386986	0.533346	0.350821	-0.920323	-0.173002	0.557800	0.056980	0.828017
07756	4.571490	-1.552123	9.472745	-0.089603	-0.955839	-0.138554	-0.747351	-0.385131	0.541424	0.349257	-0.920921	-0.172984	0.565231	0.059816	0.822761
07757	4.416058	-2.091356	9.694502	-0.105288	-1.109612	-0.175736	-0.741643	-0.382803	0.550842	0.347303	-0.921674	-0.172907	0.573886	0.063074	0.816502
07758	4.076762	-3.234699	10.221015	-0.045588	-1.320567	-0.261580	-0.734948	-0.379520	0.561975	0.345103	-0.922705	-0.171809	0.583742	0.067669	0.809114
07759	3.969726	-3.580493	10.834246	0.125740	-1.593223	-0.391447	-0.726904	-0.374743	0.575481	0.342937	-0.924106	-0.168590	0.594983	0.074805	0.800250
07760	4.309304	-3.642149	10.880633	0.321328	-1.886819	-0.549537	-0.717485	-0.368151	0.591337	0.340897	-0.925894	-0.162818	0.607457	0.084765	0.789817
07761	5.011971	-4.201791	11.449908	0.531234	-2.153402	-0.783547	-0.706919	-0.358897	0.609474	0.338533	-0.928273	-0.153967	0.621017	0.097485	0.777711
07762	5.503667	-4.029333	11.832531	0.602400	-2.398642	-1.117434	-0.695658	-0.345999	0.629559	0.334477	-0.931584	-0.142394	0.635755	0.111516	0.763793
07763	7.029706	-5.427212	11.680061	0.407808	-2.582641	-1.508977	-0.684011	-0.328836	0.651150	0.326646	-0.936210	-0.129663	0.652251	0.124005	0.747791
07764	7.801315	-8.358126	10.950805	0.409667	-2.582089	-1.896759	-0.673118	-0.307673	0.672495	0.316473	-0.941717	-0.114079	0.668399	0.136038	0.731257
07765	10.118673	-11.014889	9.644618	0.759343	-2.556064	-2.222201	-0.662765	-0.282989	0.693296	0.306712	-0.947206	-0.093424	0.683132	0.150724	0.714572
07766	8.812075	-10.510359	8.938071	1.555539	-2.259206	-2.491533	-0.654847	-0.255710	0.711187	0.300986	-0.951415	-0.064943	0.693241	0.171529	0.699997
07767	8.469033	-1.855668	13.600518	1.947564	-1.710765	-2.559750	-0.650601	-0.228161	0.724335	0.297782	-0.954061	-0.033054	0.698601	0.194189	0.688656
07768	8.954598	4.870167	15.819764	0.489600	-0.785783	-1.866961	-0.650638	-0.208795	0.730119	0.289041	-0.957180	-0.016153	0.702228	0.200525	0.683129
07769	0.937651	0.400055	9.854928	-0.873030	-0.638094	-1.442931	-0.650190	-0.193663	0.734675	0.273447	-0.961818	-0.011537	0.708858	0.193394	0.678321
07770	1.559743	-6.436083	8.436838	-1.365242	-0.508676	-1.257202	-0.649967	-0.180615	0.738188	0.255530	-0.966732	-0.011542	0.715715	0.181127	0.674496
07771	1.740542	-9.885736	8.958043	-1.070442	-0.208634	-1.169576	-0.651363	-0.168887	0.739732	0.240187	-0.970674	-0.010119	0.719748	0.171083	0.672825
07772	0.376011	-8.551277	9.307085	-0.672640	0.100706	-1.015846	-0.654549	-0.159227	0.739062	0.228690	-0.973473	-0.007190	0.720601	0.164309	0.673599
07773	-0.574090	-5.947053	9.355405	-0.672320	0.404485	-0.766003	-0.659169	-0.152381	0.736394	0.218767	-0.975758	-0.006087	0.719470	0.157087	0.676526
07774	-1.183078	-5.149111	9.343816	-0.962564	0.671581	-0.429095	-0.664998	-0.149271	0.731776	0.208994	-0.977870	-0.009548	0.717007	0.146587	0.681478
07775	-1.135458	-5.947990	9.375203	-1.216822	0.947036	-0.043819	-0.671853	-0.150137	0.725308	0.199949	-0.979649	-0.017571	0.713185	0.133219	0.688200
07776	-0.655957	-5.683399	9.544261	-1.305752	1.222867	0.308676	-0.680029	-0.154777	0.716663	0.192747	-0.980822	-0.028933	0.707396	0.118460	0.696820
07777	-0.260891	-3.758512	9.521496	-1.389173	1.525671	0.589536	-0.689636	-0.162216	0.705754	0.186962	-0.981431	-0.042888	0.699605	0.102372	0.707158
07778	-0.005749	-1.545063	9.045569	-1.575436	1.808392	0.751791	-0.700917	-0.171364	0.692351	0.181237	-0.981639	-0.059486	0.689833	0.083785	0.719104
07779	0.727719	-1.341883	8.789342	-1.737571	2.061338	0.836136	-0.713522	-0.181057	0.676834	0.175214	-0.981449	-0.077831	0.678370	0.063057	0.732009
07780	1.662630	-2.255995	8.641572	-1.700462	2.295144	0.923271	-0.727443	-0.191408	0.658931	0.170451	-0.980612	-0.096678	0.664661	0.041988	0.745965
07781	2.494252	-2.135923	8.785403	-1.519699	2.461843	1.088654	-0.741765	-0.202838	0.639251	0.168416	-0.978961	-0.115205	0.649169	0.022205	0.760320
07782	3.818644	-0.943710	9.149293	-1.385150	2.572045	1.362960	-0.756039	-0.216578	0.617656	0.169763	-0.976260	-0.134522	0.632127	0.003151	0.774858
07783	5.189288	-0.115045	8.824938	-1.296869	2.678910	1.672134	-0.769848	-0.232679	0.594302	0.174393	-0.972429	-0.154816	0.613939	-0.015543	0.789200
07784	6.172932	0.221546	7.958015	-1.109902	2.706491	1.912259	-0.782886	-0.250656	0.569439	0.182556	-0.967515	-0.174896	0.594779	-0.032969	0.803213
07785	7.643867	1.275341	7.292946	-0.818775	2.653591	2.085792	-0.794480	-0.269680	0.544127	0.194169	-0.961762	-0.193161	0.575413	-0.047810	0.816465
07786	9.390094	2.464198	7.132599	-0.530312	2.581448	2.254795	-0.804614	-0.289972	0.518181	0.209230	-0.955138	-0.209607	0.555715	-0.060234	0.829188
07787	11.206548	3.246223	6.906614	-0.224293	2.484018	2.388402	-0.812960	-0.311058	0.492279	0.227278	-0.947819	-0.223570	0.536135	-0.069870	0.841235
07788	12.644370	3.907537	6.324764	0.178007	2.320264	2.361780	-0.819634	-0.331727	0.467073	0.247527	-0.940329	-0.233477	0.516653	-0.075753	0.852837
07789	14.789512	5.888253	5.862094	0.641690	2.086998	2.050489	-0.824938	-0.349326	0.444352	0.267600	-0.933842	-0.237338	0.497863	-0.076881	0.863841
07790	16.573672	8.676003	4.888414	0.875132	1.912086	1.446383	-0.830347	-0.361385	0.424176	0.283874	-0.929346	-0.236075	0.479520	-0.075611	0.874267
07791	16.633745	9.725346	3.593395	0.807120	1.735485	0.611788	-0.836760	-0.365738	0.407515	0.292733	-0.927734	-0.231552	0.462753	-0.074460	0.883354
07792	16.406592	9.087252	2.594523	0.557876	1.440110	-0.228509	-0.844033	-0.362566	0.395163	0.293373	-0.928969	-0.225718	0.448932	-0.074584	0.890448
07793	15.351890	7.112867	1.432825	0.186422	1.077506	-0.838089	-0.851252	-0.353926	0.387436	0.287054	-0.932119	-0.220802	0.439285	-0.076743	0.895064
07794	13.612627	3.881362	0.666740	-0.130470	0.591214	-1.114292	-0.857006	-0.343060	0.384513	0.276973	-0.935896	-0.217680	0.434542	-0.080053	0.897087
07795	12.371167	0.504572	1.053184	-0.261496	0.046246	-1.043370	-0.860044	-0.333215	0.386382	0.266836	-0.939217	-0.216032	0.434882	-0.082696	0.896682
07796	11.074589	-1.577893	2.312434	-0.219404	-0.400695	-0.729079	-0.860234	-0.326685	0.391502	0.259601	-0.941441	-0.215164	0.438867	-0.083457	0.894668
07797	9.564091	-2.122481	3.804578	-0.122346	-0.732493	-0.311989	-0.857800	-0.324328	0.398737	0.256337	-0.942361	-0.215052	0.445501	-0.082260	0.891494
07798	4.940090	-2.970148	7.248431	-0.075979	-0.694198	0.113840	-0.854409	-0.325953	0.404648	0.256955	-0.941932	-0.216189	0.451619	-0.080737	0.888551
07799	-4.764833	-9.682658	15.138123	1.062927	-1.699157	0.001735	-0.846630	-0.327184	0.419724	0.261789	-0.942708	-0.206803	0.463340	-0.065207	0.883779
07800	-7.518622	0.016911	25.513963	1.521954	-0.386489	-0.317961	-0.845700	-0.324397	0.423744	0.266131	-0.944619	-0.192013	0.462565	-0.049614	0.885196
07801	20.933279	5.815229	14.918476	1.054001	-1.321727	-0.856147	-0.841798	-0.316832	0.437028	0.263783	-0.947820	-0.179044	0.470951	-0.035438	0.881447
07802	6.514899	6.517848	16.773927	0.003725	0.012883	-0.293646	-0.842653	-0.314031	0.437402	0.261319	-0.948750	-0.177723	0.470795	-0.035457	0.881530
07803	5.537879	-5.806625	4.474208	0.026180	-0.824802	-0.221055	-0.839316	-0.312188	0.445069	0.259540	-0.949459	-0.176543	0.477690	-0.032662	0.877921
07804	10.272646	-3.197298	11.240245	0.372991	-0.276774	-0.201771	-0.838540	-0.310342	0.447816	0.259622	-0.950205	-0.172358	0.479007	-0.028265	0.877356
07805	2.220088	0.656478	9.765377	0.136908	0.080645	-0.107049	-0.839202	-0.309276	0.447312	0.259335	-0.950582	-0.170702	0.478001	-0.027250	0.877937
07806	5.070588	2.866784	12.075131	-0.139124	-0.457742	-0.027066	-0.837098	-0.309128	0.451340	0.258431	-0.950633	-0.171788	0.482163	-0.027163	0.875660
07807	4.470828	-2.037939	8.201797	-0.226925	-0.283436	0.050814	-0.835595	-0.309663	0.453752	0.257714	-0.950420	-0.174028	0.485145	-0.028479	0.873970
07808	6.485091	-2.779017	8.997614	-0.188689	-0.318796	0.074557	-0.833874	-0.310447	0.456373	0.257410	-0.950139	-0.175997	0.488256	-0.029284	0.872209
07809	5.647306	-2.856131	8.630329	-0.118059	-0.072475	0.056561	-0.833373	-0.310980	0.456925	0.257260	-0.949936	-0.177310	0.489189	-0.030217	0.871654
07810	6.088635	-2.861421	8.660307	-0.044890	-0.000558	0.031923	-0.833310	-0.311266	0.456845	0.257297	-0.949829	-0.177831	0.489277	-0.030644	0.871590
07811	5.166621	-2.223754	9.045715	0.012363	0.116339	0.002925	-0.833870	-0.311232	0.455845	0.257337	-0.949831	-0.177762	0.488301	-0.030925	0.872127
07812	4.434160	-1.678539	9.118940	0.021753	0.131134	-0.007671	-0.834550	-0.311101	0.454689	0.257367	-0.949867	-0.177524	0.487122	-0.031130	0.872779
07813	4.249371	-1.298186	9.148523	0.008003	0.082113	-0.010356	-0.834976	-0.310950	0.454011	0.257275	-0.949909	-0.177432	0.486441	-0.031346	0.873151
07814	4.214428	-1.237871	9.133682	-0.012083	0.050415	-0.006496	-0.835258	-0.310855	0.453556	0.257151	-0.949931	-0.177494	0.486022	-0.031621	0.873374
07815	4.489821	-1.188943	8.984808	-0.029631	0.032121	0.005374	-0.835399	-0.310870	0.453286	0.257008	-0.949912	-0.177803	0.485855	-0.032038	0.873452
07816	4.213978	-0.918083	9.087397	-0.048780	0.031141	0.015717	-0.835531	-0.310992	0.452959	0.256891	-0.949853	-0.178285	0.485690	-0.032601	0.873523
07817	3.719054	-0.632027	9.211114	-0.094603	-0.029742	0.029942	-0.835308	-0.311260	0.453186	0.256637	-0.949736	-0.179272	0.486207	-0.033443	0.873203
07818	4.024559	-1.143727	9.176415	-0.150604	-0.125129	0.044832	-0.834605	-0.311710	0.454170	0.256269	-0.949551	-0.180773	0.487607	-0.034485	0.872382
07819	4.218501	-1.688177	9.166282	-0.186408	-0.172493	0.049125	-0.833636	-0.312211	0.455605	0.255723	-0.949340	-0.182647	0.489548	-0.035752	0.871243
07820	4.648067	-2.154203	9.041814	-0.185888	-0.220142	0.041804	-0.832470	-0.312671	0.457417	0.255150	-0.949147	-0.184439	0.491825	-0.036830	0.869915
07821	5.403183	-2.766574	8.952769	-0.140565	-0.197786	0.020305	-0.831442	-0.312911	0.459119	0.254582	-0.949039	-0.185779	0.493854	-0.037581	0.868732
07822	4.941347	-1.980410	9.003997	-0.085392	-0.080168	0.008466	-0.831046	-0.313004	0.459773	0.254220	-0.948986	-0.186543	0.494707	-0.038142	0.868222
07823	5.049351	-1.622273	9.003082	-0.073238	-0.067095	0.017451	-0.830668	-0.313170	0.460343	0.253958	-0.948910	-0.187284	0.495476	-0.038663	0.867761
07824	4.519226	-1.841517	9.088682	-0.061966	-0.055226	0.016079	-0.830374	-0.313326	0.460767	0.253774	-0.948841	-0.187880	0.496062	-0.039080	0.867407
07825	4.582432	-1.965314	9.058076	-0.048053	-0.089880	0.013854	-0.829891	-0.313466	0.461540	0.253606	-0.948786	-0.188385	0.496956	-0.039290	0.866886
07826	4.787674	-1.990608	8.919108	-0.040446	-0.068743	0.005199	-0.829557	-0.313525	0.462101	0.253438	-0.948760	-0.188744	0.497599	-0.039460	0.866509
07827	4.330966	-2.050180	9.090844	-0.046114	-0.085991	-0.007569	-0.829146	-0.313461	0.462881	0.253101	-0.948772	-0.189133	0.498454	-0.039664	0.866008
07828	4.909068	-1.960657	8.858377	-0.036030	-0.119995	-0.024765	-0.828631	-0.313257	0.463941	0.252705	-0.948841	-0.189316	0.499511	-0.039632	0.865401
07829	4.938853	-1.648332	8.947553	0.002939	-0.057724	-0.042537	-0.828448	-0.312850	0.464541	0.252323	-0.948983	-0.189117	0.500007	-0.039459	0.865122
07830	4.937080	-1.493661	8.862302	0.022940	-0.056329	-0.043967	-0.828298	-0.312437	0.465087	0.252063	-0.949135	-0.188699	0.500387	-0.039068	0.864920
07831	4.809656	-1.167249	9.118212	0.016805	-0.015646	-0.023975	-0.828278	-0.312189	0.465288	0.251903	-0.949223	-0.188467	0.500499	-0.038895	0.864863
07832	4.684449	-1.614266	9.000054	0.006592	-0.016892	-0.003244	-0.828222	-0.312147	0.465416	0.251899	-0.949242	-0.188379	0.500595	-0.038782	0.864813
07833	4.614472	-1.853987	8.969731	0.003199	-0.029347	-0.000594	-0.828075	-0.312127	0.465691	0.251865	-0.949252	-0.188373	0.500855	-0.038695	0.864666
07834	4.583942	-1.936282	9.015031	-0.003468	-0.040355	-0.005945	-0.827908	-0.312068	0.466028	0.251788	-0.949275	-0.188359	0.501170	-0.038604	0.864488
07835	4.579368	-2.052060	8.967420	-0.009222	-0.067840	-0.014120	-0.827602	-0.311934	0.466661	0.251580	-0.949323	-0.188397	0.501779	-0.038515	0.864138
07836	4.646644	-1.905506	8.959099	-0.007131	-0.081162	-0.030314	-0.827291	-0.311659	0.467396	0.251283	-0.949420	-0.188302	0.502441	-0.038332	0.863761
07837	4.827274	-1.686023	8.940901	0.005495	-0.083343	-0.039849	-0.826970	-0.311287	0.468211	0.250936	-0.949554	-0.188092	0.503142	-0.038056	0.863366
07838	4.921899	-1.594628	8.889531	0.015292	-0.057385	-0.033085	-0.826784	-0.310976	0.468745	0.250729	-0.949668	-0.187790	0.503550	-0.037734	0.863142
07839	4.769833	-1.656156	8.928804	0.022645	-0.031671	-0.031481	-0.826702	-0.310663	0.469097	0.250537	-0.949782	-0.187471	0.503780	-0.037456	0.863019
07840	4.718157	-1.842595	8.910300	0.018639	-0.041209	-0.026852	-0.826582	-0.310405	0.469480	0.250399	-0.949878	-0.187168	0.504047	-0.037153	0.862877
07841	4.566428	-1.904540	8.949716	0.015945	-0.052925	-0.032245	-0.826394	-0.310092	0.470017	0.250167	-0.949991	-0.186904	0.504470	-0.036873	0.862642
07842	4.612380	-1.967938	8.923219	0.009220	-0.063117	-0.036233	-0.826186	-0.309753	0.470607	0.249904	-0.950113	-0.186638	0.504941	-0.036591	0.862378
07843	4.221436	-2.039171	8.928233	-0.006531	-0.078024	-0.049248	-0.825913	-0.309287	0.471391	0.249419	-0.950270	-0.186487	0.505627	-0.036448	0.861982
07844	3.929684	-2.236560	9.032598	-0.040175	-0.167149	-0.073202	-0.825269	-0.308634	0.472945	0.248600	-0.950487	-0.186472	0.507080	-0.036316	0.861134
07845	4.617655	-1.861148	8.909329	-0.044867	-0.244043	-0.106653	-0.824291	-0.307682	0.475264	0.247447	-0.950807	-0.186377	0.509229	-0.036026	0.859877
07846	4.969509	-1.175246	9.078248	-0.062875	-0.193965	-0.098579	-0.823566	-0.306797	0.477090	0.246303	-0.951093	-0.186433	0.510954	-0.036031	0.858852
07847	5.022581	-1.703493	8.811643	-0.070982	-0.216345	-0.085433	-0.822666	-0.306037	0.479127	0.245192	-0.951336	-0.186658	0.512934	-0.036079	0.857669
07848	4.833272	-1.641316	9.061070	-0.083740	-0.183874	-0.078094	-0.821933	-0.305342	0.480825	0.244108	-0.951550	-0.186986	0.514624	-0.036316	0.856647
07849	4.926550	-1.814744	9.019073	-0.090499	-0.201872	-0.073505	-0.821069	-0.304690	0.482711	0.242992	-0.951748	-0.187430	0.516527	-0.036598	0.855488
07850	4.724072	-2.066209	9.014611	-0.080840	-0.211604	-0.081833	-0.820193	-0.303970	0.484650	0.241892	-0.951973	-0.187710	0.518433	-0.036726	0.854329
07851	4.995780	-1.998849	8.865185	-0.059629	-0.223770	-0.093879	-0.819255	-0.303132	0.486757	0.240767	-0.952243	-0.187787	0.520435	-0.036650	0.853114
07852	5.007304	-1.809907	8.912992	-0.046497	-0.219776	-0.100040	-0.818370	-0.302242	0.488796	0.239694	-0.952535	-0.187680	0.522320	-0.036430	0.851971
07853	4.987517	-1.640686	8.941650	-0.039057	-0.224817	-0.099819	-0.817430	-0.301346	0.490917	0.238628	-0.952829	-0.187547	0.524276	-0.036160	0.850780
07854	5.043272	-1.577324	8.871038	-0.026660	-0.235919	-0.090839	-0.816427	-0.300547	0.493070	0.237734	-0.953098	-0.187312	0.526240	-0.035707	0.849586
07855	5.122540	-1.692284	8.829938	-0.024548	-0.221305	-0.083474	-0.815456	-0.299804	0.495125	0.236878	-0.953347	-0.187131	0.528129	-0.035313	0.848430
07856	4.900795	-2.026831	8.834780	-0.007454	-0.215071	-0.082210	-0.814533	-0.299076	0.497080	0.236157	-0.953597	-0.186771	0.529873	-0.034742	0.847365
07857	4.645118	-2.418048	8.839211	0.022315	-0.264676	-0.092795	-0.813344	-0.298256	0.499514	0.235475	-0.953888	-0.186142	0.531999	-0.033775	0.846071
07858	4.401440	-2.302704	8.938621	0.049183	-0.328493	-0.118616	-0.811892	-0.297214	0.502489	0.234761	-0.954263	-0.185118	0.534526	-0.032331	0.844533
07859	4.850816	-1.856449	8.858292	0.074795	-0.415240	-0.141367	-0.809995	-0.295969	0.506272	0.233970	-0.954713	-0.183796	0.537742	-0.030422	0.842560
07860	4.551682	-1.212114	9.364714	0.021769	-0.395637	-0.184251	-0.808312	-0.294308	0.509916	0.232585	-0.955269	-0.182663	0.540866	-0.029050	0.840607
07861	5.034198	-1.006437	9.211716	0.021500	-0.485534	-0.147190	-0.806015	-0.293013	0.514279	0.231467	-0.955714	-0.181751	0.544759	-0.027455	0.838143
07862	4.747018	-1.178121	9.254048	-0.010340	-0.529183	-0.121533	-0.803424	-0.291974	0.518904	0.230421	-0.956073	-0.181194	0.549013	-0.026009	0.835409
07863	4.683063	-1.345811	9.268750	-0.028512	-0.587308	-0.102008	-0.800417	-0.291121	0.524005	0.229400	-0.956370	-0.180921	0.553812	-0.024606	0.832278
07864	4.681789	-1.549082	9.354077	-0.037058	-0.683900	-0.082656	-0.796823	-0.290474	0.529809	0.228523	-0.956607	-0.180776	0.559330	-0.022973	0.828627
07865	4.753418	-1.792963	9.206254	-0.026537	-0.785156	-0.089944	-0.792609	-0.289759	0.536480	0.227612	-0.956869	-0.180537	0.565654	-0.020985	0.824376
07866	4.653801	-1.761489	9.186039	-0.014020	-0.910156	-0.105908	-0.787693	-0.288906	0.544126	0.226686	-0.957179	-0.180062	0.572847	-0.018488	0.819454
07867	4.802202	-1.875018	9.007170	0.004322	-1.025877	-0.131091	-0.782068	-0.287799	0.552758	0.225635	-0.957565	-0.179327	0.580912	-0.015525	0.813818
07868	4.881962	-1.957085	8.862537	0.042475	-1.142616	-0.159605	-0.775766	-0.286408	0.562279	0.224631	-0.958035	-0.178075	0.589685	-0.011839	0.807546
07869	4.735086	-2.143231	8.991992	0.097874	-1.273503	-0.202168	-0.768644	-0.284565	0.572896	0.223604	-0.958629	-0.176159	0.599323	-0.007302	0.800474
07870	4.806388	-2.441459	9.065156	0.219130	-1.430941	-0.258199	-0.760598	-0.282131	0.584716	0.222945	-0.959375	-0.172900	0.609743	-0.001148	0.792599
07871	4.614647	-2.830082	9.198436	0.393368	-1.649559	-0.339683	-0.751197	-0.278793	0.598313	0.222751	-0.960324	-0.167809	0.621358	0.007217	0.783494
07872	4.423340	-3.154765	9.142354	0.542146	-1.871776	-0.484504	-0.740557	-0.273886	0.613646	0.222530	-0.961601	-0.160635	0.634079	0.017596	0.773068
07873	4.208101	-2.865508	9.102508	0.700067	-2.253738	-0.670881	-0.727583	-0.266861	0.631987	0.222049	-0.963256	-0.151105	0.649089	0.030390	0.760105
07874	4.058888	-2.783650	9.182684	0.807203	-2.583623	-0.878549	-0.712578	-0.257399	0.652671	0.221019	-0.965260	-0.139371	0.665871	0.044940	0.744713
07875	4.064216	-2.478945	9.464102	0.936865	-3.005203	-1.104077	-0.694705	-0.245100	0.676248	0.219529	-0.967545	-0.125158	0.684976	0.061508	0.725965
07876	5.018777	-2.416389	10.299101	0.986286	-3.381750	-1.330494	-0.674133	-0.229816	0.701947	0.217270	-0.970016	-0.108920	0.705931	0.079086	0.703851
07877	6.315195	-2.904963	10.707182	1.027175	-3.630397	-1.512724	-0.651365	-0.211895	0.728577	0.214558	-0.972462	-0.091006	0.727797	0.097044	0.678891
07878	7.600118	-3.431678	10.655036	1.039770	-3.790949	-1.729649	-0.627087	-0.191022	0.755164	0.211169	-0.974850	-0.071238	0.749779	0.114795	0.651654
07879	9.002205	-4.056619	10.884066	1.149763	-3.894430	-1.931084	-0.601504	-0.167319	0.781151	0.208000	-0.976897	-0.049082	0.771316	0.132957	0.622410
07880	9.478690	-2.604740	10.934891	1.099282	-3.839146	-2.054263	-0.575794	-0.141795	0.805205	0.204480	-0.978523	-0.026094	0.791611	0.149624	0.592422
07881	10.502305	-2.672524	10.534511	0.904386	-3.931438	-2.153070	-0.548611	-0.114522	0.828197	0.199575	-0.979877	-0.003294	0.811909	0.163481	0.560427
07882	12.120227	-4.049497	11.592487	0.759453	-3.889091	-2.229411	-0.521109	-0.086075	0.849139	0.193868	-0.980833	0.019550	0.831180	0.174808	0.527808
07883	12.643087	-5.695414	11.443421	0.945111	-3.772294	-2.368306	-0.493956	-0.055992	0.867682	0.189734	-0.980817	0.044720	0.848533	0.186719	0.495103
07884	13.452161	-5.910747	12.849484	1.128606	-3.464826	-2.408585	-0.468922	-0.025693	0.882866	0.187769	-0.979628	0.071222	0.863050	0.199172	0.464193
07885	10.835244	-6.304540	12.206801	1.322384	-3.101005	-2.359405	-0.446402	0.003808	0.894824	0.188411	-0.977173	0.098151	0.874772	0.212409	0.435495
07886	4.540120	-7.491501	10.331262	1.668360	-3.040388	-2.458409	-0.424416	0.034465	0.904811	0.192351	-0.973036	0.127289	0.884801	0.228064	0.406343
07887	-1.153510	-6.611316	7.406288	2.238299	-2.921003	-2.701389	-0.403758	0.067653	0.912361	0.201007	-0.966334	0.160610	0.892511	0.248238	0.376567
07888	9.868059	3.860513	19.505479	2.749823	-3.001386	-2.888733	-0.382974	0.103213	0.917975	0.214228	-0.956723	0.196944	0.898575	0.272081	0.344289
07889	10.662276	3.374642	25.206271	0.370931	0.376167	-1.736354	-0.390030	0.118801	0.913106	0.210796	-0.953788	0.214135	0.896349	0.275999	0.346963
07890	0.345733	-3.249954	17.323818	-0.717597	1.027784	-1.159704	-0.401745	0.127015	0.906900	0.199736	-0.954337	0.222139	0.893704	0.270384	0.358031
07891	-4.773770	-8.102485	11.548253	-0.989822	1.444076	-0.786326	-0.416136	0.130707	0.899859	0.187644	-0.955971	0.225633	0.889731	0.262747	0.373287
07892	-2.629308	-8.745957	10.446133	-0.657628	1.579526	-0.564523	-0.431339	0.131928	0.892492	0.179370	-0.956962	0.228147	0.884180	0.258494	0.389111
07893	-1.450517	-7.295282	10.432156	-0.326150	1.835178	-0.349022	-0.448105	0.130563	0.884395	0.174913	-0.957353	0.229958	0.876703	0.257738	0.406158
07894	-0.458837	-5.005532	10.663897	-0.259173	2.160313	-0.052663	-0.467203	0.125415	0.875210	0.172360	-0.957978	0.229284	0.867187	0.257973	0.425954
07895	0.350693	-3.452780	10.322843	-0.467985	2.500684	0.306251	-0.488217	0.116077	0.864968	0.169739	-0.959559	0.224577	0.856057	0.256462	0.448770
07896	0.942051	-3.094346	9.625593	-0.738295	2.780775	0.640198	-0.510949	0.102755	0.853448	0.166613	-0.962164	0.215594	0.843310	0.252353	0.474496
07897	2.430522	-2.942191	9.514457	-0.953705	3.003023	0.922599	-0.534532	0.086411	0.840719	0.163409	-0.965421	0.203124	0.829200	0.245957	0.501928
07898	3.801277	-2.052344	9.524388	-1.128103	3.250131	1.153082	-0.559539	0.067296	0.826067	0.160406	-0.969060	0.187596	0.813133	0.237474	0.531433
07899	4.510484	-0.913654	9.063332	-1.305379	3.507261	1.307652	-0.585659	0.046487	0.809223	0.157346	-0.972843	0.169762	0.795139	0.226750	0.562440
07900	4.339723	-0.012600	8.205043	-1.492608	3.671532	1.387140	-0.612515	0.024773	0.790071	0.153896	-0.976645	0.149933	0.775333	0.213426	0.594397
07901	4.342760	0.435803	7.679373	-1.654672	3.693886	1.396023	-0.638649	0.003548	0.769490	0.149919	-0.980253	0.128947	0.754752	0.197713	0.625506
07902	4.981828	0.502767	7.824702	-1.770031	3.641020	1.398422	-0.663853	-0.017172	0.747666	0.145828	-0.983518	0.106892	0.733508	0.179991	0.655415
07903	6.180151	0.395559	8.293145	-1.836904	3.591665	1.400055	-0.687790	-0.037055	0.724963	0.141963	-0.986278	0.084273	0.711893	0.160880	0.683613
07904	7.123493	-0.164291	8.383067	-1.861592	3.595419	1.420191	-0.711150	-0.056608	0.700757	0.138840	-0.988431	0.061052	0.689194	0.140711	0.710782
07905	7.140014	-0.854795	8.221136	-1.808894	3.566739	1.469099	-0.733286	-0.075769	0.675686	0.137144	-0.989828	0.037839	0.665946	0.120413	0.736218
07906	7.540525	-1.342186	8.224923	-1.721360	3.480953	1.557722	-0.754067	-0.095140	0.649870	0.137466	-0.990400	0.014514	0.642250	0.100279	0.759907
07907	8.524534	-1.926206	8.663380	-1.648210	3.400877	1.705423	-0.773137	-0.115072	0.623713	0.140049	-0.990103	-0.009069	0.618584	0.080339	0.781601
07908	10.462314	-3.022465	9.312535	-1.557977	3.368596	1.950786	-0.790911	-0.136848	0.596433	0.145864	-0.988739	-0.033435	0.594292	0.060554	0.801967
07909	12.160760	-2.469452	9.406673	-1.466835	3.322924	2.361494	-0.806686	-0.161828	0.568392	0.156143	-0.985964	-0.059111	0.569980	0.041066	0.820632
07910	14.302937	-0.338382	8.895801	-1.474936	3.264101	2.864284	-0.820321	-0.191106	0.539029	0.171234	-0.981352	-0.087333	0.545667	0.020659	0.837747
07911	15.573153	1.373771	6.999653	-1.504408	3.163927	3.334199	-0.831180	-0.224008	0.508882	0.190690	-0.974587	-0.117547	0.522281	-0.000664	0.852773
07912	16.063975	2.704679	5.231349	-1.369432	2.898018	3.624803	-0.838760	-0.258941	0.478990	0.213979	-0.965663	-0.147336	0.500694	-0.021086	0.865368
07913	16.585355	5.167497	4.454724	-1.117559	2.514876	3.622768	-0.842913	-0.292964	0.451298	0.238908	-0.955336	-0.173943	0.482100	-0.038800	0.875257
07914	17.060072	8.772746	4.087663	-0.965941	2.178230	3.181203	-0.845353	-0.322233	0.426079	0.261211	-0.945073	-0.196486	0.465990	-0.054804	0.883091
07915	18.984343	11.889146	4.358311	-1.089252	1.976772	2.315562	-0.848211	-0.342747	0.403810	0.275775	-0.936691	-0.215774	0.452201	-0.071661	0.889033
07916	20.547187	12.094984	3.886582	-1.339978	2.003960	1.271138	-0.853653	-0.353026	0.382948	0.280649	-0.931154	-0.232783	0.438762	-0.091242	0.893959
07917	15.289409	-5.602552	-7.108561	0.251006	-0.445425	0.019042	-0.851638	-0.353576	0.386905	0.281874	-0.931317	-0.230642	0.441881	-0.087365	0.892809
07918	26.702535	18.424764	-10.114261	0.969132	-0.509089	-0.453885	-0.850705	-0.349786	0.392366	0.282313	-0.933692	-0.220271	0.443397	-0.076616	0.893045
07919	32.011658	8.864685	-14.355016	1.123148	-2.446173	0.417706	-0.838447	-0.355301	0.413240	0.290876	-0.932979	-0.211992	0.460866	-0.057543	0.885602
07920	26.504884	2.319564	-11.517825	1.509298	-2.152249	1.370584	-0.824293	-0.369061	0.429342	0.309318	-0.928718	-0.204465	0.474198	-0.035736	0.879693
07921	30.169040	-7.360175	15.142406	3.421740	-2.562324	-0.863168	-0.814720	-0.361390	0.453463	0.318604	-0.932399	-0.170658	0.484483	0.005436	0.874784
07922	21.151826	42.668056	39.201924	0.929451	3.303734	-0.395469	-0.831498	-0.357805	0.424955	0.319677	-0.933794	-0.160734	0.454332	0.002198	0.890830
07923	-25.914181	1.493897	4.456662	-0.381878	-1.304501	-0.006321	-0.825514	-0.357684	0.436565	0.317824	-0.933837	-0.164123	0.466385	0.003265	0.884576
07924	21.559555	-9.443192	18.025983	-0.122703	-2.764855	-0.150017	-0.812792	-0.356051	0.461082	0.316003	-0.934390	-0.164494	0.489399	0.012004	0.871978
07925	5.478463	-3.835271	0.264783	-0.268240	0.754404	-0.167131	-0.816991	-0.354533	0.454789	0.313291	-0.935019	-0.166097	0.484123	0.006782	0.874974
07926	8.691712	1.616191	13.273721	-0.093612	-1.403783	-0.061660	-0.810316	-0.353806	0.467128	0.312315	-0.935255	-0.166604	0.495830	0.010890	0.868351
07927	5.960383	-2.404471	7.213669	-0.128398	0.582958	-0.055853	-0.813368	-0.353311	0.462172	0.311184	-0.935475	-0.167485	0.491525	0.007593	0.870831
07928	5.400825	0.560595	9.493952	-0.036847	-0.348220	0.003742	-0.811650	-0.353291	0.465199	0.311016	-0.935475	-0.167795	0.494463	0.008494	0.869157
07929	4.008517	-1.876554	9.535935	-0.160822	-0.058439	0.026629	-0.811278	-0.353509	0.465682	0.310392	-0.935404	-0.169341	0.495464	0.007161	0.868599
07930	5.271375	-0.550986	9.185635	-0.212993	-0.111741	0.042907	-0.810600	-0.353875	0.466583	0.309668	-0.935276	-0.171360	0.497024	0.005581	0.867719
07931	3.695940	-0.498410	9.595062	-0.314915	-0.179537	0.076029	-0.809471	-0.354552	0.468028	0.308671	-0.935031	-0.174470	0.499479	0.003238	0.866320
07932	4.824088	-2.141394	8.872667	-0.314078	-0.264404	0.093237	-0.807869	-0.355389	0.470156	0.307837	-0.934718	-0.177593	0.502578	0.001259	0.864531
07933	5.119862	-2.307637	8.712568	-0.247643	-0.210505	0.095054	-0.806516	-0.356250	0.471824	0.307312	-0.934390	-0.180204	0.505066	-0.000340	0.863081
07934	5.064955	-2.386257	8.749059	-0.197307	-0.207706	0.094801	-0.805183	-0.357110	0.473448	0.307063	-0.934061	-0.182323	0.507339	-0.001425	0.861746
07935	5.354062	-2.969002	8.466277	-0.145221	-0.150805	0.072559	-0.804194	-0.357764	0.474634	0.306864	-0.933809	-0.183942	0.509025	-0.002276	0.860749
07936	5.206776	-2.484572	8.590330	-0.087185	-0.103809	0.035157	-0.803566	-0.358067	0.475468	0.306687	-0.933692	-0.184830	0.510122	-0.002703	0.860098
07937	5.029012	-2.207413	8.766955	-0.059770	-0.064302	0.005483	-0.803221	-0.358094	0.476030	0.306382	-0.933681	-0.185393	0.510849	-0.003065	0.859665
07938	4.661236	-1.811324	9.026256	-0.050073	-0.075483	-0.013297	-0.802885	-0.357944	0.476710	0.306003	-0.933738	-0.185733	0.511604	-0.003247	0.859215
07939	4.868883	-1.490823	9.036538	-0.054395	-0.103350	-0.007911	-0.802380	-0.357847	0.477632	0.305616	-0.933774	-0.186186	0.512627	-0.003420	0.858605
07940	4.893122	-1.657463	8.917783	-0.046124	-0.089460	0.010067	-0.801899	-0.357916	0.478387	0.305444	-0.933747	-0.186602	0.513481	-0.003515	0.858094
07941	5.003139	-1.713641	8.916434	-0.035846	-0.094881	0.017557	-0.801357	-0.358057	0.479188	0.305356	-0.933693	-0.187017	0.514378	-0.003545	0.857557
07942	5.197465	-1.707141	8.732395	-0.035802	-0.070461	0.026326	-0.800923	-0.358277	0.479749	0.305366	-0.933608	-0.187422	0.515047	-0.003612	0.857154
07943	4.963495	-2.135955	8.694077	-0.024195	-0.037848	0.028041	-0.800642	-0.358514	0.480041	0.305421	-0.933517	-0.187788	0.515451	-0.003736	0.856911
07944	4.736285	-2.204559	8.812321	-0.020693	-0.048855	0.006342	-0.800380	-0.358547	0.480454	0.305349	-0.933504	-0.187968	0.515901	-0.003739	0.856640
07945	4.706799	-1.924733	8.895855	-0.028181	-0.071870	-0.011580	-0.800044	-0.358416	0.481111	0.305066	-0.933554	-0.188177	0.516589	-0.003779	0.856225
07946	4.688663	-1.887465	8.863542	-0.035270	-0.093611	-0.024752	-0.799644	-0.358160	0.481965	0.304670	-0.933653	-0.188333	0.517442	-0.003759	0.855710
07947	4.544707	-1.820382	8.927577	-0.048803	-0.118400	-0.036845	-0.799143	-0.357794	0.483068	0.304077	-0.933793	-0.188596	0.518564	-0.003825	0.855031
07948	4.672559	-1.735946	8.915407	-0.064801	-0.158951	-0.046010	-0.798466	-0.357343	0.484519	0.303357	-0.933965	-0.188900	0.520026	-0.003848	0.854142
07949	4.738863	-1.883210	8.870699	-0.071806	-0.168190	-0.048439	-0.797736	-0.356871	0.486066	0.302552	-0.934145	-0.189301	0.521612	-0.003953	0.853173
07950	4.748626	-1.923737	8.880328	-0.072813	-0.196698	-0.060220	-0.796899	-0.356288	0.487863	0.301675	-0.934368	-0.189602	0.523396	-0.003918	0.852080
07951	5.112424	-1.793649	8.730926	-0.054327	-0.206925	-0.069899	-0.796025	-0.355617	0.489777	0.300788	-0.934624	-0.189746	0.525235	-0.003724	0.850949
07952	5.242437	-1.639896	8.746512	-0.034483	-0.173551	-0.073748	-0.795342	-0.354906	0.491398	0.300004	-0.934896	-0.189651	0.526714	-0.003416	0.850035
07953	5.142469	-1.813465	8.641380	-0.026184	-0.148392	-0.070479	-0.794770	-0.354226	0.492813	0.299260	-0.935155	-0.189550	0.527999	-0.003169	0.849239
07954	5.051194	-1.946393	8.737736	-0.018932	-0.131507	-0.076800	-0.794314	-0.353483	0.494080	0.298534	-0.935437	-0.189305	0.529097	-0.002868	0.848557
07955	4.989520	-1.844711	8.858013	-0.009511	-0.135853	-0.085008	-0.793847	-0.352665	0.495413	0.297763	-0.935746	-0.188988	0.530230	-0.002512	0.847850
07956	5.270791	-1.929646	8.660140	-0.005090	-0.145384	-0.087230	-0.793344	-0.351824	0.496815	0.297027	-0.936064	-0.188571	0.531395	-0.002034	0.847122
07957	5.069128	-1.897859	8.749172	-0.000153	-0.115771	-0.084342	-0.792977	-0.351010	0.497975	0.296312	-0.936370	-0.188176	0.532340	-0.001663	0.846529
07958	5.015761	-1.801508	8.829700	0.013588	-0.138141	-0.087455	-0.792509	-0.350165	0.499314	0.295674	-0.936688	-0.187598	0.533391	-0.001039	0.845868
07959	5.174877	-1.539180	8.807865	0.019483	-0.141261	-0.092128	-0.792026	-0.349276	0.500700	0.295003	-0.937020	-0.186995	0.534479	-0.000397	0.845182
07960	5.170018	-1.501071	8.733133	0.021526	-0.134678	-0.079753	-0.791550	-0.348501	0.501993	0.294470	-0.937309	-0.186387	0.535478	0.000287	0.844549
07961	5.007477	-1.494151	8.880175	0.019141	-0.127728	-0.070637	-0.791072	-0.347811	0.503222	0.293968	-0.937564	-0.185893	0.536459	0.000877	0.843926
07962	4.799924	-1.898653	9.031902	0.003750	-0.152686	-0.072943	-0.790475	-0.347097	0.504651	0.293395	-0.937828	-0.185467	0.537651	0.001455	0.843166
07963	4.387076	-2.283701	9.179431	-0.025113	-0.203579	-0.124335	-0.789742	-0.345901	0.506617	0.292232	-0.938269	-0.185072	0.539359	0.001891	0.842074
07964	3.411522	-1.998420	9.746039	-0.002252	-0.405131	-0.152693	-0.788005	-0.344429	0.510310	0.290999	-0.938807	-0.184288	0.542557	0.003280	0.840013
07965	4.982760	-1.920475	9.127539	-0.035664	-0.477475	-0.172995	-0.785906	-0.342759	0.514653	0.289397	-0.939412	-0.183722	0.546444	0.004551	0.837483
07966	4.390606	-1.808576	9.452147	-0.012625	-0.649142	-0.177724	-0.782866	-0.341025	0.520406	0.287918	-0.940031	-0.182881	0.551565	0.006663	0.834105
07967	4.510122	-1.906473	9.303970	-0.025564	-0.712753	-0.190577	-0.779460	-0.339151	0.526705	0.286242	-0.940691	-0.182118	0.557232	0.008812	0.830310
07968	4.755156	-1.877282	9.120105	-0.025780	-0.831575	-0.201122	-0.775385	-0.337147	0.533957	0.284519	-0.941383	-0.181238	0.563761	0.011392	0.825859
07969	4.885399	-1.606697	9.097704	-0.011517	-0.938437	-0.199641	-0.770625	-0.335119	0.542063	0.282864	-0.942066	-0.180279	0.571074	0.014403	0.820772
07970	4.832848	-1.502096	9.008779	-0.020913	-1.052782	-0.191495	-0.765123	-0.333118	0.551017	0.281258	-0.942718	-0.179376	0.579207	0.017733	0.814988
07971	4.896955	-1.530031	8.968623	-0.026046	-1.180707	-0.191306	-0.758765	-0.331056	0.560962	0.279602	-0.943369	-0.178543	0.588301	0.021374	0.808359
07972	4.548265	-1.850914	9.231698	-0.007041	-1.330850	-0.211071	-0.751471	-0.328722	0.572042	0.277952	-0.944077	-0.177375	0.598359	0.025708	0.800816
07973	4.770580	-2.033291	9.238693	0.084087	-1.538290	-0.244799	-0.742856	-0.325943	0.584744	0.276583	-0.944864	-0.175308	0.609645	0.031502	0.792049
07974	4.913939	-1.798107	8.894520	0.195017	-1.754081	-0.268341	-0.732811	-0.322759	0.599011	0.275791	-0.945676	-0.172155	0.622035	0.039045	0.782016
07975	5.035160	-1.822388	8.926374	0.243924	-1.958999	-0.305281	-0.721330	-0.318994	0.614757	0.275057	-0.946560	-0.168425	0.635631	0.047603	0.770524
07976	4.592672	-1.945088	9.167803	0.247465	-2.273379	-0.407941	-0.707841	-0.313910	0.632789	0.273720	-0.947731	-0.163959	0.651183	0.057150	0.756766
07977	4.179681	-2.292901	8.927327	0.216308	-2.638162	-0.561756	-0.691951	-0.306911	0.653460	0.271168	-0.949352	-0.158742	0.669083	0.067356	0.740130
07978	3.972943	-2.591679	8.652248	0.280477	-3.008114	-0.756009	-0.673587	-0.297492	0.676594	0.267897	-0.951440	-0.151633	0.688848	0.079120	0.720575
07979	4.405711	-2.895573	8.852337	0.381602	-3.363055	-1.004039	-0.652725	-0.285010	0.701940	0.263859	-0.954049	-0.142016	0.710161	0.092515	0.697934
07980	5.374634	-4.182203	9.677424	0.494868	-3.663893	-1.265791	-0.629636	-0.269220	0.728751	0.259297	-0.957071	-0.129537	0.732341	0.107402	0.672415
07981	6.579421	-4.594530	10.253990	0.785114	-3.935382	-1.601155	-0.604487	-0.249263	0.756613	0.255204	-0.960322	-0.112482	0.754630	0.125097	0.644115
07982	7.855474	-4.204510	11.188117	0.926115	-4.120192	-1.910215	-0.577807	-0.225316	0.784456	0.250985	-0.963618	-0.091908	0.776624	0.143782	0.613336
07983	10.683194	-5.605501	13.128667	1.078485	-4.264895	-2.179724	-0.549646	-0.197698	0.811668	0.247138	-0.966586	-0.068075	0.798005	0.163177	0.580139
07984	10.504439	-4.430928	12.998902	1.206412	-4.324331	-2.394012	-0.520620	-0.167021	0.837293	0.244055	-0.968872	-0.041517	0.818164	0.182731	0.545176
07985	10.814294	-3.559976	12.534168	0.956219	-4.452958	-2.527071	-0.489828	-0.133982	0.861462	0.239156	-0.970865	-0.015012	0.838375	0.198671	0.507600
07986	11.118673	-2.857795	11.031784	0.589458	-4.620776	-2.630245	-0.456855	-0.098957	0.884020	0.231683	-0.972731	0.010845	0.858840	0.209767	0.467324
07987	14.220046	-5.313113	12.010335	0.383512	-4.684815	-2.724295	-0.422334	-0.062396	0.904290	0.222987	-0.974122	0.036928	0.878585	0.217241	0.425318
07988	14.671806	-6.846666	13.138465	0.545261	-4.208029	-2.822854	-0.391287	-0.025585	0.919913	0.216307	-0.974165	0.064913	0.894486	0.224383	0.386712
07989	9.969711	-8.526232	12.261472	0.948378	-3.743634	-2.910488	-0.363818	0.011355	0.931401	0.213809	-0.972209	0.095369	0.906599	0.233839	0.351279
07990	1.620995	-10.383526	8.033517	1.649252	-3.388124	-3.058082	-0.339635	0.049190	0.939270	0.218038	-0.967310	0.129499	0.914936	0.248779	0.317807
07991	-6.860617	-3.640572	4.431391	2.842566	-3.589929	-3.621178	-0.314829	0.093456	0.944536	0.232227	-0.957311	0.172125	0.920301	0.273537	0.279686
07992	25.221709	5.021462	24.331452	2.665642	-3.361099	-3.464463	-0.292204	0.135969	0.946641	0.246251	-0.945768	0.211855	0.924109	0.295016	0.242874
07993	14.797964	-0.211139	26.152618	0.631475	-0.154951	-2.452787	-0.296786	0.159594	0.941514	0.244812	-0.940271	0.236553	0.923030	0.300699	0.239989
07994	6.011126	-3.733060	20.967790	-0.367286	1.446996	-1.746034	-0.314439	0.171618	0.933636	0.236038	-0.938498	0.252007	0.919464	0.299614	0.254592
07995	0.528521	-6.864883	15.960507	-0.874311	2.317779	-1.077521	-0.338159	0.174871	0.924699	0.224458	-0.939240	0.259705	0.913930	0.295377	0.278361
07996	-1.261209	-8.536866	12.540347	-0.835457	2.664942	-0.552866	-0.363778	0.172184	0.915433	0.214852	-0.940757	0.262325	0.906369	0.292111	0.305233
07997	-2.773194	-8.596564	10.145282	-0.570310	2.822524	-0.147364	-0.389532	0.165366	0.906046	0.209105	-0.942181	0.261861	0.896961	0.291461	0.332431
07998	-2.968217	-6.657904	9.092743	-0.356529	2.867707	0.228904	-0.414785	0.154756	0.896663	0.206780	-0.943617	0.258514	0.886113	0.292639	0.359397
07999	-2.665949	-4.437580	8.633495	-0.407902	2.856596	0.578027	-0.438736	0.140962	0.887491	0.205605	-0.945675	0.251845	0.874778	0.292967	0.385919
08000	-1.362876	-2.906736	8.878312	-0.695246	2.880347	0.905084	-0.462084	0.123901	0.878138	0.203573	-0.948932	0.241011	0.863155	0.290133	0.413264
08001	0.649088	-2.428849	9.463729	-1.058664	3.036277	1.190202	-0.485698	0.103902	0.867930	0.200090	-0.953333	0.226097	0.850918	0.283478	0.442242
08002	1.817605	-2.327257	9.334067	-1.348696	3.297844	1.423744	-0.510892	0.081008	0.855819	0.195738	-0.958437	0.207570	0.837064	0.273562	0.473802
08003	2.263965	-2.086035	8.653794	-1.529593	3.530244	1.608984	-0.537049	0.056133	0.841681	0.191433	-0.963641	0.186413	0.821542	0.261238	0.506776
08004	2.718975	-1.727572	7.923037	-1.637940	3.656731	1.756090	-0.563630	0.029770	0.825491	0.187726	-0.968584	0.163106	0.804413	0.246898	0.540334
08005	3.511846	-1.495434	7.752434	-1.678607	3.715437	1.855560	-0.589715	0.002903	0.807606	0.185026	-0.972910	0.138603	0.786131	0.231165	0.573203
08006	4.868643	-1.537372	8.023595	-1.671036	3.756258	1.919900	-0.615514	-0.024288	0.787752	0.183580	-0.976449	0.113335	0.766447	0.214375	0.605477
08007	5.898781	-1.305567	8.200887	-1.639345	3.815444	1.939530	-0.640796	-0.051071	0.766010	0.183319	-0.979100	0.088076	0.745502	0.196863	0.636766
08008	6.394523	-0.829364	7.884045	-1.643832	3.873482	1.924243	-0.665876	-0.077301	0.742047	0.183789	-0.980962	0.062733	0.723070	0.178152	0.667406
08009	6.152643	0.029877	8.001217	-1.731310	3.888471	1.874099	-0.690092	-0.102199	0.716469	0.184127	-0.982197	0.037244	0.699907	0.157623	0.696624
08010	6.698970	1.497802	8.764104	-1.969376	3.883243	1.825697	-0.713612	-0.125900	0.689135	0.183371	-0.982990	0.010299	0.676116	0.133717	0.724560
08011	9.154724	2.684720	10.014455	-2.382926	3.957690	1.812220	-0.736589	-0.148412	0.659856	0.180640	-0.983355	-0.019526	0.651771	0.104814	0.751138
08012	11.758412	2.661188	10.568758	-2.825048	4.182999	1.862352	-0.760118	-0.170480	0.627022	0.176533	-0.982855	-0.053221	0.625345	0.070236	0.777181
08013	13.155574	1.316962	9.981129	-3.023908	4.442196	1.936070	-0.783871	-0.191748	0.590575	0.172959	-0.980908	-0.088912	0.596349	0.032450	0.802069
08014	13.902793	1.227154	9.722541	-2.934386	4.462160	2.129011	-0.806241	-0.213277	0.551805	0.172848	-0.976976	-0.125063	0.565774	-0.005452	0.824543
08015	16.649691	3.132897	9.824158	-2.733430	4.280434	2.484497	-0.825456	-0.236442	0.512560	0.178019	-0.970748	-0.161112	0.535661	-0.041745	0.843401
08016	21.588088	5.615154	9.565388	-2.457787	4.166435	2.924564	-0.841861	-0.262322	0.471654	0.189636	-0.961981	-0.196546	0.505281	-0.076022	0.859600
08017	24.736482	7.582466	7.337419	-2.036434	4.174619	3.246035	-0.855860	-0.289533	0.428573	0.207180	-0.951161	-0.228843	0.473899	-0.107066	0.874046
08018	24.497647	7.480510	3.038566	-1.251844	4.004892	3.118620	-0.867473	-0.314306	0.385619	0.228355	-0.940225	-0.252649	0.441977	-0.131108	0.887393
08019	22.889490	6.211938	-1.697971	-0.059773	3.426871	2.400133	-0.876382	-0.332064	0.348837	0.248988	-0.932388	-0.262026	0.412261	-0.142779	0.899808
08020	17.303054	-5.549499	-14.163931	2.555675	0.059492	0.685754	-0.874902	-0.338409	0.346447	0.265458	-0.933416	-0.241385	0.405066	-0.119221	0.906481
08021	31.447401	24.507727	-20.369455	2.771416	-0.733958	-0.080115	-0.872150	-0.338406	0.353320	0.275928	-0.936604	-0.215958	0.404002	-0.090857	0.910235
08022	33.554786	13.481537	-19.198866	1.251071	-2.996906	1.606087	-0.855150	-0.355813	0.376984	0.294989	-0.932020	-0.210524	0.426263	-0.068824	0.901977
08023	26.983270	2.371829	-16.126359	1.136004	-3.123368	2.924850	-0.832415	-0.384709	0.398854	0.324603	-0.921853	-0.211707	0.449130	-0.046759	0.892242
08024	13.865045	-6.917822	15.600348	1.749164	-3.427493	0.330799	-0.815551	-0.388840	0.428578	0.335353	-0.921141	-0.197581	0.471608	-0.017413	0.881636
08025	53.213897	48.610726	44.060893	6.324861	-1.378462	-2.535355	-0.817737	-0.365141	0.444948	0.344114	-0.929800	-0.130607	0.461402	0.046311	0.885981
08026	-24.705851	17.387442	27.022079	-4.248905	2.575580	0.437428	-0.828062	-0.369737	0.421436	0.328234	-0.929133	-0.170220	0.454507	-0.002623	0.890739
08027	8.021209	-24.409400	0.270788	0.066902	-6.023798	-0.244165	-0.800003	-0.366912	0.474732	0.326522	-0.930037	-0.168564	0.503366	0.020159	0.863838
08028	32.495261	-3.771145	-3.376391	-0.227423	0.203552	-0.045336	-0.801183	-0.366502	0.473056	0.325004	-0.930256	-0.170282	0.502472	0.017319	0.864420
08029	-8.131993	2.048006	22.924761	0.090734	0.971805	-0.194786	-0.806659	-0.364818	0.464983	0.323846	-0.930965	-0.168606	0.494393	0.014575	0.869116
08030	14.229684	-2.739265	1.721254	-0.055031	-0.852376	-0.023782	-0.802495	-0.364431	0.472432	0.323366	-0.931072	-0.168936	0.501433	0.017198	0.865025
08031	1.735754	-0.053827	11.534443	-0.043669	0.402291	-0.040136	-0.804637	-0.364096	0.469035	0.322781	-0.931236	-0.169150	0.498369	0.015292	0.866830
08032	8.090237	-2.319253	7.343948	-0.007679	0.038116	-0.004941	-0.804843	-0.364022	0.468738	0.322686	-0.931268	-0.169158	0.498098	0.015110	0.866989
08033	3.832540	-1.254507	9.700271	0.044693	0.063725	-0.011294	-0.805197	-0.363901	0.468224	0.322773	-0.931313	-0.168742	0.497468	0.015260	0.867348
08034	4.936259	-1.027238	8.978278	0.000852	0.209981	0.005313	-0.806222	-0.363948	0.466420	0.322802	-0.931306	-0.168724	0.495786	0.014532	0.868323
08035	4.512124	-1.078910	9.251186	0.009111	0.036508	0.014222	-0.806358	-0.364059	0.466098	0.322918	-0.931264	-0.168736	0.495490	0.014450	0.868493
08036	4.183076	-1.637526	9.161626	-0.007059	0.062153	0.016916	-0.806611	-0.364192	0.465557	0.323002	-0.931216	-0.168840	0.495024	0.014187	0.868763
08037	4.548240	-1.982570	8.881399	-0.006911	-0.008781	0.012559	-0.806527	-0.364281	0.465631	0.323025	-0.931182	-0.168983	0.495145	0.014121	0.868696
08038	5.074779	-1.880479	8.748763	-0.002103	-0.022197	0.007394	-0.806394	-0.364314	0.465838	0.323056	-0.931168	-0.169001	0.495342	0.014211	0.868582
08039	4.880181	-1.886522	8.806581	-0.005138	0.026535	0.002249	-0.806518	-0.364312	0.465623	0.323005	-0.931171	-0.169080	0.495173	0.014032	0.868681
08040	4.801345	-1.996867	8.931502	0.003400	0.023673	-0.008572	-0.806663	-0.364203	0.465458	0.322935	-0.931214	-0.168976	0.494983	0.014005	0.868790
08041	4.644156	-2.137792	8.939720	0.009332	0.002541	-0.020180	-0.806741	-0.363989	0.465490	0.322774	-0.931297	-0.168826	0.494960	0.014049	0.868802
08042	4.876247	-2.221120	8.851492	0.031630	-0.017929	-0.034822	-0.806765	-0.363629	0.465730	0.322631	-0.931432	-0.168356	0.495015	0.014436	0.868764
08043	4.945041	-1.836817	8.845795	0.056937	-0.003473	-0.040806	-0.806880	-0.363222	0.465849	0.322540	-0.931583	-0.167695	0.494887	0.014945	0.868829
08044	4.891815	-1.662935	8.827697	0.064469	0.012305	-0.037280	-0.807060	-0.362844	0.465830	0.322539	-0.931721	-0.166929	0.494593	0.015527	0.868986
08045	4.646981	-1.470492	8.997095	0.072665	0.021624	-0.040956	-0.807300	-0.362439	0.465730	0.322524	-0.931869	-0.166131	0.494212	0.016091	0.869193
08046	4.743200	-1.448557	8.974695	0.060786	0.003535	-0.040381	-0.807447	-0.362031	0.465792	0.322479	-0.932017	-0.165383	0.494000	0.016671	0.869302
08047	4.645736	-1.241992	8.997104	0.043064	0.003121	-0.033515	-0.807572	-0.361692	0.465840	0.322377	-0.932142	-0.164877	0.493864	0.017027	0.869373
08048	4.529676	-1.279551	9.022333	0.022337	-0.016042	-0.030812	-0.807591	-0.361370	0.466056	0.322220	-0.932262	-0.164506	0.493934	0.017319	0.869327
08049	4.189069	-1.605031	9.009015	-0.012455	-0.036880	-0.036134	-0.807526	-0.361000	0.466455	0.321823	-0.932405	-0.164470	0.494299	0.017302	0.869120
08050	4.201380	-2.167862	8.892549	-0.021808	-0.106294	-0.062608	-0.807202	-0.360365	0.467507	0.321191	-0.932647	-0.164335	0.495239	0.017508	0.868580
08051	4.136914	-2.096406	8.719887	-0.020334	-0.131875	-0.098999	-0.806866	-0.359392	0.468834	0.320247	-0.933018	-0.164072	0.496397	0.017759	0.867914
08052	4.247344	-1.888017	9.104962	-0.025161	-0.209975	-0.137584	-0.806262	-0.358038	0.470904	0.318994	-0.933528	-0.163612	0.498182	0.018301	0.866879
08053	4.905573	-1.668410	8.903814	-0.012541	-0.235646	-0.153050	-0.805573	-0.356538	0.473215	0.317654	-0.934088	-0.163023	0.500148	0.018992	0.865731
08054	5.451024	-1.079716	8.890708	0.010490	-0.216696	-0.142838	-0.804941	-0.355129	0.475345	0.316537	-0.934606	-0.162223	0.501871	0.019884	0.864714
08055	5.080592	-1.042300	9.018984	-0.008609	-0.173595	-0.115236	-0.804433	-0.353991	0.477052	0.315522	-0.935027	-0.161773	0.503322	0.020385	0.863858
08056	4.954349	-1.100428	9.137965	-0.031758	-0.167822	-0.096394	-0.803891	-0.353022	0.478680	0.314569	-0.935386	-0.161554	0.504783	0.020706	0.862998
08057	5.050755	-1.326980	9.107031	-0.048227	-0.187117	-0.081018	-0.803199	-0.352199	0.480444	0.313629	-0.935692	-0.161606	0.506465	0.020880	0.862007
08058	5.100155	-1.375132	9.026117	-0.050849	-0.173036	-0.072875	-0.802550	-0.351447	0.482076	0.312768	-0.935971	-0.161660	0.508024	0.021038	0.861086
08059	5.088535	-1.508006	8.949718	-0.050415	-0.169982	-0.065525	-0.801890	-0.350772	0.483664	0.311942	-0.936223	-0.161801	0.509573	0.021128	0.860168
08060	5.029349	-1.643400	8.995946	-0.047590	-0.171436	-0.063182	-0.801213	-0.350111	0.485264	0.311174	-0.936466	-0.161871	0.511106	0.021309	0.859254
08061	4.941833	-1.727953	8.803863	-0.036665	-0.176242	-0.063760	-0.800508	-0.349449	0.486900	0.310431	-0.936708	-0.161899	0.512658	0.021547	0.858322
08062	4.621510	-1.709737	9.024765	-0.039522	-0.189808	-0.071488	-0.799756	-0.348705	0.488667	0.309638	-0.936978	-0.161856	0.514310	0.021864	0.857325
08063	5.017715	-1.639179	8.949026	-0.035265	-0.255678	-0.083930	-0.798697	-0.347835	0.491013	0.308740	-0.937288	-0.161771	0.516490	0.022390	0.856001
08064	4.781339	-1.723121	9.043523	-0.038656	-0.263678	-0.085803	-0.797598	-0.346938	0.493429	0.307837	-0.937607	-0.161646	0.518724	0.022967	0.854633
08065	4.956841	-1.849487	8.969777	-0.018203	-0.320057	-0.099751	-0.796240	-0.345900	0.496342	0.306903	-0.937968	-0.161331	0.521357	0.023871	0.853005
08066	4.550826	-2.094894	9.177309	-0.006190	-0.334801	-0.124569	-0.794872	-0.344617	0.499418	0.305861	-0.938411	-0.160731	0.524049	0.024992	0.851321
08067	4.091726	-2.092840	9.248167	0.027096	-0.448635	-0.144959	-0.792955	-0.343113	0.503483	0.304807	-0.938913	-0.159796	0.527555	0.026754	0.849099
08068	4.041675	-1.542326	9.680596	-0.031221	-0.591570	-0.222064	-0.790496	-0.340831	0.508871	0.302865	-0.939692	-0.158905	0.532342	0.028506	0.846049
08069	4.948869	-1.345784	9.298250	-0.025198	-0.646036	-0.226039	-0.787722	-0.338488	0.514703	0.300901	-0.940478	-0.157983	0.537543	0.030428	0.842687
08070	4.663390	-1.552484	9.298795	-0.016996	-0.752995	-0.226628	-0.784334	-0.336085	0.521409	0.299010	-0.941259	-0.156919	0.543519	0.032829	0.838755
08071	4.656172	-1.500721	9.340212	-0.009000	-0.813409	-0.225670	-0.780559	-0.333655	0.528585	0.297149	-0.942029	-0.155831	0.549937	0.035433	0.834454
08072	4.990898	-1.459462	9.190569	0.015363	-0.935130	-0.235567	-0.776083	-0.331055	0.536747	0.295383	-0.942817	-0.154416	0.557174	0.038707	0.829493
08073	4.877614	-1.114163	9.404999	0.042679	-1.016145	-0.236980	-0.771079	-0.328380	0.545531	0.293743	-0.943592	-0.152801	0.564935	0.042424	0.824044
08074	5.140311	-1.056499	9.572073	0.073591	-1.148223	-0.233009	-0.765230	-0.325633	0.555325	0.292355	-0.944333	-0.150880	0.573543	0.046894	0.817832
08075	4.769128	-1.548435	9.617259	0.149866	-1.307925	-0.249635	-0.758393	-0.322597	0.566367	0.291273	-0.945078	-0.148279	0.583095	0.052514	0.810705
08076	4.626258	-2.008564	9.442732	0.239732	-1.510247	-0.302306	-0.750391	-0.318857	0.579003	0.290387	-0.945924	-0.144578	0.593792	0.059645	0.802405
08077	4.501498	-2.406621	9.157601	0.391979	-1.737637	-0.410081	-0.741157	-0.313832	0.593461	0.289632	-0.946982	-0.139065	0.605640	0.068816	0.792757
08078	4.228027	-2.670080	9.210565	0.553842	-2.006301	-0.554730	-0.730486	-0.307043	0.610012	0.288924	-0.948301	-0.131332	0.618799	0.080311	0.781433
08079	3.608449	-3.181299	9.518973	0.758982	-2.394923	-0.777779	-0.717725	-0.297536	0.629558	0.287999	-0.950000	-0.120649	0.633978	0.094719	0.767529
08080	2.811966	-3.750415	10.430155	0.949933	-2.896757	-1.152926	-0.702421	-0.283535	0.652849	0.285901	-0.952377	-0.106012	0.651817	0.112185	0.750033
08081	3.231989	-4.257938	10.701680	1.178229	-3.606546	-1.601691	-0.683069	-0.263800	0.681048	0.282564	-0.955328	-0.086638	0.673480	0.133260	0.727095
08082	5.565145	-4.370176	11.227492	1.417524	-4.063557	-1.986065	-0.660819	-0.238860	0.711523	0.278909	-0.958271	-0.062659	0.696799	0.157044	0.699864
08083	7.938587	-5.062048	11.873034	1.453087	-4.191393	-2.259739	-0.637370	-0.210069	0.741371	0.274486	-0.960906	-0.036294	0.720012	0.180363	0.670113
08084	9.542049	-4.783830	12.525879	1.543983	-4.249506	-2.555857	-0.613274	-0.177289	0.769717	0.269766	-0.962901	-0.006848	0.742375	0.203444	0.638349
08085	12.146732	-4.477712	12.945186	1.368982	-4.146094	-2.694125	-0.589230	-0.142445	0.795310	0.263826	-0.964302	0.022751	0.763678	0.223229	0.605776
08086	11.857920	-5.727448	11.967125	1.252330	-4.211704	-2.819179	-0.563994	-0.105448	0.819018	0.257233	-0.964900	0.052906	0.784692	0.240517	0.571323
08087	12.176207	-5.402955	11.730613	1.109386	-4.228051	-2.995912	-0.537961	-0.066031	0.840379	0.249493	-0.964734	0.083909	0.805202	0.254809	0.535464
08088	12.781957	-7.823939	12.788591	1.238564	-4.075142	-3.156058	-0.512576	-0.024917	0.858280	0.242961	-0.962937	0.117144	0.823551	0.268574	0.499632
08089	8.791704	-7.786493	11.899179	1.537926	-3.692094	-3.290184	-0.489815	0.016930	0.871662	0.239200	-0.958834	0.153037	0.838370	0.283461	0.465602
08090	5.719624	-7.412129	9.762000	1.800881	-3.364111	-3.349528	-0.469448	0.058755	0.881003	0.238289	-0.952330	0.190486	0.850198	0.299357	0.433069
08091	-4.469603	-4.686247	5.751212	2.548353	-3.311878	-3.746320	-0.450138	0.104540	0.886819	0.242797	-0.941379	0.234213	0.859317	0.320745	0.398368
08092	22.734361	4.570391	21.915946	2.333421	-3.417025	-3.395848	-0.428996	0.147567	0.891171	0.247972	-0.929426	0.273271	0.868604	0.338218	0.362128
08093	11.686584	-1.033424	23.308352	0.084306	-0.296109	-2.084022	-0.431496	0.167933	0.886346	0.239688	-0.925863	0.292107	0.869690	0.338490	0.359255
08094	5.134330	-6.703103	17.102782	-0.936125	0.861093	-1.249354	-0.441961	0.176601	0.879478	0.226030	-0.926870	0.299704	0.868090	0.331246	0.369724
08095	-2.094127	-10.443763	11.672139	-1.071628	1.476757	-0.668524	-0.456211	0.178000	0.871887	0.213698	-0.929204	0.301518	0.863831	0.323876	0.385875
08096	-5.001075	-9.918611	8.376098	-0.834760	1.474950	-0.277093	-0.469584	0.175796	0.865209	0.205148	-0.931428	0.300592	0.858723	0.318649	0.401320
08097	-4.432659	-7.629061	7.733385	-0.701608	1.388956	0.030600	-0.481405	0.171145	0.859627	0.199236	-0.933711	0.297470	0.853554	0.314472	0.415395
08098	-2.313128	-5.640380	8.814535	-0.856212	1.496108	0.385073	-0.493475	0.162822	0.854384	0.193746	-0.937061	0.290481	0.847906	0.308879	0.430870
08099	-0.628006	-5.266272	9.921704	-1.145276	1.810990	0.799603	-0.507233	0.149819	0.848686	0.188024	-0.941812	0.278635	0.841048	0.300907	0.449549
08100	0.916302	-4.863011	10.857879	-1.369387	2.209712	1.217324	-0.523574	0.131709	0.841738	0.182757	-0.947618	0.261953	0.832148	0.290985	0.472077
08101	2.206751	-3.017504	11.062560	-1.583721	2.631676	1.588190	-0.542454	0.109136	0.832966	0.178080	-0.954054	0.240973	0.820994	0.279051	0.498095
08102	2.197298	0.018305	10.348075	-1.894110	2.982583	1.831720	-0.563652	0.083421	0.821789	0.172701	-0.960997	0.216006	0.807756	0.263676	0.527261
08103	2.030375	2.005238	9.259961	-2.306366	3.172700	1.917350	-0.585808	0.056906	0.808450	0.165204	-0.968203	0.187860	0.793434	0.243609	0.557779
08104	2.609493	2.432611	8.109284	-2.637480	3.225997	1.841989	-0.608337	0.031458	0.793055	0.155400	-0.975153	0.157885	0.778317	0.219288	0.588333
08105	3.403720	1.453775	7.538003	-2.734191	3.209625	1.648157	-0.630588	0.008745	0.776068	0.144492	-0.981132	0.128461	0.762549	0.193141	0.617427
08106	4.177082	0.210185	7.748873	-2.559237	3.120805	1.438905	-0.652250	-0.011119	0.757922	0.134354	-0.985756	0.101161	0.746002	0.167812	0.644454
08107	5.063908	0.083100	8.503602	-2.265499	3.021155	1.292172	-0.672841	-0.028572	0.739235	0.126156	-0.989049	0.076598	0.728951	0.144797	0.669077
08108	6.736197	0.764307	9.212062	-2.048148	2.992357	1.248455	-0.692974	-0.045022	0.719556	0.119883	-0.991349	0.053427	0.710926	0.123286	0.692377
08109	7.771940	0.580559	9.428539	-1.946864	3.039147	1.331851	-0.712716	-0.061635	0.698739	0.115538	-0.992842	0.030271	0.691872	0.102306	0.714736
08110	7.968179	-0.390474	9.536486	-1.828321	3.058755	1.482356	-0.731991	-0.079247	0.676690	0.113738	-0.993488	0.006686	0.671753	0.081859	0.736238
08111	8.841099	-1.927761	9.800550	-1.632960	3.051912	1.668043	-0.750260	-0.097998	0.653839	0.115250	-0.993197	-0.016615	0.651020	0.062890	0.756451
08112	9.949753	-3.014133	10.123352	-1.370590	3.088346	1.912293	-0.767879	-0.118725	0.629496	0.120960	-0.991870	-0.039519	0.629071	0.045798	0.775998
08113	10.692137	-3.256665	10.403857	-1.145717	3.133755	2.183109	-0.784482	-0.141520	0.603788	0.130781	-0.989471	-0.061999	0.606205	0.030327	0.794730
08114	12.049635	-1.735000	10.609813	-1.084360	3.141423	2.483483	-0.799844	-0.166817	0.576561	0.143982	-0.985879	-0.085505	0.582683	0.014623	0.812568
08115	14.054667	1.274638	10.528693	-1.306809	3.130927	2.835813	-0.813419	-0.194848	0.548073	0.159349	-0.980826	-0.112201	0.559426	-0.003932	0.828871
08116	15.879293	3.919568	9.459594	-1.686079	3.171375	3.119595	-0.825651	-0.224899	0.517417	0.175661	-0.974002	-0.143052	0.536137	-0.027221	0.843692
08117	16.335195	5.856298	7.133508	-1.945390	3.143149	3.204881	-0.836255	-0.254687	0.485604	0.192038	-0.965533	-0.175690	0.513613	-0.053667	0.856342
08118	14.820799	6.914608	4.805494	-1.883086	2.974867	2.986632	-0.845316	-0.281438	0.454130	0.207670	-0.956249	-0.206059	0.492254	-0.079876	0.866779
08119	13.635830	7.941354	3.212671	-1.507102	2.529178	2.452060	-0.852276	-0.302463	0.426780	0.221159	-0.947726	-0.230010	0.474040	-0.101646	0.874617
08120	16.301437	11.168730	2.866262	-1.119259	2.061477	1.705120	-0.858092	-0.316318	0.404501	0.230516	-0.941197	-0.247005	0.458847	-0.118709	0.880550
08121	19.416783	14.137817	2.064479	-1.110987	1.889712	1.050468	-0.864191	-0.323756	0.385170	0.234496	-0.936428	-0.260989	0.445181	-0.135223	0.885172
08122	16.503226	5.421571	2.239264	-1.430500	1.823179	0.821060	-0.870300	-0.328793	0.366706	0.235337	-0.931660	-0.276814	0.432660	-0.154612	0.888201
08123	18.609206	-6.022868	-19.503442	3.275115	-1.503457	-0.717198	-0.865471	-0.324120	0.381978	0.243326	-0.938488	-0.245017	0.437896	-0.119110	0.891100
08124	20.342101	18.882888	-9.104475	2.643469	-1.010550	-0.295761	-0.861792	-0.322398	0.391631	0.252354	-0.942214	-0.220340	0.440037	-0.091058	0.893351
08125	27.444871	12.842484	-18.502268	1.644618	-3.390814	2.172523	-0.840688	-0.345416	0.417052	0.278246	-0.936243	-0.214542	0.464568	-0.064320	0.883199
08126	29.567485	-20.577200	10.530969	4.183734	-4.725180	0.390853	-0.816963	-0.350783	0.457736	0.301462	-0.936416	-0.179570	0.491622	-0.008712	0.870765
08127	53.944271	84.711383	49.592285	3.471222	1.820344	-2.125081	-0.832080	-0.330860	0.445168	0.300520	-0.943514	-0.139530	0.466188	0.017681	0.884509
08128	-40.464494	-0.269210	4.327034	-2.351585	1.086779	0.415035	-0.835893	-0.334788	0.434972	0.293031	-0.942259	-0.162113	0.464130	-0.008049	0.885731
08129	32.044501	-30.136298	10.331531	-0.768757	-5.949868	0.254037	-0.806005	-0.337255	0.486431	0.291307	-0.941402	-0.170009	0.515263	0.004672	0.857019
08130	9.440062	15.121745	5.687249	1.381991	3.814158	-0.995014	-0.827877	-0.328021	0.454996	0.290035	-0.944657	-0.153308	0.480103	0.005044	0.877198
08131	-4.326239	-4.269620	13.874833	-1.209039	-2.322120	0.508197	-0.814996	-0.332718	0.474426	0.288224	-0.943025	-0.166224	0.502701	0.001269	0.864459
08132	16.295979	-2.957083	2.664307	0.245806	0.399562	-0.160376	-0.817455	-0.331178	0.471262	0.288132	-0.943565	-0.163292	0.498745	0.002302	0.866746
08133	0.804102	0.167981	12.376410	-0.087999	0.072974	0.012385	-0.817783	-0.331270	0.470629	0.287750	-0.943535	-0.164137	0.498428	0.001195	0.866930
08134	8.237908	-2.363514	7.039152	-0.050703	0.219848	0.020260	-0.818812	-0.331426	0.468726	0.287649	-0.943481	-0.164626	0.496795	0.000031	0.867868
08135	3.478967	-1.018229	9.987224	-0.007603	-0.004243	0.017147	-0.818741	-0.331562	0.468754	0.287707	-0.943434	-0.164797	0.496879	-0.000062	0.867820
08136	4.810496	-0.117737	9.263516	-0.081339	0.217541	0.050792	-0.819666	-0.332003	0.466821	0.287703	-0.943277	-0.165695	0.495353	-0.001509	0.868691
08137	4.311229	-0.922983	9.283172	-0.104556	-0.044892	0.088096	-0.819190	-0.332808	0.467084	0.287862	-0.942992	-0.167039	0.496048	-0.002381	0.868292
08138	4.444620	-1.996327	8.972955	-0.093291	0.011413	0.096838	-0.818960	-0.333684	0.466861	0.288178	-0.942679	-0.168253	0.496244	-0.003254	0.868177
08139	4.914350	-2.715710	8.531040	-0.053647	-0.035250	0.079993	-0.818554	-0.334413	0.467052	0.288522	-0.942419	-0.169117	0.496714	-0.003677	0.867907
08140	4.850215	-2.719193	8.571012	-0.030187	-0.014228	0.049599	-0.818333	-0.334845	0.467130	0.288762	-0.942265	-0.169565	0.496939	-0.003871	0.867777
08141	4.814704	-2.360873	8.712707	-0.028209	-0.008446	0.022854	-0.818224	-0.335034	0.467184	0.288765	-0.942197	-0.169941	0.497116	-0.004143	0.867674
08142	4.560245	-1.975464	8.882598	-0.037646	-0.029758	0.006023	-0.818051	-0.335056	0.467471	0.288610	-0.942188	-0.170252	0.497490	-0.004358	0.867459
08143	4.361527	-1.476846	9.219166	-0.061676	-0.089213	0.006761	-0.817587	-0.335097	0.468253	0.288314	-0.942172	-0.170843	0.498424	-0.004675	0.866921
08144	4.643752	-1.233278	9.114203	-0.088223	-0.147947	0.030026	-0.816755	-0.335352	0.469522	0.288102	-0.942080	-0.171705	0.499909	-0.004970	0.866064
08145	4.899807	-1.330079	8.975682	-0.105041	-0.150503	0.051110	-0.815854	-0.335815	0.470756	0.287949	-0.941912	-0.172879	0.501466	-0.005490	0.865160
08146	4.807174	-1.505098	8.780824	-0.110534	-0.125095	0.063666	-0.815035	-0.336385	0.471766	0.287897	-0.941705	-0.174090	0.502826	-0.006070	0.864367
08147	4.424084	-1.808544	8.995822	-0.136210	-0.160223	0.061913	-0.814049	-0.336952	0.473061	0.287670	-0.941497	-0.175584	0.504549	-0.006848	0.863356
08148	4.753107	-1.936453	8.919348	-0.145860	-0.216764	0.048973	-0.812805	-0.337393	0.474883	0.287315	-0.941334	-0.177030	0.506752	-0.007450	0.862060
08149	5.165553	-1.785966	8.720714	-0.118267	-0.193447	0.025893	-0.811748	-0.337625	0.476523	0.286880	-0.941247	-0.178196	0.508690	-0.007945	0.860913
08150	5.108973	-1.976879	8.740412	-0.100294	-0.163056	0.003494	-0.810900	-0.337635	0.477958	0.286381	-0.941240	-0.179032	0.510321	-0.008299	0.859944
08151	5.000947	-1.984153	8.717295	-0.068174	-0.136835	-0.020207	-0.810258	-0.337430	0.479190	0.285824	-0.941312	-0.179545	0.511651	-0.008513	0.859151
08152	5.097915	-1.707272	8.868960	-0.047268	-0.140509	-0.026705	-0.809607	-0.337155	0.480483	0.285349	-0.941411	-0.179779	0.512945	-0.008445	0.858380
08153	5.251142	-1.810837	8.693060	-0.032970	-0.103300	-0.034020	-0.809173	-0.336817	0.481450	0.284859	-0.941532	-0.179922	0.513902	-0.008443	0.857808
08154	5.107933	-1.745367	8.816883	-0.017092	-0.083467	-0.039803	-0.808849	-0.336412	0.482276	0.284432	-0.941678	-0.179834	0.514647	-0.008284	0.857362
08155	5.099096	-1.669371	8.824948	-0.000067	-0.069559	-0.049485	-0.808631	-0.335926	0.482981	0.283987	-0.941854	-0.179619	0.515236	-0.008085	0.857010
08156	5.056115	-1.442738	8.858371	0.014960	-0.051636	-0.052019	-0.808504	-0.335403	0.483555	0.283626	-0.942043	-0.179196	0.515633	-0.007732	0.856775
08157	5.112873	-1.390658	8.873976	0.010168	-0.043646	-0.043235	-0.808401	-0.334973	0.484026	0.283284	-0.942198	-0.178924	0.515983	-0.007525	0.856566
08158	5.027014	-1.515542	8.845239	0.003847	-0.031011	-0.035316	-0.808333	-0.334605	0.484393	0.283001	-0.942330	-0.178676	0.516244	-0.007346	0.856410
08159	4.899353	-1.654166	8.838728	-0.002371	-0.039420	-0.030838	-0.808216	-0.334291	0.484806	0.282695	-0.942442	-0.178570	0.516596	-0.007271	0.856199
08160	4.800862	-1.854555	8.848880	-0.019117	-0.055715	-0.036639	-0.808024	-0.333913	0.485386	0.282283	-0.942576	-0.178512	0.517121	-0.007226	0.855882
08161	4.608796	-1.969436	8.834591	-0.031689	-0.094681	-0.047359	-0.807666	-0.333447	0.486301	0.281691	-0.942741	-0.178577	0.518001	-0.007244	0.855349
08162	4.763580	-1.985142	8.819633	-0.043934	-0.139815	-0.056071	-0.807091	-0.332892	0.487634	0.280994	-0.942938	-0.178636	0.519275	-0.007153	0.854577
08163	4.613715	-2.124819	8.799154	-0.046043	-0.165415	-0.071394	-0.806430	-0.332204	0.489194	0.280133	-0.943181	-0.178704	0.520764	-0.007073	0.853671
08164	4.738113	-2.071327	8.803787	-0.033882	-0.212831	-0.086264	-0.805554	-0.331368	0.491200	0.279244	-0.943478	-0.178527	0.522595	-0.006649	0.852555
08165	4.901068	-1.598987	8.901894	-0.023506	-0.222660	-0.100522	-0.804667	-0.330408	0.493296	0.278266	-0.943818	-0.178256	0.524479	-0.006169	0.851401
08166	5.248309	-1.273593	8.934491	-0.013040	-0.218843	-0.087716	-0.803754	-0.329556	0.495351	0.277475	-0.944120	-0.177891	0.526295	-0.005533	0.850284
08167	5.213341	-1.716092	8.829036	-0.016365	-0.202788	-0.078701	-0.802902	-0.328797	0.497233	0.276711	-0.944387	-0.177662	0.527995	-0.005055	0.849232
08168	5.143446	-1.922722	8.851018	-0.004807	-0.194478	-0.085935	-0.802104	-0.327957	0.499072	0.275979	-0.944682	-0.177232	0.529589	-0.004425	0.848243
08169	5.171916	-2.072123	8.767082	0.002995	-0.213927	-0.099326	-0.801242	-0.327001	0.501081	0.275153	-0.945017	-0.176732	0.531322	-0.003731	0.847162
08170	5.016336	-1.963523	8.860933	0.009516	-0.233002	-0.120343	-0.800325	-0.325834	0.503301	0.274223	-0.945423	-0.176005	0.533181	-0.002844	0.845996
08171	5.173480	-1.945710	8.728448	0.002472	-0.259253	-0.145959	-0.799338	-0.324433	0.505769	0.273023	-0.945906	-0.175270	0.535273	-0.002013	0.844677
08172	5.033816	-1.697232	8.873192	-0.015574	-0.231310	-0.181911	-0.798586	-0.322678	0.508074	0.271468	-0.946508	-0.174437	0.537183	-0.001377	0.843464
08173	4.953878	-1.913945	8.805408	-0.054814	-0.238014	-0.205441	-0.797859	-0.320710	0.510457	0.269488	-0.947177	-0.173875	0.539257	-0.001166	0.842141
08174	4.403851	-0.912536	9.416985	0.022615	-0.446676	-0.173401	-0.795902	-0.319030	0.514549	0.268210	-0.947744	-0.172754	0.542774	0.000512	0.839878
08175	4.710329	-1.568935	9.172396	-0.052926	-0.372056	-0.158020	-0.794297	-0.317503	0.517962	0.266620	-0.948257	-0.172404	0.545899	0.001159	0.837850
08176	4.963352	-1.015602	9.270292	-0.039047	-0.543268	-0.136218	-0.791676	-0.316163	0.522772	0.265309	-0.948702	-0.171978	0.550328	0.002545	0.834945
08177	4.696261	-1.231883	9.319417	-0.049404	-0.629011	-0.110485	-0.788488	-0.315067	0.528222	0.264117	-0.949061	-0.171831	0.555453	0.004026	0.831538
08178	4.985865	-1.538141	9.046595	-0.062532	-0.688107	-0.097729	-0.784899	-0.314068	0.534130	0.262983	-0.949384	-0.171785	0.561046	0.005633	0.827765
08179	4.816410	-1.387619	9.289867	-0.048741	-0.797375	-0.093914	-0.780644	-0.313096	0.540893	0.261926	-0.949691	-0.171703	0.567441	0.007635	0.823379
08180	5.117825	-1.779720	8.900732	-0.046254	-0.922671	-0.082196	-0.775586	-0.312194	0.548636	0.261007	-0.949964	-0.171589	0.574754	0.010116	0.818264
08181	4.944286	-1.905534	9.033538	-0.028221	-1.012920	-0.103770	-0.769991	-0.311064	0.557093	0.259995	-0.950300	-0.171265	0.582680	0.012968	0.812598
08182	4.821222	-2.073357	9.149139	0.003885	-1.157475	-0.134140	-0.763540	-0.309578	0.566717	0.258974	-0.950729	-0.170434	0.591557	0.016632	0.806092
08183	4.869054	-2.216142	9.177778	0.073065	-1.336563	-0.181420	-0.756033	-0.307571	0.577767	0.257984	-0.951284	-0.168828	0.601547	0.021415	0.798550
08184	4.825961	-2.410141	9.096498	0.176709	-1.523269	-0.244002	-0.747412	-0.304833	0.590298	0.257207	-0.952000	-0.165953	0.612552	0.027794	0.789941
08185	4.956570	-1.992245	9.012108	0.271367	-1.736208	-0.326938	-0.737506	-0.301142	0.604482	0.256411	-0.952915	-0.161887	0.624770	0.035603	0.779997
08186	4.342671	-1.818084	9.466813	0.292645	-2.015892	-0.410560	-0.725820	-0.296377	0.620762	0.255240	-0.954036	-0.157059	0.638778	0.044447	0.768106
08187	3.974724	-1.824507	9.304958	0.326369	-2.408120	-0.525894	-0.711572	-0.290136	0.639911	0.253524	-0.955427	-0.151276	0.655279	0.054589	0.753412
08188	3.727134	-2.446649	9.033737	0.365069	-2.839831	-0.708890	-0.694483	-0.281596	0.662115	0.250952	-0.957245	-0.143894	0.674326	0.066227	0.735458
08189	3.554568	-2.954909	9.127551	0.504344	-3.301986	-0.969498	-0.674275	-0.269859	0.687408	0.247723	-0.959560	-0.133709	0.695692	0.080130	0.713857
08190	4.388107	-3.125505	9.465379	0.631333	-3.750468	-1.239641	-0.650800	-0.254596	0.715291	0.243959	-0.962265	-0.120538	0.718988	0.096055	0.688353
08191	6.282939	-4.380712	9.860157	0.770648	-4.023389	-1.514181	-0.625046	-0.235759	0.744134	0.239882	-0.965183	-0.104300	0.742815	0.113312	0.659838
08192	7.856567	-4.348362	10.274688	0.965920	-4.198240	-1.802050	-0.597669	-0.213139	0.772893	0.236135	-0.968052	-0.084357	0.766180	0.132089	0.628904
08193	9.762750	-5.868589	11.457121	1.125461	-4.268144	-2.105784	-0.569414	-0.186639	0.800583	0.232544	-0.970678	-0.060896	0.788474	0.151496	0.596119
08194	9.711604	-4.143435	11.697355	1.303461	-4.264002	-2.312458	-0.540718	-0.157233	0.826379	0.230098	-0.972556	-0.034488	0.809123	0.171500	0.562057
08195	11.059164	-3.377270	11.790661	1.138505	-4.385841	-2.400276	-0.510251	-0.125935	0.850755	0.226762	-0.973916	-0.008163	0.829592	0.188754	0.525499
08196	10.100178	-3.467915	10.652293	0.963841	-4.492461	-2.482828	-0.478132	-0.092894	0.873362	0.222558	-0.974750	0.018164	0.849622	0.203058	0.486733
08197	11.323415	-3.939955	10.382496	0.915790	-4.628737	-2.636782	-0.444151	-0.057466	0.894107	0.218217	-0.974828	0.045746	0.868971	0.215427	0.445511
08198	13.122600	-4.325490	12.075610	0.939336	-4.405274	-2.746567	-0.411476	-0.020930	0.911180	0.214676	-0.973834	0.074576	0.885778	0.226295	0.405202
08199	12.940519	-5.692587	11.789755	0.997342	-3.960397	-2.806819	-0.382104	0.015567	0.923988	0.212391	-0.971613	0.104201	0.899381	0.236062	0.367951
08200	11.215189	-6.780770	10.313107	1.432330	-3.563715	-2.840779	-0.355984	0.051777	0.933057	0.214823	-0.967189	0.135632	0.909465	0.248725	0.333181
08201	4.025126	-6.648822	6.251334	1.840252	-3.033892	-2.756453	-0.334302	0.086166	0.938519	0.222058	-0.960575	0.167288	0.915933	0.264330	0.301988
08202	-6.948441	-0.100578	9.244007	2.519699	-2.572730	-2.845586	-0.317271	0.120453	0.940654	0.235853	-0.950713	0.201291	0.918538	0.285720	0.273225
08203	28.047711	6.784663	32.368272	1.521166	-1.824242	-2.208746	-0.305774	0.146725	0.940731	0.242912	-0.943334	0.226087	0.920596	0.297646	0.252805
08204	10.250317	-2.576295	24.237658	-1.114374	2.544876	-0.898689	-0.331347	0.147725	0.931873	0.229767	-0.945300	0.231552	0.915105	0.290837	0.279280
08205	-4.444049	-5.334457	11.386294	-1.466684	2.799697	-0.352466	-0.357655	0.143090	0.922826	0.215127	-0.948989	0.230522	0.908737	0.280972	0.308628
08206	-6.360151	-7.089995	6.622452	-1.211472	2.610276	-0.091047	-0.381590	0.136706	0.914167	0.203763	-0.952232	0.227453	0.901593	0.273067	0.335506
08207	-3.955295	-6.018896	5.636986	-0.798669	2.364296	-0.038299	-0.402884	0.130699	0.905871	0.196393	-0.954352	0.225039	0.893932	0.268571	0.358824
08208	-1.043660	-4.406435	7.054407	-0.523806	2.332386	0.065660	-0.423629	0.123801	0.897336	0.191939	-0.955855	0.222488	0.885267	0.266486	0.381166
08209	2.027229	-3.570232	8.892141	-0.466883	2.607683	0.311249	-0.445976	0.113924	0.887765	0.189133	-0.957474	0.217882	0.874834	0.265076	0.405464
08210	3.161648	-2.992538	9.199341	-0.533702	3.039599	0.630727	-0.471316	0.099808	0.876299	0.187323	-0.959579	0.210045	0.861842	0.263148	0.433568
08211	2.802917	-2.182444	8.437839	-0.639394	3.369068	0.946057	-0.498323	0.081935	0.863111	0.186397	-0.962120	0.198951	0.846718	0.260023	0.464174
08212	3.300269	-1.623012	7.853841	-0.756603	3.549726	1.204302	-0.525976	0.061136	0.848299	0.186154	-0.964953	0.184965	0.829877	0.255201	0.496161
08213	4.244941	-1.612585	7.573288	-0.837514	3.687522	1.416049	-0.553594	0.038186	0.831911	0.186873	-0.967777	0.168777	0.811550	0.248895	0.528619
08214	4.318205	-1.283855	7.163967	-0.856167	3.773052	1.583809	-0.581003	0.013532	0.813789	0.188930	-0.970308	0.151021	0.791669	0.241493	0.561196
08215	4.536969	-0.811493	7.090986	-0.842675	3.767699	1.742211	-0.607112	-0.012307	0.794521	0.192646	-0.972330	0.132144	0.770910	0.233288	0.592684
08216	5.225904	-0.117443	7.423961	-0.854505	3.740352	1.846730	-0.632077	-0.038885	0.773929	0.197535	-0.973831	0.112401	0.749305	0.223924	0.623218
08217	5.910657	0.405294	7.666215	-0.914960	3.718489	1.889513	-0.655743	-0.065392	0.752147	0.202898	-0.974856	0.092137	0.727210	0.213027	0.652523
08218	5.942765	0.656626	7.203816	-0.992639	3.705128	1.848673	-0.678599	-0.091133	0.728834	0.208075	-0.975477	0.071761	0.704421	0.200349	0.680920
08219	5.647991	0.692329	7.077119	-1.083953	3.612522	1.757452	-0.699938	-0.115230	0.704847	0.212626	-0.975769	0.051625	0.681819	0.186003	0.707479
08220	6.355354	1.099001	7.796488	-1.216922	3.465997	1.653076	-0.719767	-0.137575	0.680448	0.216155	-0.975856	0.031345	0.659706	0.169643	0.732126
08221	8.237497	2.299080	9.395053	-1.444617	3.388766	1.567045	-0.738352	-0.158264	0.655583	0.218157	-0.975861	0.010118	0.638156	0.150491	0.755056
08222	10.792475	3.810051	10.687044	-1.834178	3.502142	1.494270	-0.757169	-0.177743	0.628572	0.217797	-0.975899	-0.013603	0.615841	0.126601	0.777633
08223	11.434915	4.362917	10.248036	-2.262417	3.728647	1.452102	-0.776545	-0.196065	0.598779	0.215219	-0.975731	-0.040381	0.592164	0.097511	0.799896
08224	11.323529	3.988854	8.944519	-2.467847	3.811195	1.390407	-0.795775	-0.212771	0.566984	0.211822	-0.974901	-0.068552	0.567339	0.065547	0.820871
08225	12.274571	2.602930	8.051074	-2.380055	3.708028	1.320832	-0.813571	-0.227460	0.535130	0.209196	-0.973188	-0.095613	0.542530	0.034159	0.839341
08226	13.677217	1.198435	7.510192	-2.000345	3.520484	1.197564	-0.829817	-0.239842	0.503864	0.208424	-0.970791	-0.118847	0.517651	0.006396	0.855568
08227	14.206359	1.006593	7.056772	-1.545755	3.315533	1.008078	-0.844469	-0.249418	0.473986	0.209006	-0.968251	-0.137136	0.493142	-0.016742	0.869788
08228	15.685815	2.944313	7.093055	-1.294961	3.043893	0.852892	-0.857404	-0.256866	0.445957	0.210024	-0.965736	-0.152457	0.469838	-0.037056	0.881974
08229	17.574556	5.484268	5.442137	-1.463415	2.792402	0.855078	-0.868431	-0.263752	0.419836	0.210637	-0.962817	-0.169164	0.448842	-0.058475	0.891696
08230	16.692154	-9.213403	-9.283609	-1.266390	-0.495999	2.071868	-0.861746	-0.283961	0.420428	0.222831	-0.956326	-0.189176	0.455785	-0.069337	0.887385
08231	35.074509	8.872406	-15.274461	1.105343	-1.749904	2.538890	-0.847662	-0.309207	0.431114	0.249596	-0.949480	-0.190233	0.468156	-0.053649	0.882016
08232	41.831267	-1.686190	-14.119964	1.336802	-3.092710	3.764475	-0.822756	-0.346039	0.450921	0.287430	-0.937709	-0.195154	0.490364	-0.030956	0.870968
08233	56.160839	25.475036	-15.993109	4.973040	-3.273748	1.468692	-0.802019	-0.359815	0.476758	0.323998	-0.932630	-0.158825	0.501787	0.027088	0.864567
08234	16.192021	46.615723	18.811050	-0.002129	1.860191	0.123060	-0.810804	-0.361368	0.460446	0.324938	-0.932201	-0.159425	0.486839	0.020354	0.873254
08235	1.158273	19.562292	27.134716	-1.247369	-0.121897	0.200290	-0.809562	-0.363190	0.461197	0.320413	-0.931670	-0.171249	0.491880	0.009137	0.870615
08236	0.929771	-38.366572	6.372646	-1.717386	-1.515815	0.758974	-0.799538	-0.370153	0.472996	0.317918	-0.928970	-0.189586	0.509575	-0.001207	0.860425
08237	8.269430	4.936727	4.496499	1.322956	0.128158	-0.997561	-0.803353	-0.360848	0.473722	0.316586	-0.932564	-0.173485	0.504378	0.010604	0.863418
08238	8.514258	-2.279284	7.699382	-0.027866	-0.865696	-0.232390	-0.799678	-0.358538	0.481628	0.314563	-0.933418	-0.172573	0.511434	0.013499	0.859216
08239	5.434394	0.848681	10.428247	0.172951	0.305840	-0.322225	-0.802249	-0.355544	0.479568	0.312819	-0.934555	-0.169561	0.508469	0.013988	0.860966
08240	6.300030	0.515664	9.431971	0.081349	-0.240950	-0.177343	-0.801563	-0.353811	0.481991	0.311793	-0.935186	-0.167965	0.510179	0.015647	0.859926
08241	5.385051	0.682204	9.847718	-0.031325	-0.004858	-0.048441	-0.801689	-0.353330	0.482134	0.311200	-0.935373	-0.168024	0.510343	0.015337	0.859834
08242	4.507351	-1.339603	9.202365	-0.132625	-0.143920	0.023811	-0.800866	-0.353492	0.483381	0.310696	-0.935323	-0.169230	0.511939	0.014654	0.858897
08243	5.100409	-0.875113	9.233706	-0.179406	-0.211433	0.045536	-0.799640	-0.353861	0.485138	0.310096	-0.935198	-0.171014	0.514215	0.013690	0.857552
08244	5.484715	-2.537450	8.494917	-0.176414	-0.179015	0.038860	-0.798584	-0.354161	0.486655	0.309482	-0.935098	-0.172664	0.516221	0.012724	0.856361
08245	4.755957	-2.727533	8.711687	-0.101711	-0.137322	-0.008626	-0.797901	-0.354036	0.487865	0.308842	-0.935152	-0.173516	0.517659	0.012225	0.855500
08246	5.746250	-2.736307	8.237891	-0.024278	-0.145548	-0.035340	-0.797243	-0.353648	0.489221	0.308417	-0.935294	-0.173503	0.518925	0.012560	0.854728
08247	5.305929	-1.493971	8.660894	0.017500	-0.048483	-0.035718	-0.797101	-0.353281	0.489717	0.308179	-0.935429	-0.173202	0.519284	0.012861	0.854505
08248	5.269543	-1.673013	8.701378	0.002437	-0.053684	-0.010838	-0.796842	-0.353132	0.490246	0.308087	-0.935481	-0.173081	0.519736	0.013120	0.854226
08249	5.151843	-1.817631	8.717802	0.001485	-0.030824	-0.021801	-0.796748	-0.352898	0.490566	0.307876	-0.935569	-0.172984	0.520004	0.013208	0.854062
08250	5.040733	-1.622815	8.813661	-0.007201	-0.034524	-0.023589	-0.796628	-0.352632	0.490953	0.307632	-0.935667	-0.172884	0.520333	0.013309	0.853860
08251	4.942538	-1.718005	8.838754	-0.010710	-0.045137	-0.017966	-0.796448	-0.352431	0.491389	0.307389	-0.935743	-0.172910	0.520753	0.013334	0.853604
08252	5.023750	-1.731151	8.810420	-0.007036	-0.071072	-0.018729	-0.796121	-0.352206	0.492079	0.307185	-0.935824	-0.172831	0.521372	0.013564	0.853222
08253	5.243489	-1.592571	8.691792	-0.002666	-0.057815	-0.014872	-0.795865	-0.352032	0.492617	0.307007	-0.935887	-0.172804	0.521867	0.013709	0.852917
08254	5.178461	-1.801081	8.614536	0.003235	-0.039910	-0.016197	-0.795693	-0.351835	0.493036	0.306877	-0.935959	-0.172650	0.522206	0.013925	0.852706
08255	5.414611	-1.758353	8.536350	0.016585	-0.020651	-0.015893	-0.795634	-0.351656	0.493259	0.306792	-0.936023	-0.172453	0.522346	0.014119	0.852617
08256	5.227348	-1.334540	8.719272	0.024026	0.014555	-0.011719	-0.795732	-0.351508	0.493207	0.306806	-0.936075	-0.172144	0.522189	0.014338	0.852709
08257	5.141785	-1.739350	8.727022	0.016713	0.011370	-0.004600	-0.795805	-0.351440	0.493137	0.306812	-0.936099	-0.172002	0.522074	0.014420	0.852778
08258	4.934112	-1.692216	8.792750	0.013253	0.019363	-0.011117	-0.795926	-0.351298	0.493042	0.306774	-0.936151	-0.171788	0.521911	0.014522	0.852876
08259	4.968845	-1.885191	8.811058	0.005977	-0.008371	-0.012610	-0.795921	-0.351152	0.493155	0.306660	-0.936205	-0.171698	0.521986	0.014573	0.852829
08260	5.049045	-1.860376	8.705026	0.014989	-0.015895	-0.028189	-0.795911	-0.350846	0.493390	0.306495	-0.936316	-0.171385	0.522098	0.014814	0.852757
08261	5.257315	-1.473914	8.698882	0.022785	-0.013114	-0.033237	-0.795944	-0.350506	0.493578	0.306304	-0.936440	-0.171050	0.522160	0.015039	0.852715
08262	5.141603	-1.366191	8.697205	0.017952	0.010368	-0.021216	-0.796049	-0.350268	0.493576	0.306211	-0.936526	-0.170747	0.522054	0.015216	0.852777
08263	4.786011	-1.528636	8.803797	0.015446	0.007391	-0.018843	-0.796145	-0.350066	0.493565	0.306096	-0.936600	-0.170545	0.521975	0.015300	0.852824
08264	4.780212	-1.563113	8.823924	0.002542	-0.033377	-0.020324	-0.796020	-0.349830	0.493935	0.305929	-0.936685	-0.170377	0.522264	0.015486	0.852643
08265	4.889778	-1.569105	8.904043	-0.003925	-0.059231	-0.025072	-0.795786	-0.349560	0.494502	0.305664	-0.936784	-0.170310	0.522775	0.015621	0.852328
08266	4.913686	-1.709967	8.859511	-0.004843	-0.090565	-0.029095	-0.795388	-0.349232	0.495373	0.305389	-0.936901	-0.170161	0.523541	0.015937	0.851852
08267	4.896104	-2.054047	8.787484	-0.001724	-0.113421	-0.039361	-0.794914	-0.348819	0.496425	0.305022	-0.937049	-0.170003	0.524475	0.016283	0.851270
08268	4.763020	-2.091451	8.862641	0.020696	-0.133813	-0.054580	-0.794365	-0.348245	0.497705	0.304678	-0.937250	-0.169511	0.525505	0.016987	0.850621
08269	5.000485	-2.227177	8.769131	0.048888	-0.186850	-0.081747	-0.793630	-0.347419	0.499451	0.304242	-0.937536	-0.168710	0.526867	0.018061	0.849756
08270	4.859516	-2.080414	8.803173	0.066728	-0.182257	-0.103096	-0.792969	-0.346378	0.501221	0.303757	-0.937895	-0.167583	0.528140	0.019361	0.848937
08271	4.987494	-1.757650	8.884491	0.081169	-0.227927	-0.121391	-0.792131	-0.345166	0.503377	0.303179	-0.938309	-0.166307	0.529727	0.020876	0.847911
08272	5.108834	-1.559131	8.884871	0.073966	-0.241196	-0.132449	-0.791240	-0.343830	0.505687	0.302503	-0.938764	-0.164969	0.531442	0.022442	0.846797
08273	5.174881	-1.378301	8.978322	0.062274	-0.265802	-0.123894	-0.790199	-0.342579	0.508159	0.301810	-0.939185	-0.163836	0.533382	0.023904	0.845537
08274	5.057216	-1.385503	9.057719	0.060385	-0.290072	-0.113495	-0.788979	-0.341400	0.510841	0.301218	-0.939572	-0.162704	0.535519	0.025505	0.844138
08275	4.639458	-1.269018	9.372113	0.006496	-0.375587	-0.137391	-0.787374	-0.339984	0.514250	0.300124	-0.940049	-0.161967	0.538487	0.026811	0.842207
08276	5.122617	-1.493726	9.002716	0.008726	-0.408177	-0.141434	-0.785581	-0.338500	0.517957	0.299040	-0.940540	-0.161118	0.541698	0.028318	0.840096
08277	5.026680	-1.388536	8.993122	0.007440	-0.477110	-0.143952	-0.783417	-0.336980	0.522210	0.297906	-0.941035	-0.160329	0.545445	0.029965	0.837611
08278	5.133893	-1.362866	8.931602	0.011136	-0.513803	-0.128607	-0.780975	-0.335569	0.526756	0.296943	-0.941477	-0.159516	0.549457	0.031838	0.834915
08279	5.003604	-1.770972	8.988091	0.016199	-0.545840	-0.130002	-0.778349	-0.334139	0.531531	0.295973	-0.941918	-0.158714	0.553691	0.033784	0.832037
08280	4.945409	-2.055862	9.015023	0.050047	-0.638242	-0.152799	-0.775240	-0.332433	0.537114	0.295046	-0.942423	-0.157436	0.558526	0.036423	0.828687
08281	5.057309	-2.029665	9.016605	0.056931	-0.716163	-0.195576	-0.771795	-0.330290	0.543360	0.293806	-0.943061	-0.155929	0.563924	0.039297	0.824891
08282	4.833038	-1.912010	9.218113	0.063909	-0.803182	-0.246158	-0.767953	-0.327596	0.550390	0.292255	-0.943858	-0.154012	0.569944	0.042580	0.820580
08283	4.995089	-1.680116	9.304896	0.082746	-0.925567	-0.280226	-0.763461	-0.324511	0.558409	0.290537	-0.944746	-0.151801	0.576816	0.046344	0.815559
08284	4.944273	-1.725550	9.410988	0.155012	-1.060908	-0.296214	-0.758150	-0.321150	0.567513	0.289165	-0.945639	-0.148828	0.584459	0.051271	0.809802
08285	4.843269	-1.759977	9.503729	0.227345	-1.234225	-0.346107	-0.751879	-0.317178	0.577993	0.287844	-0.946632	-0.145031	0.593147	0.057326	0.803050
08286	4.675112	-1.785341	9.466603	0.295663	-1.434695	-0.407806	-0.744462	-0.312395	0.590073	0.286542	-0.947748	-0.140240	0.603051	0.064677	0.795076
08287	4.551407	-1.667674	9.601737	0.320931	-1.707496	-0.489948	-0.735461	-0.306545	0.604257	0.284824	-0.949055	-0.134796	0.614794	0.072970	0.785305
08288	3.944282	-2.146683	9.947871	0.371517	-2.044132	-0.620304	-0.724507	-0.299016	0.621031	0.282587	-0.950656	-0.128053	0.628677	0.082720	0.773255
08289	3.352816	-2.712843	10.286194	0.476630	-2.537723	-0.821249	-0.710643	-0.288920	0.641492	0.279683	-0.952660	-0.119235	0.645573	0.094681	0.757807
08290	2.962296	-2.820401	10.036534	0.663845	-3.076841	-1.114604	-0.693572	-0.275095	0.665793	0.276189	-0.955136	-0.106935	0.665340	0.109718	0.738434
08291	3.817904	-3.214866	10.302854	0.849258	-3.626668	-1.417310	-0.672914	-0.257206	0.693564	0.272202	-0.957914	-0.091142	0.687817	0.127459	0.714606
08292	5.888957	-4.784441	11.314552	1.059804	-3.986979	-1.684513	-0.649579	-0.235515	0.722897	0.268456	-0.960617	-0.071734	0.711322	0.147469	0.687222
08293	7.404064	-5.981989	11.978038	1.338956	-4.154354	-2.030894	-0.624960	-0.209362	0.752059	0.265142	-0.963026	-0.047759	0.734251	0.169555	0.657364
08294	10.653199	-6.618812	13.083758	1.571225	-4.230346	-2.336133	-0.599610	-0.179125	0.779989	0.262520	-0.964725	-0.019739	0.756010	0.192927	0.625482
08295	11.029254	-4.721055	12.759512	1.549702	-4.167829	-2.526272	-0.574257	-0.146210	0.805513	0.259517	-0.965690	0.009727	0.776453	0.214630	0.592498
08296	11.670017	-4.408958	11.827261	1.284421	-4.243922	-2.659278	-0.547720	-0.110986	0.829268	0.254670	-0.966246	0.038888	0.796960	0.232489	0.557497
08297	13.067977	-6.698284	11.478692	1.334842	-4.268198	-2.862759	-0.520501	-0.073011	0.850734	0.250097	-0.965677	0.070140	0.816413	0.249274	0.520896
08298	13.772492	-7.550305	12.490472	1.563736	-3.997825	-2.942056	-0.494879	-0.034284	0.868285	0.248014	-0.963231	0.103323	0.832817	0.266479	0.485186
08299	9.730289	-7.410241	10.592939	1.805238	-3.459775	-2.864426	-0.472964	0.002810	0.881078	0.249248	-0.958721	0.136854	0.845092	0.284334	0.452740
