// General information: 
//  MT Manager version: 2022.2.0 
//  XDA version: 2022.2.0 build 7381 rev 124627 built on 2023-07-19
// Device information: 
//  DeviceId: 00B4CAF0
//  ProductCode: MTW2-3A7G6
//  Firmware Version: 4.6.0
//  Hardware Version: 2.0.0
// Device settings: 
//  Filter Profile: human(46.1)
//  Option Flags: Orientation Smoother Disabled, Position/Velocity Smoother Disabled, Continuous Zero Rotation Update Disabled, AHS Disabled, ICC Disabled
// Coordinate system: ENU
PacketCounter	Acc_X	Acc_Y	Acc_Z	Gyr_X	Gyr_Y	Gyr_Z	Mat[1][1]	Mat[2][1]	Mat[3][1]	Mat[1][2]	Mat[2][2]	Mat[3][2]	Mat[1][3]	Mat[2][3]	Mat[3][3]
20555	4.965083	-1.635432	8.845927	0.003288	-0.002720	0.001163	0.813308	0.324488	0.482948	-0.281562	0.945878	-0.161362	-0.509170	-0.004742	0.860653
20556	4.975960	-1.614070	8.810956	0.003170	0.000699	0.002412	0.813304	0.324484	0.482956	-0.281553	0.945879	-0.161371	-0.509181	-0.004734	0.860646
20557	4.975980	-1.613785	8.810997	0.005551	-0.001869	0.001587	0.813287	0.324483	0.482986	-0.281564	0.945880	-0.161348	-0.509201	-0.004769	0.860634
20558	4.957237	-1.582028	8.858581	0.006484	0.005905	0.007150	0.813296	0.324525	0.482942	-0.281611	0.945865	-0.161352	-0.509161	-0.004775	0.860658
20559	4.975721	-1.587177	8.844697	0.000671	0.006685	0.004483	0.813315	0.324547	0.482895	-0.281616	0.945858	-0.161387	-0.509128	-0.004733	0.860678
20560	4.944531	-1.629691	8.861079	0.000869	0.004287	0.008943	0.813311	0.324606	0.482862	-0.281649	0.945838	-0.161448	-0.509116	-0.004690	0.860685
20561	4.899449	-1.669550	8.857578	0.001697	0.003113	0.005223	0.813310	0.324634	0.482845	-0.281664	0.945828	-0.161476	-0.509109	-0.004670	0.860689
20562	4.907032	-1.722102	8.845228	0.004196	-0.002873	0.003151	0.813286	0.324638	0.482883	-0.281666	0.945827	-0.161480	-0.509146	-0.004682	0.860667
20563	4.946417	-1.705605	8.849701	0.009141	-0.007942	-0.003125	0.813251	0.324592	0.482973	-0.281657	0.945842	-0.161405	-0.509207	-0.004770	0.860631
20564	5.007609	-1.646559	8.784166	0.006761	-0.005374	-0.002302	0.813230	0.324544	0.483041	-0.281628	0.945858	-0.161361	-0.509257	-0.004815	0.860601
20565	4.989502	-1.614214	8.831491	0.010642	-0.002431	-0.002363	0.813222	0.324502	0.483083	-0.281630	0.945872	-0.161277	-0.509270	-0.004897	0.860593
20566	4.975351	-1.610523	8.811949	0.012669	0.005257	0.000555	0.813246	0.324481	0.483056	-0.281654	0.945879	-0.161195	-0.509217	-0.004963	0.860624
20567	4.983827	-1.609475	8.866268	0.012670	0.005256	0.000555	0.813269	0.324465	0.483027	-0.281687	0.945884	-0.161105	-0.509161	-0.005041	0.860656
20568	4.974926	-1.582180	8.846039	0.010289	0.007824	0.001378	0.813305	0.324452	0.482976	-0.281706	0.945889	-0.161048	-0.509094	-0.005076	0.860696
20569	4.923895	-1.644660	8.843823	0.010027	0.006735	0.000300	0.813336	0.324436	0.482935	-0.281727	0.945894	-0.160981	-0.509033	-0.005125	0.860732
20570	4.956472	-1.651493	8.849893	0.012936	0.006344	0.001633	0.813363	0.324426	0.482896	-0.281762	0.945897	-0.160902	-0.508971	-0.005190	0.860768
20571	4.936856	-1.645300	8.864592	0.009502	0.004556	-0.001856	0.813390	0.324382	0.482880	-0.281753	0.945912	-0.160830	-0.508932	-0.005235	0.860791
20572	4.967053	-1.601952	8.848892	0.014674	0.005016	-0.000099	0.813415	0.324356	0.482855	-0.281783	0.945920	-0.160728	-0.508876	-0.005321	0.860824
20573	4.975169	-1.626999	8.869981	0.012266	-0.000343	-0.002847	0.813419	0.324307	0.482881	-0.281785	0.945936	-0.160628	-0.508867	-0.005411	0.860828
20574	4.985581	-1.604787	8.835423	0.013729	0.009611	0.004865	0.813454	0.324328	0.482809	-0.281850	0.945929	-0.160558	-0.508776	-0.005473	0.860881
20575	4.965799	-1.598846	8.850157	0.007056	0.003640	0.002349	0.813463	0.324330	0.482791	-0.281870	0.945928	-0.160528	-0.508750	-0.005501	0.860897
20576	4.976677	-1.550763	8.848697	0.010559	0.008911	0.002453	0.813501	0.324327	0.482729	-0.281899	0.945929	-0.160474	-0.508673	-0.005536	0.860942
20577	4.931850	-1.563454	8.878685	0.007203	0.008148	0.004671	0.813527	0.324352	0.482669	-0.281939	0.945920	-0.160453	-0.508610	-0.005550	0.860979
20578	4.899912	-1.631660	8.862195	0.004675	0.006209	0.003170	0.813549	0.324356	0.482629	-0.281944	0.945919	-0.160453	-0.508572	-0.005538	0.861002
20579	4.849357	-1.694641	8.859653	0.005291	-0.002960	0.000513	0.813531	0.324338	0.482672	-0.281938	0.945925	-0.160428	-0.508605	-0.005570	0.860982
20580	4.980047	-1.675409	8.860007	0.002616	-0.009408	-0.003310	0.813492	0.324281	0.482777	-0.281880	0.945944	-0.160415	-0.508700	-0.005589	0.860926
20581	4.975260	-1.601207	8.783010	0.005262	-0.010888	-0.003054	0.813442	0.324236	0.482891	-0.281853	0.945960	-0.160374	-0.508794	-0.005650	0.860869
20582	4.978940	-1.624590	8.837606	0.000908	-0.000151	0.001988	0.813435	0.324228	0.482908	-0.281829	0.945962	-0.160400	-0.508819	-0.005622	0.860855
20583	4.998834	-1.603247	8.856421	0.004383	-0.002809	-0.001475	0.813422	0.324193	0.482953	-0.281803	0.945974	-0.160374	-0.508853	-0.005646	0.860835
20584	4.957359	-1.568764	8.830145	0.005701	0.002638	0.003912	0.813424	0.324204	0.482942	-0.281819	0.945970	-0.160369	-0.508841	-0.005654	0.860842
20585	4.984271	-1.600111	8.837009	0.002938	0.007538	0.004900	0.813446	0.324232	0.482886	-0.281841	0.945961	-0.160386	-0.508794	-0.005632	0.860870
20586	4.933833	-1.636979	8.867815	0.005584	0.006057	0.005156	0.813462	0.324255	0.482845	-0.281867	0.945953	-0.160388	-0.508755	-0.005628	0.860893
20587	4.941451	-1.663041	8.889013	0.004940	0.007298	0.004246	0.813485	0.324274	0.482793	-0.281889	0.945947	-0.160386	-0.508706	-0.005622	0.860922
20588	4.931982	-1.662819	8.835513	0.005058	0.003878	0.003001	0.813495	0.324277	0.482774	-0.281894	0.945946	-0.160382	-0.508686	-0.005621	0.860934
20589	4.976329	-1.622680	8.839427	0.008797	0.002309	0.000617	0.813503	0.324261	0.482771	-0.281908	0.945951	-0.160329	-0.508666	-0.005669	0.860946
20590	4.984950	-1.622003	8.893563	0.007060	0.003638	0.002347	0.813514	0.324258	0.482754	-0.281918	0.945952	-0.160305	-0.508642	-0.005687	0.860959
20591	4.976300	-1.595295	8.873055	0.004150	0.004029	0.001013	0.813530	0.324246	0.482736	-0.281912	0.945956	-0.160293	-0.508621	-0.005686	0.860972
20592	4.961245	-1.618865	8.820432	0.003965	0.003967	0.005642	0.813533	0.324274	0.482711	-0.281933	0.945946	-0.160311	-0.508603	-0.005674	0.860982
20593	4.980435	-1.597592	8.839628	0.004943	0.007297	0.004245	0.813557	0.324293	0.482659	-0.281958	0.945940	-0.160305	-0.508552	-0.005672	0.861013
20594	4.979602	-1.597492	8.840115	0.002561	0.009867	0.005064	0.813592	0.324316	0.482584	-0.281968	0.945932	-0.160333	-0.508490	-0.005628	0.861049
20595	4.942263	-1.663416	8.857793	0.002562	0.009867	0.005064	0.813626	0.324343	0.482509	-0.281987	0.945923	-0.160353	-0.508425	-0.005594	0.861088
20596	4.972219	-1.621099	8.842029	0.005968	0.003726	0.004989	0.813630	0.324365	0.482487	-0.282013	0.945916	-0.160350	-0.508404	-0.005602	0.861100
20597	4.952520	-1.615608	8.856606	0.004036	0.007447	0.002256	0.813660	0.324361	0.482439	-0.282012	0.945917	-0.160345	-0.508357	-0.005588	0.861129
20598	4.976674	-1.596890	8.841873	0.003393	0.008688	0.001345	0.813700	0.324348	0.482380	-0.281996	0.945921	-0.160347	-0.508302	-0.005555	0.861161
20599	4.975847	-1.596695	8.842373	0.007026	0.008083	0.009297	0.813713	0.324416	0.482313	-0.282074	0.945898	-0.160348	-0.508238	-0.005571	0.861199
20600	4.983164	-1.622816	8.863737	0.003923	0.010866	0.003499	0.813757	0.324424	0.482232	-0.282077	0.945896	-0.160356	-0.508165	-0.005536	0.861242
20601	4.929713	-1.609631	8.872994	0.005360	0.012893	0.007640	0.813800	0.324474	0.482127	-0.282130	0.945879	-0.160363	-0.508067	-0.005519	0.861300
20602	4.902986	-1.654347	8.855815	0.005097	0.011803	0.006563	0.813841	0.324511	0.482034	-0.282165	0.945866	-0.160376	-0.507983	-0.005492	0.861350
20603	4.949094	-1.664598	8.881885	0.005477	0.009473	0.006398	0.813869	0.324548	0.481961	-0.282206	0.945853	-0.160378	-0.507915	-0.005485	0.861390
20604	4.915123	-1.656472	8.876766	0.006950	0.007053	0.003591	0.813894	0.324556	0.481913	-0.282225	0.945851	-0.160361	-0.507864	-0.005491	0.861420
20605	4.919884	-1.658832	8.843004	0.003175	0.000697	0.002412	0.813888	0.324559	0.481920	-0.282227	0.945850	-0.160364	-0.507872	-0.005493	0.861415
20606	4.945407	-1.613512	8.860962	0.008916	-0.001115	-0.000622	0.813884	0.324527	0.481949	-0.282222	0.945860	-0.160309	-0.507881	-0.005544	0.861409
20607	4.964644	-1.618049	8.846843	0.007822	-0.001025	0.002018	0.813871	0.324526	0.481972	-0.282244	0.945860	-0.160270	-0.507890	-0.005595	0.861404
20608	4.937205	-1.585952	8.840352	0.007444	0.001304	0.002184	0.813871	0.324521	0.481976	-0.282255	0.945862	-0.160241	-0.507884	-0.005625	0.861407
20609	4.950505	-1.614338	8.827294	0.007180	0.000215	0.001107	0.813867	0.324508	0.481991	-0.282263	0.945866	-0.160204	-0.507886	-0.005664	0.861406
20610	4.964202	-1.616389	8.847395	0.006688	0.005964	0.002513	0.813889	0.324507	0.481954	-0.282273	0.945866	-0.160183	-0.507845	-0.005671	0.861430
20611	4.977638	-1.618399	8.867649	0.009599	0.005571	0.003849	0.813904	0.324524	0.481917	-0.282319	0.945860	-0.160140	-0.507796	-0.005716	0.861459
20612	4.981912	-1.620589	8.834203	0.006462	0.012801	0.004995	0.813954	0.324546	0.481818	-0.282348	0.945853	-0.160133	-0.507699	-0.005699	0.861516
20613	4.947726	-1.612301	8.829224	0.008578	0.009140	0.003102	0.813990	0.324554	0.481752	-0.282380	0.945850	-0.160093	-0.507624	-0.005723	0.861560
20614	4.935158	-1.659156	8.831898	0.010283	0.012257	0.008319	0.814028	0.324608	0.481652	-0.282455	0.945831	-0.160069	-0.507521	-0.005744	0.861620
20615	4.915507	-1.626958	8.879828	0.007938	0.010379	0.002189	0.814072	0.324610	0.481576	-0.282480	0.945830	-0.160030	-0.507436	-0.005759	0.861670
20616	4.920502	-1.602731	8.879354	0.007599	0.005811	0.004501	0.814088	0.324627	0.481537	-0.282511	0.945825	-0.160012	-0.507394	-0.005776	0.861695
20617	4.933363	-1.631227	8.866549	0.007334	0.004721	0.003425	0.814100	0.324641	0.481508	-0.282543	0.945819	-0.159984	-0.507357	-0.005803	0.861717
20618	4.951994	-1.636025	8.852748	0.007600	0.005811	0.004501	0.814116	0.324658	0.481469	-0.282573	0.945814	-0.159965	-0.507314	-0.005820	0.861742
20619	4.962859	-1.588089	8.851217	0.009226	0.007898	0.004013	0.814143	0.324676	0.481412	-0.282619	0.945807	-0.159923	-0.507246	-0.005856	0.861782
20620	4.976062	-1.590140	8.871595	0.007224	0.008140	0.004664	0.814170	0.324695	0.481353	-0.282649	0.945801	-0.159909	-0.507185	-0.005861	0.861817
20621	4.961254	-1.587069	8.852300	0.008585	0.009137	0.003100	0.814205	0.324705	0.481286	-0.282684	0.945797	-0.159868	-0.507109	-0.005887	0.861862
20622	4.946296	-1.584249	8.833044	0.004658	0.010652	0.010108	0.814230	0.324776	0.481196	-0.282746	0.945773	-0.159901	-0.507035	-0.005860	0.861906
20623	4.948113	-1.607802	8.888597	0.006285	0.012738	0.009619	0.814265	0.324847	0.481088	-0.282822	0.945748	-0.159912	-0.506935	-0.005852	0.861964
20624	4.913231	-1.626159	8.850578	0.007759	0.010316	0.006816	0.814298	0.324886	0.481007	-0.282872	0.945735	-0.159903	-0.506855	-0.005855	0.862011
20625	4.932016	-1.604655	8.870029	0.007494	0.009227	0.005740	0.814327	0.324918	0.480936	-0.282920	0.945724	-0.159882	-0.506782	-0.005870	0.862054
20626	4.924685	-1.654406	8.838632	0.007761	0.010315	0.006816	0.814359	0.324957	0.480855	-0.282970	0.945710	-0.159873	-0.506702	-0.005873	0.862101
20627	4.912818	-1.674789	8.874268	0.011237	0.007651	0.003362	0.814387	0.324969	0.480801	-0.283020	0.945706	-0.159811	-0.506630	-0.005929	0.862143
20628	4.936952	-1.655463	8.859721	0.012865	0.009736	0.002873	0.814427	0.324970	0.480731	-0.283064	0.945705	-0.159738	-0.506540	-0.005982	0.862196
20629	4.922831	-1.625338	8.873481	0.014981	0.006074	0.000984	0.814454	0.324957	0.480696	-0.283110	0.945709	-0.159632	-0.506472	-0.006077	0.862235
20630	4.980236	-1.613417	8.864645	0.015968	0.009399	-0.000418	0.814502	0.324928	0.480634	-0.283143	0.945719	-0.159518	-0.506376	-0.006161	0.862291
20631	4.946160	-1.604168	8.859715	0.016502	0.011577	0.001732	0.814554	0.324923	0.480549	-0.283204	0.945720	-0.159403	-0.506258	-0.006252	0.862359
20632	4.964154	-1.608223	8.846451	0.015032	0.013999	0.004533	0.814611	0.324940	0.480440	-0.283273	0.945713	-0.159320	-0.506128	-0.006312	0.862435
20633	4.937845	-1.625415	8.862600	0.016397	0.014994	0.002969	0.814677	0.324946	0.480325	-0.283340	0.945711	-0.159213	-0.505985	-0.006388	0.862519
20634	4.890047	-1.587246	8.870930	0.016774	0.012664	0.002807	0.814732	0.324947	0.480230	-0.283403	0.945710	-0.159107	-0.505860	-0.006469	0.862591
20635	4.922124	-1.593709	8.877494	0.016244	0.010484	0.000656	0.814782	0.324932	0.480157	-0.283454	0.945715	-0.158988	-0.505751	-0.006562	0.862654
20636	4.909830	-1.639851	8.880195	0.013627	0.005074	0.002549	0.814800	0.324930	0.480127	-0.283499	0.945715	-0.158908	-0.505697	-0.006638	0.862685
20637	4.895854	-1.609986	8.893769	0.009884	0.006651	0.004924	0.814817	0.324959	0.480078	-0.283558	0.945705	-0.158864	-0.505636	-0.006685	0.862721
20638	4.927988	-1.643212	8.866989	0.018015	0.002255	0.001088	0.814825	0.324943	0.480075	-0.283613	0.945709	-0.158739	-0.505593	-0.006812	0.862745
20639	4.864539	-1.649387	8.910786	0.017484	0.000074	-0.001062	0.814827	0.324910	0.480095	-0.283656	0.945720	-0.158600	-0.505565	-0.006950	0.862760
20640	4.942074	-1.642714	8.887350	0.013958	-0.005185	-0.001157	0.814803	0.324872	0.480160	-0.283672	0.945732	-0.158499	-0.505594	-0.007063	0.862743
20641	4.965131	-1.573034	8.850174	0.015323	-0.004191	-0.002722	0.814788	0.324825	0.480217	-0.283693	0.945747	-0.158371	-0.505606	-0.007196	0.862734
20642	5.048365	-1.542905	8.825665	0.012378	0.000658	0.002876	0.814783	0.324827	0.480225	-0.283735	0.945746	-0.158303	-0.505592	-0.007274	0.862742
20643	4.975620	-1.549887	8.815805	0.014140	0.014143	0.002534	0.814846	0.324827	0.480118	-0.283788	0.945745	-0.158211	-0.505461	-0.007334	0.862818
20644	4.963161	-1.569877	8.851839	0.009755	0.016961	0.003993	0.814920	0.324840	0.479984	-0.283825	0.945740	-0.158171	-0.505321	-0.007335	0.862900
20645	4.928219	-1.561235	8.847234	0.015102	0.021920	0.008064	0.815005	0.324900	0.479798	-0.283936	0.945720	-0.158098	-0.505120	-0.007381	0.863017
20646	4.940007	-1.563022	8.868446	0.010452	0.023648	0.008447	0.815100	0.324956	0.479599	-0.284013	0.945701	-0.158073	-0.504924	-0.007367	0.863132
20647	4.887179	-1.625561	8.867285	0.015003	0.025336	0.009296	0.815200	0.325022	0.479384	-0.284126	0.945677	-0.158007	-0.504699	-0.007398	0.863264
20648	4.923977	-1.609086	8.873289	0.009200	0.019233	0.008778	0.815272	0.325081	0.479223	-0.284200	0.945657	-0.157995	-0.504542	-0.007386	0.863356
20649	4.891862	-1.624110	8.923572	0.011210	0.018986	0.008128	0.815343	0.325137	0.479064	-0.284287	0.945638	-0.157955	-0.504378	-0.007404	0.863451
20650	4.934375	-1.610373	8.895363	0.012685	0.016559	0.005331	0.815411	0.325162	0.478931	-0.284350	0.945629	-0.157896	-0.504233	-0.007434	0.863536
20651	4.880690	-1.596372	8.904550	0.011426	0.012147	0.005663	0.815455	0.325191	0.478837	-0.284413	0.945619	-0.157843	-0.504126	-0.007473	0.863598
20652	4.898853	-1.601157	8.891130	0.007519	0.009220	0.005728	0.815484	0.325220	0.478766	-0.284453	0.945609	-0.157831	-0.504056	-0.007478	0.863639
20653	4.922893	-1.582234	8.876602	0.010254	0.011204	0.002599	0.815532	0.325224	0.478684	-0.284490	0.945607	-0.157773	-0.503958	-0.007511	0.863695
20654	4.961304	-1.539282	8.914928	0.006881	0.010458	0.004812	0.815570	0.325244	0.478604	-0.284519	0.945600	-0.157762	-0.503879	-0.007506	0.863741
20655	4.893549	-1.549755	8.870991	0.008696	0.010160	0.008791	0.815594	0.325309	0.478519	-0.284602	0.945578	-0.157748	-0.503794	-0.007529	0.863791
20656	4.784375	-1.597027	8.911184	-0.002782	0.009361	0.007895	0.815618	0.325359	0.478444	-0.284608	0.945561	-0.157835	-0.503751	-0.007436	0.863817
20657	4.850462	-1.613409	8.922798	-0.005633	-0.008476	0.003953	0.815563	0.325372	0.478529	-0.284575	0.945557	-0.157920	-0.503860	-0.007383	0.863754
20658	4.991726	-1.601430	8.855644	-0.006377	-0.003819	0.004267	0.815531	0.325386	0.478574	-0.284533	0.945553	-0.158021	-0.503935	-0.007299	0.863711
20659	4.895358	-1.601867	8.892927	-0.004742	-0.001738	0.003777	0.815509	0.325401	0.478601	-0.284503	0.945549	-0.158100	-0.503986	-0.007231	0.863681
20660	4.966302	-1.647631	8.837585	-0.004846	0.001681	0.005008	0.815503	0.325422	0.478597	-0.284475	0.945542	-0.158191	-0.504012	-0.007143	0.863667
20661	4.958813	-1.568985	8.882561	-0.002675	0.005942	0.006664	0.815513	0.325460	0.478555	-0.284475	0.945529	-0.158266	-0.503997	-0.007069	0.863676
20662	4.919122	-1.585192	8.878165	0.001235	0.008867	0.006600	0.815538	0.325497	0.478487	-0.284490	0.945517	-0.158312	-0.503947	-0.007015	0.863706
20663	4.898389	-1.606707	8.859827	-0.001143	0.011441	0.007405	0.815573	0.325547	0.478393	-0.284509	0.945501	-0.158377	-0.503880	-0.006940	0.863746
20664	4.880471	-1.651549	8.896445	0.000968	0.007776	0.005526	0.815596	0.325573	0.478336	-0.284515	0.945492	-0.158420	-0.503840	-0.006887	0.863770
20665	4.893342	-1.680418	8.883758	0.006825	0.002528	0.001278	0.815603	0.325564	0.478330	-0.284523	0.945495	-0.158386	-0.503823	-0.006916	0.863779
20666	4.898881	-1.656099	8.882958	0.009100	0.003371	0.001704	0.815615	0.325554	0.478317	-0.284538	0.945498	-0.158341	-0.503796	-0.006955	0.863795
20667	4.924003	-1.610526	8.901082	0.007822	0.005848	-0.000129	0.815643	0.325530	0.478284	-0.284540	0.945506	-0.158290	-0.503749	-0.006983	0.863822
20668	4.987395	-1.575715	8.891131	0.008091	0.006938	0.000944	0.815675	0.325513	0.478242	-0.284543	0.945512	-0.158250	-0.503695	-0.007000	0.863853
20669	4.941563	-1.614730	8.888135	0.005507	0.016348	0.004209	0.815743	0.325537	0.478110	-0.284573	0.945504	-0.158243	-0.503568	-0.006972	0.863927
20670	4.912020	-1.609387	8.849332	0.007043	0.021846	0.004949	0.815839	0.325559	0.477932	-0.284604	0.945496	-0.158231	-0.503396	-0.006931	0.864028
20671	4.910684	-1.581909	8.883420	0.017454	0.018281	0.001556	0.815925	0.325553	0.477789	-0.284669	0.945498	-0.158106	-0.503220	-0.007009	0.864130
20672	4.887068	-1.552276	8.843577	0.008964	0.018129	0.007697	0.815993	0.325601	0.477639	-0.284732	0.945481	-0.158090	-0.503073	-0.006998	0.864216
20673	4.893878	-1.551474	8.898519	0.008059	0.018277	0.005707	0.816067	0.325634	0.477490	-0.284783	0.945470	-0.158067	-0.502924	-0.006988	0.864302
20674	4.861043	-1.619631	8.882723	0.006524	0.012778	0.004968	0.816117	0.325656	0.477390	-0.284812	0.945463	-0.158060	-0.502827	-0.006971	0.864359
20675	4.887636	-1.624483	8.923249	0.002879	0.010945	0.006104	0.816153	0.325693	0.477304	-0.284840	0.945450	-0.158083	-0.502753	-0.006935	0.864402
20676	4.847703	-1.640201	8.919010	0.004619	0.009608	0.004385	0.816188	0.325709	0.477232	-0.284854	0.945445	-0.158089	-0.502688	-0.006911	0.864440
20677	4.871774	-1.648387	8.871278	0.000269	0.001090	0.001073	0.816189	0.325696	0.477239	-0.284827	0.945449	-0.158111	-0.502702	-0.006882	0.864432
20678	4.908935	-1.555992	8.886917	0.006735	-0.000942	0.004679	0.816170	0.325715	0.477259	-0.284854	0.945443	-0.158101	-0.502717	-0.006912	0.864424
20679	4.952993	-1.543066	8.857870	-0.000933	0.004606	0.004939	0.816178	0.325739	0.477229	-0.284853	0.945435	-0.158152	-0.502705	-0.006860	0.864431
20680	4.921455	-1.585295	8.874402	0.000974	0.007775	0.005521	0.816201	0.325766	0.477172	-0.284858	0.945426	-0.158195	-0.502665	-0.006808	0.864454
20681	4.928704	-1.611565	8.895846	0.003889	0.007378	0.006865	0.816217	0.325811	0.477114	-0.284899	0.945411	-0.158212	-0.502616	-0.006794	0.864483
20682	4.888825	-1.627482	8.891535	0.001782	0.011043	0.008740	0.816247	0.325868	0.477023	-0.284935	0.945391	-0.158264	-0.502547	-0.006739	0.864524
20683	4.848881	-1.643505	8.887231	0.001245	0.008864	0.006594	0.816271	0.325906	0.476955	-0.284956	0.945379	-0.158302	-0.502495	-0.006694	0.864554
20684	4.895091	-1.654081	8.913452	0.001345	0.005447	0.005365	0.816283	0.325931	0.476918	-0.284962	0.945370	-0.158341	-0.502473	-0.006652	0.864567
20685	4.919745	-1.635703	8.898577	0.004823	0.002771	0.001927	0.816290	0.325929	0.476909	-0.284966	0.945371	-0.158329	-0.502460	-0.006661	0.864575
20686	4.905337	-1.632930	8.878987	0.005262	0.008367	0.005302	0.816316	0.325953	0.476847	-0.284992	0.945363	-0.158334	-0.502402	-0.006647	0.864608
20687	4.877290	-1.601127	8.872468	0.003450	0.008665	0.001320	0.816354	0.325947	0.476786	-0.284986	0.945365	-0.158329	-0.502344	-0.006625	0.864643
20688	4.923385	-1.611205	8.898856	0.006634	0.009356	0.003738	0.816390	0.325957	0.476718	-0.285005	0.945362	-0.158314	-0.502274	-0.006621	0.864683
20689	4.897462	-1.629060	8.914518	0.006366	0.008267	0.002665	0.816422	0.325961	0.476660	-0.285023	0.945360	-0.158291	-0.502212	-0.006627	0.864719
20690	4.907568	-1.634411	8.847014	0.006734	0.005939	0.002510	0.816444	0.325959	0.476623	-0.285033	0.945361	-0.158270	-0.502170	-0.006634	0.864743
20691	4.921122	-1.609779	8.900365	0.007101	0.010494	0.000184	0.816495	0.325940	0.476550	-0.285034	0.945367	-0.158229	-0.502088	-0.006639	0.864791
20692	4.919825	-1.635731	8.868065	0.008376	0.008017	0.002020	0.816529	0.325934	0.476496	-0.285048	0.945369	-0.158192	-0.502024	-0.006656	0.864828
20693	4.910828	-1.608970	8.847679	0.007911	0.013761	0.003401	0.816587	0.325944	0.476390	-0.285078	0.945366	-0.158159	-0.501913	-0.006658	0.864892
20694	4.904217	-1.605499	8.882425	0.006736	0.012820	0.000338	0.816649	0.325922	0.476297	-0.285070	0.945373	-0.158127	-0.501816	-0.006643	0.864949
20695	4.883784	-1.599637	8.897178	0.007447	0.012622	0.006955	0.816692	0.325964	0.476196	-0.285125	0.945359	-0.158114	-0.501715	-0.006645	0.865007
20696	4.832387	-1.635621	8.928159	0.010560	0.012272	0.003674	0.816742	0.325973	0.476102	-0.285163	0.945355	-0.158066	-0.501611	-0.006668	0.865068
20697	4.925890	-1.585567	8.869507	0.008013	0.010342	0.002174	0.816786	0.325975	0.476026	-0.285187	0.945355	-0.158026	-0.501526	-0.006683	0.865117
20698	4.917381	-1.532310	8.881935	0.006911	0.010443	0.004809	0.816824	0.325995	0.475947	-0.285217	0.945348	-0.158015	-0.501447	-0.006678	0.865163
20699	4.866097	-1.568556	8.912791	0.004266	0.011929	0.004535	0.816869	0.326017	0.475854	-0.285239	0.945341	-0.158020	-0.501361	-0.006650	0.865212
20700	4.890227	-1.550116	8.898251	0.005270	0.008364	0.005300	0.816896	0.326042	0.475792	-0.285264	0.945332	-0.158025	-0.501304	-0.006637	0.865246
20701	4.864359	-1.568659	8.913722	-0.003773	0.006046	0.009286	0.816898	0.326110	0.475742	-0.285286	0.945309	-0.158122	-0.501288	-0.006553	0.865255
20702	4.857876	-1.593098	8.915029	-0.004948	0.005105	0.006222	0.816905	0.326144	0.475707	-0.285268	0.945298	-0.158220	-0.501287	-0.006453	0.865257
20703	4.864964	-1.646485	8.903362	-0.002573	0.002528	0.005424	0.816900	0.326173	0.475694	-0.285263	0.945288	-0.158288	-0.501297	-0.006393	0.865252
20704	4.903275	-1.657700	8.875400	-0.000198	-0.000048	0.004627	0.816886	0.326191	0.475706	-0.285255	0.945282	-0.158337	-0.501324	-0.006354	0.865236
20705	4.934642	-1.589317	8.892067	0.001811	-0.000298	0.003982	0.816872	0.326208	0.475719	-0.285261	0.945277	-0.158360	-0.501345	-0.006344	0.865224
20706	4.908839	-1.634242	8.874425	0.001080	0.004356	0.004290	0.816881	0.326223	0.475693	-0.285257	0.945272	-0.158397	-0.501332	-0.006304	0.865232
20707	4.916646	-1.633736	8.928699	0.004097	0.007422	0.002236	0.816910	0.326222	0.475644	-0.285259	0.945272	-0.158391	-0.501284	-0.006290	0.865260
20708	4.877117	-1.649423	8.924162	0.001986	0.004207	0.006281	0.816913	0.326255	0.475616	-0.285275	0.945261	-0.158429	-0.501270	-0.006259	0.865269
20709	4.907301	-1.634010	8.875318	0.004828	0.002768	0.001929	0.816920	0.326252	0.475607	-0.285279	0.945262	-0.158416	-0.501257	-0.006267	0.865276
20710	4.874171	-1.598884	8.902583	0.010395	0.007761	0.001377	0.816954	0.326240	0.475556	-0.285298	0.945266	-0.158358	-0.501190	-0.006304	0.865314
20711	4.880820	-1.651038	8.891389	0.006918	0.010439	0.004809	0.816991	0.326264	0.475476	-0.285336	0.945258	-0.158340	-0.501108	-0.006308	0.865362
20712	4.874477	-1.647474	8.925964	0.008856	0.009147	-0.001534	0.817041	0.326224	0.475417	-0.285323	0.945271	-0.158281	-0.501034	-0.006325	0.865405
20713	4.885046	-1.625886	8.891457	0.010397	0.007760	0.001377	0.817074	0.326217	0.475366	-0.285351	0.945274	-0.158218	-0.500964	-0.006370	0.865445
20714	4.896091	-1.577679	8.889776	0.009493	0.007908	-0.000615	0.817115	0.326185	0.475317	-0.285349	0.945284	-0.158158	-0.500898	-0.006397	0.865483
20715	4.850656	-1.616414	8.886470	0.005839	0.006081	0.000519	0.817142	0.326170	0.475281	-0.285346	0.945290	-0.158131	-0.500855	-0.006404	0.865507
20716	4.819993	-1.631414	8.935625	0.001635	-0.004802	0.001686	0.817113	0.326159	0.475338	-0.285323	0.945293	-0.158150	-0.500916	-0.006399	0.865472
20717	4.873030	-1.644439	8.927314	0.005209	-0.010897	-0.002970	0.817065	0.326108	0.475455	-0.285288	0.945311	-0.158110	-0.501014	-0.006456	0.865415
20718	4.928011	-1.534296	8.873314	-0.003464	-0.008659	-0.001315	0.817025	0.326069	0.475551	-0.285215	0.945324	-0.158159	-0.501121	-0.006415	0.865354
20719	4.955905	-1.566046	8.880005	-0.001819	-0.006582	-0.001806	0.816996	0.326030	0.475628	-0.285156	0.945338	-0.158186	-0.501203	-0.006391	0.865306
20720	4.903886	-1.552945	8.887790	-0.001572	-0.001034	0.006189	0.816972	0.326063	0.475646	-0.285154	0.945327	-0.158254	-0.501242	-0.006343	0.865284
20721	4.903890	-1.553689	8.887657	-0.007870	-0.001373	0.007048	0.816944	0.326106	0.475665	-0.285134	0.945312	-0.158376	-0.501300	-0.006244	0.865251
20722	4.919636	-1.606972	8.929739	-0.006861	0.001941	0.005638	0.816937	0.326134	0.475658	-0.285101	0.945304	-0.158487	-0.501330	-0.006136	0.865235
20723	4.852797	-1.618628	8.884898	-0.005955	0.001792	0.007630	0.816923	0.326184	0.475648	-0.285097	0.945287	-0.158595	-0.501355	-0.006046	0.865220
20724	4.885637	-1.627447	8.890847	-0.006225	0.000703	0.006557	0.816907	0.326220	0.475650	-0.285075	0.945275	-0.158705	-0.501393	-0.005949	0.865199
20725	4.879959	-1.625487	8.924762	-0.008869	0.002191	0.006282	0.816898	0.326259	0.475639	-0.285046	0.945262	-0.158832	-0.501424	-0.005829	0.865182
20726	4.871992	-1.600372	8.903508	-0.007503	-0.003701	0.006894	0.816860	0.326298	0.475678	-0.285020	0.945249	-0.158955	-0.501502	-0.005734	0.865138
20727	4.918408	-1.638579	8.896408	-0.009335	0.001054	0.009836	0.816835	0.326371	0.475670	-0.285019	0.945225	-0.159102	-0.501542	-0.005615	0.865115
20728	4.865405	-1.652795	8.871501	-0.004849	0.001690	0.004994	0.816829	0.326392	0.475666	-0.284991	0.945218	-0.159193	-0.501568	-0.005527	0.865101
20729	4.878941	-1.655883	8.891519	-0.002570	0.002528	0.005423	0.816825	0.326421	0.475654	-0.284985	0.945209	-0.159262	-0.501579	-0.005466	0.865095
20730	4.872926	-1.679896	8.892626	-0.001373	-0.000988	0.001563	0.816815	0.326410	0.475679	-0.284947	0.945213	-0.159306	-0.501617	-0.005419	0.865073
20731	4.871037	-1.630038	8.870370	0.003279	-0.002727	0.001194	0.816796	0.326400	0.475718	-0.284937	0.945216	-0.159304	-0.501653	-0.005430	0.865052
20732	4.846070	-1.648036	8.885410	0.002644	-0.001489	0.000275	0.816787	0.326377	0.475749	-0.284908	0.945224	-0.159308	-0.501684	-0.005424	0.865034
20733	4.962870	-1.627516	8.866965	-0.002289	-0.007719	0.001746	0.816742	0.326372	0.475831	-0.284874	0.945226	-0.159357	-0.501777	-0.005399	0.864980
20734	4.912844	-1.663920	8.897024	0.003653	0.001826	-0.001134	0.816753	0.326335	0.475835	-0.284838	0.945239	-0.159345	-0.501778	-0.005391	0.864980
20735	4.899401	-1.634627	8.909991	0.000906	-0.000150	0.001991	0.816746	0.326331	0.475851	-0.284822	0.945240	-0.159366	-0.501800	-0.005372	0.864967
20736	4.922508	-1.566476	8.872727	0.002915	-0.000400	0.001348	0.816739	0.326318	0.475871	-0.284803	0.945245	-0.159372	-0.501821	-0.005364	0.864955
20737	4.891737	-1.581819	8.921886	-0.000289	0.003367	0.005852	0.816738	0.326351	0.475851	-0.284811	0.945234	-0.159423	-0.501819	-0.005321	0.864957
20738	4.871014	-1.630038	8.870383	-0.002391	0.007033	0.007721	0.816751	0.326398	0.475797	-0.284818	0.945218	-0.159506	-0.501794	-0.005239	0.864971
20739	4.895901	-1.585892	8.888419	-0.004670	0.006195	0.007292	0.816759	0.326445	0.475750	-0.284816	0.945202	-0.159600	-0.501780	-0.005146	0.864980
20740	4.891393	-1.659864	8.911966	0.002262	0.005293	0.007353	0.816765	0.326489	0.475711	-0.284843	0.945187	-0.159641	-0.501757	-0.005114	0.864994
20741	4.857901	-1.652338	8.906133	-0.003035	0.001391	0.008976	0.816744	0.326552	0.475702	-0.284865	0.945166	-0.159730	-0.501777	-0.005052	0.864982
20742	4.849335	-1.652929	8.852270	0.003653	0.001826	-0.001134	0.816756	0.326516	0.475706	-0.284830	0.945178	-0.159718	-0.501778	-0.005044	0.864982
20743	4.874920	-1.608127	8.870053	-0.001841	-0.002125	0.005116	0.816729	0.326542	0.475735	-0.284825	0.945169	-0.159779	-0.501824	-0.005005	0.864955
20744	4.863707	-1.628842	8.905051	0.004652	-0.001740	-0.000368	0.816721	0.326513	0.475769	-0.284801	0.945180	-0.159762	-0.501851	-0.005018	0.864939
20745	4.902595	-1.639479	8.876911	0.001998	-0.007131	0.001531	0.816680	0.326505	0.475846	-0.284787	0.945182	-0.159772	-0.501927	-0.005033	0.864895
20746	4.903155	-1.639382	8.876619	0.001363	-0.005893	0.000612	0.816648	0.326484	0.475914	-0.284755	0.945189	-0.159788	-0.501997	-0.005028	0.864855
20747	4.897913	-1.663026	8.877364	-0.000553	-0.009058	0.000030	0.816600	0.326461	0.476011	-0.284714	0.945197	-0.159813	-0.502097	-0.005023	0.864796
20748	4.930171	-1.594608	8.893599	-0.000281	-0.007969	0.001103	0.816557	0.326445	0.476097	-0.284677	0.945203	-0.159846	-0.502189	-0.005010	0.864743
20749	4.955264	-1.602933	8.845421	0.002644	-0.001489	0.000275	0.816546	0.326428	0.476127	-0.284656	0.945209	-0.159847	-0.502218	-0.005010	0.864727
20750	4.919178	-1.615281	8.928492	-0.001466	0.002428	0.002788	0.816550	0.326428	0.476120	-0.284627	0.945209	-0.159898	-0.502228	-0.004952	0.864721
20751	4.899318	-1.636674	8.909661	-0.002008	0.000251	0.000644	0.816548	0.326411	0.476135	-0.284584	0.945215	-0.159938	-0.502256	-0.004903	0.864705
20752	4.891307	-1.610643	8.888610	0.002992	0.000639	0.007045	0.816531	0.326452	0.476137	-0.284612	0.945201	-0.159971	-0.502268	-0.004893	0.864698
20753	4.879363	-1.658237	8.890849	-0.002203	0.000202	0.005270	0.816515	0.326479	0.476145	-0.284606	0.945192	-0.160036	-0.502297	-0.004842	0.864682
20754	4.893174	-1.661183	8.910743	-0.001839	-0.002125	0.005116	0.816489	0.326502	0.476174	-0.284595	0.945184	-0.160101	-0.502346	-0.004796	0.864654
20755	4.884814	-1.661941	8.856729	-0.000194	-0.000049	0.004626	0.816475	0.326523	0.476185	-0.284594	0.945177	-0.160144	-0.502370	-0.004766	0.864640
20756	4.897938	-1.690926	8.843985	0.007112	0.003601	0.002358	0.816485	0.326520	0.476168	-0.284605	0.945178	-0.160119	-0.502346	-0.004785	0.864653
20757	4.873025	-1.682182	8.892139	0.003187	0.000687	0.002419	0.816480	0.326520	0.476177	-0.284603	0.945178	-0.160123	-0.502355	-0.004784	0.864648
20758	4.871251	-1.631714	8.869944	0.012584	-0.006211	0.000457	0.816447	0.326498	0.476248	-0.284625	0.945185	-0.160042	-0.502396	-0.004886	0.864624
20759	4.885593	-1.633323	8.889794	0.006753	-0.005408	-0.002238	0.816425	0.326454	0.476317	-0.284604	0.945200	-0.159993	-0.502445	-0.004939	0.864595
20760	4.874870	-1.653399	8.924654	0.004201	-0.007335	-0.003738	0.816398	0.326393	0.476405	-0.284550	0.945221	-0.159964	-0.502519	-0.004966	0.864552
20761	4.893198	-1.608397	8.887976	0.005022	-0.015406	-0.005269	0.816334	0.326321	0.476563	-0.284496	0.945245	-0.159916	-0.502653	-0.005035	0.864474
20762	4.944813	-1.571424	8.857118	0.003558	-0.012977	-0.002482	0.816276	0.326271	0.476698	-0.284449	0.945263	-0.159898	-0.502775	-0.005075	0.864402
20763	4.920488	-1.589262	8.871845	0.002737	-0.004906	-0.000950	0.816252	0.326244	0.476758	-0.284422	0.945272	-0.159891	-0.502829	-0.005089	0.864371
20764	4.888013	-1.581085	8.865591	0.001729	-0.008221	0.000460	0.816209	0.326222	0.476846	-0.284390	0.945280	-0.159904	-0.502917	-0.005095	0.864320
20765	4.915595	-1.612538	8.872473	0.002645	-0.001490	0.000274	0.816199	0.326203	0.476876	-0.284369	0.945286	-0.159902	-0.502945	-0.005097	0.864303
20766	4.908219	-1.559648	8.884223	0.000908	-0.000150	0.001991	0.816192	0.326196	0.476893	-0.284345	0.945289	-0.159929	-0.502970	-0.005069	0.864289
20767	4.888416	-1.581147	8.865357	-0.004211	0.000455	0.005915	0.816176	0.326229	0.476898	-0.284334	0.945278	-0.160014	-0.503002	-0.004999	0.864271
20768	4.882522	-1.605234	8.866394	-0.000737	-0.002226	0.002482	0.816157	0.326226	0.476932	-0.284306	0.945279	-0.160057	-0.503048	-0.004963	0.864244
20769	4.909825	-1.637061	8.873360	0.000171	-0.002376	0.004473	0.816131	0.326246	0.476963	-0.284307	0.945272	-0.160097	-0.503090	-0.004944	0.864220
20770	4.921392	-1.589812	8.871244	0.002732	0.006431	0.003796	0.816152	0.326257	0.476919	-0.284307	0.945268	-0.160116	-0.503056	-0.004912	0.864240
20771	4.947881	-1.621291	8.878726	0.004105	0.007419	0.002233	0.816181	0.326256	0.476871	-0.284307	0.945269	-0.160113	-0.503009	-0.004896	0.864267
20772	4.913845	-1.613223	8.873318	0.001641	0.013414	0.004255	0.816236	0.326271	0.476767	-0.284306	0.945264	-0.160145	-0.502921	-0.004832	0.864319
20773	4.912527	-1.613213	8.874049	0.005738	0.013950	0.008664	0.816279	0.326330	0.476652	-0.284366	0.945244	-0.160158	-0.502816	-0.004810	0.864380
20774	4.884329	-1.581820	8.867490	-0.003293	0.007186	0.005728	0.816298	0.326359	0.476599	-0.284352	0.945234	-0.160239	-0.502793	-0.004719	0.864394
20775	4.916005	-1.616730	8.841063	0.002915	0.010935	0.006093	0.816334	0.326395	0.476513	-0.284378	0.945222	-0.160265	-0.502720	-0.004681	0.864437
20776	4.934141	-1.622463	8.827640	-0.000194	0.011288	0.009371	0.816364	0.326458	0.476419	-0.284409	0.945200	-0.160336	-0.502655	-0.004606	0.864475
20777	4.928529	-1.696434	8.851813	0.000909	0.022522	0.011481	0.816442	0.326548	0.476223	-0.284472	0.945170	-0.160404	-0.502491	-0.004511	0.864570
20778	4.852968	-1.627704	8.852698	0.007767	0.020574	0.005844	0.816529	0.326578	0.476054	-0.284514	0.945160	-0.160390	-0.502327	-0.004481	0.864666
20779	4.863366	-1.553354	8.884431	0.007769	0.020573	0.005844	0.816613	0.326614	0.475885	-0.284565	0.945147	-0.160372	-0.502161	-0.004458	0.864763
20780	4.857784	-1.426828	8.874048	0.006854	0.025178	0.010773	0.816709	0.326691	0.475668	-0.284642	0.945121	-0.160390	-0.501962	-0.004404	0.864878
20781	4.842558	-1.371464	8.920965	-0.003733	0.024261	0.011843	0.816795	0.326781	0.475457	-0.284683	0.945090	-0.160498	-0.501798	-0.004261	0.864974
20782	4.804117	-1.541674	8.895850	-0.016250	0.024636	0.019250	0.816863	0.326938	0.475232	-0.284714	0.945037	-0.160755	-0.501669	-0.003990	0.865050
20783	4.818632	-1.699406	8.895346	-0.016069	0.017804	0.016802	0.816903	0.327077	0.475069	-0.284735	0.944990	-0.160996	-0.501593	-0.003751	0.865096
20784	4.861537	-1.689526	8.866634	-0.025767	0.009859	0.022036	0.816889	0.327260	0.474966	-0.284741	0.944928	-0.161348	-0.501612	-0.003439	0.865086
20785	4.926534	-1.838037	8.802666	-0.017599	0.019190	0.013890	0.816944	0.327371	0.474796	-0.284730	0.944891	-0.161588	-0.501529	-0.003180	0.865135
20786	4.963941	-1.797340	8.841295	-0.005165	0.022227	0.007712	0.817033	0.327418	0.474609	-0.284723	0.944875	-0.161694	-0.501388	-0.003022	0.865217
20787	4.862173	-1.644129	8.900635	-0.000403	0.023946	0.003948	0.817140	0.327434	0.474415	-0.284715	0.944870	-0.161737	-0.501218	-0.002911	0.865316
20788	4.962796	-1.595017	8.896893	-0.002108	0.032162	0.003484	0.817291	0.327442	0.474149	-0.284688	0.944867	-0.161797	-0.500987	-0.002749	0.865450
20789	4.826253	-1.633624	8.985367	-0.004034	0.033448	0.009821	0.817429	0.327512	0.473863	-0.284709	0.944844	-0.161899	-0.500751	-0.002572	0.865588
20790	4.850625	-1.666063	8.993845	-0.001966	0.022903	0.010131	0.817514	0.327582	0.473667	-0.284738	0.944819	-0.161990	-0.500595	-0.002442	0.865678
20791	4.838876	-1.920248	8.909737	-0.006359	0.014408	0.006818	0.817565	0.327626	0.473550	-0.284724	0.944805	-0.162099	-0.500520	-0.002305	0.865722
20792	4.778406	-1.854165	8.929722	0.001217	0.003364	-0.006033	0.817598	0.327543	0.473549	-0.284636	0.944834	-0.162085	-0.500515	-0.002269	0.865725
20793	4.879845	-1.780501	8.869630	0.012772	-0.010614	-0.011066	0.817575	0.327416	0.473677	-0.284572	0.944877	-0.161943	-0.500589	-0.002395	0.865682
20794	4.903186	-1.607086	8.875894	0.024854	-0.005254	-0.017084	0.817597	0.327228	0.473769	-0.284512	0.944942	-0.161672	-0.500588	-0.002611	0.865682
20795	4.920453	-1.429871	8.916441	0.028707	0.001065	-0.015918	0.817646	0.327055	0.473803	-0.284488	0.945001	-0.161369	-0.500521	-0.002849	0.865720
20796	4.893188	-1.395456	8.909788	0.021570	0.006373	-0.004445	0.817690	0.326988	0.473774	-0.284515	0.945024	-0.161186	-0.500434	-0.002996	0.865770
20797	4.883230	-1.594232	8.891516	0.007811	0.016104	-0.001071	0.817772	0.326955	0.473655	-0.284508	0.945035	-0.161134	-0.500304	-0.002988	0.865845
20798	4.858242	-1.688183	8.896711	0.009866	0.010014	0.006165	0.817804	0.326988	0.473577	-0.284563	0.945024	-0.161103	-0.500220	-0.003012	0.865893
20799	4.812911	-1.674360	8.959116	-0.006365	0.014411	0.006810	0.817856	0.327028	0.473460	-0.284548	0.945010	-0.161209	-0.500145	-0.002876	0.865937
20800	4.902553	-1.725902	8.891024	0.002830	0.003009	0.002575	0.817863	0.327027	0.473449	-0.284538	0.945011	-0.161222	-0.500138	-0.002856	0.865941
20801	4.875398	-1.667502	8.916929	0.002746	0.006422	0.003798	0.817883	0.327041	0.473405	-0.284545	0.945006	-0.161237	-0.500102	-0.002832	0.865962
20802	4.826699	-1.580405	8.901685	0.001294	0.004398	-0.000338	0.817905	0.327012	0.473386	-0.284505	0.945016	-0.161250	-0.500088	-0.002793	0.865970
20803	4.808240	-1.495475	9.014224	-0.009773	0.002352	0.004270	0.817903	0.327030	0.473378	-0.284453	0.945010	-0.161377	-0.500122	-0.002663	0.865951
20804	4.836352	-1.631485	8.977769	-0.011813	-0.004270	0.007089	0.817861	0.327071	0.473422	-0.284407	0.944996	-0.161538	-0.500216	-0.002529	0.865897
20805	4.863194	-1.718053	8.918676	-0.019480	-0.010035	0.002577	0.817802	0.327074	0.473522	-0.284294	0.944996	-0.161741	-0.500377	-0.002348	0.865804
20806	4.883542	-1.724977	8.903903	-0.009550	-0.014763	0.002779	0.817719	0.327074	0.473664	-0.284224	0.944996	-0.161862	-0.500551	-0.002269	0.865704
20807	4.883439	-1.649283	8.913678	-0.007341	-0.014966	-0.002486	0.817650	0.327027	0.473816	-0.284129	0.945012	-0.161933	-0.500719	-0.002220	0.865607
20808	4.897690	-1.705710	8.867134	-0.006633	-0.015169	0.004131	0.817562	0.327040	0.473959	-0.284085	0.945008	-0.162036	-0.500887	-0.002170	0.865510
20809	4.823374	-1.760627	8.911343	-0.001785	-0.016863	-0.000854	0.817479	0.327007	0.474125	-0.284030	0.945019	-0.162067	-0.501055	-0.002179	0.865413
20810	4.867352	-1.697987	8.859505	0.003799	-0.011882	-0.001400	0.817423	0.326968	0.474249	-0.283993	0.945033	-0.162053	-0.501167	-0.002218	0.865348
20811	4.853968	-1.591823	8.882358	0.006251	-0.017875	-0.003416	0.817341	0.326912	0.474428	-0.283957	0.945052	-0.162003	-0.501320	-0.002306	0.865259
20812	4.882335	-1.622964	8.888921	0.004980	-0.010947	0.001664	0.817281	0.326901	0.474539	-0.283951	0.945056	-0.161993	-0.501421	-0.002352	0.865200
20813	4.908119	-1.630851	8.840591	0.008092	-0.011302	-0.001610	0.817228	0.326862	0.474657	-0.283940	0.945069	-0.161935	-0.501514	-0.002437	0.865146
20814	4.908918	-1.630508	8.840211	-0.000026	-0.006877	0.002178	0.817187	0.326857	0.474732	-0.283914	0.945071	-0.161970	-0.501596	-0.002423	0.865098
20815	4.790211	-1.497727	8.879115	0.002179	-0.007080	-0.003088	0.817158	0.326805	0.474817	-0.283861	0.945089	-0.161958	-0.501673	-0.002436	0.865054
20816	4.803504	-1.424236	8.909182	-0.010641	-0.014666	0.005417	0.817069	0.326830	0.474954	-0.283807	0.945080	-0.162101	-0.501849	-0.002347	0.864952
20817	4.791932	-1.699573	8.912235	-0.019518	-0.023796	0.006942	0.816928	0.326873	0.475166	-0.283728	0.945066	-0.162324	-0.502123	-0.002211	0.864794
20818	4.498128	-1.749600	8.989208	-0.031758	-0.042564	-0.003173	0.816723	0.326816	0.475558	-0.283498	0.945086	-0.162609	-0.502586	-0.002014	0.864525
20819	4.675337	-1.795326	8.981537	-0.034669	-0.100214	-0.013471	0.816254	0.326663	0.476466	-0.283174	0.945139	-0.162866	-0.503529	-0.001983	0.863976
20820	5.023678	-1.713851	8.812389	-0.033247	-0.110585	-0.019794	0.815752	0.326448	0.477473	-0.282800	0.945213	-0.163084	-0.504552	-0.001993	0.863379
20821	4.941697	-1.561742	8.919470	-0.032798	-0.087839	-0.019548	0.815362	0.326240	0.478280	-0.282437	0.945285	-0.163295	-0.505385	-0.001940	0.862892
20822	5.034048	-1.637841	8.846696	-0.020632	-0.088333	-0.017728	0.814965	0.326044	0.479090	-0.282144	0.945352	-0.163413	-0.506189	-0.001996	0.862420
20823	4.446614	-1.686089	8.980556	-0.045933	-0.069083	-0.016157	0.814659	0.325867	0.479731	-0.281741	0.945414	-0.163752	-0.506905	-0.001758	0.862000
20824	4.478504	-1.815796	9.093259	-0.066041	-0.173590	-0.029752	0.813861	0.325557	0.481294	-0.281119	0.945521	-0.164203	-0.508531	-0.001662	0.861042
20825	5.090015	-1.703025	8.832944	-0.064300	-0.183967	-0.040744	0.813036	0.325145	0.482963	-0.280419	0.945663	-0.164581	-0.510233	-0.001622	0.860035
20826	4.860502	-1.719402	8.873793	-0.079990	-0.170656	-0.035432	0.812262	0.324782	0.484507	-0.279678	0.945788	-0.165122	-0.511869	-0.001384	0.859062
20827	4.989860	-1.880072	8.823844	-0.070237	-0.177579	-0.042111	0.811468	0.324358	0.486120	-0.278937	0.945934	-0.165541	-0.513532	-0.001265	0.858070
20828	5.187692	-1.861041	8.628229	-0.054938	-0.196779	-0.041671	0.810570	0.323935	0.487895	-0.278271	0.946078	-0.165834	-0.515306	-0.001347	0.857005
20829	4.868643	-1.792914	8.895727	-0.047357	-0.156545	-0.047970	0.809893	0.323458	0.489334	-0.277599	0.946242	-0.166028	-0.516731	-0.001374	0.856146
20830	5.133363	-1.784916	8.800672	-0.043550	-0.146831	-0.045590	0.809259	0.322998	0.490685	-0.276960	0.946399	-0.166202	-0.518066	-0.001400	0.855339
20831	4.823559	-1.979674	8.847725	-0.031365	-0.182520	-0.059348	0.808474	0.322412	0.492362	-0.276279	0.946598	-0.166201	-0.519654	-0.001660	0.854375
20832	5.043473	-1.726596	8.847091	-0.026326	-0.180790	-0.067811	0.807719	0.321741	0.494037	-0.275549	0.946826	-0.166115	-0.521213	-0.001957	0.853424
20833	4.948868	-1.872708	8.868445	-0.025984	-0.180813	-0.072477	0.806973	0.321029	0.495718	-0.274788	0.947067	-0.165999	-0.522768	-0.002261	0.852472
20834	4.738324	-2.086465	8.965835	-0.016283	-0.215077	-0.086560	0.806083	0.320177	0.497712	-0.273960	0.947354	-0.165732	-0.524573	-0.002760	0.851361
20835	4.842127	-2.327401	8.984907	-0.004284	-0.246083	-0.109360	0.805086	0.319109	0.500005	-0.273016	0.947712	-0.165243	-0.526591	-0.003474	0.850111
20836	4.636467	-2.337805	8.958572	0.066025	-0.357847	-0.134607	0.803563	0.317792	0.503284	-0.272236	0.948146	-0.164031	-0.529315	-0.005203	0.848409
20837	4.442047	-1.460931	9.560873	0.061425	-0.370670	-0.172142	0.802061	0.316114	0.506724	-0.271140	0.948696	-0.162662	-0.532147	-0.006928	0.846623
20838	4.112203	-1.079392	9.623263	0.033999	-0.494796	-0.177319	0.799897	0.314366	0.511213	-0.269856	0.949261	-0.161496	-0.536044	-0.008774	0.844145
20839	5.310305	-0.629867	9.285348	-0.016529	-0.565350	-0.135782	0.797217	0.313002	0.516212	-0.268644	0.949696	-0.160961	-0.540625	-0.010356	0.841200
20840	4.384713	-0.755153	9.586044	-0.032722	-0.671597	-0.082128	0.793786	0.312121	0.522000	-0.267767	0.949965	-0.160832	-0.546081	-0.012108	0.837645
20841	5.018307	-1.245078	8.991313	-0.063573	-0.736952	-0.047900	0.789865	0.311549	0.528252	-0.266999	0.950130	-0.161133	-0.552109	-0.013769	0.833658
20842	4.729161	-1.732406	9.109868	-0.026590	-0.825856	-0.022561	0.785337	0.311185	0.535173	-0.266627	0.950214	-0.161257	-0.558709	-0.016051	0.829208
20843	4.440462	-2.172127	9.086581	0.014769	-0.912771	-0.042550	0.780315	0.310599	0.542804	-0.266337	0.950351	-0.160926	-0.565838	-0.018996	0.824298
20844	4.467209	-2.291425	9.237977	0.017141	-1.068744	-0.109428	0.774513	0.309311	0.551776	-0.265538	0.950696	-0.160207	-0.574126	-0.022435	0.818460
20845	4.582297	-2.526002	9.310390	0.056860	-1.229160	-0.181710	0.767879	0.307255	0.562100	-0.264422	0.951252	-0.158749	-0.583475	-0.026732	0.811691
20846	4.449767	-2.552764	9.535554	0.172651	-1.430372	-0.266449	0.760159	0.304268	0.574090	-0.263356	0.952025	-0.155861	-0.593972	-0.032711	0.803821
20847	4.505490	-2.602679	9.352633	0.312465	-1.693728	-0.336563	0.750882	0.300413	0.588157	-0.262643	0.952937	-0.151424	-0.605966	-0.040774	0.794445
20848	4.712034	-2.320782	9.381470	0.463642	-1.955517	-0.440149	0.740053	0.295292	0.604255	-0.262155	0.954046	-0.145160	-0.619352	-0.050982	0.783457
20849	4.394752	-2.097546	8.896724	0.620460	-2.264235	-0.531849	0.727254	0.288891	0.622610	-0.262095	0.955255	-0.137091	-0.634356	-0.063483	0.770430
20850	3.913441	-2.067708	9.792348	0.736396	-2.683509	-0.662886	0.711730	0.280626	0.643964	-0.262013	0.956632	-0.127294	-0.651759	-0.078128	0.754392
20851	2.527940	-2.916153	11.455097	0.745404	-3.288901	-0.953633	0.692437	0.268628	0.669605	-0.260205	0.958621	-0.115496	-0.672923	-0.094261	0.733683
20852	3.635631	-3.718885	11.861022	0.851295	-4.057981	-1.304045	0.667979	0.251876	0.700259	-0.257122	0.961145	-0.100444	-0.698350	-0.112958	0.706787
20853	5.965623	-4.259211	11.815943	0.995379	-4.458193	-1.603945	0.640346	0.230914	0.732554	-0.253658	0.963805	-0.082078	-0.724992	-0.133260	0.675742
20854	9.338349	-5.715465	12.553085	1.151618	-4.619428	-1.873985	0.610966	0.206150	0.764345	-0.250382	0.966257	-0.060469	-0.751019	-0.154434	0.641966
20855	10.733494	-4.901885	13.558190	1.301226	-4.463548	-2.026531	0.581973	0.179147	0.793230	-0.248157	0.968030	-0.036558	-0.774420	-0.175570	0.607824
20856	10.048527	-4.559935	11.467694	1.091024	-4.321164	-2.202041	0.553445	0.149809	0.819302	-0.244173	0.969653	-0.012360	-0.796290	-0.193211	0.573229
20857	11.126739	-5.106736	10.174217	1.010681	-4.387660	-2.393617	0.523829	0.117724	0.843650	-0.239367	0.970840	0.013152	-0.817501	-0.208831	0.536733
20858	12.749601	-5.937403	11.042215	1.063580	-4.291453	-2.568977	0.494411	0.083467	0.865212	-0.235034	0.971138	0.040621	-0.836849	-0.223437	0.499759
20859	12.795514	-6.978872	12.401842	1.158028	-3.881235	-2.597545	0.467691	0.049274	0.882518	-0.232246	0.970213	0.068908	-0.852835	-0.237189	0.465203
20860	7.491408	-8.471541	11.387718	1.464925	-3.450378	-2.670416	0.444246	0.014918	0.895780	-0.232603	0.967495	0.099243	-0.865183	-0.252450	0.433276
20861	1.368050	-9.227124	7.840075	2.136825	-3.526286	-3.003066	0.420626	-0.023352	0.906933	-0.238129	0.961776	0.135206	-0.875424	-0.272838	0.398988
20862	-3.682850	-3.875371	6.071370	3.609569	-3.772917	-3.574544	0.396276	-0.068473	0.915575	-0.255201	0.949704	0.181481	-0.881951	-0.305572	0.358870
20863	21.747898	8.899922	22.398229	2.751869	-2.981366	-2.912432	0.377540	-0.105464	0.919968	-0.268170	0.938466	0.217637	-0.886312	-0.328875	0.326026
20864	8.975450	5.344785	22.792310	-0.013233	0.098355	-1.831770	0.383251	-0.122344	0.915506	-0.261035	0.936435	0.234416	-0.885991	-0.328819	0.326954
20865	3.535150	0.421945	15.696114	-1.685276	1.215807	-1.218299	0.397091	-0.129897	0.908540	-0.241250	0.940347	0.239887	-0.885504	-0.314442	0.342066
20866	-1.385401	-5.437157	10.124756	-2.125654	1.784450	-0.877186	0.414883	-0.132747	0.900139	-0.218839	0.945701	0.240332	-0.883166	-0.296695	0.363305
20867	-2.888499	-8.003088	7.171265	-1.853494	2.011516	-0.728569	0.434139	-0.133870	0.890844	-0.199304	0.950118	0.239905	-0.878522	-0.281701	0.385802
20868	-2.216268	-7.732808	6.177105	-1.195148	2.007381	-0.646055	0.452944	-0.134479	0.881338	-0.185927	0.952574	0.240902	-0.871936	-0.272980	0.406460
20869	-0.479811	-5.953137	6.738601	-0.767180	2.090011	-0.445991	0.471905	-0.133110	0.871543	-0.177081	0.954082	0.241598	-0.863683	-0.268345	0.426665
20870	1.497417	-4.257629	7.711399	-0.679359	2.281671	-0.109095	0.491681	-0.128100	0.861302	-0.170669	0.955759	0.239577	-0.853886	-0.264793	0.448065
20871	3.529169	-3.455914	8.522588	-0.829894	2.599635	0.347664	0.513159	-0.117992	0.850144	-0.165244	0.958393	0.232759	-0.842236	-0.259923	0.472311
20872	4.676336	-3.391650	8.639699	-1.028726	3.012122	0.820543	0.536970	-0.102413	0.837362	-0.160909	0.961946	0.220835	-0.828113	-0.253321	0.500057
20873	4.946861	-2.958708	8.050655	-1.160504	3.385949	1.239029	0.562771	-0.082074	0.822528	-0.158067	0.966012	0.204540	-0.811359	-0.245124	0.530670
20874	5.054603	-2.095776	7.110040	-1.245404	3.655209	1.571472	0.589598	-0.058102	0.805605	-0.157085	0.970116	0.184933	-0.792275	-0.235584	0.562851
20875	4.999674	-1.352514	5.998735	-1.310033	3.818591	1.792524	0.616658	-0.031943	0.786583	-0.157509	0.973966	0.163035	-0.771313	-0.224431	0.595572
20876	4.641904	-0.842660	5.573065	-1.340758	3.835640	1.942019	0.642738	-0.004652	0.766072	-0.159494	0.977257	0.139751	-0.749299	-0.212007	0.627379
20877	5.186717	0.040521	6.077660	-1.368464	3.741408	2.046754	0.667089	0.022995	0.744623	-0.162652	0.979905	0.115455	-0.727005	-0.198133	0.657424
20878	6.484319	0.785034	6.727351	-1.436869	3.714638	2.119039	0.690178	0.050827	0.721853	-0.166700	0.981869	0.090250	-0.704177	-0.182622	0.686137
20879	7.188742	0.244197	7.059724	-1.484706	3.777579	2.144936	0.712735	0.078415	0.697037	-0.171327	0.983095	0.064589	-0.680189	-0.165456	0.714120
20880	7.880048	-0.992883	7.388355	-1.381828	3.796312	2.146443	0.734334	0.105450	0.670547	-0.177583	0.983299	0.039842	-0.655147	-0.148335	0.740797
20881	8.555094	-1.810861	7.635980	-1.162250	3.760737	2.207522	0.754506	0.132357	0.642808	-0.186412	0.982332	0.016537	-0.629262	-0.132305	0.765849
20882	9.635449	-1.765739	8.121392	-0.969033	3.664682	2.381589	0.772502	0.160277	0.614453	-0.198579	0.980067	-0.005988	-0.603164	-0.117391	0.788931
20883	10.952202	-1.791952	8.862884	-0.817983	3.560288	2.645979	0.788090	0.190013	0.585499	-0.214263	0.976361	-0.028460	-0.577066	-0.103022	0.810174
20884	13.690813	0.680605	10.077163	-0.761486	3.409290	2.881131	0.800890	0.221312	0.556413	-0.232812	0.971174	-0.051176	-0.551700	-0.088553	0.829328
20885	18.661004	4.453750	9.269018	-1.032928	3.454503	3.047004	0.812172	0.253476	0.525477	-0.251692	0.964789	-0.076377	-0.526334	-0.070227	0.847373
20886	20.838507	6.936909	6.278228	-1.540994	3.685356	3.095970	0.823029	0.285342	0.491125	-0.269053	0.957348	-0.105335	-0.500234	-0.045445	0.864697
20887	20.274239	8.441018	2.534086	-2.006711	3.661166	3.019088	0.832580	0.315161	0.455504	-0.284145	0.948916	-0.137185	-0.475470	-0.015212	0.879600
20888	19.761710	8.052455	-0.736398	-2.178744	3.246311	2.738919	0.839723	0.340993	0.422598	-0.296872	0.939929	-0.168526	-0.454678	0.016057	0.890511
20889	19.796763	7.210640	-2.400145	-1.957496	2.621190	2.169374	0.844919	0.360451	0.395204	-0.306311	0.931756	-0.194949	-0.438503	0.043661	0.897668
20890	20.223404	7.641484	-3.475479	-1.477307	1.965846	1.317517	0.849356	0.371602	0.374842	-0.311041	0.926141	-0.213347	-0.426437	0.064616	0.902206
20891	19.338869	9.535760	-4.192705	-1.093732	1.431639	0.421096	0.854114	0.374409	0.360981	-0.309934	0.923794	-0.224823	-0.417648	0.080144	0.905067
20892	14.726041	-2.006340	-1.755990	-1.318580	0.813218	0.214879	0.856838	0.375654	0.353146	-0.306243	0.921837	-0.237554	-0.414781	0.095397	0.904907
20893	12.941856	-8.157887	-26.552756	5.650141	-3.747880	-1.798750	0.846618	0.361268	0.390798	-0.314702	0.932003	-0.179813	-0.429185	0.029248	0.902743
20894	0.804225	32.007840	12.201310	2.231208	-0.647529	-0.667479	0.845959	0.355127	0.397791	-0.318570	0.934798	-0.157054	-0.427628	0.006137	0.903934
20895	11.283527	14.117775	19.475493	1.933768	-3.890954	0.031796	0.828711	0.355009	0.432674	-0.327307	0.934509	-0.139865	-0.453991	-0.025710	0.890635
20896	27.307472	-0.305655	33.579535	0.397231	-1.726423	0.092765	0.820458	0.355321	0.447880	-0.329858	0.934069	-0.136777	-0.466950	-0.035517	0.883570
20897	28.102624	15.201791	15.573301	1.695313	-0.994675	-0.912867	0.818817	0.346306	0.457833	-0.330271	0.936518	-0.117707	-0.469532	-0.054828	0.881211
20898	-18.069352	-9.983391	6.939440	-2.744741	1.974803	0.579455	0.826129	0.352465	0.439636	-0.322205	0.935562	-0.144596	-0.462271	-0.022198	0.886461
20899	22.392291	5.129967	18.577772	1.279638	-4.713688	-0.629783	0.805560	0.344825	0.481839	-0.323162	0.937303	-0.130498	-0.496628	-0.050589	0.866488
20900	8.899496	-2.134467	-2.651763	-1.456942	2.433607	0.200225	0.816823	0.347638	0.460379	-0.317616	0.937197	-0.144161	-0.481581	-0.028470	0.875939
20901	-2.386178	-1.008382	18.114730	-0.010727	-1.138890	0.058351	0.811096	0.347818	0.470261	-0.318006	0.937005	-0.144545	-0.490913	-0.032305	0.870610
20902	11.216577	-3.757664	3.366391	-0.241819	-0.270120	0.041106	0.809636	0.348092	0.472569	-0.317104	0.936950	-0.146868	-0.493897	-0.030944	0.868970
20903	2.619522	-3.041643	10.465152	-0.117944	-0.046286	-0.015474	0.809454	0.347912	0.473013	-0.316362	0.937048	-0.147839	-0.494671	-0.029974	0.868563
20904	8.222796	-1.942735	7.315458	-0.005232	-0.084828	-0.031837	0.809135	0.347562	0.473815	-0.316034	0.937171	-0.147759	-0.495401	-0.030184	0.868140
20905	3.662626	-1.281052	9.770823	0.005204	0.075915	-0.025352	0.809589	0.347326	0.473213	-0.315819	0.937266	-0.147614	-0.494797	-0.029943	0.868492
20906	5.668348	-0.931494	8.762057	0.003317	0.023544	-0.008957	0.809734	0.347223	0.473040	-0.315719	0.937307	-0.147568	-0.494623	-0.029857	0.868594
20907	4.203881	-0.073077	9.621753	-0.019627	0.015475	0.007410	0.809785	0.347276	0.472915	-0.315647	0.937296	-0.147794	-0.494586	-0.029593	0.868625
20908	4.520537	-0.606163	9.227124	-0.090240	0.003071	0.027399	0.809714	0.347507	0.472866	-0.315379	0.937238	-0.148733	-0.494873	-0.028701	0.868491
20909	4.714027	-1.376080	8.978956	-0.109292	-0.065009	0.035408	0.809278	0.347800	0.473397	-0.315089	0.937154	-0.149868	-0.495770	-0.027877	0.868006
20910	5.004666	-2.228035	8.682494	-0.108328	-0.041201	0.040952	0.808945	0.348146	0.473711	-0.314839	0.937052	-0.151028	-0.496472	-0.026970	0.867634
20911	4.816796	-2.539155	8.685216	-0.062089	-0.038909	0.028605	0.808659	0.348383	0.474025	-0.314728	0.936978	-0.151721	-0.497008	-0.026498	0.867342
20912	5.055022	-2.194691	8.799187	-0.046415	-0.058278	0.006370	0.808350	0.348401	0.474539	-0.314504	0.936978	-0.152179	-0.497652	-0.026231	0.866980
20913	5.065569	-2.048549	8.779225	-0.026971	-0.030242	-0.005345	0.808214	0.348322	0.474829	-0.314291	0.937013	-0.152407	-0.498007	-0.026057	0.866781
20914	4.914239	-1.976730	8.832386	-0.010007	-0.033867	-0.014188	0.808090	0.348154	0.475162	-0.314083	0.937076	-0.152452	-0.498340	-0.026045	0.866591
20915	4.989300	-1.478560	8.958383	-0.002844	-0.021186	-0.018671	0.808041	0.347952	0.475394	-0.313882	0.937150	-0.152408	-0.498546	-0.026066	0.866471
20916	5.016941	-1.461295	8.941638	-0.007785	-0.019367	-0.009082	0.807973	0.347836	0.475594	-0.313726	0.937194	-0.152457	-0.498754	-0.026025	0.866353
20917	4.940394	-1.463539	8.964431	-0.004352	-0.000496	0.000238	0.807968	0.347816	0.475617	-0.313670	0.937203	-0.152516	-0.498798	-0.025959	0.866330
20918	4.749484	-1.717235	8.947153	-0.014101	-0.004773	0.002169	0.807938	0.347809	0.475674	-0.313573	0.937210	-0.152674	-0.498908	-0.025808	0.866271
20919	5.027927	-1.575742	8.831528	-0.004395	-0.024514	0.001242	0.807809	0.347793	0.475904	-0.313525	0.937216	-0.152737	-0.499146	-0.025825	0.866133
20920	4.925915	-1.595450	8.869838	-0.010726	-0.000695	0.001123	0.807802	0.347777	0.475927	-0.313437	0.937225	-0.152861	-0.499212	-0.025692	0.866099
20921	4.820011	-1.746864	8.835756	-0.006283	-0.010483	-0.002642	0.807756	0.347728	0.476041	-0.313348	0.937245	-0.152922	-0.499342	-0.025643	0.866025
20922	4.816239	-1.617187	8.853745	-0.007137	-0.020614	-0.008154	0.807679	0.347620	0.476250	-0.313203	0.937285	-0.152971	-0.499558	-0.025612	0.865902
20923	4.552165	-1.440134	8.878141	-0.026463	-0.018866	-0.009993	0.807614	0.347500	0.476449	-0.312954	0.937336	-0.153172	-0.499820	-0.025403	0.865757
20924	4.244608	-1.518616	9.082059	-0.066777	-0.086050	-0.013597	0.807226	0.347325	0.477233	-0.312466	0.937410	-0.153710	-0.500750	-0.025040	0.865229
20925	5.076525	-1.390098	8.851447	-0.088541	-0.148008	-0.019643	0.806543	0.347082	0.478562	-0.311827	0.937509	-0.154402	-0.502247	-0.024697	0.864371
20926	5.007122	-1.340927	8.966203	-0.098823	-0.081382	-0.007849	0.806159	0.346963	0.479296	-0.311223	0.937571	-0.155243	-0.503238	-0.024017	0.863814
20927	4.862024	-1.768705	8.897057	-0.106385	-0.123795	-0.005730	0.805551	0.346858	0.480393	-0.310604	0.937625	-0.156154	-0.504592	-0.023422	0.863040
20928	4.891952	-1.705783	8.884790	-0.079106	-0.101381	-0.026890	0.805122	0.346556	0.481329	-0.309944	0.937747	-0.156732	-0.505681	-0.022996	0.862414
20929	4.945386	-1.726548	8.816182	-0.052711	-0.122408	-0.036694	0.804614	0.346162	0.482461	-0.309345	0.937895	-0.157029	-0.506855	-0.022899	0.861727
20930	4.640027	-1.846378	8.777165	-0.037453	-0.086799	-0.049321	0.804326	0.345654	0.483304	-0.308714	0.938085	-0.157138	-0.507696	-0.022812	0.861234
20931	4.181271	-1.876006	9.038145	-0.064900	-0.169670	-0.066324	0.803666	0.344971	0.484889	-0.307814	0.938337	-0.157395	-0.509286	-0.022762	0.860296
20932	4.828205	-1.818680	8.743015	-0.072329	-0.249795	-0.088610	0.802663	0.344056	0.487194	-0.306689	0.938670	-0.157611	-0.511541	-0.022908	0.858953
20933	4.975228	-1.456583	8.987496	-0.096335	-0.233773	-0.090915	0.801741	0.343127	0.489363	-0.305428	0.939013	-0.158013	-0.513737	-0.022780	0.857645
20934	5.390505	-1.482715	8.751386	-0.085943	-0.227463	-0.081600	0.800818	0.342282	0.491460	-0.304287	0.939322	-0.158374	-0.515848	-0.022716	0.856379
20935	5.156454	-1.609945	8.875094	-0.087712	-0.195230	-0.078397	0.800045	0.341479	0.493274	-0.303169	0.939619	-0.158758	-0.517702	-0.022532	0.855264
20936	5.329337	-1.665050	8.715765	-0.052896	-0.179780	-0.071343	0.799329	0.340742	0.494942	-0.302280	0.939885	-0.158882	-0.519327	-0.022612	0.854277
20937	5.154123	-1.581169	8.794145	-0.026650	-0.158367	-0.075205	0.798730	0.339977	0.496433	-0.301503	0.940156	-0.158756	-0.520698	-0.022873	0.853435
20938	5.019667	-1.723385	8.694165	-0.023802	-0.141640	-0.072536	0.798210	0.339236	0.497775	-0.300755	0.940418	-0.158622	-0.521927	-0.023095	0.852678
20939	5.000185	-1.673901	8.868659	-0.023671	-0.178388	-0.077472	0.797508	0.338443	0.499437	-0.299976	0.940695	-0.158456	-0.523446	-0.023449	0.851736
20940	5.334701	-1.582977	8.820732	-0.029516	-0.177630	-0.075491	0.796802	0.337665	0.501087	-0.299174	0.940967	-0.158354	-0.524977	-0.023736	0.850785
20941	5.001753	-1.731337	8.957419	-0.031390	-0.166026	-0.065556	0.796123	0.336986	0.502622	-0.298450	0.941204	-0.158310	-0.526418	-0.023973	0.849888
20942	4.903086	-1.748589	8.970149	-0.021678	-0.198501	-0.063317	0.795265	0.336316	0.504426	-0.297786	0.941433	-0.158199	-0.528088	-0.024401	0.848839
20943	4.575886	-2.050243	9.087557	-0.020439	-0.251487	-0.077922	0.794163	0.335497	0.506701	-0.297021	0.941709	-0.157997	-0.530173	-0.025025	0.847520
20944	4.443172	-2.140672	9.274287	0.025680	-0.341985	-0.090711	0.792614	0.334529	0.509758	-0.296393	0.942016	-0.157342	-0.532836	-0.026377	0.845807
20945	3.880285	-1.552931	9.842034	-0.007235	-0.448654	-0.152665	0.790665	0.332945	0.513805	-0.295107	0.942537	-0.156640	-0.536433	-0.027777	0.843485
20946	4.567310	-2.036155	9.189723	0.014376	-0.700716	-0.168493	0.787382	0.331127	0.519984	-0.293809	0.943103	-0.155672	-0.541946	-0.030203	0.839871
20947	4.517737	-1.498848	9.404912	-0.027542	-0.663261	-0.197179	0.784346	0.329036	0.525867	-0.292070	0.943771	-0.154889	-0.547262	-0.032103	0.836345
20948	4.966605	-0.965347	9.264551	-0.021902	-0.842804	-0.169762	0.780199	0.327126	0.533177	-0.290576	0.944346	-0.154195	-0.553945	-0.034625	0.831833
20949	4.964771	-0.759548	9.280177	-0.070190	-0.868785	-0.132638	0.775739	0.325539	0.540604	-0.289112	0.944814	-0.154082	-0.560930	-0.036768	0.827046
20950	5.039264	-0.915000	9.161050	-0.071782	-0.984788	-0.089191	0.770433	0.324295	0.548877	-0.287971	0.945141	-0.154210	-0.568776	-0.039253	0.821555
20951	5.011839	-1.598842	9.030138	-0.029107	-1.076132	-0.060359	0.764439	0.323260	0.557795	-0.287301	0.945358	-0.154129	-0.577140	-0.042432	0.815542
20952	4.872558	-2.022640	9.158606	0.045776	-1.203681	-0.088785	0.757691	0.321858	0.567725	-0.286845	0.945635	-0.153278	-0.586195	-0.046711	0.808823
20953	4.814941	-2.512155	8.897483	0.149058	-1.380327	-0.160673	0.749990	0.319628	0.579096	-0.286474	0.946087	-0.151172	-0.596194	-0.052519	0.801121
20954	4.875475	-2.448158	8.738137	0.295352	-1.577454	-0.241102	0.741188	0.316429	0.592042	-0.286406	0.946698	-0.147426	-0.607134	-0.060294	0.792308
20955	5.186074	-2.567649	8.632337	0.470127	-1.784375	-0.327112	0.731186	0.312139	0.606577	-0.286837	0.947430	-0.141778	-0.618944	-0.070323	0.782281
20956	4.482474	-2.745962	8.821260	0.587916	-2.010369	-0.465292	0.719945	0.306169	0.622848	-0.287090	0.948432	-0.134369	-0.631869	-0.082075	0.770718
20957	3.635514	-2.958254	9.739565	0.668863	-2.407776	-0.661976	0.706446	0.297718	0.642104	-0.286601	0.949849	-0.125088	-0.647143	-0.095660	0.756344
20958	3.170930	-2.674112	10.437863	0.611195	-3.019404	-0.971227	0.689380	0.285345	0.665833	-0.283789	0.952064	-0.114186	-0.666498	-0.110239	0.737311
20959	3.399641	-2.976342	10.445836	0.696575	-3.649316	-1.303147	0.668311	0.268560	0.693711	-0.279615	0.954861	-0.100284	-0.689330	-0.126951	0.713238
20960	5.768920	-4.287722	11.183135	0.913734	-4.105523	-1.588120	0.643910	0.247733	0.723884	-0.275555	0.957726	-0.082648	-0.713757	-0.146252	0.684953
20961	7.464166	-4.322406	12.030316	1.167311	-4.270953	-1.875638	0.618054	0.223010	0.753841	-0.272136	0.960325	-0.060977	-0.737531	-0.167460	0.654221
20962	10.112579	-4.994467	12.785414	1.192330	-4.324393	-2.098923	0.591325	0.195110	0.782474	-0.268324	0.962608	-0.037251	-0.760484	-0.187929	0.621567
20963	10.110324	-3.285631	12.274376	1.141832	-4.232692	-2.227126	0.564613	0.165266	0.808640	-0.264196	0.964386	-0.012628	-0.781928	-0.206510	0.588168
20964	10.681728	-3.009693	11.498221	0.882168	-4.313321	-2.318860	0.536471	0.133619	0.833274	-0.258371	0.965978	0.011444	-0.803395	-0.221433	0.552742
20965	11.234072	-5.071238	10.322000	0.654947	-4.350769	-2.437895	0.507267	0.100132	0.855952	-0.250912	0.967357	0.035535	-0.824453	-0.232794	0.515833
20966	13.465102	-6.284098	11.611343	0.909767	-4.271298	-2.622824	0.478148	0.064517	0.875906	-0.245524	0.967356	0.062776	-0.843263	-0.245072	0.478380
20967	12.747193	-7.611954	12.751908	1.167379	-3.889661	-2.703682	0.451654	0.028561	0.891736	-0.242814	0.965696	0.092052	-0.858516	-0.258101	0.443096
20968	6.578080	-8.399001	10.934398	1.449757	-3.392318	-2.788031	0.429098	-0.007348	0.903228	-0.243015	0.962157	0.123277	-0.869953	-0.272396	0.411074
20969	2.176057	-9.126811	8.509646	2.182080	-3.664846	-3.137198	0.404752	-0.047806	0.913176	-0.248943	0.955153	0.160344	-0.879888	-0.292229	0.374699
20970	-5.115426	-6.120486	4.337952	3.279945	-3.764118	-3.683147	0.380931	-0.094333	0.919779	-0.263394	0.942492	0.205749	-0.886293	-0.320640	0.334178
20971	18.676384	4.166441	20.119032	3.445431	-4.056820	-3.405826	0.354139	-0.139771	0.924689	-0.281420	0.927010	0.247901	-0.891846	-0.348017	0.288956
20972	13.345505	2.349078	23.847293	0.752597	-0.588727	-2.131255	0.354869	-0.161565	0.920850	-0.280527	0.921169	0.269728	-0.891836	-0.354042	0.281571
20973	6.850713	-0.814005	19.215782	-0.713579	0.513426	-1.420599	0.363364	-0.172872	0.915468	-0.268954	0.921333	0.280731	-0.891981	-0.348227	0.288284
20974	0.231430	-5.958283	14.022839	-1.621101	1.613141	-0.709521	0.379579	-0.173936	0.908661	-0.251822	0.925659	0.282385	-0.890228	-0.336009	0.307560
20975	-2.380772	-7.273285	10.537766	-1.736794	2.068790	-0.277201	0.398650	-0.169712	0.901264	-0.235192	0.930945	0.279332	-0.886433	-0.323326	0.331206
20976	-2.851082	-6.496137	8.723274	-1.531336	2.194643	-0.017015	0.418076	-0.162923	0.893683	-0.221539	0.935796	0.274239	-0.880984	-0.312639	0.355139
20977	-1.940787	-4.230066	8.138165	-1.419676	2.325782	0.156580	0.438168	-0.154321	0.885547	-0.209617	0.940451	0.267607	-0.874111	-0.302882	0.379728
20978	-0.614116	-1.910406	7.958207	-1.516480	2.493563	0.289684	0.459267	-0.144199	0.876516	-0.197670	0.945405	0.259105	-0.866026	-0.292260	0.405689
20979	0.608243	-1.348195	7.885674	-1.745076	2.681828	0.440473	0.481551	-0.132386	0.866362	-0.184568	0.951038	0.247914	-0.856763	-0.279285	0.433539
20980	2.546402	-1.734215	8.273253	-1.868057	2.878543	0.600450	0.504981	-0.118853	0.854908	-0.171574	0.956886	0.234376	-0.845906	-0.265035	0.462817
20981	4.287303	-1.984739	8.335137	-1.873234	3.128850	0.747476	0.530036	-0.103648	0.841617	-0.159570	0.962580	0.219039	-0.832826	-0.250395	0.493663
20982	5.475135	-1.755293	7.737674	-1.813579	3.394121	0.919191	0.556611	-0.086548	0.826253	-0.149549	0.967874	0.202127	-0.817202	-0.236071	0.525786
20983	5.741185	-1.629214	6.829910	-1.740492	3.564501	1.156528	0.583772	-0.067203	0.809132	-0.141922	0.972780	0.183188	-0.799418	-0.221774	0.558344
20984	5.917159	-1.545388	6.256093	-1.631416	3.582146	1.449333	0.610035	-0.045405	0.791072	-0.137635	0.977109	0.162220	-0.780329	-0.207839	0.589821
20985	6.691810	-1.083214	6.178840	-1.505129	3.499562	1.768111	0.634608	-0.021106	0.772546	-0.136889	0.980751	0.139241	-0.760614	-0.194116	0.619504
20986	8.107681	-0.560343	6.485210	-1.401327	3.455585	2.069669	0.657673	0.005670	0.753282	-0.139695	0.983545	0.114562	-0.740238	-0.180574	0.647643
20987	8.607975	-0.907645	6.813613	-1.285155	3.492975	2.300292	0.679913	0.034339	0.732489	-0.145554	0.985347	0.088914	-0.718702	-0.167070	0.674948
20988	8.844347	-1.500856	7.054257	-1.076314	3.528214	2.425696	0.701224	0.063898	0.710072	-0.154643	0.985895	0.063997	-0.695967	-0.154684	0.701215
20989	9.048370	-1.344561	7.282334	-0.858880	3.529344	2.504016	0.721393	0.093781	0.686147	-0.166431	0.985228	0.040321	-0.672230	-0.143283	0.726345
20990	9.933186	-0.627425	7.519447	-0.763285	3.486433	2.598409	0.739901	0.124132	0.661164	-0.180330	0.983456	0.017164	-0.648096	-0.131928	0.750045
20991	10.710975	0.215556	7.617277	-0.815154	3.462942	2.783227	0.756734	0.155749	0.634898	-0.195831	0.980612	-0.007146	-0.623701	-0.118925	0.772563
20992	11.134273	1.582038	7.778214	-0.956998	3.399137	3.019618	0.771353	0.189057	0.607678	-0.213004	0.976480	-0.033422	-0.599704	-0.103657	0.793480
20993	12.700266	3.260649	8.503201	-1.107888	3.322819	3.272914	0.783663	0.224011	0.579389	-0.231802	0.970797	-0.061815	-0.576316	-0.085862	0.812704
20994	15.292284	4.770017	9.173735	-1.244171	3.307654	3.484966	0.793909	0.260200	0.549549	-0.252222	0.963311	-0.091735	-0.553256	-0.065779	0.830410
20995	17.963828	5.380742	8.865041	-1.234768	3.401018	3.516322	0.803127	0.295726	0.517236	-0.273496	0.954243	-0.120915	-0.529326	-0.044352	0.847258
20996	20.223662	6.355368	6.946425	-1.046029	3.489264	3.308877	0.811757	0.328300	0.482980	-0.294768	0.944281	-0.146439	-0.504145	-0.023494	0.863299
20997	21.169486	7.099893	3.498718	-0.748856	3.481248	2.900129	0.820063	0.355969	0.448088	-0.314649	0.934487	-0.166521	-0.478009	-0.004433	0.878344
20998	20.128888	7.050788	-0.389947	-0.361521	3.203328	2.297169	0.827548	0.377215	0.415779	-0.331850	0.926064	-0.179671	-0.452813	0.010710	0.891541
20999	17.632627	6.619010	-3.022685	-0.024585	2.597877	1.609015	0.833625	0.391597	0.389514	-0.345018	0.919897	-0.186421	-0.431314	0.021016	0.901957
21000	15.731943	-4.477328	-15.065814	0.815700	-1.340046	1.511755	0.822455	0.405631	0.398787	-0.361046	0.914000	-0.185067	-0.439560	0.008229	0.898175
21001	26.238472	10.026317	-23.324707	2.781063	-2.346612	1.042081	0.808194	0.414867	0.417980	-0.381812	0.909491	-0.164455	-0.448376	-0.026678	0.893447
21002	23.851649	3.740240	-19.715763	2.589028	-3.995545	2.511448	0.779859	0.435666	0.449461	-0.413606	0.897608	-0.152412	-0.469841	-0.067040	0.880202
21003	44.892513	-2.685891	24.518032	2.923320	-3.827412	0.822771	0.758072	0.439607	0.481740	-0.433860	0.891443	-0.130749	-0.486922	-0.109890	0.866505
21004	50.316238	80.490366	43.875317	0.692151	2.776345	-0.928892	0.775271	0.434252	0.458672	-0.429983	0.894778	-0.120361	-0.462677	-0.103909	0.880416
21005	-52.049616	-9.776137	-7.888280	-1.870760	3.748991	0.950850	0.788127	0.446010	0.424183	-0.428943	0.892232	-0.141172	-0.441434	-0.070689	0.894505
21006	22.806443	-16.834626	26.357086	-0.515138	-6.503662	-0.088357	0.758080	0.439810	0.481541	-0.425808	0.893066	-0.145330	-0.493966	-0.094872	0.864290
21007	14.019560	-14.339629	-14.454680	-0.009921	2.022135	-0.342525	0.769370	0.438552	0.464480	-0.423110	0.894593	-0.143812	-0.478590	-0.085881	0.873828
21008	-7.348721	15.927506	29.065669	-0.303866	-0.456189	-0.174151	0.767914	0.436578	0.468731	-0.420267	0.895630	-0.145677	-0.483409	-0.085125	0.871246
21009	18.642089	-10.445648	-3.282331	-0.494202	-1.809195	0.286161	0.757823	0.437545	0.484002	-0.419989	0.894822	-0.151338	-0.499313	-0.088588	0.861881
21010	2.197319	1.140881	12.478629	0.091688	1.692924	-0.142885	0.766767	0.437684	0.469575	-0.419309	0.895385	-0.149888	-0.486054	-0.081968	0.870077
21011	5.338305	-1.783454	8.407620	-0.191947	-0.871443	0.089380	0.762123	0.437740	0.477025	-0.419020	0.895165	-0.151994	-0.493550	-0.084045	0.865647
21012	5.595858	-2.545265	8.458044	-0.110321	0.338547	0.026250	0.763683	0.438229	0.474071	-0.418634	0.895157	-0.153100	-0.491460	-0.081543	0.867074
21013	4.561100	-1.429240	9.232784	-0.100988	-0.137966	0.043121	0.762822	0.438482	0.475223	-0.418434	0.895062	-0.154197	-0.492967	-0.081225	0.866248
21014	4.334753	-1.760111	9.137644	-0.117207	0.026334	0.039148	0.762791	0.438828	0.474953	-0.418112	0.895001	-0.155424	-0.493287	-0.080028	0.866177
21015	4.859961	-0.903262	9.066324	-0.128181	-0.128776	0.046070	0.761961	0.439116	0.476018	-0.417797	0.894913	-0.156770	-0.494835	-0.079427	0.865349
21016	4.771881	-1.133189	8.948495	-0.120692	-0.056251	0.054806	0.761456	0.439536	0.476437	-0.417574	0.894783	-0.158100	-0.495799	-0.078561	0.864877
21017	4.956632	-1.540404	8.704236	-0.062689	-0.084845	0.052223	0.760815	0.439915	0.477111	-0.417628	0.894614	-0.158908	-0.496736	-0.078355	0.864357
21018	4.847178	-2.471260	8.772556	-0.027143	-0.034635	0.026439	0.760536	0.440099	0.477387	-0.417652	0.894535	-0.159294	-0.497144	-0.078232	0.864134
21019	4.995024	-2.761312	8.629120	0.009645	-0.064685	-0.014432	0.760273	0.439898	0.477991	-0.417557	0.894603	-0.159159	-0.497626	-0.078584	0.863825
21020	4.580787	-2.213935	9.057024	-0.010498	-0.066331	-0.041408	0.760119	0.439449	0.478648	-0.417147	0.894809	-0.159077	-0.498205	-0.078750	0.863476
21021	4.876433	-2.447166	8.758568	-0.012755	-0.127352	-0.055407	0.759713	0.438831	0.479858	-0.416629	0.895075	-0.158939	-0.499256	-0.079175	0.862829
21022	5.128409	-1.891356	8.659403	-0.001511	-0.096200	-0.062730	0.759496	0.438167	0.480806	-0.416102	0.895366	-0.158676	-0.500024	-0.079551	0.862350
21023	5.192837	-1.376823	8.866439	0.015938	-0.069744	-0.054707	0.759373	0.437600	0.481517	-0.415732	0.895606	-0.158293	-0.500518	-0.079979	0.862024
21024	4.996359	-1.248980	8.993753	0.000628	-0.042069	-0.037056	0.759320	0.437208	0.481957	-0.415411	0.895783	-0.158134	-0.500866	-0.080136	0.861807
21025	4.961524	-1.278011	9.045295	-0.017727	-0.054312	-0.019329	0.759126	0.436970	0.482478	-0.415142	0.895894	-0.158211	-0.501383	-0.080195	0.861501
21026	4.943142	-1.604982	8.923823	-0.033411	-0.052081	-0.006040	0.758893	0.436848	0.482954	-0.414886	0.895963	-0.158495	-0.501947	-0.080090	0.861182
21027	4.842513	-1.684579	8.834333	-0.044907	-0.060101	-0.007982	0.758623	0.436706	0.483507	-0.414566	0.896046	-0.158860	-0.502620	-0.079931	0.860804
21028	4.826532	-1.762560	8.805654	-0.057023	-0.091169	-0.007266	0.758197	0.436543	0.484322	-0.414181	0.896139	-0.159341	-0.503579	-0.079785	0.860258
21029	4.976112	-1.492493	8.888516	-0.052517	-0.100247	-0.005221	0.757712	0.436394	0.485215	-0.413843	0.896216	-0.159784	-0.504586	-0.079732	0.859672
21030	4.882662	-1.720307	8.894574	-0.066838	-0.107627	0.005392	0.757149	0.436331	0.486149	-0.413503	0.896261	-0.160410	-0.505709	-0.079570	0.859027
21031	4.967721	-1.876471	8.782763	-0.063846	-0.112965	-0.002520	0.756586	0.436196	0.487146	-0.413126	0.896336	-0.160963	-0.506858	-0.079471	0.858359
21032	5.121360	-1.756283	8.751010	-0.056678	-0.111054	-0.008385	0.756060	0.436007	0.488131	-0.412732	0.896433	-0.161433	-0.507962	-0.079414	0.857711
21033	5.121166	-1.674901	8.763629	-0.049181	-0.088298	-0.009824	0.755650	0.435826	0.488927	-0.412374	0.896527	-0.161824	-0.508863	-0.079338	0.857184
21034	4.994121	-1.727132	8.788145	-0.044146	-0.087064	-0.011505	0.755257	0.435628	0.489710	-0.412019	0.896628	-0.162170	-0.509733	-0.079289	0.856671
21035	4.732411	-1.881740	8.835008	-0.045210	-0.086895	-0.020424	0.754896	0.435354	0.490510	-0.411600	0.896765	-0.162475	-0.510606	-0.079242	0.856155
21036	4.795812	-1.857382	8.794277	-0.048920	-0.132633	-0.035216	0.754365	0.434907	0.491721	-0.411041	0.896973	-0.162745	-0.511839	-0.079348	0.855409
21037	5.115060	-1.744945	8.762779	-0.043130	-0.132759	-0.042948	0.753860	0.434394	0.492948	-0.410461	0.897206	-0.162919	-0.513047	-0.079518	0.854669
21038	4.970850	-1.726395	8.841743	-0.045853	-0.119468	-0.047869	0.753445	0.433843	0.494065	-0.409821	0.897466	-0.163099	-0.514166	-0.079592	0.853990
21039	5.282883	-1.730539	8.706425	-0.043493	-0.145533	-0.043890	0.752874	0.433311	0.495402	-0.409232	0.897704	-0.163270	-0.515471	-0.079812	0.853182
21040	5.352007	-1.405272	8.734513	-0.030780	-0.104111	-0.048355	0.752537	0.432767	0.496387	-0.408666	0.897953	-0.163317	-0.516411	-0.079954	0.852600
21041	5.307315	-1.163481	8.803310	-0.036319	-0.093592	-0.027918	0.752166	0.432419	0.497253	-0.408233	0.898116	-0.163505	-0.517293	-0.080012	0.852060
21042	5.173581	-1.257556	8.889099	-0.050537	-0.066129	-0.003434	0.751840	0.432310	0.497840	-0.407902	0.898186	-0.163943	-0.518027	-0.079811	0.851633
21043	5.177283	-1.350876	8.812642	-0.051449	-0.062411	0.009651	0.751475	0.432324	0.498378	-0.407674	0.898198	-0.164445	-0.518736	-0.079599	0.851221
21044	4.947994	-1.736838	8.834819	-0.067958	-0.093818	0.015413	0.750928	0.432362	0.499170	-0.407393	0.898201	-0.165124	-0.519748	-0.079362	0.850625
21045	4.893011	-2.044086	8.770317	-0.070615	-0.096798	0.008210	0.750389	0.432336	0.500002	-0.407053	0.898234	-0.165782	-0.520792	-0.079126	0.850009
21046	4.971074	-2.079590	8.739220	-0.070705	-0.146868	-0.011336	0.749672	0.432092	0.501287	-0.406555	0.898354	-0.166350	-0.522212	-0.079093	0.849140
21047	5.040165	-2.063159	8.661455	-0.068475	-0.147426	-0.026025	0.749005	0.431719	0.502604	-0.405967	0.898534	-0.166817	-0.523624	-0.079094	0.848270
21048	5.007823	-2.052111	8.627893	-0.053069	-0.165860	-0.041708	0.748307	0.431187	0.504098	-0.405333	0.898771	-0.167080	-0.525112	-0.079300	0.847331
21049	4.788906	-2.022430	8.767965	-0.052398	-0.161437	-0.053553	0.747673	0.430554	0.505577	-0.404621	0.899056	-0.167270	-0.526561	-0.079504	0.846411
21050	4.981530	-1.922786	8.826169	-0.040763	-0.218687	-0.074819	0.746824	0.429681	0.507570	-0.403804	0.899426	-0.167260	-0.528390	-0.080045	0.845220
21051	4.863038	-2.136386	8.980130	-0.048620	-0.213682	-0.082525	0.746024	0.428744	0.509535	-0.402894	0.899832	-0.167267	-0.530211	-0.080504	0.844035
21052	4.545053	-2.350002	9.133548	-0.037921	-0.287200	-0.126685	0.745010	0.427345	0.512187	-0.401704	0.900420	-0.166963	-0.532535	-0.081359	0.842489
21053	4.711322	-2.513135	9.052494	-0.087577	-0.304355	-0.240722	0.744349	0.424904	0.515172	-0.399407	0.901531	-0.166480	-0.535181	-0.081844	0.840763
21054	3.160902	-1.752293	9.939384	-0.003177	-0.523659	-0.235527	0.742476	0.422319	0.519976	-0.397595	0.902547	-0.165311	-0.539117	-0.084001	0.838032
21055	5.710904	-1.349054	8.907333	-0.089769	-0.623209	-0.229592	0.740011	0.419692	0.525587	-0.395369	0.903603	-0.164878	-0.544120	-0.085790	0.834610
21056	4.261588	-1.110786	9.693877	-0.042289	-0.759724	-0.207975	0.736677	0.417124	0.532273	-0.393558	0.904525	-0.164152	-0.549926	-0.088553	0.830506
21057	5.125810	-1.019873	9.006657	-0.081315	-0.786675	-0.177827	0.733025	0.414783	0.539100	-0.391763	0.905352	-0.163888	-0.556053	-0.091065	0.826143
21058	5.285378	-0.738087	8.936540	-0.073073	-0.912075	-0.112533	0.728364	0.412893	0.546814	-0.390487	0.905901	-0.163901	-0.563033	-0.094145	0.821055
21059	5.131995	-1.147390	8.927532	-0.088346	-0.928988	-0.066019	0.723357	0.411381	0.554545	-0.389469	0.906271	-0.164274	-0.570147	-0.097149	0.815778
21060	5.312538	-1.593174	8.601195	-0.058059	-1.054083	-0.040186	0.717464	0.409946	0.563196	-0.388801	0.906509	-0.164542	-0.577996	-0.100918	0.809776
21061	5.212859	-2.044221	8.577458	-0.030494	-1.124251	-0.043027	0.711087	0.408372	0.572353	-0.388278	0.906731	-0.164556	-0.586170	-0.105218	0.803327
21062	5.210762	-2.319760	8.664944	0.034844	-1.259582	-0.080979	0.703963	0.406252	0.582576	-0.387865	0.907039	-0.163829	-0.594976	-0.110631	0.796093
21063	5.071657	-2.647315	8.846693	0.115258	-1.402818	-0.135371	0.696076	0.403398	0.593926	-0.387569	0.907471	-0.162132	-0.604374	-0.117331	0.788014
21064	5.014061	-2.324949	8.902266	0.213905	-1.619022	-0.199481	0.686981	0.399593	0.606946	-0.387448	0.908028	-0.159277	-0.614770	-0.125740	0.778619
21065	4.783409	-2.234011	9.278900	0.223227	-1.852137	-0.279281	0.676568	0.394613	0.621721	-0.386888	0.908862	-0.155846	-0.626557	-0.135096	0.767577
21066	4.325154	-2.194879	9.851976	0.162837	-2.214166	-0.396651	0.664068	0.387874	0.639193	-0.385214	0.910203	-0.152123	-0.640799	-0.145206	0.753851
21067	4.010161	-2.840243	9.209467	0.182720	-2.633681	-0.570680	0.649166	0.378667	0.659693	-0.382609	0.912131	-0.147063	-0.657415	-0.156936	0.737005
21068	4.037993	-2.797879	9.196738	0.256730	-3.037921	-0.785815	0.631904	0.366486	0.682924	-0.379240	0.914656	-0.139935	-0.675924	-0.170567	0.716961
21069	4.837616	-2.833492	9.128459	0.361417	-3.393781	-1.014673	0.612461	0.351108	0.708248	-0.375359	0.917670	-0.130334	-0.695699	-0.186022	0.693829
21070	5.911808	-3.425528	9.306851	0.468586	-3.677428	-1.247556	0.591154	0.332457	0.734853	-0.371110	0.921041	-0.118151	-0.716110	-0.202866	0.667856
21071	7.142968	-3.590582	9.571857	0.593394	-3.822650	-1.460798	0.568792	0.310851	0.761478	-0.366896	0.924504	-0.103345	-0.736114	-0.220601	0.639900
21072	9.249387	-3.584009	10.288984	0.654750	-3.911971	-1.646723	0.545615	0.286589	0.787509	-0.362555	0.927939	-0.086503	-0.755551	-0.238318	0.610202
21073	9.558383	-3.263329	10.427371	0.786824	-3.839863	-1.773636	0.522668	0.260578	0.811737	-0.359041	0.930868	-0.067638	-0.773245	-0.256095	0.580093
21074	9.528171	-2.560175	10.453366	0.686654	-3.939541	-1.825810	0.498369	0.233118	0.835036	-0.355041	0.933580	-0.048731	-0.790932	-0.272186	0.548033
21075	8.927679	-3.304515	10.323720	0.564509	-4.063295	-1.949204	0.472748	0.203513	0.857375	-0.350034	0.936281	-0.029238	-0.808694	-0.286288	0.513861
21076	9.566689	-2.973332	9.968787	0.523938	-4.250305	-2.098635	0.445279	0.171361	0.878841	-0.344634	0.938699	-0.008418	-0.826410	-0.299131	0.477040
21077	11.766422	-2.927186	10.767481	0.388834	-4.327798	-2.194839	0.416641	0.137531	0.898608	-0.338359	0.940929	0.012872	-0.843756	-0.309415	0.438564
21078	13.311418	-2.630299	11.834847	0.236538	-4.135662	-2.215173	0.388825	0.103684	0.915459	-0.331403	0.942878	0.033968	-0.859644	-0.316593	0.400976
21079	11.051548	-4.773225	11.193391	0.132321	-3.995272	-2.246310	0.361560	0.069714	0.929739	-0.324053	0.944427	0.055203	-0.874222	-0.321244	0.364059
21080	7.179049	-7.146969	9.380523	0.309754	-3.828043	-2.339891	0.335367	0.035185	0.941430	-0.318577	0.944667	0.078181	-0.886588	-0.326137	0.328019
21081	5.233883	-7.036794	6.903103	0.910070	-3.792829	-2.603418	0.309863	-0.001944	0.950779	-0.318213	0.942116	0.105634	-0.895950	-0.335282	0.291308
21082	-2.008880	-5.324866	5.031570	1.807856	-3.746870	-3.044044	0.285976	-0.043422	0.957252	-0.325344	0.935232	0.139619	-0.901315	-0.351364	0.253327
21083	9.773534	2.388778	18.955933	2.307305	-3.914764	-3.118455	0.260978	-0.086573	0.961455	-0.337566	0.924908	0.174912	-0.904400	-0.370202	0.212157
21084	26.488624	4.663370	27.221556	0.244322	-0.531844	-2.078671	0.263144	-0.107774	0.958718	-0.334281	0.921995	0.195398	-0.904992	-0.371899	0.206591
21085	8.326393	-1.605193	20.778914	-0.842830	1.425784	-1.249468	0.280177	-0.114057	0.953148	-0.323165	0.923753	0.205533	-0.903916	-0.365610	0.221955
21086	0.277199	-4.235356	12.739152	-1.392750	2.616331	-0.580814	0.305615	-0.110031	0.945776	-0.308849	0.928138	0.207779	-0.900673	-0.355602	0.249670
21087	-2.290640	-4.085145	8.499583	-1.299629	2.793031	-0.225989	0.331428	-0.102336	0.937914	-0.296341	0.932499	0.206463	-0.895733	-0.346370	0.278730
21088	-3.227421	-3.652912	6.088446	-1.104499	2.641952	-0.005097	0.355025	-0.093366	0.930183	-0.286413	0.936290	0.203295	-0.889902	-0.338591	0.305665
21089	-2.097173	-2.844653	5.774894	-0.853843	2.469573	0.087913	0.376717	-0.084260	0.922488	-0.279042	0.939275	0.199746	-0.883300	-0.332661	0.330329
21090	0.170411	-1.734355	6.753382	-0.679117	2.401606	0.134566	0.397464	-0.075090	0.914540	-0.273540	0.941638	0.196197	-0.875898	-0.328145	0.353728
21091	2.756838	-0.115454	7.906102	-0.676609	2.531082	0.157176	0.419151	-0.065370	0.905560	-0.268156	0.943995	0.192265	-0.867413	-0.323419	0.378147
21092	4.246876	0.722599	8.672118	-0.886403	2.812278	0.195634	0.442885	-0.054550	0.894917	-0.261303	0.946962	0.187039	-0.857656	-0.316682	0.405141
21093	5.033271	0.688356	8.522693	-1.128969	3.158661	0.237493	0.469240	-0.042452	0.882050	-0.252636	0.950642	0.180153	-0.846161	-0.307372	0.435354
21094	4.977611	0.028533	7.804116	-1.297575	3.432356	0.271238	0.497378	-0.029539	0.867031	-0.243002	0.954668	0.171925	-0.832805	-0.296202	0.467653
21095	5.151867	-0.621265	7.017499	-1.356159	3.579043	0.337665	0.526171	-0.015943	0.850229	-0.233402	0.958719	0.162421	-0.817721	-0.283906	0.500729
21096	5.177866	-1.137886	6.360785	-1.325973	3.611246	0.440577	0.554391	-0.001713	0.832255	-0.224997	0.962453	0.151858	-0.801266	-0.271444	0.533190
21097	5.358583	-1.240554	5.903447	-1.266461	3.559981	0.602470	0.581333	0.013515	0.813553	-0.218242	0.965814	0.139903	-0.783851	-0.258882	0.564409
21098	5.933035	-1.122322	6.053373	-1.211776	3.465716	0.798078	0.606461	0.029961	0.794548	-0.213541	0.968714	0.126463	-0.765901	-0.246364	0.593886
21099	6.984832	-0.902825	6.428295	-1.199623	3.395562	1.001577	0.630094	0.047793	0.775047	-0.210518	0.971239	0.111255	-0.747438	-0.233263	0.622033
21100	7.960361	-1.219438	6.556511	-1.212664	3.386938	1.200146	0.652562	0.067101	0.754758	-0.209217	0.973306	0.094358	-0.728279	-0.219483	0.649182
21101	8.175814	-1.850421	6.800731	-1.162157	3.398146	1.403723	0.674089	0.087961	0.733394	-0.210045	0.974721	0.076155	-0.708156	-0.205381	0.675525
21102	8.059117	-2.291622	6.878695	-1.056703	3.375566	1.602388	0.694245	0.110259	0.711243	-0.213586	0.975243	0.057297	-0.687317	-0.191690	0.700607
21103	8.359010	-2.315597	7.015872	-0.933393	3.301184	1.802279	0.712742	0.133905	0.688526	-0.219815	0.974803	0.037966	-0.666093	-0.178408	0.724217
21104	9.343724	-1.819025	7.257441	-0.866543	3.206291	2.045297	0.729169	0.159310	0.665532	-0.228833	0.973304	0.017731	-0.644940	-0.165224	0.746159
21105	10.701692	-1.111214	7.525718	-0.870507	3.108297	2.333808	0.743480	0.186873	0.642118	-0.240364	0.970674	-0.004184	-0.624069	-0.151231	0.766594
21106	12.532068	-0.780991	7.684454	-0.889713	3.079483	2.664294	0.755779	0.217084	0.617797	-0.254831	0.966583	-0.027895	-0.603207	-0.136352	0.785843
21107	14.472005	-0.656683	7.427664	-0.810942	3.139053	2.982534	0.766570	0.249823	0.591573	-0.272609	0.960694	-0.052452	-0.581424	-0.121060	0.804544
21108	15.236590	-0.366655	6.719852	-0.604534	3.189134	3.236627	0.775578	0.284398	0.563557	-0.294077	0.952748	-0.076088	-0.558568	-0.106717	0.822565
21109	15.882199	0.585921	6.021213	-0.304869	3.137290	3.393760	0.782395	0.319673	0.534479	-0.318737	0.942833	-0.097327	-0.535037	-0.094210	0.839559
21110	16.783658	2.483900	5.338486	-0.018512	2.978146	3.407905	0.786668	0.354240	0.505635	-0.345336	0.931377	-0.115234	-0.511758	-0.083964	0.855017
21111	18.162530	6.438040	4.244819	0.089458	2.737227	3.229632	0.788863	0.386250	0.478023	-0.371128	0.919378	-0.130414	-0.489856	-0.074529	0.868612
21112	19.749734	9.815181	1.636684	-0.247732	2.573643	2.805095	0.790520	0.413618	0.451661	-0.392050	0.908341	-0.145647	-0.470505	-0.061937	0.880221
21113	19.658796	10.045594	-1.193205	-0.732713	2.390238	2.106244	0.793225	0.433895	0.427234	-0.405257	0.899835	-0.161442	-0.454489	-0.045080	0.889611
21114	19.017116	8.204630	-3.751645	-0.952754	2.008759	1.221391	0.797255	0.445561	0.407259	-0.410656	0.894824	-0.175075	-0.442432	-0.027664	0.896375
21115	15.228762	3.683573	-6.521150	-0.919053	0.926588	0.632836	0.798769	0.451374	0.397780	-0.411590	0.892205	-0.185915	-0.438818	-0.015219	0.898447
21116	16.896731	-3.425276	-26.801745	1.620391	-3.107853	0.275362	0.783710	0.452889	0.425077	-0.420984	0.890496	-0.172596	-0.456696	-0.043685	0.888549
21117	20.987550	10.849364	-13.703282	1.761559	-2.992235	0.883806	0.766041	0.458960	0.450040	-0.435956	0.885460	-0.160943	-0.472359	-0.072909	0.878386
21118	39.670386	-8.667430	28.997084	1.942416	-3.964247	0.000991	0.746887	0.455353	0.484575	-0.445307	0.883713	-0.144060	-0.493823	-0.108188	0.862806
21119	48.197006	59.000682	35.558253	1.965199	1.561355	-1.066881	0.759200	0.447654	0.472463	-0.446728	0.886322	-0.121936	-0.473339	-0.118488	0.872875
21120	-48.373946	-14.983618	-5.792380	-3.004901	3.286317	1.187376	0.769294	0.461351	0.441974	-0.441713	0.883877	-0.153789	-0.461602	-0.076916	0.883746
21121	34.823627	-20.241244	25.512591	-0.063213	-7.974037	-0.295113	0.731373	0.451148	0.511429	-0.439151	0.885300	-0.152941	-0.521767	-0.112737	0.845606
21122	12.623367	2.766718	-8.646766	0.740797	4.287954	-1.027893	0.757494	0.446563	0.476218	-0.435191	0.889143	-0.141541	-0.486633	-0.100029	0.867861
21123	-7.921615	7.492107	19.945015	-0.885990	-0.558211	0.456481	0.752765	0.450054	0.480413	-0.434257	0.887972	-0.151414	-0.494738	-0.094644	0.863873
21124	13.489781	-6.193701	3.275019	0.181178	-0.820966	-0.008026	0.748720	0.449158	0.487520	-0.435056	0.887848	-0.149838	-0.500145	-0.099911	0.860159
21125	1.000610	-1.251460	11.311967	-0.253773	0.518262	0.044682	0.751107	0.450037	0.483017	-0.434093	0.887909	-0.152256	-0.497395	-0.095313	0.862272
21126	9.078398	-2.591432	6.208875	-0.030233	-0.514943	0.029579	0.748410	0.449778	0.487423	-0.434121	0.887821	-0.152685	-0.501419	-0.097330	0.859713
21127	3.772462	-1.216736	9.881785	-0.056237	0.353614	0.013018	0.750119	0.450211	0.484388	-0.433904	0.887830	-0.153248	-0.499048	-0.095224	0.861327
21128	5.713769	-1.541745	8.509002	-0.033232	-0.102672	0.025130	0.749501	0.450311	0.485252	-0.433884	0.887765	-0.153680	-0.499993	-0.095359	0.860763
21129	4.183314	-0.947552	9.409470	-0.073990	0.067122	0.036599	0.749674	0.450676	0.484645	-0.433755	0.887684	-0.154510	-0.499845	-0.094385	0.860957
21130	4.701234	-1.045358	9.056542	-0.101402	-0.035826	0.053941	0.749264	0.451095	0.484888	-0.433610	0.887553	-0.155669	-0.500585	-0.093614	0.860611
21131	4.638647	-1.617192	9.054776	-0.098468	-0.089940	0.060579	0.748548	0.451525	0.485593	-0.433537	0.887385	-0.156825	-0.501719	-0.093132	0.860003
21132	5.135497	-2.300371	8.636227	-0.054956	-0.082533	0.042509	0.747953	0.451800	0.486254	-0.433537	0.887260	-0.157529	-0.502606	-0.092985	0.859501
21133	5.329195	-2.288794	8.559394	-0.018837	-0.049122	0.013801	0.747643	0.451853	0.486681	-0.433512	0.887229	-0.157773	-0.503088	-0.093024	0.859214
21134	5.148603	-2.330173	8.653338	0.011767	-0.024966	-0.018797	0.747602	0.451637	0.486944	-0.433388	0.887319	-0.157605	-0.503255	-0.093209	0.859096
21135	5.088438	-1.981532	8.805783	0.028043	-0.012562	-0.038338	0.747702	0.451262	0.487139	-0.433208	0.887480	-0.157193	-0.503261	-0.093499	0.859061
21136	5.044859	-1.792540	8.833544	0.028413	-0.027815	-0.041782	0.747747	0.450839	0.487462	-0.432996	0.887658	-0.156770	-0.503378	-0.093845	0.858955
21137	4.961136	-1.559786	8.865690	0.018765	-0.012797	-0.037554	0.747842	0.450470	0.487657	-0.432776	0.887824	-0.156442	-0.503426	-0.094053	0.858904
21138	4.904543	-1.388404	8.930245	-0.000839	-0.030322	-0.022646	0.747791	0.450215	0.487971	-0.432560	0.887943	-0.156363	-0.503688	-0.094150	0.858740
21139	4.910337	-1.449634	8.888031	-0.019102	-0.041174	-0.008257	0.747616	0.450079	0.488365	-0.432368	0.888012	-0.156503	-0.504112	-0.094149	0.858491
21140	5.098234	-1.482216	8.839637	-0.026132	-0.042993	-0.000059	0.747403	0.450012	0.488752	-0.432193	0.888053	-0.156751	-0.504578	-0.094079	0.858225
21141	4.987930	-1.662271	8.773703	-0.034645	-0.031635	0.011981	0.747188	0.450065	0.489031	-0.432073	0.888046	-0.157123	-0.504998	-0.093897	0.857998
21142	4.934380	-1.853577	8.786330	-0.035852	-0.044281	0.002055	0.746959	0.450016	0.489426	-0.431865	0.888086	-0.157465	-0.505515	-0.093746	0.857710
21143	5.057575	-1.747336	8.773045	-0.027951	-0.046093	-0.000576	0.746725	0.449943	0.489849	-0.431685	0.888129	-0.157718	-0.506013	-0.093689	0.857422
21144	5.142185	-1.711431	8.717309	-0.024239	-0.046972	-0.004139	0.746509	0.449837	0.490277	-0.431488	0.888187	-0.157930	-0.506500	-0.093653	0.857139
21145	5.173481	-1.646469	8.704011	-0.021960	-0.031151	-0.000419	0.746350	0.449780	0.490571	-0.431340	0.888223	-0.158132	-0.506861	-0.093581	0.856933
21146	4.994911	-1.624453	8.715206	-0.018803	-0.017856	0.003032	0.746250	0.449764	0.490738	-0.431224	0.888244	-0.158332	-0.507107	-0.093463	0.856801
21147	4.694510	-1.608666	8.874572	-0.038931	-0.038869	0.010039	0.746006	0.449793	0.491082	-0.431067	0.888249	-0.158731	-0.507599	-0.093275	0.856530
21148	4.758755	-1.685288	8.909115	-0.056355	-0.078056	0.008184	0.745578	0.449767	0.491755	-0.430799	0.888281	-0.159278	-0.508455	-0.093094	0.856042
21149	4.959421	-1.627211	8.803080	-0.068717	-0.107927	0.005694	0.745001	0.449693	0.492696	-0.430457	0.888333	-0.159909	-0.509589	-0.092952	0.855382
21150	5.141133	-1.329744	8.805160	-0.067628	-0.097709	0.006404	0.744478	0.449634	0.493540	-0.430117	0.888383	-0.160544	-0.510639	-0.092759	0.854777
21151	5.070832	-1.435253	8.812130	-0.066237	-0.084002	0.012801	0.743991	0.449645	0.494264	-0.429839	0.888401	-0.161188	-0.511582	-0.092531	0.854237
21152	5.098276	-1.584384	8.802156	-0.060541	-0.081814	0.012024	0.743524	0.449651	0.494961	-0.429575	0.888420	-0.161789	-0.512482	-0.092329	0.853720
21153	5.107272	-1.777913	8.799084	-0.063743	-0.086961	0.009678	0.743033	0.449632	0.495715	-0.429286	0.888449	-0.162396	-0.513436	-0.092138	0.853167
21154	5.061115	-1.851586	8.731621	-0.058944	-0.081124	0.003341	0.742605	0.449562	0.496419	-0.428965	0.888504	-0.162940	-0.514322	-0.091947	0.852654
21155	4.891950	-2.038864	8.799125	-0.062272	-0.093299	-0.005892	0.742147	0.449399	0.497251	-0.428565	0.888602	-0.163456	-0.515315	-0.091796	0.852070
21156	4.704755	-2.251651	8.815884	-0.059534	-0.129102	-0.027478	0.741602	0.449011	0.498414	-0.428011	0.888797	-0.163851	-0.516559	-0.091815	0.851315
21157	5.081833	-1.826103	8.754756	-0.058552	-0.180834	-0.045989	0.740860	0.448411	0.500054	-0.427332	0.889071	-0.164135	-0.518183	-0.092088	0.850297
21158	5.148029	-1.627096	8.798418	-0.051253	-0.153446	-0.054526	0.740300	0.447759	0.501466	-0.426619	0.889379	-0.164321	-0.519570	-0.092288	0.849429
21159	5.054479	-1.661430	8.804103	-0.044914	-0.171226	-0.051854	0.739627	0.447115	0.503031	-0.425966	0.889667	-0.164457	-0.521061	-0.092637	0.848477
21160	5.375760	-1.704446	8.652259	-0.037728	-0.161263	-0.056720	0.739030	0.446435	0.504510	-0.425306	0.889971	-0.164515	-0.522445	-0.092990	0.847587
21161	5.266992	-1.565865	8.694607	-0.033354	-0.142391	-0.050201	0.738496	0.445830	0.505825	-0.424725	0.890241	-0.164560	-0.523672	-0.093310	0.846794
21162	5.240489	-1.637084	8.644366	-0.036203	-0.135920	-0.045743	0.737980	0.445270	0.507069	-0.424154	0.890495	-0.164658	-0.524860	-0.093561	0.846031
21163	5.037604	-1.765169	8.626364	-0.045780	-0.137288	-0.041207	0.737431	0.444750	0.508325	-0.423574	0.890735	-0.164851	-0.526100	-0.093747	0.845240
21164	4.932003	-1.942898	8.713115	-0.050587	-0.164355	-0.048600	0.736773	0.444137	0.509811	-0.422906	0.891015	-0.165054	-0.527556	-0.093995	0.844304
21165	5.045123	-1.927777	8.725000	-0.060530	-0.187977	-0.056550	0.736016	0.443431	0.511517	-0.422133	0.891337	-0.165291	-0.529229	-0.094271	0.843226
21166	5.016532	-1.980457	8.773208	-0.047820	-0.206217	-0.073644	0.735236	0.442553	0.513394	-0.421295	0.891725	-0.165340	-0.530979	-0.094726	0.842074
21167	4.880364	-2.341325	8.766187	-0.030832	-0.240641	-0.093267	0.734346	0.441467	0.515599	-0.420409	0.892181	-0.165135	-0.532909	-0.095496	0.840766
21168	5.036482	-2.223552	8.793328	0.003077	-0.282491	-0.126974	0.733374	0.440037	0.518200	-0.419450	0.892754	-0.164476	-0.535000	-0.096737	0.839296
21169	4.916023	-1.989419	8.989950	-0.017561	-0.273928	-0.175754	0.732639	0.438175	0.520810	-0.418030	0.893557	-0.163725	-0.537114	-0.097763	0.837825
21170	4.616970	-2.125867	9.086297	-0.068682	-0.305757	-0.243620	0.732011	0.435671	0.523785	-0.415832	0.894706	-0.163051	-0.539670	-0.098452	0.836100
21171	4.073393	-1.104744	9.770515	0.013686	-0.555554	-0.216292	0.729897	0.433155	0.528798	-0.414287	0.895646	-0.161814	-0.543706	-0.100967	0.833180
21172	5.406592	-1.575525	8.942216	-0.071364	-0.518775	-0.202057	0.727903	0.430791	0.533457	-0.412381	0.896608	-0.161356	-0.547813	-0.102536	0.830294
21173	4.672828	-1.046035	9.560484	-0.046364	-0.721640	-0.187054	0.724699	0.428337	0.539759	-0.410729	0.897475	-0.160751	-0.553275	-0.105198	0.826329
21174	4.902086	-1.205228	9.245696	-0.079640	-0.753863	-0.158504	0.721158	0.426085	0.546245	-0.409096	0.898253	-0.160568	-0.559082	-0.107671	0.822092
21175	5.137616	-1.426539	9.040110	-0.079665	-0.891047	-0.132305	0.716685	0.423897	0.553781	-0.407658	0.898918	-0.160507	-0.565842	-0.110721	0.817046
21176	4.950979	-1.601339	9.068262	-0.089051	-0.984759	-0.126391	0.711593	0.421627	0.562020	-0.406203	0.899568	-0.160547	-0.573267	-0.114050	0.811393
21177	5.147137	-1.729342	8.811599	-0.076062	-1.100383	-0.123633	0.705741	0.419211	0.571132	-0.404849	0.900192	-0.160474	-0.581401	-0.117970	0.805019
21178	4.972394	-1.900086	8.973358	-0.047697	-1.239342	-0.142648	0.699058	0.416408	0.581311	-0.403522	0.900862	-0.160054	-0.590328	-0.122685	0.797785
21179	5.124898	-2.257376	8.990686	0.037134	-1.428562	-0.181536	0.691287	0.412947	0.592957	-0.402441	0.901584	-0.158704	-0.600137	-0.128920	0.789440
21180	4.964528	-2.258787	8.924869	0.162284	-1.613801	-0.219939	0.682403	0.408791	0.605984	-0.401867	0.902289	-0.156130	-0.610598	-0.136982	0.780004
21181	4.849118	-2.253714	9.278896	0.212143	-1.869383	-0.289550	0.672041	0.403499	0.620926	-0.401173	0.903181	-0.152721	-0.622431	-0.146464	0.768848
21182	4.123069	-2.179854	9.846603	0.157727	-2.203878	-0.418803	0.659845	0.396346	0.638369	-0.399331	0.904635	-0.148898	-0.636506	-0.156670	0.755192
21183	4.068916	-2.453695	8.949982	0.150146	-2.650756	-0.589286	0.645098	0.386671	0.659040	-0.396410	0.906716	-0.143963	-0.653228	-0.168380	0.738201
21184	4.107595	-1.915454	8.941159	0.218639	-3.044304	-0.762189	0.627937	0.374390	0.682296	-0.392960	0.909252	-0.137273	-0.671772	-0.181917	0.718073
21185	4.925302	-2.390273	8.770909	0.305343	-3.416500	-0.935707	0.608308	0.359361	0.707687	-0.389212	0.912125	-0.128618	-0.691719	-0.197201	0.694720
21186	5.738113	-3.073376	9.209100	0.411227	-3.656573	-1.113278	0.586952	0.341646	0.734006	-0.385397	0.915201	-0.117799	-0.712009	-0.213742	0.668848
21187	6.727880	-3.328903	9.581013	0.516300	-3.853999	-1.308553	0.564144	0.321042	0.760705	-0.381545	0.918408	-0.104642	-0.732233	-0.231210	0.640607
21188	8.727655	-3.918868	10.062021	0.603893	-3.994801	-1.512503	0.540234	0.297501	0.787173	-0.377626	0.921655	-0.089163	-0.752028	-0.249088	0.610253
21189	9.435959	-4.336283	10.417689	0.740661	-3.947893	-1.686833	0.516535	0.271707	0.812014	-0.374297	0.924566	-0.071272	-0.770125	-0.267120	0.579270
21190	9.715719	-3.560409	11.115270	0.768537	-4.130468	-1.833831	0.491181	0.243294	0.836390	-0.370996	0.927187	-0.051833	-0.788101	-0.284838	0.545678
21191	9.288557	-3.185708	10.935121	0.666154	-4.214210	-1.976979	0.464897	0.212571	0.859468	-0.366797	0.929766	-0.031553	-0.805811	-0.300582	0.510216
21192	10.078134	-3.240983	10.759054	0.624695	-4.417311	-2.093209	0.436534	0.179453	0.881609	-0.362403	0.931965	-0.010257	-0.823469	-0.315020	0.471869
21193	11.711642	-2.336468	10.838226	0.591467	-4.464909	-2.187107	0.407282	0.144673	0.901771	-0.358033	0.933633	0.011920	-0.840198	-0.327719	0.432050
21194	13.584713	-2.153792	11.759975	0.451809	-4.277669	-2.163845	0.378702	0.110194	0.918935	-0.353311	0.934906	0.033493	-0.855427	-0.337354	0.392984
21195	11.687272	-4.314670	10.383565	0.274194	-4.057522	-2.116975	0.351149	0.076551	0.933185	-0.347883	0.935974	0.054125	-0.869294	-0.343645	0.355297
21196	8.842621	-7.520286	9.001512	0.598538	-3.802271	-2.137068	0.325294	0.043305	0.944621	-0.345842	0.935192	0.076223	-0.880100	-0.351485	0.319189
21197	4.890536	-7.465113	6.742324	1.282662	-3.444676	-2.293636	0.302866	0.009558	0.952985	-0.349895	0.931235	0.101859	-0.886480	-0.364294	0.285383
21198	-4.769194	-5.296600	3.925375	2.210271	-3.444177	-2.710665	0.281929	-0.028502	0.959012	-0.361542	0.922718	0.133709	-0.888709	-0.384420	0.249836
21199	23.120638	3.863974	21.383380	2.669834	-3.629705	-2.580834	0.259237	-0.066537	0.963519	-0.378208	0.910958	0.164665	-0.888682	-0.407098	0.210989
21200	16.440039	1.732510	22.159409	0.295854	0.185685	-1.275963	0.265702	-0.077421	0.960941	-0.377440	0.908847	0.177586	-0.887097	-0.409882	0.212261
21201	6.827972	-0.228877	15.900465	-0.439737	1.080185	-0.619616	0.277641	-0.078639	0.957461	-0.371764	0.910200	0.182561	-0.885837	-0.406636	0.223473
21202	0.555414	-2.894301	10.061756	-0.922989	1.805305	-0.200640	0.294351	-0.073224	0.952888	-0.362975	0.913784	0.182343	-0.884085	-0.399547	0.242394
21203	-0.990384	-2.725850	6.809982	-0.944665	1.948217	-0.043941	0.311762	-0.065902	0.947872	-0.354396	0.917537	0.180357	-0.881594	-0.392151	0.262698
21204	-0.810888	-2.126968	5.149542	-0.806892	1.865795	-0.094641	0.328509	-0.059545	0.942622	-0.346945	0.920632	0.179068	-0.878471	-0.385863	0.281778
21205	0.843366	-0.907518	5.215438	-0.659413	1.866847	-0.248347	0.345784	-0.054665	0.936720	-0.340217	0.923064	0.179457	-0.874463	-0.380741	0.300583
21206	1.997499	0.228429	6.165594	-0.691132	1.965101	-0.382713	0.364207	-0.050805	0.929931	-0.332782	0.925491	0.180896	-0.869833	-0.375348	0.320163
21207	3.643606	0.919903	7.085161	-0.857248	2.147248	-0.435939	0.384323	-0.046849	0.922009	-0.323600	0.928512	0.182066	-0.864626	-0.368334	0.341688
21208	5.273083	1.230549	7.698424	-1.113328	2.443767	-0.445167	0.406789	-0.042135	0.912550	-0.312197	0.932378	0.182219	-0.858519	-0.359020	0.366127
21209	5.774857	1.174958	7.571488	-1.383686	2.797961	-0.424886	0.432073	-0.036218	0.901111	-0.298466	0.937143	0.180777	-0.851018	-0.347060	0.394105
21210	5.533818	1.020759	6.747207	-1.599024	3.071182	-0.376151	0.459162	-0.029340	0.887868	-0.283203	0.942472	0.177603	-0.842002	-0.332995	0.424438
21211	5.587800	0.562674	5.832136	-1.741186	3.247479	-0.286965	0.487198	-0.021488	0.873027	-0.267151	0.948104	0.172420	-0.831426	-0.317233	0.456174
21212	5.341731	-0.195603	5.004981	-1.777896	3.343473	-0.149636	0.515179	-0.012608	0.856990	-0.251674	0.953587	0.165323	-0.819299	-0.300853	0.488095
21213	5.113061	-0.983773	4.623454	-1.698295	3.347754	0.015047	0.542417	-0.002659	0.840105	-0.237828	0.958602	0.156588	-0.805743	-0.284737	0.519330
21214	5.562078	-1.426988	4.756774	-1.542772	3.286863	0.204990	0.568180	0.008394	0.822861	-0.226597	0.962886	0.146641	-0.791091	-0.269776	0.548995
21215	6.017538	-1.039439	5.237713	-1.412179	3.253046	0.423317	0.592790	0.021022	0.805082	-0.217866	0.966572	0.135179	-0.775328	-0.255533	0.577554
21216	6.562322	-0.089095	5.397370	-1.413522	3.249585	0.631355	0.616358	0.035172	0.786680	-0.210790	0.969915	0.121789	-0.758729	-0.240890	0.605229
21217	6.904429	0.251630	5.010867	-1.528904	3.287518	0.839558	0.639342	0.050973	0.767231	-0.204469	0.973146	0.105733	-0.741238	-0.224474	0.632596
21218	6.463566	-0.308437	4.630844	-1.646018	3.272603	1.043195	0.661198	0.068163	0.747109	-0.199148	0.976082	0.087194	-0.723296	-0.206438	0.658958
21219	6.154604	-1.111092	4.415426	-1.653269	3.160169	1.222656	0.681428	0.086330	0.726776	-0.195425	0.978427	0.067009	-0.705312	-0.187692	0.683598
21220	6.732595	-1.479600	4.896117	-1.574900	3.016944	1.419507	0.699670	0.105587	0.706621	-0.194209	0.979887	0.045879	-0.687564	-0.169332	0.706103
21221	7.658717	-1.708024	5.494607	-1.477154	2.918123	1.639311	0.716345	0.126319	0.686216	-0.195673	0.980380	0.023795	-0.669747	-0.151319	0.727008
21222	8.595717	-2.129351	6.254170	-1.380078	2.884050	1.901532	0.731632	0.149040	0.665208	-0.200274	0.979740	0.000760	-0.651618	-0.133780	0.746657
21223	9.490925	-2.053001	7.211511	-1.245028	2.886001	2.186020	0.745765	0.174035	0.643076	-0.208314	0.977791	-0.023041	-0.632804	-0.116778	0.765456
21224	10.551420	-0.665518	8.571837	-1.138863	2.902998	2.526290	0.758439	0.201817	0.619710	-0.220171	0.974288	-0.047832	-0.613429	-0.100165	0.783372
21225	12.749322	1.897340	9.602142	-1.125458	2.951339	2.819474	0.769897	0.231894	0.594546	-0.234820	0.969221	-0.073955	-0.593396	-0.082674	0.800654
21226	16.269310	4.959942	9.144945	-1.241682	3.082637	3.001677	0.780578	0.263112	0.566984	-0.250807	0.962706	-0.101458	-0.572533	-0.063008	0.817457
21227	18.037837	6.257259	7.008446	-1.392698	3.336412	2.966450	0.791692	0.293257	0.535933	-0.266220	0.955187	-0.129404	-0.549864	-0.040228	0.834285
21228	18.099222	6.059388	4.429530	-1.306118	3.415468	2.664498	0.802787	0.319565	0.503399	-0.280391	0.947406	-0.154278	-0.526226	-0.017296	0.850169
21229	17.859373	4.945100	2.199343	-0.973465	3.196933	2.197089	0.812990	0.340507	0.472337	-0.293053	0.940238	-0.173413	-0.503158	0.002563	0.864191
21230	18.390354	3.452681	0.170620	-0.456862	2.740242	1.644195	0.821580	0.355635	0.445566	-0.304196	0.934481	-0.184961	-0.482151	0.016421	0.875934
21231	19.252577	2.629848	-1.621763	0.038624	2.206677	1.185933	0.828385	0.366212	0.423871	-0.314094	0.930219	-0.189838	-0.463814	0.024124	0.885604
21232	16.972986	-3.407055	-5.766764	0.248980	0.610298	1.297260	0.827048	0.378077	0.415992	-0.325936	0.925460	-0.193105	-0.457993	0.024120	0.888629
21233	22.057853	-5.434298	-31.271400	3.397062	-3.888178	1.548780	0.803595	0.392378	0.447520	-0.354407	0.919538	-0.169839	-0.478153	-0.022122	0.877998
21234	27.160809	-2.559028	9.074902	2.362709	-2.512548	2.340460	0.782794	0.412802	0.465648	-0.384362	0.909230	-0.159896	-0.489386	-0.053812	0.870405
21235	62.675597	69.781107	39.139097	7.162056	-2.461451	-2.481031	0.780582	0.387916	0.490114	-0.399651	0.912640	-0.085832	-0.480594	-0.128876	0.867422
21236	-23.647128	8.790801	0.390799	-7.079315	8.110751	2.141055	0.809715	0.413938	0.415952	-0.383896	0.909752	-0.158034	-0.443829	-0.031720	0.895550
21237	-12.283831	-4.072198	25.252394	1.422501	-5.319309	-0.513969	0.787090	0.406620	0.463842	-0.386342	0.911174	-0.143185	-0.480862	-0.066502	0.874271
21238	26.801965	-25.046234	-10.103332	-1.213335	-1.803150	0.341789	0.776938	0.408542	0.479021	-0.383023	0.910579	-0.155368	-0.499661	-0.062765	0.863944
21239	-7.601738	14.976249	24.053611	0.749677	2.891359	-0.698595	0.793678	0.403891	0.454914	-0.381150	0.912977	-0.145595	-0.474131	-0.057835	0.878553
21240	12.869037	-5.149292	4.289931	-1.176718	-3.535132	0.449453	0.774640	0.405859	0.484986	-0.378862	0.911872	-0.157964	-0.506357	-0.061378	0.860137
21241	9.240845	-5.055341	4.825018	0.088969	1.675864	-0.126104	0.783486	0.405661	0.470731	-0.378290	0.912344	-0.156603	-0.492997	-0.055377	0.868267
21242	1.519024	-0.279155	11.588447	-0.070089	-0.617895	0.036483	0.780289	0.405621	0.476048	-0.378185	0.912249	-0.157408	-0.498122	-0.057210	0.865217
21243	7.601495	-4.389124	6.479870	-0.072399	0.191626	-0.028095	0.781343	0.405447	0.474464	-0.377570	0.912416	-0.157914	-0.496934	-0.055759	0.865995
21244	4.107554	-1.378496	9.699158	0.080921	-0.084082	-0.070739	0.781194	0.404728	0.475322	-0.377377	0.912671	-0.156903	-0.497315	-0.056804	0.865708
21245	5.321397	-1.788416	8.628962	0.038804	0.118976	-0.068346	0.782037	0.404147	0.474430	-0.377000	0.912938	-0.156256	-0.496276	-0.056662	0.866314
21246	4.445010	-0.703840	9.280500	0.040974	-0.023194	-0.053434	0.782125	0.403620	0.474733	-0.376742	0.913144	-0.155673	-0.496332	-0.057096	0.866253
21247	4.172237	-0.167337	9.625892	-0.054637	-0.029822	-0.020310	0.782047	0.403392	0.475055	-0.376277	0.913269	-0.156064	-0.496808	-0.056703	0.866006
21248	4.770049	-0.380967	9.277496	-0.134406	-0.129433	0.026598	0.781305	0.403536	0.476152	-0.375773	0.913251	-0.157379	-0.498354	-0.055964	0.865166
21249	5.027679	-1.560099	8.832256	-0.171187	-0.128004	0.058117	0.780442	0.403970	0.477198	-0.375337	0.913123	-0.159148	-0.500031	-0.054905	0.864265
21250	5.384705	-2.421867	8.502330	-0.129214	-0.091235	0.059442	0.779765	0.404437	0.477910	-0.375111	0.912967	-0.160573	-0.501257	-0.054060	0.863608
21251	5.163228	-2.410095	8.656864	-0.084917	-0.042268	0.028819	0.779439	0.404652	0.478260	-0.374875	0.912908	-0.161456	-0.501941	-0.053442	0.863249
21252	4.922422	-1.991493	8.849399	-0.066514	-0.036671	0.006685	0.779231	0.404667	0.478584	-0.374549	0.912930	-0.162087	-0.502505	-0.052950	0.862951
21253	4.845959	-2.021060	8.839091	-0.059346	-0.066922	0.005563	0.778868	0.404657	0.479184	-0.374259	0.912951	-0.162639	-0.503285	-0.052665	0.862514
21254	4.871666	-1.796410	8.851412	-0.057577	-0.073045	0.008465	0.778470	0.404670	0.479819	-0.373991	0.912960	-0.163201	-0.504098	-0.052401	0.862055
21255	4.844467	-1.566850	8.961822	-0.055404	-0.080394	0.019314	0.777986	0.404779	0.480512	-0.373826	0.912923	-0.163784	-0.504967	-0.052206	0.861558
21256	5.005006	-1.718479	8.859558	-0.052024	-0.087990	0.022844	0.777458	0.404916	0.481251	-0.373697	0.912871	-0.164367	-0.505875	-0.052054	0.861035
21257	5.072752	-1.672327	8.818698	-0.047463	-0.066955	0.027119	0.777011	0.405102	0.481814	-0.373632	0.912798	-0.164919	-0.506609	-0.051877	0.860614
21258	4.969627	-1.817727	8.841922	-0.038954	-0.062849	0.023182	0.776608	0.405256	0.482335	-0.373571	0.912738	-0.165391	-0.507271	-0.051743	0.860232
21259	4.981056	-1.880901	8.795698	-0.026040	-0.069994	0.009717	0.776210	0.405282	0.482953	-0.373479	0.912724	-0.165675	-0.507948	-0.051774	0.859830
21260	5.109944	-1.677315	8.703024	-0.019495	-0.055108	0.000640	0.775930	0.405234	0.483444	-0.373341	0.912745	-0.165870	-0.508478	-0.051786	0.859516
21261	5.076056	-1.574226	8.801753	-0.010233	-0.041900	0.001061	0.775706	0.405196	0.483835	-0.373261	0.912759	-0.165976	-0.508877	-0.051848	0.859276
21262	5.056987	-1.595618	8.782582	-0.016490	-0.032599	0.004275	0.775526	0.405192	0.484126	-0.373166	0.912763	-0.166163	-0.509221	-0.051796	0.859076
21263	4.964636	-1.774226	8.763387	-0.016114	-0.014192	0.004150	0.775432	0.405197	0.484274	-0.373081	0.912767	-0.166335	-0.509427	-0.051692	0.858960
21264	4.955432	-1.847180	8.790075	-0.019974	-0.024994	0.005422	0.775286	0.405207	0.484498	-0.372977	0.912769	-0.166557	-0.509725	-0.051577	0.858790
21265	5.017983	-1.899021	8.768911	-0.014502	-0.026059	-0.007932	0.775177	0.405096	0.484767	-0.372806	0.912821	-0.166656	-0.510017	-0.051536	0.858619
21266	4.937774	-1.868976	8.770021	-0.006118	-0.023069	-0.017625	0.775126	0.404897	0.485013	-0.372594	0.912909	-0.166648	-0.510248	-0.051540	0.858482
21267	4.937435	-1.760333	8.785745	0.000860	-0.033670	-0.026856	0.775048	0.404608	0.485379	-0.372354	0.913029	-0.166524	-0.510542	-0.051669	0.858299
21268	4.877350	-1.566629	8.885873	0.003551	-0.033041	-0.033518	0.775006	0.404259	0.485737	-0.372069	0.913176	-0.166355	-0.510814	-0.051801	0.858129
21269	4.934873	-1.725120	8.793759	0.015023	-0.042204	-0.032679	0.774905	0.403913	0.486185	-0.371856	0.913313	-0.166080	-0.511121	-0.052094	0.857928
21270	4.832418	-1.726948	8.867309	0.000585	-0.054432	-0.040613	0.774780	0.403488	0.486738	-0.371500	0.913490	-0.165902	-0.511570	-0.052285	0.857649
21271	4.859737	-1.977124	8.784617	-0.005343	-0.076406	-0.050193	0.774569	0.402963	0.487508	-0.371047	0.913708	-0.165717	-0.512218	-0.052530	0.857248
21272	4.622679	-2.163232	8.869649	-0.012648	-0.096969	-0.058154	0.774289	0.402354	0.488454	-0.370489	0.913962	-0.165566	-0.513044	-0.052771	0.856738
21273	4.762158	-2.252136	8.699934	-0.002361	-0.154480	-0.082305	0.773794	0.401494	0.489944	-0.369802	0.914306	-0.165197	-0.514285	-0.053354	0.855958
21274	5.129465	-1.762607	8.777951	0.013614	-0.154165	-0.100297	0.773373	0.400468	0.491447	-0.369053	0.914715	-0.164613	-0.515456	-0.054063	0.855209
21275	5.120584	-1.517788	8.729029	0.025911	-0.141543	-0.091663	0.772974	0.399526	0.492839	-0.368440	0.915080	-0.163954	-0.516491	-0.054849	0.854534
21276	5.049302	-1.598421	8.832402	0.010181	-0.132780	-0.087557	0.772612	0.398625	0.494135	-0.367772	0.915437	-0.163459	-0.517508	-0.055438	0.853880
21277	5.184488	-1.406520	8.792441	0.009939	-0.103849	-0.081734	0.772368	0.397792	0.495186	-0.367155	0.915769	-0.162984	-0.518310	-0.055927	0.853362
21278	4.917649	-1.527146	8.880932	-0.010777	-0.133428	-0.068922	0.771930	0.397060	0.496455	-0.366523	0.916063	-0.162758	-0.519408	-0.056324	0.852668
21279	5.078772	-1.474780	8.864020	-0.031217	-0.152677	-0.059672	0.771348	0.396401	0.497884	-0.365863	0.916330	-0.162741	-0.520736	-0.056628	0.851837
21280	5.266318	-1.409542	8.828971	-0.044786	-0.146631	-0.046996	0.770757	0.395861	0.499227	-0.365223	0.916554	-0.162912	-0.522059	-0.056764	0.851018
21281	5.082098	-1.682781	8.807605	-0.060003	-0.152999	-0.032562	0.770070	0.395449	0.500613	-0.364621	0.916730	-0.163272	-0.523492	-0.056803	0.850135
21282	5.104583	-1.765149	8.812553	-0.048102	-0.155319	-0.036556	0.769390	0.394999	0.502010	-0.364043	0.916915	-0.163521	-0.524892	-0.056942	0.849262
21283	5.055225	-1.847794	8.809657	-0.036941	-0.172546	-0.039114	0.768619	0.394515	0.503570	-0.363511	0.917103	-0.163650	-0.526388	-0.057268	0.848314
21284	5.016110	-2.008013	8.819917	-0.006929	-0.194507	-0.037656	0.767732	0.394031	0.505299	-0.363141	0.917269	-0.163543	-0.527936	-0.057937	0.847306
21285	4.842574	-2.247947	8.828804	0.013629	-0.227502	-0.059595	0.766739	0.393325	0.507353	-0.362718	0.917508	-0.163138	-0.529667	-0.058941	0.846155
21286	4.813071	-2.368120	8.901930	0.048994	-0.300460	-0.086469	0.765459	0.392326	0.510052	-0.362271	0.917832	-0.162308	-0.531820	-0.060537	0.844691
21287	4.915129	-1.792739	9.032078	0.038058	-0.317337	-0.140494	0.764270	0.390814	0.512987	-0.361361	0.918372	-0.161281	-0.534144	-0.062111	0.843109
21288	3.893119	-1.927581	9.521119	-0.001152	-0.341701	-0.185835	0.763112	0.388866	0.516182	-0.359891	0.919110	-0.160358	-0.536786	-0.063398	0.841333
21289	5.415466	-1.098373	9.097491	0.011052	-0.583389	-0.176975	0.760598	0.386835	0.521392	-0.358563	0.919803	-0.159360	-0.541224	-0.065743	0.838305
21290	4.395591	-1.243297	9.476194	-0.010233	-0.547407	-0.160111	0.758198	0.384970	0.526245	-0.357247	0.920441	-0.158630	-0.545446	-0.067727	0.835405
21291	5.053463	-1.182117	9.047888	-0.034009	-0.662094	-0.143570	0.755077	0.383164	0.532019	-0.355935	0.921029	-0.158166	-0.550608	-0.069937	0.831829
21292	4.987803	-1.146447	9.120183	-0.041791	-0.738188	-0.123450	0.751430	0.381476	0.538357	-0.354729	0.921544	-0.157874	-0.556345	-0.072340	0.827797
21293	4.960648	-1.162499	9.095320	-0.052330	-0.793058	-0.102319	0.747352	0.379920	0.545092	-0.353630	0.921985	-0.157762	-0.562504	-0.074857	0.823399
21294	5.197737	-1.335464	8.930376	-0.043142	-0.920607	-0.067698	0.742381	0.378566	0.552773	-0.352836	0.922289	-0.157766	-0.569541	-0.077916	0.818261
21295	5.225213	-1.762120	8.840534	-0.018383	-0.966616	-0.073286	0.737095	0.377091	0.560796	-0.352149	0.922594	-0.157517	-0.576786	-0.081379	0.812832
21296	5.217772	-2.143836	8.756339	0.028150	-1.099173	-0.095443	0.731047	0.375266	0.569864	-0.351566	0.922943	-0.156769	-0.584783	-0.085739	0.806646
21297	5.167786	-2.435119	8.759288	0.117401	-1.206814	-0.149386	0.724461	0.372789	0.579814	-0.351130	0.923412	-0.154976	-0.593181	-0.091316	0.799874
21298	5.253695	-2.239146	8.580727	0.202649	-1.358209	-0.202439	0.717053	0.369605	0.590954	-0.350836	0.923986	-0.152197	-0.602286	-0.098195	0.792218
21299	5.297953	-2.351164	8.569034	0.294685	-1.506468	-0.259292	0.708813	0.365637	0.603236	-0.350736	0.924652	-0.148335	-0.612020	-0.106434	0.783648
21300	4.877637	-2.498875	9.076194	0.365163	-1.681726	-0.356270	0.699680	0.360445	0.616869	-0.350434	0.925554	-0.143336	-0.622610	-0.115883	0.773904
21301	4.233578	-2.759798	9.463355	0.378656	-1.989784	-0.516888	0.688973	0.353216	0.632894	-0.349184	0.926955	-0.137206	-0.635127	-0.126465	0.761984
21302	3.765830	-2.865154	9.621416	0.342771	-2.440567	-0.741574	0.675861	0.343077	0.652312	-0.346280	0.929099	-0.129870	-0.650617	-0.138108	0.746742
21303	4.063732	-2.707266	9.335998	0.459300	-2.892907	-1.016046	0.660281	0.329395	0.674928	-0.342475	0.931864	-0.119748	-0.668386	-0.152079	0.728102
21304	4.336990	-2.878041	9.361920	0.569776	-3.310301	-1.263787	0.642127	0.312270	0.700114	-0.338061	0.935023	-0.106985	-0.688032	-0.167984	0.705970
21305	5.880158	-3.799004	9.791166	0.743881	-3.601648	-1.521514	0.622093	0.291616	0.726609	-0.333589	0.938318	-0.090978	-0.708321	-0.185792	0.681001
21306	7.024987	-3.864133	10.663668	0.932944	-3.825803	-1.777423	0.600491	0.267398	0.753597	-0.329378	0.941479	-0.071605	-0.728643	-0.205220	0.653425
21307	8.390437	-4.307399	10.941695	1.035881	-3.941048	-2.052496	0.578102	0.239535	0.780014	-0.324881	0.944472	-0.049255	-0.748499	-0.224937	0.623821
21308	10.140708	-3.507047	11.507555	1.137367	-4.035631	-2.226630	0.554688	0.208967	0.805390	-0.320842	0.946811	-0.024690	-0.767712	-0.244708	0.592230
21309	10.722648	-2.045995	11.074801	0.929857	-4.062688	-2.312346	0.530473	0.176740	0.829073	-0.315466	0.948937	-0.000445	-0.786816	-0.261308	0.559141
21310	11.200271	-2.512043	10.682690	0.607806	-4.126469	-2.354350	0.504934	0.143299	0.851180	-0.308068	0.951095	0.022631	-0.806310	-0.273648	0.524386
21311	11.880824	-4.383105	10.084734	0.487441	-4.170343	-2.429458	0.478305	0.108528	0.871462	-0.300040	0.952816	0.046019	-0.825349	-0.283484	0.488300
21312	13.073207	-5.513350	11.058226	0.647521	-3.921766	-2.520332	0.453088	0.073163	0.888459	-0.293649	0.953254	0.071253	-0.841714	-0.293179	0.453392
21313	12.375619	-5.668229	11.332746	0.866737	-3.559511	-2.533265	0.430291	0.038395	0.901873	-0.289746	0.952103	0.097707	-0.854925	-0.303357	0.420806
21314	7.245117	-6.911218	9.805943	1.236048	-3.314049	-2.618156	0.409358	0.003214	0.912368	-0.289336	0.948835	0.126475	-0.865280	-0.315755	0.389344
21315	3.620729	-6.628501	7.118066	1.714599	-3.128225	-2.808333	0.390363	-0.033477	0.920052	-0.292934	0.942888	0.158595	-0.872815	-0.331424	0.358262
21316	-4.360483	-4.168545	3.768639	2.604842	-3.397860	-3.292030	0.370419	-0.076027	0.925748	-0.303168	0.932170	0.197860	-0.877997	-0.353948	0.322244
21317	18.421294	4.389718	17.064546	2.880817	-3.904136	-3.227812	0.346063	-0.120160	0.930485	-0.316893	0.918510	0.236471	-0.883074	-0.376698	0.279784
21318	14.512721	2.314427	19.833799	0.646959	-1.064584	-2.128702	0.343375	-0.143723	0.928136	-0.315225	0.913262	0.258041	-0.884718	-0.381177	0.268287
21319	9.762959	-0.079153	16.846513	-0.358712	-0.003069	-1.465797	0.347944	-0.157098	0.924259	-0.306889	0.912459	0.270623	-0.885863	-0.377807	0.269273
21320	4.204605	-3.873669	12.582847	-1.100791	1.088372	-0.822076	0.360048	-0.160576	0.919011	-0.294181	0.915279	0.275177	-0.885338	-0.369433	0.282306
21321	0.771464	-5.543779	8.964199	-1.233835	1.615609	-0.378501	0.375473	-0.158124	0.913245	-0.281773	0.919225	0.275008	-0.882963	-0.360586	0.300589
21322	-0.854262	-5.387800	6.900734	-1.014154	1.728160	-0.092326	0.390949	-0.152831	0.907635	-0.272434	0.922716	0.272717	-0.879169	-0.353889	0.319098
21323	-0.525190	-3.394895	6.542765	-0.843100	1.726375	0.141119	0.405764	-0.145429	0.902333	-0.265487	0.925938	0.268619	-0.874570	-0.348554	0.337103
21324	0.640940	-1.290631	6.791450	-0.911896	1.763620	0.339120	0.420250	-0.136220	0.897126	-0.258885	0.929578	0.262419	-0.869695	-0.342534	0.355390
21325	2.035258	-0.016660	7.390774	-1.127650	1.887110	0.479141	0.435456	-0.125331	0.891443	-0.251035	0.934072	0.253951	-0.864500	-0.334368	0.375285
21326	3.192564	0.078974	8.028226	-1.360645	2.080134	0.576281	0.451951	-0.113115	0.884842	-0.241818	0.939250	0.243584	-0.858641	-0.324059	0.397142
21327	3.998488	-0.002269	8.105136	-1.494938	2.346641	0.590074	0.470691	-0.100053	0.876607	-0.231633	0.944686	0.232197	-0.851350	-0.312344	0.421480
21328	4.290596	0.547189	7.811466	-1.584797	2.615117	0.562790	0.491559	-0.086747	0.866513	-0.220868	0.950073	0.220407	-0.842370	-0.299728	0.447857
21329	4.329881	0.967743	7.164395	-1.683720	2.813110	0.536842	0.514033	-0.073361	0.854628	-0.209343	0.955479	0.207931	-0.831833	-0.285794	0.475790
21330	4.917529	0.692167	6.819449	-1.765539	2.935972	0.548112	0.537161	-0.059968	0.841345	-0.197590	0.960769	0.194632	-0.820010	-0.270790	0.504238
21331	5.163299	-0.379261	6.516718	-1.735321	3.033010	0.602595	0.560756	-0.046149	0.826694	-0.186654	0.965698	0.180518	-0.806668	-0.255532	0.532907
21332	5.250922	-0.885899	6.424400	-1.590433	3.085266	0.701389	0.584132	-0.031726	0.811038	-0.177905	0.969933	0.166073	-0.791921	-0.241296	0.560925
21333	5.589137	-0.492075	6.428399	-1.463687	3.085192	0.855158	0.606912	-0.016153	0.794605	-0.171393	0.973609	0.150700	-0.776068	-0.227651	0.588126
21334	6.191519	0.111089	6.543302	-1.436016	3.082242	1.046933	0.628801	0.000833	0.777566	-0.166785	0.976869	0.133829	-0.759468	-0.213838	0.614395
21335	6.602180	-0.134618	6.429497	-1.471842	3.082517	1.239954	0.649982	0.019351	0.759703	-0.163536	0.979816	0.114960	-0.742145	-0.198961	0.640028
21336	6.599473	-0.812206	6.503203	-1.449510	3.063683	1.428425	0.670114	0.039199	0.741223	-0.162286	0.982182	0.094775	-0.724300	-0.183800	0.664535
21337	6.832676	-1.451690	6.631763	-1.347371	3.032014	1.607161	0.689262	0.060363	0.721994	-0.163453	0.983788	0.073792	-0.705834	-0.168874	0.687953
21338	7.340524	-1.647505	6.925859	-1.221753	3.011748	1.794037	0.707261	0.082864	0.702080	-0.167423	0.984488	0.052463	-0.686842	-0.154649	0.710163
21339	7.970725	-1.915373	7.325089	-1.116564	3.008023	1.996529	0.724299	0.106974	0.681137	-0.174038	0.984267	0.030486	-0.667159	-0.140625	0.731521
21340	8.895554	-2.356346	7.831580	-1.021046	3.005167	2.228930	0.740056	0.132893	0.659285	-0.183601	0.982969	0.007957	-0.646999	-0.126934	0.751851
21341	10.432490	-2.847544	8.493392	-0.891163	3.025869	2.503521	0.754638	0.161118	0.636052	-0.196529	0.980381	-0.015170	-0.626017	-0.113555	0.771497
21342	12.125736	-2.642191	9.195474	-0.756795	3.065987	2.858927	0.767633	0.192347	0.611344	-0.213589	0.976148	-0.038933	-0.604251	-0.100690	0.790406
21343	13.448730	-1.910616	9.886431	-0.651584	3.125041	3.228564	0.779002	0.226713	0.584600	-0.234591	0.970013	-0.063578	-0.581483	-0.087615	0.808827
21344	14.564541	-0.989999	10.242287	-0.547669	3.176630	3.492065	0.788485	0.262999	0.555988	-0.258798	0.961915	-0.087996	-0.557957	-0.074505	0.826519
21345	16.654882	1.523522	9.892417	-0.508791	3.184576	3.629435	0.796081	0.299883	0.525667	-0.284684	0.952056	-0.111999	-0.534051	-0.060489	0.843286
21346	18.877703	5.049261	8.212629	-0.644858	3.207861	3.631214	0.802031	0.335910	0.493874	-0.310292	0.940859	-0.136027	-0.510358	-0.044148	0.858828
21347	19.826200	9.302608	4.626667	-1.004218	3.137965	3.387523	0.806873	0.368639	0.461585	-0.332450	0.929275	-0.161015	-0.488295	-0.023535	0.872361
21348	19.260153	10.194684	0.185915	-1.593487	2.893097	2.786100	0.811273	0.394670	0.431360	-0.347313	0.918820	-0.187466	-0.470329	0.002270	0.882488
21349	18.628713	7.538398	-3.121214	-1.723204	2.341305	1.744951	0.816063	0.410270	0.407086	-0.353451	0.911546	-0.210132	-0.457289	0.027596	0.888890
21350	18.779188	5.600736	-4.453451	-1.347034	1.645393	0.581179	0.821468	0.414925	0.391187	-0.352066	0.908658	-0.224479	-0.448597	0.046678	0.892514
21351	19.220869	6.964921	-4.285111	-0.979965	0.987741	-0.269183	0.826842	0.411929	0.382945	-0.345415	0.909253	-0.232264	-0.443870	0.059771	0.894095
21352	14.776671	-11.893262	-8.638583	-0.201987	-0.460786	-0.356720	0.826014	0.408935	0.387910	-0.341524	0.910605	-0.232722	-0.448401	0.059751	0.891833
21353	18.515902	10.200273	-10.223164	3.491208	-1.484630	-1.604881	0.824866	0.394841	0.404595	-0.343875	0.918487	-0.195272	-0.448717	0.021943	0.893405
21354	7.037570	7.916904	-4.429242	3.349556	-2.617801	0.073665	0.812734	0.395530	0.427809	-0.359630	0.918254	-0.165758	-0.458399	-0.019136	0.888540
21355	7.817435	16.719211	17.581174	2.238526	-1.795511	0.524807	0.802519	0.399729	0.442922	-0.374148	0.915441	-0.148261	-0.464733	-0.046736	0.884216
21356	34.966350	11.461130	32.823826	2.352962	-3.206700	-0.501583	0.789244	0.393062	0.471800	-0.381245	0.915941	-0.125320	-0.481400	-0.080964	0.872754
21357	21.111395	34.662519	19.230448	-1.794451	2.575867	0.282022	0.800396	0.397362	0.448853	-0.374929	0.916053	-0.142391	-0.467754	-0.054319	0.882188
21358	-28.569634	-14.285764	2.835028	-0.617768	-0.550780	0.105297	0.797410	0.398011	0.453568	-0.372818	0.915972	-0.148332	-0.474494	-0.050816	0.878791
21359	31.945779	-5.375965	12.795468	-0.526793	-4.046360	0.102969	0.777141	0.396641	0.488597	-0.371004	0.915874	-0.153400	-0.508338	-0.062058	0.858919
21360	2.911306	-0.705194	7.208679	-0.100923	3.120397	-0.311536	0.793782	0.395488	0.462060	-0.368012	0.917177	-0.152819	-0.484228	-0.048739	0.873583
21361	4.291180	-1.420134	9.586287	-0.220425	-1.948338	0.137071	0.783676	0.395711	0.478816	-0.367974	0.916761	-0.155384	-0.500447	-0.054421	0.864055
21362	7.971188	-3.837796	7.447220	-0.204507	0.842151	-0.034362	0.787994	0.395806	0.471596	-0.366643	0.917016	-0.157017	-0.494610	-0.049179	0.867723
