// General information: 
//  MT Manager version: 2022.2.0 
//  XDA version: 2022.2.0 build 7381 rev 124627 built on 2023-07-19
// Device information: 
//  DeviceId: 00B4CB9F
//  ProductCode: MTW2-3A7G6
//  Firmware Version: 4.6.0
//  Hardware Version: 2.0.0
// Device settings: 
//  Filter Profile: human(46.1)
//  Option Flags: Orientation Smoother Disabled, Position/Velocity Smoother Disabled, Continuous Zero Rotation Update Disabled, AHS Disabled, ICC Disabled
// Coordinate system: ENU
PacketCounter	Acc_X	Acc_Y	Acc_Z	Gyr_X	Gyr_Y	Gyr_Z	Mat[1][1]	Mat[2][1]	Mat[3][1]	Mat[1][2]	Mat[2][2]	Mat[3][2]	Mat[1][3]	Mat[2][3]	Mat[3][3]
39708	8.944064	1.141174	1.132020	0.273778	0.425466	-0.305841	-0.013372	0.049982	0.998661	0.227522	-0.972399	0.051715	0.973681	0.227908	0.001631
39709	8.953126	1.453205	0.331704	0.243618	0.250811	-0.343886	-0.016521	0.052708	0.998473	0.229864	-0.971662	0.055096	0.973083	0.230423	0.003937
39710	9.546405	1.598915	-0.058816	0.112061	0.131072	-0.364984	-0.018517	0.055756	0.998273	0.230848	-0.971228	0.058527	0.972814	0.231533	0.005113
39711	10.170161	1.454945	-0.085733	-0.048338	0.111057	-0.385379	-0.020407	0.059199	0.998038	0.230325	-0.971117	0.062311	0.972900	0.231145	0.006182
39712	10.760467	0.996960	-0.044528	-0.184040	0.134361	-0.407396	-0.022661	0.062805	0.997769	0.228483	-0.971286	0.066327	0.973284	0.229476	0.007660
39713	10.803993	0.235194	0.061532	-0.254754	0.185472	-0.404551	-0.025306	0.066268	0.997481	0.225929	-0.971605	0.070281	0.973815	0.227138	0.009616
39714	10.770885	-0.216607	0.266125	-0.250621	0.229974	-0.397865	-0.028336	0.069544	0.997176	0.223650	-0.971846	0.074133	0.974258	0.225119	0.011985
39715	10.834130	-0.618067	0.705996	-0.199641	0.280827	-0.387023	-0.031855	0.072633	0.996850	0.221611	-0.972018	0.077905	0.974615	0.223395	0.014867
39716	10.878623	-0.728676	1.108509	-0.128624	0.350833	-0.367092	-0.035968	0.075346	0.996509	0.220460	-0.971989	0.081449	0.974733	0.222620	0.018350
39717	10.674656	-0.568786	1.524114	-0.047528	0.429020	-0.344793	-0.040830	0.077699	0.996140	0.219888	-0.971831	0.084815	0.974670	0.222503	0.022595
39718	10.430836	-0.214019	1.677954	0.008901	0.503191	-0.319216	-0.046363	0.079564	0.995751	0.219856	-0.971567	0.087868	0.974430	0.222996	0.027552
39719	10.044572	0.246685	1.870566	0.064043	0.539211	-0.297117	-0.052191	0.081201	0.995330	0.220358	-0.971185	0.090786	0.974022	0.224067	0.032793
39720	9.959143	0.660968	2.025276	0.093333	0.549747	-0.284495	-0.057974	0.082594	0.994896	0.221431	-0.970685	0.093487	0.973451	0.225721	0.037986
39721	9.748215	0.866804	2.131722	0.115646	0.552406	-0.276949	-0.063885	0.083987	0.994417	0.222413	-0.970192	0.096229	0.972857	0.227319	0.043301
39722	9.585796	0.884193	2.015645	0.155502	0.562284	-0.284901	-0.069864	0.085365	0.993897	0.224064	-0.969531	0.099022	0.972067	0.229615	0.048608
39723	9.447353	0.757076	1.847758	0.192575	0.556694	-0.285456	-0.075835	0.086804	0.993335	0.225753	-0.968841	0.101898	0.971228	0.231976	0.053876
39724	9.411927	0.638645	1.667724	0.209065	0.525300	-0.258562	-0.081480	0.088013	0.992781	0.227805	-0.968081	0.104520	0.970292	0.234676	0.058829
39725	9.485883	0.600082	1.699273	0.230626	0.454185	-0.210033	-0.086285	0.088931	0.992293	0.229891	-0.967351	0.106686	0.969384	0.237325	0.063023
39726	9.745896	0.601991	1.631738	0.244205	0.379426	-0.135937	-0.090102	0.089211	0.991929	0.232527	-0.966569	0.108052	0.968407	0.240386	0.066346
39727	10.039543	0.674916	1.617299	0.252897	0.348980	-0.071051	-0.093565	0.089011	0.991626	0.234936	-0.965895	0.108869	0.967497	0.243155	0.069462
39728	10.173573	1.016889	1.481720	0.226269	0.348742	0.009497	-0.096807	0.087931	0.991411	0.237327	-0.965319	0.108791	0.966594	0.245820	0.072581
39729	10.109692	1.448634	1.138692	0.180723	0.330650	0.088360	-0.099709	0.086221	0.991274	0.239187	-0.964950	0.107990	0.965840	0.247867	0.075592
39730	10.018353	1.966977	0.910372	0.118690	0.274922	0.150352	-0.101935	0.084079	0.991232	0.241020	-0.964647	0.106610	0.965152	0.249774	0.078067
39731	9.913869	2.109726	0.865627	0.023990	0.186766	0.201740	-0.103168	0.081625	0.991309	0.241486	-0.964754	0.104570	0.964905	0.250176	0.079821
39732	9.704558	1.939924	0.766669	-0.132391	0.098389	0.255264	-0.103392	0.078791	0.991515	0.240755	-0.965232	0.101807	0.965063	0.249238	0.080828
39733	9.523677	1.547147	0.638131	-0.235171	0.011552	0.307300	-0.102684	0.075753	0.991825	0.238828	-0.966052	0.098511	0.965617	0.246991	0.081106
39734	9.162945	1.354707	0.547758	-0.238193	-0.036153	0.334486	-0.101456	0.072538	0.992192	0.237137	-0.966827	0.094932	0.966164	0.244917	0.080889
39735	9.382354	1.369233	0.434893	-0.151420	-0.089970	0.320536	-0.099745	0.069616	0.992575	0.236023	-0.967423	0.091570	0.966615	0.243404	0.080065
39736	9.432180	1.687328	0.267788	-0.051111	-0.097239	0.300253	-0.098017	0.066964	0.992929	0.236501	-0.967583	0.088601	0.966675	0.243513	0.079003
39737	9.324540	1.943907	0.045213	0.036797	-0.094498	0.275809	-0.096367	0.064485	0.993255	0.237152	-0.967673	0.085833	0.966681	0.243824	0.077959
39738	9.304958	1.990030	-0.140343	0.020396	-0.081362	0.263667	-0.094806	0.062183	0.993552	0.238462	-0.967572	0.083311	0.966513	0.244823	0.076904
39739	9.380721	1.628334	-0.237520	-0.058629	-0.038852	0.269160	-0.093705	0.059633	0.993812	0.238176	-0.967877	0.080534	0.966691	0.244248	0.076492
39740	9.488237	0.753644	-0.132697	-0.084436	0.032074	0.284032	-0.093249	0.056777	0.994023	0.237939	-0.968174	0.077621	0.966794	0.243755	0.076772
39741	9.619407	-0.196345	0.131185	0.022328	0.119108	0.336644	-0.093514	0.053187	0.994196	0.238496	-0.968302	0.074234	0.966631	0.244054	0.077865
39742	9.728235	-0.738199	0.308711	0.206179	0.208965	0.419074	-0.094508	0.048682	0.994333	0.241410	-0.967871	0.070332	0.965810	0.246689	0.079719
39743	9.796844	-0.849748	0.372174	0.380481	0.282960	0.496056	-0.095947	0.043140	0.994451	0.245582	-0.967150	0.065650	0.964616	0.250518	0.082201
39744	9.800011	-0.749554	0.706840	0.564666	0.337263	0.557097	-0.097661	0.036894	0.994536	0.252169	-0.965784	0.060590	0.962742	0.256708	0.085016
39745	9.566977	-1.183146	0.755361	0.657802	0.383794	0.611403	-0.099704	0.029958	0.994566	0.259126	-0.964275	0.055023	0.960684	0.263204	0.088379
39746	9.578503	-1.256973	1.080841	0.696955	0.438054	0.683580	-0.102039	0.022357	0.994529	0.267442	-0.962323	0.049073	0.958156	0.270987	0.092215
39747	9.471846	-1.360105	1.491491	0.756974	0.508355	0.742128	-0.104803	0.013791	0.994397	0.275481	-0.960373	0.042353	0.955577	0.278376	0.096850
39748	9.217838	-1.176235	1.797765	0.784129	0.573136	0.778974	-0.107854	0.004734	0.994156	0.284844	-0.957918	0.035463	0.952487	0.287004	0.101967
39749	9.059967	-0.714734	2.062005	0.829049	0.593133	0.772241	-0.111174	-0.004414	0.993791	0.293602	-0.955500	0.028601	0.949441	0.294959	0.107522
39750	9.107473	-0.281441	2.437678	0.884154	0.600068	0.730092	-0.114484	-0.013175	0.993338	0.303476	-0.952577	0.022342	0.945936	0.304012	0.113053
39751	9.094179	0.418005	2.602475	0.896143	0.609932	0.661895	-0.118116	-0.021381	0.992770	0.312736	-0.949692	0.016754	0.942468	0.312453	0.118860
39752	9.243047	1.231516	2.833570	0.825048	0.620765	0.569176	-0.121940	-0.028643	0.992124	0.322206	-0.946590	0.012273	0.938783	0.321165	0.124657
39753	9.385420	1.829345	3.020636	0.686241	0.645635	0.464946	-0.126388	-0.035161	0.991357	0.329244	-0.944207	0.008486	0.935748	0.327471	0.130913
39754	9.371246	2.058093	2.846840	0.475555	0.638119	0.374691	-0.130957	-0.040758	0.990550	0.334921	-0.942230	0.005509	0.933101	0.332477	0.137043
39755	9.336601	2.212724	2.673258	0.252849	0.590120	0.310271	-0.135326	-0.045675	0.989748	0.337720	-0.941243	0.002739	0.931468	0.334628	0.142800
39756	9.335610	2.486559	2.470242	0.045551	0.545333	0.245456	-0.139404	-0.049787	0.988983	0.339195	-0.940716	0.000455	0.930330	0.335522	0.148028
39757	9.324053	2.621143	2.328198	-0.108365	0.515238	0.159905	-0.143566	-0.053043	0.988218	0.338443	-0.940986	-0.001340	0.929971	0.334263	0.153045
39758	9.349687	2.455906	2.351555	-0.235373	0.490275	0.081738	-0.147745	-0.055446	0.987470	0.336872	-0.941547	-0.002464	0.929886	0.332287	0.157787
39759	9.470860	2.156384	2.490729	-0.358090	0.490310	0.007284	-0.152192	-0.057161	0.986697	0.333582	-0.942716	-0.003160	0.930355	0.328663	0.162542
39760	9.595319	1.833359	2.610621	-0.451832	0.505073	-0.051957	-0.157054	-0.058332	0.985866	0.329423	-0.944176	-0.003386	0.931029	0.324235	0.167503
39761	9.522273	1.774003	2.606412	-0.548020	0.525467	-0.091939	-0.162160	-0.059179	0.984988	0.324202	-0.945982	-0.003462	0.931986	0.318774	0.172587
39762	8.811070	1.643599	2.528520	-0.653540	0.497627	-0.108487	-0.167147	-0.059769	0.984119	0.317957	-0.948098	-0.003578	0.933255	0.312309	0.177476
39763	8.648930	1.623278	2.743545	-0.715640	0.456302	-0.115772	-0.171685	-0.060107	0.983317	0.311108	-0.950367	-0.003775	0.934739	0.305269	0.181863
39764	8.103305	1.632194	3.044488	-0.754961	0.428968	-0.120536	-0.176073	-0.060296	0.982529	0.303862	-0.952707	-0.004012	0.936304	0.297847	0.186067
39765	7.878168	1.355565	3.116757	-0.698000	0.386694	-0.162071	-0.180095	-0.059918	0.981823	0.297065	-0.954850	-0.003781	0.937720	0.290984	0.189763
39766	7.967073	1.195015	2.985826	-0.597564	0.298382	-0.194685	-0.183486	-0.058954	0.981253	0.291126	-0.956680	-0.003039	0.938924	0.285111	0.192700
39767	8.154617	1.106172	2.616003	-0.518252	0.197913	-0.219518	-0.185891	-0.057441	0.980890	0.285884	-0.958262	-0.001938	0.940061	0.280060	0.194554
39768	8.501033	1.220697	2.228005	-0.460592	0.119088	-0.243521	-0.187722	-0.055471	0.980655	0.281125	-0.959671	-0.000470	0.941132	0.275598	0.195746
39769	8.827659	1.233022	2.241657	-0.396087	0.085018	-0.271943	-0.189194	-0.053124	0.980502	0.276915	-0.960893	0.001371	0.942085	0.271775	0.196507
39770	9.094806	1.157438	2.366521	-0.265624	0.117331	-0.319109	-0.191203	-0.050403	0.980256	0.273843	-0.961766	0.003962	0.942577	0.269194	0.197695
39771	9.275426	0.990609	2.443175	-0.102324	0.157906	-0.348941	-0.193557	-0.047502	0.979938	0.272240	-0.962203	0.007130	0.942561	0.268158	0.199174
39772	9.185939	0.800815	2.487434	-0.001877	0.147976	-0.328984	-0.195870	-0.044759	0.979608	0.271622	-0.962348	0.010340	0.942261	0.268109	0.200653
39773	8.801003	0.825544	2.484766	0.066950	0.150353	-0.304630	-0.198028	-0.042263	0.979285	0.271686	-0.962293	0.013409	0.941792	0.268713	0.202043
39774	8.562613	0.748866	2.347496	0.120484	0.114114	-0.279092	-0.199888	-0.039909	0.979006	0.272310	-0.962070	0.016380	0.941219	0.269867	0.203174
39775	8.566645	0.749212	2.330323	0.133674	0.037533	-0.239222	-0.200807	-0.037741	0.978904	0.273121	-0.961793	0.018945	0.940788	0.271163	0.203442
39776	9.078419	0.408066	2.113998	0.112714	-0.039091	-0.167509	-0.200925	-0.036045	0.978943	0.273891	-0.961535	0.020811	0.940539	0.272306	0.203069
39777	9.549350	0.125827	1.614274	0.095969	-0.232854	-0.082985	-0.198876	-0.034644	0.979412	0.274661	-0.961295	0.021769	0.940750	0.273336	0.200693
39778	9.884914	0.306170	0.579962	0.024591	-0.473407	0.010807	-0.194416	-0.033474	0.980348	0.274960	-0.961211	0.021708	0.941594	0.273777	0.196079
39779	10.048581	0.713024	0.206401	-0.047934	-0.677226	0.059388	-0.187785	-0.032223	0.981682	0.274654	-0.961314	0.020984	0.943028	0.273563	0.189370
39780	10.714265	1.110261	1.038071	-0.061207	-0.727802	0.070330	-0.180741	-0.030926	0.983044	0.274258	-0.961445	0.020178	0.944519	0.273254	0.182254
39781	10.853576	0.853723	1.765819	-0.112977	-0.727616	0.109140	-0.173477	-0.030022	0.984380	0.273414	-0.961712	0.018853	0.946124	0.272414	0.175043
39782	10.836740	0.317757	1.664715	-0.264688	-0.703006	0.234089	-0.166197	-0.030380	0.985625	0.271362	-0.962343	0.016095	0.948020	0.270136	0.168182
39783	10.479018	-0.153715	0.938922	-0.391637	-0.688784	0.362993	-0.158593	-0.032058	0.986823	0.268265	-0.963273	0.011820	0.950201	0.266605	0.161368
39784	10.211870	-0.576848	0.390102	-0.344546	-0.767174	0.454447	-0.150094	-0.034416	0.988073	0.265747	-0.964019	0.006790	0.952287	0.263596	0.153839
39785	10.112789	-1.053834	-0.473620	-0.244548	-0.897740	0.532675	-0.140038	-0.037228	0.989446	0.264219	-0.964462	0.001108	0.954242	0.261585	0.144897
39786	10.257619	-1.389891	-1.713230	-0.179795	-1.016332	0.596651	-0.128759	-0.040345	0.990855	0.263358	-0.964685	-0.005057	0.956067	0.260299	0.134838
39787	10.678302	-1.213284	-2.447607	-0.095401	-1.090599	0.623913	-0.116594	-0.043560	0.992224	0.263240	-0.964663	-0.011418	0.957659	0.259862	0.123941
39788	11.130690	-0.719123	-2.261365	0.002060	-1.085433	0.618034	-0.104551	-0.046713	0.993422	0.263996	-0.964364	-0.017563	0.958841	0.260423	0.113157
39789	10.684699	-0.315330	-2.150145	0.070799	-1.062060	0.608470	-0.092665	-0.049840	0.994449	0.265303	-0.963877	-0.023586	0.959702	0.261644	0.102540
39790	10.388075	0.382589	-2.206938	0.122000	-1.115568	0.583399	-0.080374	-0.052543	0.995379	0.267035	-0.963242	-0.029285	0.960329	0.263447	0.091451
39791	10.210737	0.772548	-1.716711	0.134832	-1.173485	0.539131	-0.067570	-0.054664	0.996216	0.268756	-0.962587	-0.034590	0.960835	0.265402	0.079733
39792	10.111416	1.191642	-1.290845	0.107871	-1.177249	0.498531	-0.054873	-0.056327	0.996903	0.270165	-0.962004	-0.039484	0.961249	0.267162	0.068005
39793	9.566318	1.096245	-0.878602	0.017000	-1.175272	0.469521	-0.042215	-0.057730	0.997439	0.270582	-0.961681	-0.044208	0.961771	0.268023	0.056218
39794	9.127369	1.157197	-0.069058	-0.069883	-1.139441	0.454860	-0.029976	-0.059037	0.997806	0.270154	-0.961581	-0.048778	0.962350	0.268099	0.044774
39795	8.485640	0.812303	0.460157	-0.182351	-1.113548	0.452710	-0.017949	-0.060443	0.998010	0.268531	-0.961789	-0.053420	0.963104	0.267038	0.033494
39796	8.366165	0.346603	0.999952	-0.231705	-1.090341	0.467730	-0.006145	-0.062017	0.998056	0.266444	-0.962095	-0.058142	0.963831	0.265569	0.022436
39797	8.513940	0.004978	1.080593	-0.254495	-1.032554	0.490550	0.005199	-0.064036	0.997934	0.264016	-0.962450	-0.063135	0.964504	0.263799	0.011903
39798	8.774602	-0.419988	1.200151	-0.257513	-0.964777	0.497779	0.015859	-0.066267	0.997676	0.261571	-0.962778	-0.068107	0.965054	0.262043	0.002064
39799	9.243626	-0.763722	1.485952	-0.202535	-0.891189	0.514163	0.025888	-0.068920	0.997286	0.259531	-0.962950	-0.073284	0.965388	0.260724	-0.007042
39800	9.481770	-1.170232	1.847562	-0.135865	-0.812164	0.518641	0.035112	-0.071776	0.996803	0.258150	-0.962916	-0.078429	0.965467	0.260079	-0.015281
39801	9.938838	-1.495459	2.328170	-0.006709	-0.729631	0.499556	0.043531	-0.074718	0.996254	0.257910	-0.962557	-0.083460	0.965188	0.260577	-0.022631
39802	10.293383	-1.987018	2.093505	0.106222	-0.698903	0.456637	0.051487	-0.077269	0.995680	0.258799	-0.961911	-0.088031	0.964558	0.262213	-0.029529
39803	9.884138	-2.462595	1.463710	0.172880	-0.704959	0.381266	0.059360	-0.079110	0.995097	0.260275	-0.961148	-0.091937	0.963708	0.264456	-0.036464
39804	10.793878	-2.598762	1.259059	0.252482	-0.730182	0.297046	0.067195	-0.080017	0.994526	0.262585	-0.960221	-0.094999	0.962566	0.267531	-0.043511
39805	10.517249	-2.509983	0.632898	0.269835	-0.714408	0.250201	0.074815	-0.080527	0.993941	0.265023	-0.959283	-0.097668	0.961335	0.270724	-0.050427
39806	9.997189	-2.389381	0.392442	0.276926	-0.684502	0.205931	0.081961	-0.080644	0.993367	0.267574	-0.958347	-0.099879	0.960045	0.273986	-0.056969
39807	9.573699	-2.515886	0.195709	0.290016	-0.665926	0.137389	0.088807	-0.080155	0.992818	0.270258	-0.957426	-0.101472	0.958684	0.277328	-0.063363
39808	9.566555	-2.381328	-0.009339	0.343309	-0.632560	0.069334	0.095075	-0.079070	0.992325	0.273522	-0.956398	-0.102414	0.957155	0.281160	-0.069302
39809	9.817561	-2.121983	-0.281070	0.414253	-0.602950	0.021244	0.100987	-0.077594	0.991857	0.277481	-0.955196	-0.102978	0.955409	0.285621	-0.074931
39810	8.949190	-2.028072	-0.644212	0.473958	-0.575582	-0.002772	0.106493	-0.075936	0.991410	0.282036	-0.953821	-0.103352	0.953475	0.290620	-0.080159
39811	10.403049	-1.651442	-0.658787	0.582014	-0.657699	-0.036657	0.112739	-0.073684	0.990889	0.287636	-0.952128	-0.103527	0.951081	0.296687	-0.086148
39812	10.452130	-0.861788	-0.999030	0.545553	-0.648909	0.005862	0.118941	-0.071827	0.990300	0.292833	-0.950479	-0.104110	0.948737	0.302375	-0.092018
39813	9.790623	-0.277922	-1.243892	0.448248	-0.700916	0.065044	0.125863	-0.070336	0.989551	0.297018	-0.949055	-0.105236	0.946541	0.307159	-0.098560
39814	9.233868	-0.117619	-0.903867	0.306166	-0.734357	0.105824	0.133146	-0.069098	0.988685	0.299801	-0.948024	-0.106630	0.944665	0.310606	-0.105510
39815	9.105185	-0.396369	-0.687355	0.161843	-0.783584	0.121661	0.140995	-0.067836	0.987684	0.301177	-0.947425	-0.108065	0.943087	0.312704	-0.113151
39816	9.465702	-0.456388	-0.544467	-0.020815	-0.807369	0.157500	0.149101	-0.066823	0.986561	0.300781	-0.947371	-0.109627	0.941966	0.313085	-0.121155
39817	9.448365	-0.593313	-0.613449	-0.192572	-0.796619	0.186814	0.157249	-0.066132	0.985342	0.298696	-0.947838	-0.111283	0.941304	0.311817	-0.129294
39818	9.839842	-0.880933	-0.445373	-0.326485	-0.792538	0.205762	0.165340	-0.065641	0.984050	0.295323	-0.948703	-0.112903	0.940982	0.309280	-0.137474
39819	9.811309	-1.097145	-0.587438	-0.418245	-0.765063	0.205456	0.173228	-0.065266	0.982717	0.291053	-0.949844	-0.114388	0.940893	0.305838	-0.145544
39820	10.128589	-1.094253	-0.611543	-0.442817	-0.755504	0.175413	0.180861	-0.064657	0.981381	0.286606	-0.951063	-0.115479	0.940822	0.302155	-0.153479
39821	10.127557	-1.013587	-0.770007	-0.480825	-0.737530	0.145652	0.188300	-0.063858	0.980033	0.281826	-0.952402	-0.116207	0.940807	0.298081	-0.161341
39822	9.906872	-0.796719	-0.719262	-0.488382	-0.701859	0.085679	0.195158	-0.062620	0.978771	0.277095	-0.953782	-0.116272	0.940814	0.293904	-0.168787
39823	9.774868	-0.668641	-0.343993	-0.466583	-0.652421	0.019909	0.201437	-0.060935	0.977604	0.272678	-0.955121	-0.115719	0.940781	0.289882	-0.175781
39824	9.699281	-0.740721	0.017852	-0.440180	-0.570914	-0.043535	0.206702	-0.058898	0.976630	0.268654	-0.956403	-0.114538	0.940797	0.286051	-0.181867
39825	9.351163	-0.970705	-0.074837	-0.420354	-0.497442	-0.065234	0.211293	-0.056889	0.975766	0.264847	-0.957625	-0.113182	0.940857	0.282343	-0.187272
39826	8.974691	-1.499243	-0.398220	-0.382132	-0.485493	-0.045550	0.215747	-0.055116	0.974893	0.261375	-0.958712	-0.112045	0.940817	0.278986	-0.192433
39827	8.772985	-2.196368	-0.739630	-0.387336	-0.573074	0.038418	0.221322	-0.053926	0.973709	0.257659	-0.959756	-0.111718	0.940547	0.275610	-0.198521
39828	9.234758	-2.576374	-1.143371	-0.451813	-0.706552	0.142500	0.228333	-0.053396	0.972118	0.253107	-0.960907	-0.112230	0.940107	0.271675	-0.205892
39829	8.146160	-3.320653	-1.983812	-0.490418	-0.778143	0.148364	0.236102	-0.052756	0.970295	0.248164	-0.962140	-0.112698	0.939506	0.267400	-0.214071
39830	10.439071	-3.140695	-1.484524	-0.443150	-0.918852	0.114537	0.245015	-0.051470	0.968152	0.243727	-0.963251	-0.112891	0.938384	0.263625	-0.223467
39831	10.543031	-2.573344	-1.900610	-0.461832	-0.849239	0.123379	0.253362	-0.050469	0.966054	0.239098	-0.964387	-0.113089	0.937358	0.259634	-0.232272
39832	9.774428	-1.854556	-1.894146	-0.424565	-0.854691	0.066039	0.261528	-0.048969	0.963953	0.234936	-0.965445	-0.112784	0.936167	0.255963	-0.240986
39833	9.812352	-1.431510	-1.075967	-0.366064	-0.864222	-0.052746	0.269572	-0.046293	0.961867	0.231660	-0.966393	-0.111435	0.934700	0.252866	-0.249788
39834	10.559159	-1.054586	-0.238437	-0.352936	-0.839005	-0.140787	0.277085	-0.042895	0.959888	0.228727	-0.967340	-0.109253	0.933224	0.249825	-0.258224
39835	9.673969	-0.991768	0.165458	-0.392479	-0.737355	-0.204504	0.283579	-0.039119	0.958151	0.225648	-0.968390	-0.106321	0.932023	0.246355	-0.265788
39836	10.147768	-0.823984	0.854776	-0.380527	-0.751720	-0.272840	0.289962	-0.034714	0.956408	0.222860	-0.969420	-0.102753	0.930729	0.242939	-0.273359
39837	10.889616	-0.192857	1.757617	-0.434109	-0.626646	-0.273252	0.295269	-0.030588	0.954924	0.219627	-0.970548	-0.098998	0.929828	0.238959	-0.279855
39838	11.324528	0.268925	2.551332	-0.484435	-0.457229	-0.276257	0.298899	-0.026905	0.953906	0.215914	-0.971774	-0.095064	0.929538	0.234376	-0.284653
39839	11.752664	0.531324	3.164612	-0.568987	-0.223279	-0.281046	0.300455	-0.023689	0.953502	0.211472	-0.973156	-0.090814	0.930057	0.228925	-0.287380
39840	11.506684	0.965235	2.967615	-0.650719	-0.030846	-0.296687	0.300084	-0.020813	0.953686	0.206277	-0.974691	-0.086178	0.931343	0.222585	-0.288196
39841	11.352847	1.452567	2.379268	-0.751498	0.056725	-0.331602	0.298962	-0.017738	0.954100	0.200272	-0.976394	-0.080907	0.933013	0.215267	-0.288352
39842	11.005703	1.769025	1.809278	-0.868845	0.123368	-0.368110	0.297027	-0.014479	0.954759	0.193231	-0.978287	-0.074950	0.935113	0.206751	-0.287779
39843	11.080196	2.129748	1.896831	-0.995446	0.172318	-0.428458	0.294683	-0.010668	0.955536	0.185184	-0.980345	-0.068055	0.937480	0.197005	-0.286915
39844	11.859830	2.176823	2.324457	-1.199614	0.312111	-0.515489	0.290747	-0.006270	0.956779	0.175419	-0.982679	-0.059747	0.940582	0.185209	-0.284611
39845	12.525900	2.006209	2.561920	-1.418633	0.561286	-0.615044	0.284493	-0.001258	0.958677	0.163823	-0.985226	-0.049909	0.944577	0.171252	-0.280084
39846	12.809622	1.896611	2.256897	-1.493281	0.783193	-0.727406	0.275834	0.004579	0.961194	0.151725	-0.987660	-0.038835	0.949155	0.156549	-0.273125
39847	12.956877	1.806623	1.898199	-1.410833	0.922964	-0.834513	0.265912	0.011407	0.963930	0.140570	-0.989701	-0.027066	0.953693	0.142697	-0.264777
39848	13.032073	1.592333	1.393254	-1.275075	0.959617	-0.878467	0.255434	0.018754	0.966645	0.130686	-0.991306	-0.015301	0.957953	0.130235	-0.255664
39849	12.839981	1.840497	0.612240	-1.210170	0.966068	-0.919636	0.245080	0.026631	0.969137	0.121380	-0.992600	-0.003419	0.961875	0.118471	-0.246499
39850	13.131533	2.224861	0.033998	-1.190926	1.020971	-1.026014	0.233911	0.035632	0.971605	0.112380	-0.993621	0.009385	0.965741	0.106993	-0.236423
39851	12.864260	2.202574	-0.327036	-1.310677	1.291656	-1.111306	0.220294	0.045333	0.974380	0.102228	-0.994491	0.023156	0.970062	0.094507	-0.223715
39852	11.838039	-0.307311	-0.790995	-1.487627	1.519065	-1.200310	0.204227	0.055918	0.977325	0.090341	-0.995183	0.038062	0.974746	0.080519	-0.208295
39853	11.438052	-3.974044	-1.459512	-1.510229	1.614915	-1.266200	0.187460	0.067287	0.979965	0.078078	-0.995515	0.053419	0.979164	0.066500	-0.191873
39854	11.313213	-7.264713	-1.908468	-1.348224	1.645934	-1.207032	0.170293	0.078260	0.982281	0.067013	-0.995453	0.067692	0.983112	0.054298	-0.174763
39855	11.319623	-9.709785	-2.446821	-0.872589	1.704186	-0.994974	0.152955	0.087250	0.984374	0.060042	-0.995075	0.078869	0.986408	0.047041	-0.157440
39856	11.919452	-10.854614	-2.857819	-0.066532	1.820158	-0.672560	0.134441	0.092963	0.986551	0.060274	-0.994513	0.085499	0.989087	0.047969	-0.139307
39857	12.306757	-10.474698	-3.006572	0.879055	1.949539	-0.323498	0.115007	0.095091	0.988803	0.069397	-0.993745	0.087495	0.990938	0.058558	-0.120886
39858	12.218381	-8.768410	-3.339978	1.701307	1.985863	-0.031088	0.095185	0.093867	0.991024	0.086122	-0.992588	0.085744	0.991727	0.077187	-0.102563
39859	11.826148	-6.419399	-3.628241	2.234005	1.898679	0.189098	0.076621	0.090253	0.992967	0.108128	-0.990773	0.081710	0.991180	0.101107	-0.085673
39860	11.985659	-2.534166	-3.780433	2.400124	1.811658	0.307052	0.058954	0.084928	0.994641	0.131451	-0.988359	0.076600	0.989568	0.126231	-0.069432
39861	11.058687	-0.132976	-4.211954	2.263131	1.734907	0.358072	0.042396	0.078954	0.995976	0.153659	-0.985527	0.071585	0.987214	0.150006	-0.053915
39862	10.711823	2.335046	-3.702823	2.068115	1.677202	0.321583	0.026309	0.072870	0.996994	0.173688	-0.982503	0.067228	0.984449	0.171398	-0.038505
39863	10.164638	3.710540	-3.215718	1.761302	1.694105	0.236849	0.010169	0.067446	0.997671	0.190980	-0.979488	0.064270	0.981541	0.189882	-0.022842
39864	9.468386	3.453947	-4.165419	1.332682	1.527882	0.178335	-0.004528	0.062500	0.998035	0.203820	-0.977036	0.062109	0.978998	0.203701	-0.008315
39865	8.863729	0.844729	-4.079396	0.986401	1.266968	0.145231	-0.016531	0.058398	0.998157	0.213503	-0.975062	0.060583	0.976802	0.214111	0.003651
39866	10.028168	1.570793	-2.996968	1.407613	1.024678	-0.037507	-0.026667	0.056324	0.998056	0.227027	-0.971981	0.060918	0.973523	0.228211	0.013132
39867	9.855039	3.562719	-3.194260	1.209373	1.114549	-0.106081	-0.037663	0.054705	0.997792	0.238771	-0.969086	0.062144	0.970345	0.240584	0.023436
39868	9.115035	2.509868	-3.635148	0.837693	1.123325	-0.089948	-0.048818	0.052674	0.997418	0.246681	-0.967037	0.063144	0.967866	0.249127	0.034215
39869	9.030736	2.450441	-2.860463	1.030977	1.077414	-0.072792	-0.059328	0.050602	0.996955	0.256628	-0.964374	0.064220	0.964688	0.259656	0.044228
39870	8.068831	1.591429	-3.330644	0.675249	1.117006	0.018607	-0.070083	0.047354	0.996417	0.263004	-0.962653	0.064248	0.962246	0.266564	0.055011
39871	7.820541	0.922858	-2.431764	0.569032	1.022020	0.089943	-0.079582	0.043701	0.995870	0.268564	-0.961157	0.063639	0.959969	0.272520	0.064754
39872	7.681293	0.499487	-2.231461	0.533615	1.055424	0.150840	-0.089324	0.039230	0.995230	0.273683	-0.959794	0.062397	0.957663	0.277951	0.074996
39873	7.610152	0.108328	-1.890338	0.538319	1.087282	0.189007	-0.099116	0.034333	0.994483	0.279035	-0.958348	0.060896	0.955152	0.283531	0.085407
39874	7.783171	-0.318154	-1.668008	0.473160	1.132208	0.229547	-0.109294	0.028788	0.993593	0.283670	-0.957109	0.058934	0.952673	0.288294	0.096440
39875	8.200684	-0.716173	-1.083934	0.350315	1.180325	0.291422	-0.119608	0.022544	0.992565	0.287363	-0.956163	0.056345	0.950325	0.291965	0.107886
39876	8.645385	-1.113490	-0.450344	0.181192	1.232377	0.379787	-0.130228	0.015198	0.991368	0.289440	-0.955746	0.052673	0.948296	0.293801	0.120066
39877	9.143252	-1.293975	0.257398	-0.010142	1.279024	0.512341	-0.140776	0.006511	0.990020	0.290065	-0.955826	0.047532	0.946596	0.293861	0.132669
39878	8.962704	-1.266154	0.733779	-0.197937	1.338878	0.643897	-0.151589	-0.003674	0.988437	0.289009	-0.956458	0.040768	0.945248	0.291847	0.146051
39879	8.967539	-0.851856	1.144677	-0.332154	1.338652	0.734479	-0.162035	-0.014620	0.986677	0.287051	-0.957348	0.032955	0.944111	0.288566	0.159321
39880	8.929477	-0.280419	1.488594	-0.423565	1.280696	0.784767	-0.171892	-0.025913	0.984775	0.284232	-0.958445	0.024392	0.943221	0.284097	0.172114
39881	8.576996	0.270309	1.610273	-0.443484	1.166443	0.788311	-0.180576	-0.036793	0.982873	0.281468	-0.959441	0.015796	0.942427	0.279500	0.183608
39882	8.365798	0.680152	1.631833	-0.386049	0.976946	0.760758	-0.187662	-0.046912	0.981113	0.279101	-0.960233	0.007472	0.941746	0.275231	0.193292
39883	8.155829	0.972156	1.506480	-0.274371	0.731374	0.709745	-0.192487	-0.055764	0.979714	0.277895	-0.960611	-0.000078	0.941129	0.272243	0.200402
39884	7.637445	1.295361	1.231632	-0.154509	0.479978	0.630946	-0.195268	-0.063229	0.978710	0.277543	-0.960690	-0.006691	0.940660	0.270327	0.205141
39885	7.792455	1.557317	0.942159	-0.065477	0.238802	0.567503	-0.195854	-0.069360	0.978177	0.278066	-0.960482	-0.012430	0.940383	0.269563	0.207400
39886	7.908237	1.610135	0.936254	-0.041764	0.073324	0.533151	-0.195076	-0.074773	0.977934	0.278609	-0.960239	-0.017844	0.940384	0.268980	0.208152
39887	8.151844	1.526659	1.402083	-0.025145	0.011574	0.524203	-0.193638	-0.079871	0.977816	0.279420	-0.959892	-0.023073	0.940441	0.268754	0.208189
39888	8.445024	1.130617	2.175478	-0.025412	0.063972	0.498766	-0.192860	-0.084918	0.977545	0.280056	-0.959572	-0.028104	0.940412	0.268347	0.208845
39889	8.745947	0.370215	3.049483	-0.001181	0.182243	0.450028	-0.193228	-0.089759	0.977040	0.280942	-0.959172	-0.032556	0.940072	0.268201	0.210556
39890	9.469150	-0.604020	4.550765	0.072133	0.375358	0.381744	-0.195698	-0.094512	0.976099	0.282281	-0.958648	-0.036227	0.939159	0.268445	0.214284
39891	10.694140	-1.573482	6.725245	0.161203	0.706052	0.326378	-0.201314	-0.099572	0.974453	0.284470	-0.957887	-0.039110	0.937310	0.269329	0.221161
39892	11.456527	-2.753004	8.387701	0.292555	1.021632	0.309085	-0.210019	-0.105380	0.972002	0.287751	-0.956803	-0.041558	0.934394	0.270966	0.231270
39893	11.617751	-3.550485	9.250310	0.572018	1.182040	0.375409	-0.219864	-0.112230	0.969053	0.293920	-0.954822	-0.043896	0.930199	0.275173	0.242917
39894	9.882467	-3.239293	8.651170	0.930443	1.203069	0.411642	-0.229840	-0.119608	0.965851	0.303350	-0.951784	-0.045679	0.924745	0.282491	0.255041
39895	8.424752	-1.473853	7.256569	1.351991	1.056268	0.349360	-0.238406	-0.126004	0.962957	0.316655	-0.947445	-0.045577	0.918091	0.294059	0.265777
39896	7.374241	0.746111	5.851437	1.590253	0.854329	0.211217	-0.245599	-0.130675	0.960523	0.331558	-0.942434	-0.043437	0.910906	0.307801	0.274787
39897	7.033604	2.858356	4.650158	1.587175	0.686366	0.018628	-0.251679	-0.133042	0.958623	0.346037	-0.937400	-0.039247	0.903834	0.321841	0.281962
39898	7.101872	4.418133	3.752179	1.461561	0.587203	-0.204832	-0.257761	-0.133149	0.956990	0.358537	-0.932924	-0.033230	0.897224	0.334551	0.288211
39899	7.711389	5.402253	3.777620	1.425301	0.620141	-0.455177	-0.264878	-0.131054	0.955335	0.370118	-0.928654	-0.024774	0.890423	0.347024	0.294486
39900	7.067068	4.972650	3.093432	1.279945	0.692986	-0.584081	-0.273290	-0.128160	0.953356	0.379799	-0.924940	-0.015467	0.883779	0.357857	0.301452
39901	6.860203	3.551121	1.785416	0.958502	0.582562	-0.533501	-0.280383	-0.125368	0.951666	0.386799	-0.922133	-0.007518	0.878505	0.365996	0.307043
39902	7.214030	2.170343	1.185340	0.782777	0.458502	-0.486333	-0.286368	-0.122644	0.950238	0.392213	-0.919874	-0.000527	0.874164	0.372544	0.311525
39903	7.561063	0.782865	0.969892	0.628050	0.316677	-0.413039	-0.290675	-0.120063	0.949259	0.396532	-0.918006	0.005313	0.870787	0.377956	0.314450
39904	7.462435	-0.640012	0.177726	0.464065	0.087941	-0.281571	-0.292627	-0.117869	0.948934	0.399694	-0.916600	0.009403	0.868685	0.382035	0.315333
39905	6.569694	-1.825760	-3.366545	0.461603	-0.485304	-0.095186	-0.288710	-0.115156	0.950466	0.403458	-0.914923	0.011703	0.868256	0.386852	0.310608
39906	6.356102	-2.761473	-7.147627	0.226838	-1.278187	0.230214	-0.276715	-0.112348	0.954362	0.406031	-0.913803	0.010154	0.870958	0.390311	0.298480
39907	7.385813	-2.172133	-9.037001	-0.189366	-1.658078	0.570336	-0.259829	-0.111112	0.959241	0.405937	-0.913892	0.004097	0.876187	0.390456	0.282560
39908	8.001725	-1.035826	-9.186290	-0.331456	-1.762188	0.705515	-0.241499	-0.110742	0.964061	0.404756	-0.914418	-0.003647	0.881959	0.389328	0.265655
39909	8.611430	-0.087924	-7.213010	-0.396790	-1.650713	0.730904	-0.223857	-0.111040	0.968276	0.402974	-0.915136	-0.011782	0.887412	0.387552	0.249606
39910	9.783450	0.688030	-3.362970	-0.454346	-1.408728	0.667006	-0.208632	-0.111748	0.971589	0.400367	-0.916150	-0.019399	0.892289	0.384945	0.235878
39911	13.602377	1.826911	5.455914	-0.419452	-0.983920	0.561904	-0.197505	-0.113149	0.973750	0.397784	-0.917114	-0.025886	0.895969	0.382229	0.226144
39912	20.224601	-0.372105	16.611660	-0.561831	-0.165649	0.619480	-0.193551	-0.118240	0.973939	0.393965	-0.918525	-0.033220	0.898515	0.377269	0.224364
39913	20.588397	-4.703442	8.323528	-0.417609	-0.227374	0.993677	-0.187513	-0.126541	0.974077	0.392128	-0.918863	-0.043883	0.900597	0.373734	0.221920
39914	19.593259	-3.167457	-3.638498	0.255161	-1.536309	1.103645	-0.169319	-0.130948	0.976823	0.396371	-0.916492	-0.054155	0.902342	0.378015	0.207084
39915	16.960379	1.738967	-3.389653	1.007433	-2.114617	0.905021	-0.146523	-0.131124	0.980478	0.406912	-0.911423	-0.061080	0.901640	0.390018	0.186900
39916	11.248116	7.097953	-3.923418	0.939871	-2.103456	0.813269	-0.124202	-0.130235	0.983673	0.416480	-0.906639	-0.067450	0.900621	0.401303	0.166846
39917	6.124982	11.080263	-5.206417	0.170376	-1.763616	0.648260	-0.105511	-0.129019	0.986013	0.418782	-0.905098	-0.073619	0.901936	0.405157	0.149529
39918	2.983051	12.474395	-3.940485	-0.616568	-1.594455	0.362155	-0.089556	-0.125857	0.987998	0.413653	-0.907083	-0.078054	0.906019	0.401698	0.133296
39919	3.470711	9.645404	-1.740758	-1.483918	-1.524114	0.039469	-0.075443	-0.120206	0.989878	0.400206	-0.912896	-0.080356	0.913315	0.390093	0.116978
39920	6.571614	3.517643	-1.682152	-2.287969	-1.628237	-0.014189	-0.060507	-0.113808	0.991659	0.379376	-0.921547	-0.082614	0.923262	0.371213	0.098936
39921	10.096099	-2.569215	-2.652392	-2.628294	-1.700164	0.183262	-0.043959	-0.109412	0.993024	0.355084	-0.930793	-0.086836	0.933800	0.348790	0.079767
39922	12.893612	-7.049467	-2.325359	-2.340753	-1.568690	0.432093	-0.027711	-0.108053	0.993759	0.333491	-0.938184	-0.092711	0.942346	0.328841	0.062032
39923	12.644780	-9.648419	-0.770570	-1.522470	-1.399843	0.691357	-0.012140	-0.110070	0.993850	0.319259	-0.942327	-0.100464	0.947590	0.316075	0.046581
39924	10.298025	-10.147958	0.320659	-0.486541	-1.205669	0.855840	0.002061	-0.114292	0.993445	0.314845	-0.942849	-0.109125	0.949141	0.313006	0.034042
39925	8.406281	-8.359948	0.813965	0.435672	-1.115179	0.810711	0.015291	-0.118437	0.992844	0.318922	-0.940518	-0.117107	0.947658	0.318431	0.023390
39926	7.057558	-5.576099	0.589615	1.051140	-1.087304	0.570693	0.027478	-0.120259	0.992362	0.328826	-0.936401	-0.122582	0.943991	0.329683	0.013814
39927	8.657715	-1.676962	0.753785	1.308507	-1.039463	0.380043	0.038624	-0.120340	0.991981	0.341037	-0.931529	-0.126285	0.939256	0.343180	0.005061
39928	9.415139	1.335838	0.518176	1.167918	-0.970227	0.279762	0.048738	-0.119554	0.991631	0.351917	-0.927090	-0.129069	0.934762	0.355262	-0.003112
39929	10.732121	2.622376	1.079846	0.741793	-0.947832	0.222498	0.058460	-0.118235	0.991263	0.358733	-0.924147	-0.131386	0.931608	0.363280	-0.011611
39930	10.876946	1.670881	1.144798	0.212135	-0.899372	0.173263	0.067507	-0.116537	0.990890	0.360681	-0.923138	-0.133141	0.930243	0.366383	-0.020285
39931	10.543911	-0.192133	0.986359	-0.170468	-0.907142	0.115274	0.076446	-0.114306	0.990500	0.359024	-0.923616	-0.134297	0.930192	0.365880	-0.029568
39932	10.252606	-1.895213	0.738110	-0.316551	-0.911147	0.086487	0.085279	-0.111752	0.990070	0.356105	-0.924637	-0.135039	0.930546	0.364085	-0.039056
39933	9.811906	-3.043815	0.189839	-0.278657	-0.920545	0.091437	0.094256	-0.109280	0.989532	0.353441	-0.925536	-0.135879	0.930696	0.362549	-0.048613
39934	8.273443	-3.919758	-0.644899	-0.100433	-0.927930	0.059526	0.103143	-0.106446	0.988954	0.352531	-0.925804	-0.136416	0.930099	0.362707	-0.057965
39935	10.004633	-3.311302	-0.704620	0.044061	-0.994303	0.086243	0.112775	-0.103657	0.988199	0.352858	-0.925541	-0.137353	0.928856	0.364183	-0.067801
39936	9.063336	-2.274552	-1.872790	0.084132	-0.933307	0.120237	0.121906	-0.101356	0.987353	0.353560	-0.925084	-0.138617	0.927434	0.365986	-0.076938
39937	9.333292	-1.271492	-2.079655	0.051762	-1.019443	0.132990	0.131909	-0.098873	0.986318	0.353880	-0.924749	-0.140029	0.925942	0.367509	-0.086994
39938	8.981376	-0.922849	-1.970416	-0.054917	-1.017114	0.118968	0.141790	-0.096225	0.985209	0.353269	-0.924809	-0.141168	0.924714	0.368060	-0.097136
39939	9.017866	-0.855696	-1.802566	-0.170362	-1.032206	0.086651	0.151721	-0.093256	0.984014	0.351576	-0.925342	-0.141904	0.923783	0.367485	-0.107607
39940	9.647364	-0.836263	-1.275339	-0.267338	-0.993313	0.079172	0.161222	-0.090333	0.982775	0.349049	-0.926223	-0.142395	0.923132	0.365994	-0.117797
39941	9.164416	-1.105628	-1.150882	-0.317254	-0.908171	0.072024	0.169939	-0.087712	0.981543	0.346009	-0.927305	-0.142771	0.922713	0.363885	-0.127236
39942	9.762879	-1.357396	-0.423449	-0.311692	-0.867698	0.063768	0.178214	-0.085139	0.980302	0.343090	-0.928354	-0.142999	0.922241	0.361816	-0.136235
39943	10.282426	-1.428854	-0.109401	-0.341140	-0.757282	0.092153	0.185596	-0.083291	0.979090	0.339783	-0.929495	-0.143481	0.922010	0.359308	-0.144209
39944	9.901375	-1.639766	-0.390999	-0.355811	-0.680335	0.113042	0.192297	-0.081893	0.977914	0.336354	-0.930649	-0.144076	0.921894	0.356630	-0.151416
39945	9.883281	-1.708811	-0.577786	-0.317000	-0.637911	0.091511	0.198568	-0.080505	0.976775	0.333259	-0.931691	-0.144537	0.921688	0.354219	-0.158175
39946	9.746540	-1.551357	-1.117871	-0.259494	-0.607925	0.057684	0.204406	-0.078885	0.975703	0.330810	-0.932538	-0.144699	0.921294	0.352350	-0.164520
39947	9.519457	-1.216967	-1.762998	-0.231778	-0.643150	0.031056	0.210515	-0.076942	0.974558	0.328616	-0.933318	-0.144670	0.920703	0.350711	-0.171193
39948	9.420674	-0.959177	-2.091912	-0.251336	-0.697161	0.000904	0.216978	-0.074502	0.973329	0.326359	-0.934173	-0.144258	0.920006	0.348956	-0.178381
39949	9.385064	-0.971792	-2.381303	-0.323240	-0.762808	-0.017287	0.224020	-0.071715	0.971942	0.323429	-0.935299	-0.143558	0.919352	0.346514	-0.186331
39950	9.331364	-1.208956	-2.507805	-0.372705	-0.817208	-0.027604	0.231486	-0.068623	0.970415	0.320129	-0.936581	-0.142595	0.918657	0.343667	-0.194837
39951	9.266256	-1.803119	-2.536295	-0.389781	-0.870361	-0.034838	0.239450	-0.065347	0.968707	0.316636	-0.937928	-0.141538	0.917827	0.340618	-0.203896
39952	8.853146	-2.542127	-2.421216	-0.362010	-0.901137	-0.030139	0.247667	-0.061992	0.966860	0.313450	-0.939152	-0.140508	0.916739	0.337861	-0.213165
39953	8.138740	-3.453836	-2.402884	-0.209229	-0.988764	-0.111773	0.256455	-0.057637	0.964836	0.311818	-0.939915	-0.139030	0.914877	0.336509	-0.223073
39954	9.801076	-2.985989	-1.964683	-0.092033	-1.023315	-0.073066	0.265625	-0.053505	0.962591	0.311215	-0.940246	-0.138142	0.912463	0.336266	-0.233101
39955	9.350837	-2.539062	-2.332084	-0.075309	-0.998994	-0.008993	0.274782	-0.050090	0.960201	0.310554	-0.940495	-0.137934	0.909973	0.336096	-0.242875
39956	8.967412	-2.580178	-1.972116	-0.052027	-1.036459	-0.021159	0.284181	-0.046415	0.957646	0.310173	-0.940664	-0.137636	0.907212	0.336149	-0.252922
39957	10.311702	-2.134972	-1.335711	-0.029134	-1.037568	-0.044102	0.293523	-0.042540	0.955005	0.310037	-0.940773	-0.137197	0.904279	0.336357	-0.262950
39958	10.123554	-1.528825	-1.276645	-0.038062	-0.938851	-0.071690	0.301825	-0.038725	0.952577	0.309927	-0.940918	-0.136451	0.901580	0.336413	-0.271990
39959	10.054159	-0.909195	-0.706741	-0.065182	-0.906062	-0.122597	0.309683	-0.034553	0.950212	0.309714	-0.941174	-0.135163	0.898985	0.336152	-0.280764
39960	10.127868	-0.562157	0.211221	-0.123735	-0.873311	-0.178150	0.317013	-0.029964	0.947948	0.309178	-0.941636	-0.133160	0.896611	0.335298	-0.289247
39961	10.790575	-0.210304	0.988375	-0.264005	-0.831712	-0.159755	0.324051	-0.025709	0.945690	0.307324	-0.942555	-0.130931	0.894731	0.333062	-0.297535
39962	10.583945	-0.399177	1.186147	-0.436768	-0.767943	-0.124458	0.330568	-0.022014	0.943525	0.303841	-0.944020	-0.128478	0.893535	0.329152	-0.305374
39963	10.647503	-0.805560	1.218046	-0.552186	-0.751591	-0.120303	0.336998	-0.018452	0.941325	0.299309	-0.945841	-0.125695	0.892663	0.324105	-0.313223
39964	10.938371	-0.687431	0.988160	-0.644952	-0.728557	-0.150668	0.343072	-0.014715	0.939194	0.294075	-0.947929	-0.122273	0.892088	0.318142	-0.320880
39965	11.172347	-0.170466	0.675578	-0.752140	-0.691817	-0.204020	0.348728	-0.010633	0.937164	0.288069	-0.950315	-0.117975	0.891855	0.311109	-0.328338
39966	10.854331	0.238619	0.462490	-0.859309	-0.602202	-0.289166	0.353284	-0.006066	0.935496	0.281425	-0.952971	-0.112458	0.892183	0.303002	-0.334962
39967	11.670546	0.638460	0.286148	-0.963101	-0.556759	-0.351365	0.357356	-0.001083	0.933968	0.274075	-0.955852	-0.105975	0.892849	0.293848	-0.341282
39968	11.733496	1.131719	0.030128	-1.059129	-0.437786	-0.410904	0.360154	0.004083	0.932884	0.266096	-0.958897	-0.098533	0.894137	0.283724	-0.346437
39969	11.256049	1.142593	-0.055422	-1.119818	-0.320399	-0.478676	0.361845	0.009539	0.932189	0.257798	-0.961977	-0.090225	0.895884	0.272964	-0.350546
39970	11.013071	1.001184	0.141847	-1.143386	-0.224166	-0.534867	0.362484	0.015268	0.931865	0.249502	-0.964960	-0.081243	0.897972	0.261951	-0.353592
39971	11.242176	0.808470	0.704822	-1.116549	-0.089246	-0.564920	0.361976	0.020920	0.931953	0.241505	-0.967719	-0.072079	0.900360	0.251162	-0.355343
39972	11.607209	0.526216	1.419988	-1.092846	0.082993	-0.552352	0.359887	0.026048	0.932632	0.233671	-0.970268	-0.063070	0.903260	0.240627	-0.355274
39973	11.949312	0.724399	1.584246	-1.086104	0.237066	-0.507585	0.356652	0.030384	0.933743	0.225658	-0.972679	-0.054542	0.906575	0.230159	-0.353764
39974	12.065237	1.514238	1.797719	-1.089152	0.383535	-0.473182	0.352077	0.034108	0.935350	0.217469	-0.974968	-0.046306	0.910357	0.219713	-0.350681
39975	12.168151	2.362310	2.327138	-1.159777	0.519191	-0.468116	0.346418	0.037526	0.937330	0.208519	-0.977282	-0.037939	0.914612	0.208593	-0.346373
39976	11.598689	2.765237	2.734494	-1.315178	0.667539	-0.511659	0.339194	0.041168	0.939815	0.198251	-0.979733	-0.028635	0.919589	0.196033	-0.340481
39977	11.691576	2.403235	3.105219	-1.546603	0.807659	-0.581133	0.330702	0.045305	0.942647	0.185930	-0.982398	-0.018013	0.925238	0.181223	-0.333305
39978	12.802141	1.508385	2.636371	-1.832904	1.053456	-0.611131	0.319747	0.049496	0.946209	0.170952	-0.985260	-0.006230	0.931953	0.163749	-0.323495
39979	12.550159	0.040408	1.034571	-2.006743	1.349619	-0.615489	0.306192	0.053444	0.950468	0.154101	-0.988037	0.005913	0.939414	0.144658	-0.310765
39980	11.521628	-1.439621	-0.314110	-1.937715	1.473835	-0.616107	0.291295	0.057533	0.954902	0.137722	-0.990314	0.017654	0.946668	0.126368	-0.296397
39981	11.691188	-3.387204	-0.516135	-1.680305	1.563078	-0.600536	0.275734	0.061586	0.959259	0.123463	-0.991948	0.028196	0.953272	0.110659	-0.281118
39982	12.220694	-6.024922	-1.865319	-1.450887	1.799189	-0.517241	0.257813	0.064812	0.964019	0.110988	-0.993130	0.037088	0.959799	0.097433	-0.263235
39983	11.674880	-8.280536	-3.072046	-1.188941	1.934119	-0.404045	0.238835	0.066996	0.968746	0.100548	-0.993961	0.043950	0.965841	0.086908	-0.244129
39984	12.435264	-9.197857	-3.007978	-0.737813	1.978359	-0.284248	0.219300	0.068067	0.973280	0.094000	-0.994397	0.048363	0.971119	0.080883	-0.224469
39985	12.678689	-9.467587	-2.988207	-0.005288	2.050648	-0.151926	0.199271	0.067856	0.977592	0.094274	-0.994300	0.049799	0.975399	0.082238	-0.204532
39986	12.698601	-9.187206	-3.329412	0.827949	2.105923	0.002484	0.178611	0.065836	0.981715	0.102210	-0.993602	0.048038	0.978597	0.091761	-0.184197
39987	12.287354	-7.909484	-3.925397	1.575649	2.064926	0.146926	0.158620	0.062259	0.985375	0.117404	-0.992118	0.043786	0.980335	0.108742	-0.164679
39988	12.213670	-5.624592	-4.183193	2.183037	1.959133	0.254195	0.139664	0.057174	0.988547	0.138197	-0.989686	0.037715	0.980508	0.131347	-0.146124
39989	11.929375	-2.369329	-4.476024	2.595789	1.905656	0.264049	0.121465	0.051762	0.991245	0.163298	-0.986074	0.031482	0.979071	0.158045	-0.128226
39990	11.438194	0.873478	-4.719327	2.801478	1.892273	0.163661	0.103191	0.046667	0.993566	0.190240	-0.981384	0.026337	0.976299	0.186298	-0.110148
39991	11.237425	3.306167	-3.471717	2.705704	1.911094	0.055191	0.084758	0.042264	0.995505	0.216568	-0.975997	0.022997	0.972581	0.213645	-0.091876
39992	10.936214	4.314335	-2.846268	2.304996	1.916631	-0.013831	0.066065	0.037885	0.997096	0.238718	-0.970860	0.021071	0.968839	0.236633	-0.073184
39993	10.074534	4.595678	-2.863999	1.796924	1.745298	-0.054858	0.049129	0.034091	0.998210	0.256142	-0.966424	0.020399	0.965390	0.254682	-0.056212
39994	10.297495	5.622858	-2.343836	1.330313	1.618462	-0.170708	0.033024	0.031350	0.998963	0.268851	-0.962946	0.021332	0.962616	0.267867	-0.040229
39995	10.611008	5.390748	-2.044339	0.984152	1.646862	-0.292462	0.016470	0.029633	0.999425	0.278401	-0.960168	0.023881	0.960324	0.277847	-0.024064
39996	11.009242	4.696280	-1.712079	0.629163	1.697754	-0.336846	-0.000825	0.027973	0.999608	0.284335	-0.958343	0.027053	0.958725	0.284246	-0.007163
39997	11.257011	3.022067	-1.596478	0.325505	1.722484	-0.321917	-0.018168	0.026095	0.999494	0.287440	-0.957322	0.030219	0.957626	0.287844	0.009892
39998	10.898737	1.440026	-1.481458	0.143056	1.743255	-0.238360	-0.035598	0.023249	0.999096	0.288656	-0.956879	0.032551	0.956771	0.289554	0.027352
39999	10.383439	0.558132	-1.167621	0.075919	1.777616	-0.158122	-0.052972	0.019570	0.998404	0.289330	-0.956622	0.034102	0.955762	0.290675	0.045012
40000	9.606222	0.165276	-0.972962	0.131030	1.833133	-0.112488	-0.070858	0.015219	0.997370	0.290435	-0.956246	0.035226	0.954267	0.292168	0.063338
40001	9.596619	-0.087983	-0.566663	0.217056	1.894246	-0.076140	-0.089055	0.010356	0.995973	0.292464	-0.955595	0.036087	0.952121	0.294500	0.082072
40002	9.937158	-0.485276	-0.423752	0.263613	1.985435	-0.038779	-0.108095	0.004774	0.994129	0.294859	-0.954838	0.036646	0.949407	0.297089	0.101806
40003	10.029382	-1.001159	-0.357957	0.250933	2.055833	0.010046	-0.127471	-0.001489	0.991841	0.297271	-0.954085	0.036773	0.946246	0.299534	0.122060
40004	9.854779	-1.478019	-0.122645	0.211373	2.074061	0.073680	-0.146885	-0.008501	0.989117	0.299292	-0.953473	0.036251	0.942788	0.301360	0.142595
40005	9.617598	-1.667053	0.156531	0.186540	2.084170	0.151309	-0.165960	-0.016274	0.985998	0.301308	-0.952885	0.034988	0.938973	0.302896	0.163044
40006	9.178496	-1.581957	0.332412	0.170513	2.081016	0.228779	-0.184805	-0.024846	0.982461	0.303220	-0.952351	0.032952	0.934829	0.303991	0.183534
40007	8.678571	-1.459007	0.417456	0.159699	2.059623	0.299766	-0.203021	-0.034004	0.978584	0.305317	-0.951770	0.030270	0.930357	0.304923	0.203612
40008	8.163911	-1.341338	0.447682	0.149056	2.007213	0.359361	-0.220584	-0.043627	0.974392	0.307364	-0.951209	0.026993	0.925673	0.305447	0.223231
40009	7.722382	-1.157729	0.316757	0.134027	1.915449	0.399378	-0.236957	-0.053312	0.970056	0.309543	-0.950598	0.023370	0.920888	0.305811	0.241754
40010	7.551872	-0.895225	0.149325	0.135573	1.784559	0.425028	-0.252061	-0.062884	0.965666	0.311724	-0.949973	0.019505	0.916130	0.305938	0.259053
40011	7.354928	-0.621748	-0.209060	0.139731	1.620423	0.444753	-0.265398	-0.072100	0.961439	0.314181	-0.949236	0.015542	0.911512	0.306191	0.274577
40012	7.319729	-0.442363	-0.547934	0.131174	1.419436	0.457355	-0.276892	-0.080857	0.957493	0.316511	-0.948520	0.011431	0.907277	0.306222	0.288229
40013	7.210469	-0.336643	-0.881264	0.103325	1.229675	0.461275	-0.286481	-0.089029	0.953941	0.318776	-0.947802	0.007276	0.903499	0.306178	0.299907
40014	7.272098	-0.412718	-1.039418	0.056569	1.051821	0.470284	-0.294486	-0.096768	0.950744	0.320556	-0.947225	0.002880	0.900290	0.305614	0.309964
40015	7.170032	-0.592906	-0.953515	0.015251	0.897024	0.479557	-0.300929	-0.104081	0.947950	0.322151	-0.946687	-0.001674	0.897586	0.304880	0.318416
40016	6.954344	-1.010222	-0.804143	-0.016684	0.777548	0.478570	-0.306369	-0.111039	0.945414	0.323365	-0.946253	-0.006348	0.895306	0.303769	0.325809
40017	6.853828	-1.445995	-0.580108	0.026301	0.666306	0.490699	-0.310658	-0.117737	0.943202	0.325145	-0.945601	-0.010944	0.893181	0.303278	0.332040
40018	6.620171	-1.746383	-0.217861	0.115817	0.558122	0.510288	-0.313979	-0.124314	0.941256	0.327681	-0.944662	-0.015458	0.891091	0.303579	0.337339
40019	6.473102	-1.845725	0.219097	0.216121	0.441962	0.536168	-0.316067	-0.130754	0.939684	0.331326	-0.943308	-0.019815	0.889002	0.305078	0.341471
40020	6.237084	-1.842494	0.653899	0.286121	0.344829	0.570390	-0.317229	-0.137246	0.938365	0.335574	-0.941701	-0.024288	0.886992	0.307186	0.344791
40021	6.295557	-1.793758	1.140995	0.355638	0.213342	0.611025	-0.316975	-0.143686	0.937487	0.340695	-0.939732	-0.028837	0.885129	0.310256	0.346824
40022	6.568325	-1.596872	1.738593	0.423372	0.088054	0.651378	-0.315516	-0.150137	0.936968	0.346391	-0.937489	-0.033576	0.883438	0.313963	0.347799
40023	6.872525	-1.289093	2.493075	0.458588	-0.030656	0.688935	-0.312758	-0.156522	0.936847	0.352634	-0.934970	-0.038485	0.881948	0.318328	0.347614
40024	7.574966	-0.847056	3.330940	0.515354	-0.135417	0.728037	-0.308973	-0.162949	0.937008	0.359323	-0.932193	-0.043626	0.880581	0.323209	0.346574
40025	8.058340	-0.093736	4.193648	0.548868	-0.208964	0.754080	-0.304318	-0.169317	0.937402	0.366496	-0.929137	-0.048845	0.879245	0.328690	0.344807
40026	8.457417	0.617486	5.025250	0.540815	-0.256107	0.758234	-0.299266	-0.175567	0.937879	0.373420	-0.926078	-0.054204	0.878065	0.334001	0.342704
40027	8.807991	0.913363	6.011212	0.561567	-0.288483	0.733759	-0.293888	-0.181409	0.938467	0.380553	-0.922861	-0.059219	0.876818	0.339733	0.340254
40028	9.130485	1.028558	7.001809	0.618314	-0.289104	0.685685	-0.288731	-0.186799	0.939011	0.387858	-0.919518	-0.063661	0.875329	0.345822	0.337945
40029	9.275984	1.154374	7.577955	0.726747	-0.241871	0.609807	-0.284145	-0.191580	0.939446	0.395988	-0.915809	-0.066989	0.873187	0.352974	0.336086
40030	9.247592	1.400671	7.785425	0.929644	-0.152369	0.476406	-0.280928	-0.195453	0.939616	0.405333	-0.911604	-0.068439	0.869934	0.361631	0.335318
40031	9.992268	2.116917	8.256853	1.285415	0.056645	0.262056	-0.280259	-0.198071	0.939267	0.417244	-0.906348	-0.066631	0.864501	0.373230	0.336656
40032	9.415173	2.370793	8.526872	1.572322	0.383697	0.082010	-0.283243	-0.200330	0.937892	0.430915	-0.900249	-0.062154	0.856788	0.386547	0.341315
40033	9.340514	2.373900	8.766262	1.640673	0.570412	0.001804	-0.288016	-0.202616	0.935945	0.444934	-0.893775	-0.056569	0.847986	0.400141	0.347572
40034	7.689137	1.808813	7.918492	1.751963	0.577168	-0.056140	-0.293177	-0.204523	0.933926	0.459463	-0.886791	-0.049966	0.838416	0.414455	0.353958
40035	5.053162	1.630996	3.449827	1.836096	0.022210	-0.095560	-0.293726	-0.203796	0.933912	0.474526	-0.879209	-0.042615	0.829789	0.430649	0.354953
40036	4.051310	1.464226	-1.612619	1.475910	-0.891028	0.020292	-0.286302	-0.200124	0.937007	0.486725	-0.872742	-0.037679	0.825306	0.445277	0.347273
40037	4.842487	1.766180	-5.526624	0.795998	-1.397800	0.215973	-0.273624	-0.195733	0.941711	0.493927	-0.868714	-0.037045	0.825328	0.455000	0.334378
40038	4.785810	0.905390	-8.527060	0.027734	-1.785017	0.373447	-0.257034	-0.190866	0.947367	0.495106	-0.867887	-0.040524	0.829942	0.458631	0.317575
40039	6.488219	0.134889	-9.534894	-0.663504	-2.109771	0.569926	-0.236539	-0.186180	0.953617	0.491004	-0.869832	-0.048032	0.838430	0.456868	0.297165
40040	8.982914	0.976989	-8.820893	-1.068738	-2.068276	0.687407	-0.215746	-0.182813	0.959184	0.483548	-0.873414	-0.057703	0.848313	0.451362	0.276834
40041	12.326078	0.475627	-3.526818	-1.327316	-1.734131	0.711334	-0.197459	-0.181309	0.963399	0.473715	-0.878037	-0.068151	0.858257	0.442919	0.259265
40042	19.395392	0.785229	6.562810	-1.215210	-1.013249	0.613477	-0.185820	-0.182284	0.965528	0.464462	-0.882225	-0.077170	0.865879	0.434111	0.248599
40043	26.234539	0.631796	17.384022	-0.688248	-0.007264	0.321743	-0.184187	-0.185118	0.965301	0.459109	-0.884584	-0.082037	0.869077	0.428068	0.247918
40044	22.081134	-4.559350	11.937388	0.068409	-0.233049	0.313772	-0.180709	-0.186914	0.965612	0.460324	-0.883681	-0.084908	0.869164	0.429151	0.245730
40045	14.142557	-5.876383	-4.473023	0.919371	-1.647072	0.686248	-0.163129	-0.185822	0.968947	0.469510	-0.878388	-0.089409	0.867726	0.440346	0.230536
40046	13.864614	1.379636	-6.247922	1.317863	-2.365919	0.720306	-0.139191	-0.181545	0.973482	0.482038	-0.871143	-0.093537	0.865023	0.456236	0.208766
40047	10.382030	7.836337	-5.731236	0.700727	-1.768245	0.626193	-0.120779	-0.178856	0.976434	0.488929	-0.866768	-0.098291	0.863922	0.465535	0.192135
40048	4.661037	9.744871	-6.270635	0.091022	-1.340724	0.439242	-0.107000	-0.176389	0.978488	0.490310	-0.865511	-0.102406	0.864955	0.468805	0.179095
40049	2.288032	9.128706	-4.034169	-0.472726	-1.320847	0.270024	-0.094147	-0.172567	0.980488	0.486502	-0.867235	-0.105920	0.868592	0.467037	0.165602
40050	4.772794	4.807319	-2.429260	-1.330421	-1.497986	0.200916	-0.080059	-0.167327	0.982646	0.475262	-0.872950	-0.109926	0.876194	0.458213	0.149412
40051	9.341670	-0.807225	-1.848346	-1.985807	-1.682738	0.331102	-0.063596	-0.162664	0.984630	0.458012	-0.881343	-0.116018	0.886668	0.443594	0.130552
40052	13.764284	-4.241097	-1.535806	-2.149823	-1.647633	0.618458	-0.046066	-0.160885	0.985898	0.439403	-0.889601	-0.124640	0.897108	0.427464	0.111674
40053	14.664936	-6.232228	-1.277018	-1.804025	-1.475619	0.832895	-0.029088	-0.162138	0.986339	0.423470	-0.895829	-0.134771	0.905443	0.413765	0.094718
40054	12.678726	-6.703977	-0.546222	-1.070120	-1.357044	0.946429	-0.012738	-0.164988	0.986213	0.414162	-0.898583	-0.144978	0.910114	0.406605	0.079778
40055	10.268717	-5.866231	0.231193	-0.377132	-1.179820	0.914735	0.001867	-0.168443	0.985710	0.410790	-0.898573	-0.154331	0.911728	0.405207	0.067517
40056	8.419175	-4.433978	0.973482	0.163419	-0.975698	0.709905	0.013751	-0.170786	0.985212	0.412394	-0.896633	-0.161186	0.910902	0.408512	0.058102
40057	7.454097	-2.752677	1.055666	0.509292	-0.813987	0.403215	0.022912	-0.171070	0.984992	0.416965	-0.893832	-0.164937	0.908634	0.414487	0.050851
40058	6.767454	-1.405167	0.305498	0.635201	-0.740804	0.119376	0.030202	-0.168987	0.985155	0.422843	-0.890910	-0.165784	0.905700	0.421573	0.044548
40059	8.892080	-0.339700	-0.055240	0.537388	-0.775405	-0.012962	0.037244	-0.165602	0.985489	0.427719	-0.888633	-0.165491	0.903144	0.427676	0.037735
40060	9.848109	-0.431063	-1.026800	0.265996	-0.798259	-0.050845	0.044298	-0.161665	0.985851	0.430288	-0.887507	-0.164873	0.901604	0.431503	0.030248
40061	10.444612	-1.384230	-1.547939	-0.023812	-0.869696	-0.045421	0.052026	-0.157526	0.986143	0.430106	-0.887667	-0.164487	0.901278	0.432704	0.021571
40062	10.223127	-2.430445	-1.645460	-0.254363	-0.933758	0.014661	0.060579	-0.153553	0.986282	0.427963	-0.888673	-0.164642	0.901764	0.432066	0.011880
40063	10.012382	-2.993830	-1.553601	-0.392350	-1.003067	0.133368	0.070281	-0.150437	0.986118	0.424346	-0.890147	-0.166040	0.902769	0.430124	0.001276
40064	9.502855	-3.275738	-1.352712	-0.465931	-1.082466	0.258181	0.081225	-0.148027	0.985642	0.420095	-0.891693	-0.168537	0.903838	0.427752	-0.010242
40065	9.182202	-3.273540	-1.173203	-0.495524	-1.150255	0.360893	0.093218	-0.146366	0.984829	0.415307	-0.893259	-0.172068	0.904892	0.425047	-0.022481
40066	9.100284	-2.982380	-0.962075	-0.504925	-1.184768	0.409002	0.105710	-0.144940	0.983777	0.410471	-0.894742	-0.175929	0.905726	0.422409	-0.035090
40067	9.191359	-2.473141	-0.907221	-0.496041	-1.182866	0.400511	0.118145	-0.143569	0.982563	0.405536	-0.896238	-0.179718	0.906412	0.419697	-0.047664
40068	9.218886	-2.144295	-0.941102	-0.496440	-1.149957	0.353657	0.130075	-0.141870	0.981302	0.400728	-0.897754	-0.182909	0.906917	0.417027	-0.059924
40069	8.898394	-1.855073	-0.965462	-0.473883	-1.119709	0.278234	0.141423	-0.139739	0.980037	0.396058	-0.899317	-0.185382	0.907269	0.414369	-0.071840
40070	9.439691	-1.720659	-0.701465	-0.408596	-1.086514	0.202837	0.152158	-0.137013	0.978813	0.392182	-0.900672	-0.187040	0.907216	0.412333	-0.083311
40071	9.401709	-1.742279	-0.731322	-0.339653	-1.018383	0.144119	0.162041	-0.134145	0.977624	0.388880	-0.901860	-0.188205	0.906926	0.410675	-0.093972
40072	9.814216	-1.573790	-0.719617	-0.281592	-0.967497	0.108001	0.171308	-0.131089	0.976458	0.386275	-0.902819	-0.188970	0.906336	0.409553	-0.104023
40073	9.807536	-1.248248	-0.917972	-0.293469	-0.886476	0.092653	0.179778	-0.128326	0.975301	0.383458	-0.903885	-0.189612	0.905892	0.408075	-0.113291
40074	9.811875	-1.007176	-1.021039	-0.354374	-0.840874	0.066994	0.187725	-0.125443	0.974178	0.380255	-0.905190	-0.189835	0.905630	0.406073	-0.122227
40075	9.782108	-0.839408	-1.006686	-0.447833	-0.798549	0.045503	0.195211	-0.122649	0.973062	0.376116	-0.906932	-0.189768	0.905776	0.403029	-0.130913
40076	9.382659	-0.957340	-1.121766	-0.498221	-0.767532	-0.000069	0.202237	-0.119496	0.972019	0.371739	-0.908878	-0.189077	0.906041	0.399576	-0.139388
40077	9.932572	-0.891825	-1.069847	-0.536375	-0.771688	0.009162	0.209345	-0.116536	0.970873	0.366863	-0.910987	-0.188453	0.906414	0.395629	-0.147958
40078	9.776834	-0.768841	-1.502733	-0.564886	-0.762112	0.049520	0.216505	-0.113910	0.969613	0.361780	-0.913100	-0.188053	0.906775	0.391501	-0.156481
40079	9.331372	-1.266578	-1.706329	-0.583401	-0.812295	0.060111	0.224168	-0.111323	0.968171	0.356359	-0.915291	-0.187753	0.907060	0.387105	-0.165508
40080	8.926847	-2.152147	-1.795581	-0.605895	-0.882706	0.086011	0.232549	-0.108629	0.966499	0.350817	-0.917475	-0.187529	0.907110	0.382674	-0.175249
40081	7.540168	-3.357786	-2.031789	-0.544855	-0.931545	0.047183	0.241241	-0.105543	0.964709	0.345765	-0.919486	-0.187060	0.906780	0.378689	-0.185325
40082	9.547476	-3.801761	-1.372980	-0.419789	-1.048681	0.049154	0.250982	-0.101960	0.962607	0.341979	-0.920971	-0.186715	0.905570	0.376054	-0.196279
40083	9.136298	-3.627442	-1.730621	-0.339988	-1.001837	0.091813	0.260439	-0.099076	0.960393	0.338669	-0.922142	-0.186970	0.904143	0.373950	-0.206608
40084	9.499579	-3.489785	-1.254742	-0.274198	-1.020122	0.106488	0.270080	-0.096186	0.958021	0.336030	-0.923019	-0.187403	0.902298	0.372537	-0.216968
40085	9.386355	-3.393989	-1.058306	-0.230492	-0.975992	0.083211	0.279234	-0.093351	0.955675	0.333723	-0.923786	-0.187745	0.900365	0.371356	-0.226799
40086	9.003646	-3.347822	-0.807438	-0.136188	-0.950451	-0.010205	0.287811	-0.089677	0.953479	0.332629	-0.924264	-0.187334	0.898066	0.371072	-0.236185
40087	10.447454	-2.548079	-0.011987	-0.100846	-0.905947	-0.039517	0.295883	-0.085977	0.951347	0.331839	-0.924662	-0.186772	0.895732	0.370956	-0.245061
40088	9.689132	-1.749811	-0.183874	-0.162455	-0.804954	-0.043332	0.303002	-0.082554	0.949408	0.330600	-0.925268	-0.185965	0.893809	0.370222	-0.253066
40089	9.496475	-1.146072	0.131897	-0.239260	-0.800840	-0.067885	0.310007	-0.078994	0.947447	0.328669	-0.926196	-0.184763	0.892117	0.368675	-0.261164
40090	9.651258	-0.706311	0.107886	-0.371042	-0.788170	-0.094098	0.316778	-0.075191	0.945515	0.325738	-0.927601	-0.182899	0.890812	0.365928	-0.269351
40091	10.094503	-0.443040	-0.254389	-0.509606	-0.808731	-0.115797	0.323680	-0.071200	0.943484	0.321569	-0.929529	-0.180468	0.889845	0.361809	-0.277975
40092	9.357654	-0.936578	-0.899543	-0.549289	-0.856498	-0.193905	0.330723	-0.066277	0.941398	0.317404	-0.931607	-0.177095	0.888750	0.357373	-0.287067
40093	12.024382	-0.575337	-0.568287	-0.590596	-0.897273	-0.164400	0.338250	-0.061588	0.939039	0.312705	-0.933799	-0.173883	0.887582	0.352458	-0.296599
40094	10.882340	-0.189151	-1.207558	-0.623739	-0.801672	-0.165103	0.344888	-0.057198	0.936900	0.307825	-0.936048	-0.170461	0.886733	0.347191	-0.305224
40095	10.333889	-0.635886	-0.538239	-0.630269	-0.779316	-0.214295	0.351216	-0.052535	0.934820	0.302981	-0.938328	-0.166563	0.885918	0.341732	-0.313639
40096	9.835014	-1.234329	-0.288910	-0.664085	-0.731530	-0.216814	0.357073	-0.047973	0.932844	0.297964	-0.940656	-0.162429	0.885278	0.335953	-0.321589
40097	10.016434	-1.557978	-0.139473	-0.684153	-0.712305	-0.216468	0.362812	-0.043593	0.930842	0.292684	-0.943025	-0.158242	0.884705	0.329855	-0.329382
40098	10.391465	-1.538935	-0.034207	-0.730326	-0.668328	-0.215335	0.368121	-0.039337	0.928945	0.287102	-0.945471	-0.153809	0.884341	0.323323	-0.336754
40099	10.831558	-1.223783	0.166541	-0.782004	-0.624715	-0.233246	0.373057	-0.035162	0.927142	0.281046	-0.948051	-0.149041	0.884218	0.316171	-0.343795
40100	11.324456	-0.564147	0.800906	-0.841818	-0.538161	-0.274154	0.377067	-0.030846	0.925672	0.274715	-0.950745	-0.143585	0.884507	0.308437	-0.350021
40101	11.742548	0.289560	1.746403	-0.925163	-0.387461	-0.333166	0.379666	-0.026528	0.924743	0.267782	-0.953647	-0.137298	0.885520	0.299757	-0.354964
40102	11.930878	0.902117	2.536248	-0.998614	-0.221839	-0.389849	0.380602	-0.022117	0.924475	0.260500	-0.956663	-0.130134	0.887289	0.290355	-0.358346
40103	12.223802	1.266256	3.206673	-1.064669	-0.019478	-0.436394	0.379728	-0.017914	0.924925	0.252693	-0.959782	-0.122333	0.889918	0.280175	-0.359929
40104	12.319885	1.532433	3.530902	-1.106974	0.192186	-0.500497	0.376749	-0.013594	0.926216	0.244815	-0.962878	-0.113714	0.893379	0.269593	-0.359436
40105	12.643931	1.948844	3.979072	-1.159391	0.435239	-0.542277	0.371619	-0.009549	0.928336	0.236456	-0.965997	-0.104591	0.897769	0.258379	-0.356724
40106	13.058260	2.747380	4.474830	-1.146400	0.690577	-0.600406	0.363964	-0.005443	0.931397	0.228456	-0.968914	-0.094936	0.902961	0.247337	-0.351406
40107	12.628674	4.008150	4.564911	-1.125693	0.979553	-0.674712	0.353646	-0.001303	0.935378	0.220675	-0.971655	-0.084786	0.908976	0.236399	-0.343334
40108	13.135186	5.146006	5.194941	-1.143378	1.099309	-0.753770	0.341918	0.003554	0.939723	0.213012	-0.974257	-0.073819	0.915270	0.225412	-0.333873
40109	12.274906	5.714613	4.182055	-1.232928	1.332164	-0.845054	0.327985	0.008836	0.944642	0.204512	-0.976907	-0.061870	0.922280	0.213483	-0.322218
40110	11.674570	5.690983	1.803429	-1.535283	1.394449	-0.909961	0.313166	0.014958	0.949581	0.193404	-0.979927	-0.048348	0.929797	0.198794	-0.309773
40111	12.227486	3.904360	0.170838	-2.100664	1.590226	-0.960813	0.296603	0.021350	0.954762	0.176710	-0.983713	-0.032898	0.938510	0.178474	-0.295545
40112	12.792711	0.776893	-1.638647	-2.691413	1.880996	-0.954011	0.277161	0.027760	0.960422	0.154291	-0.987896	-0.015972	0.948354	0.152611	-0.278090
40113	12.809694	-3.533457	-3.049508	-2.954439	2.169705	-0.878850	0.255302	0.033413	0.966284	0.128465	-0.991714	0.000351	0.958289	0.124044	-0.257479
40114	12.782809	-8.313496	-3.792898	-2.751171	2.247080	-0.767531	0.232654	0.038638	0.971792	0.104073	-0.994462	0.014624	0.966975	0.097735	-0.235387
40115	12.833664	-12.721108	-4.265156	-2.109198	2.257018	-0.587082	0.210262	0.042454	0.976723	0.084909	-0.996075	0.025016	0.973951	0.077673	-0.213041
40116	13.624304	-15.337437	-3.956458	-1.026208	2.220944	-0.356446	0.188174	0.044391	0.981132	0.075710	-0.996661	0.030573	0.979213	0.068528	-0.190907
40117	14.234053	-15.526570	-3.855184	0.351823	2.299640	-0.120017	0.165586	0.043910	0.985217	0.079383	-0.996360	0.031064	0.982995	0.073066	-0.168469
40118	13.305193	-13.656989	-4.532610	1.726837	2.304294	0.069631	0.142880	0.041228	0.988881	0.096224	-0.994978	0.027579	0.985051	0.091214	-0.146130
40119	12.654568	-10.319271	-4.744574	2.742062	2.199448	0.204587	0.121508	0.036832	0.991907	0.122977	-0.992171	0.021778	0.984943	0.119336	-0.125086
40120	12.131075	-6.328150	-4.805953	3.329259	2.101199	0.242391	0.101101	0.031411	0.994380	0.155303	-0.987747	0.015411	0.982680	0.152872	-0.104740
40121	12.365982	-2.370454	-4.785446	3.549235	2.010928	0.185000	0.081773	0.026114	0.996309	0.189953	-0.981741	0.010142	0.978382	0.188423	-0.085240
40122	12.617172	0.924831	-4.370379	3.384192	1.987215	0.097172	0.062528	0.020915	0.997824	0.222707	-0.974864	0.006478	0.972878	0.221817	-0.065614
40123	12.460176	2.856907	-3.271683	2.907676	2.019640	0.022424	0.043065	0.015890	0.998946	0.250916	-0.967998	0.004581	0.967050	0.250454	-0.045674
40124	12.208158	3.475260	-2.701142	2.304500	2.001959	-0.026546	0.023637	0.010762	0.999663	0.272982	-0.962011	0.003902	0.961729	0.272798	-0.025677
40125	11.984496	3.988913	-3.183423	1.748061	1.888087	-0.011341	0.005567	0.005526	0.999969	0.289773	-0.957088	0.003675	0.957079	0.289743	-0.006930
40126	11.354651	4.919393	-3.309084	1.310861	1.751645	-0.054868	-0.011374	0.000750	0.999935	0.302169	-0.953245	0.004152	0.953187	0.302196	0.010616
40127	11.674898	5.075690	-2.624476	0.918786	1.682759	-0.148944	-0.027766	-0.003024	0.999610	0.310901	-0.950425	0.005761	0.950036	0.310940	0.027330
40128	10.636397	4.209034	-2.179764	0.571443	1.688533	-0.188331	-0.044425	-0.006614	0.998991	0.316189	-0.948664	0.007780	0.947656	0.316215	0.044236
40129	9.570435	3.184791	-2.064157	0.258404	1.637506	-0.183484	-0.060434	-0.010102	0.998121	0.318559	-0.947853	0.009694	0.945975	0.318547	0.060501
40130	7.949228	1.890855	-2.135246	0.050515	1.540755	-0.166167	-0.075574	-0.013500	0.997049	0.318899	-0.947721	0.011340	0.944771	0.318815	0.075928
40131	7.284585	0.746860	-2.183552	-0.008272	1.418588	-0.151108	-0.089372	-0.016620	0.995860	0.318718	-0.947763	0.012786	0.943627	0.318541	0.090000
40132	7.136193	-0.341215	-2.328410	0.082238	1.358182	-0.152620	-0.102703	-0.019556	0.994520	0.319341	-0.947531	0.014346	0.942058	0.319064	0.103559
40133	7.197203	-1.170455	-2.648858	0.319663	1.343407	-0.156149	-0.115765	-0.022414	0.993024	0.322201	-0.946533	0.016197	0.939566	0.321828	0.116797
40134	7.368785	-1.514982	-2.944563	0.644448	1.324162	-0.167994	-0.128758	-0.025176	0.991356	0.328034	-0.944482	0.018620	0.935850	0.327596	0.129868
40135	7.646324	-1.538634	-3.077832	0.930878	1.296562	-0.149690	-0.141280	-0.028097	0.989571	0.336545	-0.941426	0.021318	0.931009	0.336047	0.142460
40136	7.820445	-1.284212	-2.951259	1.114047	1.272697	-0.116520	-0.153508	-0.031393	0.987649	0.346705	-0.937665	0.024084	0.925327	0.346120	0.154824
40137	8.062716	-0.882629	-2.566230	1.179186	1.259967	-0.065945	-0.165283	-0.035233	0.985617	0.357501	-0.933534	0.026580	0.919171	0.356752	0.166893
40138	8.165265	-0.504350	-2.170618	1.093954	1.245005	-0.000208	-0.176696	-0.039779	0.983461	0.367514	-0.929583	0.028431	0.913078	0.366460	0.178873
40139	8.331289	-0.131312	-1.682517	0.910092	1.229783	0.070921	-0.187548	-0.045020	0.981223	0.375954	-0.926173	0.029365	0.907460	0.374402	0.190628
40140	8.286179	0.180939	-1.281885	0.679246	1.200370	0.153472	-0.197828	-0.051010	0.978909	0.382395	-0.923539	0.029154	0.902573	0.380097	0.202207
40141	7.996082	0.373419	-1.005217	0.449898	1.149131	0.253661	-0.207122	-0.057764	0.976608	0.386987	-0.921673	0.027558	0.898522	0.383643	0.213253
40142	7.534369	0.448708	-0.835969	0.230413	1.062417	0.349198	-0.215286	-0.065102	0.974379	0.389799	-0.920571	0.024618	0.895382	0.385112	0.223563
40143	7.158457	0.388442	-0.763626	0.052092	0.952992	0.436937	-0.222023	-0.072819	0.972318	0.391248	-0.920058	0.020434	0.893102	0.384955	0.232764
40144	6.976425	0.408408	-0.830879	-0.085711	0.801821	0.513921	-0.227152	-0.080662	0.970513	0.391656	-0.919986	0.015205	0.891632	0.383561	0.240568
40145	7.095626	0.552279	-0.896366	-0.172132	0.636886	0.560201	-0.230556	-0.088279	0.969046	0.391432	-0.920160	0.009304	0.890856	0.381461	0.246704
40146	7.353905	0.747998	-0.927632	-0.220449	0.453526	0.581794	-0.232299	-0.095389	0.967956	0.390845	-0.920451	0.003091	0.890661	0.379039	0.251102
40147	7.667436	0.992867	-0.770467	-0.273145	0.283398	0.571908	-0.232514	-0.101751	0.967256	0.389770	-0.920907	-0.003181	0.891076	0.376267	0.253783
40148	7.892957	0.914706	-0.635484	-0.340488	0.136965	0.545001	-0.231587	-0.107312	0.966877	0.388045	-0.921593	-0.009341	0.892070	0.373028	0.255071
40149	8.028756	0.767877	-0.481836	-0.396316	0.004934	0.520569	-0.229540	-0.112157	0.966816	0.385735	-0.922480	-0.015434	0.893599	0.369392	0.255009
40150	7.930563	0.546232	-0.206158	-0.458223	-0.115572	0.501824	-0.226543	-0.116388	0.967022	0.382842	-0.923564	-0.021470	0.895606	0.365353	0.253785
40151	7.665343	0.392606	0.357084	-0.447113	-0.185432	0.474316	-0.222994	-0.120125	0.967390	0.379927	-0.924615	-0.027236	0.897736	0.361465	0.251822
40152	7.950239	0.349799	1.187630	-0.345665	-0.203248	0.420960	-0.219533	-0.123307	0.967781	0.377825	-0.925317	-0.032190	0.899474	0.358585	0.249726
40153	8.003138	0.321911	2.505380	-0.278783	-0.159565	0.380621	-0.216584	-0.126288	0.968061	0.376174	-0.925825	-0.036617	0.900880	0.356229	0.248025
40154	8.501167	0.481718	4.388373	-0.273184	-0.056352	0.339488	-0.214762	-0.129250	0.968076	0.374522	-0.926329	-0.040591	0.902004	0.353848	0.247347
40155	9.749842	0.419784	7.329116	-0.219349	0.143959	0.271697	-0.214967	-0.132304	0.967618	0.373154	-0.926734	-0.043813	0.902521	0.351653	0.248587
40156	10.964935	0.121032	10.241342	-0.148973	0.367746	0.236750	-0.217371	-0.135809	0.966595	0.372399	-0.926908	-0.046486	0.902257	0.349855	0.252058
40157	11.606032	-0.318996	12.105155	-0.027112	0.545465	0.249944	-0.221281	-0.140059	0.965100	0.372731	-0.926644	-0.049017	0.901169	0.348876	0.257253
40158	11.484088	0.135726	11.910136	-0.024102	0.698596	0.308234	-0.226409	-0.145375	0.963123	0.373267	-0.926262	-0.052065	0.899673	0.347713	0.263978
40159	10.829541	1.101511	10.761784	-0.107490	0.746631	0.319234	-0.231853	-0.150949	0.960968	0.373060	-0.926147	-0.055471	0.898371	0.345638	0.271043
40160	10.602779	1.801750	9.173701	-0.092660	0.760104	0.252851	-0.237739	-0.155943	0.958729	0.372877	-0.926056	-0.058164	0.896907	0.343660	0.278307
40161	12.698088	2.745317	9.430094	0.282316	1.105540	0.036514	-0.247421	-0.160113	0.955587	0.375522	-0.925012	-0.057760	0.893178	0.344553	0.288993
40162	7.906723	2.083748	7.714396	0.765830	1.631797	-0.214158	-0.262768	-0.163825	0.950849	0.381857	-0.922675	-0.053444	0.886080	0.349045	0.305008
40163	5.604799	0.625401	2.918968	0.809312	0.924522	-0.202928	-0.271640	-0.165238	0.948108	0.388494	-0.920144	-0.049058	0.880502	0.355008	0.314142
40164	3.609800	0.246297	-1.977603	0.879768	0.079955	-0.239519	-0.273307	-0.163355	0.947955	0.395647	-0.917348	-0.044011	0.876794	0.363027	0.315348
40165	4.139093	0.203043	-4.721603	0.836709	-0.656550	-0.233020	-0.268408	-0.158835	0.950120	0.402376	-0.914633	-0.039231	0.875243	0.371776	0.309406
40166	5.647404	-0.773862	-5.911506	0.468907	-1.073957	-0.079239	-0.259338	-0.154110	0.953412	0.406362	-0.912961	-0.037037	0.876136	0.377825	0.299389
40167	6.046995	-1.707928	-8.009738	-0.032724	-1.300384	0.184583	-0.247094	-0.150896	0.957170	0.406572	-0.912788	-0.038942	0.879570	0.379536	0.286895
40168	5.260878	-2.351803	-10.853095	-0.610949	-1.511065	0.478523	-0.231815	-0.149574	0.961192	0.402427	-0.914334	-0.045227	0.885615	0.376325	0.272149
40169	5.508608	-1.099489	-10.077052	-0.803258	-1.635662	0.597707	-0.214807	-0.148956	0.965231	0.396649	-0.916430	-0.053153	0.892484	0.371440	0.255938
40170	8.650809	1.003853	-4.054652	-0.717530	-1.505448	0.423906	-0.199620	-0.147291	0.968740	0.391221	-0.918402	-0.059022	0.898386	0.367209	0.240955
40171	14.062567	0.750562	6.337728	-0.558685	-0.885140	0.189991	-0.190834	-0.145831	0.970729	0.386589	-0.920150	-0.062234	0.902292	0.363397	0.231973
40172	18.284516	-4.852487	12.137689	-0.744611	-0.310903	0.434898	-0.186316	-0.148717	0.971169	0.380813	-0.922137	-0.068151	0.905686	0.357137	0.228442
40173	20.693124	-8.550510	5.720233	-0.823079	-0.543917	0.964010	-0.177657	-0.155717	0.971695	0.375123	-0.923567	-0.079420	0.909792	0.350395	0.222491
40174	22.758175	-6.771518	0.866818	-0.265010	-1.365852	0.995075	-0.161449	-0.160138	0.973802	0.374473	-0.922891	-0.089681	0.913074	0.350184	0.208967
40175	16.828407	-2.772465	-2.380754	0.820957	-1.714578	0.840704	-0.142534	-0.161813	0.976474	0.383271	-0.918604	-0.096278	0.912572	0.360531	0.192951
40176	10.493215	3.246416	-3.935132	1.262873	-1.835315	0.864805	-0.122396	-0.162998	0.979005	0.395987	-0.912526	-0.102423	0.910062	0.375138	0.176234
40177	5.010836	8.909964	-4.112225	0.999370	-1.658684	0.771195	-0.104146	-0.163721	0.980994	0.405969	-0.907442	-0.108346	0.907933	0.386969	0.160972
40178	2.744620	12.407879	-2.512975	0.424208	-1.539706	0.544455	-0.087888	-0.162630	0.982765	0.410474	-0.904840	-0.113026	0.907627	0.393466	0.146280
40179	2.347817	11.533463	-0.308087	-0.457652	-1.459980	0.174124	-0.073824	-0.158499	0.984595	0.406475	-0.906341	-0.115425	0.910674	0.391693	0.131336
40180	6.447168	6.300399	0.369190	-1.478917	-1.594323	-0.080254	-0.059510	-0.151542	0.986658	0.393143	-0.912083	-0.116376	0.917550	0.380972	0.113855
40181	10.505039	0.622972	-0.712561	-2.027365	-1.583033	0.014916	-0.044780	-0.145802	0.988300	0.374481	-0.919606	-0.118700	0.926153	0.364784	0.095780
40182	12.903511	-3.586322	-0.879630	-2.012592	-1.415985	0.213687	-0.030769	-0.142633	0.989297	0.356125	-0.926376	-0.122485	0.933932	0.348545	0.079299
40183	12.992825	-6.462387	-0.349997	-1.678422	-1.310690	0.410805	-0.016979	-0.141999	0.989721	0.340515	-0.931512	-0.127805	0.940086	0.334845	0.064169
40184	12.066107	-8.679840	0.121466	-1.173653	-1.223949	0.567478	-0.003484	-0.143166	0.989692	0.329772	-0.934499	-0.134022	0.944054	0.325906	0.050468
40185	10.290472	-9.593353	-0.621888	-0.535188	-1.103598	0.634933	0.009099	-0.145554	0.989308	0.324715	-0.935304	-0.140595	0.945768	0.322523	0.038753
40186	8.812797	-8.447962	-1.192101	0.121096	-1.045025	0.581132	0.020935	-0.147547	0.988833	0.325958	-0.934001	-0.146266	0.945152	0.325381	0.028541
40187	7.627760	-6.319103	-1.803028	0.683299	-1.015179	0.437301	0.032034	-0.148311	0.988422	0.332310	-0.931089	-0.150478	0.942626	0.333282	0.019459
40188	6.882416	-4.179391	-2.587834	1.039090	-1.055799	0.204170	0.042723	-0.146599	0.988273	0.342137	-0.927220	-0.152333	0.938678	0.344633	0.010544
40189	9.227966	-2.102341	-2.576811	1.128231	-1.150734	0.052019	0.053757	-0.143072	0.988251	0.352694	-0.923173	-0.152835	0.934193	0.356766	0.000833
40190	10.181425	-0.584456	-2.728244	0.976919	-1.130035	-0.008287	0.064336	-0.138874	0.988218	0.361919	-0.919602	-0.152794	0.929987	0.367485	-0.008902
40191	10.604239	0.261737	-2.123427	0.700961	-1.163325	-0.039977	0.075067	-0.134211	0.988105	0.368469	-0.917038	-0.152551	0.926604	0.375538	-0.019387
40192	10.521661	0.530925	-1.473467	0.357143	-1.155858	-0.043245	0.085684	-0.129402	0.987883	0.371939	-0.915694	-0.152206	0.924294	0.380474	-0.030331
40193	10.391064	0.407933	-0.919397	0.063062	-1.147063	-0.021546	0.096277	-0.124853	0.987493	0.372555	-0.915466	-0.152069	0.923003	0.382536	-0.041624
40194	9.957024	0.199526	-0.560325	-0.206696	-1.130431	0.028056	0.106894	-0.120729	0.986914	0.370767	-0.916164	-0.152232	0.922554	0.382188	-0.053170
40195	9.560004	-0.257169	-0.330774	-0.429099	-1.128543	0.061380	0.117611	-0.117018	0.986141	0.366752	-0.917712	-0.152638	0.922855	0.379621	-0.065016
40196	9.205069	-0.706349	-0.365858	-0.624002	-1.080785	0.096701	0.128020	-0.113758	0.985226	0.361031	-0.919896	-0.153127	0.923725	0.375300	-0.076695
40197	8.881035	-1.174929	-0.738460	-0.778524	-1.060536	0.098677	0.138254	-0.110744	0.984186	0.353715	-0.922670	-0.153510	0.925079	0.369344	-0.088391
40198	8.758328	-1.549751	-1.218491	-0.876369	-1.043495	0.077697	0.148263	-0.107571	0.983080	0.345652	-0.925735	-0.153426	0.926576	0.362551	-0.100070
40199	9.194342	-1.900206	-1.856309	-0.891177	-1.043838	0.053772	0.158203	-0.104349	0.981877	0.337316	-0.928864	-0.153065	0.928003	0.355418	-0.111750
40200	9.658744	-2.111867	-2.424338	-0.835490	-1.064259	0.018349	0.168222	-0.100700	0.980592	0.329688	-0.931734	-0.152241	0.928982	0.348900	-0.123539
40201	10.216742	-2.289922	-2.863348	-0.750802	-1.059445	0.002531	0.178151	-0.097086	0.979202	0.322717	-0.934317	-0.151349	0.929578	0.342968	-0.135119
40202	9.661844	-2.453987	-3.293854	-0.634784	-1.040984	-0.008709	0.187879	-0.093387	0.977742	0.316986	-0.936437	-0.150353	0.929635	0.338179	-0.146334
40203	9.028327	-2.745963	-3.283502	-0.464425	-1.091938	-0.071078	0.197878	-0.089075	0.976171	0.312816	-0.938053	-0.149007	0.928973	0.334848	-0.157756
40204	9.811541	-2.510406	-2.870048	-0.315377	-1.101712	-0.092608	0.207898	-0.084457	0.974497	0.310222	-0.939140	-0.147575	0.927653	0.332992	-0.169045
40205	9.409902	-2.259838	-3.069664	-0.211895	-1.083819	-0.102282	0.217702	-0.079922	0.972738	0.308484	-0.939917	-0.146265	0.925982	0.331917	-0.179967
40206	9.543634	-2.027413	-2.638881	-0.131242	-1.094852	-0.103037	0.227584	-0.075292	0.970843	0.307491	-0.940436	-0.145016	0.923934	0.331529	-0.190877
40207	9.204415	-2.025859	-2.346719	-0.083161	-1.098873	-0.087778	0.237529	-0.070852	0.968793	0.306935	-0.940765	-0.144056	0.921613	0.331574	-0.201712
40208	8.675156	-2.403199	-2.102370	-0.058865	-1.126826	-0.095315	0.247679	-0.066210	0.966577	0.306552	-0.941049	-0.143013	0.919065	0.331728	-0.212781
40209	9.400584	-2.496139	-1.816587	-0.037353	-1.159497	-0.064384	0.258195	-0.061783	0.964115	0.306378	-0.941204	-0.142365	0.916225	0.332142	-0.224085
40210	9.962362	-2.251753	-1.843319	-0.042689	-1.147210	-0.015094	0.268726	-0.057769	0.961483	0.306146	-0.941316	-0.142123	0.913269	0.332546	-0.235270
40211	9.706755	-1.915529	-1.772509	-0.079526	-1.134600	-0.006617	0.279125	-0.053963	0.958737	0.305444	-0.941574	-0.141923	0.910381	0.332455	-0.246334
40212	10.093341	-1.640948	-1.691924	-0.048785	-1.176892	-0.105115	0.289571	-0.049071	0.955898	0.305205	-0.941819	-0.140805	0.907193	0.332518	-0.257747
40213	11.422199	-0.404530	-1.086932	-0.121084	-1.111702	-0.136658	0.299297	-0.044119	0.953140	0.304515	-0.942276	-0.139237	0.904263	0.331918	-0.268585
40214	10.671501	0.375754	-0.924940	-0.228753	-1.015186	-0.204318	0.307913	-0.038834	0.950622	0.303011	-0.943135	-0.136675	0.901872	0.330133	-0.278637
40215	10.565498	0.261864	-0.084242	-0.340724	-0.975597	-0.281418	0.315925	-0.032999	0.948210	0.300822	-0.944347	-0.133093	0.899832	0.327290	-0.288416
40216	10.661953	-0.125014	0.965673	-0.473980	-0.912680	-0.330608	0.323206	-0.026850	0.945947	0.297712	-0.945958	-0.128571	0.898279	0.323175	-0.297746
40217	10.293003	-0.701938	1.928063	-0.572201	-0.793122	-0.374976	0.329290	-0.020786	0.944000	0.293800	-0.947874	-0.123356	0.897357	0.317968	-0.306019
40218	11.314033	-1.055306	2.997393	-0.624701	-0.747410	-0.399813	0.334881	-0.014585	0.942148	0.289615	-0.949885	-0.117647	0.896648	0.312258	-0.313875
40219	12.338311	-0.586497	4.008338	-0.700398	-0.532908	-0.347702	0.338733	-0.009662	0.940833	0.284508	-0.952084	-0.112210	0.896836	0.305683	-0.319754
40220	12.114216	-0.013233	4.562247	-0.803210	-0.347226	-0.318829	0.340987	-0.005545	0.940052	0.278432	-0.954519	-0.106627	0.897888	0.298099	-0.323935
40221	12.242460	0.616315	5.263513	-0.990716	-0.224991	-0.307800	0.342236	-0.001974	0.939612	0.270580	-0.957430	-0.100565	0.899812	0.288657	-0.327133
40222	12.340888	1.447515	5.369206	-1.256169	-0.114248	-0.287051	0.342516	0.001170	0.939511	0.260410	-0.960937	-0.093740	0.902701	0.276765	-0.329441
40223	11.942073	2.109500	4.520713	-1.516156	-0.026519	-0.304194	0.342053	0.004138	0.939672	0.247738	-0.965009	-0.085930	0.906436	0.262185	-0.331109
40224	11.413034	2.552963	3.127954	-1.719775	0.007805	-0.362219	0.341098	0.007704	0.939996	0.233559	-0.969304	-0.076808	0.910551	0.245743	-0.332427
40225	11.177945	2.847670	2.140142	-1.847850	0.135122	-0.467473	0.338878	0.011890	0.940755	0.218282	-0.973629	-0.066324	0.915158	0.227825	-0.332537
40226	10.991833	2.718606	1.846524	-1.890659	0.296200	-0.595966	0.334867	0.017204	0.942108	0.203313	-0.977601	-0.054415	0.920070	0.209765	-0.330864
40227	11.463148	2.278460	2.549715	-1.923235	0.470957	-0.697718	0.329224	0.023056	0.943970	0.187887	-0.981311	-0.041561	0.925370	0.191042	-0.327403
40228	11.976996	1.598473	3.057698	-1.923148	0.709203	-0.770035	0.321191	0.029508	0.946555	0.172981	-0.984527	-0.028006	0.931082	0.172732	-0.321326
40229	12.933920	1.040135	3.445289	-1.827970	0.978120	-0.821262	0.310760	0.035961	0.949808	0.158505	-0.987252	-0.014481	0.937179	0.155049	-0.312498
40230	13.079812	0.737367	2.573204	-1.588753	1.231842	-0.876036	0.297749	0.042997	0.953675	0.146779	-0.989169	-0.001229	0.943293	0.140345	-0.300835
40231	11.665014	1.014431	0.582529	-1.279064	1.370872	-0.933793	0.283518	0.050356	0.957644	0.137397	-0.990450	0.011403	0.949073	0.128344	-0.287729
40232	11.384339	0.894579	-0.084511	-1.059361	1.337062	-1.038623	0.269273	0.059237	0.961240	0.130946	-0.991089	0.024395	0.954120	0.119302	-0.274630
40233	12.651555	0.728646	-0.988540	-1.208254	1.480796	-1.075959	0.253808	0.068176	0.964849	0.122208	-0.991779	0.037932	0.959503	0.108285	-0.260053
40234	13.366409	-0.715177	-1.937220	-1.509998	1.745944	-1.101968	0.235541	0.077631	0.968759	0.111425	-0.992389	0.052433	0.965456	0.095594	-0.242398
40235	13.306145	-2.925810	-3.206430	-1.718775	2.002461	-1.080754	0.215082	0.086554	0.972753	0.097222	-0.993014	0.066861	0.971745	0.080192	-0.221995
40236	13.155524	-5.755344	-4.039913	-1.658329	2.049501	-0.981205	0.194032	0.095024	0.976382	0.084040	-0.993249	0.079965	0.977389	0.066539	-0.200708
40237	13.432037	-8.583616	-4.039060	-1.279730	2.018711	-0.785339	0.173702	0.101543	0.979549	0.072959	-0.993263	0.090027	0.982092	0.055829	-0.179940
40238	14.058815	-10.571730	-3.411132	-0.530063	1.994824	-0.538839	0.153499	0.105952	0.982452	0.069594	-0.992925	0.096208	0.985695	0.053605	-0.159787
40239	14.676383	-11.075188	-3.453692	0.499378	2.018236	-0.259804	0.133457	0.107330	0.985226	0.074912	-0.992367	0.097961	0.988219	0.060732	-0.140478
40240	13.831203	-9.821729	-4.023929	1.488144	2.044626	0.019171	0.113070	0.105772	0.987941	0.090572	-0.991275	0.095763	0.989450	0.078652	-0.121664
40241	12.895089	-7.141116	-4.472771	2.229503	2.001037	0.217515	0.093559	0.101757	0.990400	0.112425	-0.989481	0.091042	0.989246	0.102828	-0.104015
40242	11.805402	-3.825841	-4.284424	2.657292	1.972690	0.306920	0.074302	0.096373	0.992568	0.139252	-0.986571	0.085366	0.987465	0.131875	-0.086724
40243	11.098226	-0.711727	-3.734297	2.773359	1.901215	0.278912	0.056050	0.090801	0.994290	0.166438	-0.982771	0.080366	0.984458	0.160983	-0.070197
40244	10.674444	1.618907	-2.651175	2.645766	1.909946	0.202340	0.037562	0.085371	0.995641	0.192797	-0.978244	0.076606	0.980519	0.189079	-0.053204
40245	10.319262	2.669562	-2.717703	2.371063	1.885901	0.142039	0.019471	0.080149	0.996593	0.215978	-0.973584	0.074078	0.976204	0.213800	-0.036267
40246	9.887678	4.011814	-2.763272	1.937633	1.783190	0.088334	0.002216	0.075190	0.997167	0.235399	-0.969187	0.072557	0.971896	0.234571	-0.019848
40247	10.087754	5.346360	-2.514375	1.501282	1.694655	-0.025489	-0.014212	0.071293	0.997354	0.249985	-0.965526	0.072580	0.968145	0.250355	-0.004100
40248	10.648089	5.610163	-1.852803	1.142020	1.698933	-0.153214	-0.031090	0.068310	0.997180	0.261431	-0.962375	0.074076	0.964721	0.262997	0.012062
40249	11.692767	5.195763	-1.297559	0.740675	1.740464	-0.183601	-0.048271	0.065392	0.996691	0.268519	-0.960271	0.076008	0.962064	0.271300	0.028794
40250	11.236972	3.834671	-1.036478	0.327236	1.771255	-0.121904	-0.065686	0.061624	0.995936	0.272038	-0.959177	0.077292	0.960042	0.276010	0.046241
40251	10.677604	2.064499	-0.939233	0.051391	1.742961	-0.028359	-0.082412	0.057040	0.994965	0.272538	-0.959014	0.077553	0.958609	0.277557	0.063488
40252	9.915720	0.511297	-0.817950	-0.050301	1.731340	0.052319	-0.098911	0.051628	0.993756	0.272582	-0.959050	0.076956	0.957035	0.278492	0.080788
40253	9.288654	-0.445180	-0.711408	0.022565	1.785636	0.110884	-0.115608	0.045550	0.992250	0.272945	-0.959037	0.075826	0.955058	0.279596	0.098440
40254	8.836445	-1.019597	-0.575531	0.190278	1.878867	0.150981	-0.133159	0.038704	0.990339	0.275443	-0.958427	0.074493	0.952050	0.282702	0.116963
40255	8.604758	-1.329403	-0.439134	0.391162	1.944942	0.180966	-0.151065	0.031398	0.988025	0.279448	-0.957370	0.073150	0.948203	0.287152	0.135851
40256	8.749986	-1.384354	-0.300417	0.579960	2.018572	0.206488	-0.169595	0.023466	0.985234	0.285471	-0.955686	0.071902	0.943262	0.293450	0.155381
40257	8.892114	-1.146207	-0.073631	0.721488	2.059769	0.252053	-0.188164	0.014909	0.982024	0.292739	-0.953585	0.070569	0.937496	0.300755	0.175066
40258	8.998278	-0.844041	0.071942	0.764278	2.079898	0.303223	-0.206709	0.005580	0.978386	0.300673	-0.951232	0.068950	0.931057	0.308427	0.194951
40259	9.198301	-0.565024	0.172472	0.717756	2.069979	0.349056	-0.224779	-0.004222	0.974401	0.308119	-0.948988	0.066967	0.924412	0.315284	0.214613
40260	9.276422	-0.379454	0.207792	0.636215	2.040431	0.403092	-0.242319	-0.014643	0.970086	0.315080	-0.946877	0.064411	0.917609	0.321263	0.234060
40261	9.235588	-0.321244	0.041530	0.575131	1.998352	0.463646	-0.259040	-0.025528	0.965529	0.321536	-0.944912	0.061281	0.910776	0.326326	0.252978
40262	8.944282	-0.168425	-0.163510	0.513974	1.920671	0.520299	-0.274773	-0.036838	0.960803	0.327665	-0.943039	0.057550	0.903955	0.330635	0.271193
40263	8.398119	-0.161261	-0.415751	0.463002	1.818180	0.565653	-0.289207	-0.048239	0.956050	0.333467	-0.941249	0.053382	0.897307	0.334250	0.288302
40264	7.711793	-0.080696	-0.609723	0.419944	1.680489	0.582773	-0.302264	-0.059421	0.951370	0.338926	-0.939536	0.048999	0.890935	0.337255	0.304127
40265	7.406349	0.022821	-0.830243	0.390563	1.515779	0.588471	-0.313641	-0.070105	0.946950	0.344244	-0.937821	0.044588	0.884944	0.339966	0.318273
40266	7.278061	0.041760	-1.013271	0.373057	1.345856	0.588025	-0.323461	-0.080251	0.942832	0.349358	-0.936128	0.040175	0.879387	0.342381	0.330837
40267	6.981280	0.033269	-1.187070	0.356268	1.176602	0.581897	-0.331659	-0.089762	0.939119	0.354426	-0.934396	0.035858	0.874291	0.344741	0.341715
40268	6.916046	0.066188	-1.294719	0.305276	1.007836	0.585371	-0.338338	-0.098752	0.935829	0.359009	-0.932807	0.031363	0.869851	0.346582	0.351057
40269	6.393914	-0.015000	-1.256423	0.236910	0.847820	0.592306	-0.343487	-0.107243	0.933014	0.363123	-0.931361	0.026630	0.866117	0.347946	0.358853
40270	6.129275	-0.077685	-1.156429	0.159533	0.668293	0.596552	-0.347060	-0.115161	0.930746	0.366531	-0.930155	0.021586	0.863252	0.348639	0.365030
40271	6.043644	-0.146009	-0.943882	0.096279	0.499316	0.591239	-0.349118	-0.122425	0.929047	0.369458	-0.929103	0.016403	0.861172	0.348970	0.369597
40272	5.926025	-0.140814	-0.541597	0.093614	0.350876	0.573338	-0.349974	-0.129010	0.927833	0.372244	-0.928065	0.011367	0.859624	0.349358	0.372822
40273	5.841452	-0.057828	0.085958	0.113123	0.210559	0.559201	-0.349621	-0.134959	0.927120	0.375210	-0.926916	0.006564	0.858477	0.350160	0.374708
40274	5.744858	0.255103	0.756615	0.081550	0.091671	0.545280	-0.348312	-0.140366	0.926810	0.377795	-0.925887	0.001756	0.857875	0.350756	0.375528
40275	5.845016	0.499075	1.478861	-0.055525	-0.011878	0.535322	-0.346112	-0.145305	0.926872	0.379216	-0.925302	-0.003452	0.858138	0.350290	0.375361
40276	6.053175	0.508921	1.916374	-0.258077	-0.142752	0.540358	-0.342793	-0.149841	0.927384	0.378850	-0.925409	-0.009486	0.859631	0.348088	0.373991
40277	6.423957	0.216817	2.634186	-0.411333	-0.303036	0.567537	-0.337967	-0.154071	0.928462	0.377279	-0.925956	-0.016323	0.862229	0.344772	0.371070
40278	7.032395	-0.094007	3.629155	-0.510012	-0.458017	0.620774	-0.331629	-0.158286	0.930037	0.374944	-0.926736	-0.024028	0.865701	0.340744	0.366681
40279	7.793093	-0.615158	4.759517	-0.525668	-0.558014	0.669574	-0.324213	-0.162630	0.931900	0.372617	-0.927426	-0.032213	0.869507	0.336798	0.361282
40280	8.731100	-1.044423	5.864417	-0.408043	-0.568764	0.703771	-0.316597	-0.167286	0.933692	0.371307	-0.927635	-0.040298	0.872867	0.333928	0.355801
40281	9.408979	-1.324852	6.945086	-0.136841	-0.489996	0.699436	-0.309642	-0.172164	0.935137	0.372338	-0.926888	-0.047357	0.874921	0.333523	0.351107
40282	9.804111	-1.238537	7.682688	0.244020	-0.355184	0.654890	-0.304088	-0.177010	0.936055	0.376238	-0.925023	-0.052699	0.875200	0.336154	0.347886
40283	9.633456	-0.859582	8.422640	0.653846	-0.216534	0.568913	-0.299960	-0.181555	0.936516	0.383709	-0.921767	-0.055796	0.873379	0.342613	0.346158
40284	9.291435	-0.199457	8.865823	1.046920	-0.094075	0.453795	-0.297352	-0.185444	0.936586	0.394152	-0.917308	-0.056490	0.869613	0.352359	0.345856
40285	8.979827	0.641342	8.699125	1.394004	0.011887	0.313886	-0.296124	-0.188382	0.936388	0.407202	-0.911702	-0.054642	0.864001	0.365119	0.346686
40286	8.601198	1.837448	8.266568	1.659597	0.115824	0.141587	-0.296559	-0.190087	0.935906	0.421677	-0.905352	-0.050265	0.856879	0.379743	0.348646
40287	8.779692	3.411655	7.656719	1.891386	0.225104	-0.050905	-0.298623	-0.190525	0.935160	0.437685	-0.898090	-0.043207	0.848090	0.396403	0.351580
40288	8.478053	4.500090	7.114706	1.970661	0.384027	-0.211042	-0.302858	-0.190141	0.933875	0.453358	-0.890668	-0.034319	0.838298	0.412986	0.355948
40289	8.163973	4.598472	6.261300	1.812619	0.448603	-0.269351	-0.307763	-0.189658	0.932369	0.467678	-0.883535	-0.025350	0.828589	0.428246	0.360619
40290	7.521923	3.989981	5.461458	1.575610	0.438273	-0.268985	-0.312717	-0.189129	0.930827	0.479538	-0.877354	-0.017160	0.819909	0.441000	0.365058
40291	6.651007	3.133393	4.690317	1.313750	0.279405	-0.240898	-0.316091	-0.188287	0.929857	0.489540	-0.871922	-0.010144	0.812673	0.451995	0.367781
40292	5.861458	2.024825	2.940732	0.932619	-0.013961	-0.165457	-0.316872	-0.186699	0.929912	0.496274	-0.868150	-0.005192	0.808272	0.459846	0.367746
40293	3.958058	-0.460416	-2.121074	0.524262	-0.820214	0.071930	-0.309809	-0.183543	0.932915	0.500772	-0.865570	-0.003993	0.808236	0.465940	0.360074
40294	5.592099	-1.665994	-4.911694	0.020757	-1.571193	0.437846	-0.294956	-0.179894	0.938424	0.501939	-0.864866	-0.008029	0.813055	0.468664	0.345393
40295	7.905370	-1.370170	-6.322287	-0.410039	-1.839228	0.625240	-0.276725	-0.176703	0.944563	0.500411	-0.865652	-0.015337	0.820373	0.468426	0.327972
40296	10.015180	-0.951329	-6.297202	-0.730766	-1.921610	0.686467	-0.257505	-0.173605	0.950554	0.495930	-0.868026	-0.024185	0.829304	0.465181	0.309617
40297	11.788486	0.100202	-3.762715	-0.874768	-1.822101	0.687439	-0.238847	-0.171163	0.955853	0.490375	-0.870871	-0.033411	0.838143	0.460746	0.291939
40298	13.105577	0.905948	0.767924	-0.959106	-1.383786	0.636551	-0.224110	-0.170323	0.959565	0.483562	-0.874290	-0.042249	0.846134	0.454541	0.278299
40299	17.131436	2.843427	9.302376	-0.834004	-0.818953	0.497300	-0.214691	-0.170998	0.961596	0.477603	-0.877188	-0.049356	0.851941	0.448666	0.269993
40300	22.852326	3.645024	18.805819	-0.319531	-0.066763	0.125800	-0.213543	-0.171740	0.961720	0.474943	-0.878513	-0.051423	0.853714	0.445781	0.269167
40301	18.270755	-3.430518	11.463615	0.100763	-0.375789	0.239187	-0.209121	-0.172180	0.962612	0.476340	-0.877632	-0.053499	0.854031	0.447343	0.265548
40302	12.181861	-5.106394	-5.196493	1.012012	-1.730354	0.562011	-0.191699	-0.169201	0.966759	0.485858	-0.872222	-0.056314	0.852756	0.458912	0.249412
40303	13.173639	1.846450	-7.630766	1.305047	-2.392396	0.507492	-0.168749	-0.162463	0.972178	0.497917	-0.865271	-0.058170	0.850648	0.474248	0.226907
40304	10.245007	7.156178	-7.337396	0.807692	-1.859080	0.436037	-0.150767	-0.157270	0.975979	0.505311	-0.860803	-0.060652	0.849665	0.484029	0.209251
40305	5.246380	10.037150	-6.622824	0.093536	-1.325798	0.325872	-0.137766	-0.153652	0.978474	0.506603	-0.859823	-0.063692	0.851101	0.486924	0.196296
40306	3.599736	9.824715	-3.811723	-0.682220	-1.242862	0.208343	-0.126092	-0.149340	0.980713	0.501010	-0.862846	-0.066976	0.856207	0.482902	0.183619
40307	5.561936	4.765579	-2.318991	-1.568179	-1.373792	0.220825	-0.113095	-0.144714	0.982989	0.487799	-0.869985	-0.071955	0.865599	0.471363	0.168983
40308	9.590077	-0.930848	-2.727577	-2.302218	-1.613335	0.383073	-0.097178	-0.140494	0.985301	0.468131	-0.880092	-0.079322	0.878299	0.453542	0.151295
40309	13.521272	-4.162973	-2.858934	-2.486201	-1.637114	0.579836	-0.079964	-0.138382	0.987146	0.446673	-0.890297	-0.088622	0.891117	0.433844	0.133003
40310	14.680525	-5.798219	-2.241858	-2.011959	-1.554498	0.698077	-0.062961	-0.137889	0.988445	0.429036	-0.897962	-0.097938	0.901090	0.417912	0.115696
40311	13.166720	-6.829400	-1.654312	-1.310576	-1.453195	0.754568	-0.046550	-0.138700	0.989240	0.417622	-0.902315	-0.106860	0.907428	0.408154	0.099927
40312	10.831478	-6.750065	-0.837557	-0.687071	-1.351190	0.720697	-0.031240	-0.139632	0.989711	0.411597	-0.904136	-0.114567	0.910830	0.403783	0.085717
40313	8.715133	-5.716316	0.148346	-0.173110	-1.266514	0.576329	-0.017253	-0.139749	0.990037	0.410182	-0.904013	-0.120458	0.911840	0.404017	0.072920
40314	7.485497	-4.377389	0.289074	0.150709	-1.220632	0.374557	-0.004537	-0.138115	0.990406	0.411546	-0.902910	-0.124028	0.911378	0.407035	0.060937
40315	7.214206	-3.125327	-0.270646	0.263342	-1.230621	0.186755	0.007518	-0.134787	0.990846	0.413964	-0.901561	-0.125782	0.910262	0.411120	0.049018
40316	8.294404	-2.553674	-0.822559	0.296759	-1.296953	0.059741	0.019619	-0.129910	0.991332	0.416602	-0.900283	-0.126223	0.908877	0.415468	0.036458
40317	9.637556	-2.581049	-1.420732	0.340372	-1.339362	-0.010132	0.031814	-0.124243	0.991742	0.419716	-0.898857	-0.126070	0.907098	0.420261	0.023550
40318	10.709453	-2.676475	-2.026155	0.404077	-1.403312	-0.031003	0.044451	-0.117985	0.992020	0.423264	-0.897247	-0.125679	0.904915	0.425473	0.010055
40319	11.098044	-2.150786	-1.997056	0.442919	-1.445787	0.024472	0.057696	-0.112031	0.992028	0.427273	-0.895306	-0.125958	0.902280	0.431134	-0.003787
40320	10.605968	-1.337631	-1.792275	0.429405	-1.457657	0.120542	0.071410	-0.106743	0.991719	0.430965	-0.893360	-0.127188	0.899539	0.436479	-0.017793
40321	9.891659	-0.773285	-1.129721	0.363778	-1.478984	0.186209	0.085576	-0.101932	0.991104	0.434104	-0.891553	-0.129176	0.896789	0.441297	-0.032046
40322	9.423825	-0.174565	-0.446006	0.212476	-1.479989	0.196858	0.099755	-0.097090	0.990264	0.435708	-0.890475	-0.131197	0.894543	0.444554	-0.046527
40323	9.235522	0.046337	-0.063848	0.016391	-1.429844	0.191818	0.113446	-0.092448	0.989234	0.435667	-0.890205	-0.133156	0.892930	0.446082	-0.060714
40324	9.130476	0.084388	0.042430	-0.163587	-1.371967	0.163187	0.126473	-0.087731	0.988083	0.433970	-0.890810	-0.134642	0.892006	0.445827	-0.074591
40325	9.329272	0.221402	0.292723	-0.327250	-1.287071	0.136563	0.138618	-0.083240	0.986841	0.430885	-0.892134	-0.135776	0.891697	0.444036	-0.087799
40326	9.080463	0.148528	0.263444	-0.501693	-1.198572	0.110700	0.149851	-0.078875	0.985557	0.426197	-0.894292	-0.136373	0.892133	0.440477	-0.100394
40327	9.051498	-0.199228	0.343374	-0.658549	-1.124463	0.087417	0.160334	-0.074752	0.984228	0.420197	-0.897095	-0.136586	0.893156	0.435469	-0.112424
40328	9.679906	-0.608484	0.270801	-0.766376	-1.082814	0.069398	0.170368	-0.070635	0.982846	0.413212	-0.900371	-0.136335	0.894556	0.429351	-0.124208
40329	9.760538	-1.010553	-0.216672	-0.847038	-0.950644	0.067263	0.179231	-0.067213	0.981508	0.405523	-0.903919	-0.135951	0.896341	0.422391	-0.134754
40330	9.856777	-1.456253	-0.547371	-0.870962	-0.876341	0.045229	0.187341	-0.063888	0.980215	0.397646	-0.907531	-0.135150	0.898210	0.415098	-0.144613
40331	9.551447	-1.738533	-0.734256	-0.867873	-0.804256	0.009423	0.194683	-0.060686	0.978987	0.389837	-0.911082	-0.134000	0.900070	0.407733	-0.153715
40332	9.314667	-2.221818	-1.113708	-0.825833	-0.773027	-0.039481	0.201557	-0.057145	0.977808	0.382478	-0.914446	-0.132283	0.901713	0.400652	-0.162456
40333	9.045095	-2.541494	-1.833622	-0.730790	-0.785103	-0.085521	0.208390	-0.053262	0.976594	0.376071	-0.917386	-0.130281	0.902853	0.394418	-0.171144
40334	8.889289	-2.690081	-2.385811	-0.598360	-0.846150	-0.133165	0.215593	-0.048695	0.975268	0.370867	-0.919835	-0.127911	0.903314	0.389272	-0.180251
40335	7.923750	-3.092129	-3.162918	-0.502218	-0.905966	-0.164986	0.223241	-0.043690	0.973784	0.366704	-0.921844	-0.125427	0.903156	0.385091	-0.189772
40336	8.058071	-3.937922	-3.665957	-0.346528	-1.118709	-0.232193	0.232557	-0.037217	0.971870	0.364095	-0.923273	-0.122480	0.901860	0.382337	-0.201163
40337	8.856179	-3.675217	-3.759194	-0.268221	-1.153729	-0.141716	0.242510	-0.031532	0.969636	0.362026	-0.924333	-0.120602	0.900070	0.380281	-0.212745
40338	8.050846	-3.767629	-4.018629	-0.127604	-1.251360	-0.112744	0.253425	-0.025702	0.967013	0.361167	-0.924847	-0.119233	0.897404	0.379470	-0.225097
40339	9.424031	-3.648747	-3.656351	-0.028602	-1.404146	-0.111267	0.265672	-0.019367	0.963869	0.361209	-0.924970	-0.118146	0.893838	0.379547	-0.238743
40340	10.568646	-2.338157	-3.604448	-0.024402	-1.386607	-0.112166	0.277719	-0.013040	0.960574	0.361312	-0.925073	-0.117020	0.890127	0.379566	-0.252199
40341	11.508369	-0.710160	-3.137284	-0.004043	-1.391544	-0.174361	0.289519	-0.006168	0.957152	0.361779	-0.925095	-0.115392	0.886168	0.379686	-0.265602
40342	10.845147	0.578223	-2.076068	-0.027415	-1.289808	-0.248487	0.300111	0.001028	0.953904	0.362206	-0.925228	-0.112958	0.882462	0.379410	-0.278043
40343	9.741381	1.174401	-0.653163	-0.111194	-1.259612	-0.347042	0.310019	0.008989	0.950688	0.362293	-0.925623	-0.109392	0.878995	0.378341	-0.290217
40344	11.548912	1.630612	1.451745	-0.240928	-1.217419	-0.390881	0.319366	0.017221	0.947475	0.361390	-0.926487	-0.104974	0.876015	0.375933	-0.302112
40345	11.180723	1.764102	2.653377	-0.441183	-0.962994	-0.380457	0.326495	0.024325	0.944886	0.358763	-0.928049	-0.100075	0.874466	0.371664	-0.311731
40346	11.186901	1.185250	3.754841	-0.669568	-0.851459	-0.376471	0.332656	0.031008	0.942538	0.354202	-0.930392	-0.094402	0.874003	0.365252	-0.320484
40347	12.116513	0.336536	4.708754	-0.956957	-0.733346	-0.348237	0.337918	0.036875	0.940453	0.347007	-0.933718	-0.088074	0.874870	0.356105	-0.328316
40348	13.176362	-0.225332	5.092472	-1.204675	-0.613181	-0.335209	0.342179	0.042203	0.938687	0.337651	-0.937786	-0.080921	0.876872	0.344639	-0.335141
40349	13.978121	-0.443220	5.580407	-1.374867	-0.439047	-0.336399	0.344988	0.046824	0.937439	0.326736	-0.942279	-0.073177	0.879902	0.331540	-0.340374
40350	13.549910	-0.256013	5.723607	-1.501656	-0.208708	-0.364558	0.345674	0.050968	0.936970	0.314788	-0.946959	-0.064623	0.883979	0.317285	-0.343383
40351	12.485132	0.605074	5.090439	-1.530217	-0.066692	-0.417067	0.345046	0.055105	0.936967	0.302673	-0.951477	-0.055503	0.888444	0.302746	-0.344982
40352	11.387420	1.572656	3.471000	-1.534133	-0.000795	-0.509951	0.343530	0.059985	0.937224	0.290809	-0.955702	-0.045425	0.892982	0.288158	-0.345756
40353	10.685127	2.349053	2.245019	-1.565404	0.020922	-0.633959	0.341605	0.065968	0.937526	0.278972	-0.959693	-0.034121	0.897486	0.273200	-0.346239
40354	10.344234	2.606975	1.460560	-1.619973	0.061696	-0.772079	0.338913	0.073240	0.937963	0.267055	-0.963447	-0.021265	0.902119	0.257695	-0.346084
40355	10.808268	2.609511	0.822829	-1.623238	0.206060	-0.888032	0.334797	0.081263	0.938780	0.255369	-0.966815	-0.007383	0.907027	0.242207	-0.344439
40356	10.894859	2.411160	0.713655	-1.560373	0.417484	-0.979260	0.328508	0.089782	0.940224	0.244458	-0.969633	0.007178	0.912317	0.227488	-0.340480
40357	11.922027	2.116350	1.527865	-1.448524	0.650553	-1.072630	0.320052	0.098724	0.942242	0.234689	-0.971819	0.022106	0.917872	0.214059	-0.334202
40358	12.061968	1.689991	1.762485	-1.279645	0.967375	-1.165448	0.308396	0.108063	0.945100	0.226598	-0.973272	0.037343	0.923875	0.202641	-0.324640
40359	11.552484	1.035199	1.090995	-1.209665	1.176950	-1.200895	0.294877	0.117398	0.948296	0.219016	-0.974307	0.052514	0.930097	0.192207	-0.313013
40360	11.848128	-0.755053	0.576451	-1.310998	1.334034	-1.156683	0.279866	0.126207	0.951707	0.210149	-0.975333	0.067542	0.936756	0.181098	-0.299485
40361	11.540118	-2.606744	-0.763245	-1.450318	1.529694	-0.993752	0.263514	0.133191	0.955416	0.199222	-0.976585	0.081194	0.943860	0.168944	-0.283878
40362	12.084739	-4.401243	-3.026675	-1.420895	1.588836	-0.838126	0.246766	0.138781	0.959086	0.187885	-0.977765	0.093142	0.950687	0.157213	-0.267354
40363	12.839225	-6.234200	-4.271191	-1.294972	1.658175	-0.676690	0.229780	0.142841	0.962703	0.177158	-0.978784	0.102942	0.956983	0.146896	-0.250211
40364	13.346802	-7.837225	-4.404184	-1.025429	1.776237	-0.505565	0.211792	0.145203	0.966468	0.168394	-0.979533	0.110264	0.962698	0.139394	-0.231909
40365	14.309911	-9.033914	-3.759099	-0.417394	1.868645	-0.287665	0.193347	0.145389	0.970298	0.164964	-0.979698	0.113926	0.967163	0.138037	-0.213406
40366	14.071546	-9.047867	-3.850620	0.387553	1.996161	-0.030391	0.173934	0.142742	0.974357	0.168551	-0.979153	0.113357	0.970226	0.144512	-0.194367
40367	13.577967	-7.913552	-4.500496	1.203340	1.984539	0.177302	0.155043	0.137956	0.978228	0.179959	-0.977578	0.109342	0.971379	0.159088	-0.176393
40368	13.048261	-5.735328	-5.025328	1.927386	1.946177	0.287947	0.136688	0.131668	0.981825	0.197936	-0.974771	0.103165	0.970638	0.180237	-0.159302
40369	12.766503	-2.999848	-5.093768	2.452895	1.914070	0.313312	0.118859	0.124882	0.985026	0.221332	-0.970430	0.096324	0.967928	0.206569	-0.142985
40370	12.730794	-0.221826	-4.860030	2.792733	1.893446	0.263586	0.101221	0.117944	0.987848	0.247554	-0.964702	0.089815	0.963572	0.235455	-0.126845
40371	12.629234	2.171262	-4.402640	2.839254	1.908245	0.171676	0.083404	0.111486	0.990260	0.274696	-0.957794	0.084695	0.957907	0.264957	-0.110509
40372	12.744075	3.841547	-3.342753	2.554674	1.943369	0.068328	0.065071	0.105254	0.992314	0.298612	-0.950907	0.081281	0.952154	0.291028	-0.093307
40373	12.675573	4.553387	-3.330346	2.042537	1.939240	0.004267	0.046741	0.099334	0.993956	0.318027	-0.944746	0.079461	0.946929	0.312391	-0.075749
40374	10.882051	5.315349	-3.846162	1.503815	1.867772	-0.038590	0.029000	0.093575	0.995190	0.331785	-0.940065	0.078724	0.942909	0.327906	-0.058309
40375	10.708310	6.169512	-3.570754	1.168482	1.699898	-0.146600	0.012580	0.089243	0.995930	0.342835	-0.936022	0.079544	0.939311	0.340439	-0.042371
40376	10.413526	6.116117	-2.841089	0.874388	1.690623	-0.266018	-0.004168	0.085799	0.996304	0.350588	-0.932950	0.081809	0.936521	0.349633	-0.026192
40377	10.154177	5.119059	-2.293802	0.549298	1.699675	-0.317980	-0.021117	0.082738	0.996348	0.355710	-0.930739	0.084829	0.934358	0.356202	-0.009776
40378	9.329723	3.943870	-2.300333	0.171135	1.680729	-0.291681	-0.037835	0.079386	0.996126	0.356881	-0.930027	0.087673	0.933383	0.358815	0.006856
40379	8.161234	2.808717	-2.497830	-0.158700	1.608900	-0.235447	-0.053616	0.075780	0.995682	0.355317	-0.930408	0.089946	0.933207	0.358606	0.022959
40380	7.526297	1.500284	-2.566394	-0.333654	1.503289	-0.179896	-0.068264	0.072053	0.995062	0.351731	-0.931610	0.091588	0.933609	0.356246	0.038252
40381	7.350451	0.482855	-2.461205	-0.359662	1.440378	-0.126332	-0.082083	0.068091	0.994297	0.348304	-0.932793	0.092633	0.933781	0.353921	0.052850
40382	7.262217	-0.212407	-2.402927	-0.279528	1.418422	-0.056132	-0.095497	0.063598	0.993396	0.345272	-0.933886	0.092979	0.933632	0.351871	0.067225
40383	6.943304	-0.763186	-2.559199	-0.110825	1.404148	-0.006412	-0.108549	0.058692	0.992357	0.344259	-0.934266	0.092913	0.932579	0.351714	0.081208
40384	6.812436	-1.027237	-2.706243	0.084224	1.372637	0.034087	-0.121193	0.053533	0.991184	0.344745	-0.934118	0.092603	0.930840	0.352928	0.094754
40385	6.899766	-1.214197	-2.738527	0.256084	1.327080	0.067892	-0.133222	0.048169	0.989915	0.347241	-0.933238	0.092143	0.928265	0.356014	0.107602
40386	7.130760	-1.229128	-2.621472	0.358216	1.278954	0.105794	-0.144671	0.042611	0.988562	0.350344	-0.932146	0.091451	0.925381	0.359567	0.119926
40387	7.496500	-1.206143	-2.468962	0.394952	1.232211	0.159599	-0.155420	0.036643	0.987169	0.354262	-0.930774	0.090325	0.922141	0.363754	0.131679
40388	7.769046	-1.088856	-2.216485	0.403748	1.192508	0.233048	-0.165524	0.030132	0.985745	0.357961	-0.929531	0.088521	0.918948	0.367511	0.143073
40389	8.070697	-0.920891	-1.931858	0.376299	1.143970	0.323943	-0.174779	0.022872	0.984342	0.361995	-0.928219	0.085844	0.915648	0.371331	0.153954
40390	8.363751	-0.769557	-1.722433	0.329242	1.104375	0.425617	-0.183278	0.014837	0.982949	0.365331	-0.927249	0.082115	0.912657	0.374152	0.164524
40391	8.549202	-0.655579	-1.670126	0.236837	1.039279	0.525152	-0.190750	0.006046	0.981620	0.368503	-0.926406	0.077314	0.909846	0.376478	0.174484
40392	8.585544	-0.540392	-1.644277	0.117333	0.954382	0.621509	-0.197077	-0.003266	0.980383	0.370318	-0.926160	0.071356	0.907758	0.377116	0.183735
40393	8.471355	-0.491143	-1.619211	-0.013026	0.830501	0.715002	-0.201885	-0.013043	0.979322	0.371658	-0.926142	0.064281	0.906153	0.376951	0.191822
40394	8.198517	-0.416702	-1.690477	-0.159018	0.665343	0.795686	-0.204908	-0.022859	0.978514	0.371323	-0.926807	0.056107	0.905612	0.374841	0.198398
40395	8.058604	-0.497001	-1.511164	-0.277053	0.472849	0.857296	-0.205938	-0.032598	0.978022	0.370607	-0.927594	0.047120	0.905671	0.372165	0.203108
40396	7.843845	-0.422875	-1.260415	-0.383840	0.272524	0.902273	-0.205026	-0.041928	0.977858	0.368494	-0.928876	0.037434	0.906740	0.368010	0.205894
40397	7.661432	-0.452026	-0.873705	-0.478307	0.073775	0.931816	-0.202201	-0.050884	0.978021	0.366082	-0.930182	0.027291	0.908349	0.363554	0.206712
40398	7.759182	-0.385382	-0.364181	-0.536030	-0.122121	0.957651	-0.197559	-0.059299	0.978496	0.362592	-0.931798	0.016738	0.910768	0.358102	0.205586
40399	7.768293	-0.421336	0.188554	-0.526986	-0.282753	0.972145	-0.191397	-0.067383	0.979197	0.359708	-0.933045	0.006102	0.913224	0.353393	0.202821
40400	8.029707	-0.637596	0.934137	-0.462679	-0.403593	0.990211	-0.184122	-0.075157	0.980026	0.356789	-0.934174	-0.004609	0.915861	0.348814	0.198817
40401	8.201201	-0.796014	1.632854	-0.372100	-0.441844	0.989537	-0.176476	-0.082896	0.980808	0.355192	-0.934672	-0.015087	0.917984	0.345713	0.194391
40402	8.444521	-0.684516	2.660005	-0.256872	-0.401213	0.965519	-0.169343	-0.090488	0.981394	0.353892	-0.934948	-0.025140	0.919828	0.343050	0.190349
40403	8.858284	-0.646817	3.752601	-0.096057	-0.270202	0.906979	-0.163571	-0.098065	0.981645	0.354548	-0.934410	-0.034268	0.920620	0.342435	0.187612
40404	9.610352	-0.396529	5.331296	0.164488	-0.048227	0.808174	-0.160240	-0.105409	0.981434	0.356788	-0.933242	-0.041980	0.920340	0.343437	0.187151
40405	11.155990	-0.292529	7.798456	0.456523	0.270038	0.685839	-0.160185	-0.112761	0.980625	0.362113	-0.930903	-0.047892	0.918267	0.347425	0.189949
40406	12.360880	-0.301981	10.130755	0.788480	0.647001	0.558333	-0.164086	-0.120176	0.979098	0.369615	-0.927733	-0.051929	0.914582	0.353369	0.196647
40407	12.614629	-0.228662	11.553112	1.203268	0.926561	0.458094	-0.170739	-0.127761	0.976998	0.381380	-0.922838	-0.054029	0.908514	0.363382	0.206290
40408	11.544107	0.945229	10.577042	1.522001	1.049215	0.401794	-0.178718	-0.135290	0.974554	0.395225	-0.916947	-0.054815	0.901031	0.375372	0.217345
40409	10.671862	2.830062	9.000700	1.667265	1.023673	0.336827	-0.186468	-0.142304	0.972100	0.410821	-0.910090	-0.054423	0.892444	0.389211	0.228164
40410	10.342119	4.415781	7.759870	1.571821	1.016406	0.223268	-0.194552	-0.148402	0.969601	0.425161	-0.903565	-0.052986	0.883961	0.401928	0.238885
40411	10.865901	5.411626	6.550759	1.548083	1.106194	0.016933	-0.204135	-0.153090	0.966898	0.438841	-0.897206	-0.049406	0.875070	0.414229	0.250333
40412	10.224580	5.589851	6.729218	1.707242	1.613435	-0.238637	-0.219232	-0.157783	0.962830	0.453170	-0.890399	-0.042728	0.864045	0.426959	0.266706
40413	7.311791	3.719024	3.913554	1.254562	1.350204	-0.200230	-0.231684	-0.161850	0.959233	0.463535	-0.885288	-0.037416	0.855253	0.435969	0.280130
40414	6.193011	2.109836	0.856837	0.894721	0.924383	-0.151951	-0.240281	-0.164596	0.956647	0.470821	-0.881595	-0.033426	0.848877	0.442378	0.289325
40415	5.974457	0.902532	-1.087903	0.662716	0.468931	-0.152243	-0.244899	-0.165360	0.955343	0.476095	-0.878879	-0.030080	0.844605	0.447468	0.293964
40416	6.324337	-0.331660	-2.222114	0.407144	0.098613	-0.125878	-0.246337	-0.164720	0.955084	0.479261	-0.877236	-0.027682	0.842394	0.450915	0.295039
40417	6.451750	-1.716086	-3.841937	0.123769	-0.324572	-0.013698	-0.243595	-0.163151	0.956056	0.480301	-0.876681	-0.027229	0.842598	0.452562	0.291917
40418	6.240915	-2.130930	-5.712983	-0.142057	-0.770953	0.204487	-0.236099	-0.161473	0.958219	0.479642	-0.876965	-0.029600	0.845104	0.452614	0.284499
40419	6.363424	-2.007518	-7.258601	-0.421874	-1.195685	0.460274	-0.223690	-0.160128	0.961417	0.477155	-0.878112	-0.035235	0.849874	0.450863	0.272831
40420	6.410983	-1.903921	-8.666305	-0.689417	-1.425364	0.643032	-0.208443	-0.159395	0.964958	0.472723	-0.880148	-0.043271	0.856204	0.447138	0.258811
40421	6.582351	-2.181279	-7.884315	-0.983088	-1.572569	0.723456	-0.191449	-0.158809	0.968570	0.465743	-0.883345	-0.052775	0.863962	0.441001	0.243079
40422	7.702599	-2.925556	-4.760525	-1.036746	-1.521335	0.666341	-0.175108	-0.158053	0.971780	0.458042	-0.886787	-0.061693	0.871513	0.434313	0.227679
40423	8.813069	-4.307650	-1.030377	-0.855666	-1.319397	0.554987	-0.160971	-0.157308	0.974342	0.451519	-0.889587	-0.069028	0.877621	0.428823	0.214225
40424	11.982874	-3.951079	4.749392	-0.367504	-1.063186	0.440049	-0.149566	-0.156680	0.976259	0.449033	-0.890436	-0.074113	0.880908	0.427287	0.203533
40425	18.063609	-4.605575	12.568725	0.215750	-0.519062	0.422201	-0.143018	-0.158231	0.976990	0.451578	-0.888829	-0.077847	0.880695	0.430054	0.198573
40426	20.117892	-6.060226	6.595525	1.181294	-0.646245	0.514874	-0.134927	-0.159998	0.977852	0.462691	-0.882847	-0.080610	0.876192	0.441567	0.193149
40427	22.135760	-1.369310	-0.641232	2.346205	-1.692474	0.330781	-0.118532	-0.155247	0.980739	0.483590	-0.871673	-0.079535	0.867232	0.464848	0.178397
40428	18.486516	6.321036	1.167018	2.732888	-1.975907	0.113297	-0.100880	-0.146803	0.984008	0.507269	-0.858425	-0.076062	0.855863	0.491483	0.161066
40429	9.662200	12.349962	-0.819400	2.142843	-1.806871	0.144068	-0.084680	-0.138975	0.986669	0.525667	-0.847444	-0.074250	0.846466	0.512371	0.144816
40430	3.833527	15.764458	-3.121234	1.021252	-1.651274	0.040949	-0.070453	-0.130751	0.988909	0.534411	-0.842044	-0.073259	0.842283	0.523322	0.129199
40431	1.733256	15.070385	-3.069580	-0.343777	-1.418103	-0.049626	-0.058678	-0.122930	0.990679	0.531501	-0.843886	-0.073235	0.845023	0.522250	0.114855
40432	2.574373	10.696225	-2.794650	-1.510707	-1.314930	-0.097950	-0.047964	-0.115220	0.992181	0.518833	-0.851682	-0.073822	0.853529	0.511235	0.100630
40433	6.019064	3.056732	-3.743963	-2.404799	-1.407846	0.056779	-0.035493	-0.108656	0.993446	0.498197	-0.863668	-0.076663	0.866337	0.492211	0.084786
40434	8.674804	-3.787101	-4.882889	-2.813393	-1.371025	0.336631	-0.021823	-0.104870	0.994246	0.474007	-0.876689	-0.082066	0.880251	0.469489	0.068841
40435	12.783628	-8.183226	-4.776737	-2.726804	-1.349581	0.541964	-0.007277	-0.103487	0.994604	0.449928	-0.888602	-0.089166	0.893035	0.446851	0.053028
40436	13.943721	-10.271012	-4.214855	-2.183205	-1.219598	0.670962	0.006704	-0.104023	0.994552	0.430592	-0.897345	-0.096758	0.902522	0.428895	0.038776
40437	12.319221	-10.652663	-3.869101	-1.225602	-1.143294	0.671529	0.019980	-0.105237	0.994246	0.419431	-0.901824	-0.103883	0.907567	0.419093	0.026121
40438	10.403101	-9.449960	-2.989028	-0.237549	-1.187877	0.523597	0.033051	-0.104899	0.993934	0.417335	-0.902181	-0.109093	0.908151	0.418409	0.013960
40439	9.363836	-7.245090	-2.166749	0.481561	-1.244934	0.270936	0.045552	-0.102116	0.993729	0.421615	-0.899857	-0.111796	0.905630	0.424064	0.002063
40440	9.459566	-4.211660	-1.739958	0.841360	-1.219676	0.017446	0.056755	-0.096985	0.993666	0.429351	-0.896167	-0.111992	0.901353	0.432988	-0.009221
40441	9.658955	-1.905915	-1.872630	0.930874	-1.198234	-0.171567	0.066857	-0.090225	0.993675	0.437844	-0.892238	-0.110473	0.896562	0.442460	-0.020148
40442	9.878511	-0.749753	-1.987661	0.933447	-1.216710	-0.287486	0.076576	-0.082166	0.993672	0.446523	-0.888247	-0.107859	0.891489	0.451957	-0.031329
40443	10.041163	-0.215790	-1.927624	0.881214	-1.267696	-0.296198	0.086586	-0.073772	0.993509	0.454616	-0.884442	-0.105294	0.886469	0.460782	-0.043042
40444	9.980036	-0.064104	-1.762144	0.761611	-1.298070	-0.242719	0.097064	-0.065530	0.993119	0.461707	-0.881002	-0.103258	0.881706	0.468552	-0.055258
40445	10.178597	-0.234620	-1.617755	0.570132	-1.324286	-0.126220	0.108203	-0.058191	0.992424	0.466868	-0.878378	-0.102406	0.877683	0.474411	-0.067875
40446	9.986663	-0.550815	-1.532954	0.373797	-1.345429	-0.033677	0.119945	-0.051406	0.991449	0.470322	-0.876540	-0.102348	0.874306	0.478576	-0.080959
40447	9.485529	-0.704901	-1.337277	0.194981	-1.371505	0.047170	0.132215	-0.045255	0.990188	0.471979	-0.875568	-0.103037	0.871639	0.480971	-0.094404
40448	9.273026	-0.599248	-1.243758	0.039933	-1.406646	0.069008	0.144899	-0.039000	0.988678	0.472375	-0.875269	-0.103757	0.869406	0.482061	-0.108403
40449	9.352605	-0.103880	-1.041224	-0.121161	-1.378766	0.064611	0.157254	-0.032938	0.987009	0.471238	-0.875817	-0.104307	0.867874	0.481519	-0.122204
40450	9.068963	0.288376	-0.825179	-0.277194	-1.309492	0.008833	0.168764	-0.026631	0.985297	0.468965	-0.877068	-0.104032	0.866943	0.479627	-0.135529
40451	9.717605	0.520739	-0.492960	-0.398466	-1.245573	-0.045736	0.179421	-0.020290	0.983563	0.465604	-0.878971	-0.103068	0.866615	0.476443	-0.148259
40452	10.211109	0.602343	-0.423203	-0.512393	-1.128303	-0.074917	0.188954	-0.014213	0.981883	0.461300	-0.881416	-0.101531	0.866890	0.472128	-0.159991
40453	9.895714	0.189098	-0.465978	-0.585822	-1.017014	-0.122030	0.197287	-0.008375	0.980310	0.456467	-0.884168	-0.099418	0.867592	0.467093	-0.170612
40454	10.230189	-0.419663	-0.176029	-0.563661	-0.932725	-0.174715	0.204684	-0.002425	0.978825	0.451932	-0.886796	-0.096701	0.868252	0.462155	-0.180417
40455	10.689134	-1.047528	0.032528	-0.496689	-0.788533	-0.192231	0.210741	0.002893	0.977538	0.448028	-0.889069	-0.093957	0.868826	0.457765	-0.188659
40456	10.184829	-1.710064	0.085677	-0.365644	-0.652435	-0.205285	0.215581	0.007797	0.976455	0.445444	-0.890649	-0.091233	0.868967	0.454624	-0.195480
40457	9.895773	-1.956123	0.148219	-0.212418	-0.602088	-0.200075	0.219995	0.012295	0.975423	0.444045	-0.891582	-0.088911	0.868577	0.452692	-0.201603
40458	9.611121	-1.718542	-0.204697	-0.095229	-0.590891	-0.163589	0.224485	0.016477	0.974338	0.443568	-0.891997	-0.087112	0.867672	0.451741	-0.207548
40459	8.992581	-0.986315	-0.821018	-0.067694	-0.660789	-0.121085	0.229750	0.020523	0.973033	0.443266	-0.892270	-0.085844	0.866447	0.451035	-0.214096
40460	8.787948	-0.577946	-1.270043	-0.164835	-0.786007	-0.077400	0.236293	0.024836	0.971364	0.442151	-0.892930	-0.084727	0.865256	0.449510	-0.221974
40461	8.891305	-0.624802	-1.623718	-0.350416	-0.897638	-0.058970	0.243870	0.029366	0.969363	0.439271	-0.894474	-0.083414	0.864620	0.446155	-0.231034
40462	9.276651	-0.949483	-1.771225	-0.497694	-0.972115	-0.078074	0.252008	0.034462	0.967111	0.435292	-0.896595	-0.081478	0.864299	0.441509	-0.240950
40463	9.336467	-1.322819	-1.578706	-0.523206	-1.006178	-0.143778	0.260152	0.040152	0.964732	0.431148	-0.898829	-0.078855	0.863963	0.436456	-0.251144
40464	9.757211	-1.688100	-0.995445	-0.408254	-1.050408	-0.325952	0.267894	0.047726	0.962265	0.428607	-0.900401	-0.074666	0.862861	0.432436	-0.261668
40465	11.398442	-0.478505	0.108621	-0.350399	-0.970634	-0.386669	0.274682	0.055372	0.959939	0.426643	-0.901702	-0.070069	0.861699	0.428798	-0.271306
40466	12.013359	1.750026	1.093836	-0.387191	-0.868946	-0.414242	0.280517	0.062699	0.957799	0.423973	-0.903337	-0.065038	0.861137	0.424325	-0.279984
40467	11.613481	2.666774	2.783031	-0.532489	-0.774043	-0.484002	0.285209	0.070321	0.955882	0.420764	-0.905253	-0.058949	0.861170	0.419014	-0.287775
40468	11.612942	2.617924	4.746758	-0.796213	-0.642560	-0.494944	0.288776	0.077374	0.954265	0.414895	-0.908388	-0.051900	0.862827	0.410907	-0.294423
40469	11.845885	2.355351	6.420132	-1.083833	-0.451432	-0.439632	0.290943	0.083188	0.953117	0.406808	-0.912427	-0.044543	0.865944	0.400695	-0.299306
40470	12.318240	1.838742	7.900366	-1.300509	-0.223656	-0.358345	0.291480	0.087370	0.952579	0.396523	-0.917271	-0.037201	0.870522	0.388563	-0.302010
40471	13.100377	1.319978	9.383042	-1.496084	0.066925	-0.286426	0.289848	0.089727	0.952857	0.384295	-0.922723	-0.030009	0.876531	0.374876	-0.301931
40472	13.677220	0.847943	11.320190	-1.703286	0.494599	-0.232253	0.284620	0.090063	0.954400	0.369912	-0.928790	-0.022669	0.884396	0.359496	-0.297668
40473	13.672818	1.121107	11.371863	-1.761303	0.928708	-0.216689	0.275650	0.088791	0.957149	0.354872	-0.934787	-0.015483	0.893355	0.343933	-0.289183
40474	12.576770	2.568098	9.124701	-1.648426	1.200946	-0.269577	0.263962	0.087060	0.960596	0.340059	-0.940368	-0.008218	0.902599	0.328828	-0.277827
40475	12.125738	4.215848	7.411797	-1.501765	1.206558	-0.398272	0.251763	0.086898	0.963880	0.327480	-0.944858	-0.000353	0.910699	0.315740	-0.266338
40476	13.281676	5.236877	6.307867	-1.419123	1.404804	-0.537667	0.237114	0.087618	0.967523	0.315737	-0.948808	0.008544	0.918742	0.303457	-0.252640
40477	14.536737	5.124821	4.258210	-1.311716	1.784555	-0.703892	0.218529	0.088961	0.971767	0.305248	-0.952093	0.018517	0.926860	0.292584	-0.235215
40478	16.352697	4.595049	2.639003	-1.238174	2.186998	-0.889926	0.195391	0.091153	0.976480	0.295512	-0.954868	0.030004	0.935144	0.282699	-0.213510
40479	15.742562	3.107857	0.668177	-1.405786	2.703547	-1.057466	0.166990	0.093741	0.981492	0.284233	-0.957785	0.043118	0.944101	0.271773	-0.186585
40480	14.944248	0.123516	-1.139542	-1.510394	2.940121	-1.190300	0.135850	0.097104	0.985959	0.270040	-0.961134	0.057451	0.953217	0.258443	-0.156792
40481	13.945920	-2.857064	-3.418363	-1.584089	2.992479	-1.248263	0.103989	0.101537	0.989382	0.256392	-0.963890	0.071972	0.960963	0.246185	-0.126267
40482	14.713588	-5.058958	-5.394564	-1.444276	2.964549	-1.276393	0.072098	0.106718	0.991672	0.243534	-0.966049	0.086255	0.967209	0.235287	-0.095640
40483	17.232413	-6.592994	-6.658885	-0.973216	2.902462	-1.211579	0.041135	0.111656	0.992895	0.234808	-0.966986	0.099015	0.971171	0.229067	-0.065995
40484	19.673829	-7.063681	-6.730116	-0.215686	2.973231	-0.982332	0.009833	0.114299	0.993398	0.233016	-0.966358	0.108882	0.972423	0.230407	-0.036136
40485	20.838157	-6.988780	-6.756922	0.660943	2.915191	-0.647228	-0.019953	0.113655	0.993320	0.239430	-0.964065	0.115117	0.970709	0.240127	-0.007976
40486	18.987090	-5.718634	-6.873661	1.391002	2.798158	-0.310159	-0.047890	0.109631	0.992818	0.252780	-0.960273	0.118230	0.966338	0.256627	0.018275
40487	15.517231	-3.322335	-6.841829	1.742272	2.523892	-0.114632	-0.072436	0.103976	0.991939	0.269523	-0.955508	0.119839	0.960266	0.276031	0.041189
40488	12.534314	-0.413506	-5.326154	1.804149	2.318906	-0.098821	-0.094936	0.098218	0.990626	0.286643	-0.950278	0.121688	0.953322	0.295509	0.062062
40489	10.150737	1.328806	-4.569238	1.660001	2.255822	-0.144077	-0.116715	0.092687	0.988831	0.302286	-0.945083	0.124266	0.946045	0.313413	0.082288
40490	7.789452	2.720562	-4.539017	1.387054	2.116771	-0.131136	-0.137093	0.087067	0.986724	0.315140	-0.940540	0.126776	0.939091	0.328336	0.101503
40491	7.104742	3.726171	-4.070797	1.068637	1.923152	-0.143036	-0.155482	0.081957	0.984433	0.324964	-0.936843	0.129320	0.932858	0.340012	0.119029
40492	7.739352	3.663886	-3.159706	0.748279	1.835650	-0.172460	-0.173133	0.077203	0.981868	0.331620	-0.934143	0.131926	0.927391	0.348447	0.136129
40493	8.018554	3.162833	-2.618060	0.493756	1.756189	-0.110610	-0.189678	0.072039	0.979200	0.336018	-0.932321	0.133680	0.922558	0.354385	0.152634
40494	8.004735	2.444996	-2.387184	0.207222	1.664124	-0.094667	-0.205322	0.066963	0.976401	0.337749	-0.931518	0.134908	0.918569	0.357478	0.168644
40495	7.126313	0.854870	-2.377326	0.100315	1.607438	-0.028866	-0.220086	0.061445	0.973543	0.338640	-0.931134	0.135324	0.914814	0.359464	0.184121
40496	6.811021	-0.001860	-2.536978	0.121782	1.541349	0.040082	-0.234018	0.055486	0.970648	0.339869	-0.930712	0.135143	0.910892	0.361519	0.198945
40497	7.137339	-0.453189	-2.119014	0.279206	1.471764	0.093448	-0.247003	0.049247	0.967762	0.342665	-0.929741	0.134771	0.906405	0.364907	0.212774
40498	7.359500	-0.770077	-1.656709	0.438008	1.485035	0.152199	-0.259885	0.042350	0.964710	0.347036	-0.928195	0.134236	0.901124	0.369675	0.226528
40499	7.378938	-0.766483	-1.544967	0.581452	1.525420	0.179835	-0.272887	0.034974	0.961410	0.352773	-0.926090	0.133821	0.895033	0.375677	0.240380
40500	7.373619	-0.547680	-1.272740	0.688314	1.553054	0.192737	-0.286023	0.027275	0.957835	0.359471	-0.923537	0.133642	0.888241	0.382539	0.254348
40501	7.308639	-0.302257	-0.948131	0.732638	1.559334	0.215535	-0.298966	0.019245	0.954070	0.366619	-0.920749	0.133456	0.881027	0.389679	0.268218
40502	7.266298	0.045926	-0.491434	0.716227	1.578322	0.239491	-0.311891	0.010812	0.950056	0.373655	-0.917967	0.133112	0.873559	0.396510	0.282266
40503	7.343495	0.210049	-0.066996	0.680544	1.585507	0.269405	-0.324597	0.001984	0.945850	0.380469	-0.915254	0.132489	0.865956	0.402872	0.296334
40504	7.531258	0.249122	0.267145	0.628051	1.561788	0.321222	-0.336787	-0.007314	0.941552	0.386967	-0.912694	0.131326	0.858388	0.408579	0.310214
40505	7.736214	0.328944	0.417473	0.560049	1.492833	0.391762	-0.347951	-0.017042	0.937358	0.393134	-0.910333	0.129383	0.851103	0.413526	0.323451
40506	7.707226	0.420587	0.525905	0.485481	1.391987	0.463375	-0.357867	-0.027064	0.933380	0.398907	-0.908208	0.126611	0.844277	0.417642	0.335814
40507	7.756192	0.638702	0.366898	0.405733	1.263284	0.528321	-0.366305	-0.037173	0.929752	0.404272	-0.906325	0.123039	0.838084	0.420942	0.347019
40508	7.636997	0.861523	0.210041	0.300974	1.114751	0.587372	-0.373174	-0.047219	0.926559	0.408985	-0.904800	0.118609	0.832750	0.423210	0.356960
40509	7.486408	1.138269	0.091835	0.193597	0.962744	0.628712	-0.378519	-0.057004	0.923837	0.412995	-0.903639	0.113456	0.828347	0.424485	0.365587
40510	7.458778	1.326488	-0.016695	0.086870	0.800851	0.666386	-0.382315	-0.066444	0.921640	0.416284	-0.902846	0.107594	0.824951	0.424798	0.372831
40511	7.618819	1.628070	0.007317	-0.024015	0.644552	0.715114	-0.384571	-0.075654	0.919990	0.418867	-0.902426	0.100884	0.822591	0.424150	0.378736
40512	7.318738	1.786959	0.087982	-0.196393	0.488301	0.764829	-0.385308	-0.084641	0.918898	0.420246	-0.902624	0.093074	0.821542	0.422026	0.383358
40513	7.145424	1.756037	0.294518	-0.383324	0.329101	0.801080	-0.384578	-0.093277	0.918368	0.420219	-0.903507	0.084204	0.821897	0.418299	0.386666
40514	6.913450	1.679587	0.406822	-0.546206	0.166929	0.834212	-0.382377	-0.101531	0.918411	0.418990	-0.904937	0.074403	0.823550	0.413255	0.388568
40515	6.539247	1.599887	0.510874	-0.664844	0.000613	0.860291	-0.378719	-0.109347	0.919030	0.416818	-0.906742	0.063880	0.826338	0.407261	0.388978
40516	6.528139	1.511129	0.764547	-0.729704	-0.175645	0.868138	-0.373577	-0.116532	0.920250	0.414121	-0.908675	0.053047	0.830027	0.400912	0.387718
40517	6.429469	1.490675	1.000308	-0.781477	-0.328229	0.862763	-0.367219	-0.123097	0.921953	0.410852	-0.910732	0.042046	0.834477	0.394226	0.385012
