// General information: 
//  MT Manager version: 2022.2.0 
//  XDA version: 2022.2.0 build 7381 rev 124627 built on 2023-07-19
// Device information: 
//  DeviceId: 00B4CBA7
//  ProductCode: MTW2-3A7G6
//  Firmware Version: 4.6.0
//  Hardware Version: 2.0.0
// Device settings: 
//  Filter Profile: human(46.1)
//  Option Flags: Orientation Smoother Disabled, Position/Velocity Smoother Disabled, Continuous Zero Rotation Update Disabled, AHS Disabled, ICC Disabled
// Coordinate system: ENU
PacketCounter	Acc_X	Acc_Y	Acc_Z	Gyr_X	Gyr_Y	Gyr_Z	Mat[1][1]	Mat[2][1]	Mat[3][1]	Mat[1][2]	Mat[2][2]	Mat[3][2]	Mat[1][3]	Mat[2][3]	Mat[3][3]
20238	9.204056	-2.661213	-4.329956	-0.325256	0.133825	-0.146645	-0.218402	0.004834	0.975847	-0.203817	0.977708	-0.050459	-0.954337	-0.209915	-0.212548
20239	9.842317	-2.088257	-3.139171	0.143890	0.181235	-0.158591	-0.216334	0.003628	0.976313	-0.205531	0.977414	-0.049174	-0.954441	-0.211300	-0.210702
20240	9.929065	-0.388153	-2.090773	0.135790	0.192242	-0.138276	-0.214281	0.002660	0.976769	-0.207076	0.977142	-0.048089	-0.954570	-0.212570	-0.208832
20241	9.967283	0.088731	-1.735753	-0.094213	0.172637	-0.110248	-0.212390	0.001911	0.977183	-0.206407	0.977348	-0.046774	-0.955137	-0.211632	-0.207185
20242	9.862958	0.057600	-1.781089	-0.136780	0.173792	-0.089471	-0.210610	0.001375	0.977569	-0.205249	0.977647	-0.045595	-0.955780	-0.210248	-0.205620
20243	9.643777	0.324670	-1.959371	-0.145400	0.167728	-0.076918	-0.208835	0.000937	0.977950	-0.204015	0.977956	-0.044503	-0.956434	-0.208811	-0.204040
20244	9.511823	0.365549	-2.413338	-0.120380	0.184072	-0.078587	-0.206978	0.000500	0.978345	-0.203076	0.978198	-0.043462	-0.957037	-0.207674	-0.202364
20245	9.248681	0.463467	-2.548969	-0.134693	0.199909	-0.066421	-0.204916	0.000226	0.978779	-0.201918	0.978480	-0.042500	-0.957726	-0.206342	-0.200461
20246	9.357863	0.296791	-2.705875	-0.227976	0.208541	-0.051581	-0.202877	0.000117	0.979204	-0.199793	0.978958	-0.041511	-0.958605	-0.204060	-0.198585
20247	9.823859	0.259058	-2.577115	-0.360736	0.252302	-0.036843	-0.200371	0.000229	0.979720	-0.196402	0.979691	-0.040397	-0.959832	-0.200513	-0.196256
20248	9.271536	0.204575	-2.359802	-0.610137	0.272381	-0.011124	-0.197798	0.000616	0.980243	-0.190544	0.980901	-0.039066	-0.961545	-0.194506	-0.193903
20249	9.437103	-0.886204	-2.461880	-0.696706	0.261678	-0.007311	-0.195253	0.001007	0.980752	-0.183847	0.982235	-0.037610	-0.963367	-0.187652	-0.191599
20250	9.659094	-1.077668	-2.403069	-0.597231	0.275819	-0.008557	-0.192646	0.001401	0.981267	-0.178042	0.983351	-0.036358	-0.964981	-0.181711	-0.189189
20251	9.392745	-1.637073	-2.280337	-0.570445	0.270506	-0.030650	-0.189967	0.001546	0.981789	-0.172586	0.984375	-0.034943	-0.966502	-0.176081	-0.186732
20252	9.254337	-2.106159	-2.180952	-0.393882	0.274342	-0.058414	-0.187285	0.001420	0.982305	-0.168821	0.985073	-0.033612	-0.967690	-0.172129	-0.184250
20253	9.102782	-1.274728	-1.560745	-0.251484	0.269740	-0.076783	-0.184532	0.001087	0.982826	-0.166523	0.985507	-0.032356	-0.968616	-0.169634	-0.181677
20254	9.180669	-1.013175	-1.162838	-0.293744	0.225479	-0.073239	-0.182301	0.000702	0.983243	-0.163832	0.985999	-0.031080	-0.969498	-0.166753	-0.179633
20255	9.661636	0.028006	-0.660587	-0.237739	0.200566	-0.060683	-0.180245	0.000398	0.983622	-0.161630	0.986395	-0.030017	-0.970251	-0.164393	-0.177728
20256	9.600754	0.982043	-0.403352	-0.412075	0.160439	-0.050594	-0.178677	0.000111	0.983908	-0.157771	0.987057	-0.028763	-0.971176	-0.160372	-0.176347
20257	9.774225	0.735213	-0.388504	-0.497268	0.113734	-0.044416	-0.177491	-0.000186	0.984122	-0.153012	0.987844	-0.027410	-0.972154	-0.155448	-0.175362
20258	9.884319	0.862673	-0.016542	-0.491809	0.066565	-0.034399	-0.176863	-0.000483	0.984235	-0.148388	0.988583	-0.026180	-0.972985	-0.150679	-0.174915
20259	9.704941	-0.255466	-0.342511	-0.536225	0.020955	-0.043488	-0.176584	-0.000920	0.984285	-0.143239	0.989378	-0.024773	-0.973807	-0.145363	-0.174840
20260	9.849152	-0.539971	-0.497424	-0.263579	-0.002291	-0.060220	-0.176583	-0.001532	0.984285	-0.140655	0.989775	-0.023693	-0.974184	-0.142629	-0.174993
20261	9.830600	-0.036909	-0.582647	-0.144443	-0.040243	-0.057996	-0.176882	-0.002201	0.984230	-0.139344	0.989981	-0.022828	-0.974318	-0.141184	-0.175417
20262	9.898645	-0.077823	-1.034466	-0.083651	-0.066642	-0.044998	-0.177524	-0.002794	0.984113	-0.138669	0.990090	-0.022204	-0.974298	-0.140407	-0.176152
20263	9.788885	0.266704	-1.285759	-0.021248	-0.077487	-0.033279	-0.178222	-0.003270	0.983985	-0.138515	0.990120	-0.021797	-0.974192	-0.140181	-0.176914
20264	9.506385	0.109550	-1.622000	-0.062138	-0.101919	-0.025340	-0.179228	-0.003713	0.983800	-0.137985	0.990203	-0.021401	-0.974083	-0.139585	-0.177985
20265	9.462732	0.003060	-1.808333	0.021372	-0.103965	-0.009372	-0.180217	-0.003989	0.983619	-0.138204	0.990175	-0.021306	-0.973869	-0.139780	-0.178997
20266	9.616868	0.098881	-1.894560	0.044380	-0.112431	-0.001422	-0.181358	-0.004191	0.983408	-0.138583	0.990121	-0.021337	-0.973604	-0.140154	-0.180147
20267	9.761729	0.367064	-2.015542	0.072610	-0.107418	0.016950	-0.182416	-0.004213	0.983212	-0.139253	0.990021	-0.021594	-0.973310	-0.140854	-0.181182
20268	9.771912	0.566637	-2.144031	0.040400	-0.099814	0.035487	-0.183483	-0.004045	0.983015	-0.139571	0.989968	-0.021978	-0.973064	-0.141233	-0.182207
20269	9.697006	0.361607	-2.404784	0.000038	-0.096643	0.052250	-0.184485	-0.003703	0.982828	-0.139470	0.989972	-0.022450	-0.972889	-0.141216	-0.183151
20270	9.589785	-0.224388	-2.449764	-0.002801	-0.095422	0.062127	-0.185549	-0.003264	0.982630	-0.139305	0.989982	-0.023016	-0.972711	-0.141156	-0.184145
20271	9.576556	-1.163127	-2.429258	0.068690	-0.104223	0.054954	-0.186628	-0.002906	0.982426	-0.139864	0.989888	-0.023642	-0.972424	-0.141819	-0.185147
20272	9.465135	-1.430272	-2.155352	0.322911	-0.102364	0.044189	-0.187734	-0.002657	0.982216	-0.142899	0.989431	-0.024637	-0.971769	-0.144983	-0.186130
20273	9.486009	-0.194390	-1.363018	0.503088	-0.105996	0.045156	-0.188818	-0.002404	0.982009	-0.147695	0.988692	-0.025978	-0.970842	-0.149943	-0.187038
20274	9.525871	0.675037	-0.512914	0.427139	-0.150212	0.059244	-0.190413	-0.002086	0.981702	-0.151705	0.988048	-0.027325	-0.969912	-0.154132	-0.188453
20275	9.606811	0.707323	0.015699	0.322251	-0.206529	0.086208	-0.192535	-0.001594	0.981289	-0.154658	0.987550	-0.028741	-0.969026	-0.157298	-0.190385
20276	9.580017	0.662134	0.261538	0.268515	-0.258859	0.103978	-0.195246	-0.001020	0.980754	-0.157036	0.987130	-0.030236	-0.968101	-0.159917	-0.192893
20277	9.435924	0.505250	0.410086	0.234413	-0.320611	0.111735	-0.198513	-0.000471	0.980098	-0.159079	0.986755	-0.031746	-0.967102	-0.162215	-0.195959
20278	9.306200	0.254101	0.463991	0.268071	-0.390094	0.117502	-0.202506	-0.000009	0.979281	-0.161481	0.986311	-0.033383	-0.965875	-0.164896	-0.199736
20279	9.412892	0.407782	0.471460	0.347035	-0.454587	0.124122	-0.207084	0.000419	0.978323	-0.164571	0.985735	-0.035258	-0.964382	-0.168305	-0.204061
20280	9.402495	0.710526	0.553090	0.335120	-0.528432	0.152664	-0.212451	0.001005	0.977171	-0.167365	0.985185	-0.037401	-0.962732	-0.171491	-0.209135
20281	9.184437	0.493877	0.365341	0.270811	-0.613329	0.177379	-0.218637	0.001655	0.975805	-0.169583	0.984717	-0.039666	-0.960958	-0.174152	-0.215015
20282	9.476162	0.223722	0.011520	0.268099	-0.681131	0.196772	-0.225527	0.002378	0.974234	-0.171606	0.984265	-0.042128	-0.959004	-0.176685	-0.221571
20283	9.518202	-0.056506	-0.485982	0.273689	-0.732158	0.216505	-0.232902	0.003167	0.972495	-0.173727	0.983774	-0.044810	-0.956857	-0.179385	-0.228573
20284	9.336283	-0.107596	-0.962067	0.264759	-0.789226	0.242309	-0.240876	0.004071	0.970547	-0.175687	0.983288	-0.047728	-0.954522	-0.182009	-0.236135
20285	9.399132	-1.071452	-2.131843	0.296563	-0.833367	0.252130	-0.249253	0.004983	0.968426	-0.177893	0.982736	-0.050843	-0.951960	-0.184949	-0.244063
20286	9.789631	-0.425815	-2.225212	0.652571	-0.834156	0.274357	-0.257676	0.006064	0.966212	-0.183371	0.981500	-0.055063	-0.948672	-0.191364	-0.251797
20287	9.382341	0.729401	-1.347540	0.440009	-0.840837	0.311545	-0.266204	0.007456	0.963888	-0.186720	0.980631	-0.059153	-0.945659	-0.195724	-0.259656
20288	9.093672	0.153073	-1.646436	0.333318	-0.902378	0.334817	-0.275348	0.008912	0.961303	-0.188932	0.979954	-0.063201	-0.942596	-0.199023	-0.268145
20289	9.481129	-0.063635	-0.875911	0.424737	-0.979515	0.351064	-0.285219	0.010343	0.958406	-0.191942	0.979069	-0.067687	-0.939046	-0.203264	-0.277264
20290	9.756609	0.686688	-0.211277	0.679047	-1.020284	0.373417	-0.295496	0.011876	0.955270	-0.197097	0.977653	-0.073123	-0.934791	-0.209889	-0.286552
20291	9.922622	2.491360	1.218020	0.480463	-1.085777	0.422269	-0.306449	0.013660	0.951789	-0.200307	0.976583	-0.078509	-0.930573	-0.214709	-0.296536
20292	9.693032	1.517076	1.006886	0.222077	-1.207691	0.463244	-0.318563	0.015628	0.947773	-0.200624	0.976101	-0.083528	-0.926427	-0.216755	-0.307814
20293	10.411270	0.942048	1.041921	0.249341	-1.321690	0.488184	-0.331744	0.017472	0.943208	-0.201340	0.975480	-0.088885	-0.921633	-0.219393	-0.320091
20294	10.689114	-0.503028	1.098739	0.190075	-1.434945	0.489691	-0.345873	0.019091	0.938087	-0.201251	0.975015	-0.094045	-0.916444	-0.221319	-0.333390
20295	10.503399	-2.742548	0.874063	0.529322	-1.566461	0.473374	-0.361124	0.020157	0.932300	-0.204413	0.973740	-0.100232	-0.909838	-0.226770	-0.347521
20296	10.963350	-2.776935	0.961597	1.004956	-1.689713	0.443153	-0.377300	0.020530	0.925864	-0.211796	0.971345	-0.107848	-0.901547	-0.236786	-0.362140
20297	12.001167	-1.602349	0.870079	1.245478	-1.790527	0.450608	-0.394319	0.020513	0.918745	-0.221229	0.968230	-0.116568	-0.891948	-0.249218	-0.377253
20298	13.964559	-0.922765	1.733294	1.071991	-1.903546	0.486759	-0.412240	0.020328	0.910849	-0.228778	0.965409	-0.125088	-0.881884	-0.259948	-0.393329
20299	13.696474	-2.320527	1.249700	0.855791	-2.025003	0.586299	-0.431334	0.020593	0.901957	-0.233812	0.963031	-0.133801	-0.871369	-0.268601	-0.410573
20300	13.330729	-1.561663	2.024561	0.866705	-2.169161	0.654004	-0.451579	0.020919	0.891986	-0.238444	0.960534	-0.143242	-0.859780	-0.277373	-0.428769
20301	13.652976	-1.086043	1.976780	0.641569	-2.293611	0.747197	-0.472936	0.021615	0.880832	-0.240473	0.958579	-0.152637	-0.847646	-0.284004	-0.448149
20302	13.941453	-0.740748	1.742236	0.398151	-2.377746	0.844056	-0.494875	0.022856	0.868663	-0.239766	0.957256	-0.161781	-0.835231	-0.288338	-0.468242
20303	14.550030	0.184302	1.063864	0.188525	-2.437982	0.920705	-0.517262	0.024572	0.855474	-0.236677	0.956497	-0.170580	-0.822450	-0.290706	-0.488944
20304	14.601540	0.704138	0.013120	-0.209763	-2.456645	0.979827	-0.539485	0.026780	0.841569	-0.229825	0.956857	-0.177778	-0.810022	-0.289322	-0.510056
20305	13.749608	0.819105	-1.800979	-0.606459	-2.428540	0.999805	-0.561245	0.029355	0.827129	-0.219456	0.958321	-0.182922	-0.798024	-0.284183	-0.531411
20306	12.741380	0.787915	-3.628738	-0.968220	-2.402966	0.920988	-0.582115	0.031420	0.812499	-0.206567	0.960755	-0.185148	-0.786430	-0.275613	-0.552780
20307	11.773662	0.075134	-5.772975	-1.256161	-2.381791	0.755455	-0.602204	0.032224	0.797692	-0.192298	0.963911	-0.184111	-0.774837	-0.264267	-0.574274
20308	10.799449	-0.241393	-8.452228	-1.340948	-2.320910	0.518079	-0.620882	0.031182	0.783283	-0.178868	0.967214	-0.180286	-0.763224	-0.252041	-0.594949
20309	10.548149	-0.371871	-9.961784	-1.336055	-2.213887	0.249375	-0.638072	0.028117	0.769463	-0.167192	0.970430	-0.174104	-0.751606	-0.239739	-0.614503
20310	10.338881	-2.168829	-10.750809	-1.234300	-1.991959	0.034516	-0.652868	0.023732	0.757100	-0.157809	0.973316	-0.166592	-0.740851	-0.228240	-0.631702
20311	9.138036	-4.268412	-10.466701	-0.561689	-1.596879	-0.064852	-0.664510	0.019460	0.747026	-0.154117	0.974601	-0.162481	-0.731214	-0.223100	-0.644633
20312	9.565366	-4.188374	-8.036000	0.104370	-1.083356	-0.141581	-0.672057	0.015599	0.740335	-0.155871	0.974398	-0.162026	-0.723909	-0.224287	-0.652420
20313	8.883914	-3.122207	-5.356152	0.468932	-0.515770	-0.272278	-0.675338	0.011742	0.737415	-0.161106	0.973377	-0.163043	-0.719697	-0.228911	-0.655466
20314	7.414662	-0.748851	-4.661280	0.382114	0.007544	-0.482353	-0.674376	0.007013	0.738355	-0.167159	0.972544	-0.161913	-0.719218	-0.232613	-0.654688
20315	6.432715	-1.318666	-6.278231	0.127243	0.459809	-0.731655	-0.669807	0.000934	0.742535	-0.173010	0.972280	-0.157287	-0.722099	-0.233818	-0.651078
20316	5.847704	-2.656110	-7.787738	0.278329	0.898047	-0.906380	-0.661573	-0.005817	0.749858	-0.181109	0.971607	-0.152249	-0.727682	-0.236530	-0.643843
20317	5.462545	-3.555426	-8.215143	0.746870	1.345435	-1.004153	-0.649842	-0.012369	0.759969	-0.193171	0.969725	-0.149396	-0.735113	-0.243888	-0.632557
20318	4.969323	-3.701986	-7.751280	1.169943	1.785449	-1.070132	-0.634369	-0.018321	0.772814	-0.208740	0.966642	-0.148430	-0.744314	-0.255477	-0.617031
20319	4.679233	-3.199547	-7.191833	1.532453	2.200300	-1.134594	-0.615389	-0.023512	0.787873	-0.227332	0.962375	-0.148844	-0.754730	-0.270705	-0.597580
20320	4.455221	-2.165568	-6.392079	1.685035	2.551225	-1.178333	-0.593078	-0.027746	0.804667	-0.247306	0.957371	-0.149265	-0.766223	-0.287525	-0.574658
20321	4.496569	-1.375494	-6.032099	1.509724	2.848760	-1.196416	-0.567982	-0.030799	0.822464	-0.265929	0.952568	-0.147975	-0.778895	-0.302764	-0.549232
20322	4.716835	-1.294288	-6.311004	1.195104	3.098655	-1.168881	-0.540318	-0.032380	0.840838	-0.281833	0.948508	-0.144579	-0.792860	-0.315094	-0.521622
20323	5.223238	-1.995637	-6.909489	0.899082	3.296558	-1.095132	-0.510761	-0.032240	0.859118	-0.294794	0.945281	-0.139787	-0.807601	-0.324661	-0.492317
20324	5.670121	-2.555511	-6.634164	0.975349	3.461637	-0.971614	-0.479524	-0.030033	0.877014	-0.307580	0.941764	-0.135925	-0.821858	-0.334932	-0.460836
20325	6.078831	-1.319801	-5.845047	0.970550	3.620650	-0.821272	-0.446923	-0.025477	0.894210	-0.319436	0.938239	-0.132921	-0.835596	-0.345048	-0.427459
20326	6.242212	0.134271	-5.156375	0.416262	3.715930	-0.638875	-0.413437	-0.018597	0.910343	-0.325715	0.936655	-0.128790	-0.850282	-0.349759	-0.393305
20327	6.148592	-0.297070	-5.036228	-0.448860	3.731976	-0.479903	-0.379820	-0.010145	0.925005	-0.323769	0.938152	-0.122655	-0.866551	-0.346074	-0.359614
20328	5.993218	-2.530059	-5.566074	-1.056042	3.704399	-0.368642	-0.346130	-0.001016	0.938186	-0.315883	0.941739	-0.115521	-0.883410	-0.336342	-0.326285
20329	5.755170	-4.532132	-6.185810	-1.083277	3.694506	-0.313297	-0.312207	0.008229	0.949978	-0.307259	0.945343	-0.109168	-0.898954	-0.325973	-0.292614
20330	5.690236	-5.053069	-6.275813	-0.882379	3.692509	-0.313909	-0.277722	0.017090	0.960509	-0.300202	0.948225	-0.103673	-0.912551	-0.317139	-0.258213
20331	5.811158	-5.340823	-6.503096	-0.723432	3.681307	-0.338792	-0.242884	0.025373	0.969723	-0.294436	0.950569	-0.098619	-0.924291	-0.309475	-0.223407
20332	6.076741	-5.538648	-6.592379	-0.326890	3.635741	-0.388286	-0.207906	0.032826	0.977598	-0.292278	0.951691	-0.094115	-0.933461	-0.305297	-0.188268
20333	6.835311	-4.952448	-6.700245	0.307454	3.590907	-0.427271	-0.173002	0.039718	0.984120	-0.295966	0.950911	-0.090407	-0.939401	-0.306906	-0.152754
20334	7.215429	-2.936097	-6.026222	0.993155	3.515038	-0.448028	-0.138542	0.046370	0.989270	-0.306004	0.948020	-0.087291	-0.941896	-0.314814	-0.117152
20335	7.724068	-0.506354	-5.153233	1.139973	3.375279	-0.441305	-0.105344	0.052939	0.993026	-0.317275	0.944605	-0.084015	-0.942464	-0.323913	-0.082713
20336	8.056003	0.389378	-4.772988	0.925262	3.169227	-0.430853	-0.074060	0.059229	0.995493	-0.326374	0.941822	-0.080316	-0.942335	-0.330851	-0.050421
20337	8.400269	0.562999	-4.143236	0.846225	2.890199	-0.427543	-0.045406	0.064824	0.996863	-0.334588	0.939269	-0.076319	-0.941270	-0.337004	-0.020959
20338	8.938024	0.920481	-3.568646	0.884069	2.571767	-0.449761	-0.019684	0.069328	0.997400	-0.343035	0.936569	-0.071870	-0.939116	-0.343557	0.005347
20339	9.245344	1.726431	-2.328479	0.864744	2.223188	-0.460541	0.002782	0.072697	0.997350	-0.351170	0.933905	-0.067092	-0.936308	-0.350053	0.028127
20340	9.669621	1.654853	-1.251589	0.476097	1.827812	-0.451213	0.021484	0.074874	0.996962	-0.355554	0.932572	-0.062376	-0.934409	-0.353134	0.046657
20341	9.616927	1.102781	-0.116458	0.273980	1.391525	-0.425751	0.036016	0.075794	0.996473	-0.357976	0.931931	-0.057947	-0.933036	-0.354626	0.060697
20342	9.349133	0.866362	0.982806	-0.168968	0.894246	-0.405610	0.045819	0.075128	0.996121	-0.356218	0.932843	-0.053970	-0.933279	-0.352363	0.069504
20343	8.797687	-1.158385	-0.644369	-0.604927	0.409621	-0.392507	0.051052	0.072858	0.996035	-0.350361	0.935255	-0.050454	-0.935222	-0.346396	0.073273
20344	8.225175	-1.474628	-1.883086	-0.412880	-0.003826	-0.377586	0.052340	0.069263	0.996224	-0.346287	0.936953	-0.046949	-0.936668	-0.342522	0.073025
20345	8.060748	-0.160168	-3.134447	-0.459135	-0.293480	-0.311381	0.050679	0.065308	0.996577	-0.341806	0.938733	-0.044136	-0.938403	-0.338400	0.069897
20346	7.638522	0.645931	-4.349239	-0.872795	-0.487209	-0.207007	0.046796	0.061683	0.996998	-0.333485	0.941792	-0.042615	-0.941593	-0.330490	0.064642
20347	7.261190	1.102886	-5.373016	-1.250851	-0.583331	-0.093331	0.041615	0.058872	0.997398	-0.321624	0.945917	-0.042415	-0.945953	-0.319022	0.058299
20348	7.406832	2.433315	-5.543959	-1.546284	-0.622306	0.023681	0.035619	0.057097	0.997733	-0.306950	0.950733	-0.043449	-0.951059	-0.304706	0.051390
20349	8.257889	3.170778	-4.824435	-2.085157	-0.609353	0.150276	0.029375	0.056697	0.997959	-0.287085	0.956804	-0.045909	-0.957455	-0.285151	0.044383
20350	9.364602	2.352264	-3.814768	-2.872046	-0.502576	0.239187	0.023855	0.057556	0.998057	-0.259518	0.964473	-0.049416	-0.965444	-0.257835	0.037944
20351	10.261316	-2.160311	-3.563353	-3.232260	-0.283308	0.174400	0.020698	0.058522	0.998072	-0.228205	0.972209	-0.052273	-0.973393	-0.226683	0.033478
20352	11.612223	-3.944008	-1.920157	-2.377905	0.059605	0.027699	0.021171	0.058840	0.998043	-0.204986	0.977314	-0.053269	-0.978536	-0.203457	0.032752
20353	11.376824	-4.038184	1.001853	-2.272071	0.310112	-0.043223	0.024310	0.058975	0.997963	-0.182678	0.981713	-0.053565	-0.982872	-0.181004	0.034639
20354	10.376678	-8.244827	2.002602	-2.379928	0.404023	-0.068080	0.028352	0.058919	0.997860	-0.159202	0.985785	-0.053682	-0.986839	-0.157340	0.037329
20355	9.562294	-10.632930	2.860702	-1.517398	0.379772	-0.128578	0.032310	0.058180	0.997783	-0.144157	0.988137	-0.052950	-0.989027	-0.142126	0.040314
20356	9.727094	-9.825954	3.759718	-0.671551	0.225654	-0.158348	0.034714	0.056887	0.997777	-0.137438	0.989165	-0.051615	-0.989902	-0.135341	0.042157
20357	11.569416	-8.433954	4.502836	-0.024923	0.004806	-0.099187	0.034909	0.055875	0.997827	-0.137141	0.989258	-0.050597	-0.989936	-0.135077	0.042197
20358	12.166325	-6.488652	4.948246	0.031651	-0.253148	-0.010997	0.032376	0.055412	0.997939	-0.137428	0.989225	-0.050470	-0.989983	-0.135511	0.039642
20359	11.581480	-5.359881	3.556940	0.178727	-0.466828	0.014595	0.027746	0.054881	0.998107	-0.139186	0.988977	-0.050510	-0.989877	-0.137522	0.035078
20360	10.897535	-1.146517	2.747883	0.799727	-0.597923	-0.005555	0.021806	0.053987	0.998304	-0.147074	0.987850	-0.050209	-0.988885	-0.145729	0.029481
20361	10.481166	5.394211	1.704326	1.058510	-0.747184	-0.088034	0.014569	0.051951	0.998543	-0.157503	0.986301	-0.049016	-0.987411	-0.156559	0.022552
20362	11.316804	11.502367	0.951447	0.601568	-0.978858	-0.198834	0.005203	0.048426	0.998813	-0.163399	0.985443	-0.046927	-0.986546	-0.162961	0.013040
20363	10.458839	9.463272	0.047963	-1.001755	-1.115039	-0.191270	-0.005491	0.044737	0.998984	-0.153494	0.987122	-0.045050	-0.988134	-0.153586	0.001447
20364	9.544340	2.026225	-2.422044	-1.312521	-1.002865	-0.199795	-0.015134	0.041249	0.999034	-0.140517	0.989145	-0.042969	-0.989963	-0.141031	-0.009173
20365	9.422618	-0.142967	-2.589782	-0.948960	-0.897877	-0.258590	-0.023665	0.037426	0.999019	-0.131154	0.990546	-0.040215	-0.991080	-0.131977	-0.018533
20366	9.433148	-3.772100	-4.111151	-1.006815	-0.857924	-0.353820	-0.031751	0.032786	0.998958	-0.121253	0.991954	-0.036410	-0.992114	-0.122283	-0.027520
20367	9.828432	-5.150370	-4.841917	-0.126075	-0.743954	-0.415669	-0.038619	0.027718	0.998870	-0.120136	0.992236	-0.032178	-0.992006	-0.121243	-0.034989
20368	9.646385	-2.296017	-3.683653	0.269629	-0.643466	-0.354612	-0.044610	0.023380	0.998731	-0.122941	0.991999	-0.028714	-0.991411	-0.124066	-0.041378
20369	9.790570	-0.727899	-3.226207	-0.192102	-0.651109	-0.231930	-0.050771	0.020239	0.998505	-0.121135	0.992288	-0.026272	-0.991337	-0.122288	-0.047928
20370	10.035852	-1.281032	-3.489025	-0.611237	-0.635155	-0.119065	-0.056978	0.018272	0.998208	-0.115121	0.993043	-0.024749	-0.991716	-0.116325	-0.054478
20371	10.029928	-0.737580	-3.026172	-0.698130	-0.583574	-0.052434	-0.062698	0.017054	0.997887	-0.108216	0.993843	-0.023784	-0.992148	-0.109479	-0.060466
20372	10.024402	-0.448016	-2.554965	-0.759663	-0.560564	-0.040686	-0.068277	0.016031	0.997538	-0.100687	0.994655	-0.022876	-0.992573	-0.102001	-0.066298
20373	10.199411	-0.349304	-2.269827	-0.551484	-0.523801	-0.079436	-0.073389	0.014682	0.997195	-0.095258	0.995217	-0.021663	-0.992744	-0.096580	-0.071640
20374	10.178967	0.737591	-1.549011	-0.244056	-0.483128	-0.126275	-0.078131	0.012939	0.996859	-0.092914	0.995469	-0.020203	-0.992604	-0.094200	-0.076574
20375	10.091829	1.520824	-1.170436	-0.085058	-0.446465	-0.164377	-0.082400	0.010845	0.996540	-0.092191	0.995570	-0.018457	-0.992326	-0.093393	-0.081035
20376	9.861024	1.848964	-0.834890	0.025794	-0.432798	-0.190285	-0.086583	0.008515	0.996208	-0.092592	0.995566	-0.016557	-0.991933	-0.093674	-0.085411
20377	9.794458	1.273112	-0.605850	-0.084283	-0.423385	-0.195164	-0.090593	0.006139	0.995869	-0.091918	0.995661	-0.014499	-0.991637	-0.092852	-0.089635
20378	9.327263	0.170115	-0.357623	-0.059540	-0.421525	-0.182941	-0.094668	0.003891	0.995501	-0.091483	0.995727	-0.012592	-0.991297	-0.092264	-0.093907
20379	9.434935	0.261595	0.169186	-0.013938	-0.438717	-0.140849	-0.098878	0.002045	0.995097	-0.091471	0.995745	-0.011136	-0.990887	-0.092124	-0.098270
20380	9.646330	0.919518	0.407009	-0.108307	-0.451981	-0.085303	-0.103338	0.000745	0.994646	-0.090472	0.995847	-0.010145	-0.990523	-0.091036	-0.102842
20381	9.483608	1.787477	0.399253	-0.416013	-0.466562	-0.021038	-0.107931	0.000082	0.994158	-0.086363	0.996219	-0.009458	-0.990400	-0.086880	-0.107516
20382	9.437387	1.344169	-0.222215	-0.819309	-0.502580	0.025460	-0.112985	-0.000122	0.993597	-0.078209	0.996898	-0.008771	-0.990514	-0.078699	-0.112644
20383	9.468622	0.010081	-1.162017	-0.974714	-0.523931	0.034471	-0.118192	-0.000204	0.992991	-0.068504	0.997619	-0.007949	-0.990625	-0.068963	-0.117924
20384	9.570527	-0.324236	-1.608578	-0.789797	-0.516431	0.021385	-0.123375	-0.000370	0.992360	-0.060644	0.998134	-0.007167	-0.990505	-0.061065	-0.123167
20385	9.562208	0.339933	-1.732642	-0.630176	-0.500209	0.003051	-0.128323	-0.000668	0.991732	-0.054390	0.998499	-0.006365	-0.990240	-0.054757	-0.128166
20386	9.582324	0.632384	-1.842961	-0.591593	-0.496405	-0.016520	-0.133284	-0.001135	0.991077	-0.048545	0.998807	-0.005385	-0.989888	-0.048829	-0.133180
20387	9.725031	0.382985	-2.294228	-0.541762	-0.468707	-0.025124	-0.137904	-0.001641	0.990444	-0.043208	0.999057	-0.004361	-0.989503	-0.043397	-0.137844
20388	9.580967	0.184403	-2.357810	-0.524854	-0.447475	-0.025975	-0.142377	-0.002129	0.989810	-0.038043	0.999271	-0.003323	-0.989081	-0.038128	-0.142354
20389	9.375604	-1.188257	-2.493650	-0.576797	-0.465007	-0.037706	-0.146955	-0.002709	0.989139	-0.032386	0.999473	-0.002074	-0.988613	-0.032339	-0.146965
20390	9.357687	-3.651753	-2.971377	-0.378090	-0.470814	-0.064715	-0.151649	-0.003544	0.988428	-0.028737	0.999587	-0.000825	-0.988017	-0.028529	-0.151688
20391	9.628640	-2.969453	-2.692512	0.307477	-0.438471	-0.090783	-0.155944	-0.004622	0.987755	-0.031905	0.999491	-0.000360	-0.987250	-0.031571	-0.156012
20392	9.889410	-0.260360	-1.983803	0.493779	-0.425530	-0.082282	-0.160179	-0.005623	0.987072	-0.036898	0.999319	-0.000294	-0.986398	-0.036468	-0.160278
20393	9.788175	0.797173	-1.952725	0.292091	-0.442409	-0.069384	-0.164507	-0.006523	0.986354	-0.039883	0.999204	-0.000043	-0.985569	-0.039346	-0.164637
20394	9.594631	0.292102	-2.025075	0.125435	-0.449714	-0.061260	-0.168977	-0.007350	0.985593	-0.041211	0.999150	0.000386	-0.984758	-0.040552	-0.169136
20395	9.427077	-0.494380	-1.892124	0.054754	-0.456027	-0.055573	-0.173435	-0.008130	0.984812	-0.041838	0.999124	0.000880	-0.983956	-0.041050	-0.173624
20396	9.293813	-1.816049	-1.973153	0.127173	-0.472973	-0.066849	-0.178123	-0.009030	0.983967	-0.043197	0.999066	0.001349	-0.983060	-0.042264	-0.178346
20397	9.602069	-1.444775	-1.641327	0.499773	-0.483151	-0.079105	-0.182826	-0.010075	0.983094	-0.048243	0.998835	0.001265	-0.981961	-0.047196	-0.183099
20398	9.788833	0.517824	-1.174194	0.679479	-0.501327	-0.073086	-0.187771	-0.011088	0.982150	-0.055037	0.998484	0.000750	-0.980670	-0.053913	-0.188097
20399	9.778802	1.689352	-1.135023	0.494990	-0.522328	-0.049773	-0.192854	-0.011918	0.981155	-0.059976	0.998200	0.000336	-0.979393	-0.058781	-0.193221
20400	9.490569	1.393310	-1.449621	0.262854	-0.545941	-0.023371	-0.198243	-0.012512	0.980073	-0.062586	0.998040	0.000081	-0.978153	-0.061323	-0.198637
20401	9.436937	0.659689	-1.898732	0.216571	-0.563901	-0.011188	-0.203739	-0.013014	0.978939	-0.064720	0.997903	-0.000204	-0.976884	-0.063398	-0.204155
20402	9.505220	0.259605	-2.156272	0.349353	-0.574267	-0.000339	-0.209403	-0.013427	0.977737	-0.068123	0.997677	-0.000889	-0.975454	-0.066793	-0.209831
20403	9.561298	0.536797	-2.169338	0.510741	-0.580029	0.004857	-0.215051	-0.013819	0.976505	-0.073085	0.997324	-0.001981	-0.973864	-0.071794	-0.215486
20404	9.761050	0.612504	-2.035901	0.521209	-0.573389	0.011066	-0.220696	-0.014172	0.975240	-0.078126	0.996938	-0.003192	-0.972209	-0.076896	-0.221128
20405	9.593773	0.318822	-2.149637	0.577271	-0.567446	0.018850	-0.226214	-0.014476	0.973970	-0.083686	0.996481	-0.004627	-0.970476	-0.082555	-0.226630
20406	9.340381	0.923146	-1.720771	0.610452	-0.591742	0.038575	-0.232040	-0.014636	0.972596	-0.089510	0.995966	-0.006367	-0.968579	-0.088535	-0.232414
20407	9.380691	0.224144	-1.843572	0.471631	-0.628061	0.065372	-0.238168	-0.014594	0.971114	-0.093916	0.995547	-0.008071	-0.966672	-0.093126	-0.238478
20408	9.458018	-0.188132	-1.699734	0.616116	-0.650580	0.078737	-0.244579	-0.014477	0.969521	-0.099670	0.994967	-0.010286	-0.964493	-0.099148	-0.244791
20409	9.643446	0.096882	-1.219098	0.598694	-0.675563	0.095207	-0.251175	-0.014258	0.967837	-0.105198	0.994371	-0.012652	-0.962208	-0.104992	-0.251261
20410	9.536959	-0.312525	-0.964285	0.448995	-0.726157	0.109666	-0.258320	-0.013987	0.965958	-0.109229	0.993906	-0.014819	-0.959865	-0.109338	-0.258274
20411	9.394363	-1.162565	-1.229793	0.607152	-0.769522	0.114558	-0.265814	-0.013751	0.963926	-0.114745	0.993241	-0.017473	-0.957171	-0.115250	-0.265595
20412	9.228556	0.114358	-0.834256	0.939688	-0.814178	0.121770	-0.273782	-0.013556	0.961696	-0.123391	0.992133	-0.021143	-0.953844	-0.124453	-0.273301
20413	9.229610	1.311448	-0.083848	0.780476	-0.877059	0.132351	-0.282290	-0.013407	0.959235	-0.130451	0.991151	-0.024538	-0.950418	-0.132060	-0.281541
20414	9.045243	1.304358	-0.111109	0.648447	-0.947745	0.173246	-0.291548	-0.013011	0.956468	-0.136101	0.990299	-0.028014	-0.946824	-0.138344	-0.290490
20415	8.842524	0.966373	0.060279	0.478025	-1.032549	0.206433	-0.301579	-0.012458	0.953360	-0.140004	0.989654	-0.031356	-0.943106	-0.142931	-0.300203
20416	8.678489	0.475458	0.310400	0.563124	-1.133608	0.232533	-0.312603	-0.011852	0.949810	-0.144588	0.988864	-0.035247	-0.938815	-0.148350	-0.310835
20417	8.906135	1.015646	1.020954	0.588681	-1.252781	0.268176	-0.324717	-0.011133	0.945746	-0.149245	0.988006	-0.039612	-0.933962	-0.154011	-0.322484
20418	9.822228	1.448491	1.356413	0.595280	-1.365817	0.309194	-0.337919	-0.010267	0.941119	-0.153764	0.987108	-0.044441	-0.928530	-0.159728	-0.335142
20419	10.176330	2.017760	1.713383	0.475375	-1.478283	0.355717	-0.352144	-0.009190	0.935901	-0.156937	0.986374	-0.049364	-0.922695	-0.164261	-0.348788
20420	10.418218	2.028093	1.085009	0.317615	-1.599277	0.410469	-0.367497	-0.007843	0.929992	-0.158384	0.985885	-0.054273	-0.916439	-0.167241	-0.363552
20421	10.934903	1.609256	0.400403	0.179528	-1.727338	0.446879	-0.383965	-0.006378	0.923326	-0.158346	0.985617	-0.059040	-0.909669	-0.168874	-0.379453
20422	11.527791	0.423172	-0.958336	0.086743	-1.825350	0.450025	-0.401199	-0.005087	0.915977	-0.157372	0.985499	-0.063456	-0.902371	-0.169607	-0.396182
20423	12.523410	-1.014509	-2.199532	0.149842	-1.866813	0.434142	-0.418642	-0.004026	0.908142	-0.156942	0.985265	-0.067980	-0.894487	-0.170985	-0.413106
20424	13.913409	-2.241145	-1.593301	0.439873	-1.915971	0.444721	-0.436374	-0.003017	0.899760	-0.158964	0.984523	-0.073794	-0.885612	-0.175232	-0.430100
20425	13.904465	-2.297609	-0.606297	0.678939	-1.992237	0.478304	-0.454677	-0.001906	0.890654	-0.162818	0.983325	-0.081014	-0.875648	-0.181849	-0.447405
20426	13.852114	-2.556542	0.571393	0.509916	-2.076637	0.513281	-0.473557	-0.000736	0.880763	-0.164884	0.982395	-0.087831	-0.865192	-0.186817	-0.465341
20427	13.862734	-2.687602	1.459871	0.692403	-2.181174	0.560504	-0.493223	0.000580	0.869903	-0.168132	0.981081	-0.095983	-0.853500	-0.193599	-0.483794
20428	14.191439	-1.335718	2.829077	0.733356	-2.301044	0.666446	-0.513791	0.002537	0.857912	-0.171001	0.979627	-0.105307	-0.840701	-0.200810	-0.502890
20429	14.891084	0.104522	3.551681	0.481040	-2.454757	0.776457	-0.535577	0.005114	0.844471	-0.170947	0.978623	-0.114344	-0.827003	-0.205600	-0.523254
20430	15.759941	0.087863	2.734405	0.160096	-2.594346	0.872828	-0.558244	0.008262	0.829636	-0.167505	0.978237	-0.122452	-0.812592	-0.207327	-0.544711
20431	16.142845	0.478255	0.847583	0.051098	-2.654085	0.930239	-0.581135	0.011811	0.813722	-0.162628	0.978041	-0.130340	-0.797392	-0.208079	-0.566453
20432	15.329052	0.567140	-1.945317	-0.379650	-2.624065	0.944215	-0.603258	0.015597	0.797394	-0.154064	0.978698	-0.135698	-0.782524	-0.204710	-0.588005
20433	13.859068	0.536120	-4.392116	-1.062797	-2.524652	0.873230	-0.624115	0.019073	0.781100	-0.140474	0.980673	-0.136187	-0.768601	-0.194721	-0.609374
20434	11.741704	-0.682094	-7.039929	-1.790820	-2.352535	0.739066	-0.642910	0.021911	0.765628	-0.122171	0.983860	-0.130745	-0.756136	-0.177595	-0.629856
20435	9.126407	-2.796842	-9.524037	-1.735709	-2.298801	0.542371	-0.660753	0.023326	0.750241	-0.105638	0.986679	-0.123714	-0.743133	-0.160998	-0.649487
20436	8.278096	-3.613608	-10.331852	-1.069168	-2.217014	0.361694	-0.677335	0.023398	0.735303	-0.095377	0.988266	-0.119306	-0.729466	-0.150941	-0.667155
20437	6.908115	-2.412863	-10.816696	-0.779120	-1.985409	0.184334	-0.691852	0.022258	0.721696	-0.088499	0.989374	-0.115353	-0.716595	-0.143676	-0.682531
20438	6.306638	-3.607615	-11.894778	-0.723722	-1.694039	0.075419	-0.703867	0.020590	0.710033	-0.082857	0.990376	-0.110857	-0.705483	-0.136860	-0.695387
20439	8.287918	-5.356545	-8.190126	-0.046322	-1.155334	0.022254	-0.711982	0.019193	0.701935	-0.082392	0.990438	-0.110653	-0.697347	-0.136617	-0.703593
20440	8.562985	-3.566154	-4.131636	0.586996	-0.481536	0.005629	-0.715248	0.018547	0.698624	-0.086462	0.989620	-0.114792	-0.693501	-0.142509	-0.706220
20441	6.172095	0.132263	-4.781186	0.338998	0.092124	-0.108861	-0.714506	0.017565	0.699409	-0.089610	0.989153	-0.116386	-0.693867	-0.145832	-0.705182
20442	4.813021	-1.710126	-7.461293	-0.303735	0.465997	-0.385043	-0.710827	0.014401	0.703220	-0.090269	0.989655	-0.111511	-0.697551	-0.142744	-0.702173
20443	4.351172	-5.223574	-9.068352	0.261617	0.864175	-0.619108	-0.704187	0.009481	0.709951	-0.096499	0.989355	-0.108928	-0.703426	-0.145215	-0.695776
20444	4.249442	-5.265774	-8.453432	1.269079	1.355815	-0.711831	-0.693771	0.004477	0.720182	-0.110478	0.987483	-0.112566	-0.711672	-0.157659	-0.684593
20445	4.020651	-4.489969	-7.656689	1.814807	1.831313	-0.730236	-0.679760	0.000290	0.733435	-0.128521	0.984480	-0.119505	-0.722086	-0.175496	-0.669173
20446	4.041107	-3.584250	-7.314463	2.085274	2.232647	-0.766642	-0.662356	-0.003105	0.749183	-0.148870	0.980596	-0.127553	-0.734250	-0.196016	-0.649966
20447	3.911919	-2.559351	-6.948979	2.264561	2.565760	-0.831481	-0.642005	-0.005961	0.766677	-0.171086	0.975869	-0.135678	-0.747368	-0.218274	-0.627533
20448	4.105127	-0.916443	-6.398407	2.242509	2.862590	-0.856203	-0.618768	-0.007734	0.785536	-0.193419	0.970669	-0.142799	-0.761390	-0.240297	-0.602115
20449	4.542153	0.106105	-6.413279	1.788755	3.125829	-0.805564	-0.593080	-0.007786	0.805106	-0.212071	0.966154	-0.146878	-0.776712	-0.257850	-0.574658
20450	4.940724	-1.053169	-7.070077	1.147240	3.328276	-0.689901	-0.565360	-0.005677	0.824825	-0.225089	0.963085	-0.147655	-0.793538	-0.269138	-0.545768
20451	5.171433	-2.495765	-6.985191	1.072769	3.501650	-0.551703	-0.535988	-0.001411	0.844225	-0.236742	0.960126	-0.148700	-0.810352	-0.279565	-0.514950
20452	5.486533	-1.905922	-6.531182	1.118703	3.649304	-0.397354	-0.505078	0.005173	0.863058	-0.247978	0.956948	-0.150857	-0.826682	-0.290214	-0.482050
20453	5.806398	-1.128538	-6.006485	0.790704	3.734440	-0.259960	-0.473228	0.013626	0.880835	-0.255859	0.954653	-0.152228	-0.842966	-0.297408	-0.448282
20454	6.225265	-1.651963	-5.818910	0.324967	3.768884	-0.157411	-0.440670	0.023373	0.897365	-0.259351	0.953715	-0.152200	-0.859388	-0.299802	-0.414212
20455	6.668637	-2.498060	-5.944573	0.031162	3.782990	-0.113256	-0.407544	0.033585	0.912568	-0.260106	0.953659	-0.151258	-0.875359	-0.299008	-0.379922
20456	6.797485	-3.190163	-6.071546	-0.049973	3.792488	-0.118530	-0.373687	0.043753	0.926522	-0.260129	0.953858	-0.149960	-0.890332	-0.297053	-0.345063
20457	6.875694	-3.173513	-5.978383	-0.066850	3.780720	-0.156556	-0.339341	0.053409	0.939146	-0.260088	0.954138	-0.148239	-0.903992	-0.294565	-0.309887
20458	6.970457	-3.279310	-5.923193	-0.176850	3.743372	-0.206517	-0.304673	0.062390	0.950411	-0.259140	0.954779	-0.145749	-0.916527	-0.290695	-0.274728
20459	7.136405	-3.858331	-6.409311	-0.206596	3.694588	-0.264502	-0.269901	0.070487	0.960305	-0.257992	0.955558	-0.142650	-0.927682	-0.286253	-0.239721
20460	7.300480	-4.376422	-6.845247	0.017607	3.647170	-0.320093	-0.235028	0.077823	0.968868	-0.258955	0.955750	-0.139587	-0.936858	-0.283701	-0.204475
20461	7.439134	-4.288053	-6.704386	0.498232	3.587280	-0.368749	-0.200319	0.084476	0.976082	-0.264438	0.954638	-0.136890	-0.943369	-0.285535	-0.168893
20462	7.491661	-2.954654	-5.995495	0.980206	3.502746	-0.412674	-0.166068	0.090660	0.981938	-0.274442	0.952175	-0.134326	-0.947155	-0.291793	-0.133245
20463	7.655238	-1.552026	-5.321425	1.073802	3.342586	-0.449791	-0.133096	0.096220	0.986421	-0.285290	0.949432	-0.131105	-0.949155	-0.298866	-0.098915
20464	8.062482	-0.881716	-5.007080	1.081734	3.123383	-0.484532	-0.102019	0.101078	0.989634	-0.296110	0.946644	-0.127213	-0.949690	-0.306019	-0.066646
20465	8.387446	-0.474314	-4.523983	1.151946	2.859856	-0.518497	-0.073288	0.105008	0.991767	-0.307490	0.943616	-0.122632	-0.948725	-0.313946	-0.036867
20466	8.420122	-0.020495	-3.607832	1.243543	2.534424	-0.531664	-0.047605	0.108070	0.993003	-0.319572	0.940230	-0.117647	-0.946365	-0.322937	-0.010223
20467	8.162749	0.327081	-2.802282	1.152426	2.160170	-0.537558	-0.025426	0.110057	0.993600	-0.330646	0.937055	-0.112255	-0.943412	-0.331384	0.012564
20468	8.131473	1.504483	-2.733025	1.192787	1.769955	-0.490547	-0.007117	0.111409	0.993749	-0.341934	0.933599	-0.107114	-0.939697	-0.340559	0.031450
20469	8.148786	3.361259	-1.518939	0.720657	1.341060	-0.390882	0.006837	0.112331	0.993647	-0.348685	0.931573	-0.102914	-0.937215	-0.345766	0.045537
20470	7.974580	2.335898	-1.631839	-0.133420	0.890001	-0.273618	0.016122	0.112829	0.993484	-0.347382	0.932350	-0.100249	-0.937585	-0.343502	0.054227
20471	7.762091	0.795934	-2.122151	-0.552337	0.492864	-0.158926	0.021315	0.112990	0.993367	-0.342154	0.934420	-0.098943	-0.939402	-0.337776	0.058577
20472	7.735147	-0.080115	-2.754908	-0.891012	0.143568	-0.068218	0.022882	0.112802	0.993354	-0.333737	0.937478	-0.098769	-0.942389	-0.329259	0.059097
20473	7.299024	-1.142288	-3.873639	-1.113714	-0.141049	-0.014622	0.021617	0.112173	0.993454	-0.323203	0.941113	-0.099230	-0.946083	-0.318942	0.056598
20474	7.145828	-1.159535	-4.398704	-1.076858	-0.357196	0.014684	0.018158	0.111157	0.993637	-0.312981	0.944487	-0.099939	-0.949586	-0.309175	0.051940
20475	8.256417	0.053894	-3.679483	-1.076158	-0.524380	0.025986	0.013108	0.109771	0.993870	-0.302733	0.947742	-0.100684	-0.952985	-0.299558	0.045654
20476	8.683945	1.422771	-2.867978	-1.432604	-0.658449	0.051934	0.006626	0.108297	0.994097	-0.289037	0.951893	-0.101773	-0.957295	-0.286657	0.037609
20477	10.056995	-1.057221	-2.955406	-1.867149	-0.557383	0.053145	0.001143	0.107219	0.994235	-0.271102	0.957035	-0.102895	-0.962550	-0.269421	0.030161
20478	11.488782	-2.739725	-1.972983	-1.682338	-0.279038	0.060824	-0.001758	0.107028	0.994254	-0.254855	0.961377	-0.103939	-0.966978	-0.253573	0.025587
20479	11.103845	-3.693745	-0.605971	-1.795008	-0.071272	0.013293	-0.002466	0.106945	0.994262	-0.237444	0.965767	-0.104469	-0.971398	-0.236339	0.023012
20480	10.565127	-6.118692	-0.515375	-1.553381	0.006456	-0.080506	-0.002273	0.106141	0.994348	-0.222310	0.969415	-0.103988	-0.974973	-0.221290	0.021393
20481	10.435302	-6.864866	0.412249	-0.868917	0.023958	-0.127771	-0.001746	0.104916	0.994480	-0.213819	0.971443	-0.102862	-0.976872	-0.212818	0.020737
20482	11.080502	-4.741414	2.238479	-0.361864	-0.027566	-0.152495	-0.001751	0.103352	0.994643	-0.210262	0.972372	-0.101408	-0.977643	-0.209313	0.020028
20483	12.518176	-3.508791	2.727153	-0.433722	-0.167475	-0.138333	-0.003087	0.101622	0.994818	-0.206009	0.973419	-0.100075	-0.978545	-0.205251	0.017930
20484	12.631921	-2.558113	2.762803	-0.375810	-0.364531	-0.109136	-0.006486	0.099802	0.994986	-0.202310	0.974300	-0.099046	-0.979300	-0.201938	0.013872
20485	11.338966	-0.634377	3.044157	-0.560476	-0.574707	-0.094284	-0.011915	0.097700	0.995145	-0.196813	0.975518	-0.098129	-0.980369	-0.197027	0.007605
20486	10.369761	-0.449938	1.480971	-0.818316	-0.775941	-0.117419	-0.019347	0.095040	0.995285	-0.188777	0.977219	-0.096985	-0.981829	-0.189763	-0.000965
20487	10.314489	0.039405	-0.064585	-0.624651	-0.885273	-0.162171	-0.027729	0.091761	0.995395	-0.182666	0.978546	-0.095296	-0.982784	-0.184467	-0.010372
20488	10.234367	1.501039	-1.239297	-0.457385	-0.917249	-0.224213	-0.036384	0.087876	0.995467	-0.178218	0.979588	-0.092988	-0.983318	-0.180793	-0.019980
20489	9.772880	1.983288	-2.257359	-0.560956	-0.898447	-0.287007	-0.044705	0.083422	0.995511	-0.172804	0.980840	-0.089953	-0.983941	-0.176049	-0.029432
20490	9.450349	1.020504	-2.753836	-0.722380	-0.850681	-0.341084	-0.052547	0.078580	0.995522	-0.165839	0.982370	-0.086296	-0.984752	-0.169631	-0.038589
20491	9.075995	-1.747915	-3.140006	-0.826141	-0.800276	-0.385071	-0.059796	0.073429	0.995506	-0.157904	0.984038	-0.082068	-0.985642	-0.162102	-0.047247
20492	9.225931	-3.675683	-3.227388	-0.380986	-0.722446	-0.412452	-0.066327	0.068183	0.995466	-0.154390	0.984946	-0.077749	-0.985781	-0.158847	-0.054801
20493	9.525099	-2.926673	-2.288804	-0.088886	-0.672412	-0.407695	-0.072314	0.063062	0.995386	-0.153786	0.985359	-0.073599	-0.985455	-0.158398	-0.061557
20494	9.685859	-2.227961	-2.117840	-0.029914	-0.656245	-0.383319	-0.078251	0.058225	0.995232	-0.153759	0.985643	-0.069754	-0.985005	-0.158485	-0.068175
20495	9.979826	-0.729298	-1.568502	-0.041649	-0.660545	-0.338776	-0.084223	0.053801	0.994993	-0.153614	0.985903	-0.066313	-0.984535	-0.158430	-0.074771
20496	10.016872	0.247382	-1.450811	-0.254908	-0.678397	-0.276831	-0.090543	0.049986	0.994637	-0.151327	0.986452	-0.063350	-0.984328	-0.156251	-0.081752
20497	9.801842	0.277441	-1.616625	-0.471137	-0.697365	-0.238416	-0.097041	0.046521	0.994193	-0.146902	0.987297	-0.060537	-0.984379	-0.151924	-0.088974
20498	9.803018	-0.172390	-1.879302	-0.473361	-0.699606	-0.230336	-0.103659	0.043177	0.993675	-0.142456	0.988112	-0.057796	-0.984358	-0.147546	-0.096276
20499	9.855850	-0.281015	-1.775048	-0.268763	-0.695052	-0.245796	-0.110141	0.039692	0.993123	-0.140064	0.988611	-0.055046	-0.983997	-0.145163	-0.103327
20500	9.898420	0.206083	-1.411906	0.008408	-0.695582	-0.270891	-0.116670	0.035980	0.992519	-0.140438	0.988705	-0.052350	-0.983191	-0.145495	-0.110299
20501	9.912136	0.824722	-1.182962	0.223348	-0.705103	-0.275964	-0.123196	0.032180	0.991860	-0.142954	0.988474	-0.049826	-0.982032	-0.147929	-0.117176
20502	10.296553	1.687995	-1.049560	0.280846	-0.683902	-0.246555	-0.129618	0.028695	0.991149	-0.146008	0.988133	-0.047702	-0.980755	-0.150899	-0.123890
20503	10.041913	1.148597	-1.706524	0.172962	-0.660478	-0.249393	-0.135714	0.025190	0.990428	-0.148025	0.987940	-0.045410	-0.979628	-0.152771	-0.130348
20504	9.547529	0.672164	-2.377881	0.250984	-0.634739	-0.229645	-0.141650	0.021911	0.989674	-0.150790	0.987611	-0.043448	-0.978365	-0.155388	-0.136591
20505	9.234196	-0.546889	-2.819457	0.154124	-0.628670	-0.187761	-0.147500	0.019037	0.988879	-0.152561	0.987411	-0.041765	-0.977225	-0.157024	-0.142739
20506	9.479161	-1.535758	-3.467875	0.504039	-0.576060	-0.157501	-0.152948	0.016529	0.988096	-0.157710	0.986637	-0.040917	-0.975569	-0.162090	-0.148297
20507	9.701099	-0.033380	-3.057508	0.619313	-0.528235	-0.133247	-0.157870	0.014305	0.987356	-0.163945	0.985638	-0.040494	-0.973755	-0.168265	-0.153257
20508	9.477246	0.508184	-2.900159	0.369194	-0.500096	-0.096914	-0.162647	0.012465	0.986606	-0.167684	0.985025	-0.040089	-0.972331	-0.171958	-0.158121
20509	9.398568	0.064933	-2.691082	0.087310	-0.478197	-0.073384	-0.167159	0.010881	0.985870	-0.168646	0.984886	-0.039464	-0.971399	-0.172860	-0.162797
20510	9.730187	-0.591733	-2.685876	0.051662	-0.449684	-0.060407	-0.171497	0.009470	0.985139	-0.169243	0.984805	-0.038929	-0.970539	-0.173404	-0.167289
20511	9.843786	-0.336470	-2.422276	0.087515	-0.437181	-0.052409	-0.175637	0.008157	0.984421	-0.170176	0.984661	-0.038521	-0.969635	-0.174290	-0.171555
20512	9.643932	-0.287673	-1.924874	0.051491	-0.434840	-0.045972	-0.179849	0.006908	0.983670	-0.170750	0.984576	-0.038133	-0.968762	-0.174819	-0.175895
20513	9.464244	-0.653194	-1.532786	0.024680	-0.454743	-0.027595	-0.184192	0.005803	0.982873	-0.171032	0.984538	-0.037865	-0.967895	-0.175077	-0.180352
20514	9.506856	-1.295874	-1.420407	0.113044	-0.487213	-0.022490	-0.188942	0.004689	0.981977	-0.172163	0.984342	-0.037826	-0.966779	-0.176207	-0.185176
20515	9.637950	-1.411977	-1.156964	0.430889	-0.521935	-0.027127	-0.193923	0.003453	0.981011	-0.176371	0.983577	-0.038327	-0.965032	-0.180454	-0.190129
20516	9.458421	-0.321920	-0.194709	0.634002	-0.556596	-0.031286	-0.199305	0.002091	0.979935	-0.182537	0.982416	-0.039221	-0.962787	-0.186691	-0.195418
20517	9.449615	0.845960	0.351562	0.587963	-0.599710	-0.004431	-0.205050	0.000873	0.978751	-0.188194	0.981305	-0.040302	-0.960488	-0.192459	-0.201053
20518	9.391527	0.899523	0.261501	0.352593	-0.656910	0.026242	-0.211468	-0.000179	0.977385	-0.191513	0.980623	-0.041256	-0.958438	-0.195907	-0.207405
20519	9.219944	0.274739	-0.387016	0.315200	-0.709236	0.034721	-0.218312	-0.001276	0.975878	-0.194451	0.980003	-0.042219	-0.956310	-0.198977	-0.214194
20520	9.262948	0.266360	-0.977313	0.439113	-0.746691	0.037920	-0.225576	-0.002442	0.974223	-0.198552	0.979124	-0.043520	-0.953778	-0.203250	-0.221351
20521	9.228915	0.574869	-1.534594	0.480362	-0.767602	0.045159	-0.232964	-0.003615	0.972479	-0.203019	0.978140	-0.044999	-0.951058	-0.207914	-0.228605
20522	9.274327	0.260894	-2.038909	0.400470	-0.787565	0.061756	-0.240624	-0.004704	0.970607	-0.206680	0.977303	-0.046502	-0.948358	-0.211795	-0.236135
20523	9.301334	-0.178742	-2.485494	0.394372	-0.780382	0.083465	-0.248175	-0.005593	0.968699	-0.210207	0.976467	-0.048215	-0.945633	-0.215593	-0.243510
20524	9.364999	0.016110	-2.646293	0.308652	-0.778059	0.112934	-0.255813	-0.006216	0.966706	-0.212823	0.975809	-0.050043	-0.943009	-0.218539	-0.250948
20525	9.357505	-0.005067	-2.805987	0.165220	-0.776560	0.142870	-0.263418	-0.006562	0.964659	-0.214004	0.975458	-0.051802	-0.940645	-0.220087	-0.258358
20526	9.519632	-0.035015	-2.830767	0.094732	-0.776104	0.163388	-0.271112	-0.006720	0.962524	-0.214452	0.975263	-0.053595	-0.938354	-0.220945	-0.265847
20527	9.565858	-0.245341	-2.560558	0.058946	-0.787938	0.173249	-0.278855	-0.006810	0.960309	-0.214525	0.975147	-0.055378	-0.936066	-0.221453	-0.273385
20528	9.587610	-1.288729	-2.368109	0.173872	-0.813721	0.159488	-0.286855	-0.007107	0.957948	-0.215699	0.974774	-0.057359	-0.933375	-0.223082	-0.281152
20529	9.347768	-1.317080	-1.567042	0.624639	-0.836403	0.132172	-0.294921	-0.007747	0.955490	-0.221131	0.973374	-0.060362	-0.929582	-0.229091	-0.288781
20530	9.302436	-0.055696	-0.168455	0.910559	-0.887688	0.141343	-0.303518	-0.008484	0.952788	-0.229145	0.971263	-0.064348	-0.924862	-0.237857	-0.296740
20531	9.272006	1.053611	1.157308	0.799288	-0.977000	0.184187	-0.312944	-0.009094	0.949728	-0.235949	0.969351	-0.068465	-0.919997	-0.245513	-0.305498
20532	9.050742	0.754896	1.711489	0.597944	-1.099657	0.232104	-0.323624	-0.009619	0.946137	-0.240700	0.967889	-0.072491	-0.915058	-0.251195	-0.315548
20533	9.096039	0.178311	2.017140	0.576164	-1.245516	0.253626	-0.335589	-0.010365	0.941952	-0.245121	0.966454	-0.076695	-0.909558	-0.256629	-0.326872
20534	9.161650	0.462911	1.950535	0.754911	-1.391236	0.269235	-0.348888	-0.011425	0.937095	-0.251039	0.964522	-0.081705	-0.902916	-0.263753	-0.339378
20535	9.455096	1.540147	2.502264	0.711237	-1.551398	0.312899	-0.363618	-0.012589	0.931463	-0.256322	0.962664	-0.087050	-0.895590	-0.270407	-0.353268
20536	9.615251	1.774938	2.515684	0.525082	-1.729847	0.361257	-0.379982	-0.013872	0.924890	-0.259660	0.961283	-0.092261	-0.887801	-0.275214	-0.368872
20537	10.878339	1.900732	1.957537	0.368721	-1.896270	0.412577	-0.397798	-0.015194	0.917347	-0.261316	0.960325	-0.097411	-0.879472	-0.278468	-0.385986
20538	13.623420	2.922242	1.770724	0.299831	-2.051816	0.450867	-0.416920	-0.016649	0.908791	-0.262109	0.959561	-0.102667	-0.870331	-0.281006	-0.404424
20539	15.007132	1.006408	1.207053	-0.251399	-2.215073	0.468024	-0.437303	-0.018386	0.899126	-0.257938	0.960350	-0.105814	-0.861530	-0.278191	-0.424706
20540	15.825617	-3.541312	0.485806	-0.223162	-2.344262	0.428344	-0.458450	-0.020809	0.888476	-0.254119	0.961055	-0.108615	-0.851614	-0.275573	-0.445884
20541	14.652075	-4.816786	-0.030851	0.515198	-2.431645	0.422549	-0.480069	-0.023542	0.876915	-0.256497	0.959721	-0.114655	-0.838894	-0.279968	-0.466770
20542	14.666766	-3.470939	0.376093	0.737349	-2.501393	0.484762	-0.502084	-0.026011	0.864428	-0.260259	0.957756	-0.122347	-0.824729	-0.286403	-0.487643
20543	15.159022	-2.956023	0.442483	0.703698	-2.574059	0.600130	-0.524675	-0.027754	0.850850	-0.262937	0.955884	-0.130960	-0.809679	-0.292431	-0.508826
20544	14.552987	-1.184148	0.827908	0.506050	-2.615572	0.752692	-0.547572	-0.028287	0.836280	-0.262969	0.954608	-0.139895	-0.794363	-0.296518	-0.530155
20545	13.898635	-0.211285	0.803620	-0.002024	-2.664764	0.876077	-0.570810	-0.027849	0.820610	-0.258064	0.954863	-0.147102	-0.779473	-0.295737	-0.552233
20546	13.220280	-0.550568	-0.949372	-0.345957	-2.746764	0.945472	-0.594338	-0.026898	0.803765	-0.249897	0.956142	-0.152787	-0.764404	-0.291665	-0.574994
20547	12.821094	-0.712573	-4.240860	-0.384387	-2.743755	0.932100	-0.617374	-0.025957	0.786242	-0.241354	0.957504	-0.157905	-0.748731	-0.287249	-0.597403
20548	12.122184	-0.826978	-6.658102	-0.315718	-2.638651	0.822531	-0.638791	-0.025623	0.768954	-0.233865	0.958621	-0.162335	-0.732976	-0.283529	-0.618351
20549	11.647592	0.362545	-6.976030	-0.485265	-2.427135	0.724683	-0.658057	-0.025523	0.752536	-0.225659	0.960173	-0.164762	-0.718359	-0.278239	-0.637608
20550	9.992860	0.511844	-8.033817	-1.170148	-2.234652	0.645452	-0.675301	-0.025420	0.737104	-0.213042	0.963528	-0.161951	-0.706103	-0.266399	-0.656087
20551	8.266353	-0.680428	-9.301014	-1.266676	-2.165540	0.507762	-0.691500	-0.026186	0.721902	-0.200721	0.966955	-0.157193	-0.693930	-0.253600	-0.673905
20552	7.602248	-1.272808	-9.396939	-1.101068	-2.064936	0.307200	-0.706222	-0.028358	0.707422	-0.191024	0.969773	-0.151826	-0.681733	-0.242357	-0.690292
20553	6.993090	-2.618615	-10.312145	-1.122434	-1.802158	0.124275	-0.718633	-0.031452	0.694678	-0.182565	0.972468	-0.144831	-0.670997	-0.230904	-0.704589
20554	6.297957	-5.515849	-10.966371	-0.507245	-1.388570	0.014361	-0.727838	-0.034509	0.684880	-0.179104	0.973633	-0.141280	-0.661947	-0.225494	-0.714828
20555	8.103934	-5.438878	-7.212325	0.619507	-0.770923	-0.069323	-0.732778	-0.036980	0.679462	-0.183710	0.972195	-0.145213	-0.655200	-0.231232	-0.719197
20556	7.582787	-2.051092	-4.284050	1.151044	-0.147302	-0.124004	-0.733438	-0.038550	0.678663	-0.192162	0.969425	-0.152605	-0.652030	-0.242340	-0.718421
20557	6.119197	0.883394	-3.972165	0.725111	0.358645	-0.263689	-0.730570	-0.040258	0.681650	-0.198844	0.967540	-0.155972	-0.653245	-0.249490	-0.714861
20558	5.267922	-0.415866	-5.759439	0.114697	0.729448	-0.481063	-0.724744	-0.043103	0.687669	-0.203117	0.967055	-0.153453	-0.658399	-0.250891	-0.709622
20559	4.915017	-2.833762	-7.716628	0.350533	1.085484	-0.650787	-0.716202	-0.046685	0.696330	-0.210145	0.965879	-0.151385	-0.665503	-0.254753	-0.701575
20560	5.137375	-3.194006	-7.880055	0.985874	1.487420	-0.703189	-0.704646	-0.049618	0.707822	-0.221763	0.962981	-0.153263	-0.674014	-0.264965	-0.689564
20561	5.165860	-2.448086	-7.443563	1.409870	1.883689	-0.696135	-0.690249	-0.051216	0.721757	-0.236209	0.958794	-0.157861	-0.683931	-0.279449	-0.673904
20562	5.102800	-1.213020	-6.882981	1.560453	2.234695	-0.693371	-0.673071	-0.051436	0.737787	-0.251715	0.953954	-0.163128	-0.695425	-0.295509	-0.655026
20563	5.087321	-0.276621	-6.538802	1.385108	2.525982	-0.721792	-0.653453	-0.050694	0.755268	-0.266243	0.949394	-0.166628	-0.708600	-0.309969	-0.633881
20564	5.219338	-0.024642	-6.741702	1.044969	2.777704	-0.740333	-0.631469	-0.048959	0.773854	-0.278500	0.945731	-0.167425	-0.723661	-0.321242	-0.610835
20565	5.427239	-0.474991	-7.162971	0.709621	2.991916	-0.720799	-0.607511	-0.046068	0.792974	-0.288174	0.943083	-0.165986	-0.740194	-0.329352	-0.586208
20566	5.665537	-1.598295	-7.488342	0.536101	3.169927	-0.661238	-0.581765	-0.041777	0.812283	-0.296136	0.941013	-0.163698	-0.757531	-0.335780	-0.559821
20567	5.908781	-2.022215	-7.247030	0.664127	3.341479	-0.583643	-0.554396	-0.035950	0.831476	-0.304551	0.938535	-0.162484	-0.774528	-0.343308	-0.531269
20568	6.205666	-1.177758	-6.683537	0.704981	3.477141	-0.488787	-0.525595	-0.028483	0.850258	-0.312723	0.935935	-0.161959	-0.791173	-0.351020	-0.500829
20569	6.450643	-0.501052	-6.273941	0.390646	3.556376	-0.418733	-0.495815	-0.019869	0.868201	-0.317994	0.934457	-0.160216	-0.808113	-0.355520	-0.469636
20570	6.820856	-0.687615	-6.228080	-0.069618	3.612802	-0.371348	-0.465048	-0.010525	0.885223	-0.319220	0.934654	-0.156589	-0.825729	-0.355402	-0.438019
20571	6.859036	-1.578480	-6.263314	-0.415557	3.659914	-0.358617	-0.433339	-0.000972	0.901230	-0.317368	0.936108	-0.151590	-0.843501	-0.351712	-0.405961
20572	6.856457	-2.446076	-6.181758	-0.642203	3.695796	-0.358087	-0.400647	0.008524	0.916193	-0.313396	0.938367	-0.145777	-0.860967	-0.345536	-0.373283
20573	6.844534	-3.504323	-6.467548	-0.810548	3.710192	-0.369188	-0.367224	0.017691	0.929964	-0.307768	0.941189	-0.139436	-0.877738	-0.337418	-0.340183
20574	6.852819	-4.259362	-6.311085	-0.655088	3.700572	-0.389511	-0.333218	0.026347	0.942481	-0.303335	0.943469	-0.133620	-0.892722	-0.330413	-0.306389
20575	7.243504	-3.832087	-5.985569	-0.372785	3.700610	-0.408322	-0.298689	0.034599	0.953723	-0.301273	0.944822	-0.128629	-0.905549	-0.325751	-0.271785
20576	7.488513	-2.903607	-5.635278	-0.288263	3.683833	-0.414077	-0.263833	0.042582	0.963628	-0.299807	0.945922	-0.123884	-0.916792	-0.321587	-0.236799
20577	7.697708	-2.641944	-5.274063	-0.404214	3.628215	-0.432904	-0.229072	0.050017	0.972124	-0.297144	0.947418	-0.118765	-0.926947	-0.316066	-0.202165
20578	7.806698	-3.760038	-4.790185	-0.555282	3.497244	-0.454636	-0.195119	0.056609	0.979144	-0.292926	0.949403	-0.113262	-0.936014	-0.308917	-0.168665
20579	7.987274	-5.219632	-5.268711	-0.232004	3.345548	-0.454623	-0.162344	0.062520	0.984752	-0.291553	0.950392	-0.108404	-0.942678	-0.304706	-0.136063
20580	7.949654	-4.484885	-5.757904	0.809377	3.257063	-0.464178	-0.130207	0.068110	0.989145	-0.299857	0.948214	-0.104763	-0.945057	-0.310243	-0.103041
20581	7.779833	-0.945736	-4.538339	1.349261	3.130403	-0.465701	-0.099183	0.073545	0.992348	-0.313131	0.944294	-0.101281	-0.944517	-0.320780	-0.070629
20582	7.736235	1.373264	-2.970359	1.037660	2.896262	-0.424313	-0.070480	0.078928	0.994386	-0.323270	0.941258	-0.097624	-0.943679	-0.328335	-0.040825
20583	7.993489	1.807305	-2.172225	0.378286	2.574380	-0.337337	-0.045066	0.084191	0.995430	-0.327024	0.940296	-0.094333	-0.943941	-0.329781	-0.014843
20584	7.738429	0.614173	-2.277337	-0.170620	2.178788	-0.261651	-0.023628	0.088850	0.995765	-0.325486	0.941090	-0.091695	-0.945252	-0.326274	0.006684
20585	7.405398	-0.495526	-2.245098	-0.385609	1.745144	-0.202052	-0.006445	0.092561	0.995686	-0.321855	0.942530	-0.089703	-0.946767	-0.321045	0.023716
20586	8.049920	-1.331878	-1.429840	-0.471080	1.321299	-0.138230	0.006513	0.095430	0.995415	-0.317376	0.944167	-0.088440	-0.948277	-0.315345	0.036437
20587	8.334700	-1.395545	-1.308253	-0.518567	0.832497	-0.017702	0.014488	0.097829	0.995098	-0.312439	0.945812	-0.088435	-0.949827	-0.309626	0.044269
20588	6.775229	-1.275408	-1.775904	-1.120808	0.306926	0.085729	0.017137	0.099544	0.994886	-0.301771	0.949145	-0.089769	-0.953226	-0.298689	0.046305
20589	6.185062	-3.199093	-3.944466	-1.353775	-0.178991	0.123696	0.015080	0.100161	0.994857	-0.288845	0.952987	-0.091568	-0.957257	-0.285978	0.043302
20590	6.249583	-2.512646	-5.460874	-1.034865	-0.531350	0.149774	0.009541	0.100066	0.994935	-0.278924	0.955755	-0.093451	-0.960266	-0.276619	0.037030
20591	6.953279	0.737751	-5.708093	-1.156530	-0.715307	0.172170	0.002207	0.099737	0.995011	-0.267795	0.958731	-0.095506	-0.963473	-0.266249	0.028825
20592	8.801006	1.137743	-5.413114	-1.891034	-0.737116	0.187952	-0.005435	0.099611	0.995012	-0.249510	0.963420	-0.097812	-0.968357	-0.248797	0.019618
20593	11.063361	-1.802165	-4.863174	-1.969479	-0.648907	0.226494	-0.012262	0.100207	0.994891	-0.230358	0.967920	-0.100330	-0.973029	-0.230412	0.011215
20594	12.824288	-3.248025	-3.133880	-1.734321	-0.610134	0.255334	-0.018828	0.101288	0.994679	-0.213396	0.971524	-0.102969	-0.976784	-0.214199	0.003322
20595	15.348110	-5.379562	-0.922867	-1.516882	-0.602014	0.139043	-0.024990	0.101357	0.994536	-0.198512	0.974532	-0.104306	-0.979780	-0.200034	-0.004233
20596	14.629546	-6.693469	0.681677	-1.199753	-0.577710	0.031250	-0.030776	0.100505	0.994460	-0.186718	0.976840	-0.104503	-0.981931	-0.188899	-0.011297
20597	11.791955	-5.997812	0.416587	-0.385370	-0.696547	-0.144109	-0.037337	0.097755	0.994510	-0.182969	0.977711	-0.102973	-0.982409	-0.185809	-0.018619
20598	11.211407	-2.104847	-0.746573	0.373128	-0.906183	-0.311287	-0.045718	0.092989	0.994617	-0.186736	0.977312	-0.099954	-0.981346	-0.190301	-0.027316
20599	10.418163	-0.101313	-2.245152	0.254869	-1.049346	-0.357960	-0.055324	0.087439	0.994632	-0.189405	0.977152	-0.096437	-0.980339	-0.193724	-0.037498
20600	9.442232	-1.035862	-4.280940	0.187674	-0.974361	-0.309298	-0.064344	0.082496	0.994512	-0.191411	0.977053	-0.093432	-0.979399	-0.196372	-0.047076
20601	8.993810	-0.685759	-5.533026	0.225025	-0.796173	-0.261707	-0.071620	0.078328	0.994352	-0.193780	0.976824	-0.090904	-0.978427	-0.199196	-0.054782
20602	8.972936	-0.158357	-6.082983	0.260903	-0.621766	-0.251405	-0.077279	0.074606	0.994214	-0.196468	0.976504	-0.088548	-0.977460	-0.202174	-0.060805
20603	9.088550	-0.223568	-5.190661	0.401136	-0.497215	-0.296091	-0.081534	0.070663	0.994162	-0.200611	0.975905	-0.085818	-0.976272	-0.206437	-0.065394
20604	9.345828	-0.492251	-3.293448	0.497904	-0.391773	-0.333164	-0.084761	0.066572	0.994175	-0.205690	0.975105	-0.082832	-0.974940	-0.211512	-0.068957
20605	9.577428	-0.441444	-1.495181	0.386246	-0.304395	-0.328020	-0.087031	0.062688	0.994231	-0.209725	0.974498	-0.079803	-0.973879	-0.215460	-0.071665
20606	9.691566	-0.369596	-0.592817	0.086462	-0.264128	-0.304079	-0.089052	0.059125	0.994271	-0.210821	0.974501	-0.076832	-0.973460	-0.216455	-0.074316
20607	9.746386	-1.033355	-0.619329	-0.154517	-0.259579	-0.287321	-0.090961	0.055728	0.994294	-0.209565	0.975004	-0.073818	-0.973555	-0.215083	-0.077009
20608	9.931772	-0.704218	-0.638306	-0.130957	-0.259356	-0.271817	-0.093006	0.052488	0.994281	-0.208549	0.975431	-0.071000	-0.973580	-0.213960	-0.079775
20609	9.936368	0.032066	-0.906832	-0.294651	-0.285522	-0.241394	-0.095272	0.049488	0.994220	-0.205897	0.976186	-0.068321	-0.973925	-0.211216	-0.082814
20610	9.945208	-0.704359	-1.665583	-0.564011	-0.325613	-0.201548	-0.098121	0.046815	0.994073	-0.200555	0.977468	-0.065829	-0.974756	-0.205825	-0.086521
20611	9.968608	-2.367127	-2.716789	-0.401165	-0.327127	-0.204612	-0.100891	0.044110	0.993919	-0.196837	0.978384	-0.063401	-0.975231	-0.202037	-0.090027
20612	10.276764	-1.242187	-2.248894	0.044896	-0.295906	-0.244307	-0.103382	0.041112	0.993792	-0.197399	0.978423	-0.061011	-0.974857	-0.202481	-0.093036
20613	10.022569	-0.584017	-1.911898	0.064866	-0.278149	-0.273055	-0.105539	0.037839	0.993695	-0.198307	0.978404	-0.058319	-0.974441	-0.203211	-0.095756
20614	9.981824	0.153040	-1.377410	0.139269	-0.269130	-0.261604	-0.107732	0.034707	0.993574	-0.199906	0.978222	-0.055846	-0.973874	-0.204638	-0.098448
20615	9.810961	0.996465	-0.524904	-0.065539	-0.276613	-0.213141	-0.109987	0.032019	0.993417	-0.199490	0.978432	-0.053623	-0.973708	-0.204075	-0.101227
20616	9.880006	0.690396	-0.301468	-0.258595	-0.304931	-0.152289	-0.112743	0.029878	0.993175	-0.197127	0.979007	-0.051829	-0.973874	-0.201625	-0.104487
20617	10.128874	0.414838	-0.182929	-0.314442	-0.329416	-0.115210	-0.115713	0.028054	0.992886	-0.194186	0.979674	-0.050311	-0.974116	-0.198627	-0.107913
20618	9.800408	-0.259075	-0.116547	-0.242829	-0.370899	-0.110405	-0.119200	0.026206	0.992524	-0.191933	0.980187	-0.048931	-0.974142	-0.196331	-0.111808
20619	9.669093	-0.555387	-0.176467	-0.009194	-0.404241	-0.129289	-0.122875	0.024108	0.992129	-0.191991	0.980242	-0.047597	-0.973674	-0.196328	-0.115819
20620	9.389467	-0.082278	-0.066684	0.247047	-0.433723	-0.142680	-0.126905	0.021817	0.991675	-0.194575	0.979787	-0.046455	-0.972644	-0.198850	-0.120095
20621	9.261705	0.721604	0.207316	0.321227	-0.467586	-0.133960	-0.131173	0.019530	0.991167	-0.197861	0.979174	-0.045479	-0.971414	-0.202079	-0.124577
20622	9.547797	1.299537	0.289089	0.220802	-0.501573	-0.095688	-0.135931	0.017541	0.990563	-0.200112	0.978749	-0.044792	-0.970298	-0.204312	-0.129532
20623	9.473665	1.213743	0.105702	-0.003988	-0.543584	-0.041014	-0.141108	0.015991	0.989865	-0.200122	0.978767	-0.044340	-0.969557	-0.204350	-0.134911
20624	9.342609	0.540382	-0.202297	-0.141894	-0.582400	-0.014816	-0.146795	0.014623	0.989059	-0.198747	0.979064	-0.043973	-0.968995	-0.203028	-0.140816
20625	9.457600	-0.004796	-0.567139	-0.114904	-0.619293	-0.002295	-0.152776	0.013309	0.988171	-0.197629	0.979300	-0.043744	-0.968299	-0.201975	-0.146983
20626	9.574357	-0.036895	-0.797241	-0.057863	-0.638661	0.000690	-0.159028	0.011986	0.987201	-0.197062	0.979419	-0.043637	-0.967407	-0.201480	-0.153393
20627	9.294231	-0.726237	-0.989757	-0.160750	-0.666393	0.002280	-0.165463	0.010634	0.986159	-0.195496	0.979745	-0.043366	-0.966645	-0.199966	-0.160033
20628	9.099431	-2.007266	-1.695692	-0.001213	-0.689313	-0.011056	-0.172168	0.009105	0.985026	-0.195501	0.979750	-0.043227	-0.965473	-0.200016	-0.166901
20629	9.473912	-1.301902	-1.617602	0.278083	-0.699559	-0.006936	-0.178889	0.007591	0.983840	-0.198189	0.979194	-0.043592	-0.963701	-0.202784	-0.173662
20630	9.626510	-0.265425	-1.508846	0.282327	-0.712730	0.010944	-0.185839	0.006205	0.982561	-0.200884	0.978618	-0.044175	-0.961826	-0.205590	-0.180619
20631	9.379867	0.039806	-1.430233	0.123254	-0.738777	0.045959	-0.193018	0.005094	0.981182	-0.201975	0.978365	-0.044812	-0.960182	-0.206824	-0.187813
20632	9.517177	0.045761	-1.661736	0.089643	-0.749041	0.067768	-0.200406	0.004165	0.979704	-0.202701	0.978177	-0.045622	-0.958514	-0.207730	-0.195188
20633	9.880588	0.327013	-1.901493	0.077244	-0.739847	0.082671	-0.207645	0.003397	0.978198	-0.203266	0.978017	-0.046544	-0.956852	-0.208499	-0.202390
20634	9.725330	0.325449	-2.259152	0.002817	-0.726760	0.089368	-0.214838	0.002714	0.976646	-0.203104	0.978009	-0.047396	-0.955297	-0.208543	-0.209563
20635	9.464091	-0.060457	-2.658971	0.005709	-0.721181	0.095138	-0.221902	0.002104	0.975067	-0.202946	0.977998	-0.048296	-0.953715	-0.208602	-0.216593
20636	9.468587	-0.198503	-2.898384	0.186482	-0.716142	0.102674	-0.228997	0.001564	0.973426	-0.204493	0.977607	-0.049677	-0.951705	-0.210434	-0.223549
20637	9.537463	0.590712	-2.537466	0.296426	-0.710118	0.128694	-0.235998	0.001280	0.971753	-0.207007	0.976980	-0.051560	-0.949449	-0.213327	-0.230301
20638	9.333275	0.643523	-2.070819	0.159031	-0.714636	0.158878	-0.243169	0.001256	0.969983	-0.208138	0.976638	-0.053443	-0.947390	-0.214886	-0.237227
20639	9.313300	0.165793	-1.822918	0.075919	-0.727441	0.189042	-0.250433	0.001499	0.968133	-0.208386	0.976475	-0.055416	-0.945441	-0.215623	-0.244230
20640	9.301508	-0.413216	-1.660714	0.107939	-0.757519	0.205746	-0.258077	0.001822	0.966123	-0.208887	0.976240	-0.057640	-0.943272	-0.216686	-0.251564
20641	9.258109	-0.549195	-1.424189	0.280283	-0.796920	0.215125	-0.266021	0.002147	0.963965	-0.210960	0.975627	-0.060390	-0.940600	-0.219423	-0.259085
20642	9.370801	-0.226034	-0.904405	0.400806	-0.836028	0.222965	-0.274403	0.002422	0.961612	-0.214127	0.974736	-0.063557	-0.937471	-0.223347	-0.266952
20643	9.386357	-0.289603	-0.589410	0.478230	-0.890832	0.223083	-0.283207	0.002548	0.959055	-0.217977	0.973654	-0.066955	-0.933959	-0.228014	-0.275190
20644	9.135430	-0.081486	-0.279336	0.569913	-0.954518	0.232348	-0.292666	0.002558	0.956211	-0.222625	0.972334	-0.070739	-0.929938	-0.233579	-0.284000
20645	9.075580	-0.137874	-0.094293	0.516684	-1.028483	0.268012	-0.302796	0.002697	0.953051	-0.226619	0.971111	-0.074748	-0.925720	-0.238613	-0.293438
20646	9.079578	-0.560477	-0.247984	0.521013	-1.111907	0.296694	-0.313785	0.002847	0.949490	-0.230521	0.969848	-0.079091	-0.921086	-0.243695	-0.303668
20647	9.108363	0.055078	-0.177965	0.703111	-1.200709	0.319476	-0.325543	0.002940	0.945523	-0.235956	0.968105	-0.084249	-0.915613	-0.250528	-0.314466
20648	9.106786	1.114886	0.615480	0.659816	-1.293390	0.354886	-0.338229	0.003044	0.941059	-0.240806	0.966422	-0.089674	-0.909733	-0.256943	-0.326139
20649	8.894026	0.996866	1.008796	0.492662	-1.413610	0.400257	-0.352002	0.003207	0.935994	-0.243892	0.965135	-0.095028	-0.903666	-0.261731	-0.338947
20650	9.595702	0.707510	1.324272	0.479976	-1.535847	0.432751	-0.366915	0.003276	0.930249	-0.246665	0.963856	-0.100685	-0.896956	-0.266403	-0.352845
20651	10.323101	0.482290	1.283887	0.545311	-1.656138	0.460084	-0.382834	0.003215	0.923811	-0.249813	0.962378	-0.106874	-0.889399	-0.271695	-0.367628
20652	11.185467	0.806415	0.994292	0.623702	-1.786780	0.479285	-0.399866	0.002865	0.916569	-0.253467	0.960653	-0.113581	-0.880830	-0.277737	-0.383406
20653	12.649988	1.119275	0.137399	0.668375	-1.903589	0.504809	-0.417818	0.002326	0.908528	-0.257262	0.958766	-0.120765	-0.871346	-0.284188	-0.399991
20654	14.487941	1.072240	0.188771	0.564927	-2.011129	0.519519	-0.436581	0.001480	0.899664	-0.259949	0.957138	-0.127721	-0.861292	-0.289627	-0.417483
20655	16.322392	-1.886981	0.582815	0.446831	-2.134991	0.518599	-0.456193	0.000176	0.889881	-0.261464	0.955835	-0.134227	-0.850603	-0.293905	-0.435999
20656	16.247067	-3.648440	1.580383	0.904119	-2.241413	0.534590	-0.476505	-0.001455	0.879171	-0.266617	0.953146	-0.142927	-0.837770	-0.302508	-0.454567
20657	15.996902	-2.700570	2.812670	1.134535	-2.366321	0.600573	-0.497763	-0.003062	0.867307	-0.273121	0.949671	-0.153397	-0.823187	-0.313235	-0.473548
20658	16.096807	-2.027348	4.121149	0.956651	-2.510377	0.721470	-0.520180	-0.004232	0.854046	-0.277262	0.946663	-0.164182	-0.807799	-0.322199	-0.493608
20659	15.310828	-0.811128	4.617951	0.704262	-2.657719	0.906597	-0.543938	-0.004345	0.839114	-0.278080	0.944414	-0.175369	-0.791709	-0.328731	-0.514911
20660	14.961317	0.656888	3.290289	0.050676	-2.760916	1.087115	-0.568510	-0.003184	0.822670	-0.272442	0.944294	-0.184617	-0.776255	-0.329086	-0.537709
20661	14.055716	0.167016	0.301051	-0.382092	-2.813064	1.198634	-0.593325	-0.001098	0.804962	-0.262553	0.945575	-0.192233	-0.760941	-0.325402	-0.561321
20662	13.125389	0.065866	-2.932478	-0.862954	-2.828591	1.204125	-0.617634	0.001194	0.786465	-0.248775	0.948355	-0.196811	-0.746083	-0.317210	-0.585439
20663	12.063995	-0.664787	-6.623840	-1.195348	-2.744662	1.097126	-0.640545	0.003033	0.767914	-0.233054	0.952060	-0.198159	-0.731702	-0.305895	-0.609131
20664	10.987487	-0.759859	-8.051747	-1.268592	-2.556406	0.929978	-0.661085	0.004213	0.750299	-0.217827	0.955838	-0.197294	-0.717996	-0.293864	-0.630972
20665	9.340205	-0.789605	-8.927615	-1.432268	-2.380531	0.764109	-0.679618	0.004664	0.733551	-0.202529	0.959920	-0.193741	-0.705054	-0.280235	-0.651434
20666	7.629675	-0.214856	-9.458668	-1.262823	-2.258889	0.553038	-0.696400	0.003757	0.717644	-0.189928	0.963366	-0.189349	-0.692066	-0.268164	-0.670174
20667	7.151155	-0.446229	-9.827485	-1.505679	-2.092954	0.337870	-0.711369	0.001521	0.702817	-0.177237	0.967290	-0.181487	-0.680104	-0.253669	-0.687830
20668	5.967653	-3.897270	-12.304516	-1.468932	-1.774080	0.187213	-0.723590	-0.001077	0.690229	-0.166007	0.970917	-0.172515	-0.669969	-0.239414	-0.702725
20669	7.248616	-5.657643	-10.418480	-0.422016	-1.231479	0.077728	-0.731907	-0.003282	0.681396	-0.162651	0.971924	-0.170027	-0.661707	-0.235273	-0.711892
20670	7.784251	-3.773276	-5.953968	0.413082	-0.552485	-0.005972	-0.735473	-0.004684	0.677538	-0.165445	0.970948	-0.172879	-0.657044	-0.239243	-0.714882
20671	6.599666	-0.792423	-4.863940	0.453823	0.094885	-0.135241	-0.734613	-0.005804	0.678462	-0.169440	0.969849	-0.175166	-0.656989	-0.243638	-0.713447
20672	5.478968	-0.329174	-5.934824	0.018316	0.602274	-0.382800	-0.729919	-0.008078	0.683486	-0.172388	0.969783	-0.172638	-0.661438	-0.243836	-0.709255
20673	4.817359	-1.918743	-7.460930	0.002381	1.031308	-0.662178	-0.721890	-0.012021	0.691903	-0.177230	0.969713	-0.168064	-0.668927	-0.243949	-0.702157
20674	4.458215	-3.267696	-8.611555	0.485115	1.459941	-0.866513	-0.710408	-0.016853	0.703589	-0.186728	0.968398	-0.165342	-0.678567	-0.248840	-0.691104
20675	4.346587	-3.197836	-8.277906	1.139802	1.885723	-0.991548	-0.695570	-0.021676	0.718131	-0.201514	0.965309	-0.166046	-0.689619	-0.260211	-0.675808
20676	4.518861	-2.947769	-7.681489	1.589652	2.296709	-1.055524	-0.677297	-0.025713	0.735260	-0.219843	0.960801	-0.168912	-0.702095	-0.276046	-0.656401
20677	4.602374	-2.313356	-6.980616	2.041687	2.665698	-1.096390	-0.655862	-0.028621	0.754338	-0.241638	0.954662	-0.173872	-0.715161	-0.296312	-0.633043
20678	4.667969	-0.389347	-6.051241	2.261412	2.973133	-1.132763	-0.631461	-0.030278	0.774816	-0.265274	0.947379	-0.179172	-0.728620	-0.318678	-0.606265
20679	5.119399	1.500219	-5.699191	1.745768	3.218756	-1.121634	-0.604661	-0.030367	0.795904	-0.285074	0.941326	-0.180660	-0.743719	-0.336129	-0.577840
20680	5.534590	0.610994	-6.402773	0.848116	3.382448	-1.086255	-0.575972	-0.029088	0.816952	-0.297888	0.938120	-0.176617	-0.761261	-0.345087	-0.548996
20681	5.955842	-1.541846	-6.531770	0.576595	3.495495	-1.026766	-0.545919	-0.026569	0.837416	-0.308101	0.935830	-0.171162	-0.779132	-0.351449	-0.519073
20682	6.509353	-1.703256	-6.039961	0.576883	3.634290	-0.882639	-0.514456	-0.021973	0.857235	-0.317344	0.933576	-0.166520	-0.796635	-0.357706	-0.487256
20683	6.878765	-1.434930	-5.898106	0.180663	3.720636	-0.706593	-0.482200	-0.015247	0.875928	-0.322330	0.932800	-0.161206	-0.814608	-0.360071	-0.454711
20684	6.809838	-2.606044	-5.776071	-0.301032	3.739880	-0.593951	-0.449408	-0.007411	0.893296	-0.322631	0.933820	-0.154565	-0.833032	-0.357668	-0.422057
20685	6.480921	-4.505119	-5.952687	-0.573218	3.701138	-0.578842	-0.416363	0.000286	0.909198	-0.320315	0.935839	-0.146981	-0.850906	-0.352427	-0.389558
20686	6.416665	-5.631524	-6.346991	-0.430777	3.671061	-0.641167	-0.382720	0.007103	0.923837	-0.319184	0.937379	-0.139436	-0.866976	-0.348239	-0.356486
20687	6.764820	-4.867160	-6.042539	-0.142162	3.651435	-0.714327	-0.348504	0.013056	0.937216	-0.320555	0.937950	-0.132264	-0.880789	-0.346524	-0.322694
20688	7.331576	-3.541210	-5.735648	-0.090271	3.634892	-0.746841	-0.313813	0.018589	0.949303	-0.322227	0.938387	-0.124894	-0.893136	-0.345085	-0.288488
20689	7.560437	-2.482976	-5.461381	-0.182977	3.624081	-0.715186	-0.278911	0.024301	0.960009	-0.322701	0.939176	-0.117528	-0.904474	-0.342576	-0.254104
20690	7.888152	-2.238393	-5.238222	-0.373741	3.573694	-0.623378	-0.244351	0.030576	0.969205	-0.320926	0.940626	-0.110585	-0.915040	-0.338064	-0.220031
20691	8.245005	-2.960806	-5.487682	-0.432978	3.501932	-0.495849	-0.210538	0.037620	0.976862	-0.318067	0.942254	-0.104838	-0.924396	-0.332780	-0.186414
20692	8.737995	-3.405518	-5.477876	0.042882	3.426224	-0.376942	-0.177522	0.045425	0.983068	-0.319187	0.942275	-0.101178	-0.930917	-0.331744	-0.152775
20693	8.926307	-2.167259	-4.564929	0.511439	3.323037	-0.295861	-0.145552	0.053681	0.987893	-0.324429	0.940724	-0.098918	-0.934645	-0.334899	-0.119508
20694	8.794608	-0.863911	-4.055582	0.447294	3.161184	-0.240345	-0.115158	0.062020	0.991409	-0.328917	0.939367	-0.096970	-0.937311	-0.337258	-0.087776
20695	8.385134	-0.304670	-3.090887	0.262607	2.885015	-0.200028	-0.087406	0.069845	0.993721	-0.331574	0.938620	-0.095137	-0.939372	-0.337808	-0.058882
20696	8.367235	-0.614961	-2.753404	0.110589	2.525916	-0.181928	-0.063042	0.076630	0.995065	-0.332738	0.938388	-0.093346	-0.940910	-0.336980	-0.033660
20697	8.380882	-0.732716	-2.833979	0.144669	2.121686	-0.205469	-0.042368	0.081814	0.995747	-0.334196	0.938071	-0.091295	-0.941551	-0.336643	-0.012402
20698	8.193025	-0.752787	-2.596643	0.049777	1.692512	-0.222762	-0.025678	0.085380	0.996017	-0.334728	0.938098	-0.089045	-0.941965	-0.335682	0.004491
20699	7.985912	-1.370272	-2.061946	-0.119392	1.262897	-0.193277	-0.013113	0.087757	0.996056	-0.333628	0.938673	-0.087094	-0.942614	-0.333454	0.016969
20700	7.839892	-2.498756	-2.375199	-0.230178	0.844679	-0.152675	-0.004642	0.089093	0.996012	-0.331458	0.939579	-0.085590	-0.943458	-0.330534	0.025170
20701	7.807946	-2.081285	-2.708877	-0.015285	0.492860	-0.125779	0.000444	0.089504	0.995986	-0.331303	0.939751	-0.084303	-0.943524	-0.329936	0.030070
20702	8.034864	-1.005704	-2.880553	-0.192611	0.205701	-0.078749	0.002635	0.089408	0.995992	-0.329471	0.940462	-0.083551	-0.944162	-0.327930	0.031936
20703	8.247276	-0.860381	-3.620002	-0.436933	-0.055864	-0.005623	0.002144	0.089138	0.996017	-0.325328	0.941899	-0.083594	-0.945599	-0.323853	0.031019
20704	7.174318	-0.307940	-4.613315	-0.815266	-0.274228	0.064075	-0.000678	0.088829	0.996047	-0.317597	0.944458	-0.084444	-0.948225	-0.316399	0.027571
20705	6.638166	-0.993778	-6.281963	-1.347033	-0.428179	0.137684	-0.005158	0.088769	0.996039	-0.304778	0.948522	-0.086112	-0.952409	-0.304015	0.022163
20706	6.543886	-1.430201	-7.546582	-1.704694	-0.527375	0.189665	-0.010792	0.088970	0.995976	-0.288476	0.953408	-0.088293	-0.957426	-0.288268	0.015377
20707	6.652602	-2.496001	-8.143141	-1.940627	-0.571976	0.202663	-0.016833	0.089275	0.995865	-0.269802	0.958654	-0.090499	-0.962769	-0.270210	0.007950
20708	8.146393	-4.630969	-7.846917	-1.398136	-0.522782	0.151125	-0.022331	0.089304	0.995754	-0.256281	0.962210	-0.092042	-0.966344	-0.257248	0.001400
20709	10.133811	-2.496688	-4.828029	-0.752104	-0.381719	0.132787	-0.026343	0.089578	0.995631	-0.248961	0.964007	-0.093319	-0.968155	-0.250332	-0.003093
20710	11.787172	-1.373604	-2.429352	-0.958713	-0.282249	0.087414	-0.029369	0.089686	0.995537	-0.239637	0.966289	-0.094121	-0.970418	-0.241332	-0.006887
20711	13.285511	-3.277166	-0.214565	-1.321857	-0.155853	0.058827	-0.031006	0.089853	0.995472	-0.226759	0.969350	-0.094558	-0.973457	-0.228664	-0.009681
20712	14.447504	-5.801690	2.119675	-1.232110	-0.038044	0.019685	-0.031501	0.089920	0.995451	-0.214734	0.972080	-0.094604	-0.976165	-0.216737	-0.011313
20713	13.671165	-6.361051	2.672778	-0.554214	-0.033075	-0.008931	-0.031791	0.089725	0.995459	-0.209310	0.973281	-0.094411	-0.977332	-0.211361	-0.012161
20714	11.043778	-2.592020	3.171092	-0.117835	-0.231869	-0.086624	-0.033952	0.088368	0.995509	-0.208170	0.973611	-0.093524	-0.977503	-0.210410	-0.014660
20715	10.394499	-0.829759	1.976175	-0.274950	-0.536656	-0.183582	-0.038805	0.085420	0.995589	-0.205536	0.974353	-0.091609	-0.977880	-0.208184	-0.020253
20716	10.551650	-0.535701	0.368122	-0.217222	-0.698612	-0.184032	-0.045328	0.082156	0.995588	-0.203469	0.974962	-0.089717	-0.978031	-0.206638	-0.027477
20717	9.882818	0.300329	-0.841542	-0.227019	-0.712595	-0.121490	-0.052039	0.079467	0.995478	-0.201296	0.975534	-0.088398	-0.978147	-0.204986	-0.034769
20718	9.354887	0.208204	-1.848208	-0.467951	-0.662120	-0.087596	-0.058409	0.077244	0.995300	-0.196749	0.976556	-0.087336	-0.978713	-0.200925	-0.041842
20719	9.267296	-1.398130	-3.298588	-0.427793	-0.605802	-0.143543	-0.064047	0.074599	0.995155	-0.192637	0.977523	-0.085675	-0.979178	-0.197191	-0.048237
20720	9.371849	-1.092431	-3.296382	-0.006056	-0.530552	-0.247100	-0.068837	0.071110	0.995090	-0.192727	0.977719	-0.083201	-0.978835	-0.197508	-0.053598
20721	9.258428	-0.130049	-2.607763	0.129299	-0.465195	-0.318834	-0.072759	0.067033	0.995094	-0.194207	0.977688	-0.080061	-0.978259	-0.199079	-0.058117
20722	9.170861	-0.345733	-1.609770	-0.177580	-0.433018	-0.339102	-0.076417	0.062830	0.995094	-0.192710	0.978264	-0.076566	-0.978276	-0.197615	-0.062648
20723	9.049833	-2.701709	-1.837386	-0.394749	-0.435626	-0.339061	-0.080019	0.058621	0.995068	-0.189101	0.979248	-0.072896	-0.978692	-0.194002	-0.067273
20724	9.682572	-3.127131	-1.705661	-0.024626	-0.442524	-0.330567	-0.083804	0.054498	0.994991	-0.189119	0.979486	-0.069578	-0.978372	-0.194002	-0.071779
20725	10.227589	-1.225697	-0.731286	0.167089	-0.451081	-0.296037	-0.087640	0.050683	0.994862	-0.190996	0.979321	-0.066716	-0.977671	-0.195862	-0.076148
20726	10.314798	1.286446	0.019304	0.046783	-0.487650	-0.247209	-0.092015	0.047282	0.994634	-0.191661	0.979353	-0.064286	-0.977138	-0.196548	-0.081053
20727	10.153102	1.935300	0.108929	-0.441821	-0.559664	-0.187650	-0.097116	0.044318	0.994286	-0.187510	0.980303	-0.062009	-0.977450	-0.192461	-0.086893
20728	9.977558	0.216391	-0.751326	-0.711356	-0.623807	-0.152583	-0.103012	0.041612	0.993809	-0.180698	0.981717	-0.059836	-0.978129	-0.185743	-0.093610
20729	9.847618	-1.643358	-1.681195	-0.580272	-0.642103	-0.179765	-0.108961	0.038634	0.993295	-0.175202	0.982855	-0.057447	-0.978484	-0.180286	-0.100325
20730	9.956926	-1.622266	-1.960341	-0.082750	-0.621369	-0.234692	-0.114707	0.035179	0.992776	-0.174646	0.983093	-0.055015	-0.977927	-0.179695	-0.106624
20731	9.943286	-0.513453	-2.243662	0.201382	-0.585036	-0.275950	-0.119928	0.031372	0.992287	-0.176929	0.982825	-0.052456	-0.976890	-0.181855	-0.112317
20732	9.783706	0.427047	-2.262953	0.369034	-0.551708	-0.299651	-0.124857	0.027385	0.991797	-0.180890	0.982237	-0.049894	-0.975546	-0.185635	-0.117686
20733	9.842458	1.410184	-1.737976	0.410951	-0.538794	-0.270048	-0.129603	0.023685	0.991283	-0.185230	0.981538	-0.047670	-0.974111	-0.189794	-0.122823
20734	10.032665	2.236967	-1.341923	0.276787	-0.530524	-0.178550	-0.134514	0.020885	0.990692	-0.188156	0.981050	-0.046230	-0.972884	-0.192623	-0.128035
20735	9.987832	1.885867	-1.501306	-0.144366	-0.528185	-0.084402	-0.139480	0.019006	0.990042	-0.186859	0.981348	-0.045165	-0.972434	-0.191298	-0.133327
20736	9.767690	-0.088571	-2.070963	-0.348675	-0.508923	-0.041335	-0.144431	0.017595	0.989358	-0.183528	0.982018	-0.044256	-0.972346	-0.187967	-0.138605
20737	9.540563	-1.500959	-2.390274	-0.207134	-0.476910	-0.072617	-0.148922	0.015953	0.988720	-0.181613	0.982420	-0.043206	-0.972028	-0.185999	-0.143407
20738	9.274378	-2.009032	-2.475824	0.068105	-0.466514	-0.113782	-0.153328	0.013925	0.988077	-0.182448	0.982311	-0.042156	-0.971186	-0.186736	-0.148076
20739	9.460845	-1.775284	-2.441626	0.434355	-0.453682	-0.119416	-0.157498	0.011858	0.987448	-0.186841	0.981510	-0.041588	-0.969683	-0.191046	-0.152370
20740	9.624137	-0.084722	-1.573509	0.635009	-0.450801	-0.095359	-0.161766	0.010011	0.986778	-0.193144	0.980288	-0.041608	-0.967743	-0.197321	-0.156644
20741	9.579594	1.186540	-0.429925	0.304990	-0.464436	-0.047571	-0.166152	0.008584	0.986063	-0.196164	0.979689	-0.041583	-0.966392	-0.200339	-0.161093
20742	9.513065	0.605511	-0.392944	-0.071273	-0.496269	-0.003651	-0.171018	0.007517	0.985239	-0.195483	0.979832	-0.041408	-0.965681	-0.199679	-0.166100
20743	9.604229	-0.085090	-0.908956	-0.166641	-0.517912	0.005019	-0.176015	0.006499	0.984366	-0.193859	0.980167	-0.041135	-0.965110	-0.198068	-0.171264
20744	9.531008	-0.665163	-1.316246	-0.038876	-0.541246	-0.012945	-0.181287	0.005261	0.983416	-0.193509	0.980245	-0.040916	-0.964204	-0.197718	-0.176687
20745	9.586343	-0.595623	-1.493452	0.204501	-0.556459	-0.019290	-0.186598	0.003929	0.982429	-0.195509	0.979842	-0.041052	-0.962786	-0.199733	-0.182068
20746	9.583273	-0.207246	-1.538064	0.348438	-0.579179	-0.008268	-0.192227	0.002641	0.981347	-0.198878	0.979141	-0.041591	-0.960987	-0.203163	-0.187692
20747	9.586403	-0.139971	-1.440323	0.357167	-0.608027	0.019563	-0.198090	0.001550	0.980183	-0.202263	0.978412	-0.042423	-0.959088	-0.206658	-0.193500
20748	9.513847	-0.435515	-1.270280	0.334283	-0.634170	0.051830	-0.204343	0.000695	0.978899	-0.205364	0.977716	-0.043564	-0.957115	-0.209933	-0.199647
20749	9.430208	-0.535935	-1.170820	0.319471	-0.666794	0.070255	-0.210851	-0.000065	0.977518	-0.208267	0.977043	-0.044858	-0.955074	-0.213043	-0.206024
20750	9.365539	-0.251726	-1.364078	0.433693	-0.687306	0.077745	-0.217639	-0.000824	0.976029	-0.212240	0.976111	-0.046502	-0.952674	-0.217273	-0.212615
20751	9.411045	0.911595	-1.150182	0.467856	-0.711095	0.089864	-0.224583	-0.001545	0.974454	-0.216487	0.975088	-0.048348	-0.950103	-0.221815	-0.219323
20752	9.264631	1.276295	-1.187376	0.298681	-0.736062	0.113277	-0.231880	-0.002126	0.972742	-0.219067	0.974423	-0.050091	-0.947756	-0.224711	-0.226415
20753	9.131324	0.508240	-1.394627	0.184402	-0.767782	0.132373	-0.239426	-0.002605	0.970911	-0.220496	0.974013	-0.051761	-0.945546	-0.226475	-0.233778
20754	9.261160	-0.330567	-1.584063	0.244612	-0.794336	0.141962	-0.247302	-0.003076	0.968933	-0.222467	0.973461	-0.053690	-0.943054	-0.228833	-0.241424
20755	9.313969	-0.329861	-1.633726	0.424177	-0.813623	0.160231	-0.255309	-0.003432	0.966854	-0.226054	0.972490	-0.056240	-0.940062	-0.232920	-0.249061
20756	9.245221	-0.025723	-1.605229	0.449296	-0.848310	0.181914	-0.263743	-0.003703	0.964586	-0.229805	0.971440	-0.059105	-0.936819	-0.237255	-0.257061
20757	9.035691	-0.157020	-1.673430	0.444843	-0.891149	0.205586	-0.272538	-0.003877	0.962137	-0.233410	0.970386	-0.062206	-0.933404	-0.241526	-0.265372
20758	9.320609	-0.411948	-1.869782	0.507000	-0.915411	0.221899	-0.281643	-0.004004	0.959511	-0.237525	0.969159	-0.065676	-0.929655	-0.246405	-0.273908
20759	9.487599	-0.181095	-1.804480	0.599096	-0.935130	0.237326	-0.290872	-0.004073	0.956753	-0.242401	0.967678	-0.069575	-0.925546	-0.252156	-0.282458
20760	9.864677	0.034827	-1.660014	0.612085	-0.949398	0.261578	-0.300331	-0.004012	0.953827	-0.247287	0.966128	-0.073799	-0.921222	-0.258033	-0.291150
20761	9.487338	-0.024526	-1.484931	0.641033	-0.983511	0.284076	-0.310064	-0.003874	0.950708	-0.252310	0.964469	-0.078358	-0.916624	-0.264169	-0.300024
20762	9.115988	0.321130	-0.877800	0.721541	-1.044238	0.310410	-0.320447	-0.003725	0.947259	-0.257934	0.962550	-0.083471	-0.911473	-0.271078	-0.309407
20763	9.179076	0.590639	0.056208	0.702745	-1.122960	0.352719	-0.331556	-0.003451	0.943429	-0.263170	0.960638	-0.088974	-0.905987	-0.277782	-0.319413
20764	9.292272	0.593525	0.945545	0.710591	-1.221206	0.386204	-0.343648	-0.003227	0.939093	-0.268292	0.958654	-0.094883	-0.899959	-0.284557	-0.330305
20765	9.046758	0.662280	1.532723	0.630626	-1.342848	0.422027	-0.356816	-0.003082	0.934170	-0.272470	0.956857	-0.100916	-0.893556	-0.290541	-0.342262
20766	9.316930	0.658193	1.422593	0.644999	-1.480537	0.459418	-0.371280	-0.003086	0.928516	-0.276547	0.954979	-0.107407	-0.886382	-0.296657	-0.355419
20767	10.573110	1.222538	1.598099	0.633921	-1.616985	0.507627	-0.386947	-0.003124	0.922097	-0.280219	0.953100	-0.114361	-0.878493	-0.302641	-0.369675
20768	12.568134	1.566332	1.112479	0.604199	-1.753518	0.546106	-0.403828	-0.003331	0.914829	-0.283352	0.951273	-0.121615	-0.869848	-0.308331	-0.385094
20769	14.848809	1.430052	1.663284	0.432386	-1.886502	0.557279	-0.421720	-0.003923	0.906718	-0.284798	0.949956	-0.128351	-0.860838	-0.312359	-0.401733
20770	14.931554	-2.550827	1.157154	0.266720	-2.039824	0.507243	-0.440622	-0.005555	0.897675	-0.284908	0.949146	-0.133973	-0.851281	-0.314786	-0.419798
20771	14.778171	-5.367723	0.945640	0.893044	-2.135799	0.438628	-0.459921	-0.008245	0.887922	-0.290486	0.946332	-0.141677	-0.839101	-0.323090	-0.437633
20772	14.197338	-2.696063	2.309883	1.430013	-2.256459	0.461486	-0.480031	-0.011365	0.877178	-0.300219	0.941667	-0.152092	-0.824281	-0.336355	-0.455441
20773	14.665782	-1.693615	2.457438	0.970308	-2.356302	0.606048	-0.501102	-0.013732	0.865279	-0.305182	0.938441	-0.161844	-0.809791	-0.345168	-0.474445
20774	14.842205	-1.503999	2.463169	0.605184	-2.431591	0.801582	-0.523030	-0.014700	0.852188	-0.305940	0.936455	-0.171616	-0.795513	-0.350478	-0.494292
20775	14.475496	0.981548	2.870139	0.083555	-2.464794	1.013512	-0.545534	-0.013888	0.837974	-0.301193	0.936312	-0.180564	-0.782097	-0.350895	-0.514973
20776	13.273621	1.758166	1.867267	-0.989917	-2.516641	1.169127	-0.568458	-0.011648	0.822630	-0.286999	0.939894	-0.185015	-0.771030	-0.341267	-0.537633
20777	12.310533	0.125417	-1.077363	-1.553671	-2.640757	1.211453	-0.592023	-0.009079	0.805870	-0.268086	0.945211	-0.186297	-0.760026	-0.326334	-0.562020
20778	11.792978	-1.051668	-3.803178	-1.548437	-2.712710	1.123032	-0.615310	-0.007105	0.788253	-0.249642	0.950247	-0.186306	-0.747712	-0.311417	-0.586470
20779	11.090407	-1.143060	-6.180050	-1.267040	-2.699808	0.955777	-0.637611	-0.006281	0.770333	-0.234281	0.954183	-0.186136	-0.733870	-0.299157	-0.609869
20780	10.272577	-0.211265	-8.826350	-1.000420	-2.616290	0.755981	-0.658272	-0.006775	0.752750	-0.222127	0.957183	-0.185633	-0.719262	-0.289403	-0.631592
20781	9.784480	0.647279	-9.083688	-0.891441	-2.484598	0.583842	-0.677216	-0.008297	0.735737	-0.211897	0.959772	-0.184220	-0.704612	-0.280658	-0.651732
20782	9.763494	0.122609	-9.509933	-1.012304	-2.264311	0.476306	-0.693935	-0.009990	0.719969	-0.201587	0.962613	-0.180941	-0.691243	-0.270698	-0.670004
20783	8.718693	-1.010997	-9.650067	-0.844508	-1.924166	0.457154	-0.708012	-0.010748	0.706119	-0.192612	0.964914	-0.178441	-0.679426	-0.262345	-0.685241
20784	9.222556	-0.853283	-7.505276	-0.520674	-1.492365	0.442185	-0.718851	-0.010391	0.695087	-0.185971	0.966319	-0.177883	-0.669828	-0.257137	-0.696571
20785	8.805753	-0.776796	-5.628475	-0.616219	-1.035058	0.374725	-0.726424	-0.009433	0.687182	-0.179173	0.967925	-0.176118	-0.663479	-0.251061	-0.704814
20786	7.449609	-0.504539	-5.023692	-0.788592	-0.577340	0.215651	-0.730558	-0.008809	0.682794	-0.172409	0.969900	-0.171957	-0.660727	-0.243344	-0.710087
20787	6.383258	-1.819514	-6.388047	-1.037124	-0.153449	-0.007962	-0.731549	-0.009288	0.681726	-0.165630	0.972374	-0.164487	-0.661364	-0.233245	-0.712877
20788	5.798087	-3.858246	-8.080646	-0.743307	0.270505	-0.232010	-0.729306	-0.010964	0.684099	-0.162424	0.974062	-0.157547	-0.664628	-0.226014	-0.712171
20789	5.536375	-4.748708	-8.728997	0.018779	0.712455	-0.425949	-0.723844	-0.013538	0.689831	-0.165663	0.973970	-0.154717	-0.669780	-0.226270	-0.707245
20790	5.343280	-4.017541	-8.271893	0.752137	1.156256	-0.585947	-0.714995	-0.016612	0.698932	-0.174964	0.972157	-0.155880	-0.676882	-0.233741	-0.697994
20791	5.105003	-3.210651	-7.553714	1.154904	1.564007	-0.719889	-0.703020	-0.019891	0.710891	-0.187956	0.969262	-0.158755	-0.685882	-0.245224	-0.685150
20792	4.916562	-2.777278	-6.927087	1.361794	1.921657	-0.845375	-0.688019	-0.023253	0.725320	-0.203267	0.965653	-0.161856	-0.696644	-0.258794	-0.669114
20793	4.903879	-2.694039	-6.704908	1.494853	2.234207	-0.952513	-0.670290	-0.026518	0.741626	-0.220257	0.961438	-0.164693	-0.708660	-0.273741	-0.650283
20794	4.996724	-2.286615	-6.385553	1.596749	2.519725	-1.053390	-0.649788	-0.029545	0.759541	-0.238645	0.956649	-0.166948	-0.721682	-0.289742	-0.628669
20795	5.247625	-1.771603	-6.250793	1.583559	2.773796	-1.121123	-0.626782	-0.032020	0.778536	-0.257354	0.951592	-0.168053	-0.735468	-0.305693	-0.604681
20796	5.531175	-1.370511	-6.251491	1.402559	2.990349	-1.157072	-0.601425	-0.033671	0.798220	-0.274891	0.946829	-0.167179	-0.750149	-0.319969	-0.578702
20797	5.882764	-1.779102	-6.500882	1.076227	3.166715	-1.145914	-0.574169	-0.034223	0.818021	-0.289798	0.942939	-0.163960	-0.765733	-0.331201	-0.551325
20798	6.163931	-2.888219	-6.727335	0.884509	3.307241	-1.086131	-0.545298	-0.033361	0.837578	-0.302731	0.939607	-0.159665	-0.781668	-0.340626	-0.522465
20799	6.461307	-3.136940	-6.243095	0.844161	3.431362	-1.002659	-0.515093	-0.030958	0.856575	-0.314722	0.936374	-0.155413	-0.797264	-0.349635	-0.492063
20800	6.653386	-2.624577	-5.779105	0.722295	3.501150	-0.911376	-0.483934	-0.027124	0.874684	-0.325093	0.933563	-0.150914	-0.812479	-0.357386	-0.460601
20801	6.869229	-2.136258	-5.607562	0.370996	3.529962	-0.841086	-0.452199	-0.022311	0.891638	-0.332079	0.932025	-0.145094	-0.827792	-0.361706	-0.428870
20802	7.068285	-2.211245	-5.726259	0.017128	3.541105	-0.801438	-0.419877	-0.016978	0.907422	-0.335717	0.931813	-0.137907	-0.843207	-0.362541	-0.396947
20803	7.227167	-2.599446	-5.912215	-0.317096	3.552243	-0.764958	-0.387060	-0.011309	0.921985	-0.336109	0.932855	-0.129660	-0.858613	-0.360074	-0.364872
20804	7.238127	-3.511842	-6.160393	-0.558363	3.554454	-0.728881	-0.353776	-0.005426	0.935315	-0.333968	0.934799	-0.120898	-0.873675	-0.355136	-0.332521
20805	7.311533	-4.399383	-6.443556	-0.509200	3.546465	-0.674600	-0.320282	0.000740	0.947322	-0.331758	0.936585	-0.112896	-0.887331	-0.350440	-0.299726
20806	7.539150	-4.446903	-5.866828	-0.222802	3.528764	-0.566276	-0.286844	0.007742	0.957946	-0.331477	0.937395	-0.106833	-0.898801	-0.348181	-0.266320
20807	7.953342	-3.770243	-5.545478	0.129460	3.507447	-0.429242	-0.253711	0.015912	0.967149	-0.333804	0.937000	-0.102982	-0.907858	-0.348966	-0.232416
20808	8.238651	-2.215355	-4.909563	0.371331	3.458442	-0.305253	-0.221133	0.025157	0.974919	-0.337896	0.935771	-0.100789	-0.914837	-0.351709	-0.198429
20809	8.558195	-0.663420	-4.335772	0.232082	3.351373	-0.177857	-0.189746	0.035266	0.981200	-0.340387	0.935013	-0.099431	-0.920941	-0.352854	-0.165411
20810	8.838721	-0.418345	-4.208689	-0.274099	3.216390	-0.078731	-0.159725	0.045800	0.986098	-0.337973	0.936017	-0.098218	-0.927503	-0.348963	-0.134026
20811	8.843352	-1.683394	-4.341614	-0.715071	3.036788	-0.005253	-0.131417	0.056189	0.989733	-0.331316	0.938492	-0.097272	-0.934323	-0.340698	-0.104718
20812	8.686750	-3.459418	-4.462147	-0.692962	2.834314	0.030578	-0.104937	0.065996	0.992287	-0.324767	0.940815	-0.096918	-0.939955	-0.332432	-0.077293
20813	8.573278	-4.121948	-4.340329	-0.204149	2.622998	0.034471	-0.080334	0.074957	0.993946	-0.322803	0.941473	-0.097090	-0.943051	-0.328648	-0.051436
20814	8.215446	-3.117926	-4.292694	0.144649	2.380767	0.006415	-0.057882	0.082819	0.994882	-0.324140	0.941003	-0.097192	-0.944237	-0.328107	-0.027622
20815	7.426573	-2.622353	-3.994604	0.128068	2.075775	-0.050075	-0.038095	0.089118	0.995292	-0.325363	0.940634	-0.096677	-0.944822	-0.327514	-0.006838
20816	7.133911	-2.640903	-4.374987	0.191078	1.759730	-0.087854	-0.021188	0.094041	0.995343	-0.327169	0.940099	-0.095786	-0.944728	-0.327674	0.010849
20817	6.710260	-1.627652	-4.570563	0.348797	1.455857	-0.106360	-0.007072	0.097791	0.995182	-0.330464	0.939063	-0.094625	-0.943792	-0.329541	0.025675
20818	6.603077	0.179933	-4.419426	0.323523	1.145032	-0.078246	0.003970	0.100825	0.994896	-0.333492	0.938081	-0.093737	-0.942745	-0.331418	0.037349
20819	7.219064	1.726437	-3.662498	-0.020091	0.824819	0.002420	0.011757	0.103543	0.994556	-0.333289	0.938154	-0.093731	-0.942751	-0.330372	0.045539
20820	7.134743	2.450890	-3.547006	-0.634252	0.419178	0.129227	0.015258	0.106104	0.994238	-0.327301	0.940102	-0.095304	-0.944797	-0.323960	0.049072
20821	5.821965	1.083698	-4.058336	-1.530383	-0.017070	0.204963	0.014458	0.107947	0.994052	-0.312820	0.944739	-0.098042	-0.949702	-0.309542	0.047427
20822	5.434833	-1.839748	-6.001039	-1.841672	-0.470660	0.225058	0.009253	0.108629	0.994039	-0.295291	0.950046	-0.101072	-0.955363	-0.292596	0.040868
20823	6.365873	-3.400571	-6.240784	-1.713127	-0.799212	0.174638	0.001113	0.107980	0.994152	-0.278877	0.954745	-0.103387	-0.960326	-0.277131	0.031176
20824	10.311185	-5.627137	-4.679083	-1.044115	-0.620432	0.097614	-0.005177	0.107189	0.994225	-0.268821	0.957491	-0.104628	-0.963176	-0.267810	0.023857
20825	11.900395	-2.615600	-0.452394	-0.423886	-0.207763	0.110213	-0.007458	0.107656	0.994160	-0.264715	0.958507	-0.105781	-0.964298	-0.263958	0.021350
20826	12.848785	-1.556699	3.112521	-0.863540	-0.106906	0.047646	-0.008678	0.107807	0.994134	-0.256359	0.960705	-0.106420	-0.966543	-0.255779	0.019300
20827	15.254087	-2.789885	4.663783	-0.962816	-0.220838	-0.094012	-0.010564	0.106312	0.994277	-0.247037	0.963233	-0.105617	-0.968949	-0.246739	0.016088
20828	14.703050	-2.403480	4.256467	-0.981460	-0.432360	-0.138382	-0.014478	0.103905	0.994482	-0.237514	0.965762	-0.104362	-0.971276	-0.237714	0.010696
20829	11.455196	-3.041512	2.780687	-1.070549	-0.715457	-0.158642	-0.021053	0.100668	0.994697	-0.227118	0.968425	-0.102816	-0.973640	-0.228078	0.002476
20830	9.911475	-4.966910	0.175454	-0.598990	-0.963820	-0.206207	-0.030027	0.096475	0.994882	-0.221313	0.969986	-0.100740	-0.974741	-0.223205	-0.007775
20831	10.274395	-3.337155	-1.207417	0.289581	-1.123056	-0.263366	-0.040367	0.091356	0.995000	-0.224214	0.969588	-0.098120	-0.973704	-0.227054	-0.018656
20832	10.278419	-0.261889	-2.420258	0.543210	-1.125432	-0.292383	-0.050702	0.085921	0.995011	-0.229604	0.968603	-0.095340	-0.971963	-0.233293	-0.029382
20833	9.377773	1.793523	-4.114161	0.315924	-0.979076	-0.293870	-0.059518	0.080736	0.994957	-0.232823	0.968112	-0.092485	-0.970696	-0.237154	-0.038823
20834	8.858395	2.258106	-5.347054	-0.038104	-0.834003	-0.311704	-0.066942	0.075720	0.994879	-0.232630	0.968451	-0.089362	-0.970259	-0.237420	-0.047215
20835	9.350556	1.187682	-5.736034	-0.305749	-0.724011	-0.331462	-0.073187	0.070762	0.994805	-0.229884	0.969422	-0.085869	-0.970462	-0.234974	-0.054682
20836	9.515844	-0.474306	-5.418200	-0.303751	-0.616775	-0.330767	-0.078484	0.066084	0.994723	-0.227175	0.970363	-0.082390	-0.970686	-0.232442	-0.061145
20837	9.586683	-1.629243	-4.069266	-0.396428	-0.526958	-0.326239	-0.082851	0.061665	0.994652	-0.223578	0.971491	-0.078852	-0.971158	-0.228915	-0.066702
20838	9.721032	-3.149077	-3.113361	-0.402817	-0.471429	-0.316337	-0.086807	0.057488	0.994565	-0.219925	0.972598	-0.075414	-0.971647	-0.225276	-0.071785
20839	10.182862	-2.986033	-1.799238	-0.173085	-0.461226	-0.306466	-0.090602	0.053434	0.994453	-0.218504	0.973162	-0.072198	-0.971621	-0.223833	-0.076495
20840	10.468758	-2.038273	-1.235408	-0.079996	-0.464857	-0.299741	-0.094547	0.049452	0.994291	-0.217993	0.973498	-0.069147	-0.971360	-0.223287	-0.081261
20841	10.041249	-0.216035	-0.929341	-0.031496	-0.472117	-0.267418	-0.098535	0.045758	0.994081	-0.217936	0.973700	-0.066422	-0.970976	-0.223191	-0.085972
20842	9.948351	1.171200	-0.790912	-0.248154	-0.518273	-0.221635	-0.103170	0.042423	0.993759	-0.215739	0.974352	-0.063992	-0.970986	-0.220994	-0.091371
20843	9.867207	0.727558	-1.306642	-0.323971	-0.547108	-0.178894	-0.108085	0.039442	0.993359	-0.212772	0.975141	-0.061869	-0.971105	-0.218046	-0.097006
20844	10.040869	1.000329	-1.431153	-0.270921	-0.534528	-0.167597	-0.113003	0.036618	0.992920	-0.210319	0.975795	-0.059923	-0.971080	-0.215602	-0.102566
20845	9.826028	0.055384	-2.047714	-0.305554	-0.519259	-0.199648	-0.117615	0.033520	0.992493	-0.207573	0.976524	-0.057579	-0.971123	-0.212787	-0.107896
20846	9.716452	-1.065836	-2.419180	0.023054	-0.499053	-0.249656	-0.122023	0.029986	0.992074	-0.208092	0.976555	-0.055111	-0.970468	-0.213168	-0.112922
20847	10.115446	-0.270084	-2.191656	0.457798	-0.450891	-0.268069	-0.125818	0.026361	0.991703	-0.212855	0.975649	-0.052939	-0.968949	-0.217749	-0.117143
20848	9.941222	0.863678	-2.097360	0.516918	-0.405953	-0.236604	-0.129322	0.023125	0.991333	-0.218159	0.974570	-0.051193	-0.967307	-0.222888	-0.120988
20849	9.543268	1.152682	-2.146821	0.311259	-0.374027	-0.185747	-0.132516	0.020439	0.990970	-0.221402	0.973916	-0.049694	-0.966137	-0.225988	-0.124534
20850	9.463584	0.526467	-2.392628	0.107306	-0.346659	-0.122477	-0.135676	0.018422	0.990582	-0.222605	0.973697	-0.048598	-0.965422	-0.227102	-0.128007
20851	9.548833	-0.274764	-2.147809	0.029830	-0.335509	-0.076639	-0.138730	0.016877	0.990186	-0.222989	0.973646	-0.047837	-0.964899	-0.227437	-0.131310
20852	9.533203	-0.249565	-1.407148	0.041173	-0.317271	-0.038313	-0.141791	0.015740	0.989772	-0.223444	0.973559	-0.047492	-0.964349	-0.227893	-0.134524
20853	9.536423	-0.058147	-0.748058	-0.019949	-0.334798	-0.019315	-0.144961	0.014753	0.989327	-0.223271	0.973611	-0.047234	-0.963917	-0.227736	-0.137842
20854	9.529426	0.030566	-0.266062	-0.082294	-0.360070	-0.006145	-0.148502	0.013832	0.988815	-0.222492	0.973799	-0.047036	-0.963558	-0.226989	-0.141534
20855	9.641496	0.200995	-0.004395	-0.157322	-0.383335	0.004520	-0.152192	0.012972	0.988266	-0.220962	0.974158	-0.046815	-0.963335	-0.225494	-0.145392
20856	9.512784	-0.254679	-0.078153	-0.211387	-0.420065	-0.014300	-0.156287	0.011847	0.987641	-0.218953	0.974634	-0.046338	-0.963138	-0.223489	-0.149728
20857	9.510512	-0.670461	-0.173454	-0.120696	-0.464197	-0.016583	-0.160706	0.010614	0.986945	-0.217809	0.974909	-0.045951	-0.962669	-0.222351	-0.154362
20858	9.554391	-0.401242	-0.156484	0.007080	-0.503663	-0.020664	-0.165584	0.009250	0.986152	-0.217916	0.974895	-0.045734	-0.961818	-0.222471	-0.159411
20859	9.586771	0.135641	-0.241096	0.032494	-0.535850	-0.009285	-0.170701	0.007930	0.985291	-0.218237	0.974827	-0.045655	-0.960851	-0.222820	-0.164674
20860	9.621616	0.371958	-0.539554	-0.011733	-0.572962	0.012519	-0.176303	0.006733	0.984313	-0.218107	0.974853	-0.045734	-0.959868	-0.222749	-0.170401
20861	9.678867	0.450018	-1.162668	-0.036455	-0.587657	0.034045	-0.182001	0.005720	0.983282	-0.217690	0.974935	-0.045965	-0.958899	-0.222416	-0.176194
20862	9.528138	0.369378	-1.869533	-0.096828	-0.590083	0.052647	-0.187840	0.004879	0.982188	-0.216670	0.975147	-0.046282	-0.958003	-0.221504	-0.182114
20863	9.470535	-0.137158	-2.694224	-0.128265	-0.587550	0.058411	-0.193579	0.004114	0.981076	-0.215324	0.975431	-0.046577	-0.957164	-0.220266	-0.187937
20864	9.526301	-0.598930	-3.277284	-0.025680	-0.567218	0.062782	-0.199208	0.003431	0.979951	-0.214963	0.975485	-0.047114	-0.956089	-0.220039	-0.193587
20865	9.615222	-0.814196	-3.478530	0.107638	-0.543503	0.064198	-0.204526	0.002822	0.978857	-0.215857	0.975249	-0.047914	-0.954764	-0.221092	-0.198855
20866	9.575608	-0.671818	-3.283040	0.224755	-0.526909	0.071462	-0.209779	0.002301	0.977746	-0.217861	0.974747	-0.049037	-0.953168	-0.223300	-0.203980
20867	9.461975	-0.643619	-2.924158	0.234530	-0.519777	0.088274	-0.214909	0.001958	0.976632	-0.219902	0.974222	-0.050343	-0.951555	-0.225583	-0.208938
20868	9.388627	-0.636236	-2.341493	0.286459	-0.523832	0.100011	-0.220183	0.001695	0.975457	-0.222417	0.973569	-0.051897	-0.949763	-0.228385	-0.213987
20869	9.329405	-0.889770	-1.551965	0.208223	-0.554917	0.112730	-0.225687	0.001483	0.974199	-0.224137	0.973093	-0.053406	-0.948065	-0.230407	-0.219282
20870	9.542986	-1.978787	-1.641992	0.339870	-0.581443	0.114646	-0.231524	0.001202	0.972828	-0.227102	0.972302	-0.055250	-0.945950	-0.233723	-0.224838
20871	9.919318	-0.811407	-1.250380	0.729653	-0.582643	0.122610	-0.237295	0.000975	0.971437	-0.233702	0.970573	-0.058061	-0.942907	-0.240804	-0.230085
20872	9.717032	0.834102	-0.681728	0.615756	-0.615500	0.129682	-0.243466	0.000688	0.969909	-0.239193	0.969071	-0.060730	-0.939953	-0.246781	-0.235771
20873	9.297082	0.585301	-1.146356	0.428029	-0.652228	0.143373	-0.249919	0.000418	0.968267	-0.242853	0.968009	-0.063100	-0.937317	-0.250917	-0.241822
20874	9.232133	0.165327	-1.417859	0.535094	-0.690824	0.155846	-0.256830	0.000128	0.966457	-0.247474	0.966651	-0.065893	-0.934235	-0.256096	-0.248233
20875	9.165088	-0.183532	-1.288063	0.586421	-0.731531	0.170866	-0.264064	-0.000152	0.964505	-0.252495	0.965137	-0.068976	-0.930869	-0.261747	-0.254897
20876	9.277629	-0.840310	-1.447071	0.629339	-0.768796	0.189206	-0.271749	-0.000410	0.962368	-0.257843	0.963471	-0.072398	-0.927183	-0.267814	-0.261928
20877	9.811390	-1.072178	-1.279588	0.812990	-0.779467	0.206567	-0.279485	-0.000576	0.960150	-0.264792	0.961266	-0.076500	-0.922916	-0.275621	-0.268812
20878	9.816849	-0.732731	-1.019323	0.906807	-0.784969	0.246873	-0.287430	-0.000449	0.957801	-0.272447	0.958729	-0.081310	-0.918235	-0.284322	-0.275690
20879	9.423336	0.066621	-1.000432	0.999846	-0.838832	0.260699	-0.295817	-0.000414	0.955245	-0.280841	0.955843	-0.086555	-0.913029	-0.293876	-0.282871
20880	8.944447	1.183506	-0.449123	0.978171	-0.913514	0.299395	-0.305035	-0.000329	0.952341	-0.288852	0.952925	-0.092190	-0.907479	-0.303207	-0.290770
20881	9.134953	1.035228	0.081130	0.717567	-1.002699	0.343409	-0.315094	-0.000170	0.949061	-0.294280	0.950730	-0.097533	-0.902284	-0.310021	-0.299619
20882	9.093894	0.507238	0.318500	0.674260	-1.084043	0.372947	-0.325993	-0.000071	0.945372	-0.299158	0.948619	-0.103087	-0.896790	-0.316422	-0.309265
20883	9.150383	0.514035	1.074728	0.705486	-1.199240	0.400367	-0.337903	-0.000147	0.941181	-0.304135	0.946368	-0.109042	-0.890687	-0.323091	-0.319825
20884	9.566119	0.432982	1.745682	0.711372	-1.333653	0.432693	-0.351094	-0.000460	0.936340	-0.308966	0.944048	-0.115388	-0.883897	-0.329809	-0.331592
20885	10.842734	1.044643	1.976515	0.817698	-1.459741	0.476577	-0.365409	-0.000872	0.930847	-0.314456	0.941327	-0.122559	-0.876124	-0.337494	-0.344244
20886	12.596033	2.008280	2.405008	0.674277	-1.583507	0.523478	-0.380892	-0.001393	0.924618	-0.318393	0.939038	-0.129746	-0.868071	-0.343811	-0.358116
20887	12.594475	0.913621	1.480534	0.324196	-1.728104	0.539437	-0.397530	-0.002332	0.917586	-0.319098	0.937933	-0.135860	-0.860318	-0.346808	-0.373601
20888	12.889741	-2.081379	-0.183067	0.283127	-1.842703	0.503417	-0.414913	-0.004077	0.909852	-0.319489	0.936966	-0.141496	-0.851924	-0.349396	-0.390062
20889	14.546348	-3.393465	-0.009062	0.820477	-1.933054	0.482632	-0.432814	-0.006423	0.901460	-0.324393	0.934099	-0.149094	-0.841095	-0.356957	-0.406375
20890	14.494268	-2.450095	1.065867	1.171879	-2.022536	0.560596	-0.451524	-0.008566	0.892218	-0.331705	0.929898	-0.158937	-0.828310	-0.367717	-0.422713
20891	14.374541	-1.586889	1.968596	0.804132	-2.118490	0.681986	-0.471197	-0.010136	0.881970	-0.335175	0.926981	-0.168417	-0.815862	-0.374972	-0.440188
20892	14.027630	-1.219154	2.406663	0.546318	-2.222902	0.815938	-0.491903	-0.010998	0.870580	-0.335675	0.925011	-0.177980	-0.803339	-0.379781	-0.458708
20893	13.705218	-0.063065	2.271332	0.225365	-2.285167	0.985126	-0.513397	-0.010623	0.858086	-0.332527	0.924265	-0.187511	-0.791106	-0.381604	-0.478047
20894	13.510077	1.532307	1.801209	-0.256091	-2.347818	1.143702	-0.535548	-0.008996	0.844457	-0.324523	0.925358	-0.195952	-0.779662	-0.378987	-0.498493
20895	13.410822	1.644946	0.208623	-0.854048	-2.386961	1.244282	-0.557975	-0.006445	0.829833	-0.311114	0.928662	-0.201979	-0.769332	-0.370872	-0.520175
20896	12.950743	0.800368	-2.427861	-1.313541	-2.410855	1.258700	-0.580152	-0.003541	0.814500	-0.293920	0.933523	-0.205295	-0.759628	-0.358500	-0.542626
20897	12.080024	-0.276618	-5.215234	-1.515692	-2.404254	1.171300	-0.601619	-0.001057	0.798782	-0.275571	0.938881	-0.206309	-0.749744	-0.344241	-0.565140
20898	11.033306	-0.483239	-7.374830	-1.397889	-2.352845	1.016744	-0.621786	0.000540	0.783187	-0.258961	0.943611	-0.206244	-0.739136	-0.331055	-0.586584
20899	10.088492	0.180773	-8.250325	-1.288737	-2.293638	0.817734	-0.640655	0.000785	0.767828	-0.244359	0.947799	-0.204856	-0.727907	-0.318868	-0.607021
20900	9.226467	0.315436	-8.585997	-1.452277	-2.207280	0.640089	-0.658056	-0.000056	0.752969	-0.229733	0.952334	-0.200704	-0.717067	-0.305056	-0.626702
20901	8.615195	-0.982610	-8.994452	-1.423768	-2.041809	0.504531	-0.673704	-0.001365	0.739000	-0.216253	0.956589	-0.195378	-0.706652	-0.291438	-0.644753
20902	7.568281	-2.542720	-9.654416	-1.106928	-1.746788	0.451384	-0.686856	-0.002083	0.726791	-0.205442	0.959770	-0.191403	-0.697153	-0.280779	-0.659652
20903	8.410479	-3.066865	-8.211913	-0.709937	-1.337880	0.375971	-0.696878	-0.002217	0.717186	-0.197936	0.961751	-0.189358	-0.689335	-0.273916	-0.670662
20904	7.959088	-2.795509	-6.413030	-0.500960	-0.862752	0.230024	-0.703197	-0.002390	0.710991	-0.192914	0.963122	-0.187562	-0.684323	-0.269053	-0.677726
20905	7.173847	-1.874747	-5.807020	-0.395513	-0.383824	0.049507	-0.705903	-0.002974	0.708302	-0.189881	0.964184	-0.185188	-0.682382	-0.265218	-0.681186
20906	6.201573	-1.945573	-6.464623	-0.412209	0.057397	-0.174468	-0.705125	-0.004549	0.709069	-0.188324	0.965268	-0.181084	-0.683618	-0.261222	-0.681491
20907	5.459580	-2.797312	-7.515948	-0.260864	0.468199	-0.394329	-0.701160	-0.007175	0.712968	-0.189326	0.965927	-0.176469	-0.687409	-0.258717	-0.678627
20908	4.966760	-3.530085	-8.064346	0.215799	0.871031	-0.589626	-0.693960	-0.010647	0.719935	-0.194955	0.965319	-0.173644	-0.693118	-0.260857	-0.671968
20909	4.728319	-3.203955	-7.999884	0.717015	1.270612	-0.750031	-0.683594	-0.014557	0.729717	-0.205134	0.963332	-0.172951	-0.700442	-0.267918	-0.661514
20910	4.608302	-2.900016	-7.594434	1.059468	1.637240	-0.889995	-0.670116	-0.018683	0.742021	-0.218648	0.960295	-0.173282	-0.709322	-0.278361	-0.647594
20911	4.684440	-2.834103	-7.480692	1.341129	1.976081	-1.004219	-0.653709	-0.022710	0.756405	-0.234892	0.956268	-0.174290	-0.719368	-0.291609	-0.630456
20912	4.570061	-2.581045	-7.060565	1.654032	2.286920	-1.092361	-0.634416	-0.026308	0.772544	-0.253935	0.951047	-0.176146	-0.730091	-0.307926	-0.610040
20913	4.533002	-1.619386	-6.347213	1.934045	2.542311	-1.173355	-0.612596	-0.029394	0.789849	-0.275491	0.944583	-0.178514	-0.740831	-0.326953	-0.586746
20914	4.878958	-0.068034	-5.790352	1.851019	2.774728	-1.218227	-0.588349	-0.031572	0.807991	-0.296643	0.937995	-0.179353	-0.752229	-0.345207	-0.561234
20915	5.289994	0.332162	-5.860732	1.224270	2.946808	-1.230201	-0.562219	-0.032762	0.826339	-0.313024	0.933301	-0.175971	-0.765458	-0.357598	-0.534974
20916	5.609690	-1.874673	-6.005315	0.615369	3.056305	-1.232500	-0.534620	-0.033259	0.844438	-0.324558	0.930677	-0.168825	-0.780284	-0.364326	-0.508353
20917	5.886681	-4.177967	-5.885611	0.653721	3.163281	-1.219438	-0.505664	-0.032987	0.862100	-0.336059	0.927872	-0.161611	-0.794587	-0.371437	-0.480277
20918	6.291286	-3.971535	-5.792532	0.866593	3.267550	-1.156072	-0.475483	-0.031448	0.879162	-0.348687	0.924246	-0.155522	-0.807671	-0.380500	-0.450429
20919	6.651775	-2.856024	-5.347779	0.769429	3.302335	-1.096113	-0.444700	-0.028895	0.895213	-0.360000	0.920960	-0.149105	-0.820148	-0.388584	-0.419953
20920	7.120649	-2.274816	-5.051024	0.420417	3.312020	-1.032539	-0.413528	-0.025482	0.910135	-0.367913	0.919041	-0.141434	-0.832847	-0.393338	-0.389424
20921	7.526174	-1.979516	-5.109695	0.081997	3.314879	-0.955716	-0.382146	-0.021232	0.923858	-0.372408	0.918499	-0.132935	-0.845740	-0.394852	-0.358908
20922	7.910047	-1.632587	-5.115088	-0.202184	3.310714	-0.861717	-0.350681	-0.016133	0.936356	-0.373846	0.919141	-0.124175	-0.858640	-0.393599	-0.328356
20923	8.147688	-1.460230	-4.990529	-0.520435	3.302669	-0.738289	-0.319333	-0.010032	0.947589	-0.371818	0.921086	-0.115549	-0.871652	-0.389229	-0.297864
20924	8.156642	-1.801675	-4.938651	-0.821110	3.276511	-0.606172	-0.288291	-0.003030	0.957538	-0.366450	0.924218	-0.107405	-0.884648	-0.381854	-0.267554
20925	8.100370	-2.520134	-5.087365	-1.009071	3.232727	-0.474363	-0.257749	0.004737	0.966200	-0.358752	0.928033	-0.100252	-0.897141	-0.372467	-0.237501
20926	8.157924	-3.074374	-4.980552	-0.974995	3.177104	-0.327235	-0.227884	0.013342	0.973597	-0.350744	0.931654	-0.094863	-0.908321	-0.363101	-0.207630
20927	8.429565	-3.374809	-5.061919	-0.707240	3.125083	-0.210014	-0.198604	0.022584	0.979820	-0.344730	0.934241	-0.091408	-0.917452	-0.355927	-0.177759
20928	8.689836	-2.824473	-4.682830	-0.414974	3.049041	-0.120316	-0.170097	0.032205	0.984901	-0.341125	0.935747	-0.089512	-0.924500	-0.351200	-0.148182
20929	8.657729	-1.981440	-4.393337	-0.282372	2.934311	-0.063000	-0.142654	0.041832	0.988888	-0.338597	0.936763	-0.088472	-0.930055	-0.347456	-0.119469
20930	8.501941	-1.249676	-3.891907	-0.295901	2.769482	-0.037893	-0.116701	0.051009	0.991856	-0.335880	0.937808	-0.087749	-0.934647	-0.343385	-0.092310
20931	8.456893	-1.126687	-3.208694	-0.390188	2.531538	-0.030438	-0.092869	0.059318	0.993910	-0.332248	0.939162	-0.087096	-0.938609	-0.338313	-0.067511
20932	8.340009	-1.100227	-2.533673	-0.311913	2.244690	-0.032835	-0.071664	0.066519	0.995208	-0.329334	0.940237	-0.086560	-0.941490	-0.333960	-0.045474
20933	8.292668	-0.366976	-1.661854	-0.291881	1.891214	-0.028037	-0.053728	0.072499	0.995920	-0.326590	0.941233	-0.086136	-0.943638	-0.329885	-0.026893
20934	8.347751	-0.435137	-1.319849	-0.573625	1.510928	-0.029994	-0.039363	0.077114	0.996245	-0.321175	0.943135	-0.085693	-0.946201	-0.323342	-0.012358
20935	8.348754	-1.725805	-1.788912	-0.767150	1.127456	-0.056188	-0.028483	0.080148	0.996376	-0.313913	0.945636	-0.085040	-0.949025	-0.315197	-0.001775
20936	8.172145	-2.811088	-2.090478	-0.674490	0.780718	-0.091429	-0.020795	0.081678	0.996442	-0.307518	0.947818	-0.084110	-0.951315	-0.308173	0.005408
20937	8.119853	-3.023420	-2.719784	-0.405374	0.483622	-0.114633	-0.015824	0.082035	0.996504	-0.303667	0.949160	-0.082960	-0.952647	-0.303918	0.009892
20938	7.906410	-2.330273	-3.433730	-0.340742	0.240663	-0.127742	-0.013166	0.081515	0.996585	-0.300426	0.950300	-0.081698	-0.953714	-0.300476	0.011978
20939	8.011452	-1.971651	-4.190642	-0.329850	0.068118	-0.122853	-0.012132	0.080515	0.996680	-0.297281	0.951392	-0.080476	-0.954713	-0.297270	0.012394
20940	7.689057	0.109798	-4.508825	-0.336268	-0.095440	-0.075727	-0.012852	0.079479	0.996754	-0.294068	0.952453	-0.079738	-0.955698	-0.294138	0.011131
20941	6.424203	2.327061	-4.962961	-0.989910	-0.294177	0.003609	-0.015662	0.078626	0.996781	-0.284579	0.955323	-0.079827	-0.958525	-0.284914	0.007413
20942	5.926865	0.711900	-6.879240	-1.726294	-0.640360	0.060408	-0.022026	0.077389	0.996758	-0.267977	0.960060	-0.080461	-0.963174	-0.268880	-0.000407
20943	8.590301	-2.964795	-7.611869	-1.473006	-0.795138	0.076580	-0.029883	0.076006	0.996659	-0.253730	0.963868	-0.081113	-0.966813	-0.255306	-0.009519
20944	11.108153	-3.610762	-5.546731	-0.845651	-0.533252	0.092055	-0.035337	0.075507	0.996519	-0.245517	0.965927	-0.081895	-0.968748	-0.247556	-0.015595
20945	12.185292	-2.191309	-2.413128	-0.644815	-0.158473	0.119769	-0.037149	0.076241	0.996397	-0.239209	0.967419	-0.082942	-0.970257	-0.241429	-0.017701
20946	12.082179	-2.546981	-0.028148	-1.134255	0.067948	0.123697	-0.036852	0.077555	0.996307	-0.228143	0.970002	-0.083946	-0.972930	-0.230394	-0.018053
20947	12.321088	-5.640937	1.106027	-1.156098	0.154181	0.033611	-0.035411	0.078191	0.996309	-0.216855	0.972580	-0.084036	-0.975561	-0.219030	-0.017484
20948	12.262298	-4.524454	2.373073	-0.470536	0.107161	-0.041843	-0.034348	0.077980	0.996363	-0.212270	0.973636	-0.083519	-0.976607	-0.214366	-0.016890
20949	11.602607	-0.855664	3.075975	-0.486862	-0.100768	-0.063819	-0.035185	0.077108	0.996402	-0.207522	0.974723	-0.082759	-0.977597	-0.209687	-0.018294
20950	11.349241	-0.688123	1.756371	-0.932415	-0.339988	-0.043071	-0.038491	0.075960	0.996368	-0.198402	0.976674	-0.082123	-0.979365	-0.200842	-0.022522
20951	10.616146	-1.481229	0.376777	-1.051717	-0.499589	-0.018616	-0.043340	0.074762	0.996259	-0.188088	0.978754	-0.081631	-0.981196	-0.190922	-0.028357
20952	9.875374	-1.979437	-0.913758	-0.945180	-0.602775	-0.058293	-0.049214	0.073038	0.996114	-0.178820	0.980564	-0.080732	-0.982650	-0.182099	-0.035197
20953	9.947167	-1.695013	-2.041984	-0.606911	-0.638427	-0.138910	-0.055234	0.070493	0.995982	-0.172915	0.981757	-0.079075	-0.983387	-0.176588	-0.042037
20954	9.663544	-0.834720	-2.502795	-0.423849	-0.587848	-0.206719	-0.060728	0.067408	0.995876	-0.168852	0.982644	-0.076809	-0.983769	-0.172820	-0.048292
20955	9.203613	-0.692992	-2.801443	-0.262456	-0.507888	-0.275027	-0.065253	0.063795	0.995827	-0.166432	0.983280	-0.073897	-0.983892	-0.170559	-0.053544
20956	9.432915	-0.855184	-2.915412	-0.223525	-0.448969	-0.325607	-0.069202	0.059802	0.995809	-0.164439	0.983864	-0.070513	-0.983957	-0.168630	-0.058252
20957	9.623774	-1.093740	-2.745236	-0.155655	-0.387456	-0.351875	-0.072427	0.055652	0.995820	-0.163146	0.984333	-0.066875	-0.983940	-0.167307	-0.062213
20958	9.671250	-0.002303	-1.642986	-0.142572	-0.333123	-0.342697	-0.075224	0.051693	0.995826	-0.161986	0.984757	-0.063355	-0.983922	-0.166075	-0.065704
20959	9.921548	0.212130	-0.718352	-0.616298	-0.343425	-0.296432	-0.078122	0.048175	0.995779	-0.156136	0.985915	-0.059947	-0.984641	-0.160160	-0.069500
20960	10.114031	-1.123251	-0.803997	-0.917459	-0.372346	-0.253979	-0.081482	0.045057	0.995656	-0.147292	0.987464	-0.056741	-0.985731	-0.151276	-0.073824
20961	9.997227	-1.790799	-0.882648	-0.880269	-0.395532	-0.229912	-0.085043	0.042167	0.995485	-0.138792	0.988862	-0.053743	-0.986663	-0.142735	-0.078244
20962	9.932283	-1.676623	-0.635557	-0.795749	-0.424906	-0.219999	-0.089018	0.039370	0.995252	-0.131120	0.990059	-0.050892	-0.987362	-0.135028	-0.082971
20963	9.760233	-1.541258	-0.610742	-0.609345	-0.480985	-0.224748	-0.093470	0.036471	0.994954	-0.125297	0.990953	-0.048095	-0.987706	-0.129160	-0.088054
20964	9.988389	-0.569740	-0.451555	-0.306216	-0.510083	-0.242867	-0.098284	0.033386	0.994598	-0.122495	0.991431	-0.045384	-0.987591	-0.126294	-0.093352
20965	10.097739	0.871338	-0.182604	-0.126902	-0.527712	-0.256985	-0.103171	0.030136	0.994207	-0.121491	0.991675	-0.042667	-0.987216	-0.125189	-0.098651
20966	9.816782	1.415834	-0.255623	-0.182446	-0.545613	-0.262440	-0.108315	0.026827	0.993755	-0.119959	0.991979	-0.039854	-0.986852	-0.123527	-0.104228
20967	9.702806	1.189629	-0.711775	-0.144102	-0.556690	-0.260554	-0.113486	0.023520	0.993261	-0.118817	0.992224	-0.037071	-0.986409	-0.122223	-0.109809
20968	9.918982	1.133629	-1.195984	-0.048827	-0.541068	-0.245616	-0.118603	0.020389	0.992732	-0.118616	0.992339	-0.034552	-0.985831	-0.121852	-0.115276
20969	9.916456	0.961829	-1.860728	-0.034492	-0.528952	-0.223906	-0.123541	0.017486	0.992185	-0.118538	0.992426	-0.032249	-0.985234	-0.121595	-0.120532
20970	9.662145	0.302428	-2.654949	-0.017712	-0.506216	-0.199006	-0.128363	0.014858	0.991616	-0.118613	0.992480	-0.030225	-0.984608	-0.121499	-0.125635
20971	9.569864	-0.237639	-3.019752	0.076400	-0.468854	-0.177460	-0.132757	0.012488	0.991070	-0.119588	0.992414	-0.028524	-0.983908	-0.122307	-0.130256
20972	9.572378	-0.453168	-3.296564	0.170102	-0.418724	-0.161686	-0.136755	0.010329	0.990551	-0.121481	0.992223	-0.027118	-0.983128	-0.124041	-0.134437
20973	9.707447	-0.336402	-3.292101	0.211062	-0.368283	-0.147190	-0.140184	0.008370	0.990090	-0.123750	0.991975	-0.025907	-0.982362	-0.126156	-0.138024
20974	9.385283	-0.843459	-3.019154	0.127307	-0.336475	-0.144886	-0.143388	0.006467	0.989645	-0.125209	0.991825	-0.024622	-0.981714	-0.127443	-0.141406
20975	9.463938	-1.221645	-2.572671	0.258434	-0.313388	-0.132316	-0.146286	0.004714	0.989231	-0.127928	0.991502	-0.023642	-0.980936	-0.130009	-0.144440
20976	9.772032	-0.332856	-1.559677	0.353299	-0.304964	-0.111644	-0.149214	0.003168	0.988800	-0.131560	0.991041	-0.023028	-0.980014	-0.133522	-0.147460
20977	9.654735	0.096303	-0.840992	0.259179	-0.321420	-0.096941	-0.152223	0.001736	0.988345	-0.134237	0.990696	-0.022415	-0.979188	-0.136084	-0.150574
20978	9.595270	-0.010774	-0.192975	0.144283	-0.365127	-0.081254	-0.155768	0.000394	0.987794	-0.135777	0.990499	-0.021806	-0.978418	-0.137517	-0.154235
20979	9.546636	-0.505440	0.000859	0.167259	-0.417388	-0.073097	-0.159740	-0.000945	0.987159	-0.137521	0.990270	-0.021305	-0.977533	-0.139158	-0.158316
20980	9.634571	-0.486310	0.060094	0.322421	-0.467250	-0.071621	-0.164281	-0.002349	0.986411	-0.140789	0.989815	-0.021090	-0.976315	-0.142340	-0.162939
20981	9.635126	0.179643	0.068360	0.433934	-0.508058	-0.073465	-0.169123	-0.003848	0.985588	-0.145137	0.989188	-0.021043	-0.974850	-0.146604	-0.167852
20982	9.565121	0.469709	-0.144269	0.392436	-0.544400	-0.073599	-0.174388	-0.005420	0.984662	-0.149088	0.988602	-0.020962	-0.973325	-0.150457	-0.173209
20983	9.490986	0.472395	-0.538155	0.395560	-0.577673	-0.067353	-0.179894	-0.007004	0.983661	-0.153047	0.987997	-0.020955	-0.971707	-0.154316	-0.178807
20984	9.519862	0.657361	-0.882751	0.393071	-0.603362	-0.050504	-0.185740	-0.008483	0.982562	-0.156958	0.987379	-0.021146	-0.969982	-0.158149	-0.184727
20985	9.486330	0.749752	-1.370993	0.303517	-0.612748	-0.020396	-0.191635	-0.009700	0.981418	-0.159932	0.986894	-0.021475	-0.968348	-0.161076	-0.190675
20986	9.512693	0.591221	-1.926058	0.173619	-0.614534	0.008351	-0.197658	-0.010653	0.980213	-0.161600	0.986614	-0.021864	-0.966859	-0.162724	-0.196734
20987	9.592240	0.233591	-2.567893	0.103709	-0.603769	0.023399	-0.203519	-0.011445	0.979004	-0.162549	0.986449	-0.022260	-0.965483	-0.163667	-0.202621
20988	9.553925	-0.023431	-3.104943	0.096679	-0.579211	0.031600	-0.209222	-0.012126	0.977793	-0.163423	0.986294	-0.022737	-0.964116	-0.164551	-0.208336
20989	9.432621	0.049996	-3.165186	0.143679	-0.559594	0.046298	-0.214678	-0.012631	0.976603	-0.164704	0.986064	-0.023452	-0.962697	-0.165885	-0.213767
20990	9.452798	0.367553	-2.790292	0.141788	-0.543169	0.065768	-0.220077	-0.012931	0.975397	-0.165933	0.985836	-0.024370	-0.961266	-0.167214	-0.219105
20991	9.412836	0.273128	-2.385920	0.044418	-0.543831	0.085296	-0.225432	-0.013038	0.974172	-0.166165	0.985774	-0.025259	-0.959984	-0.167567	-0.224391
20992	9.685775	-0.746889	-2.061269	-0.009560	-0.562904	0.099015	-0.231061	-0.013050	0.972852	-0.165857	0.985803	-0.026169	-0.958698	-0.167400	-0.229945
20993	9.645319	-1.092496	-1.457689	0.255482	-0.586214	0.095452	-0.236824	-0.013135	0.971464	-0.168076	0.985386	-0.027650	-0.956904	-0.169828	-0.235571
20994	9.498898	-0.478994	-0.643762	0.388970	-0.627157	0.091783	-0.243038	-0.013351	0.969925	-0.171582	0.984730	-0.029439	-0.954721	-0.173576	-0.241617
20995	9.505323	-0.031680	-0.390478	0.447801	-0.678277	0.090970	-0.249652	-0.013685	0.968239	-0.175623	0.983957	-0.031376	-0.952276	-0.177878	-0.248050
20996	9.256972	0.315504	-0.167639	0.511062	-0.733036	0.096902	-0.256852	-0.014097	0.966348	-0.180245	0.983049	-0.033568	-0.949494	-0.182801	-0.255039
20997	9.230239	0.623613	0.001108	0.514552	-0.795249	0.109536	-0.264580	-0.014531	0.964254	-0.184834	0.982113	-0.035916	-0.946485	-0.187729	-0.262533
20998	9.217702	0.539683	-0.264034	0.455004	-0.856903	0.141129	-0.272991	-0.014816	0.961903	-0.188761	0.981270	-0.038457	-0.943316	-0.192068	-0.270674
20999	9.151194	0.209233	-0.762296	0.426428	-0.916668	0.170825	-0.281936	-0.014957	0.959317	-0.192300	0.980470	-0.041229	-0.939964	-0.196101	-0.279306
21000	9.086173	0.141442	-1.231007	0.465306	-0.963621	0.191508	-0.291393	-0.015035	0.956485	-0.196124	0.979576	-0.044351	-0.936283	-0.200514	-0.288390
21001	9.019054	0.018992	-1.680004	0.465997	-1.015402	0.203956	-0.301272	-0.015133	0.953418	-0.199872	0.978664	-0.047624	-0.932355	-0.204909	-0.297868
21002	9.194872	-0.128223	-2.015133	0.511538	-1.058416	0.218276	-0.311598	-0.015238	0.950092	-0.203970	0.977636	-0.051216	-0.928064	-0.209749	-0.307738
21003	9.211950	-0.379733	-1.945818	0.615350	-1.109246	0.221230	-0.322311	-0.015472	0.946507	-0.208964	0.976364	-0.055198	-0.923282	-0.215577	-0.317926
21004	9.194818	-0.258897	-1.101836	0.783546	-1.170216	0.218585	-0.333584	-0.015951	0.942585	-0.215469	0.974680	-0.059761	-0.917766	-0.223033	-0.328575
21005	9.277091	0.144542	-0.083815	0.872684	-1.245397	0.229691	-0.345466	-0.016580	0.938285	-0.222672	0.972738	-0.064796	-0.911631	-0.231315	-0.339740
21006	9.487785	0.402333	0.830293	0.870995	-1.336829	0.258796	-0.358224	-0.017257	0.933476	-0.229681	0.970731	-0.070195	-0.904943	-0.239547	-0.351702
21007	11.023645	1.410202	0.996753	0.976208	-1.431324	0.308423	-0.371830	-0.017798	0.928130	-0.237355	0.968405	-0.076520	-0.897444	-0.248748	-0.364306
21008	12.757491	3.046221	1.657379	0.820630	-1.528686	0.361502	-0.386376	-0.018207	0.922162	-0.243326	0.966398	-0.082871	-0.889666	-0.256406	-0.377823
21009	12.208390	1.822297	0.992423	0.287193	-1.652113	0.402076	-0.401982	-0.018615	0.915458	-0.244289	0.965735	-0.087631	-0.882459	-0.258862	-0.392755
21010	11.718785	-0.986649	-0.740780	0.122807	-1.769976	0.372288	-0.418444	-0.019660	0.908030	-0.243854	0.965489	-0.091471	-0.874894	-0.259702	-0.408797
21011	13.150412	-2.587115	-1.719673	0.640130	-1.839522	0.329737	-0.435249	-0.021345	0.900057	-0.248021	0.963878	-0.097079	-0.865473	-0.265487	-0.424821
21012	14.672533	-2.626526	-0.575234	1.026294	-1.905629	0.359812	-0.452535	-0.023075	0.891448	-0.255261	0.961187	-0.104700	-0.854432	-0.274932	-0.440861
21013	14.042465	-1.495511	0.808421	1.025995	-1.985958	0.412945	-0.470441	-0.024701	0.882085	-0.262067	0.958419	-0.112930	-0.842618	-0.284292	-0.457353
21014	13.419967	-1.526222	1.371651	0.709254	-2.085207	0.498933	-0.489183	-0.025952	0.871795	-0.265614	0.956511	-0.120568	-0.830752	-0.290541	-0.474802
21015	13.259292	-1.460938	1.741285	0.497950	-2.190940	0.615616	-0.508876	-0.026514	0.860432	-0.266656	0.955218	-0.128270	-0.818499	-0.294712	-0.493157
21016	13.048943	-0.346914	1.832176	0.283624	-2.274159	0.763320	-0.529340	-0.025977	0.848012	-0.265000	0.954584	-0.136175	-0.805962	-0.296806	-0.512183
21017	13.379435	0.254160	1.174134	-0.144809	-2.358898	0.880562	-0.550501	-0.024582	0.834473	-0.259097	0.955239	-0.142787	-0.793611	-0.294813	-0.532228
21018	13.288247	-0.193289	-0.774718	-0.373904	-2.405026	0.953771	-0.571816	-0.022526	0.820072	-0.250804	0.956564	-0.148605	-0.781104	-0.290652	-0.552628
21019	12.989361	0.192653	-2.821609	-0.517258	-2.371701	0.963884	-0.592552	-0.020161	0.805280	-0.241195	0.958262	-0.153489	-0.768574	-0.285180	-0.572683
21020	11.862277	0.727308	-4.625829	-0.874158	-2.314714	0.916605	-0.612299	-0.017884	0.790424	-0.229013	0.960897	-0.155662	-0.756732	-0.276329	-0.592452
21021	10.633954	0.455849	-6.122825	-1.355843	-2.248740	0.812445	-0.630980	-0.016161	0.775631	-0.213789	0.964694	-0.153819	-0.745760	-0.262878	-0.612158
21022	9.531765	-0.782601	-7.792337	-1.473280	-2.173469	0.676769	-0.648403	-0.015200	0.761146	-0.198563	0.968571	-0.149810	-0.734947	-0.248273	-0.631042
21023	8.451898	-0.471913	-8.461169	-1.167072	-2.071564	0.533082	-0.664526	-0.015087	0.747112	-0.186567	0.971484	-0.146326	-0.723600	-0.236624	-0.648392
21024	7.871139	0.111976	-8.820411	-1.303229	-1.927512	0.396439	-0.679027	-0.015696	0.733945	-0.174558	0.974549	-0.140655	-0.713058	-0.223624	-0.664485
21025	7.027545	-2.177562	-10.460622	-1.494192	-1.637058	0.303525	-0.691131	-0.016309	0.722546	-0.161905	0.977830	-0.132794	-0.704362	-0.208762	-0.678449
21026	7.103691	-4.534964	-10.811494	-0.862387	-1.232169	0.242450	-0.700094	-0.016489	0.713860	-0.154193	0.979637	-0.128591	-0.697204	-0.200098	-0.688381
21027	7.692484	-4.222227	-7.897451	-0.191885	-0.713560	0.178788	-0.705316	-0.016195	0.708708	-0.151621	0.980051	-0.128499	-0.692488	-0.198088	-0.693701
21028	6.943029	-2.966955	-6.528093	0.286008	-0.184011	0.087233	-0.706672	-0.015734	0.707367	-0.152996	0.979498	-0.131059	-0.690802	-0.200840	-0.694591
21029	6.160039	-1.473107	-6.221780	0.416911	0.296526	-0.058362	-0.704522	-0.015741	0.709508	-0.156309	0.978645	-0.133499	-0.692255	-0.204955	-0.691937
