// General information: 
//  MT Manager version: 2022.2.0 
//  XDA version: 2022.2.0 build 7381 rev 124627 built on 2023-07-19
// Device information: 
//  DeviceId: 00B4CBA7
//  ProductCode: MTW2-3A7G6
//  Firmware Version: 4.6.0
//  Hardware Version: 2.0.0
// Device settings: 
//  Filter Profile: human(46.1)
//  Option Flags: Orientation Smoother Disabled, Position/Velocity Smoother Disabled, Continuous Zero Rotation Update Disabled, AHS Disabled, ICC Disabled
// Coordinate system: ENU
PacketCounter	Acc_X	Acc_Y	Acc_Z	Gyr_X	Gyr_Y	Gyr_Z	Mat[1][1]	Mat[2][1]	Mat[3][1]	Mat[1][2]	Mat[2][2]	Mat[3][2]	Mat[1][3]	Mat[2][3]	Mat[3][3]
16528	9.579520	0.966797	-0.896037	0.126345	0.000438	-0.070657	0.066570	0.176537	0.982040	0.425005	-0.895490	0.132168	0.902740	0.408573	-0.134642
16529	9.613131	0.934066	-0.997141	0.177835	-0.010048	-0.082923	0.066284	0.177348	0.981914	0.426646	-0.894618	0.132781	0.901986	0.410129	-0.134963
16530	9.702936	0.829776	-1.099836	0.242295	-0.017240	-0.095926	0.066000	0.178302	0.981760	0.428887	-0.893450	0.133432	0.900944	0.412257	-0.135439
16531	9.788356	0.888164	-1.100215	0.269587	-0.024492	-0.107272	0.065734	0.179389	0.981580	0.431366	-0.892146	0.134156	0.899779	0.414602	-0.136027
16532	9.762719	1.001312	-1.197807	0.249762	-0.030648	-0.110299	0.065503	0.180524	0.981387	0.433677	-0.890908	0.134935	0.898685	0.416766	-0.136646
16533	9.627573	1.153495	-1.216900	0.175381	-0.037094	-0.112060	0.065324	0.181704	0.981181	0.435307	-0.889976	0.135832	0.897909	0.418242	-0.137234
16534	9.503225	1.182039	-1.212791	0.096397	-0.047074	-0.108962	0.065243	0.182895	0.980965	0.436235	-0.889373	0.136805	0.897465	0.419006	-0.137810
16535	9.551235	1.314978	-1.202002	0.042052	-0.053207	-0.119046	0.065176	0.184204	0.980725	0.436671	-0.888981	0.137952	0.897257	0.419263	-0.138377
16536	9.601437	1.376323	-1.197251	-0.008198	-0.058119	-0.121465	0.065140	0.185552	0.980473	0.436657	-0.888795	0.139192	0.897267	0.419064	-0.138919
16537	9.613215	1.575855	-1.086055	-0.052251	-0.075302	-0.133755	0.065208	0.187084	0.980177	0.436257	-0.888767	0.140614	0.897456	0.418440	-0.139571
16538	9.671554	1.798060	-0.913038	-0.143942	-0.094618	-0.141142	0.065414	0.188758	0.979843	0.435042	-0.889105	0.142235	0.898031	0.416968	-0.140277
16539	9.731197	1.462440	-0.800843	-0.242715	-0.109561	-0.140828	0.065763	0.190494	0.979483	0.432935	-0.889850	0.143994	0.899023	0.414583	-0.140990
16540	9.806908	1.138343	-0.534551	-0.275025	-0.141346	-0.143985	0.066385	0.192385	0.979072	0.430535	-0.890715	0.145831	0.900129	0.411844	-0.141959
16541	9.988248	1.289215	-0.062312	-0.296369	-0.185800	-0.146180	0.067407	0.194477	0.978588	0.427945	-0.891651	0.147722	0.901287	0.408825	-0.143329
16542	9.988320	1.616134	0.514197	-0.332911	-0.244532	-0.150462	0.068937	0.196839	0.978009	0.425051	-0.892703	0.149709	0.902540	0.405383	-0.145207
16543	9.780051	1.825563	1.142439	-0.387195	-0.310319	-0.142872	0.071111	0.199394	0.977336	0.421636	-0.893984	0.151711	0.903973	0.401291	-0.147644
16544	9.507417	1.445096	1.675642	-0.420972	-0.389896	-0.139717	0.074017	0.202223	0.976538	0.417933	-0.895375	0.153739	0.905458	0.396748	-0.150789
16545	9.375064	0.990601	1.983697	-0.364970	-0.482830	-0.138617	0.077791	0.205398	0.975582	0.414713	-0.896535	0.155687	0.906621	0.392476	-0.154923
16546	9.327988	1.208923	2.220686	-0.270166	-0.589860	-0.133976	0.082550	0.208928	0.974441	0.412383	-0.897301	0.157454	0.907263	0.388845	-0.160230
16547	9.411660	1.828108	2.209052	-0.246892	-0.687201	-0.112866	0.088298	0.212628	0.973136	0.410221	-0.898020	0.158994	0.907702	0.385162	-0.166518
16548	9.565105	2.434963	1.885200	-0.256650	-0.786477	-0.087053	0.095041	0.216446	0.971657	0.407989	-0.898802	0.160310	0.908026	0.381190	-0.173731
16549	9.906968	3.059410	1.469186	-0.328643	-0.894375	-0.053667	0.102923	0.220344	0.969977	0.405040	-0.899931	0.161454	0.908487	0.376262	-0.181872
16550	10.388305	3.101432	1.210605	-0.433558	-0.979063	-0.010100	0.111746	0.224114	0.968135	0.401108	-0.901521	0.162396	0.909190	0.370179	-0.190635
16551	10.773218	2.553187	0.877772	-0.421126	-1.036050	0.014519	0.121203	0.227814	0.966132	0.397244	-0.903100	0.163117	0.909674	0.364020	-0.199956
16552	11.020501	2.317963	0.529721	-0.332685	-1.095369	0.056889	0.131355	0.231280	0.963979	0.394131	-0.904432	0.163288	0.909619	0.358485	-0.209956
16553	11.519410	2.723964	0.240663	-0.270434	-1.132329	0.071527	0.141910	0.234691	0.961656	0.391558	-0.905562	0.163220	0.909145	0.353381	-0.220403
16554	11.766616	3.094450	-0.225242	-0.181202	-1.147886	0.053041	0.152510	0.238263	0.959151	0.389807	-0.906327	0.163160	0.908180	0.349001	-0.231101
16555	11.746262	3.055449	-0.648518	-0.074624	-1.159652	0.046405	0.163191	0.241898	0.956480	0.389042	-0.906697	0.162931	0.906651	0.345522	-0.242073
16556	11.838790	2.991870	-1.046551	-0.015054	-1.166698	0.058316	0.173944	0.245403	0.953688	0.388785	-0.906893	0.162451	0.904759	0.342523	-0.253158
16557	11.762813	2.530461	-1.478804	0.009140	-1.159996	0.073775	0.184691	0.248719	0.950804	0.388721	-0.907044	0.161764	0.902654	0.339721	-0.264205
16558	11.626221	1.902465	-1.631772	0.046390	-1.132868	0.087248	0.195205	0.251786	0.947892	0.388951	-0.907107	0.160853	0.900340	0.337284	-0.275004
16559	11.392799	1.191397	-1.752647	0.092520	-1.100382	0.110646	0.205506	0.254511	0.944982	0.389548	-0.907075	0.159586	0.897786	0.335320	-0.285554
16560	10.853973	0.654186	-2.132119	0.222188	-1.068514	0.138868	0.215586	0.256854	0.942098	0.391228	-0.906686	0.157672	0.894686	0.334583	-0.295957
16561	10.452794	0.892416	-2.773274	0.311535	-1.043951	0.180928	0.225595	0.258736	0.939235	0.393598	-0.906109	0.155072	0.891172	0.334697	-0.306252
16562	10.113614	1.083847	-3.646275	0.218175	-0.992642	0.248505	0.235367	0.259827	0.936532	0.394949	-0.906024	0.152105	0.888042	0.334082	-0.315866
16563	9.761180	0.174656	-4.606561	0.124563	-0.890288	0.321428	0.244509	0.259911	0.934164	0.395270	-0.906442	0.148740	0.885425	0.332879	-0.324368
16564	9.313978	0.025265	-4.997580	0.142954	-0.789742	0.341138	0.252803	0.259467	0.932077	0.395672	-0.906852	0.145129	0.882912	0.332107	-0.331919
16565	8.976836	0.357390	-5.264089	0.117816	-0.673473	0.313112	0.259958	0.258890	0.930267	0.395897	-0.907272	0.141859	0.880731	0.331413	-0.338347
16566	8.616857	0.797052	-5.143225	0.007161	-0.493073	0.264261	0.265307	0.258146	0.928963	0.395253	-0.907930	0.139419	0.879424	0.330187	-0.342913
16567	7.924832	1.016774	-5.292714	-0.133248	-0.260025	0.221457	0.268444	0.257019	0.928375	0.393480	-0.908938	0.137861	0.879268	0.328289	-0.345130
16568	7.985344	1.484225	-5.346400	-0.272554	-0.053639	0.206897	0.269692	0.255335	0.928477	0.390513	-0.910358	0.136921	0.880208	0.325656	-0.345228
16569	7.850014	1.566673	-5.010264	-0.493675	0.175749	0.218299	0.268967	0.252806	0.929379	0.385563	-0.912509	0.136633	0.882608	0.321585	-0.342908
16570	7.500512	1.316741	-4.522651	-0.632181	0.412224	0.229928	0.266167	0.249413	0.931101	0.379345	-0.915103	0.136687	0.886145	0.316826	-0.338184
16571	7.251927	1.029516	-4.281810	-0.659841	0.633004	0.247151	0.261452	0.245185	0.933556	0.372821	-0.917789	0.136632	0.890308	0.312326	-0.331368
16572	7.142137	1.145978	-4.103504	-0.675139	0.815908	0.253565	0.255073	0.240348	0.936574	0.366127	-0.920498	0.136509	0.894924	0.308085	-0.322792
16573	7.160076	1.281894	-3.886592	-0.759680	0.973255	0.253130	0.247233	0.235068	0.940010	0.358661	-0.923421	0.136588	0.900132	0.303376	-0.312610
16574	7.289998	0.949952	-3.822690	-0.828116	1.122869	0.256987	0.237973	0.229338	0.943808	0.350546	-0.926508	0.136747	0.905807	0.298306	-0.300878
16575	7.408454	0.753121	-3.814854	-0.771791	1.252276	0.251707	0.227446	0.223324	0.947837	0.342935	-0.929362	0.136679	0.911407	0.293960	-0.287965
16576	7.495498	0.849862	-3.652388	-0.704484	1.367161	0.252965	0.215776	0.217000	0.952025	0.335920	-0.931977	0.136294	0.916841	0.290396	-0.273993
16577	7.574015	0.832441	-3.423024	-0.658528	1.463741	0.242524	0.203103	0.210539	0.956255	0.329344	-0.934397	0.135775	0.922107	0.287360	-0.259118
16578	7.657197	0.587385	-3.310180	-0.584908	1.537054	0.225656	0.189598	0.204054	0.960424	0.323477	-0.936539	0.135121	0.927046	0.285057	-0.243573
16579	7.783029	0.333092	-3.284807	-0.434487	1.589335	0.195299	0.175436	0.197730	0.964430	0.319069	-0.938167	0.134305	0.931352	0.284157	-0.227678
16580	7.914180	0.445670	-3.232967	-0.241998	1.623388	0.147591	0.160728	0.191750	0.968193	0.316546	-0.939143	0.133448	0.934861	0.285029	-0.211645
16581	7.956309	0.675564	-3.030347	-0.104984	1.643264	0.101930	0.145644	0.186122	0.971672	0.315391	-0.939636	0.132712	0.937719	0.287128	-0.195553
16582	8.109178	0.598295	-2.797232	0.023780	1.647542	0.058295	0.130332	0.180842	0.974838	0.315516	-0.939675	0.132136	0.939927	0.290355	-0.179528
16583	8.275406	0.547392	-2.688515	0.222564	1.631589	0.008308	0.114990	0.176016	0.977648	0.317582	-0.939039	0.131711	0.941233	0.295338	-0.163880
16584	8.521348	0.915210	-2.438274	0.390935	1.591501	-0.028783	0.099887	0.171560	0.980097	0.321274	-0.937823	0.131418	0.941703	0.301753	-0.148794
16585	8.800786	1.327188	-2.153746	0.455864	1.530787	-0.054583	0.085274	0.167430	0.982189	0.325600	-0.936340	0.131346	0.941655	0.308600	-0.134361
16586	9.021851	1.492355	-1.748565	0.465925	1.446437	-0.056744	0.071443	0.163474	0.983957	0.330011	-0.934795	0.131345	0.941270	0.315333	-0.120732
16587	9.016728	2.025018	-1.449263	0.486862	1.332031	-0.037652	0.058763	0.159610	0.985430	0.334597	-0.933184	0.131195	0.940527	0.322012	-0.108242
16588	9.052380	3.398329	-1.535953	0.430180	1.193651	0.024591	0.047596	0.155528	0.986684	0.338607	-0.931827	0.130547	0.939723	0.327885	-0.097014
16589	9.212964	4.480868	-1.426064	0.044964	1.048470	0.119712	0.038126	0.150993	0.987799	0.338959	-0.931865	0.129361	0.940028	0.329891	-0.086708
16590	8.945882	4.362458	-1.190227	-0.485950	0.909612	0.224968	0.030295	0.145935	0.988830	0.334288	-0.933797	0.127572	0.941984	0.326689	-0.077074
16591	8.780494	3.282315	-1.261276	-0.930413	0.772610	0.331748	0.024078	0.140367	0.989807	0.325398	-0.937278	0.125002	0.945271	0.319071	-0.068242
16592	8.576120	2.295723	-1.328891	-1.214132	0.647631	0.421167	0.019261	0.134406	0.990739	0.313784	-0.941669	0.121649	0.949299	0.308535	-0.060312
16593	8.404829	1.652457	-1.161749	-1.452758	0.516049	0.481479	0.015807	0.128331	0.991605	0.299854	-0.946692	0.117739	0.953854	0.295475	-0.053445
16594	8.445559	1.165014	-1.158256	-1.634607	0.390379	0.527905	0.013589	0.122225	0.992409	0.284123	-0.952062	0.113366	0.958692	0.280426	-0.047664
16595	8.764406	0.794609	-1.241789	-1.783801	0.248797	0.558056	0.012715	0.116250	0.993139	0.266882	-0.957583	0.108672	0.963645	0.263669	-0.043201
16596	8.847443	-0.028021	-1.081238	-1.822226	0.104909	0.549712	0.013095	0.110735	0.993764	0.249186	-0.962854	0.104007	0.968367	0.246270	-0.040203
16597	8.554925	-0.910134	-1.110623	-1.587843	-0.029291	0.509267	0.014591	0.105922	0.994267	0.233687	-0.967196	0.099608	0.972202	0.230894	-0.038865
16598	8.200239	-1.352141	-1.506025	-1.206441	-0.147301	0.461496	0.017052	0.101813	0.994657	0.221847	-0.970391	0.095525	0.974932	0.219033	-0.039134
16599	9.249415	-0.859488	-0.232930	-0.790958	-0.277744	0.374978	0.020562	0.098799	0.994895	0.214037	-0.972470	0.092149	0.976609	0.211049	-0.041143
16600	10.171151	-0.941969	0.014218	-0.372635	-0.251427	0.165664	0.023348	0.097743	0.994938	0.210338	-0.973413	0.090693	0.977350	0.207156	-0.043286
16601	10.582366	1.662731	0.479492	0.638170	-0.217001	-0.149057	0.025131	0.099681	0.994702	0.216585	-0.971926	0.091927	0.975940	0.213127	-0.046015
16602	10.976953	3.261580	1.205126	0.919501	-0.134592	-0.316802	0.025720	0.103079	0.994341	0.225608	-0.969606	0.094679	0.973879	0.221896	-0.048194
16603	10.919936	1.681833	1.282825	1.075279	-0.166144	-0.221565	0.026806	0.105633	0.994044	0.236104	-0.966936	0.096385	0.971358	0.232114	-0.050860
16604	11.277094	2.324050	0.258603	1.049233	-0.336737	-0.073938	0.029870	0.107175	0.993791	0.246281	-0.964372	0.096600	0.968738	0.241867	-0.055201
16605	11.077140	1.958284	-0.533814	0.864473	-0.370250	-0.014790	0.033397	0.108259	0.993562	0.254630	-0.962233	0.096286	0.966462	0.249775	-0.059701
16606	11.467666	1.970442	-0.413498	0.721159	-0.446210	0.051083	0.037811	0.108926	0.993330	0.261553	-0.960466	0.095367	0.964448	0.256203	-0.064806
16607	11.267645	2.757154	-0.425279	0.362828	-0.448849	0.138835	0.042483	0.108781	0.993157	0.264974	-0.959684	0.093780	0.963319	0.259177	-0.069595
16608	10.303272	1.653768	-0.978468	0.004153	-0.393285	0.239357	0.046880	0.107533	0.993096	0.264887	-0.959934	0.091438	0.963139	0.258771	-0.073485
16609	9.330191	0.587156	-1.848560	0.035578	-0.375268	0.264850	0.051176	0.105992	0.993049	0.265079	-0.960127	0.088817	0.962868	0.258691	-0.077232
16610	9.323723	1.294412	-2.266161	0.234463	-0.390110	0.231801	0.055522	0.104810	0.992941	0.267192	-0.959765	0.086368	0.962042	0.260511	-0.081292
16611	9.626085	1.942660	-2.412367	0.317658	-0.377449	0.185798	0.059631	0.104047	0.992783	0.270120	-0.959130	0.084295	0.960978	0.263144	-0.085299
16612	9.919864	2.804700	-2.615256	0.386187	-0.365751	0.180097	0.063608	0.103320	0.992612	0.273698	-0.958296	0.082209	0.959710	0.266447	-0.089233
16613	10.236297	3.734563	-2.608033	0.189672	-0.340273	0.229062	0.067481	0.102065	0.992486	0.275348	-0.958027	0.079800	0.958973	0.267894	-0.092752
16614	10.256093	3.176933	-2.838426	-0.127748	-0.290285	0.283350	0.071018	0.100157	0.992434	0.273908	-0.958657	0.077148	0.959130	0.266356	-0.095516
16615	9.882264	2.043837	-2.796234	-0.330029	-0.258883	0.317173	0.074346	0.097831	0.992422	0.270491	-0.959847	0.074356	0.959847	0.262913	-0.097823
16616	9.818191	0.901260	-2.468502	-0.473912	-0.222128	0.320227	0.077314	0.095367	0.992435	0.265679	-0.961393	0.071687	0.960957	0.258126	-0.099666
16617	9.800326	-0.776996	-2.139144	-0.456869	-0.171448	0.296345	0.079724	0.092986	0.992471	0.261034	-0.962843	0.069241	0.962032	0.253548	-0.101034
16618	9.689105	-1.277864	-1.761893	-0.188805	-0.132680	0.266802	0.081671	0.090785	0.992516	0.258984	-0.963567	0.066826	0.962423	0.251588	-0.102207
16619	9.493298	-0.393966	-1.247486	-0.005669	-0.121480	0.255699	0.083483	0.088657	0.992558	0.258699	-0.963813	0.064331	0.962344	0.251403	-0.103397
16620	9.441990	0.328843	-0.638429	0.005258	-0.132266	0.259394	0.085404	0.086522	0.992583	0.258512	-0.964030	0.061791	0.962225	0.251318	-0.104699
16621	9.392321	0.798623	0.063165	-0.077893	-0.142224	0.259900	0.087424	0.084405	0.992589	0.257519	-0.964450	0.059330	0.962310	0.250424	-0.106052
16622	9.663286	-0.423006	0.188742	-0.099871	-0.123966	0.257007	0.089254	0.082268	0.992605	0.256313	-0.964916	0.056926	0.962464	0.249337	-0.107209
16623	9.934125	-1.756069	0.536734	0.112094	-0.117286	0.229671	0.090954	0.080376	0.992606	0.257166	-0.964826	0.054562	0.962078	0.250302	-0.108425
16624	9.964298	-1.879093	0.619417	0.382543	-0.160901	0.193181	0.092978	0.078951	0.992533	0.260648	-0.964018	0.052266	0.960946	0.253842	-0.110211
16625	10.018497	-1.064457	0.520596	0.525677	-0.206396	0.160902	0.095364	0.077961	0.992385	0.265525	-0.962800	0.050121	0.959376	0.258724	-0.112517
16626	9.981495	-0.051252	0.262845	0.495043	-0.258251	0.147226	0.098209	0.077249	0.992163	0.270110	-0.961626	0.048134	0.957808	0.263266	-0.115306
16627	9.838641	0.548263	-0.044424	0.316758	-0.299103	0.151095	0.101463	0.076619	0.991884	0.272973	-0.960907	0.046303	0.956656	0.266060	-0.118412
16628	9.740433	0.378808	-0.534813	0.141539	-0.324119	0.154716	0.104961	0.076027	0.991566	0.274149	-0.960651	0.044637	0.955942	0.267152	-0.121674
16629	9.758827	0.157895	-0.863531	0.113806	-0.350991	0.143438	0.108690	0.075619	0.991195	0.275065	-0.960459	0.043112	0.955262	0.267957	-0.125192
16630	9.886903	0.415101	-1.325894	0.162388	-0.356746	0.118890	0.112399	0.075466	0.990793	0.276467	-0.960116	0.041766	0.954428	0.269227	-0.128780
16631	9.917254	0.388147	-1.936620	0.190499	-0.351559	0.111846	0.116043	0.075372	0.990380	0.278138	-0.959689	0.040447	0.953506	0.270769	-0.132329
16632	9.613857	0.360655	-2.114105	0.185302	-0.351877	0.091086	0.119626	0.075484	0.989945	0.279780	-0.959258	0.039335	0.952582	0.272261	-0.135871
16633	9.672142	0.380979	-2.098793	0.167813	-0.341282	0.082309	0.123086	0.075657	0.989508	0.281260	-0.958866	0.038328	0.951705	0.273591	-0.139303
16634	9.828907	0.256432	-2.249606	0.135600	-0.300644	0.088404	0.126171	0.075664	0.989119	0.282423	-0.958565	0.037301	0.950956	0.274643	-0.142312
16635	9.480784	0.310658	-2.312868	0.190913	-0.251070	0.093676	0.128803	0.075488	0.988793	0.284101	-0.958113	0.036138	0.950103	0.276262	-0.144854
16636	9.354325	0.555497	-1.988820	0.161270	-0.243067	0.087542	0.131336	0.075353	0.988470	0.285502	-0.957736	0.035076	0.949336	0.277603	-0.147299
16637	9.668754	0.445381	-1.616463	0.174005	-0.241312	0.077030	0.133827	0.075318	0.988138	0.287034	-0.957314	0.034094	0.948526	0.279066	-0.149733
16638	9.794753	0.008915	-1.159111	0.206596	-0.256472	0.059324	0.136405	0.075498	0.987772	0.288896	-0.956784	0.033235	0.947593	0.280830	-0.152321
16639	9.851652	-0.434119	-1.070207	0.276307	-0.254786	0.050710	0.138945	0.075763	0.987398	0.291426	-0.956046	0.032348	0.946449	0.283258	-0.154917
16640	9.711637	-0.502405	-0.987124	0.307024	-0.267774	0.045475	0.141586	0.076120	0.986995	0.294249	-0.955211	0.031458	0.945183	0.285969	-0.157643
16641	9.619293	-0.033221	-0.965928	0.274745	-0.290442	0.045405	0.144444	0.076551	0.986547	0.296763	-0.954460	0.030611	0.943964	0.288349	-0.160583
16642	9.495913	0.577736	-0.889364	0.149623	-0.324950	0.048437	0.147629	0.077057	0.986036	0.298088	-0.954069	0.029929	0.943053	0.289507	-0.163818
16643	9.408035	0.865326	-0.611750	0.011898	-0.358397	0.051443	0.151141	0.077634	0.985459	0.298107	-0.954078	0.029441	0.942491	0.289322	-0.167344
16644	9.905755	0.142047	-0.359346	-0.020373	-0.390380	0.031572	0.154888	0.078491	0.984809	0.297851	-0.954166	0.029203	0.941963	0.288803	-0.171167
16645	10.101687	0.385355	0.105148	0.006500	-0.421335	0.017074	0.158886	0.079575	0.984085	0.297869	-0.954164	0.029062	0.941291	0.288511	-0.175306
16646	10.120205	-0.222738	0.183099	0.005466	-0.443535	0.019602	0.163092	0.080696	0.983305	0.297873	-0.954168	0.028899	0.940570	0.288187	-0.179654
16647	9.991021	-0.200878	-0.483112	0.042339	-0.462135	0.000929	0.167419	0.082049	0.982466	0.298254	-0.954050	0.028852	0.939689	0.288194	-0.184198
16648	9.669376	-0.421108	-1.325380	0.007966	-0.474809	0.000152	0.171853	0.083444	0.981582	0.298313	-0.954031	0.028874	0.938869	0.287857	-0.188845
16649	9.648855	-0.611356	-2.350060	0.042379	-0.473327	-0.009522	0.176246	0.084928	0.980676	0.298712	-0.953905	0.028925	0.937928	0.287842	-0.193491
16650	9.777453	-0.404658	-3.080602	0.055659	-0.459422	-0.031679	0.180431	0.086581	0.979769	0.299275	-0.953721	0.029166	0.936952	0.287959	-0.197993
16651	9.822030	-0.262660	-3.695159	0.056064	-0.441457	-0.052104	0.184389	0.088380	0.978872	0.299880	-0.953517	0.029603	0.935987	0.288086	-0.202322
16652	10.065737	-0.043012	-4.180583	0.009829	-0.403983	-0.070186	0.187933	0.090241	0.978028	0.300088	-0.953430	0.030308	0.935216	0.287799	-0.206261
16653	10.038173	0.131937	-4.286427	-0.043710	-0.370394	-0.091994	0.191099	0.092213	0.977230	0.299839	-0.953475	0.031337	0.934654	0.287023	-0.209858
16654	9.932655	0.272653	-4.043343	-0.142390	-0.342235	-0.100324	0.193973	0.094177	0.976476	0.298687	-0.953792	0.032657	0.934431	0.285326	-0.213139
16655	9.942234	0.296862	-3.526705	-0.221131	-0.324067	-0.121736	0.196619	0.096290	0.975740	0.296844	-0.954308	0.034359	0.934465	0.282887	-0.216218
16656	9.865934	0.150827	-2.746036	-0.275654	-0.298003	-0.129822	0.198996	0.098397	0.975048	0.294510	-0.954960	0.036264	0.934700	0.279945	-0.219012
16657	9.513617	0.159050	-1.729435	-0.320625	-0.307044	-0.143395	0.201426	0.100652	0.974319	0.291785	-0.955712	0.038407	0.935034	0.276555	-0.221874
16658	9.175535	-0.039723	-0.487920	-0.357287	-0.340142	-0.160264	0.204119	0.103147	0.973497	0.288754	-0.956533	0.040805	0.935391	0.272772	-0.225030
16659	9.663664	-0.792654	0.877468	-0.310691	-0.382819	-0.197129	0.207113	0.106102	0.972546	0.286239	-0.957172	0.043467	0.935506	0.269378	-0.228613
16660	9.822535	-0.178910	2.023481	-0.150271	-0.465354	-0.227716	0.210790	0.109559	0.971372	0.285295	-0.957332	0.046065	0.934973	0.267418	-0.233053
16661	9.794246	0.170161	2.426676	-0.153507	-0.562992	-0.241155	0.215346	0.113398	0.969932	0.284360	-0.957474	0.048808	0.934219	0.265300	-0.238434
16662	9.828045	0.301671	2.089521	-0.142016	-0.673972	-0.241369	0.220927	0.117517	0.968184	0.283547	-0.957573	0.051528	0.933163	0.263142	-0.244875
16663	10.073440	0.205820	1.534671	-0.219243	-0.766450	-0.227408	0.227412	0.121732	0.966160	0.281999	-0.957876	0.054312	0.932073	0.260105	-0.252161
16664	10.156618	-0.085022	0.798773	-0.260591	-0.854237	-0.223396	0.234713	0.126105	0.963850	0.280074	-0.958274	0.057173	0.930843	0.256530	-0.260239
16665	10.423255	0.355975	0.084550	-0.291265	-0.936128	-0.236732	0.242741	0.130788	0.961234	0.277917	-0.958713	0.060263	0.929429	0.252515	-0.269067
16666	10.616353	0.573941	-0.490797	-0.322083	-1.001977	-0.265648	0.251281	0.135870	0.958330	0.275569	-0.959166	0.063732	0.927857	0.248071	-0.278462
16667	10.440479	1.051368	-0.811794	-0.230270	-1.071377	-0.288930	0.260398	0.141311	0.955104	0.274162	-0.959334	0.067189	0.925758	0.244357	-0.288550
16668	10.321884	1.281126	-0.961729	-0.173840	-1.128368	-0.312522	0.269944	0.147073	0.951577	0.273371	-0.959306	0.070718	0.923254	0.241044	-0.299164
16669	10.206461	1.196848	-0.956086	-0.122080	-1.185388	-0.345215	0.279908	0.153256	0.947715	0.273183	-0.959080	0.074409	0.920338	0.238072	-0.310321
16670	10.152497	0.933049	-0.857193	-0.072166	-1.251207	-0.365359	0.290373	0.159748	0.943485	0.273550	-0.958679	0.078131	0.916981	0.235404	-0.322074
16671	10.340913	0.655228	-0.698353	-0.006372	-1.310154	-0.385152	0.301287	0.166540	0.938877	0.274621	-0.958065	0.081817	0.913132	0.233185	-0.334388
16672	10.584655	0.395582	-0.529997	0.040971	-1.374148	-0.401395	0.312668	0.173601	0.933864	0.276215	-0.957287	0.085475	0.908814	0.231222	-0.347264
16673	10.859693	0.887008	-0.353885	0.094267	-1.444668	-0.401908	0.324629	0.180806	0.928399	0.278341	-0.956357	0.088925	0.903959	0.229544	-0.360787
16674	11.008865	1.481663	-0.141052	0.052558	-1.513405	-0.384147	0.337165	0.187961	0.922491	0.280076	-0.955528	0.092326	0.898820	0.227239	-0.374814
16675	10.894104	1.652379	-0.060124	-0.039045	-1.586391	-0.366624	0.350334	0.195072	0.916086	0.280978	-0.954912	0.095886	0.893486	0.223808	-0.389349
16676	10.742668	1.751034	0.120248	-0.113568	-1.681321	-0.357341	0.364270	0.202235	0.909070	0.281234	-0.954452	0.099638	0.887815	0.219367	-0.404553
16677	10.343027	1.929792	0.158454	-0.159935	-1.782205	-0.351732	0.379030	0.209486	0.901361	0.281120	-0.954073	0.103523	0.881651	0.214152	-0.420513
16678	10.296605	1.914921	0.106278	-0.262647	-1.884500	-0.354833	0.394551	0.216871	0.892915	0.280177	-0.953868	0.107873	0.875117	0.207613	-0.437112
16679	10.557661	1.174747	0.440722	-0.407206	-1.987148	-0.371381	0.410818	0.224488	0.883648	0.278117	-0.953874	0.113029	0.868262	0.199324	-0.454302
16680	10.698939	0.676297	0.638649	-0.451236	-2.075155	-0.381281	0.427665	0.232193	0.873607	0.275808	-0.953879	0.118510	0.860833	0.190265	-0.471981
16681	10.704723	0.418005	0.606207	-0.384801	-2.166019	-0.372070	0.445179	0.239800	0.862735	0.274131	-0.953712	0.123633	0.852448	0.181464	-0.490309
16682	10.922245	0.860578	0.371270	-0.307255	-2.233033	-0.333771	0.463159	0.246967	0.851171	0.273037	-0.953441	0.128069	0.843170	0.173084	-0.509025
16683	11.106275	0.714748	-0.487571	-0.342327	-2.260038	-0.260769	0.481377	0.253296	0.839117	0.271396	-0.953361	0.132089	0.833439	0.164148	-0.527670
16684	11.306729	0.370590	-2.049264	-0.286083	-2.261589	-0.179946	0.499583	0.258652	0.826750	0.269905	-0.953353	0.135165	0.823146	0.155618	-0.546090
16685	11.516756	0.252044	-3.537768	-0.360352	-2.252858	-0.107518	0.517703	0.263110	0.814099	0.267503	-0.953611	0.138089	0.812666	0.146285	-0.564070
16686	11.314245	-0.225968	-4.923060	-0.420058	-2.210434	-0.017449	0.535463	0.266426	0.801434	0.264201	-0.954153	0.140675	0.802170	0.136413	-0.581304
16687	10.450711	-0.519490	-5.899196	-0.376419	-2.168451	0.055146	0.552869	0.268788	0.788726	0.260902	-0.954790	0.142497	0.791370	0.126998	-0.598001
16688	10.123440	-0.094425	-6.990432	-0.325330	-2.105139	0.108355	0.569654	0.270358	0.776145	0.257736	-0.955476	0.143659	0.780427	0.118204	-0.613971
16689	9.611172	-0.412251	-8.113240	-0.506108	-1.933308	0.155573	0.585027	0.271091	0.764364	0.252915	-0.956463	0.145645	0.770569	0.108113	-0.628120
16690	9.159686	-1.416554	-8.670053	-0.512140	-1.724621	0.166347	0.598618	0.271304	0.753691	0.248006	-0.957438	0.147667	0.761675	0.098524	-0.640425
16691	8.800772	-1.827738	-8.374114	-0.331387	-1.458998	0.155255	0.610039	0.271235	0.744503	0.244561	-0.958166	0.148685	0.753686	0.091373	-0.650852
16692	7.966641	-1.860142	-8.010112	0.030066	-1.161455	0.150384	0.619080	0.270861	0.737139	0.243863	-0.958541	0.147408	0.746505	0.088503	-0.659467
16693	6.850921	-0.480010	-8.515224	0.501293	-0.854451	0.160567	0.625808	0.270121	0.731709	0.246594	-0.958518	0.142947	0.739970	0.090978	-0.666459
16694	6.567448	1.887553	-9.379294	0.342932	-0.637166	0.145784	0.630832	0.269330	0.727676	0.248208	-0.958592	0.139622	0.735148	0.092537	-0.671561
16695	7.804618	2.289467	-8.934239	-0.350988	-0.413106	0.127414	0.634164	0.268513	0.725077	0.244831	-0.959244	0.141099	0.733413	0.088042	-0.674058
16696	7.633336	1.520093	-7.375574	-0.784431	-0.121042	0.083763	0.635219	0.267833	0.724405	0.238543	-0.960123	0.145811	0.734571	0.080179	-0.673778
16697	7.061600	-0.065659	-6.218191	-0.844727	0.276875	0.022080	0.633216	0.267442	0.726300	0.232187	-0.960821	0.151369	0.738327	0.072788	-0.670504
16698	6.546341	-1.526370	-5.854273	-0.446933	0.705045	-0.024004	0.627901	0.267190	0.730992	0.229027	-0.961071	0.154560	0.743833	0.070368	-0.664651
16699	6.117300	-1.650491	-6.049680	0.122907	1.076636	-0.043785	0.619741	0.266864	0.738041	0.230223	-0.960858	0.154111	0.750279	0.074405	-0.656922
16700	5.928125	-0.253214	-6.527744	0.502747	1.407346	-0.024768	0.609037	0.266015	0.747202	0.234165	-0.960391	0.151047	0.757787	0.082975	-0.647205
16701	5.738299	1.057441	-7.021549	0.552237	1.709132	0.009501	0.596014	0.264454	0.758176	0.238322	-0.959924	0.147476	0.766792	0.092792	-0.635153
16702	5.689980	1.712778	-7.429592	0.457766	1.979476	0.025073	0.580755	0.262301	0.770663	0.241707	-0.959539	0.144441	0.777368	0.102390	-0.620657
16703	5.532280	1.890318	-7.553714	0.344004	2.229584	0.016925	0.563314	0.259787	0.784339	0.244307	-0.959208	0.142245	0.789298	0.111491	-0.603803
16704	5.434551	2.016117	-7.459810	0.225041	2.445324	0.029479	0.543890	0.256693	0.798932	0.245931	-0.959020	0.140705	0.802310	0.119954	-0.584730
16705	5.416909	2.150698	-7.204233	0.124545	2.641844	0.065226	0.522654	0.252826	0.814194	0.246592	-0.959026	0.139506	0.816104	0.127860	-0.563584
16706	5.478358	2.387082	-7.061941	0.056736	2.828497	0.117186	0.499620	0.247997	0.829987	0.246455	-0.959241	0.138261	0.830446	0.135476	-0.540376
16707	5.546433	2.887730	-6.745960	-0.017097	2.982675	0.179705	0.475055	0.242157	0.845980	0.245434	-0.959700	0.136887	0.845035	0.142603	-0.515344
16708	5.514786	3.506079	-5.951415	-0.132955	3.114660	0.265141	0.449116	0.235093	0.861990	0.243068	-0.960524	0.135323	0.859775	0.148746	-0.488530
16709	5.523496	3.230265	-5.642150	-0.186904	3.278120	0.383626	0.421596	0.226467	0.878049	0.239772	-0.961688	0.132913	0.874509	0.154496	-0.459744
16710	5.719901	2.296329	-5.912770	-0.049483	3.421166	0.499444	0.392590	0.216274	0.893923	0.237293	-0.962870	0.128741	0.888575	0.161580	-0.429333
16711	5.924210	1.979654	-6.072701	0.219407	3.530229	0.581973	0.362354	0.204826	0.909256	0.237053	-0.963726	0.122627	0.901391	0.171107	-0.397765
16712	6.117202	2.158736	-6.053526	0.421936	3.619113	0.629833	0.330982	0.192378	0.923819	0.238686	-0.964230	0.115278	0.912951	0.182347	-0.365061
16713	6.382949	2.137263	-5.918671	0.486642	3.671191	0.640834	0.298790	0.179323	0.937319	0.241126	-0.964504	0.107660	0.923354	0.193845	-0.331424
16714	6.770346	1.269694	-5.894564	0.545640	3.716679	0.610586	0.265745	0.166033	0.949638	0.244453	-0.964468	0.100218	0.932535	0.205509	-0.296890
16715	7.538392	0.829591	-5.974435	0.702835	3.699338	0.550574	0.232447	0.152918	0.960513	0.249650	-0.963857	0.093034	0.940023	0.218166	-0.262222
16716	8.447967	0.950106	-5.806010	0.755339	3.633174	0.429555	0.199234	0.140645	0.969807	0.255830	-0.962793	0.087070	0.945969	0.230758	-0.227802
16717	8.723535	0.719287	-5.105184	0.695160	3.544741	0.230220	0.166193	0.130077	0.977476	0.261987	-0.961461	0.083402	0.950654	0.242226	-0.193866
16718	8.785958	-0.263504	-4.292976	0.764259	3.393090	0.065711	0.134022	0.121051	0.983557	0.269148	-0.959650	0.081433	0.953728	0.253809	-0.161195
16719	8.986982	-0.317122	-3.343194	1.026287	3.150102	-0.092458	0.103688	0.113759	0.988083	0.279034	-0.956869	0.080884	0.954667	0.267322	-0.130959
16720	8.872985	0.888295	-2.896225	1.186569	2.908554	-0.218630	0.075275	0.107880	0.991310	0.290533	-0.953371	0.081690	0.953899	0.281859	-0.103108
16721	9.177510	2.064632	-2.955625	1.096780	2.664810	-0.239844	0.049145	0.102506	0.993518	0.301117	-0.949958	0.083117	0.952320	0.295080	-0.077552
16722	9.273209	2.041268	-2.786876	0.849689	2.381753	-0.208924	0.025812	0.097356	0.994915	0.309258	-0.947202	0.084664	0.950628	0.305500	-0.054557
16723	9.073424	2.295958	-2.972062	0.855250	2.056064	-0.148255	0.005804	0.092404	0.995705	0.317381	-0.944409	0.085793	0.948280	0.315520	-0.034809
16724	8.720325	3.883648	-1.702450	0.642194	1.622736	-0.095618	-0.009906	0.088146	0.996058	0.323439	-0.942278	0.086604	0.946197	0.323022	-0.019176
16725	7.838089	4.682717	-1.047073	0.112081	1.184811	0.021374	-0.021065	0.084135	0.996232	0.324480	-0.941937	0.086411	0.945658	0.325078	-0.007458
16726	7.322439	4.013459	-1.091557	-0.382267	0.765136	0.169716	-0.027789	0.080083	0.996401	0.320881	-0.943319	0.084766	0.946712	0.322082	0.000517
16727	8.530057	2.142551	-0.341470	-0.828289	0.378940	0.279525	-0.030517	0.076266	0.996620	0.313088	-0.946178	0.081993	0.949234	0.314532	0.004996
16728	5.927545	-1.804000	-2.600979	-0.466758	0.079923	0.306337	-0.030355	0.073140	0.996860	0.308723	-0.947870	0.078947	0.950667	0.310150	0.006192
16729	6.576637	-0.399447	-3.430183	0.060425	-0.318705	0.185771	-0.026772	0.072399	0.997016	0.309328	-0.947822	0.077133	0.950578	0.310470	0.002980
16730	6.861192	0.633308	-4.762197	0.451089	-0.634269	0.009787	-0.020746	0.074312	0.997019	0.313592	-0.946425	0.077066	0.949331	0.314256	-0.003669
16731	8.287350	3.404701	-4.985498	0.710747	-0.772783	-0.175169	-0.013994	0.078450	0.996820	0.320279	-0.944041	0.078792	0.947220	0.320364	-0.011915
16732	9.665103	5.108442	-3.523536	0.802352	-0.617027	-0.309279	-0.009188	0.083390	0.996475	0.327811	-0.941197	0.081786	0.944699	0.327407	-0.018689
16733	11.084392	3.091128	-1.342753	0.657599	-0.482636	-0.193663	-0.005296	0.086834	0.996209	0.333981	-0.938864	0.083611	0.942565	0.333157	-0.024029
16734	13.423456	0.498854	0.373356	0.816876	-0.463855	-0.068419	-0.001189	0.089065	0.996025	0.341645	-0.936058	0.084111	0.939828	0.340387	-0.029316
16735	15.450235	-0.474828	1.552135	1.275972	-0.447995	-0.019982	0.002920	0.090832	0.995862	0.353588	-0.931628	0.083936	0.935397	0.351879	-0.034838
16736	13.910449	1.846603	0.907743	1.378642	-0.559136	0.083861	0.008409	0.092081	0.995716	0.366423	-0.926774	0.082611	0.930410	0.364159	-0.041534
16737	11.058005	5.282060	0.067073	0.874950	-0.695597	0.177878	0.015506	0.093023	0.995543	0.374507	-0.923725	0.080479	0.927094	0.371590	-0.049161
16738	10.058191	3.765159	-0.610675	0.100093	-0.825549	0.270054	0.024139	0.093624	0.995315	0.375361	-0.923610	0.077775	0.926564	0.371725	-0.057438
16739	9.717329	0.509267	-1.497544	0.026421	-0.826037	0.243546	0.032683	0.094471	0.994991	0.375516	-0.923746	0.075372	0.926239	0.371172	-0.065667
16740	9.598170	-0.212270	-3.088689	0.492450	-0.752335	0.199726	0.040368	0.095463	0.994614	0.379980	-0.922103	0.073081	0.924114	0.374983	-0.073497
16741	9.244046	1.908665	-4.460232	0.721363	-0.681442	0.226927	0.047501	0.095977	0.994249	0.386516	-0.919599	0.070305	0.921059	0.380954	-0.080779
16742	9.377730	3.378349	-5.301564	0.517488	-0.572824	0.272905	0.053802	0.095692	0.993956	0.391119	-0.917884	0.067198	0.918766	0.385140	-0.086811
16743	9.436506	3.755260	-5.599618	0.061275	-0.481468	0.322994	0.059465	0.094610	0.993737	0.391480	-0.917960	0.063970	0.918263	0.385224	-0.091625
16744	9.520440	2.772849	-4.896893	-0.451131	-0.408160	0.377435	0.064658	0.092736	0.993589	0.387082	-0.920046	0.060683	0.919775	0.380677	-0.095384
16745	9.846092	1.544806	-3.464880	-0.760719	-0.328947	0.387425	0.069150	0.090434	0.993499	0.379797	-0.923274	0.057607	0.922482	0.373344	-0.098191
16746	9.885286	-0.864964	-2.060772	-0.716649	-0.249448	0.356518	0.072770	0.088092	0.993451	0.372906	-0.926248	0.054818	0.925011	0.366475	-0.100253
16747	9.616223	-1.649459	-0.638407	-0.256463	-0.239628	0.308634	0.076112	0.086136	0.993372	0.370285	-0.927459	0.052049	0.925795	0.363869	-0.102485
16748	9.673070	-0.453480	0.580138	0.024692	-0.275832	0.285920	0.079698	0.084519	0.993229	0.370273	-0.927618	0.049225	0.925498	0.363843	-0.105225
16749	10.101603	-0.215521	0.908454	0.021585	-0.301730	0.270560	0.083469	0.083136	0.993036	0.370234	-0.927771	0.046552	0.925181	0.363770	-0.108220
16750	10.153955	-0.666153	0.871401	0.032950	-0.337575	0.273577	0.087579	0.081857	0.992789	0.370288	-0.927882	0.043841	0.924779	0.363778	-0.111573
16751	10.110639	-1.139151	0.347874	0.018669	-0.353835	0.269823	0.091826	0.080669	0.992502	0.370200	-0.928039	0.041179	0.924402	0.363643	-0.115082
16752	9.909465	-1.999104	-0.492732	0.054954	-0.345389	0.257553	0.095945	0.079565	0.992201	0.370449	-0.928050	0.038599	0.923884	0.363857	-0.118517
16753	9.686476	-2.012540	-1.175164	0.195488	-0.347173	0.226977	0.099971	0.078754	0.991869	0.372014	-0.927523	0.036150	0.922828	0.365375	-0.122023
16754	9.680209	-0.789346	-1.455163	0.349089	-0.357702	0.193293	0.103965	0.078304	0.991494	0.375019	-0.926399	0.033840	0.921169	0.368310	-0.125678
16755	9.816087	0.551457	-1.787112	0.336746	-0.347364	0.172610	0.107788	0.078018	0.991108	0.377918	-0.925295	0.031737	0.919543	0.371136	-0.129221
16756	9.809329	0.994250	-1.965970	0.180281	-0.343180	0.167280	0.111550	0.077776	0.990711	0.379374	-0.924761	0.029883	0.918494	0.372517	-0.132663
16757	10.000931	0.363497	-2.557786	0.042370	-0.314749	0.164205	0.115040	0.077459	0.990336	0.379560	-0.924736	0.028237	0.917987	0.372644	-0.135782
16758	9.871531	-0.336615	-2.949750	0.045193	-0.283719	0.150701	0.118190	0.077152	0.989989	0.379783	-0.924690	0.026722	0.917495	0.372823	-0.138590
16759	9.657233	-0.178401	-2.836321	0.098962	-0.260814	0.135916	0.121076	0.076897	0.989660	0.380511	-0.924431	0.025277	0.916816	0.373516	-0.141186
16760	9.499735	0.300672	-2.167289	0.098868	-0.242526	0.124061	0.123746	0.076686	0.989346	0.381249	-0.924162	0.023947	0.916153	0.374224	-0.143598
16761	9.613938	-0.187175	-1.269108	0.052507	-0.232519	0.115729	0.126294	0.076516	0.989038	0.381569	-0.924060	0.022765	0.915672	0.374511	-0.145899
16762	9.687038	-0.833068	-0.438449	0.098445	-0.244465	0.103109	0.128901	0.076508	0.988702	0.382322	-0.923776	0.021639	0.914994	0.375213	-0.148326
16763	9.726470	-1.097071	-0.044297	0.200367	-0.271419	0.091717	0.131711	0.076710	0.988316	0.384018	-0.923098	0.020471	0.913883	0.376835	-0.151041
16764	9.722143	-0.930148	-0.293213	0.267821	-0.296415	0.089461	0.134737	0.077033	0.987882	0.386329	-0.922161	0.019217	0.912467	0.379058	-0.154010
16765	9.535381	-0.401719	-0.525386	0.238554	-0.333691	0.082578	0.138076	0.077569	0.987379	0.388375	-0.921324	0.018068	0.911098	0.380979	-0.157339
16766	9.446904	0.135335	-0.498487	0.166000	-0.382248	0.074030	0.141819	0.078373	0.986785	0.389767	-0.920754	0.017112	0.909928	0.382190	-0.161128
16767	9.452019	0.670249	-0.534771	0.071526	-0.431268	0.075322	0.146012	0.079357	0.986095	0.390294	-0.920546	0.016290	0.909039	0.382488	-0.165383
16768	9.306936	0.867035	-0.283036	-0.006301	-0.474920	0.075422	0.150596	0.080505	0.985312	0.390109	-0.920637	0.015596	0.908370	0.382030	-0.170049
16769	9.400341	0.472351	0.166993	-0.079186	-0.531346	0.071819	0.155678	0.081899	0.984407	0.389264	-0.921003	0.015064	0.907875	0.380849	-0.175260
16770	9.613868	-0.096239	0.073398	-0.047668	-0.575556	0.061359	0.161112	0.083550	0.983393	0.388720	-0.921241	0.014584	0.907160	0.379915	-0.180901
16771	9.924351	-0.531295	-0.642931	0.032382	-0.590193	0.060606	0.166676	0.085261	0.982319	0.388899	-0.921175	0.013968	0.906078	0.379694	-0.186695
16772	10.367242	-0.560499	-1.825734	0.144989	-0.549796	0.053267	0.171833	0.086887	0.981287	0.390107	-0.920675	0.013209	0.904594	0.380537	-0.192097
16773	10.102330	-0.400554	-3.374875	0.168903	-0.515823	0.043720	0.176643	0.088479	0.980290	0.391543	-0.920075	0.012490	0.903046	0.381619	-0.197168
16774	9.932826	0.177770	-4.331873	0.008494	-0.500247	0.025584	0.181230	0.090178	0.979297	0.391559	-0.920071	0.012262	0.902129	0.381231	-0.202055
16775	10.081415	0.113879	-4.650314	-0.069497	-0.434756	-0.003384	0.185115	0.091893	0.978411	0.390924	-0.920338	0.012476	0.901616	0.380175	-0.206291
16776	9.933089	0.243393	-4.366320	0.090375	-0.383064	-0.032422	0.188414	0.093675	0.977612	0.391785	-0.919970	0.012643	0.900558	0.380632	-0.210035
16777	9.829623	0.877477	-3.530721	0.098167	-0.359040	-0.049987	0.191426	0.095531	0.976847	0.392750	-0.919554	0.012963	0.899502	0.381175	-0.213546
16778	9.827835	-0.163247	-2.571191	0.008879	-0.337775	-0.065730	0.194179	0.097449	0.976114	0.392942	-0.919462	0.013625	0.898827	0.380911	-0.216833
16779	9.817296	-1.066375	-1.225022	0.070021	-0.366460	-0.084350	0.197116	0.099650	0.975303	0.393723	-0.919117	0.014334	0.897846	0.381173	-0.220408
16780	9.777216	-0.783962	0.672651	0.078542	-0.432356	-0.105106	0.200556	0.102291	0.974327	0.394623	-0.918717	0.015223	0.896688	0.381439	-0.224621
16781	9.667982	-0.516806	2.349573	-0.038079	-0.518454	-0.110584	0.204743	0.105311	0.973134	0.394492	-0.918752	0.016426	0.895799	0.380531	-0.229653
16782	9.542954	-0.949849	3.168586	-0.023777	-0.625558	-0.128215	0.209810	0.108892	0.971659	0.394532	-0.918710	0.017767	0.894608	0.379623	-0.235716
16783	9.666046	-0.344833	2.987778	0.020385	-0.750942	-0.125036	0.216005	0.112917	0.969841	0.394967	-0.918499	0.018971	0.892940	0.378958	-0.242999
16784	9.820519	-0.429399	2.013510	-0.001998	-0.842641	-0.136706	0.222952	0.117386	0.967736	0.395237	-0.918354	0.020339	0.891112	0.377950	-0.251144
16785	10.045712	-0.630398	0.873149	-0.008530	-0.943127	-0.144788	0.230751	0.122302	0.965296	0.395477	-0.918217	0.021800	0.889017	0.376722	-0.260247
16786	10.051147	-0.233145	-0.350880	-0.067035	-1.022603	-0.153007	0.239195	0.127573	0.962554	0.395229	-0.918282	0.023491	0.886894	0.374810	-0.270069
16787	10.216553	0.261867	-1.245968	-0.188364	-1.075829	-0.159968	0.248072	0.133086	0.959556	0.393938	-0.918781	0.025587	0.885027	0.371658	-0.280352
16788	10.377063	0.228354	-1.762827	-0.318293	-1.103982	-0.148414	0.257219	0.138551	0.956369	0.391486	-0.919759	0.027955	0.883503	0.367215	-0.290821
16789	10.534004	0.284026	-1.904931	-0.370935	-1.149717	-0.173490	0.266669	0.144369	0.952914	0.388655	-0.920870	0.030751	0.881949	0.362155	-0.301677
16790	10.340279	1.727798	-1.939409	-0.308553	-1.204904	-0.221644	0.276391	0.150769	0.949145	0.386528	-0.921656	0.033846	0.879889	0.357516	-0.313014
16791	10.139808	2.074021	-1.847460	-0.283433	-1.232506	-0.232825	0.286301	0.157323	0.945136	0.384682	-0.922307	0.036995	0.877526	0.352985	-0.324577
16792	10.224688	0.923340	-1.893305	-0.201197	-1.255015	-0.264018	0.296248	0.164187	0.940893	0.383678	-0.922592	0.040189	0.874659	0.349094	-0.336311
16793	10.298781	0.748708	-1.814041	-0.050951	-1.315716	-0.298588	0.306563	0.171546	0.936265	0.384124	-0.922270	0.043207	0.870901	0.346396	-0.348629
16794	10.282523	0.982906	-1.542568	0.016777	-1.367203	-0.314423	0.317197	0.179188	0.931278	0.385241	-0.921663	0.046123	0.866588	0.344136	-0.361379
16795	10.197343	1.092343	-1.182775	0.009491	-1.426756	-0.322318	0.328262	0.187079	0.925876	0.386355	-0.921041	0.049123	0.861959	0.341592	-0.374622
16796	10.043895	1.185121	-0.829234	-0.018883	-1.490174	-0.316720	0.339810	0.195086	0.920039	0.387242	-0.920501	0.052159	0.857072	0.338554	-0.388341
16797	9.993928	1.090322	-0.435760	-0.037906	-1.560530	-0.303487	0.351945	0.203164	0.913706	0.387961	-0.920025	0.055132	0.851834	0.335079	-0.402618
16798	10.224679	0.633936	-0.146418	-0.066238	-1.632469	-0.310106	0.364565	0.211476	0.906846	0.388502	-0.919604	0.058268	0.846262	0.331069	-0.417414
16799	10.603962	0.267045	-0.134708	-0.035411	-1.724025	-0.327393	0.377805	0.220188	0.899322	0.389412	-0.919014	0.061417	0.840013	0.327004	-0.432952
16800	11.066737	0.736939	-0.166952	0.041589	-1.828350	-0.350032	0.391693	0.229370	0.891048	0.391101	-0.918091	0.064408	0.832836	0.323261	-0.449317
16801	11.317334	1.475979	0.042054	-0.008456	-1.932620	-0.356623	0.406296	0.238874	0.881965	0.392449	-0.917283	0.067650	0.825171	0.318640	-0.466434
16802	11.523148	1.747784	0.811905	-0.253812	-2.053297	-0.357888	0.421718	0.248646	0.871969	0.391840	-0.917209	0.072037	0.817689	0.311293	-0.484233
16803	11.779086	1.038491	1.465861	-0.470541	-2.160080	-0.359183	0.437875	0.258589	0.861044	0.389550	-0.917738	0.077513	0.810256	0.301479	-0.502588
16804	12.083632	0.084978	1.749408	-0.509144	-2.260406	-0.355250	0.454677	0.268566	0.849200	0.387027	-0.918307	0.083201	0.802172	0.290834	-0.521475
16805	12.182173	0.004116	1.817495	-0.439916	-2.349951	-0.331050	0.472120	0.278348	0.836436	0.385050	-0.918655	0.088370	0.792993	0.280349	-0.540894
16806	12.109832	0.144608	1.520144	-0.389461	-2.451022	-0.306584	0.490207	0.287927	0.822675	0.383454	-0.918856	0.093100	0.782726	0.269820	-0.560836
16807	11.863406	0.169221	0.794637	-0.397847	-2.522619	-0.270910	0.508756	0.297114	0.808017	0.381715	-0.919110	0.097622	0.771661	0.258766	-0.581016
16808	11.577769	0.116153	-0.570312	-0.361225	-2.524463	-0.238857	0.527132	0.305722	0.792885	0.380184	-0.919302	0.101710	0.759995	0.247827	-0.600823
16809	11.138729	-0.161013	-2.486966	-0.179801	-2.475257	-0.201696	0.545001	0.313625	0.777569	0.379911	-0.919109	0.104433	0.747423	0.238491	-0.620065
16810	10.530263	-0.341598	-4.588310	0.109370	-2.413784	-0.145877	0.562272	0.320660	0.762252	0.381528	-0.918385	0.104908	0.733680	0.231834	-0.638723
16811	10.218967	-0.324298	-5.796257	0.366301	-2.403907	-0.076680	0.579413	0.326913	0.746597	0.384629	-0.917289	0.103154	0.718568	0.227394	-0.657230
16812	10.320704	0.445140	-6.800332	0.450851	-2.405958	0.009686	0.596500	0.332267	0.730607	0.387778	-0.916300	0.100118	0.702720	0.223593	-0.675419
16813	10.544227	0.650567	-8.089875	0.232380	-2.250425	0.052656	0.612336	0.336786	0.715277	0.389081	-0.915956	0.098189	0.688230	0.218176	-0.691909
16814	9.983402	-0.165892	-8.609166	0.054175	-2.007471	0.053018	0.626184	0.340633	0.701329	0.389125	-0.916014	0.097474	0.675630	0.211868	-0.706142
16815	9.236643	-0.850016	-8.632753	0.140768	-1.667623	0.048816	0.637528	0.343712	0.689507	0.389767	-0.915878	0.096173	0.664560	0.207434	-0.717866
16816	8.009180	-1.765980	-9.327724	0.555717	-1.268490	0.057982	0.646073	0.345834	0.680433	0.393063	-0.914918	0.091798	0.654287	0.208145	-0.727038
16817	6.673767	-0.835311	-10.371876	0.900469	-0.980046	0.044115	0.652590	0.347524	0.673315	0.398632	-0.913167	0.084960	0.644375	0.212961	-0.734458
16818	6.048590	2.808147	-11.512099	0.403611	-0.795338	-0.012027	0.657595	0.349347	0.667477	0.401303	-0.912259	0.082100	0.637594	0.213872	-0.740090
16819	7.815258	3.902237	-9.934150	-0.934526	-0.460666	-0.041825	0.660346	0.350720	0.664032	0.395625	-0.914056	0.089346	0.638298	0.203708	-0.742347
16820	7.208808	1.533188	-7.410522	-1.627932	0.043773	-0.044840	0.659845	0.351062	0.664349	0.385480	-0.917089	0.101751	0.644988	0.188954	-0.740464
16821	6.258153	-0.653330	-6.474948	-1.382974	0.590523	-0.105208	0.655588	0.350974	0.668597	0.377197	-0.919251	0.112695	0.654161	0.178311	-0.735036
16822	5.596952	-1.690471	-5.664793	-1.020883	1.054567	-0.136073	0.648078	0.350393	0.676180	0.371355	-0.920559	0.121108	0.664899	0.172615	-0.726714
16823	5.319053	-2.004007	-6.259694	-0.397910	1.405090	-0.116795	0.638209	0.349065	0.686180	0.369446	-0.920831	0.124815	0.675425	0.173848	-0.716644
16824	5.483188	0.232003	-6.820457	-0.050565	1.648628	-0.046802	0.626768	0.346602	0.697875	0.369400	-0.920753	0.125533	0.686080	0.179115	-0.705133
16825	5.930522	1.978412	-6.818613	-0.241671	1.876364	0.008042	0.613786	0.343157	0.710992	0.367683	-0.921210	0.127205	0.698624	0.183343	-0.691599
16826	5.654451	2.301782	-7.025163	-0.452193	2.163307	0.030826	0.598579	0.338887	0.725850	0.364303	-0.922147	0.130109	0.713433	0.186549	-0.675436
16827	5.338963	1.789894	-7.313663	-0.534534	2.433682	0.036261	0.581128	0.334003	0.742113	0.360236	-0.923267	0.133445	0.729740	0.189788	-0.656857
16828	5.222286	1.737024	-7.252416	-0.478455	2.657002	0.067818	0.561709	0.328291	0.759413	0.356315	-0.924406	0.136064	0.746674	0.194162	-0.636222
16829	5.340606	1.656737	-7.165165	-0.415202	2.857605	0.119266	0.540527	0.321592	0.777438	0.352523	-0.925604	0.137784	0.763910	0.199589	-0.613682
16830	5.296688	1.491406	-7.114494	-0.384640	3.044007	0.181439	0.517595	0.313757	0.796023	0.348587	-0.926956	0.138705	0.781398	0.205691	-0.589159
16831	5.387878	1.477929	-7.179290	-0.309137	3.204742	0.245813	0.493106	0.304802	0.814827	0.344902	-0.928357	0.138547	0.798680	0.212717	-0.562905
16832	5.516269	1.677291	-6.753030	-0.354837	3.346307	0.296851	0.467058	0.294827	0.833627	0.340606	-0.930011	0.138083	0.815993	0.219445	-0.534788
16833	5.550195	1.014602	-6.792912	-0.261107	3.548517	0.343494	0.438941	0.283733	0.852541	0.336893	-0.931583	0.136585	0.832967	0.227263	-0.504498
16834	5.617405	0.461416	-7.263271	0.035504	3.714635	0.395770	0.408988	0.271418	0.871241	0.335505	-0.932597	0.133035	0.848625	0.237896	-0.472484
16835	5.942972	0.867287	-7.318815	0.264281	3.805272	0.485340	0.378032	0.257628	0.889224	0.335851	-0.933232	0.127599	0.862726	0.250410	-0.439316
16836	6.145785	1.203070	-7.303525	0.396440	3.902258	0.534417	0.345865	0.242618	0.906374	0.337351	-0.933549	0.121161	0.875541	0.263861	-0.404729
16837	6.329216	1.070609	-7.493667	0.506291	4.004151	0.507720	0.312271	0.227058	0.922459	0.340134	-0.933368	0.114601	0.887015	0.277974	-0.368694
16838	6.484982	0.963050	-6.982160	0.597462	4.046383	0.470633	0.277739	0.211139	0.937167	0.344062	-0.932696	0.108166	0.896929	0.292402	-0.331691
16839	6.564815	1.116565	-6.211348	0.619614	4.035641	0.396552	0.242720	0.195388	0.950216	0.348603	-0.931646	0.102524	0.905297	0.306364	-0.294242
16840	7.021888	0.293623	-5.902986	0.582201	4.029438	0.356073	0.207300	0.179479	0.961673	0.353078	-0.930495	0.097550	0.912339	0.319323	-0.256261
16841	7.594064	-0.638557	-5.862613	0.810940	4.007138	0.292197	0.171661	0.163706	0.971459	0.359928	-0.928349	0.092841	0.917052	0.333719	-0.218284
16842	8.317723	0.021930	-6.136484	1.020577	3.946762	0.220515	0.136177	0.148195	0.979538	0.368943	-0.925211	0.088685	0.919422	0.349317	-0.180668
16843	9.156726	2.292731	-7.755879	1.006128	3.830548	0.159926	0.101512	0.133084	0.985893	0.377992	-0.921851	0.085519	0.920227	0.363978	-0.143884
16844	9.580011	5.431648	-6.121267	0.101782	3.508689	0.115753	0.069573	0.119165	0.990434	0.378811	-0.921629	0.084278	0.922855	0.369324	-0.109261
16845	8.427383	4.381880	-4.033573	-1.101393	3.199277	0.169760	0.040562	0.105914	0.993548	0.368500	-0.925856	0.083654	0.928742	0.362729	-0.076584
16846	7.239544	-0.564242	-4.395120	-1.184632	2.856295	0.306215	0.015033	0.092846	0.995567	0.357360	-0.930415	0.081374	0.933846	0.354553	-0.047166
16847	7.073560	-0.949634	-3.384861	-0.704048	2.340300	0.374055	-0.005552	0.081144	0.996687	0.350737	-0.933226	0.077931	0.936458	0.350007	-0.023279
16848	9.576860	1.265614	0.204717	-0.929217	1.800610	0.414932	-0.021039	0.071047	0.997251	0.342053	-0.936766	0.073954	0.939445	0.342668	-0.004593
16849	4.301253	-5.140735	-1.999058	-0.545982	1.324715	0.330360	-0.032395	0.063467	0.997458	0.336985	-0.938853	0.070682	0.940953	0.338418	0.009027
16850	4.299470	-2.251142	-1.944983	1.011188	0.301974	0.119961	-0.034855	0.061324	0.997509	0.346498	-0.935464	0.069617	0.937403	0.348061	0.011357
16851	4.094531	-0.966989	-3.490732	1.665709	-0.540140	-0.063394	-0.030054	0.063865	0.997506	0.362022	-0.929506	0.070419	0.931685	0.363235	0.004815
16852	6.672092	-1.176099	-5.348878	2.650861	-1.184480	-0.293541	-0.020206	0.071038	0.997269	0.386496	-0.919372	0.073321	0.922070	0.386922	-0.008879
16853	11.076076	4.066119	-4.207045	3.205653	-1.543220	-0.446553	-0.007888	0.081331	0.996656	0.415771	-0.906184	0.077239	0.909435	0.414990	-0.026667
16854	16.077368	13.322822	-0.721017	3.491337	-1.504235	-0.505851	0.003465	0.092362	0.995719	0.447230	-0.890738	0.081068	0.894412	0.445035	-0.044394
16855	17.313782	12.112551	2.326667	1.938496	-0.943721	-0.364566	0.010177	0.099896	0.994946	0.464487	-0.881609	0.083765	0.885521	0.461287	-0.055373
16856	12.334821	1.700553	-1.124633	1.317502	-0.864307	0.096457	0.018220	0.103104	0.994504	0.476079	-0.875566	0.082051	0.879214	0.471967	-0.065038
16857	9.019661	1.879585	-5.099920	1.457725	-1.091850	0.359491	0.029488	0.105210	0.994013	0.488738	-0.868984	0.077478	0.871932	0.483527	-0.077044
16858	8.260212	5.544187	-7.538886	0.137745	-1.221813	0.494631	0.042517	0.106842	0.993367	0.489741	-0.868849	0.072488	0.870831	0.483411	-0.089266
16859	10.002160	0.090573	-9.124496	-0.779789	-0.983069	0.466330	0.053336	0.107519	0.992771	0.482696	-0.873095	0.068626	0.874163	0.475546	-0.098466
16860	10.275122	-0.347581	-8.268481	-0.451767	-0.774730	0.398127	0.061995	0.107730	0.992245	0.478495	-0.875668	0.065177	0.875899	0.470744	-0.105836
16861	10.359674	-0.511518	-6.988743	-0.537012	-0.644416	0.359138	0.069330	0.107622	0.991772	0.473532	-0.878575	0.062236	0.878044	0.465321	-0.111874
16862	10.253354	-0.469721	-5.581728	0.052977	-0.564759	0.260187	0.075491	0.107992	0.991281	0.473792	-0.878615	0.059637	0.877395	0.465159	-0.117493
16863	10.258217	2.743187	-3.797728	0.365452	-0.462643	0.215784	0.080545	0.108282	0.990852	0.476809	-0.877150	0.057098	0.875309	0.467848	-0.122280
16864	9.953453	3.452336	-1.634327	0.090041	-0.329709	0.272157	0.084701	0.107468	0.990594	0.477356	-0.877029	0.054331	0.874618	0.468264	-0.125586
16865	9.783671	0.536874	-0.273810	-0.080311	-0.284387	0.306380	0.088624	0.106136	0.990394	0.476371	-0.877739	0.051436	0.874767	0.467236	-0.128349
16866	9.922261	-2.441792	-0.050507	0.009990	-0.310888	0.279575	0.092647	0.105165	0.990130	0.476189	-0.877994	0.048697	0.874449	0.466977	-0.131422
16867	9.684500	-3.345944	-0.626621	0.313765	-0.322312	0.239271	0.096579	0.104600	0.989814	0.478687	-0.876783	0.045949	0.872658	0.469373	-0.134749
16868	9.573799	-1.427389	-0.845363	0.473480	-0.354422	0.218875	0.100692	0.104382	0.989427	0.482581	-0.874787	0.043176	0.870044	0.473131	-0.138457
16869	9.483324	0.560382	-0.869058	0.242238	-0.355420	0.224542	0.104841	0.104129	0.989023	0.484439	-0.873880	0.040653	0.868520	0.474859	-0.142062
16870	9.732266	-0.039641	-1.042348	0.036530	-0.339858	0.211060	0.108787	0.103926	0.988618	0.484515	-0.873933	0.038554	0.867992	0.474806	-0.145426
16871	10.024311	-1.006922	-1.375940	0.167249	-0.328598	0.179677	0.112483	0.103943	0.988202	0.485751	-0.873332	0.036570	0.866829	0.475907	-0.148726
16872	10.101909	-1.104543	-1.726381	0.466597	-0.333148	0.151636	0.116079	0.104239	0.987755	0.489601	-0.871267	0.034409	0.864186	0.479611	-0.152171
16873	9.873915	0.161291	-1.893072	0.665055	-0.348038	0.123976	0.119664	0.104865	0.987261	0.495174	-0.868197	0.032199	0.860513	0.485013	-0.155818
16874	9.649587	0.987293	-1.761991	0.549433	-0.351117	0.111158	0.123206	0.105638	0.986743	0.499743	-0.865644	0.030275	0.857366	0.489388	-0.159445
16875	9.502992	0.345033	-1.508095	0.364335	-0.348623	0.108564	0.126709	0.106435	0.986213	0.502712	-0.863979	0.028655	0.855117	0.492150	-0.162980
16876	9.436320	-0.273102	-1.142454	0.331767	-0.361425	0.104230	0.130294	0.107344	0.985647	0.505397	-0.862461	0.027120	0.852993	0.494609	-0.166625
16877	9.490544	-0.383347	-0.818340	0.348307	-0.384076	0.093521	0.134013	0.108468	0.985025	0.508225	-0.860842	0.025649	0.850734	0.497178	-0.170490
16878	9.702816	0.004968	-0.835704	0.371975	-0.411673	0.084952	0.137916	0.109815	0.984337	0.511255	-0.859088	0.024210	0.848291	0.499909	-0.174625
16879	9.763996	0.201675	-1.194895	0.277985	-0.423584	0.090571	0.141942	0.111184	0.983611	0.513469	-0.857803	0.022866	0.846287	0.501809	-0.178848
16880	9.452101	-0.137086	-1.568284	0.224161	-0.437166	0.088609	0.146065	0.112646	0.982841	0.515223	-0.856783	0.021628	0.844518	0.503223	-0.183184
16881	9.293269	0.006014	-1.768976	0.245060	-0.458399	0.079115	0.150313	0.114304	0.982008	0.517159	-0.855646	0.020435	0.842587	0.504782	-0.187728
16882	9.536752	0.096072	-1.842194	0.227786	-0.462472	0.066617	0.154523	0.116096	0.981144	0.518960	-0.854578	0.019388	0.840716	0.506179	-0.192302
16883	9.698229	0.088010	-2.126843	0.244569	-0.445501	0.059682	0.158547	0.117870	0.980291	0.520907	-0.853416	0.018366	0.838760	0.507728	-0.196706
16884	9.760437	-0.113005	-2.507980	0.244930	-0.437260	0.059589	0.162494	0.119610	0.979433	0.522850	-0.852249	0.017334	0.836794	0.509280	-0.201023
16885	9.728932	0.207026	-2.872624	0.282164	-0.436944	0.050599	0.166383	0.121432	0.978555	0.525111	-0.850877	0.016304	0.834611	0.511138	-0.205337
16886	9.796824	0.724924	-3.001606	0.154574	-0.432058	0.049888	0.170220	0.123243	0.977669	0.526303	-0.850155	0.015535	0.833085	0.511906	-0.209577
16887	9.977016	0.625792	-3.095817	0.002539	-0.409012	0.048746	0.173856	0.124945	0.976813	0.526227	-0.850210	0.015092	0.832382	0.511402	-0.213563
16888	10.016479	0.510462	-2.789462	-0.052570	-0.400867	0.037322	0.177361	0.126701	0.975956	0.525712	-0.850533	0.014881	0.831968	0.510432	-0.217459
16889	9.994109	0.723692	-1.878143	-0.111551	-0.424365	0.018160	0.180959	0.128734	0.975029	0.524738	-0.851132	0.014988	0.831807	0.508923	-0.221572
16890	9.965552	0.334686	-0.756083	-0.209228	-0.458729	0.006925	0.184784	0.131030	0.974005	0.522973	-0.852210	0.015429	0.832078	0.506527	-0.226000
16891	9.706996	-0.713256	0.010982	-0.164376	-0.494951	-0.001022	0.188870	0.133565	0.972876	0.521594	-0.853046	0.015853	0.832026	0.504453	-0.230782
16892	9.412717	-0.939405	0.431916	-0.021751	-0.558086	-0.001091	0.193477	0.136411	0.971575	0.521403	-0.853161	0.015955	0.831087	0.503496	-0.236192
16893	9.340468	-0.396213	0.319595	0.020528	-0.620437	0.003468	0.198620	0.139528	0.970094	0.521555	-0.853069	0.015912	0.829777	0.502797	-0.242209
16894	9.607652	-0.466726	-0.314286	-0.070443	-0.671504	0.008024	0.204202	0.142854	0.968450	0.520943	-0.853441	0.016046	0.828807	0.501230	-0.248693
16895	9.960597	-0.480221	-1.187333	-0.083533	-0.701940	0.005879	0.210019	0.146341	0.966683	0.520227	-0.853874	0.016240	0.827802	0.499484	-0.255460
16896	10.123386	0.009139	-1.596615	-0.170661	-0.742753	-0.016602	0.216049	0.150205	0.964760	0.518838	-0.854706	0.016882	0.827121	0.496907	-0.262590
16897	10.073835	-0.175140	-1.621766	-0.238562	-0.768825	-0.051953	0.222110	0.154482	0.962706	0.516968	-0.855814	0.018057	0.826687	0.493678	-0.269948
16898	10.100500	-0.173999	-1.221407	-0.232241	-0.813294	-0.093008	0.228321	0.159302	0.960465	0.515247	-0.856817	0.019627	0.826069	0.490396	-0.277709
16899	10.230693	-0.035199	-0.898629	-0.172464	-0.854313	-0.114338	0.234758	0.164484	0.958036	0.514078	-0.857480	0.021250	0.824993	0.487516	-0.285858
16900	10.331596	0.228182	-0.606791	-0.191216	-0.902984	-0.121748	0.241546	0.169938	0.955394	0.512780	-0.858211	0.023009	0.823840	0.484349	-0.294438
16901	10.752114	0.242955	-0.459703	-0.228662	-0.966719	-0.138993	0.248766	0.175821	0.952472	0.511228	-0.859079	0.025059	0.822655	0.480697	-0.303594
16902	10.803911	0.821515	-0.498140	-0.213834	-1.043107	-0.161950	0.256480	0.182228	0.949216	0.509870	-0.859818	0.027298	0.821128	0.476975	-0.313438
16903	10.941016	0.594990	-0.298058	-0.230222	-1.102383	-0.174661	0.264607	0.188991	0.945656	0.508427	-0.860592	0.029727	0.819442	0.472931	-0.323806
16904	10.703720	0.596096	0.012040	-0.198251	-1.199150	-0.201776	0.273360	0.196395	0.941649	0.507337	-0.861141	0.032324	0.817241	0.468898	-0.335040
16905	10.406133	0.900836	0.536338	-0.202031	-1.293934	-0.204954	0.282853	0.204225	0.937169	0.506250	-0.861677	0.034979	0.814681	0.464548	-0.347117
16906	10.136771	0.605691	0.729760	-0.156682	-1.380696	-0.211604	0.292972	0.212452	0.932219	0.505576	-0.861964	0.037551	0.811517	0.460306	-0.359942
16907	10.069101	0.752339	0.525755	-0.065100	-1.484036	-0.219313	0.303850	0.221171	0.926692	0.505696	-0.861790	0.039870	0.807432	0.456510	-0.373700
16908	10.245102	0.881385	0.192582	-0.054013	-1.586052	-0.218280	0.315476	0.230277	0.920569	0.505929	-0.861546	0.042133	0.802814	0.452450	-0.388301
16909	10.477333	1.057831	-0.111905	-0.075301	-1.693060	-0.217884	0.327897	0.239801	0.913772	0.506020	-0.861375	0.044471	0.797764	0.447805	-0.403786
16910	10.586363	1.565931	-0.177623	-0.122250	-1.797254	-0.199704	0.341135	0.249537	0.906288	0.505709	-0.861432	0.046833	0.792392	0.442341	-0.420058
16911	10.401406	2.187187	-0.192224	-0.202209	-1.903375	-0.175120	0.355253	0.259429	0.898049	0.504716	-0.861875	0.049321	0.786802	0.435738	-0.437122
16912	9.984121	2.699626	-0.011201	-0.336716	-2.011141	-0.154161	0.370200	0.269455	0.889014	0.502629	-0.862922	0.052244	0.781227	0.427504	-0.454890
16913	9.840370	2.533110	0.118288	-0.490878	-2.123087	-0.145165	0.385975	0.279705	0.879084	0.499352	-0.864597	0.055847	0.775674	0.417417	-0.473384
16914	10.418256	1.526659	0.374038	-0.580296	-2.224377	-0.159721	0.402323	0.290263	0.868265	0.495493	-0.866531	0.060089	0.769820	0.406044	-0.492448
16915	11.455041	0.601553	0.766786	-0.556736	-2.325231	-0.198659	0.419138	0.301318	0.856464	0.492039	-0.868170	0.064641	0.763034	0.394320	-0.512143
16916	12.441545	0.760739	1.503784	-0.552006	-2.446909	-0.225841	0.436558	0.312794	0.843550	0.488810	-0.869618	0.069489	0.755302	0.382000	-0.532536
16917	12.836158	0.841663	1.941954	-0.610985	-2.524219	-0.214187	0.454452	0.324160	0.829695	0.485173	-0.871227	0.074640	0.747048	0.368626	-0.553204
16918	12.854830	0.806884	1.813065	-0.659123	-2.579044	-0.172268	0.472721	0.335000	0.815052	0.481074	-0.873039	0.079816	0.738311	0.354370	-0.573864
16919	12.698741	0.290130	0.508419	-0.721744	-2.591368	-0.092432	0.491271	0.344822	0.799844	0.476223	-0.875224	0.084819	0.729291	0.339235	-0.594184
16920	12.829542	-0.416209	-1.653507	-0.715352	-2.579678	-0.022724	0.509798	0.353588	0.784271	0.471152	-0.877513	0.089365	0.719807	0.323953	-0.613949
16921	12.600159	-0.704259	-3.759819	-0.617823	-2.583951	0.026366	0.528363	0.361566	0.768182	0.466602	-0.879559	0.093055	0.709306	0.309268	-0.633433
16922	11.932840	-0.753023	-5.613060	-0.455592	-2.586983	0.072057	0.546839	0.368769	0.751649	0.463009	-0.881196	0.095479	0.697560	0.295809	-0.652616
16923	11.177345	-0.397220	-6.760942	-0.388351	-2.559280	0.076219	0.564862	0.375530	0.734784	0.459904	-0.882597	0.097524	0.685142	0.282842	-0.671253
16924	10.610026	-0.313008	-7.879915	-0.422917	-2.447971	0.106372	0.581919	0.381366	0.718283	0.456422	-0.884164	0.099667	0.673090	0.269843	-0.688575
16925	10.506801	-0.455253	-9.067957	-0.515694	-2.224408	0.141888	0.597393	0.385995	0.702943	0.452148	-0.886058	0.102290	0.662332	0.256727	-0.703852
16926	9.760163	-0.971707	-9.488606	-0.620602	-1.955571	0.135891	0.610815	0.389692	0.689235	0.447246	-0.888133	0.105790	0.653358	0.243639	-0.716773
16927	8.880463	-1.586562	-9.581150	-0.474439	-1.625794	0.106419	0.621825	0.392650	0.677614	0.443515	-0.889672	0.108529	0.645467	0.233046	-0.727366
16928	7.667594	-1.745194	-9.973747	-0.163768	-1.296744	0.092076	0.630503	0.394819	0.668269	0.441890	-0.890405	0.109142	0.638122	0.226487	-0.735870
16929	5.808030	-0.531790	-11.235930	0.129427	-0.986784	0.068754	0.637048	0.396457	0.661054	0.442283	-0.890377	0.107768	0.631312	0.223720	-0.742559
16930	5.462352	2.686913	-12.366498	-0.187325	-0.751186	0.053620	0.641962	0.397652	0.655559	0.440765	-0.890999	0.108843	0.627384	0.219074	-0.747259
16931	7.137061	3.493751	-9.663689	-1.256184	-0.438566	0.070165	0.645004	0.397987	0.652362	0.432423	-0.893940	0.117820	0.630063	0.206102	-0.748694
16932	6.475782	1.347644	-6.543107	-1.638734	0.010552	0.076251	0.645215	0.397294	0.652576	0.421551	-0.897495	0.129607	0.637176	0.191469	-0.746556
16933	5.933726	-0.813074	-5.615161	-1.237540	0.514523	0.042049	0.642068	0.395984	0.656464	0.413350	-0.899965	0.138580	0.645670	0.182371	-0.741519
16934	5.370174	-2.269364	-5.945766	-0.616828	0.931122	0.044978	0.636153	0.393900	0.663439	0.409055	-0.901257	0.142867	0.654204	0.180498	-0.734464
16935	4.881707	-0.593089	-6.325758	0.138533	1.246697	0.110530	0.628382	0.390645	0.672705	0.409274	-0.901426	0.141157	0.661536	0.186621	-0.726321
16936	4.613499	2.593127	-6.470660	0.262692	1.484545	0.184043	0.619206	0.386163	0.683712	0.409875	-0.901635	0.138043	0.669766	0.194760	-0.716577
16937	4.464764	4.095909	-6.472575	-0.067792	1.743979	0.223826	0.608323	0.380724	0.696414	0.408050	-0.902619	0.137020	0.680763	0.200819	-0.704438
16938	4.214403	3.729471	-6.659118	-0.359265	2.042353	0.229141	0.595159	0.374516	0.711002	0.404200	-0.904209	0.137943	0.694556	0.205289	-0.689528
16939	4.047128	2.595546	-6.901025	-0.477101	2.297192	0.253794	0.580024	0.367484	0.726999	0.399362	-0.906132	0.139408	0.709987	0.209476	-0.672338
16940	4.015043	2.108754	-7.012446	-0.420332	2.503382	0.305638	0.563212	0.359411	0.744054	0.394595	-0.908130	0.139979	0.726008	0.214762	-0.653292
16941	4.086191	2.206495	-6.936919	-0.351767	2.720790	0.373165	0.544676	0.350117	0.762067	0.389947	-0.910214	0.139471	0.742475	0.221200	-0.632299
16942	4.236576	2.444943	-7.080811	-0.328543	2.937646	0.425146	0.524210	0.339650	0.780924	0.385204	-0.912415	0.138264	0.759488	0.228335	-0.609132
16943	4.401657	2.812905	-7.245347	-0.412517	3.119405	0.463049	0.501992	0.328221	0.800172	0.379659	-0.914911	0.137105	0.777087	0.234966	-0.583890
16944	4.511179	2.742835	-6.737717	-0.670199	3.310562	0.503664	0.477795	0.315762	0.819760	0.371914	-0.918120	0.136880	0.795859	0.239479	-0.556109
16945	4.700709	1.232781	-7.067143	-0.693214	3.564395	0.551786	0.451092	0.302097	0.839794	0.363765	-0.921496	0.136092	0.814979	0.244097	-0.525571
16946	4.908414	-0.094016	-7.701348	-0.336393	3.750036	0.603559	0.422325	0.287235	0.859731	0.358349	-0.924107	0.132711	0.832603	0.252037	-0.493204
16947	5.466851	0.634913	-7.651012	0.012756	3.859870	0.619812	0.392073	0.271592	0.878929	0.355927	-0.925802	0.127303	0.848289	0.262923	-0.459649
16948	5.827244	1.516407	-7.313816	0.056039	3.993829	0.612658	0.360019	0.255204	0.897361	0.354093	-0.927265	0.121647	0.863136	0.273954	-0.424199
16949	6.043668	1.242000	-7.129499	0.064713	4.116109	0.607489	0.326325	0.238097	0.914780	0.352563	-0.928581	0.115921	0.877047	0.284689	-0.386963
16950	6.237069	0.987254	-6.938056	0.253286	4.198992	0.590187	0.291274	0.220419	0.930900	0.352965	-0.929198	0.109575	0.889143	0.296658	-0.348452
16951	6.474159	1.046880	-6.624785	0.428509	4.254194	0.568020	0.255217	0.202272	0.945490	0.355234	-0.929099	0.102877	0.899263	0.309614	-0.308975
16952	7.206439	0.979449	-6.524531	0.545407	4.279296	0.556316	0.218495	0.183581	0.958414	0.358829	-0.928450	0.096037	0.907470	0.322923	-0.268735
16953	8.237913	0.735038	-6.356627	0.552145	4.259283	0.527700	0.181579	0.164689	0.969488	0.362788	-0.927552	0.089617	0.914010	0.335446	-0.228172
16954	8.749705	0.404733	-6.376595	0.570699	4.196543	0.420364	0.144609	0.146478	0.978587	0.367316	-0.926262	0.084367	0.918786	0.347250	-0.187749
16955	8.934482	1.860743	-6.318933	0.689270	3.990407	0.328365	0.109083	0.129373	0.985578	0.373225	-0.924283	0.080019	0.921305	0.359114	-0.149109
16956	8.814470	5.265725	-5.350685	0.183522	3.646219	0.278630	0.076440	0.113605	0.990581	0.374641	-0.923963	0.077055	0.924014	0.365222	-0.113188
16957	8.057739	4.972770	-4.433828	-0.964660	3.374072	0.332387	0.046371	0.098323	0.994074	0.365476	-0.927817	0.074721	0.929665	0.359845	-0.078959
16958	7.717874	1.032555	-4.112986	-1.401510	3.115092	0.407725	0.018740	0.083497	0.996332	0.352249	-0.933165	0.071578	0.935719	0.349615	-0.046899
16959	8.328059	-1.642069	-2.926414	-1.173843	2.701231	0.458912	-0.005027	0.069909	0.997541	0.341186	-0.937574	0.067426	0.939982	0.340686	-0.019139
16960	9.997555	-1.292179	0.135502	-0.865750	2.163198	0.502985	-0.023728	0.057908	0.998040	0.333086	-0.940822	0.062507	0.942598	0.333916	0.003036
16961	7.334452	-4.286722	0.240225	-0.825906	1.640820	0.453191	-0.037743	0.048245	0.998122	0.325408	-0.943798	0.057924	0.944820	0.326983	0.019922
16962	5.011489	-3.399353	-1.459521	1.200508	0.775039	0.155842	-0.044566	0.044215	0.998027	0.336765	-0.939881	0.056677	0.940533	0.338627	0.026997
16963	4.281396	0.134419	-1.787836	1.883984	-0.246621	-0.127675	-0.042718	0.046297	0.998014	0.354346	-0.933285	0.058461	0.934138	0.356140	0.023463
16964	6.520866	-0.663742	-3.801776	2.504785	-1.134273	-0.200413	-0.032937	0.052342	0.998086	0.377536	-0.923989	0.060915	0.925409	0.378820	0.010673
16965	10.649115	3.852066	-4.718214	3.206483	-1.780286	-0.235004	-0.017514	0.061524	0.997952	0.406937	-0.911259	0.063321	0.913288	0.407213	-0.009077
16966	15.522702	16.602823	-0.381925	2.902496	-1.733625	-0.429531	-0.003619	0.072706	0.997347	0.433206	-0.898794	0.067094	0.901288	0.432299	-0.028244
16967	17.080229	10.055455	1.889593	1.567589	-1.011399	-0.332543	0.003973	0.080150	0.996775	0.447261	-0.891667	0.069915	0.894395	0.445541	-0.039390
16968	13.579355	1.930612	-1.066254	1.362544	-0.816162	0.060144	0.011482	0.083323	0.996456	0.459380	-0.885574	0.068758	0.888165	0.456963	-0.048445
16969	8.158083	0.886910	-5.548709	1.453420	-1.020301	0.329538	0.022018	0.085165	0.996124	0.472164	-0.879131	0.064726	0.881236	0.468909	-0.059569
16970	7.384202	3.834214	-7.844570	0.486771	-1.183228	0.528998	0.034902	0.086113	0.995674	0.476278	-0.877301	0.059180	0.878602	0.472152	-0.071633
16971	10.055851	1.375509	-8.655692	-0.670519	-1.055957	0.515566	0.046608	0.086556	0.995156	0.470149	-0.880897	0.054598	0.881356	0.465327	-0.081751
16972	10.477985	-0.052942	-7.639057	-0.650521	-0.776787	0.391037	0.055260	0.086725	0.994698	0.464190	-0.884248	0.051307	0.884010	0.458894	-0.089121
16973	10.821846	-0.804706	-5.977488	-0.600869	-0.612970	0.365613	0.062348	0.086308	0.994316	0.458638	-0.887312	0.048261	0.886433	0.453022	-0.094906
16974	10.597216	-1.457949	-4.645328	-0.167797	-0.524487	0.316730	0.068422	0.085900	0.993952	0.456926	-0.888350	0.045319	0.886869	0.451061	-0.100033
16975	10.535440	0.067494	-3.949830	0.502307	-0.413040	0.230318	0.073112	0.085754	0.993630	0.461193	-0.886279	0.042554	0.884282	0.455144	-0.104346
16976	9.906374	2.152983	-3.494497	0.684681	-0.344506	0.219898	0.077150	0.085419	0.993354	0.467054	-0.883338	0.039685	0.880857	0.460888	-0.108045
16977	9.565771	2.766771	-2.624965	0.410607	-0.319586	0.269980	0.081201	0.084541	0.993106	0.470436	-0.881675	0.036590	0.878690	0.464221	-0.111364
16978	9.953471	1.699532	-1.861685	-0.033631	-0.285766	0.313509	0.085164	0.083138	0.992892	0.469863	-0.882101	0.033559	0.878622	0.463666	-0.114186
16979	10.040886	-0.259680	-1.482278	-0.309578	-0.261886	0.309253	0.088889	0.081644	0.992690	0.466855	-0.883794	0.030884	0.879855	0.460697	-0.116675
16980	10.217979	-0.713201	-0.931195	-0.352145	-0.248269	0.304164	0.092468	0.080129	0.992486	0.463462	-0.885664	0.028324	0.881279	0.457361	-0.119032
16981	10.083234	-0.626649	-0.400961	-0.402093	-0.250064	0.279222	0.095937	0.078818	0.992262	0.459636	-0.887725	0.026074	0.882911	0.453578	-0.121393
16982	10.275713	-1.115139	-0.320059	-0.501448	-0.290599	0.242148	0.099591	0.078012	0.991966	0.454951	-0.890184	0.024332	0.884930	0.448872	-0.124146
16983	10.132916	-2.129260	-0.901050	-0.322412	-0.264113	0.204477	0.102831	0.077398	0.991683	0.451872	-0.891793	0.022746	0.886136	0.445775	-0.126678
16984	9.993005	-2.326281	-1.516917	-0.060406	-0.260119	0.162822	0.105850	0.077138	0.991386	0.451151	-0.892195	0.021251	0.886148	0.445015	-0.129240
16985	10.094560	-1.684196	-2.153447	0.133196	-0.231970	0.124303	0.108441	0.077090	0.991109	0.452181	-0.891705	0.019883	0.885310	0.446005	-0.131556
16986	9.690204	-1.226696	-2.501972	0.176170	-0.179651	0.086655	0.110403	0.077152	0.990888	0.453629	-0.890992	0.018831	0.884326	0.447416	-0.133366
16987	9.593983	-0.896139	-2.845957	0.221167	-0.151523	0.058921	0.111984	0.077333	0.990696	0.455502	-0.890053	0.017989	0.883164	0.449249	-0.134897
16988	9.499355	0.216022	-2.505735	0.254353	-0.137220	0.046645	0.113390	0.077568	0.990518	0.457678	-0.888951	0.017221	0.881858	0.451385	-0.136299
16989	9.433717	0.677272	-1.842511	0.198773	-0.124440	0.042871	0.114658	0.077776	0.990356	0.459364	-0.888093	0.016562	0.880817	0.453035	-0.137554
16990	9.582197	0.528486	-1.082945	0.173039	-0.132479	0.036771	0.115975	0.078083	0.990178	0.460830	-0.887344	0.015999	0.879878	0.454448	-0.138893
16991	9.631140	0.662925	-0.341093	0.162520	-0.158965	0.051115	0.117583	0.078379	0.989965	0.462183	-0.886653	0.015303	0.878954	0.455746	-0.140481
16992	9.519515	0.312109	0.017788	0.147990	-0.166070	0.061148	0.119307	0.078627	0.989739	0.463395	-0.886033	0.014529	0.878084	0.456907	-0.142145
16993	9.164062	-0.428421	0.319255	0.201136	-0.194411	0.059338	0.121262	0.079018	0.989470	0.465073	-0.885167	0.013692	0.876928	0.458515	-0.144086
16994	9.305516	-0.626078	0.542146	0.303676	-0.266821	0.054578	0.123834	0.079793	0.989090	0.467651	-0.883821	0.012750	0.875196	0.460970	-0.146763
16995	9.429485	-0.130796	0.689883	0.357181	-0.336360	0.054542	0.127005	0.080892	0.988598	0.470689	-0.882221	0.011719	0.873110	0.463834	-0.150122
16996	9.589390	0.097523	0.542631	0.280668	-0.398640	0.059563	0.130741	0.082250	0.987999	0.473045	-0.880973	0.010743	0.871284	0.465963	-0.154088
16997	9.709768	-0.304830	0.104854	0.176648	-0.437147	0.059908	0.134805	0.083788	0.987323	0.474488	-0.880206	0.009913	0.869879	0.467137	-0.158413
16998	9.730891	-0.768687	-0.564756	0.188027	-0.472447	0.052342	0.139137	0.085567	0.986569	0.476036	-0.879379	0.009134	0.868350	0.468371	-0.163086
16999	9.539836	-0.576047	-1.108818	0.230645	-0.499872	0.042528	0.143650	0.087564	0.985747	0.477961	-0.878341	0.008371	0.866555	0.469946	-0.168025
17000	9.776578	-0.308354	-1.594917	0.208180	-0.511029	0.030015	0.148194	0.089733	0.984879	0.479705	-0.877395	0.007759	0.864825	0.471302	-0.173070
17001	9.749569	-0.184775	-2.204006	0.215152	-0.504761	0.017704	0.152614	0.091986	0.983996	0.481523	-0.876404	0.007246	0.863044	0.472711	-0.178044
17002	9.843771	0.094064	-2.519219	0.204722	-0.502285	0.010110	0.156970	0.094302	0.983091	0.483258	-0.875452	0.006816	0.861291	0.474016	-0.182992
17003	9.767960	0.488912	-2.629338	0.182158	-0.496179	-0.010341	0.161163	0.096773	0.982172	0.484828	-0.874585	0.006618	0.859633	0.475117	-0.187869
17004	9.852787	0.794208	-2.160094	0.117307	-0.503451	-0.011961	0.165406	0.099299	0.981214	0.485841	-0.874023	0.006551	0.858254	0.475630	-0.192812
17005	9.896728	0.028120	-1.370497	0.008911	-0.499208	-0.031629	0.169509	0.101974	0.980239	0.485956	-0.873956	0.006883	0.857387	0.475187	-0.197698
17006	9.815106	-0.966245	-0.587722	0.158314	-0.540260	-0.054412	0.173848	0.105047	0.979154	0.487392	-0.873154	0.007139	0.855702	0.475991	-0.202996
17007	9.650722	-0.179903	0.283825	0.296555	-0.591340	-0.061343	0.178575	0.108428	0.977934	0.490021	-0.871681	0.007167	0.853223	0.477928	-0.208793
17008	9.661158	-0.294944	0.489158	0.255959	-0.637576	-0.059976	0.183688	0.112029	0.976580	0.492297	-0.870397	0.007250	0.850824	0.479436	-0.215033
17009	9.745271	-0.077293	0.315421	0.250775	-0.707411	-0.047294	0.189439	0.115862	0.975033	0.494503	-0.869146	0.007203	0.848280	0.480792	-0.221944
17010	9.721468	0.097035	-0.141595	0.144201	-0.754912	-0.046446	0.195578	0.119921	0.973328	0.495802	-0.868405	0.007369	0.846127	0.481137	-0.229298
17011	9.773600	-0.452050	-0.730206	0.019443	-0.788886	-0.045242	0.201995	0.124132	0.971488	0.496044	-0.868263	0.007803	0.844475	0.480324	-0.236960
17012	9.978773	-0.668791	-1.043518	-0.001775	-0.840788	-0.058661	0.208770	0.128699	0.969460	0.496137	-0.868204	0.008416	0.842771	0.479228	-0.245107
17013	10.008607	-0.176522	-1.225027	-0.109668	-0.877249	-0.068004	0.215794	0.133510	0.967268	0.495346	-0.868645	0.009388	0.841466	0.477107	-0.253582
17014	10.186298	-0.359607	-1.399669	-0.231337	-0.901803	-0.069362	0.223007	0.138424	0.964939	0.493541	-0.869657	0.010693	0.840646	0.473852	-0.262257
17015	10.450128	-0.624657	-1.722857	-0.225113	-0.920215	-0.086175	0.230287	0.143544	0.962477	0.491833	-0.870604	0.012164	0.839683	0.470577	-0.271089
17016	10.594808	1.138981	-1.878111	-0.232096	-0.966035	-0.099233	0.237877	0.148960	0.959805	0.490107	-0.871553	0.013796	0.838576	0.467125	-0.280329
17017	10.385882	2.547609	-2.167687	-0.439544	-0.993018	-0.128795	0.245548	0.154722	0.956957	0.486722	-0.873404	0.016323	0.838336	0.461764	-0.289769
17018	10.521914	1.037592	-2.217062	-0.596113	-0.990785	-0.148291	0.253108	0.160583	0.954018	0.482083	-0.875908	0.019536	0.838769	0.454971	-0.299113
17019	10.269169	-0.307784	-1.904182	-0.373222	-1.017832	-0.211532	0.260598	0.167069	0.950882	0.479487	-0.877255	0.022725	0.837963	0.450013	-0.308718
17020	10.097764	0.177301	-1.431386	-0.137353	-1.073222	-0.263612	0.268285	0.174218	0.947455	0.479025	-0.877425	0.025699	0.835798	0.446960	-0.318855
17021	10.017337	-0.007795	-1.111694	-0.105676	-1.128072	-0.286072	0.276303	0.181780	0.943723	0.478912	-0.877391	0.028787	0.833247	0.444006	-0.329482
17022	10.100733	-0.450836	-0.910538	-0.029597	-1.193962	-0.307769	0.284725	0.189788	0.939634	0.479520	-0.876954	0.031825	0.830056	0.441512	-0.340698
17023	10.175411	-0.082621	-0.568569	-0.053547	-1.250518	-0.308335	0.293579	0.198021	0.935200	0.479959	-0.876595	0.034942	0.826711	0.438600	-0.352392
17024	10.374825	-0.140226	-0.360356	-0.115688	-1.314689	-0.304741	0.302929	0.206454	0.930382	0.479905	-0.876487	0.038240	0.823362	0.434911	-0.364591
17025	10.688877	-0.181153	-0.023682	-0.149100	-1.378303	-0.295754	0.312808	0.215038	0.925154	0.479582	-0.876511	0.041578	0.819848	0.430682	-0.377309
17026	10.874133	0.400411	0.387195	-0.137653	-1.468258	-0.291267	0.323383	0.223901	0.919398	0.479375	-0.876464	0.044833	0.815857	0.426238	-0.390766
17027	11.155815	0.999303	0.683046	-0.172951	-1.557803	-0.283541	0.334675	0.233013	0.913070	0.478894	-0.876551	0.048160	0.811575	0.421146	-0.404948
17028	11.289611	1.387417	0.842158	-0.177453	-1.658977	-0.266218	0.346784	0.242304	0.906107	0.478358	-0.876662	0.051354	0.806793	0.415634	-0.419921
17029	11.492229	1.745622	0.851532	-0.171403	-1.775723	-0.259674	0.359796	0.251936	0.898374	0.477891	-0.876729	0.054472	0.801353	0.409726	-0.435841
17030	11.569748	2.502839	0.750432	-0.178993	-1.908638	-0.245750	0.373813	0.261865	0.889770	0.477357	-0.876826	0.057506	0.795232	0.403242	-0.452772
17031	11.317227	2.812234	0.839511	-0.281248	-2.019852	-0.217509	0.388750	0.271865	0.880320	0.475954	-0.877368	0.060771	0.788886	0.395367	-0.470472
17032	11.064001	2.795180	1.455608	-0.451655	-2.162696	-0.188366	0.404798	0.281977	0.869843	0.473148	-0.878609	0.064630	0.782477	0.385402	-0.489076
17033	10.671755	2.434459	1.716064	-0.628651	-2.277624	-0.141405	0.421856	0.291889	0.858393	0.468830	-0.880587	0.069029	0.776038	0.373320	-0.508327
17034	10.562277	1.369792	1.381005	-0.705903	-2.354141	-0.092684	0.439558	0.301354	0.846153	0.463771	-0.882899	0.073522	0.769224	0.360104	-0.527845
17035	10.309296	0.314558	0.787980	-0.670959	-2.421929	-0.038910	0.457891	0.310286	0.833102	0.458808	-0.885149	0.077499	0.761466	0.346748	-0.547664
17036	10.410221	-0.096424	0.047004	-0.580103	-2.503851	0.004090	0.476805	0.318783	0.819167	0.454395	-0.887133	0.080746	0.752451	0.333725	-0.567842
17037	10.851515	-0.262106	-1.354233	-0.452854	-2.538119	0.028413	0.495878	0.326873	0.804524	0.450872	-0.888705	0.083175	0.742172	0.321493	-0.588067
17038	11.377717	-0.061167	-2.857374	-0.351249	-2.532736	0.076490	0.514817	0.334202	0.789476	0.447897	-0.890063	0.084710	0.730994	0.309994	-0.607908
17039	11.466166	0.019097	-4.501900	-0.311648	-2.495961	0.154004	0.533582	0.340456	0.774196	0.444831	-0.891527	0.085472	0.719316	0.298781	-0.627148
17040	11.337985	-0.560202	-5.951704	-0.343120	-2.453405	0.258981	0.552171	0.345345	0.758844	0.440977	-0.893416	0.085712	0.707564	0.287305	-0.645608
17041	11.293900	-0.784077	-6.700138	-0.327668	-2.420125	0.343083	0.570632	0.349121	0.743299	0.436756	-0.895525	0.085322	0.695430	0.275953	-0.663496
17042	11.324857	-0.279899	-7.463003	-0.408016	-2.262499	0.379724	0.587827	0.351838	0.728471	0.431743	-0.897953	0.085307	0.684147	0.264366	-0.679745
17043	10.588332	-0.524951	-8.053742	-0.483814	-1.985369	0.386193	0.602948	0.353530	0.715172	0.426163	-0.900561	0.085883	0.674418	0.252996	-0.693652
17044	9.191633	-0.813231	-8.593689	-0.216054	-1.609604	0.385990	0.615310	0.354070	0.704292	0.422366	-0.902460	0.084692	0.665582	0.245358	-0.704840
17045	8.031263	-1.061061	-9.164135	0.238901	-1.165305	0.384443	0.624619	0.353476	0.696352	0.421570	-0.903229	0.080346	0.657366	0.243375	-0.713189
17046	6.493887	0.240017	-10.130513	0.471458	-0.839193	0.386484	0.631678	0.352041	0.690688	0.422228	-0.903437	0.074324	0.650159	0.244680	-0.719323
17047	6.994048	3.156036	-10.566718	-0.221653	-0.606367	0.387116	0.637217	0.350040	0.686605	0.418342	-0.905327	0.073297	0.647259	0.240530	-0.723326
17048	7.624353	2.827671	-8.839118	-1.356605	-0.232037	0.378566	0.640230	0.347157	0.685264	0.407119	-0.909816	0.080552	0.651429	0.227413	-0.723826
17049	6.784166	0.172591	-7.128429	-1.736195	0.265968	0.331326	0.639791	0.343579	0.687474	0.393621	-0.914772	0.090856	0.660098	0.212475	-0.720503
17050	6.261263	-1.696737	-6.143206	-1.264874	0.788256	0.249027	0.635461	0.339668	0.693408	0.383623	-0.918249	0.098242	0.670091	0.203578	-0.713816
17051	5.813844	-1.471529	-6.159225	-0.602566	1.228071	0.197509	0.627902	0.335391	0.702319	0.378314	-0.920131	0.101178	0.680160	0.202167	-0.704635
17052	5.627618	0.175006	-6.864208	-0.365310	1.572425	0.192055	0.617786	0.330438	0.713548	0.374615	-0.921508	0.102403	0.691378	0.204043	-0.693082
17053	5.578825	1.244517	-7.165051	-0.729489	1.840415	0.217950	0.605722	0.324708	0.726406	0.368192	-0.923701	0.105880	0.705362	0.203324	-0.679061
17054	5.524384	1.612265	-7.318416	-0.902505	2.166428	0.261936	0.591162	0.317904	0.741259	0.360185	-0.926368	0.110040	0.721661	0.201939	-0.662138
17055	5.242632	1.686168	-6.698277	-1.136566	2.483177	0.311105	0.574095	0.310066	0.757808	0.350068	-0.929618	0.115162	0.740181	0.199170	-0.642234
17056	5.190847	0.265215	-6.962713	-1.137834	2.795163	0.365514	0.554333	0.301132	0.775909	0.339469	-0.932987	0.119568	0.759918	0.197116	-0.619410
17057	5.113483	-0.321485	-7.206246	-0.705630	3.035324	0.393597	0.532280	0.291465	0.794812	0.331902	-0.935547	0.120802	0.778793	0.199500	-0.594711
17058	5.473914	0.637239	-7.116094	-0.386214	3.206258	0.411988	0.508321	0.281128	0.813988	0.326711	-0.937506	0.119762	0.796787	0.205061	-0.568401
17059	5.804027	1.645685	-6.914095	-0.316074	3.367841	0.426163	0.482548	0.270146	0.833168	0.322052	-0.939334	0.118046	0.814512	0.211361	-0.540274
17060	5.770213	1.815834	-6.518867	-0.418822	3.511980	0.453403	0.455019	0.258371	0.852175	0.316470	-0.941427	0.116453	0.832349	0.216700	-0.510134
17061	5.955314	0.867460	-6.286816	-0.334476	3.659483	0.496193	0.425780	0.245684	0.870834	0.311468	-0.943409	0.113872	0.849529	0.222752	-0.478207
17062	6.019468	0.086664	-6.728428	0.096645	3.782715	0.529796	0.394945	0.232074	0.888910	0.310113	-0.944455	0.108792	0.864782	0.232696	-0.444976
17063	6.262985	0.546321	-6.977244	0.595366	3.857201	0.527897	0.362963	0.217867	0.905976	0.313293	-0.944212	0.101546	0.877557	0.246978	-0.410970
17064	6.128481	1.644375	-7.117743	0.912359	3.940056	0.473197	0.329615	0.203342	0.921958	0.319699	-0.942879	0.093659	0.888339	0.263878	-0.375795
17065	6.171877	2.601720	-6.924916	0.962155	3.984254	0.416812	0.295357	0.188595	0.936588	0.326981	-0.941075	0.086383	0.897690	0.280732	-0.339620
17066	6.245468	2.665931	-6.573259	0.766668	3.995891	0.353823	0.260427	0.173767	0.949728	0.332900	-0.939510	0.080612	0.906287	0.295171	-0.302521
17067	6.219749	1.494640	-6.878944	0.767105	4.015961	0.287082	0.224825	0.158968	0.961344	0.339172	-0.937671	0.075733	0.913464	0.309034	-0.264729
17068	6.514906	1.404003	-7.314095	0.977142	4.005095	0.193338	0.188752	0.144484	0.971338	0.347707	-0.934873	0.071492	0.918407	0.324247	-0.226697
17069	6.807375	2.375201	-7.277967	0.931604	3.962924	0.086710	0.152565	0.130572	0.979630	0.356118	-0.931909	0.068750	0.921902	0.338375	-0.188676
17070	7.438577	3.654339	-7.014367	0.539292	3.841912	-0.015081	0.116982	0.117535	0.986155	0.361101	-0.930043	0.068012	0.925160	0.348146	-0.151240
17071	7.333968	3.339137	-5.512174	-0.281665	3.622633	-0.086272	0.083046	0.105728	0.990921	0.358557	-0.930934	0.069278	0.929806	0.349549	-0.115220
17072	6.440330	0.855940	-5.236531	-0.519420	3.423096	-0.043495	0.050949	0.094209	0.994248	0.353726	-0.932707	0.070251	0.933961	0.348112	-0.080844
17073	6.859426	-0.625996	-5.013308	-0.212028	3.118602	0.017559	0.021830	0.083205	0.996293	0.351717	-0.933467	0.070252	0.935852	0.348879	-0.049642
17074	7.407355	0.802952	-3.993927	0.145215	2.765914	0.066803	-0.003852	0.072901	0.997332	0.353047	-0.933016	0.069564	0.935597	0.352373	-0.022143
17075	7.668107	2.007108	-2.522747	0.159939	2.344863	0.128997	-0.025347	0.063428	0.997664	0.354540	-0.932543	0.068296	0.934697	0.355443	0.001150
17076	10.035262	2.245863	0.713839	-0.159649	1.767691	0.151284	-0.041367	0.055758	0.997587	0.353075	-0.933207	0.066801	0.934680	0.354986	0.018917
17077	4.555949	-3.440296	-1.099951	0.596469	1.051385	0.091423	-0.050877	0.051170	0.997393	0.358662	-0.931127	0.066066	0.932080	0.361088	0.029020
17078	4.963016	-2.771752	-1.723602	1.533500	-0.055454	-0.050585	-0.050578	0.051864	0.997373	0.372863	-0.925462	0.067033	0.926507	0.375274	0.027470
17079	7.232394	-3.556292	-2.874097	2.562004	-0.918845	-0.171884	-0.042793	0.057028	0.997455	0.396378	-0.915465	0.069346	0.917090	0.398337	0.016570
17080	13.094531	-1.157769	-1.848571	3.145303	-1.427027	-0.162695	-0.030489	0.064406	0.997458	0.424949	-0.902408	0.071258	0.904704	0.426041	0.000145
17081	17.123297	14.135876	-0.210658	4.169905	-1.608267	-0.261443	-0.017268	0.073911	0.997115	0.462219	-0.883714	0.073509	0.886598	0.462155	-0.018903
17082	18.301227	20.621221	3.136000	1.586756	-1.030468	-0.261013	-0.009426	0.081058	0.996665	0.476173	-0.876082	0.075754	0.879301	0.475299	-0.030340
17083	11.303386	3.249644	-1.184166	0.078994	-0.811242	0.163436	-0.001541	0.083507	0.996506	0.476857	-0.875849	0.074134	0.878980	0.475305	-0.038471
17084	8.367922	-3.917506	-5.775448	0.824388	-1.031485	0.397513	0.009375	0.084998	0.996337	0.484051	-0.872247	0.069857	0.874989	0.481623	-0.049321
17085	7.522386	1.926793	-7.555955	0.818837	-1.231255	0.435966	0.022222	0.087196	0.995943	0.491111	-0.868662	0.065094	0.870814	0.487672	-0.062126
17086	9.933743	0.059271	-9.076278	0.020797	-1.016836	0.452551	0.033265	0.088250	0.995543	0.491148	-0.868964	0.060619	0.870441	0.486942	-0.072250
17087	10.032906	-0.036226	-8.632113	0.396839	-0.752786	0.322974	0.041374	0.089148	0.995159	0.494459	-0.867321	0.057139	0.868216	0.489701	-0.079964
17088	9.985762	2.326415	-6.085216	-0.129066	-0.626756	0.339708	0.048470	0.089299	0.994825	0.493168	-0.868262	0.053910	0.868583	0.488002	-0.086124
17089	10.560749	-0.368065	-4.173942	-0.195719	-0.432365	0.400106	0.054170	0.087953	0.994651	0.491244	-0.869578	0.050140	0.869336	0.485900	-0.090311
17090	10.320112	-0.616890	-3.012507	0.013740	-0.359075	0.336008	0.058921	0.086813	0.994481	0.491156	-0.869812	0.046830	0.869077	0.485686	-0.093889
17091	10.141011	-0.990625	-2.216955	0.468837	-0.278746	0.281713	0.062702	0.085750	0.994342	0.495036	-0.867777	0.043619	0.866607	0.489500	-0.096861
17092	10.021742	-1.142055	-1.381814	0.558391	-0.259287	0.239779	0.066120	0.084985	0.994186	0.499696	-0.865243	0.040730	0.863674	0.494097	-0.099677
17093	10.375770	-1.690026	-1.322079	0.687576	-0.221648	0.226162	0.069140	0.084158	0.994051	0.505451	-0.862026	0.037825	0.860081	0.499829	-0.102138
17094	10.372264	-1.849915	-1.769797	0.746786	-0.199526	0.183852	0.071770	0.083616	0.993910	0.511714	-0.858432	0.035268	0.856153	0.506066	-0.104397
17095	10.230981	-1.242893	-2.250117	0.704420	-0.207514	0.145032	0.074262	0.083454	0.993741	0.517608	-0.854976	0.033120	0.852389	0.511909	-0.106689
17096	10.114285	-0.067313	-2.472062	0.567355	-0.207420	0.117717	0.076624	0.083550	0.993553	0.522330	-0.852166	0.031378	0.849294	0.516559	-0.108937
17097	10.068860	0.529179	-2.425437	0.283836	-0.176746	0.101050	0.078625	0.083629	0.993390	0.524644	-0.850790	0.030099	0.847684	0.518809	-0.110768
17098	10.038254	0.157405	-2.220107	0.103614	-0.148314	0.086710	0.080323	0.083696	0.993249	0.525436	-0.850333	0.029162	0.847033	0.519547	-0.112278
17099	9.964123	-0.428166	-2.050778	0.131600	-0.124558	0.056354	0.081646	0.083889	0.993125	0.526488	-0.849705	0.028491	0.846253	0.520542	-0.113541
17100	9.835433	-0.171747	-1.817150	0.261963	-0.116952	0.034548	0.082804	0.084240	0.992999	0.528659	-0.848376	0.027887	0.844786	0.522648	-0.114783
17101	9.786078	0.229645	-1.513602	0.310573	-0.103017	0.018902	0.083746	0.084643	0.992886	0.531248	-0.846774	0.027379	0.843067	0.525175	-0.115881
17102	9.733493	0.279953	-1.445737	0.296651	-0.089573	0.018910	0.084589	0.084989	0.992785	0.533714	-0.845238	0.026884	0.841424	0.527589	-0.116858
17103	9.627769	0.191446	-1.309721	0.266284	-0.077149	0.020210	0.085318	0.085250	0.992700	0.535919	-0.843856	0.026408	0.839947	0.529754	-0.117683
17104	9.596103	0.376311	-1.002494	0.201357	-0.082757	0.022608	0.086122	0.085533	0.992606	0.537574	-0.842816	0.025984	0.838807	0.531361	-0.118565
17105	9.525738	0.631407	-0.849669	0.141842	-0.089884	0.033173	0.087026	0.085756	0.992508	0.538718	-0.842099	0.025524	0.837979	0.532461	-0.119482
17106	9.330385	0.810892	-0.479014	0.043533	-0.119967	0.037414	0.088220	0.086114	0.992372	0.539034	-0.841909	0.025138	0.837651	0.532705	-0.120691
17107	9.364017	0.733229	0.014131	0.028561	-0.153085	0.035683	0.089666	0.086653	0.992195	0.539226	-0.841796	0.024787	0.837374	0.532795	-0.122206
17108	9.524467	0.588551	0.359313	0.074806	-0.191319	0.037107	0.091454	0.087395	0.991967	0.539803	-0.841439	0.024366	0.836809	0.533238	-0.124129
17109	9.448797	0.365930	0.695200	0.172525	-0.250135	0.045601	0.093764	0.088370	0.991665	0.541187	-0.840567	0.023735	0.835658	0.534451	-0.126640
17110	9.382132	0.456047	0.905884	0.239063	-0.323922	0.049885	0.096723	0.089719	0.991259	0.543120	-0.839341	0.022973	0.834066	0.536151	-0.129912
17111	9.464038	0.511815	1.152779	0.176673	-0.389649	0.064020	0.100291	0.091297	0.990761	0.544514	-0.838460	0.022144	0.832734	0.537262	-0.133802
17112	9.336531	0.228973	1.204472	0.091275	-0.452803	0.080839	0.104481	0.093085	0.990161	0.545175	-0.838052	0.021258	0.831786	0.537590	-0.138308
17113	9.259751	-0.261627	1.162334	0.055451	-0.524383	0.086033	0.109282	0.095206	0.989441	0.545529	-0.837844	0.020367	0.830936	0.537543	-0.143499
17114	9.194056	-0.387120	1.078117	0.081786	-0.603176	0.079893	0.114706	0.097810	0.988573	0.546104	-0.837491	0.019496	0.829827	0.537627	-0.149479
17115	9.392186	-0.272642	0.865485	0.127378	-0.672850	0.074223	0.120662	0.100831	0.987560	0.547058	-0.836888	0.018607	0.828353	0.538007	-0.156141
17116	9.641082	-0.088070	0.292621	0.171694	-0.713817	0.065199	0.126902	0.104156	0.986432	0.548383	-0.836039	0.017728	0.826542	0.538693	-0.163213
17117	10.265876	0.113467	-0.946524	0.257754	-0.716471	0.053538	0.133082	0.107597	0.985247	0.550427	-0.834714	0.016809	0.824208	0.540070	-0.170310
17118	10.161666	0.557182	-2.370713	0.109482	-0.690635	0.042182	0.138977	0.111003	0.984055	0.551257	-0.834177	0.016243	0.822679	0.540210	-0.177123
17119	10.062017	-0.549468	-3.467023	0.001991	-0.673640	0.043142	0.144725	0.114303	0.982848	0.551198	-0.834224	0.015854	0.821727	0.539450	-0.183737
17120	10.038613	0.465913	-4.032994	0.062592	-0.646518	0.011026	0.150072	0.117725	0.981641	0.551682	-0.833907	0.015668	0.820442	0.539203	-0.190093
17121	9.998335	0.459810	-4.841350	-0.079363	-0.583246	-0.000592	0.154824	0.120894	0.980517	0.551019	-0.834342	0.015865	0.820005	0.537827	-0.195791
17122	10.091260	0.143266	-5.126706	-0.122169	-0.519123	-0.021544	0.158941	0.123891	0.979484	0.550038	-0.834979	0.016359	0.819876	0.536153	-0.200858
17123	10.034763	-0.256915	-4.466509	-0.188085	-0.484677	-0.048631	0.162621	0.126915	0.978492	0.548561	-0.835933	0.017256	0.820144	0.533956	-0.205560
17124	10.031384	-0.080562	-2.949117	-0.238618	-0.496483	-0.073987	0.166271	0.130209	0.977445	0.546712	-0.837116	0.018516	0.820646	0.531302	-0.210375
17125	9.820838	-0.626366	-0.742873	-0.367017	-0.516645	-0.098600	0.169948	0.133794	0.976328	0.543851	-0.838937	0.020299	0.821793	0.527527	-0.215340
17126	9.338111	-0.934310	1.156529	-0.243717	-0.569923	-0.117993	0.173974	0.137814	0.975059	0.542037	-0.840066	0.022021	0.822149	0.524687	-0.220850
17127	9.403973	-0.460108	2.666235	-0.218226	-0.647632	-0.122256	0.178609	0.142254	0.973582	0.540446	-0.841044	0.023741	0.822202	0.521928	-0.227099
17128	9.753836	-1.204019	2.798984	-0.232646	-0.733272	-0.125350	0.183941	0.147153	0.971860	0.538748	-0.842080	0.025535	0.822141	0.518891	-0.234171
17129	9.969809	-0.715364	2.025167	-0.176421	-0.833503	-0.129269	0.190068	0.152579	0.969842	0.537528	-0.842806	0.027250	0.821546	0.516138	-0.242206
17130	10.003349	-0.493591	1.014870	-0.272579	-0.928741	-0.133013	0.196958	0.158500	0.967515	0.535534	-0.844007	0.029248	0.821225	0.512377	-0.251116
17131	10.146990	-0.314525	0.172669	-0.360717	-1.025977	-0.150120	0.204553	0.165025	0.964844	0.532861	-0.845610	0.031661	0.821107	0.507652	-0.260908
17132	10.473681	-0.128161	-0.419777	-0.378676	-1.091796	-0.161120	0.212633	0.171924	0.961888	0.530077	-0.847257	0.034258	0.820857	0.502590	-0.271288
17133	10.838973	0.098033	-0.785703	-0.446058	-1.130884	-0.171728	0.220981	0.179056	0.958700	0.526777	-0.849190	0.037181	0.820776	0.496805	-0.281978
17134	11.221316	0.266032	-0.931114	-0.504722	-1.181156	-0.187541	0.229662	0.186500	0.955235	0.523045	-0.851344	0.040463	0.820779	0.490338	-0.293069
17135	11.386833	1.026764	-0.852292	-0.494671	-1.246304	-0.226942	0.238680	0.194529	0.951415	0.519507	-0.853325	0.044146	0.820454	0.483730	-0.304730
17136	10.997729	1.450996	-0.327612	-0.432433	-1.314234	-0.271158	0.248020	0.203179	0.947209	0.516610	-0.854869	0.048101	0.819512	0.477408	-0.316989
17137	11.300003	0.738351	0.362526	-0.289792	-1.389922	-0.307277	0.257785	0.212430	0.942561	0.515005	-0.855609	0.051982	0.817506	0.472024	-0.329966
17138	11.492705	0.892534	1.057052	-0.102001	-1.506621	-0.342508	0.268277	0.222457	0.937305	0.515064	-0.855348	0.055583	0.814086	0.467861	-0.344049
17139	11.702875	1.855405	1.684849	0.041715	-1.623728	-0.334560	0.279705	0.232912	0.931406	0.516311	-0.854394	0.058603	0.809437	0.464503	-0.359233
17140	12.340702	1.497306	2.119273	0.011791	-1.720690	-0.306399	0.291966	0.243501	0.924912	0.517272	-0.853612	0.061443	0.804478	0.460492	-0.375183
17141	12.485994	2.086339	2.369001	0.125410	-1.885050	-0.280094	0.305594	0.254562	0.917502	0.519106	-0.852341	0.063583	0.798211	0.456851	-0.392615
17142	11.824991	3.630461	2.512346	0.065806	-2.063732	-0.232609	0.320740	0.265934	0.909068	0.520350	-0.851439	0.065484	0.791430	0.452030	-0.411470
17143	11.087301	3.484028	2.221778	-0.236953	-2.198147	-0.189344	0.337061	0.277420	0.899682	0.519098	-0.851987	0.068236	0.785447	0.444023	-0.431180
17144	10.495638	1.802316	1.840334	-0.413139	-2.332080	-0.184086	0.354301	0.289239	0.889276	0.516494	-0.853279	0.071751	0.779554	0.433884	-0.451708
17145	10.238559	0.961422	2.112199	-0.450301	-2.478746	-0.193123	0.372521	0.301530	0.877672	0.513695	-0.854637	0.075582	0.772881	0.422700	-0.473265
17146	10.278705	0.364271	1.952085	-0.433551	-2.581036	-0.184389	0.391366	0.313876	0.865052	0.511059	-0.855877	0.079334	0.765279	0.411044	-0.495370
17147	10.659814	-0.369682	1.547535	-0.332851	-2.641290	-0.165286	0.410594	0.326025	0.851540	0.509186	-0.856695	0.082481	0.756401	0.399726	-0.517761
17148	11.016828	-0.628722	0.481570	-0.133419	-2.664358	-0.130408	0.429878	0.337666	0.837369	0.508727	-0.856788	0.084333	0.745924	0.389739	-0.540094
17149	11.504970	-0.423303	-1.329829	0.054883	-2.644325	-0.059876	0.449116	0.348398	0.822748	0.509395	-0.856368	0.084569	0.734038	0.381122	-0.562080
17150	11.661625	-0.125185	-3.165668	0.060041	-2.593775	0.022623	0.468045	0.357980	0.807951	0.509724	-0.856219	0.084084	0.721883	0.372477	-0.583220
17151	11.484408	-0.199023	-5.036583	0.009160	-2.517466	0.089728	0.486499	0.366501	0.793093	0.509362	-0.856506	0.083353	0.709838	0.363420	-0.603371
17152	10.979423	-0.384710	-6.485030	0.025694	-2.427341	0.135112	0.504201	0.374060	0.778371	0.508871	-0.856911	0.082175	0.697733	0.354658	-0.622404
17153	11.005744	-0.193668	-7.038873	-0.033472	-2.352298	0.171143	0.521319	0.380854	0.763660	0.507764	-0.857669	0.081108	0.685858	0.345476	-0.640504
17154	11.605879	-0.185630	-7.718119	-0.220654	-2.160232	0.206315	0.537002	0.386436	0.749864	0.505170	-0.859209	0.081017	0.675598	0.335303	-0.656612
17155	10.966634	-0.860154	-8.026374	-0.354293	-1.865906	0.187323	0.550448	0.391012	0.737643	0.501776	-0.861100	0.082016	0.667253	0.324986	-0.670192
17156	9.963480	-1.829180	-8.603625	-0.007627	-1.473878	0.159667	0.560957	0.394382	0.727867	0.500839	-0.861748	0.080934	0.659157	0.319144	-0.680925
17157	8.421771	-0.615903	-9.874861	0.557582	-1.087796	0.150162	0.568808	0.396590	0.720537	0.503646	-0.860555	0.076067	0.650229	0.319628	-0.689231
17158	7.417956	2.758685	-10.597116	0.236091	-0.802802	0.133357	0.574613	0.398002	0.715133	0.504414	-0.860327	0.073509	0.644505	0.318484	-0.695113
17159	8.351362	3.686229	-9.515043	-0.809516	-0.407208	0.153114	0.577984	0.397988	0.712419	0.498313	-0.863473	0.078094	0.646235	0.309870	-0.697396
17160	7.257218	2.059028	-7.807685	-1.453001	0.080637	0.187070	0.578318	0.396125	0.713185	0.487787	-0.868625	0.086916	0.653920	0.297618	-0.695566
17161	6.568853	-0.014228	-6.610472	-1.425993	0.612734	0.193141	0.575187	0.392677	0.717611	0.477279	-0.873552	0.095454	0.664353	0.287597	-0.689872
17162	5.590876	-0.600284	-6.244554	-0.942524	1.126454	0.199198	0.568522	0.387717	0.725575	0.469827	-0.877018	0.100510	0.675312	0.283753	-0.680763
17163	4.957173	0.123876	-6.383188	-0.572839	1.539222	0.237899	0.559127	0.381281	0.736208	0.464589	-0.879554	0.102678	0.686683	0.284624	-0.668921
17164	4.705330	1.148922	-6.732660	-0.586638	1.833240	0.299413	0.547739	0.373409	0.748697	0.458864	-0.882355	0.104370	0.699589	0.286383	-0.654645
17165	4.653771	2.498676	-7.202051	-0.763131	2.091849	0.395436	0.534726	0.363940	0.762638	0.451331	-0.885996	0.106356	0.714401	0.287331	-0.638022
17166	4.619573	3.856464	-7.196224	-1.144585	2.370364	0.497346	0.519737	0.352731	0.778110	0.440428	-0.891055	0.109748	0.732050	0.285661	-0.618466
17167	4.541616	3.883623	-6.869697	-1.574847	2.695454	0.593934	0.502274	0.339811	0.795141	0.425702	-0.897567	0.114677	0.752661	0.280894	-0.595483
17168	4.265405	2.600358	-6.734947	-1.753656	2.999925	0.697054	0.482207	0.325194	0.813465	0.408871	-0.904758	0.119319	0.774791	0.275066	-0.569243
17169	4.254540	1.045455	-6.772080	-1.663830	3.231862	0.796905	0.459979	0.309172	0.832365	0.392040	-0.911818	0.122036	0.796696	0.270187	-0.540625
17170	4.686654	0.420477	-7.196291	-1.259404	3.409280	0.861378	0.435727	0.292108	0.851361	0.378013	-0.917801	0.121437	0.816853	0.268912	-0.510331
17171	5.117023	1.010595	-6.780070	-1.082442	3.491427	0.882967	0.410135	0.274620	0.869697	0.365330	-0.923210	0.119234	0.835658	0.268824	-0.478968
17172	5.453485	0.651694	-6.356624	-1.053892	3.659482	0.899279	0.382387	0.256463	0.887698	0.352852	-0.928431	0.116236	0.853976	0.268779	-0.445513
17173	5.755850	-0.793948	-6.745418	-0.650809	3.865201	0.888527	0.352131	0.237767	0.905246	0.343969	-0.932386	0.111096	0.870453	0.272257	-0.410106
17174	6.038292	-1.069470	-7.159434	-0.057876	3.988951	0.828103	0.319912	0.219012	0.921786	0.340667	-0.934438	0.103787	0.884083	0.280820	-0.373548
17175	6.758038	-0.053730	-8.176496	0.521537	4.079847	0.773928	0.286246	0.200076	0.937034	0.342950	-0.934559	0.094783	0.894678	0.294225	-0.336130
17176	6.941835	1.680072	-6.986099	0.634249	4.072443	0.638073	0.251778	0.181858	0.950545	0.346923	-0.933871	0.086775	0.903467	0.307918	-0.298219
17177	6.241043	2.710681	-6.837572	0.768610	4.094196	0.396453	0.216007	0.165287	0.962300	0.352955	-0.932138	0.080879	0.910365	0.322178	-0.259687
17178	5.937250	3.160677	-6.750041	0.445949	4.024299	0.351588	0.180438	0.148843	0.972259	0.356317	-0.931234	0.076434	0.916777	0.332641	-0.221065
17179	5.617471	0.427102	-6.405613	0.141297	3.861755	0.282374	0.145903	0.133264	0.980282	0.357141	-0.931160	0.073430	0.922585	0.339385	-0.183453
17180	6.075647	-0.706579	-5.743659	0.645641	3.652810	0.157712	0.112682	0.119218	0.986453	0.362884	-0.929138	0.070839	0.924996	0.349986	-0.147959
17181	6.780501	1.964154	-4.719394	0.846144	3.422714	0.036915	0.081127	0.106724	0.990973	0.370659	-0.926172	0.069400	0.925219	0.361683	-0.114696
17182	6.786403	2.076269	-4.564354	0.310409	3.144566	0.024205	0.052070	0.095045	0.994110	0.373497	-0.925071	0.068881	0.926169	0.367710	-0.083667
17183	7.558220	0.239271	-3.969398	0.251789	2.821601	0.075591	0.026193	0.083930	0.996127	0.375780	-0.924212	0.067990	0.926339	0.372544	-0.055747
17184	7.683305	-0.376587	-3.401519	0.604735	2.415414	0.065810	0.004057	0.074251	0.997231	0.381345	-0.921995	0.067097	0.924424	0.380017	-0.032056
17185	7.793993	0.458474	-2.873558	0.925592	1.943560	0.034616	-0.013765	0.066478	0.997693	0.389865	-0.918462	0.066578	0.920769	0.389882	-0.013275
17186	7.574633	1.817257	-2.707718	0.982096	1.459522	0.043756	-0.027030	0.060332	0.997812	0.398874	-0.914620	0.066107	0.916607	0.399788	0.000657
17187	7.401176	2.296277	-2.226759	0.693389	0.964361	0.103205	-0.035464	0.055529	0.997827	0.405229	-0.911891	0.065148	0.913527	0.406659	0.009837
17188	9.942524	1.412471	-0.177692	0.262313	0.462048	0.136739	-0.039153	0.052418	0.997857	0.407653	-0.910902	0.063845	0.912297	0.409279	0.014296
17189	6.073560	-3.580136	-3.069135	1.142710	0.014055	0.064584	-0.039038	0.051800	0.997894	0.418054	-0.906208	0.063395	0.907583	0.419648	0.013721
17190	8.711844	-0.088208	-2.754257	1.880345	-0.696025	-0.040092	-0.032943	0.055160	0.997934	0.435010	-0.898148	0.064004	0.899823	0.436220	0.005593
17191	12.614914	2.380857	-2.941243	1.858770	-1.075706	-0.082150	-0.023696	0.060699	0.997875	0.451618	-0.889851	0.064852	0.891897	0.452195	-0.006327
17192	14.735346	11.525232	-2.282794	2.732204	-1.360159	-0.190674	-0.012554	0.068713	0.997557	0.475763	-0.877064	0.066401	0.879484	0.475434	-0.021681
17193	16.688830	17.225335	1.613476	0.880881	-1.099067	-0.206075	-0.003925	0.075805	0.997115	0.483455	-0.872705	0.068250	0.875361	0.482328	-0.033223
17194	13.758900	2.893486	-0.123404	-0.264291	-0.889050	0.116635	0.004394	0.079097	0.996857	0.481120	-0.874073	0.067234	0.876644	0.479312	-0.041896
17195	10.592713	-3.760145	-3.302648	0.757843	-0.899504	0.249610	0.013445	0.081283	0.996600	0.487707	-0.870627	0.064428	0.872904	0.485183	-0.051348
17196	8.397133	0.570643	-5.072176	1.033330	-1.012699	0.241915	0.023420	0.084172	0.996176	0.496637	-0.865778	0.061478	0.867642	0.493298	-0.062080
17197	9.882415	-1.141805	-6.647789	0.428560	-0.892798	0.229234	0.032272	0.086632	0.995718	0.500268	-0.863862	0.058946	0.865269	0.496223	-0.071217
17198	10.211183	-2.889913	-7.811084	0.574090	-0.739560	0.202253	0.039653	0.088610	0.995277	0.505135	-0.861186	0.056547	0.862129	0.500507	-0.078909
17199	9.556457	-0.114673	-6.766421	0.533256	-0.560175	0.205506	0.045490	0.089683	0.994931	0.509619	-0.858697	0.054102	0.859197	0.504575	-0.084766
17200	9.819582	0.796948	-5.205639	0.348588	-0.420168	0.232556	0.050271	0.089852	0.994686	0.512482	-0.857150	0.051528	0.857225	0.507168	-0.089138
17201	10.220085	2.642700	-3.775210	0.386432	-0.324602	0.223731	0.054173	0.089612	0.994502	0.515656	-0.855394	0.048988	0.855081	0.510167	-0.092548
17202	9.949272	3.340072	-2.641702	0.181563	-0.261583	0.237920	0.057627	0.088957	0.994367	0.517058	-0.854687	0.046496	0.854008	0.511466	-0.095249
17203	9.704983	2.378681	-1.601186	-0.028982	-0.236998	0.246545	0.060897	0.088085	0.994250	0.516647	-0.855062	0.044110	0.854030	0.510990	-0.097580
17204	10.164233	-0.130682	-0.775257	-0.080627	-0.211009	0.250222	0.063981	0.087069	0.994146	0.515785	-0.855700	0.041749	0.854325	0.510095	-0.099657
17205	9.833857	-1.597672	-0.701651	0.353628	-0.158799	0.216230	0.066427	0.086057	0.994073	0.518645	-0.854087	0.039281	0.852405	0.512962	-0.101367
17206	9.941484	-1.751373	-0.713274	0.471469	-0.222613	0.181771	0.069258	0.085698	0.993911	0.522518	-0.851823	0.037036	0.849811	0.516771	-0.103774
17207	9.735450	-0.350535	-0.460131	0.471010	-0.234921	0.182032	0.072178	0.085392	0.993730	0.526369	-0.849545	0.034770	0.847187	0.520559	-0.106266
17208	9.978655	0.050151	-0.499876	0.121797	-0.228540	0.197936	0.075146	0.084944	0.993548	0.527238	-0.849088	0.032716	0.846388	0.521378	-0.108591
17209	9.959648	-0.548035	-0.925915	-0.046648	-0.214403	0.200462	0.077990	0.084382	0.993377	0.526673	-0.849509	0.030813	0.846483	0.520782	-0.110695
17210	9.850371	-0.489612	-1.089083	-0.035771	-0.236010	0.183783	0.080945	0.084091	0.993165	0.526208	-0.849859	0.029070	0.846494	0.520258	-0.113041
17211	9.944148	-0.099932	-1.175445	0.030521	-0.252261	0.149038	0.083837	0.084161	0.992919	0.526327	-0.849834	0.027593	0.846139	0.520287	-0.115543
17212	10.115508	-0.117294	-1.495986	0.155491	-0.244854	0.123708	0.086550	0.084426	0.992664	0.527521	-0.849137	0.026225	0.845122	0.521381	-0.118029
17213	9.828297	-0.068201	-1.749329	0.344945	-0.236392	0.106988	0.089083	0.084778	0.992410	0.530322	-0.847434	0.024789	0.843103	0.524088	-0.120452
17214	9.600423	0.847801	-1.669431	0.421874	-0.242398	0.100612	0.091650	0.085241	0.992136	0.533767	-0.845310	0.023319	0.840650	0.527432	-0.122972
17215	9.527398	1.296139	-1.380768	0.215851	-0.253006	0.114441	0.094359	0.085635	0.991848	0.535458	-0.844277	0.021953	0.839274	0.529021	-0.125519
17216	9.524862	0.638111	-1.068103	-0.023620	-0.262620	0.123036	0.097213	0.086026	0.991539	0.535126	-0.844516	0.020805	0.839160	0.528576	-0.128133
17217	9.605554	0.000940	-0.702239	-0.122450	-0.279340	0.125559	0.100201	0.086464	0.991203	0.533958	-0.845280	0.019757	0.839552	0.527282	-0.130866
17218	9.792489	-0.024707	-0.661711	-0.083867	-0.290355	0.123337	0.103287	0.086992	0.990840	0.533113	-0.845837	0.018689	0.839715	0.526300	-0.133741
17219	9.803829	0.033591	-0.748099	-0.065886	-0.294385	0.116168	0.106350	0.087581	0.990464	0.532423	-0.846294	0.017665	0.839771	0.525467	-0.136634
17220	9.595150	-0.279819	-0.848239	0.036225	-0.292596	0.100468	0.109331	0.088309	0.990075	0.532603	-0.846201	0.016663	0.839274	0.525495	-0.139550
17221	9.263933	-0.048418	-0.621174	0.135493	-0.325406	0.094711	0.112538	0.089244	0.989632	0.533619	-0.845581	0.015572	0.838204	0.526334	-0.142782
17222	9.236063	0.387967	-0.167122	0.127333	-0.369701	0.089326	0.116101	0.090475	0.989108	0.534569	-0.845000	0.014546	0.837112	0.527057	-0.146470
17223	9.871724	-0.235920	0.013417	0.130401	-0.395640	0.075399	0.119786	0.091949	0.988533	0.535556	-0.844390	0.013645	0.835961	0.527780	-0.150390
17224	9.991831	0.120234	0.094037	0.180402	-0.408731	0.071498	0.123571	0.093544	0.987917	0.536961	-0.843512	0.012706	0.834508	0.528902	-0.154463
17225	9.656146	-0.049347	0.062287	0.109343	-0.457909	0.073728	0.127758	0.095369	0.987210	0.537765	-0.843011	0.011845	0.833359	0.529374	-0.158987
17226	9.743520	-0.392153	-0.524106	0.054624	-0.495192	0.070798	0.132248	0.097430	0.986417	0.538114	-0.842799	0.011101	0.832433	0.529336	-0.163887
17227	9.822006	-0.729442	-1.431675	0.060197	-0.489280	0.057873	0.136602	0.099557	0.985611	0.538522	-0.842546	0.010468	0.831465	0.529343	-0.168707
17228	9.606962	-0.607027	-2.108806	0.156613	-0.488572	0.048591	0.140908	0.101771	0.984778	0.539742	-0.841774	0.009763	0.829954	0.530150	-0.173543
17229	9.511388	-0.027001	-2.708477	0.165894	-0.487457	0.038494	0.145130	0.104058	0.983925	0.541048	-0.840942	0.009131	0.828374	0.531026	-0.178346
17230	9.648721	0.621433	-3.033071	0.068187	-0.480221	0.031747	0.149264	0.106376	0.983059	0.541552	-0.840622	0.008736	0.827310	0.531073	-0.183083
17231	9.996617	0.541244	-3.311248	-0.025893	-0.442937	0.027982	0.153051	0.108516	0.982242	0.541282	-0.840798	0.008548	0.826795	0.530362	-0.187422
17232	10.150914	0.420986	-3.411398	-0.047193	-0.413773	0.017684	0.156554	0.110597	0.981458	0.540851	-0.841075	0.008506	0.826421	0.529491	-0.191490
17233	10.027976	0.320923	-3.275878	-0.061807	-0.395602	0.016089	0.159882	0.112578	0.980696	0.540301	-0.841429	0.008506	0.826143	0.528511	-0.195355
17234	9.937405	-0.027035	-2.778876	-0.137290	-0.389683	0.003542	0.163109	0.114643	0.979925	0.539148	-0.842165	0.008785	0.826265	0.526892	-0.199175
17235	9.900783	-0.234852	-1.960617	-0.141136	-0.397954	-0.012881	0.166300	0.116869	0.979125	0.537990	-0.842901	0.009234	0.826384	0.525224	-0.203049
17236	9.747498	-0.163504	-0.796298	-0.136922	-0.412390	-0.018983	0.169596	0.119230	0.978275	0.536877	-0.843604	0.009743	0.826438	0.523561	-0.207084
17237	9.818543	-1.351620	0.241179	-0.148925	-0.454440	-0.058116	0.173012	0.122120	0.977320	0.535733	-0.844320	0.010662	0.826473	0.521738	-0.211501
17238	9.903920	-1.080210	1.381074	0.087046	-0.557255	-0.101402	0.177058	0.125920	0.976112	0.536616	-0.843748	0.011507	0.825041	0.521760	-0.216963
17239	9.925155	-0.135768	2.474094	0.004307	-0.661292	-0.114742	0.181866	0.130359	0.974644	0.536845	-0.843586	0.012656	0.823846	0.520931	-0.223403
17240	9.812634	-0.830476	2.721009	-0.129134	-0.756137	-0.112603	0.187473	0.135273	0.972911	0.535977	-0.844115	0.014086	0.823154	0.518817	-0.230752
17241	9.751691	-0.829102	2.431019	-0.164764	-0.870167	-0.106906	0.194032	0.140703	0.970852	0.534813	-0.844827	0.015552	0.822390	0.516207	-0.239173
17242	9.915175	-0.919890	1.788859	-0.257162	-0.963160	-0.109556	0.201344	0.146611	0.968486	0.532904	-0.845999	0.017280	0.821872	0.512631	-0.248467
17243	10.272870	-0.209965	0.822022	-0.239861	-1.064979	-0.118283	0.209435	0.153077	0.965766	0.531165	-0.847054	0.019072	0.820975	0.508987	-0.258712
17244	10.458420	0.858055	0.196685	-0.370722	-1.134643	-0.098652	0.218200	0.159684	0.962751	0.528322	-0.848783	0.021041	0.820527	0.504051	-0.269569
17245	10.772586	0.650254	-0.268120	-0.543417	-1.201961	-0.106760	0.227475	0.166635	0.959421	0.524089	-0.851336	0.023603	0.820723	0.497453	-0.280989
17246	10.534654	1.216025	-0.580197	-0.505201	-1.288971	-0.151205	0.237233	0.174317	0.955685	0.520284	-0.853581	0.026541	0.820381	0.490932	-0.293192
17247	10.619708	1.372044	-0.789199	-0.449850	-1.341247	-0.176334	0.247289	0.182391	0.951621	0.517013	-0.855465	0.029610	0.819479	0.484678	-0.305845
17248	10.569139	0.827038	-1.112316	-0.355083	-1.395075	-0.212429	0.257581	0.190954	0.947200	0.514632	-0.856784	0.032778	0.817805	0.479017	-0.318963
17249	10.418259	0.623973	-1.165517	-0.274569	-1.471381	-0.245168	0.268310	0.200090	0.942324	0.513025	-0.857617	0.036029	0.815362	0.473769	-0.332758
17250	10.286861	0.476706	-1.063277	-0.197805	-1.548704	-0.276113	0.279462	0.209780	0.936960	0.512163	-0.857987	0.039338	0.812152	0.468882	-0.347216
17251	10.349220	0.551957	-0.598147	-0.175156	-1.618855	-0.291396	0.291061	0.219856	0.931100	0.511566	-0.858181	0.042722	0.808445	0.463884	-0.362254
17252	10.834242	0.445572	0.294551	-0.186689	-1.716791	-0.293545	0.303366	0.230312	0.924622	0.510925	-0.858384	0.046180	0.804316	0.458403	-0.378077
17253	11.358213	1.276253	1.361333	-0.168938	-1.830532	-0.287292	0.316552	0.241142	0.917412	0.510453	-0.858478	0.049520	0.799520	0.452621	-0.394845
17254	11.663621	2.299647	2.025552	-0.216943	-1.955173	-0.246510	0.330832	0.252060	0.909404	0.509515	-0.858847	0.052691	0.794320	0.445924	-0.412562
17255	12.292530	2.132692	2.257310	-0.388588	-2.091876	-0.212496	0.346289	0.263149	0.900465	0.507152	-0.860016	0.056295	0.789228	0.437178	-0.431270
17256	12.958993	2.230875	1.756212	-0.408128	-2.238906	-0.205284	0.362802	0.274612	0.890485	0.504664	-0.861230	0.059980	0.783383	0.427635	-0.451043
17257	12.683649	3.434167	2.119996	-0.553688	-2.422610	-0.203872	0.380655	0.286616	0.879178	0.501097	-0.862993	0.064381	0.777177	0.416046	-0.472125
17258	12.196706	3.209703	3.196164	-0.913432	-2.579429	-0.201035	0.399569	0.298900	0.866605	0.494801	-0.866134	0.070598	0.771697	0.400589	-0.493976
17259	11.840455	1.126023	3.272693	-1.054993	-2.668760	-0.180932	0.419174	0.310957	0.852994	0.487427	-0.869715	0.077524	0.765969	0.383276	-0.516131
17260	11.859903	-0.520209	2.456467	-0.703176	-2.723228	-0.149477	0.439126	0.322507	0.838545	0.482707	-0.871883	0.082547	0.757735	0.368523	-0.538542
17261	11.734303	-0.438527	1.338221	-0.314250	-2.774318	-0.102070	0.459480	0.333484	0.823205	0.480800	-0.872685	0.085165	0.746799	0.356665	-0.561321
17262	11.627245	-0.137537	-0.380684	-0.156482	-2.795006	-0.033954	0.479942	0.343604	0.807212	0.479797	-0.873117	0.086386	0.734473	0.345837	-0.583905
17263	11.578736	-0.553234	-2.784626	-0.206853	-2.749387	0.022580	0.500049	0.352786	0.790881	0.478180	-0.873894	0.087478	0.722008	0.334440	-0.605685
17264	11.018157	-1.221795	-5.415827	-0.103047	-2.661765	0.084398	0.519418	0.360815	0.774608	0.477010	-0.874531	0.087498	0.708990	0.324048	-0.626360
17265	10.146756	-0.986013	-6.818453	0.081835	-2.596289	0.156886	0.538367	0.367770	0.758226	0.476757	-0.874836	0.085817	0.694884	0.315289	-0.646320
17266	10.425464	0.014037	-8.079863	0.096349	-2.477279	0.241397	0.556481	0.373366	0.742244	0.476099	-0.875427	0.083416	0.680925	0.306962	-0.664917
17267	10.895438	-0.044592	-9.096456	-0.183607	-2.191647	0.287963	0.572622	0.377490	0.727740	0.473237	-0.877056	0.082576	0.669440	0.297109	-0.680864
17268	10.270214	-1.642666	-8.655856	-0.264110	-1.840533	0.260422	0.586010	0.380588	0.715364	0.469975	-0.878811	0.082552	0.660088	0.287826	-0.693859
17269	8.751915	-2.574127	-8.462909	0.303319	-1.415683	0.232057	0.596354	0.382631	0.705660	0.470596	-0.878821	0.078824	0.650309	0.285073	-0.704153
17270	7.228653	-0.978678	-9.678241	1.120705	-0.979706	0.252596	0.603794	0.383236	0.698973	0.476309	-0.876555	0.069151	0.639189	0.291175	-0.711797
17271	5.773206	2.791194	-11.226305	0.857584	-0.738800	0.263102	0.609719	0.383127	0.693871	0.480164	-0.875039	0.061231	0.630623	0.295839	-0.717492
17272	7.346418	4.247496	-10.265808	-0.478382	-0.427009	0.286147	0.613709	0.381871	0.691040	0.475403	-0.877530	0.062723	0.630360	0.290029	-0.720090
17273	7.088441	2.900230	-8.509453	-1.476122	0.039407	0.308034	0.614883	0.379076	0.691535	0.464159	-0.882881	0.071255	0.637554	0.277169	-0.718820
17274	6.336596	0.226565	-6.989428	-1.704438	0.628336	0.280936	0.612057	0.374890	0.696307	0.451473	-0.888551	0.081546	0.649275	0.264453	-0.713096
17275	5.614751	-1.697901	-6.491023	-1.219296	1.192406	0.254729	0.605354	0.369534	0.704976	0.441934	-0.892677	0.088440	0.661997	0.258015	-0.703696
17276	5.061922	-1.381402	-6.741757	-0.559877	1.656560	0.266806	0.595388	0.362869	0.716826	0.436593	-0.895097	0.090483	0.674463	0.259089	-0.691356
17277	4.916747	0.357259	-7.045024	-0.381146	2.024977	0.301596	0.582879	0.354909	0.730952	0.432225	-0.897168	0.090948	0.688065	0.262924	-0.676341
17278	5.001592	1.519564	-7.130567	-0.718518	2.315695	0.338754	0.568139	0.345758	0.746773	0.425272	-0.900246	0.093272	0.704529	0.264590	-0.658506
17279	5.046184	2.058313	-7.382657	-1.024059	2.605442	0.390130	0.551154	0.335377	0.764037	0.415780	-0.904277	0.097005	0.723434	0.264207	-0.637839
17280	5.061799	2.433976	-7.251574	-1.302738	2.899226	0.450636	0.531651	0.323665	0.782680	0.403776	-0.909187	0.101707	0.744521	0.261954	-0.614059
17281	4.899702	1.998279	-6.997724	-1.555733	3.179199	0.514449	0.509636	0.310738	0.802317	0.389337	-0.914857	0.107016	0.767260	0.257832	-0.587226
17282	4.874542	1.068235	-6.547243	-1.626184	3.415258	0.595558	0.485237	0.296547	0.822560	0.373702	-0.920820	0.111520	0.790501	0.253279	-0.557636
17283	5.250370	-0.157548	-6.795958	-1.446617	3.637741	0.681247	0.458542	0.281121	0.843036	0.358885	-0.926428	0.113724	0.812982	0.250406	-0.525696
17284	5.450357	-0.207068	-7.165397	-0.988360	3.782642	0.744335	0.429966	0.264716	0.863166	0.347434	-0.930939	0.112435	0.833318	0.251550	-0.492243
17285	5.741371	1.017711	-6.570231	-0.797582	3.834877	0.818120	0.400427	0.247419	0.882294	0.337310	-0.935047	0.109125	0.851986	0.253910	-0.457875
17286	6.034374	1.444138	-6.546183	-0.734631	4.007089	0.924967	0.368937	0.228525	0.900923	0.327417	-0.939124	0.104135	0.869876	0.256558	-0.421300
17287	6.398124	0.246802	-7.604851	-0.531208	4.164424	0.985375	0.335530	0.208512	0.918663	0.319272	-0.942650	0.097346	0.886276	0.260641	-0.382859
17288	6.098805	0.097542	-8.360665	0.084146	4.311139	0.917218	0.299886	0.188421	0.935182	0.317098	-0.944249	0.088564	0.899732	0.269985	-0.342915
17289	5.932720	1.765299	-7.659689	0.522815	4.343115	0.832522	0.263203	0.168586	0.949896	0.319475	-0.944290	0.079069	0.910308	0.282657	-0.302399
17290	6.017935	2.600602	-7.234682	0.385961	4.339267	0.788698	0.225967	0.148648	0.962727	0.321064	-0.944433	0.070464	0.919705	0.293174	-0.261136
17291	6.244100	0.590082	-7.189385	0.127090	4.314645	0.724360	0.188398	0.129027	0.973580	0.320723	-0.945063	0.063184	0.928247	0.300346	-0.219430
17292	6.669300	-2.147750	-6.930586	0.415806	4.219737	0.542849	0.150804	0.111042	0.982307	0.323659	-0.944451	0.057075	0.934079	0.309325	-0.178366
17293	7.663723	-2.216321	-6.391804	1.060410	4.058655	0.303424	0.113824	0.095366	0.988913	0.333157	-0.941412	0.052439	0.935976	0.323494	-0.138927
17294	8.533098	-0.268189	-5.658062	1.326784	3.844432	0.072349	0.078060	0.081951	0.993575	0.345483	-0.937084	0.050149	0.935173	0.339349	-0.101462
17295	8.489833	0.968543	-4.480054	1.000373	3.574019	-0.107065	0.044259	0.070636	0.996520	0.354879	-0.933552	0.050412	0.933864	0.351413	-0.066386
17296	8.478928	-0.479658	-4.230196	0.898947	3.310730	-0.169095	0.012738	0.060412	0.998092	0.363292	-0.930241	0.051668	0.931588	0.361941	-0.033797
17297	8.552826	-0.794274	-3.835250	1.264839	3.000923	-0.179056	-0.015834	0.051038	0.998571	0.375022	-0.925485	0.053250	0.926881	0.375330	-0.004486
17298	8.462315	1.277864	-3.210245	1.663008	2.588651	-0.163448	-0.040389	0.042624	0.998274	0.390310	-0.919037	0.055033	0.919797	0.391859	0.020482
17299	8.212197	4.371577	-2.047085	1.452864	2.063961	-0.093489	-0.059699	0.035275	0.997593	0.403555	-0.913213	0.056441	0.913006	0.405953	0.040282
17300	6.898745	5.032641	-1.574479	0.789674	1.529344	0.075011	-0.073348	0.028338	0.996904	0.410775	-0.910010	0.056091	0.908782	0.413617	0.055107
17301	6.437038	3.395717	-1.276253	0.300999	0.976759	0.253196	-0.081196	0.022008	0.996455	0.413679	-0.908833	0.053781	0.906795	0.416580	0.064689
17302	7.304883	1.534907	-0.371245	-0.201042	0.429127	0.366935	-0.083596	0.016908	0.996356	0.412134	-0.909749	0.050017	0.907280	0.414814	0.069083
17303	4.355825	-2.931608	-2.602870	0.275142	-0.085000	0.370156	-0.081319	0.013924	0.996591	0.414911	-0.908671	0.046551	0.906221	0.417282	0.068115
17304	6.258069	-0.813962	-3.330317	0.999001	-0.642040	0.191721	-0.074729	0.014914	0.997092	0.424071	-0.904494	0.045311	0.902540	0.426225	0.061267
17305	9.212376	1.704426	-2.838475	1.630723	-0.841248	-0.080669	-0.067536	0.019314	0.997530	0.438657	-0.897421	0.047074	0.896113	0.440753	0.052136
17306	11.672870	5.441695	-1.342229	2.390746	-0.601324	-0.400202	-0.063992	0.025620	0.997621	0.459672	-0.886550	0.052253	0.885780	0.461923	0.044955
17307	13.958902	8.751865	1.991920	2.651572	-0.399516	-0.476937	-0.062751	0.031736	0.997525	0.482674	-0.873866	0.058165	0.873549	0.485129	0.039518
17308	16.560948	6.613846	2.537708	1.993921	-0.480364	-0.212048	-0.059641	0.035980	0.997571	0.499846	-0.863960	0.061045	0.864058	0.502273	0.033543
17309	17.311126	2.440090	0.612827	1.827524	-0.670378	-0.036874	-0.054092	0.039741	0.997745	0.515514	-0.854636	0.061989	0.855172	0.517704	0.025742
17310	11.857281	-1.549104	-1.357007	2.179545	-0.907830	0.074510	-0.046014	0.043923	0.997975	0.534050	-0.843196	0.061735	0.844200	0.535809	0.015342
17311	10.339662	4.186183	-3.759669	1.997344	-1.288969	0.272233	-0.033750	0.048676	0.998244	0.550898	-0.832469	0.059218	0.833890	0.551929	0.001280
17312	10.226275	8.250344	-4.762633	0.453725	-1.207419	0.393357	-0.021544	0.052125	0.998408	0.554766	-0.830166	0.055312	0.831728	0.555074	-0.011032
17313	9.131202	3.483188	-6.428970	-0.787981	-0.893978	0.505696	-0.011328	0.052869	0.998537	0.548257	-0.834789	0.050419	0.836233	0.548026	-0.019529
17314	9.372005	1.386227	-7.405312	-0.904857	-0.712067	0.514120	-0.002578	0.052485	0.998618	0.540685	-0.839991	0.045544	0.841221	0.540055	-0.026212
17315	9.498272	0.320461	-7.481037	-1.049039	-0.593474	0.456127	0.004849	0.051842	0.998644	0.531806	-0.845857	0.041328	0.846852	0.530884	-0.031671
17316	9.765636	-0.284331	-6.016446	-0.729646	-0.501187	0.361354	0.011001	0.051478	0.998614	0.525566	-0.849903	0.038022	0.850682	0.524419	-0.036405
17317	9.874743	0.317858	-3.780572	-0.482962	-0.419253	0.272962	0.015974	0.051368	0.998552	0.521396	-0.852576	0.035518	0.853165	0.520073	-0.040402
17318	10.032971	-0.582267	-1.682997	-0.266344	-0.319699	0.229763	0.019894	0.051125	0.998494	0.519062	-0.854084	0.033389	0.854505	0.517616	-0.043528
17319	9.950325	-1.994385	0.143171	0.041488	-0.246349	0.214086	0.023083	0.050596	0.998452	0.519352	-0.853988	0.031269	0.854249	0.517826	-0.045990
17320	10.185817	-2.820611	1.047618	0.302932	-0.226308	0.204380	0.026075	0.050083	0.998405	0.521869	-0.852528	0.029136	0.852627	0.520276	-0.048367
17321	9.891480	-2.561729	1.147336	0.318343	-0.270354	0.201429	0.029404	0.049802	0.998326	0.524506	-0.850979	0.027003	0.850899	0.522834	-0.051144
17322	10.063611	-1.913003	1.002173	0.187555	-0.306296	0.210750	0.033113	0.049664	0.998217	0.526017	-0.850111	0.024846	0.849829	0.524256	-0.054273
17323	9.930827	-1.440296	0.632259	0.189196	-0.295199	0.198044	0.036635	0.049555	0.998099	0.527536	-0.849226	0.022800	0.848742	0.525698	-0.057254
17324	9.791832	-0.620054	0.338507	0.141657	-0.340005	0.189841	0.040518	0.049779	0.997938	0.528647	-0.848586	0.020865	0.847874	0.526711	-0.060699
17325	9.613711	0.114299	0.204942	0.209276	-0.345473	0.156620	0.044247	0.050297	0.997754	0.530335	-0.847570	0.019208	0.846632	0.528294	-0.064177
17326	9.756250	-0.219088	-0.083621	0.281722	-0.368835	0.125629	0.048030	0.051231	0.997531	0.532642	-0.846153	0.017811	0.844976	0.530472	-0.067928
17327	9.894383	-0.120772	-0.090671	0.418804	-0.392994	0.103488	0.051871	0.052472	0.997274	0.536107	-0.843988	0.016522	0.842555	0.533789	-0.071909
17328	9.867950	0.046521	-0.081218	0.402481	-0.429339	0.089952	0.055962	0.054056	0.996969	0.539427	-0.841892	0.015369	0.840171	0.536932	-0.076273
17329	9.832837	0.128319	-0.315201	0.354787	-0.445771	0.095833	0.060192	0.055673	0.996633	0.542331	-0.840045	0.014172	0.838006	0.539652	-0.080758
17330	9.672393	-0.027949	-0.608597	0.228029	-0.449094	0.104104	0.064512	0.057270	0.996272	0.544158	-0.838882	0.012986	0.836499	0.541292	-0.085281
17331	9.483776	-0.363276	-1.045887	0.101536	-0.455997	0.106467	0.068876	0.058870	0.995887	0.544920	-0.838404	0.011874	0.835655	0.541860	-0.089825
17332	9.379293	-0.274099	-1.234822	0.069531	-0.457720	0.101014	0.073244	0.060546	0.995475	0.545412	-0.838098	0.010845	0.834962	0.542149	-0.094408
17333	9.392254	0.157382	-1.266349	0.089319	-0.466615	0.093425	0.077619	0.062318	0.995034	0.546070	-0.837681	0.009866	0.834136	0.542592	-0.099050
17334	9.551966	0.411845	-1.141037	0.084990	-0.473077	0.081174	0.082002	0.064248	0.994559	0.546697	-0.837282	0.009013	0.833305	0.542984	-0.103783
17335	9.875198	0.084415	-1.001497	0.101436	-0.472117	0.075171	0.086317	0.066207	0.994065	0.547463	-0.836790	0.008195	0.832366	0.543506	-0.108475
17336	9.974435	-0.391941	-1.236017	0.248457	-0.443401	0.065565	0.090357	0.068116	0.993577	0.549454	-0.835492	0.007310	0.830623	0.545265	-0.112919
17337	9.618845	-0.689468	-1.356301	0.370516	-0.430868	0.061473	0.094241	0.069981	0.993087	0.552455	-0.833519	0.006310	0.828198	0.548041	-0.117213
17338	9.556530	-0.309465	-1.195753	0.401115	-0.446199	0.059065	0.098253	0.071983	0.992555	0.555699	-0.831367	0.005285	0.825557	0.551042	-0.121685
17339	9.524272	0.384755	-1.098325	0.322146	-0.458270	0.059504	0.102334	0.074043	0.991991	0.558280	-0.829641	0.004333	0.823317	0.553365	-0.126237
17340	9.518634	0.459758	-0.743223	0.184388	-0.479579	0.052300	0.106566	0.076307	0.991373	0.559726	-0.828670	0.003617	0.821797	0.554512	-0.131019
17341	9.595451	0.392274	-0.257061	0.123194	-0.527687	0.052654	0.111165	0.078822	0.990671	0.560666	-0.828037	0.002968	0.820546	0.555105	-0.136242
17342	9.726955	0.103703	-0.001044	0.078915	-0.556010	0.047518	0.115984	0.081556	0.989897	0.561243	-0.827647	0.002429	0.819484	0.555291	-0.141767
17343	10.111499	-0.283355	-0.274577	0.138244	-0.580924	0.038001	0.120926	0.084493	0.989059	0.562316	-0.826921	0.001891	0.818033	0.555935	-0.147507
