// General information: 
//  MT Manager version: 2022.2.0 
//  XDA version: 2022.2.0 build 7381 rev 124627 built on 2023-07-19
// Device information: 
//  DeviceId: 00B4CAF0
//  ProductCode: MTW2-3A7G6
//  Firmware Version: 4.6.0
//  Hardware Version: 2.0.0
// Device settings: 
//  Filter Profile: human(46.1)
//  Option Flags: Orientation Smoother Disabled, Position/Velocity Smoother Disabled, Continuous Zero Rotation Update Disabled, AHS Disabled, ICC Disabled
// Coordinate system: ENU
PacketCounter	Acc_X	Acc_Y	Acc_Z	Gyr_X	Gyr_Y	Gyr_Z	Mat[1][1]	Mat[2][1]	Mat[3][1]	Mat[1][2]	Mat[2][2]	Mat[3][2]	Mat[1][3]	Mat[2][3]	Mat[3][3]
15652	4.771555	-1.343536	9.158061	0.033441	0.085644	0.004661	-0.600598	0.646495	0.470454	-0.775658	-0.613882	-0.146639	0.194002	-0.452982	0.870155
15653	4.756916	-1.410808	9.103329	0.020322	0.070394	0.005103	-0.600778	0.646766	0.469850	-0.775586	-0.614004	-0.146510	0.193732	-0.452430	0.870503
15654	4.773249	-1.306966	9.124562	0.015165	0.057928	0.006734	-0.600923	0.646993	0.469353	-0.775539	-0.614079	-0.146445	0.193471	-0.452004	0.870782
15655	4.721502	-1.372330	9.129705	0.001527	0.042718	0.005642	-0.601053	0.647135	0.468990	-0.775500	-0.614119	-0.146483	0.193222	-0.451746	0.870971
15656	4.750613	-1.323030	9.139372	-0.004646	0.023109	0.006589	-0.601129	0.647204	0.468796	-0.775492	-0.614103	-0.146590	0.193016	-0.451667	0.871058
15657	4.783823	-1.379529	9.049504	-0.006598	0.010281	0.007110	-0.601209	0.647190	0.468713	-0.775460	-0.614117	-0.146705	0.192899	-0.451669	0.871083
15658	4.807884	-1.400476	8.999079	-0.011257	0.005006	0.007899	-0.601260	0.647170	0.468675	-0.775457	-0.614080	-0.146876	0.192750	-0.451748	0.871075
15659	4.861976	-1.389284	8.927020	-0.008054	0.004634	0.006781	-0.601327	0.647133	0.468642	-0.775429	-0.614085	-0.147002	0.192656	-0.451794	0.871071
15660	4.873538	-1.391852	8.886941	-0.008332	0.012695	0.009752	-0.601407	0.647136	0.468534	-0.775409	-0.614073	-0.147156	0.192484	-0.451806	0.871103
15661	4.844628	-1.407530	8.938760	-0.004110	0.019473	0.009325	-0.601522	0.647150	0.468367	-0.775358	-0.614113	-0.147260	0.192331	-0.451732	0.871175
15662	4.825155	-1.441841	8.920902	-0.001271	0.025685	0.009276	-0.601623	0.647215	0.468147	-0.775328	-0.614129	-0.147350	0.192136	-0.451617	0.871279
15663	4.822677	-1.442033	8.922210	0.006603	0.026981	0.008565	-0.601746	0.647268	0.467916	-0.775261	-0.614212	-0.147356	0.192021	-0.451428	0.871401
15664	4.725709	-1.416548	8.996939	0.011274	0.028650	0.008972	-0.601851	0.647348	0.467671	-0.775208	-0.614284	-0.147336	0.191905	-0.451216	0.871537
15665	4.738493	-1.416575	9.017516	0.013299	0.014572	0.004556	-0.601919	0.647369	0.467554	-0.775152	-0.614371	-0.147265	0.191917	-0.451067	0.871611
15666	4.734890	-1.433117	8.988656	0.011746	0.011053	0.001129	-0.601930	0.647418	0.467473	-0.775146	-0.614394	-0.147204	0.191910	-0.450966	0.871665
15667	4.691960	-1.445879	9.020903	0.011588	0.004498	-0.001478	-0.601932	0.647430	0.467453	-0.775130	-0.614434	-0.147120	0.191969	-0.450893	0.871690
15668	4.654800	-1.423321	9.111965	0.014657	-0.009636	-0.002808	-0.601872	0.647410	0.467558	-0.775141	-0.614445	-0.147015	0.192110	-0.450908	0.871651
15669	4.763264	-1.448287	8.997820	0.016683	-0.023715	-0.007219	-0.601775	0.647330	0.467792	-0.775150	-0.614471	-0.146860	0.192378	-0.450986	0.871552
15670	4.792786	-1.465637	9.006026	0.014256	-0.024226	-0.009924	-0.601632	0.647288	0.468035	-0.775205	-0.614434	-0.146725	0.192604	-0.451098	0.871444
15671	4.745604	-1.390412	9.046028	0.015128	-0.027237	-0.010647	-0.601502	0.647214	0.468305	-0.775237	-0.614431	-0.146567	0.192881	-0.451208	0.871326
15672	4.820790	-1.359509	9.021445	0.013611	-0.041568	-0.010483	-0.601321	0.647096	0.468700	-0.775297	-0.614387	-0.146435	0.193205	-0.451436	0.871136
15673	4.918805	-1.382941	8.946395	0.014641	-0.038024	-0.008603	-0.601186	0.646961	0.469060	-0.775317	-0.614396	-0.146291	0.193544	-0.451619	0.870966
15674	4.919603	-1.398752	8.915261	0.017141	-0.032435	-0.005200	-0.601063	0.646852	0.469367	-0.775338	-0.614402	-0.146153	0.193841	-0.451766	0.870823
15675	4.909578	-1.378328	8.924533	0.020290	-0.018396	-0.011110	-0.600946	0.646820	0.469560	-0.775362	-0.614420	-0.145949	0.194105	-0.451787	0.870754
15676	4.886268	-1.373275	9.004798	0.017870	-0.013617	-0.002747	-0.600879	0.646782	0.469700	-0.775367	-0.614446	-0.145815	0.194295	-0.451808	0.870701
15677	4.857646	-1.387284	8.995825	0.008164	-0.010372	-0.002487	-0.600844	0.646733	0.469811	-0.775363	-0.614465	-0.145757	0.194416	-0.451851	0.870651
15678	4.819058	-1.382494	9.056832	0.009896	-0.012790	-0.005129	-0.600760	0.646713	0.469947	-0.775398	-0.614439	-0.145682	0.194539	-0.451916	0.870590
15679	4.778533	-1.378565	9.057810	0.005252	-0.021668	-0.003135	-0.600699	0.646617	0.470157	-0.775403	-0.614440	-0.145645	0.194707	-0.452050	0.870483
15680	4.810609	-1.329288	9.004874	-0.001734	-0.029580	-0.001939	-0.600606	0.646501	0.470434	-0.775441	-0.614383	-0.145687	0.194840	-0.452295	0.870326
15681	4.828690	-1.347488	9.052567	-0.012432	-0.040698	0.000034	-0.600533	0.646300	0.470805	-0.775462	-0.614325	-0.145819	0.194985	-0.452661	0.870103
15682	4.793067	-1.328246	9.081571	-0.018561	-0.048021	-0.000693	-0.600414	0.646092	0.471241	-0.775526	-0.614199	-0.146013	0.195098	-0.453127	0.869835
15683	4.740795	-1.343772	9.091296	-0.034716	-0.056326	0.003504	-0.600337	0.645798	0.471742	-0.775569	-0.614063	-0.146355	0.195164	-0.453731	0.869505
15684	4.719683	-1.361852	9.138869	-0.041176	-0.076780	-0.002448	-0.600148	0.645470	0.472431	-0.775687	-0.613823	-0.146736	0.195275	-0.454522	0.869067
15685	4.757472	-1.350802	9.142568	-0.052361	-0.098709	0.001552	-0.599973	0.644994	0.473302	-0.775776	-0.613593	-0.147222	0.195458	-0.455506	0.868510
15686	4.728081	-1.352528	9.198170	-0.066182	-0.120512	-0.002161	-0.599701	0.644463	0.474369	-0.775942	-0.613240	-0.147822	0.195636	-0.456732	0.867826
15687	4.770598	-1.360982	9.229221	-0.081586	-0.152872	0.003422	-0.599434	0.643725	0.475706	-0.776077	-0.612888	-0.148569	0.195917	-0.458242	0.866966
15688	4.889536	-1.464030	9.166036	-0.095648	-0.177477	0.006214	-0.599114	0.642878	0.477252	-0.776250	-0.612451	-0.149463	0.196207	-0.460012	0.865963
15689	4.834344	-1.519381	9.209772	-0.102054	-0.176999	-0.001960	-0.598758	0.642057	0.478803	-0.776458	-0.611968	-0.150360	0.196473	-0.461800	0.864951
15690	4.773572	-1.503771	9.292910	-0.085556	-0.202287	-0.011359	-0.598252	0.641196	0.480586	-0.776718	-0.611461	-0.151080	0.196988	-0.463663	0.863836
15691	4.720020	-1.574691	9.305591	-0.092914	-0.231044	-0.033916	-0.597538	0.640311	0.482648	-0.777100	-0.610811	-0.151741	0.197645	-0.465737	0.862569
15692	4.647663	-1.554864	9.307907	-0.050419	-0.271844	-0.059781	-0.596515	0.639413	0.485099	-0.777580	-0.610155	-0.151921	0.198845	-0.467826	0.861162
15693	4.671453	-1.450559	9.333391	-0.030047	-0.309666	-0.091574	-0.595191	0.638502	0.487918	-0.778181	-0.609429	-0.151757	0.200454	-0.470013	0.859596
15694	4.529932	-1.658751	9.479284	-0.005914	-0.362429	-0.118422	-0.593518	0.637520	0.491227	-0.778920	-0.608607	-0.151262	0.202531	-0.472403	0.857797
15695	4.529036	-1.815355	9.645339	0.111928	-0.446335	-0.177433	-0.591230	0.636469	0.495333	-0.779739	-0.608007	-0.149450	0.206045	-0.474590	0.855751
15696	4.384506	-1.826025	9.690544	0.258250	-0.544836	-0.254403	-0.588088	0.635429	0.500382	-0.780723	-0.607579	-0.146011	0.211242	-0.476527	0.853404
15697	4.289421	-1.994690	9.794248	0.382642	-0.675475	-0.348521	-0.583921	0.634303	0.506651	-0.781940	-0.607193	-0.141018	0.218187	-0.478514	0.850540
15698	4.408508	-1.996435	10.088702	0.545356	-0.833428	-0.459959	-0.578445	0.633104	0.514375	-0.783423	-0.606855	-0.134074	0.227268	-0.480527	0.847020
15699	5.069916	-2.890631	10.556791	0.455467	-0.968192	-0.557513	-0.571832	0.631798	0.523296	-0.785570	-0.605525	-0.127355	0.236406	-0.483911	0.842581
15700	5.257808	-4.013310	10.353239	0.438812	-1.022023	-0.668500	-0.564087	0.630879	0.532726	-0.788334	-0.603397	-0.120171	0.245632	-0.487753	0.837712
15701	5.145975	-2.606679	9.821566	0.752697	-1.207865	-0.839587	-0.554417	0.630015	0.543786	-0.791133	-0.601783	-0.109390	0.258324	-0.490855	0.832064
15702	5.934294	-2.201501	10.037017	0.372477	-1.332290	-0.908172	-0.543682	0.628886	0.555798	-0.795163	-0.597867	-0.101342	0.268561	-0.497048	0.825117
15703	5.969166	-5.937474	10.917824	-0.042154	-1.340862	-0.945339	-0.532495	0.627775	0.567757	-0.800367	-0.591709	-0.096399	0.275430	-0.505746	0.817533
15704	5.764793	-9.808604	10.489055	0.419042	-1.416031	-1.126743	-0.519452	0.627211	0.580324	-0.805143	-0.586732	-0.086551	0.286209	-0.512203	0.809773
15705	5.869175	-7.344198	10.380594	1.425580	-1.392462	-1.430096	-0.503793	0.628451	0.592656	-0.808259	-0.585038	-0.066695	0.304812	-0.512620	0.802689
15706	3.987021	-4.669080	8.958314	1.622474	-1.123306	-1.472209	-0.488325	0.631316	0.602477	-0.810492	-0.584022	-0.044949	0.323483	-0.510252	0.796870
15707	1.727022	-3.854872	9.628261	1.648851	-0.980751	-1.170293	-0.475565	0.633172	0.610681	-0.810670	-0.584979	-0.024782	0.341544	-0.506847	0.791489
15708	1.381481	-8.905288	8.307252	1.128253	-1.072125	-0.060957	-0.471311	0.628099	0.619158	-0.807053	-0.590274	-0.015541	0.355712	-0.507019	0.785112
15709	6.640345	-9.546827	11.304026	1.028228	-0.939352	1.107349	-0.476781	0.616743	0.626345	-0.798110	-0.602339	-0.014425	0.368376	-0.506770	0.779412
15710	1.683922	-10.764500	10.873871	0.769975	-0.154541	2.206034	-0.493641	0.602489	0.627157	-0.784573	-0.619636	-0.022280	0.375186	-0.503049	0.778574
15711	-0.233216	-10.972939	9.050933	0.922167	0.088987	2.945622	-0.516795	0.584375	0.625643	-0.766243	-0.641673	-0.033586	0.381831	-0.496752	0.779386
15712	-2.309462	-9.324859	8.392490	1.160533	0.163282	3.454161	-0.543479	0.562578	0.623006	-0.743483	-0.667162	-0.046126	0.389696	-0.488263	0.780856
15713	-1.821555	-6.222404	8.674082	1.320840	0.202197	3.798653	-0.571991	0.537725	0.619417	-0.717151	-0.694378	-0.059442	0.398147	-0.478216	0.782808
15714	-0.957669	-3.560954	9.578805	1.143181	0.334815	4.085384	-0.602033	0.510398	0.614044	-0.688612	-0.721167	-0.075703	0.404190	-0.468414	0.785633
15715	-0.009364	-2.059131	10.492807	0.845339	0.561894	4.281527	-0.633132	0.481629	0.605952	-0.658809	-0.746261	-0.095209	0.406343	-0.459486	0.789783
15716	0.986313	-1.512105	10.997946	0.640694	0.839717	4.350448	-0.664514	0.452484	0.594709	-0.628013	-0.769466	-0.116279	0.404994	-0.450754	0.795488
15717	1.883920	-0.832387	11.280462	0.590929	1.165015	4.284811	-0.695425	0.424296	0.579963	-0.596563	-0.790826	-0.136769	0.400619	-0.441097	0.803080
15718	2.875014	1.012245	11.003890	0.749588	1.511615	4.055537	-0.724968	0.398401	0.561869	-0.564813	-0.810741	-0.153899	0.394217	-0.428923	0.812784
15719	2.877753	2.503204	11.700195	0.515576	1.828903	3.650443	-0.752158	0.376298	0.540979	-0.535911	-0.827012	-0.169854	0.383480	-0.417674	0.823706
15720	3.734770	2.495138	11.749201	0.440125	2.001017	3.034735	-0.775574	0.359261	0.519054	-0.511104	-0.839959	-0.182321	0.370483	-0.406694	0.835070
15721	3.983964	3.314344	11.917226	0.379029	2.170820	2.251166	-0.794735	0.349001	0.496583	-0.492109	-0.849411	-0.190605	0.355282	-0.395853	0.846803
15722	4.374480	3.231947	11.926856	0.245557	2.259378	1.387276	-0.809299	0.346021	0.474662	-0.480166	-0.855164	-0.195282	0.338342	-0.385958	0.858231
15723	5.211385	3.188348	11.989401	0.111800	2.340283	0.500794	-0.819389	0.350696	0.453447	-0.475763	-0.857303	-0.196676	0.319768	-0.376888	0.869312
15724	6.080192	3.197058	11.963233	-0.084843	2.460154	-0.332097	-0.825402	0.362727	0.432598	-0.478791	-0.855775	-0.195983	0.299118	-0.368889	0.880028
15725	6.596691	2.676921	11.490350	-0.415452	2.568315	-1.024133	-0.827830	0.380887	0.411853	-0.488480	-0.850423	-0.195369	0.275835	-0.362914	0.890061
15726	6.908282	1.599729	10.750038	-0.755784	2.645127	-1.561780	-0.827026	0.403661	0.391261	-0.503423	-0.841540	-0.195897	0.250186	-0.358982	0.899188
15727	6.761405	-0.005230	9.689368	-1.064468	2.643491	-1.918134	-0.823448	0.429168	0.371146	-0.521787	-0.829724	-0.198232	0.222874	-0.356893	0.907168
15728	6.454152	-1.569799	8.751181	-1.260488	2.525564	-2.085057	-0.817629	0.455343	0.352343	-0.541562	-0.815980	-0.202206	0.195432	-0.356146	0.913765
15729	1.549993	-9.966462	7.012126	-1.416374	1.973629	-1.949316	-0.810514	0.478173	0.338256	-0.560041	-0.801804	-0.208481	0.171525	-0.358414	0.917670
15730	9.136831	-2.839571	2.746849	1.065661	0.153784	-2.805171	-0.794765	0.501082	0.342440	-0.580730	-0.791810	-0.189180	0.176352	-0.349219	0.920297
15731	10.013900	-2.556761	6.185828	-0.249396	0.949590	-1.890467	-0.785267	0.519273	0.337211	-0.596115	-0.781273	-0.185095	0.167338	-0.346366	0.923054
15732	12.860232	-0.156779	7.928489	0.399704	0.409131	-1.705086	-0.775662	0.533947	0.336524	-0.608781	-0.773638	-0.175699	0.166534	-0.341152	0.925139
15733	9.505544	-1.094187	7.276356	-0.308695	0.633360	-1.004954	-0.770528	0.543863	0.332414	-0.617074	-0.767145	-0.175238	0.159704	-0.340150	0.926711
15734	9.367406	-2.273914	5.856221	-0.341925	0.357047	-0.479760	-0.768103	0.548761	0.329968	-0.621328	-0.763330	-0.176860	0.154820	-0.340865	0.927277
15735	8.457082	-3.369636	5.642187	-0.299961	0.126313	0.012940	-0.768367	0.549111	0.328769	-0.621710	-0.762348	-0.179727	0.151947	-0.342495	0.927151
15736	8.145193	-2.997332	5.718601	-0.053587	-0.067371	0.424019	-0.770879	0.545653	0.328646	-0.618553	-0.764456	-0.181659	0.152113	-0.343322	0.926818
15737	7.761884	-2.240534	6.133563	0.116649	-0.227906	0.800667	-0.775442	0.538751	0.329297	-0.612211	-0.769165	-0.183256	0.154554	-0.343704	0.926272
15738	7.521283	-1.761905	6.347579	0.266215	-0.395339	1.112101	-0.781565	0.528811	0.330931	-0.603160	-0.775987	-0.184504	0.159231	-0.343806	0.925442
15739	7.330235	-1.337168	6.499100	0.435418	-0.499587	1.327200	-0.788669	0.516762	0.333104	-0.592063	-0.784388	-0.184927	0.165720	-0.343065	0.924578
15740	7.165787	-0.767889	6.570609	0.636452	-0.626933	1.453626	-0.796103	0.503156	0.336235	-0.579487	-0.793950	-0.183951	0.174398	-0.341288	0.923638
15741	6.974366	0.154537	6.535160	0.782033	-0.720057	1.500081	-0.803387	0.488743	0.340146	-0.566118	-0.804016	-0.181849	0.184605	-0.338657	0.922622
15742	7.276810	1.095993	6.836497	0.821444	-0.823767	1.476968	-0.810068	0.474028	0.345091	-0.552667	-0.813869	-0.179376	0.195830	-0.336028	0.921269
15743	7.772646	1.900767	6.708940	0.826902	-0.889081	1.383433	-0.815818	0.459745	0.350822	-0.539782	-0.823068	-0.176620	0.207550	-0.333457	0.919635
15744	8.071707	2.331426	6.497336	0.772356	-0.929810	1.231931	-0.820396	0.446477	0.357223	-0.528083	-0.831190	-0.173926	0.219266	-0.331332	0.917683
15745	8.017502	2.454704	5.758337	0.752146	-0.964642	1.006241	-0.823477	0.434901	0.364344	-0.518142	-0.838087	-0.170701	0.231114	-0.329350	0.915486
15746	7.865607	2.452548	5.285791	0.690900	-1.051379	0.749584	-0.824823	0.425154	0.372707	-0.510355	-0.843556	-0.167187	0.243319	-0.328113	0.912764
15747	7.868753	2.174208	4.868897	0.632609	-1.162219	0.483539	-0.824368	0.417255	0.382513	-0.504805	-0.847650	-0.163284	0.256106	-0.327701	0.909407
15748	7.898123	1.642139	4.417403	0.635295	-1.250100	0.202585	-0.822086	0.411452	0.393550	-0.501498	-0.850545	-0.158344	0.269581	-0.327537	0.905564
15749	5.368049	-1.204944	8.939386	0.688891	-1.066514	-0.012143	-0.819079	0.408063	0.403230	-0.499709	-0.852735	-0.152100	0.281782	-0.326080	0.902370
15750	9.684578	-8.344875	14.120093	0.785306	-0.857991	-0.166670	-0.815767	0.406715	0.411227	-0.498848	-0.854578	-0.144382	0.292703	-0.322922	0.900026
15751	11.879926	4.548823	15.668059	3.562402	-0.277569	-1.531327	-0.807264	0.418982	0.415668	-0.500508	-0.859223	-0.105958	0.312756	-0.293582	0.903323
15752	7.264850	14.773445	11.743781	0.301584	0.476973	-0.041059	-0.808529	0.420738	0.411413	-0.499934	-0.859905	-0.103099	0.310398	-0.289038	0.905599
15753	2.057307	-1.424403	9.267670	-1.179911	-0.171605	0.326326	-0.809634	0.417406	0.412632	-0.500921	-0.857800	-0.115143	0.305894	-0.299919	0.903591
15754	4.116857	-7.901238	10.613455	-0.344125	-0.615815	0.293924	-0.809195	0.413034	0.417859	-0.499633	-0.857954	-0.119506	0.309144	-0.305480	0.900618
15755	3.157631	-3.306515	7.962256	0.720202	-0.498326	-0.257271	-0.806348	0.413714	0.422663	-0.499457	-0.859072	-0.111970	0.316775	-0.301389	0.899343
15756	5.150532	2.890083	11.418480	0.485271	-0.796090	-0.247828	-0.802537	0.413461	0.430099	-0.499926	-0.859484	-0.106594	0.325590	-0.300563	0.896467
15757	6.189689	-0.030088	9.933135	-0.286301	-0.623390	-0.007485	-0.800456	0.411618	0.435707	-0.500921	-0.858583	-0.109150	0.329162	-0.305624	0.893446
15758	6.934778	0.931677	11.132647	0.167083	-0.509661	-0.014551	-0.798677	0.410197	0.440287	-0.500518	-0.859010	-0.107632	0.334061	-0.306335	0.891382
15759	4.360506	0.380954	8.110889	-0.267115	-0.243188	0.132556	-0.798526	0.408288	0.442331	-0.500347	-0.858729	-0.110621	0.334677	-0.309652	0.890004
15760	4.907145	-2.111632	9.694473	-0.474536	-0.304233	0.156655	-0.798276	0.406007	0.444875	-0.500719	-0.857860	-0.115571	0.334718	-0.315015	0.888105
15761	4.531601	-0.629853	9.212091	0.038381	-0.299413	0.090468	-0.797722	0.404264	0.447449	-0.499862	-0.858348	-0.115658	0.337311	-0.315926	0.886799
15762	4.834282	-1.406875	8.981780	-0.353196	-0.287440	0.132729	-0.797399	0.402224	0.449856	-0.500030	-0.857735	-0.119420	0.337824	-0.320167	0.885081
15763	4.795771	-1.375651	9.266337	-0.118874	-0.256520	0.086143	-0.796959	0.400640	0.452044	-0.499740	-0.857699	-0.120883	0.339287	-0.322243	0.883767
15764	5.061320	-1.396152	9.185685	-0.205858	-0.267251	0.099678	-0.796533	0.398933	0.454299	-0.499680	-0.857406	-0.123189	0.340374	-0.325128	0.882291
15765	5.031851	-1.411924	9.023643	-0.132191	-0.165243	0.081210	-0.796374	0.397676	0.455677	-0.499478	-0.857298	-0.124747	0.341042	-0.326947	0.881360
15766	4.972981	-1.629400	8.926666	-0.154975	-0.143199	0.068134	-0.796210	0.396636	0.456870	-0.499499	-0.857035	-0.126460	0.341395	-0.328895	0.880499
15767	4.731491	-1.173248	9.256647	-0.061212	-0.094375	0.059023	-0.796180	0.395798	0.457648	-0.499234	-0.857066	-0.127292	0.341853	-0.329821	0.879974
15768	4.787510	-1.467365	9.185654	-0.121141	-0.118874	0.058981	-0.796051	0.394912	0.458635	-0.499214	-0.856873	-0.128664	0.342181	-0.331380	0.879261
15769	4.738156	-1.227099	9.250891	-0.068957	-0.121271	0.052379	-0.795895	0.394040	0.459656	-0.499029	-0.856850	-0.129534	0.342814	-0.332477	0.878600
15770	4.810665	-1.412581	9.177144	-0.108469	-0.131421	0.056653	-0.795711	0.393130	0.460753	-0.498985	-0.856686	-0.130783	0.343306	-0.333974	0.877840
15771	4.820524	-1.678281	9.144478	-0.104407	-0.125631	0.037795	-0.795465	0.392365	0.461828	-0.499039	-0.856483	-0.131897	0.343797	-0.335390	0.877108
15772	4.769923	-1.359277	9.125845	-0.056214	-0.101380	0.036827	-0.795284	0.391722	0.462685	-0.498974	-0.856413	-0.132596	0.344309	-0.336319	0.876550
15773	4.789886	-1.523735	9.126216	-0.097182	-0.112432	0.031722	-0.795052	0.391051	0.463651	-0.499053	-0.856208	-0.133618	0.344730	-0.337619	0.875885
15774	4.784428	-1.487433	9.042068	-0.076694	-0.095152	0.023154	-0.794823	0.390544	0.464470	-0.499168	-0.856013	-0.134433	0.345091	-0.338699	0.875326
15775	4.753060	-1.522662	9.096879	-0.080776	-0.094016	0.021385	-0.794602	0.390022	0.465286	-0.499274	-0.855821	-0.135262	0.345446	-0.339785	0.874765
15776	4.779222	-1.455850	9.116399	-0.077307	-0.099350	0.014699	-0.794316	0.389571	0.466152	-0.499460	-0.855589	-0.136042	0.345836	-0.340885	0.874182
15777	4.825579	-1.402847	9.023813	-0.069480	-0.107923	0.014367	-0.794010	0.389059	0.467098	-0.499584	-0.855405	-0.136740	0.346358	-0.341927	0.873568
15778	4.813265	-1.427866	9.064781	-0.055649	-0.092079	0.009591	-0.793723	0.388675	0.467906	-0.499735	-0.855226	-0.137306	0.346798	-0.342812	0.873047
15779	4.804005	-1.397699	9.014618	-0.051158	-0.097541	0.005808	-0.793410	0.388271	0.468771	-0.499864	-0.855071	-0.137803	0.347328	-0.343657	0.872504
15780	4.867169	-1.377597	8.967540	-0.052614	-0.093147	0.008410	-0.793112	0.387891	0.469589	-0.500016	-0.854896	-0.138337	0.347790	-0.344519	0.871980
15781	4.867570	-1.436622	8.962613	-0.051141	-0.089283	0.005014	-0.792822	0.387521	0.470383	-0.500152	-0.854737	-0.138830	0.348254	-0.345330	0.871474
15782	4.890596	-1.399311	8.918096	-0.042526	-0.074611	0.003571	-0.792564	0.387245	0.471045	-0.500307	-0.854577	-0.139252	0.348619	-0.346033	0.871049
15783	4.912551	-1.471969	8.893396	-0.047494	-0.065508	0.002982	-0.792347	0.386974	0.471634	-0.500447	-0.854421	-0.139703	0.348912	-0.346721	0.870658
15784	4.889377	-1.438685	8.917445	-0.038908	-0.059127	0.002309	-0.792136	0.386761	0.472162	-0.500599	-0.854269	-0.140088	0.349173	-0.347333	0.870309
15785	4.873833	-1.483398	8.862850	-0.034059	-0.050056	0.001586	-0.791965	0.386555	0.472618	-0.500704	-0.854154	-0.140415	0.349410	-0.347845	0.870009
15786	4.857316	-1.505151	8.906711	-0.028328	-0.048931	-0.000297	-0.791776	0.386400	0.473061	-0.500841	-0.854028	-0.140695	0.349642	-0.348327	0.869723
15787	4.918191	-1.449044	8.927555	-0.022340	-0.042179	-0.008240	-0.791583	0.386304	0.473461	-0.500983	-0.853915	-0.140874	0.349876	-0.348709	0.869476
15788	4.895703	-1.447029	8.978952	-0.024872	-0.036534	-0.003460	-0.791421	0.386219	0.473801	-0.501132	-0.853789	-0.141109	0.350027	-0.349113	0.869253
15789	4.847177	-1.463977	8.986033	-0.031606	-0.033918	-0.007397	-0.791261	0.386145	0.474129	-0.501300	-0.853646	-0.141372	0.350148	-0.349543	0.869032
15790	4.873881	-1.480870	8.962887	-0.033730	-0.037240	-0.010302	-0.791063	0.386115	0.474484	-0.501535	-0.853462	-0.141651	0.350260	-0.350025	0.868792
15791	4.825816	-1.498683	8.969606	-0.049578	-0.040953	-0.015019	-0.790840	0.386081	0.474883	-0.501827	-0.853227	-0.142033	0.350347	-0.350635	0.868512
15792	4.736194	-1.357115	9.188325	-0.064378	-0.049514	-0.018987	-0.790555	0.386082	0.475357	-0.502237	-0.852901	-0.142537	0.350402	-0.351426	0.868170
15793	4.786953	-1.426105	9.076388	-0.123313	-0.084769	-0.025188	-0.790126	0.385980	0.476151	-0.502868	-0.852367	-0.143511	0.350463	-0.352833	0.867574
15794	4.769881	-1.389774	9.065229	-0.158137	-0.103154	-0.029800	-0.789599	0.385881	0.477105	-0.503692	-0.851665	-0.144775	0.350468	-0.354629	0.866839
15795	4.746754	-1.388357	9.151116	-0.186896	-0.118917	-0.034625	-0.789003	0.385735	0.478208	-0.504620	-0.850864	-0.146252	0.350476	-0.356707	0.865983
15796	4.761804	-1.415486	9.011026	-0.195731	-0.150776	-0.013714	-0.788389	0.385324	0.479550	-0.505449	-0.850084	-0.147915	0.350663	-0.359003	0.864958
15797	4.784678	-1.422097	9.059058	-0.173925	-0.177762	-0.006392	-0.787728	0.384720	0.481119	-0.506110	-0.849429	-0.149410	0.351195	-0.361193	0.863830
15798	4.999669	-1.652291	8.789955	-0.203801	-0.182996	-0.004705	-0.787045	0.384109	0.482722	-0.506898	-0.848645	-0.151182	0.351590	-0.363678	0.862626
15799	4.861233	-1.561092	8.985843	-0.182918	-0.172923	-0.006071	-0.786401	0.383512	0.484244	-0.507589	-0.847951	-0.152752	0.352033	-0.365921	0.861495
15800	4.959345	-1.654006	8.862693	-0.194020	-0.180673	-0.012968	-0.785682	0.382971	0.485837	-0.508409	-0.847162	-0.154393	0.352454	-0.368308	0.860305
15801	4.934490	-1.665454	8.886061	-0.199592	-0.179924	-0.014251	-0.784970	0.382408	0.487428	-0.509225	-0.846365	-0.156062	0.352862	-0.370715	0.859103
15802	5.025047	-1.680951	8.842786	-0.191913	-0.171374	-0.020993	-0.784242	0.381961	0.488949	-0.510102	-0.845544	-0.157642	0.353215	-0.373043	0.857950
15803	4.896970	-1.525561	9.009357	-0.197103	-0.160773	-0.021223	-0.783560	0.381521	0.490383	-0.510966	-0.844721	-0.159250	0.353480	-0.375351	0.856834
15804	4.918771	-1.566070	8.989683	-0.224058	-0.201521	-0.023125	-0.782712	0.380969	0.492163	-0.511974	-0.843761	-0.161089	0.353898	-0.378061	0.855469
15805	4.986341	-1.536884	8.940787	-0.238996	-0.220245	-0.013499	-0.781858	0.380229	0.494089	-0.512927	-0.842798	-0.163087	0.354407	-0.380942	0.853978
15806	4.841102	-1.505295	9.044680	-0.267539	-0.242101	-0.010940	-0.780927	0.379407	0.496189	-0.513996	-0.841705	-0.165349	0.354911	-0.384165	0.852324
15807	4.814535	-1.481236	9.079014	-0.312982	-0.292244	-0.004168	-0.779862	0.378296	0.498706	-0.515141	-0.840477	-0.168014	0.355592	-0.387932	0.850331
15808	4.706017	-1.442481	9.222948	-0.373381	-0.366920	0.004845	-0.778564	0.376835	0.501831	-0.516468	-0.839010	-0.171242	0.356510	-0.392502	0.847846
15809	4.743819	-1.479864	9.197631	-0.425478	-0.457878	0.020166	-0.777027	0.374839	0.505692	-0.517831	-0.837400	-0.174966	0.357883	-0.397816	0.844785
15810	4.541896	-1.362892	9.381452	-0.475860	-0.531647	0.030268	-0.775260	0.372466	0.510138	-0.519338	-0.835577	-0.179164	0.359527	-0.403833	0.841225
15811	4.321724	-1.378201	9.736689	-0.552743	-0.688428	0.052036	-0.773042	0.369208	0.515840	-0.520929	-0.833513	-0.184088	0.361992	-0.411024	0.836672
15812	4.021239	-1.379949	9.816720	-0.639505	-0.866208	0.074032	-0.770262	0.365006	0.522941	-0.522719	-0.831100	-0.189838	0.365325	-0.419576	0.830960
15813	3.856228	-1.452407	9.909583	-0.712221	-1.069371	0.083010	-0.766761	0.359759	0.531650	-0.524698	-0.828374	-0.196187	0.369825	-0.429384	0.823929
15814	3.579913	-1.476768	9.999582	-0.702528	-1.241736	0.060551	-0.762434	0.353873	0.541727	-0.526889	-0.825507	-0.202303	0.375610	-0.439673	0.815846
15815	3.286960	-1.478420	10.548902	-0.691945	-1.363797	0.020751	-0.757370	0.347615	0.552770	-0.529352	-0.822498	-0.208048	0.382331	-0.450179	0.806946
15816	2.384307	-1.283262	10.789668	-0.935985	-1.734370	-0.059309	-0.750336	0.340185	0.566807	-0.533452	-0.817985	-0.215244	0.390416	-0.463870	0.795236
15817	2.422987	-1.778539	10.286065	-1.193436	-2.302012	-0.182539	-0.740241	0.330774	0.585348	-0.539534	-0.811730	-0.223604	0.401182	-0.481336	0.779339
15818	2.894230	-2.440317	10.055995	-1.124679	-2.804280	-0.339815	-0.726923	0.319775	0.607722	-0.546657	-0.805075	-0.230261	0.415630	-0.499598	0.760035
15819	2.351882	-3.010545	10.070408	-0.850140	-3.257819	-0.577855	-0.709890	0.307838	0.633476	-0.554421	-0.798939	-0.233053	0.434366	-0.516655	0.737831
15820	2.043935	-3.284823	10.393180	-0.606290	-4.024682	-0.730967	-0.687807	0.292530	0.664340	-0.562277	-0.793527	-0.232724	0.459093	-0.533612	0.710276
15821	3.720076	-4.277053	10.061146	-0.543482	-4.732753	-0.949523	-0.660004	0.274349	0.699376	-0.571252	-0.787882	-0.230026	0.487919	-0.551338	0.676728
15822	5.398094	-4.759543	9.232908	-0.048624	-5.222681	-1.107864	-0.627254	0.253896	0.736267	-0.578670	-0.784649	-0.222410	0.521242	-0.565563	0.639096
15823	7.874000	-3.131273	9.163539	0.294341	-5.568564	-1.148874	-0.590539	0.231088	0.773215	-0.584088	-0.783538	-0.211921	0.556871	-0.576773	0.597685
15824	10.778345	-2.014307	10.190827	0.053599	-5.780614	-1.043693	-0.551227	0.205560	0.808637	-0.589782	-0.781536	-0.203368	0.590174	-0.589022	0.552040
15825	15.188755	-4.022044	11.730841	-0.590119	-5.811542	-0.789645	-0.511424	0.177016	0.840899	-0.597552	-0.776496	-0.199965	0.617557	-0.604748	0.502895
15826	19.572712	-7.114804	12.958283	-0.487615	-5.076261	-0.738451	-0.475046	0.151728	0.866781	-0.604304	-0.772267	-0.196010	0.639647	-0.616913	0.458553
15827	15.842364	-7.067006	11.234295	0.425239	-4.137607	-0.820505	-0.443155	0.132493	0.886600	-0.605317	-0.773723	-0.186935	0.661215	-0.619514	0.423080
15828	12.890963	-5.299514	10.020763	0.724607	-3.889721	-0.904369	-0.411530	0.115427	0.904057	-0.604358	-0.777054	-0.175894	0.682198	-0.618760	0.389540
15829	8.906945	-5.049618	9.664612	1.059730	-3.643993	-0.949595	-0.380555	0.100373	0.919295	-0.600796	-0.782553	-0.163265	0.703010	-0.614440	0.358108
15830	5.469056	-3.942750	9.116532	1.244726	-3.607786	-0.948485	-0.349119	0.085779	0.933144	-0.595422	-0.789246	-0.150215	0.723595	-0.608057	0.326616
15831	2.369770	-3.241597	8.569816	1.364232	-3.692581	-0.987064	-0.316168	0.071315	0.946019	-0.588716	-0.796698	-0.136695	0.743943	-0.600155	0.293875
15832	2.491201	-3.581526	9.398101	1.322406	-3.990433	-1.048836	-0.279921	0.055925	0.958393	-0.581918	-0.803883	-0.123054	0.763554	-0.592152	0.257567
15833	-0.402301	-5.430304	10.026340	1.571344	-2.875192	-0.928151	-0.252365	0.046585	0.966510	-0.572285	-0.812608	-0.110262	0.780257	-0.580945	0.231734
15834	2.250956	-3.124155	18.749095	1.657790	-2.734159	-1.285063	-0.223497	0.041377	0.973826	-0.562321	-0.821542	-0.094148	0.796143	-0.568645	0.206879
15835	25.101195	-8.688752	15.367734	0.815438	-0.558142	-0.962602	-0.213652	0.046182	0.975818	-0.557943	-0.825710	-0.083082	0.801905	-0.562201	0.202181
15836	3.141615	2.005195	24.236488	2.284357	3.625676	-0.906996	-0.237798	0.073739	0.968512	-0.541666	-0.837739	-0.069212	0.806257	-0.541069	0.239155
15837	2.513525	-5.319736	12.614258	-0.229731	3.402830	-0.316910	-0.263367	0.094829	0.960024	-0.544339	-0.836207	-0.066732	0.796450	-0.540153	0.271848
15838	-4.755391	-5.625961	8.792683	0.900499	4.237280	-0.587943	-0.293764	0.122402	0.948009	-0.538882	-0.840348	-0.058484	0.789499	-0.528046	0.312824
15839	-5.945686	-2.918040	6.959560	0.273354	3.950657	-0.654170	-0.321246	0.148660	0.935255	-0.538801	-0.840863	-0.051414	0.778778	-0.520432	0.350222
15840	-4.049538	-3.912382	5.865794	-0.247978	3.766833	-0.637932	-0.346848	0.173558	0.921723	-0.542893	-0.838519	-0.046401	0.764829	-0.516491	0.385062
15841	-2.859369	-3.292402	5.849877	-0.461366	3.717833	-0.596271	-0.371763	0.197745	0.907022	-0.548586	-0.834998	-0.042808	0.748896	-0.513494	0.418902
15842	-2.277344	-3.214151	4.888588	-0.817171	3.722003	-0.446524	-0.396799	0.220569	0.891010	-0.556392	-0.829840	-0.042355	0.730054	-0.512558	0.452003
15843	-2.545313	-4.072446	5.078264	-1.282818	3.478461	-0.234063	-0.420537	0.240431	0.874838	-0.566641	-0.822664	-0.046294	0.708567	-0.515187	0.482198
15844	0.305726	-5.908816	6.776056	-1.538243	3.052673	0.001772	-0.441821	0.256231	0.859732	-0.577410	-0.814671	-0.053932	0.686580	-0.520246	0.507889
15845	4.028515	-7.267714	8.598561	-1.548091	2.978388	0.345770	-0.463975	0.269050	0.844002	-0.586369	-0.807436	-0.064953	0.664002	-0.525033	0.532393
15846	6.183775	-8.916757	9.315482	-1.284489	3.100177	0.753370	-0.488629	0.279301	0.826579	-0.591211	-0.802712	-0.078256	0.641647	-0.526921	0.557354
15847	7.292699	-9.178766	9.485538	-0.816019	3.330351	1.147943	-0.516450	0.287658	0.806556	-0.590671	-0.801614	-0.092320	0.619990	-0.524088	0.583904
15848	7.492774	-8.558035	9.291906	-0.393955	3.478634	1.514768	-0.546541	0.293618	0.784271	-0.585064	-0.803932	-0.106739	0.599161	-0.517186	0.611167
15849	7.450659	-7.563740	8.891205	-0.052288	3.496393	1.792452	-0.577564	0.297149	0.760344	-0.575390	-0.808886	-0.120952	0.579091	-0.507352	0.638159
15850	7.820320	-5.628536	8.807872	0.192713	3.422658	1.977674	-0.608291	0.298258	0.735544	-0.562607	-0.815709	-0.134509	0.559871	-0.495643	0.663990
15851	8.068292	-4.708930	9.319349	0.175279	3.348752	2.087360	-0.638323	0.297650	0.709893	-0.548733	-0.822710	-0.148458	0.539848	-0.484306	0.688485
15852	8.875703	-4.144319	10.049525	0.241195	3.322567	2.082008	-0.667175	0.296350	0.683414	-0.533905	-0.830018	-0.161297	0.519445	-0.472491	0.711989
15853	9.374690	-3.516004	10.559375	0.262938	3.396770	2.004416	-0.695016	0.295576	0.655429	-0.519019	-0.837101	-0.172863	0.497566	-0.460323	0.735208
15854	9.407719	-2.563551	10.822913	0.302381	3.510122	1.858632	-0.721568	0.295896	0.625928	-0.504423	-0.843941	-0.182540	0.474233	-0.447447	0.758217
15855	9.287789	-1.284617	10.888506	0.245121	3.595798	1.649571	-0.746389	0.297884	0.595121	-0.491286	-0.849848	-0.190777	0.448933	-0.434768	0.780664
15856	9.506350	-0.205948	10.783586	0.097228	3.662271	1.376858	-0.769006	0.301870	0.563475	-0.480468	-0.854366	-0.198013	0.421640	-0.423005	0.802052
15857	9.859641	0.535612	10.796950	-0.158808	3.716095	1.056156	-0.789162	0.308465	0.531105	-0.472981	-0.856860	-0.205135	0.391806	-0.413087	0.822099
15858	10.257543	0.620902	10.863188	-0.402691	3.768961	0.688595	-0.806556	0.317988	0.498348	-0.469037	-0.857342	-0.212060	0.359822	-0.404782	0.840642
15859	10.637787	0.619696	10.945354	-0.588272	3.813446	0.294784	-0.821015	0.330851	0.465266	-0.468740	-0.855879	-0.218527	0.325911	-0.397503	0.857773
15860	10.817832	0.930410	10.607076	-0.773315	3.843887	-0.099379	-0.832381	0.346871	0.432230	-0.471978	-0.852465	-0.224811	0.290480	-0.391131	0.873291
15861	10.952190	1.479740	10.414695	-0.979335	3.827179	-0.458108	-0.840613	0.365715	0.399528	-0.478547	-0.846974	-0.231577	0.253699	-0.385860	0.886989
15862	11.439758	2.079524	10.072980	-1.274210	3.764875	-0.717085	-0.845973	0.386240	0.367625	-0.487616	-0.839354	-0.240241	0.215777	-0.382497	0.898407
15863	12.044288	1.774476	9.033589	-1.556761	3.673696	-0.848777	-0.848995	0.407418	0.336480	-0.497922	-0.829994	-0.251363	0.176867	-0.380946	0.907523
15864	10.010791	-0.880121	8.562789	-1.705776	3.542595	-0.861096	-0.850231	0.428019	0.306442	-0.507952	-0.819875	-0.264177	0.138172	-0.380269	0.914497
15865	5.038176	-7.250986	0.878090	0.106329	1.545050	-1.386515	-0.845133	0.445221	0.295852	-0.519608	-0.814178	-0.259078	0.125529	-0.372683	0.919429
15866	22.457801	6.185591	0.547763	0.176939	0.791866	-1.817329	-0.836511	0.462891	0.293225	-0.534696	-0.806552	-0.252138	0.119789	-0.367702	0.922196
15867	16.077291	-4.333268	3.533039	-0.174610	1.158650	-0.457590	-0.835365	0.470865	0.283639	-0.538763	-0.803732	-0.252485	0.109083	-0.363731	0.925095
15868	20.160120	0.203879	0.726594	1.242999	0.657523	-0.917421	-0.831102	0.480599	0.279811	-0.545067	-0.803779	-0.238413	0.110325	-0.350662	0.929981
15869	16.001081	-0.312088	0.607773	0.855741	0.462779	-0.096140	-0.831069	0.483026	0.275700	-0.544966	-0.806230	-0.230230	0.111070	-0.341584	0.933265
15870	15.630769	-0.831484	-2.103606	1.091533	-0.139149	0.274718	-0.832389	0.480346	0.276399	-0.541453	-0.811210	-0.220833	0.118142	-0.333476	0.935327
15871	15.588474	0.121622	-0.546513	0.998886	-0.756313	0.762457	-0.835527	0.471679	0.281804	-0.533907	-0.818099	-0.213673	0.129759	-0.328987	0.935377
15872	15.112636	-0.521978	0.475083	1.011599	-1.158575	1.223814	-0.840387	0.457829	0.290075	-0.522288	-0.827074	-0.207759	0.144795	-0.326100	0.934180
15873	14.412721	0.317799	2.013372	1.097274	-1.488487	1.573636	-0.846174	0.439940	0.300737	-0.507383	-0.837656	-0.202223	0.162948	-0.323705	0.932021
15874	12.873996	0.847085	2.528146	1.231337	-1.720954	1.749245	-0.851905	0.419653	0.313287	-0.490423	-0.849117	-0.196176	0.183692	-0.320767	0.929175
15875	11.042580	2.067993	3.039936	1.388743	-1.895972	1.703561	-0.856392	0.399087	0.327602	-0.473216	-0.860476	-0.188807	0.206543	-0.316719	0.925759
15876	8.813008	3.834534	3.176445	1.377507	-1.984822	1.573100	-0.859361	0.379235	0.343043	-0.456742	-0.870908	-0.181398	0.229966	-0.312569	0.921638
15877	6.385004	3.149637	1.908465	1.184685	-2.402483	1.396150	-0.859779	0.359552	0.362633	-0.441911	-0.879726	-0.175491	0.255920	-0.311135	0.915260
15878	5.600804	4.095698	1.817984	1.286777	-2.625873	0.970600	-0.856908	0.342847	0.384922	-0.430137	-0.887102	-0.167429	0.284063	-0.309041	0.907636
15879	1.220984	2.036789	7.554449	1.147334	-2.559970	0.646555	-0.852029	0.329222	0.407014	-0.421241	-0.892784	-0.159665	0.310810	-0.307490	0.899359
15880	30.990680	4.217396	34.182334	1.362168	-4.431757	-0.690308	-0.834369	0.321726	0.447572	-0.422569	-0.894719	-0.144614	0.353925	-0.309791	0.882477
15881	43.537530	33.580639	13.680714	4.434260	2.458435	-0.872880	-0.839381	0.336614	0.426768	-0.414250	-0.904505	-0.101332	0.351904	-0.261845	0.898666
15882	-26.523132	-9.274940	-0.722189	-3.091175	3.937555	-0.359027	-0.850803	0.350454	0.391556	-0.427484	-0.894932	-0.127881	0.305600	-0.276185	0.911225
15883	3.256650	-29.747210	24.942808	-2.590174	-5.756521	-0.022496	-0.832031	0.333496	0.443289	-0.436069	-0.887144	-0.151061	0.342883	-0.318993	0.883558
15884	16.265509	14.144296	-3.319585	6.709666	-0.981091	-0.883949	-0.824689	0.338576	0.453051	-0.419179	-0.903657	-0.087707	0.379707	-0.262241	0.887160
15885	7.667987	17.754537	23.892808	-2.996845	1.637322	-0.067420	-0.830394	0.343641	0.438585	-0.430732	-0.895240	-0.114087	0.353434	-0.283650	0.891419
15886	-0.008294	-14.572961	3.920794	-3.097690	-1.592548	1.310601	-0.830398	0.327171	0.450997	-0.430831	-0.890314	-0.147398	0.353304	-0.316702	0.880270
15887	7.727524	-2.905390	8.350627	2.591203	-0.495301	-0.034657	-0.828454	0.325950	0.455434	-0.421769	-0.898124	-0.124437	0.368476	-0.295178	0.881530
15888	5.302626	5.222110	10.995969	0.262168	0.182176	-0.457744	-0.827174	0.330608	0.454403	-0.424629	-0.897369	-0.120079	0.368068	-0.292278	0.882666
15889	4.167484	-0.841417	9.583857	-1.371470	-0.416532	0.524443	-0.827867	0.324641	0.457431	-0.425317	-0.894984	-0.134572	0.365706	-0.305961	0.879003
15890	5.375876	-3.740126	7.951421	-0.202796	-0.293629	0.222594	-0.827722	0.321761	0.459724	-0.424254	-0.895057	-0.137409	0.367266	-0.308776	0.877367
15891	4.666825	-1.083613	9.834429	-0.086824	-0.140281	0.084871	-0.827558	0.320547	0.460865	-0.423870	-0.895058	-0.138583	0.368078	-0.310032	0.876583
15892	4.831645	-1.460733	8.901304	-0.196631	-0.236187	0.103664	-0.827112	0.318898	0.462805	-0.423773	-0.894755	-0.140820	0.369190	-0.312599	0.875203
15893	4.774132	-2.194795	8.853089	-0.166878	-0.165953	0.085520	-0.826854	0.317593	0.464164	-0.423681	-0.894501	-0.142698	0.369875	-0.314648	0.874179
15894	4.816482	-1.778777	9.067451	-0.075492	-0.188556	0.054809	-0.826372	0.316522	0.465749	-0.423545	-0.894413	-0.143648	0.371105	-0.315972	0.873180
15895	5.032567	-1.966430	8.868838	-0.091946	-0.151768	0.042964	-0.825982	0.315639	0.467040	-0.423531	-0.894254	-0.144672	0.371988	-0.317303	0.872321
15896	4.898334	-1.712178	8.952640	-0.031912	-0.109892	0.018056	-0.825634	0.315142	0.467988	-0.423538	-0.894187	-0.145071	0.372751	-0.317986	0.871746
15897	4.885048	-1.552593	8.988228	-0.050005	-0.116601	0.015529	-0.825256	0.314614	0.469010	-0.423597	-0.894072	-0.145601	0.373521	-0.318830	0.871109
15898	4.913230	-1.517798	8.940686	-0.022388	-0.101587	0.010640	-0.824907	0.314209	0.469896	-0.423630	-0.894011	-0.145881	0.374255	-0.319400	0.870584
15899	4.841073	-1.499761	9.004993	-0.043697	-0.102788	0.014713	-0.824575	0.313731	0.470797	-0.423674	-0.893913	-0.146353	0.374936	-0.320143	0.870018
15900	4.915698	-1.587228	8.965339	-0.027677	-0.096894	0.006414	-0.824223	0.313377	0.471647	-0.423762	-0.893822	-0.146659	0.375608	-0.320746	0.869506
15901	4.846495	-1.559932	8.996848	-0.036321	-0.098181	0.009316	-0.823884	0.312961	0.472515	-0.423824	-0.893730	-0.147041	0.376282	-0.321407	0.868970
15902	4.923931	-1.638232	8.923926	-0.034592	-0.095998	0.005655	-0.823532	0.312616	0.473357	-0.423944	-0.893613	-0.147403	0.376917	-0.322068	0.868450
15903	4.916027	-1.523994	8.948990	-0.026589	-0.093054	0.001494	-0.823177	0.312285	0.474191	-0.424035	-0.893527	-0.147663	0.377589	-0.322626	0.867951
15904	4.927264	-1.549608	8.938172	-0.021272	-0.085815	0.000354	-0.822840	0.312019	0.474951	-0.424149	-0.893436	-0.147884	0.378196	-0.323135	0.867497
15905	4.953764	-1.545164	8.918904	-0.020322	-0.092327	0.000980	-0.822485	0.311695	0.475779	-0.424220	-0.893368	-0.148087	0.378888	-0.323634	0.867009
15906	4.923854	-1.494437	8.889262	-0.012453	-0.079851	-0.000529	-0.822165	0.311455	0.476488	-0.424309	-0.893303	-0.148227	0.379482	-0.324046	0.866595
15907	4.906641	-1.569443	8.862849	-0.012348	-0.081466	-0.000736	-0.821842	0.311180	0.477223	-0.424365	-0.893256	-0.148353	0.380118	-0.324439	0.866169
15908	4.854602	-1.566057	8.908798	-0.013236	-0.069776	-0.004127	-0.821544	0.311004	0.477850	-0.424486	-0.893177	-0.148482	0.380626	-0.324826	0.865801
15909	4.840599	-1.468533	9.001028	-0.024721	-0.107269	-0.002281	-0.821116	0.310660	0.478810	-0.424602	-0.893084	-0.148707	0.381420	-0.325410	0.865232
15910	4.974010	-1.755718	8.785679	-0.042666	-0.082529	-0.008070	-0.820752	0.310477	0.479553	-0.424868	-0.892897	-0.149072	0.381908	-0.326098	0.864758
15911	4.884964	-1.537717	8.958453	-0.025200	-0.083195	-0.014369	-0.820362	0.310317	0.480322	-0.425086	-0.892764	-0.149243	0.382501	-0.326611	0.864302
15912	4.985469	-1.622379	8.831463	-0.039327	-0.084464	-0.017648	-0.819949	0.310212	0.481094	-0.425419	-0.892558	-0.149533	0.383018	-0.327276	0.863822
15913	4.854151	-1.517909	9.023983	-0.052171	-0.077110	-0.023759	-0.819542	0.310156	0.481824	-0.425818	-0.892307	-0.149890	0.383446	-0.328010	0.863353
15914	4.723027	-1.578393	9.064043	-0.067416	-0.083414	-0.027155	-0.819091	0.310138	0.482601	-0.426336	-0.891978	-0.150376	0.383832	-0.328922	0.862834
15915	4.761565	-1.533901	9.073478	-0.092174	-0.147092	-0.024960	-0.818409	0.309860	0.483935	-0.426899	-0.891591	-0.151072	0.384661	-0.330230	0.861965
15916	4.858657	-1.504933	9.063903	-0.119868	-0.144563	-0.032791	-0.817697	0.309688	0.485247	-0.427666	-0.891069	-0.151980	0.385322	-0.331797	0.861068
15917	4.854849	-1.456777	9.014526	-0.143488	-0.194267	-0.023021	-0.816838	0.309231	0.486981	-0.428412	-0.890515	-0.153124	0.386313	-0.333706	0.859885
15918	4.989985	-1.510611	8.928388	-0.172667	-0.200237	-0.014802	-0.815986	0.308706	0.488741	-0.429238	-0.889867	-0.154570	0.387198	-0.335913	0.858627
15919	5.066210	-1.611578	8.787691	-0.195460	-0.215010	-0.009826	-0.815099	0.308053	0.490629	-0.430080	-0.889172	-0.156219	0.388129	-0.338344	0.857251
15920	5.151615	-1.668997	8.677180	-0.187797	-0.206223	-0.008417	-0.814246	0.307441	0.492425	-0.430916	-0.888484	-0.157821	0.388991	-0.340699	0.855926
15921	5.129664	-1.707271	8.726901	-0.184340	-0.179679	-0.008443	-0.813499	0.306887	0.494003	-0.431708	-0.887822	-0.159376	0.389676	-0.342917	0.854728
15922	5.003571	-1.717989	8.904386	-0.183111	-0.171128	-0.011266	-0.812768	0.306412	0.495500	-0.432551	-0.887133	-0.160919	0.390267	-0.345118	0.853572
15923	5.072856	-1.795266	8.770209	-0.203337	-0.179241	-0.019600	-0.811972	0.305950	0.497088	-0.433510	-0.886362	-0.162576	0.390860	-0.347500	0.852334
15924	5.068784	-1.713831	8.856764	-0.182221	-0.176435	-0.023786	-0.811163	0.305559	0.498646	-0.434453	-0.885630	-0.164044	0.391491	-0.349704	0.851141
15925	5.056369	-1.633217	8.852812	-0.197758	-0.179689	-0.026704	-0.810331	0.305151	0.500246	-0.435450	-0.884848	-0.165613	0.392105	-0.352033	0.849898
15926	4.922279	-1.511790	8.997417	-0.227547	-0.212147	-0.019502	-0.809398	0.304587	0.502097	-0.436539	-0.883959	-0.167481	0.392821	-0.354743	0.848439
15927	5.022678	-1.553277	8.908325	-0.275748	-0.270944	-0.003644	-0.808305	0.303639	0.504427	-0.437659	-0.882959	-0.169819	0.393824	-0.358033	0.846590
15928	4.891547	-1.541258	9.036523	-0.315825	-0.302027	0.007475	-0.807131	0.302499	0.506984	-0.438881	-0.881820	-0.172561	0.394870	-0.361785	0.844505
15929	4.793508	-1.597818	9.126418	-0.371119	-0.386720	0.022752	-0.805690	0.300876	0.510233	-0.440172	-0.880530	-0.175825	0.396374	-0.366251	0.841872
15930	4.678793	-1.562204	9.386056	-0.423927	-0.463814	0.029639	-0.803962	0.298917	0.514094	-0.441656	-0.879030	-0.179572	0.398227	-0.371422	0.838726
15931	4.437197	-1.661943	9.577901	-0.497291	-0.578422	0.036140	-0.801800	0.296420	0.518895	-0.443358	-0.877269	-0.183938	0.400688	-0.377538	0.834814
15932	4.261240	-1.535265	9.696519	-0.543071	-0.744437	0.038525	-0.798959	0.293258	0.525037	-0.445273	-0.875287	-0.188692	0.404223	-0.384542	0.829898
15933	4.396845	-1.582771	9.566068	-0.592113	-0.899538	0.036414	-0.795454	0.289431	0.532432	-0.447396	-0.873086	-0.193798	0.408767	-0.392365	0.823990
15934	4.153773	-1.755626	9.743559	-0.584993	-0.947606	0.024748	-0.791652	0.285472	0.540179	-0.449643	-0.870812	-0.198765	0.413652	-0.400240	0.817741
15935	3.920226	-1.651406	9.778212	-0.633982	-1.114934	0.003297	-0.787010	0.280919	0.549272	-0.452265	-0.868249	-0.203960	0.419609	-0.408935	0.810371
15936	3.694936	-1.529687	10.040640	-0.725442	-1.281862	-0.043522	-0.781374	0.276002	0.559712	-0.455713	-0.865098	-0.209596	0.426357	-0.418841	0.801743
15937	3.605553	-1.603681	9.393172	-0.816241	-1.530607	-0.115209	-0.774246	0.270486	0.572171	-0.460129	-0.861312	-0.215460	0.434539	-0.430091	0.791326
15938	3.846042	-1.755035	8.844298	-0.857404	-1.855930	-0.192263	-0.765179	0.264052	0.587177	-0.465418	-0.857029	-0.221105	0.444845	-0.442467	0.778676
15939	3.996482	-1.796940	9.166435	-0.799876	-2.171764	-0.253393	-0.754181	0.256461	0.604515	-0.470959	-0.852774	-0.225776	0.457612	-0.454978	0.763929
15940	3.353592	-1.817418	9.287427	-0.731835	-2.570003	-0.331160	-0.740631	0.247431	0.624695	-0.476880	-0.848534	-0.229294	0.473340	-0.467727	0.746446
15941	2.833149	-2.102522	9.433005	-0.786675	-3.190035	-0.358109	-0.723486	0.235301	0.649000	-0.483310	-0.843927	-0.232807	0.492929	-0.482101	0.724293
15942	3.616358	-2.699046	9.461341	-0.842709	-3.833821	-0.428604	-0.702035	0.220128	0.677267	-0.490659	-0.838790	-0.235976	0.516140	-0.497971	0.696868
15943	3.506432	-3.880180	9.352415	-0.729936	-4.212248	-0.489983	-0.677320	0.202925	0.707148	-0.497909	-0.834056	-0.237564	0.541594	-0.513002	0.665961
15944	4.580972	-4.044310	9.219898	-0.501948	-4.903922	-0.629623	-0.646844	0.182677	0.740420	-0.504916	-0.830201	-0.236275	0.571536	-0.526683	0.629247
15945	5.961532	-3.734901	9.040281	-0.339565	-5.303628	-0.717013	-0.612027	0.160364	0.774407	-0.511439	-0.827153	-0.232912	0.603202	-0.538610	0.588257
15946	7.589072	-2.935372	9.381118	-0.213793	-5.769894	-0.762983	-0.572313	0.135293	0.808798	-0.517328	-0.824831	-0.228092	0.636262	-0.548954	0.542052
15947	11.747547	-2.886526	9.847690	-0.530520	-6.068272	-0.761002	-0.528780	0.107883	0.841874	-0.524994	-0.820951	-0.224546	0.666913	-0.560714	0.490741
15948	16.595605	-4.210103	12.209353	-0.874232	-5.960440	-0.652208	-0.484778	0.079417	0.871024	-0.534290	-0.815349	-0.223024	0.692477	-0.573496	0.437695
15949	21.000165	-7.988310	12.320404	-0.966156	-5.258860	-0.656418	-0.444293	0.054295	0.894235	-0.544141	-0.809305	-0.221213	0.711698	-0.584873	0.389113
15950	17.696917	-8.804347	11.523067	0.040531	-4.287886	-0.929920	-0.408274	0.036711	0.912121	-0.547860	-0.809088	-0.212663	0.730179	-0.586539	0.350442
15951	13.297065	-6.659191	10.825608	0.357023	-3.933279	-1.195414	-0.372635	0.023370	0.927684	-0.549913	-0.810808	-0.200465	0.747489	-0.584845	0.314987
15952	9.233281	-6.863799	10.259317	0.622553	-3.864530	-1.349646	-0.335966	0.011825	0.941800	-0.550035	-0.814168	-0.185990	0.764584	-0.580509	0.280037
15953	4.764886	-5.756002	9.247178	1.021630	-3.695540	-1.374128	-0.299846	0.001769	0.953986	-0.546532	-0.819948	-0.170259	0.781918	-0.572436	0.246825
15954	1.382161	-4.166019	8.551414	1.277297	-3.948921	-1.416956	-0.260882	-0.008950	0.965329	-0.540448	-0.827214	-0.153726	0.799910	-0.561815	0.210968
15955	0.456570	-4.279803	7.588457	1.256989	-4.203835	-1.499751	-0.218841	-0.019850	0.975559	-0.533921	-0.834403	-0.136749	0.816723	-0.550797	0.172003
15956	0.948592	-5.614492	8.284122	1.578619	-3.897673	-1.596412	-0.178218	-0.027643	0.983603	-0.524116	-0.843339	-0.118665	0.832791	-0.536670	0.135810
15957	5.202015	-1.384209	13.002703	2.222551	-3.625702	-1.909425	-0.137860	-0.030489	0.989982	-0.508477	-0.855577	-0.097158	0.849968	-0.516777	0.102447
15958	28.518199	-6.436885	16.599634	-0.014872	-2.644260	-1.560038	-0.107368	-0.030786	0.993743	-0.510563	-0.855952	-0.081680	0.853110	-0.516138	0.076184
15959	11.574967	-2.017982	17.362990	2.181691	2.175833	-1.541035	-0.118312	-0.006436	0.992956	-0.493648	-0.867271	-0.064441	0.861576	-0.497795	0.099431
15960	9.635483	-1.340687	15.250079	0.048276	2.517702	-0.765909	-0.136161	0.012746	0.990605	-0.494255	-0.867461	-0.056775	0.858588	-0.497341	0.124414
15961	4.331450	-6.952028	9.415292	0.192015	3.911693	-0.722677	-0.166122	0.038471	0.985354	-0.493759	-0.868197	-0.049347	0.853584	-0.494725	0.163222
15962	0.397664	-5.048713	6.164220	0.464097	3.947424	-0.836014	-0.195583	0.065161	0.978520	-0.491368	-0.870020	-0.040277	0.848707	-0.488691	0.202179
15963	-1.543498	-5.228361	3.637123	0.186908	3.920429	-0.794676	-0.224857	0.091196	0.970115	-0.491531	-0.870268	-0.032119	0.841330	-0.484063	0.240512
15964	-2.120483	-4.268201	3.224105	0.282477	3.536924	-0.844124	-0.250322	0.115572	0.961240	-0.491218	-0.870727	-0.023232	0.834292	-0.477994	0.274733
15965	-0.200126	-4.190673	2.862867	-0.103799	3.214258	-0.769662	-0.273253	0.137635	0.952045	-0.494178	-0.869210	-0.016178	0.825301	-0.474900	0.305530
15966	0.053237	-3.774276	2.973149	-0.225471	3.006170	-0.674687	-0.294549	0.157744	0.942527	-0.497992	-0.867118	-0.010504	0.815626	-0.472465	0.333964
15967	0.433106	-3.806946	3.564899	-0.633518	2.773539	-0.479360	-0.314655	0.175063	0.932923	-0.504675	-0.863270	-0.008223	0.803925	-0.473410	0.359982
15968	2.167089	-5.011313	4.857774	-0.928482	2.500911	-0.234851	-0.333383	0.188979	0.923657	-0.512889	-0.858402	-0.009493	0.791075	-0.476898	0.383102
15969	4.450591	-6.125442	6.218623	-1.013786	2.459469	0.071687	-0.353091	0.200201	0.913918	-0.520694	-0.853626	-0.014176	0.777306	-0.480877	0.405651
15970	5.710582	-7.225830	7.159081	-0.905383	2.543261	0.423724	-0.374878	0.208864	0.903240	-0.526174	-0.850097	-0.021806	0.763287	-0.483436	0.428582
15971	6.819872	-7.329110	7.707966	-0.665739	2.701922	0.817563	-0.399672	0.215044	0.891077	-0.528154	-0.848541	-0.032113	0.749210	-0.483461	0.452715
15972	7.265979	-6.966677	7.660847	-0.414549	2.909068	1.230454	-0.427726	0.218634	0.877069	-0.526187	-0.849181	-0.044927	0.734967	-0.480719	0.478260
15973	6.577451	-5.954234	7.371634	-0.149223	3.046943	1.582815	-0.458236	0.219807	0.861223	-0.520384	-0.851859	-0.059467	0.720569	-0.475417	0.504737
15974	6.232360	-4.893239	7.149103	-0.000440	3.072837	1.843785	-0.489650	0.218580	0.844077	-0.511695	-0.855870	-0.075201	0.705982	-0.468732	0.530923
15975	6.021496	-3.639053	7.311500	0.125711	3.051049	1.978551	-0.521033	0.215861	0.825790	-0.500947	-0.860671	-0.091094	0.691069	-0.461140	0.556573
15976	6.352721	-2.571353	7.715958	0.134199	3.021116	2.014382	-0.551632	0.212302	0.806617	-0.489272	-0.865569	-0.106786	0.675512	-0.453561	0.581349
15977	6.908905	-1.840764	8.305194	0.088657	3.055879	1.966787	-0.581575	0.209073	0.786168	-0.477667	-0.870032	-0.121983	0.658487	-0.446468	0.605855
15978	7.119261	-1.377149	8.809290	0.039902	3.169038	1.875785	-0.610982	0.206765	0.764165	-0.466267	-0.874082	-0.136294	0.639762	-0.439579	0.630456
15979	6.991275	-1.223792	9.008904	0.012975	3.294209	1.765464	-0.639902	0.205764	0.740397	-0.455271	-0.877703	-0.149553	0.619076	-0.432780	0.655322
15980	6.774157	-1.007652	8.940709	0.005837	3.411616	1.633645	-0.667977	0.206055	0.715086	-0.444596	-0.881066	-0.161423	0.596776	-0.425752	0.680143
15981	6.737669	-0.792727	9.022562	-0.013742	3.489452	1.497855	-0.695014	0.207670	0.688352	-0.434590	-0.884034	-0.172090	0.572789	-0.418756	0.704667
15982	6.751243	-0.314170	9.116006	-0.018211	3.546883	1.351239	-0.720677	0.210444	0.660559	-0.425170	-0.886758	-0.181358	0.547590	-0.411551	0.728541
15983	6.866018	0.408052	9.288839	-0.078980	3.604344	1.196091	-0.745008	0.214639	0.631580	-0.416942	-0.888910	-0.189731	0.520695	-0.404683	0.751737
15984	7.049888	1.056479	9.552568	-0.225337	3.648556	1.037027	-0.767760	0.220085	0.601753	-0.410280	-0.890234	-0.197872	0.492152	-0.398806	0.773783
15985	7.332739	1.207242	9.948994	-0.402270	3.680258	0.861574	-0.788863	0.227111	0.571065	-0.405598	-0.890504	-0.206138	0.461719	-0.394238	0.794602
15986	7.930975	1.153940	10.413880	-0.504448	3.721253	0.655784	-0.808091	0.235881	0.539767	-0.402650	-0.890018	-0.213870	0.429955	-0.390164	0.814194
15987	8.165285	1.657904	10.472983	-0.552745	3.780557	0.457284	-0.825584	0.246587	0.507548	-0.401292	-0.888920	-0.220873	0.396705	-0.386025	0.832832
15988	8.214098	1.893253	10.506456	-0.643496	3.782328	0.248828	-0.840931	0.258921	0.475180	-0.401699	-0.887052	-0.227545	0.362593	-0.382228	0.849958
15989	8.837244	2.085119	10.792053	-0.707813	3.711166	0.031577	-0.853896	0.272854	0.443184	-0.403953	-0.884394	-0.233816	0.328151	-0.378680	0.865401
15990	10.227994	1.846803	11.123676	-0.791147	3.628325	-0.143623	-0.864584	0.287819	0.411892	-0.407682	-0.880982	-0.240139	0.293753	-0.375541	0.879021
15991	11.764131	1.241417	10.895427	-0.747135	3.560614	-0.273044	-0.873329	0.303604	0.380946	-0.412183	-0.877340	-0.245723	0.259617	-0.371617	0.891347
15992	12.593594	0.642022	9.671189	-0.574346	3.477893	-0.363737	-0.880268	0.319628	0.350667	-0.416800	-0.874063	-0.249584	0.226731	-0.365858	0.902630
15993	10.287984	-2.125659	9.524570	-0.420421	3.263454	-0.419817	-0.885413	0.335187	0.322016	-0.421443	-0.871127	-0.252039	0.196037	-0.358869	0.912569
15994	5.492271	-6.631638	0.064680	1.919122	0.627758	-1.630542	-0.879681	0.351607	0.320209	-0.432074	-0.872209	-0.229265	0.198678	-0.340035	0.919186
15995	34.022449	9.420101	-3.094738	0.992203	-0.572147	-1.619348	-0.871422	0.363854	0.328990	-0.444290	-0.869716	-0.214943	0.207919	-0.333473	0.919546
15996	19.942704	-9.098663	-1.728316	0.674539	0.829983	-0.649887	-0.870216	0.372250	0.322729	-0.448590	-0.869519	-0.206650	0.203693	-0.324603	0.923657
15997	27.681845	3.794756	-4.244025	3.008374	-0.314040	-1.915524	-0.860852	0.388004	0.329222	-0.458852	-0.871587	-0.172601	0.219976	-0.299648	0.928343
15998	25.036782	4.958106	-5.782640	1.059666	-0.370107	-0.246972	-0.858877	0.389078	0.333090	-0.458631	-0.873738	-0.161984	0.228009	-0.291890	0.928877
15999	26.020699	-2.529168	-12.776887	-0.060053	-1.659437	1.716323	-0.862713	0.369165	0.345605	-0.444045	-0.880034	-0.168415	0.241971	-0.298758	0.923143
16000	24.304332	-14.774844	-11.468999	0.630619	-2.642849	2.501505	-0.866786	0.339081	0.365659	-0.420835	-0.890767	-0.171557	0.267545	-0.302585	0.914801
16001	19.191862	-0.441479	-3.933499	2.043841	-2.360299	2.132157	-0.868824	0.312974	0.383657	-0.396635	-0.903754	-0.160962	0.296355	-0.292020	0.909340
16002	13.681993	6.074573	16.502829	1.082934	-2.305121	1.688964	-0.868248	0.290954	0.401860	-0.378658	-0.911981	-0.157827	0.320568	-0.289200	0.901997
16003	10.146125	15.441287	15.376558	2.707200	-1.485012	-0.338650	-0.862021	0.289940	0.415757	-0.372657	-0.918518	-0.132104	0.343578	-0.268811	0.899830
16004	31.817784	42.755833	32.574021	2.473461	-1.164038	-0.738783	-0.855153	0.293740	0.427119	-0.370301	-0.922753	-0.106794	0.362756	-0.249488	0.897867
16005	6.389160	5.729704	5.127417	-2.504228	1.318151	1.064573	-0.863731	0.287322	0.414022	-0.369964	-0.919360	-0.133802	0.342191	-0.268742	0.900379
16006	-11.281921	-27.306983	1.419185	-2.885292	0.030080	1.805479	-0.870447	0.270849	0.411051	-0.364060	-0.916243	-0.167209	0.331334	-0.295194	0.896146
16007	5.070120	-21.686095	10.247363	1.855038	-2.401916	-0.828535	-0.859124	0.271480	0.433826	-0.364835	-0.919367	-0.147177	0.358889	-0.284718	0.888895
16008	8.273828	11.557531	8.856974	4.952557	-1.216695	-2.404731	-0.845769	0.290476	0.447546	-0.366891	-0.925647	-0.092565	0.387382	-0.242489	0.889457
16009	13.688183	21.857399	20.486966	-0.869496	-0.166389	0.328053	-0.846315	0.287027	0.448739	-0.367495	-0.924438	-0.101791	0.385615	-0.251056	0.887847
16010	2.179942	-8.702286	4.938959	-4.472427	-0.813219	1.788555	-0.849795	0.268351	0.453692	-0.369397	-0.917182	-0.149407	0.376025	-0.294558	0.878545
16011	4.920971	-11.953914	7.032566	0.855322	-0.478291	0.026605	-0.848063	0.266695	0.457889	-0.365925	-0.919742	-0.142036	0.383259	-0.288009	0.877590
16012	5.543271	3.500352	10.692189	1.967836	-0.245937	-0.793930	-0.844194	0.273339	0.461110	-0.365047	-0.923074	-0.121140	0.392527	-0.270592	0.879035
16013	5.255179	2.406998	10.066695	-1.028355	-0.279503	0.269841	-0.844071	0.270067	0.463258	-0.366807	-0.920966	-0.131434	0.391149	-0.280866	0.876423
16014	5.408736	-4.481572	8.519106	-0.937976	-0.293556	0.378093	-0.844298	0.265764	0.465328	-0.367317	-0.919279	-0.141434	0.390178	-0.290335	0.873766
16015	4.813185	-1.814173	8.779875	0.509126	-0.112915	-0.043798	-0.843680	0.265828	0.466412	-0.365700	-0.920624	-0.136802	0.393024	-0.285984	0.873925
16016	4.818643	-0.538452	9.565582	-0.148724	-0.185169	0.050314	-0.843122	0.264848	0.467976	-0.365899	-0.920311	-0.138371	0.394036	-0.287896	0.872841
16017	5.023111	-2.412881	8.846711	-0.049678	-0.185718	0.049584	-0.842554	0.263843	0.469564	-0.365684	-0.920292	-0.139057	0.395447	-0.288875	0.871879
16018	4.861236	-1.469030	9.152413	0.044789	-0.147861	0.016413	-0.842015	0.263279	0.470846	-0.365406	-0.920445	-0.138779	0.396850	-0.288904	0.871232
16019	4.933140	-1.964103	9.024888	-0.023503	-0.144244	0.008309	-0.841455	0.262772	0.472127	-0.365438	-0.920392	-0.139044	0.398005	-0.289532	0.870496
16020	4.887800	-1.624773	9.051471	0.033625	-0.125208	-0.010221	-0.840905	0.262519	0.473247	-0.365428	-0.920442	-0.138738	0.399175	-0.289604	0.869936
16021	5.049863	-1.639472	8.949935	0.021806	-0.124014	-0.015698	-0.840335	0.262292	0.474383	-0.365483	-0.920457	-0.138495	0.400323	-0.289761	0.869356
16022	5.085786	-1.484946	8.945110	0.012059	-0.088792	-0.017201	-0.839903	0.262207	0.475195	-0.365617	-0.920427	-0.138344	0.401107	-0.289935	0.868937
16023	5.096877	-1.530722	8.931203	0.011818	-0.069576	-0.013753	-0.839557	0.262120	0.475855	-0.365695	-0.920418	-0.138197	0.401761	-0.290042	0.868599
16024	4.970283	-1.452272	8.985887	-0.003396	-0.052997	-0.011722	-0.839287	0.262089	0.476347	-0.365845	-0.920357	-0.138206	0.402187	-0.290264	0.868327
16025	4.985433	-1.485375	8.905793	-0.012430	-0.057064	-0.010495	-0.839002	0.262008	0.476894	-0.365994	-0.920286	-0.138285	0.402647	-0.290561	0.868015
16026	4.903281	-1.448499	9.045298	-0.025100	-0.042118	-0.006248	-0.838795	0.261958	0.477284	-0.366186	-0.920176	-0.138508	0.402902	-0.290954	0.867764
16027	4.897217	-1.464818	8.985197	-0.039115	-0.056137	-0.007397	-0.838525	0.261851	0.477818	-0.366416	-0.920035	-0.138833	0.403256	-0.291495	0.867419
16028	4.916944	-1.416066	8.977094	-0.048192	-0.048600	-0.008359	-0.838284	0.261800	0.478268	-0.366719	-0.919852	-0.139246	0.403481	-0.292117	0.867105
16029	4.826705	-1.420760	9.053682	-0.075415	-0.060387	-0.009468	-0.837988	0.261700	0.478841	-0.367113	-0.919599	-0.139875	0.403736	-0.293003	0.866687
16030	4.738673	-1.396656	9.101015	-0.103936	-0.068356	-0.017918	-0.837633	0.261678	0.479474	-0.367722	-0.919226	-0.140725	0.403921	-0.294189	0.866199
16031	4.543916	-1.069463	9.541994	-0.156037	-0.133213	-0.013346	-0.837028	0.261397	0.480683	-0.368475	-0.918723	-0.142033	0.404488	-0.296005	0.865315
16032	4.654579	-1.500030	9.164288	-0.205972	-0.184559	0.004725	-0.836284	0.260819	0.482288	-0.369308	-0.918103	-0.143871	0.405266	-0.298430	0.864117
16033	4.794983	-1.399356	9.099306	-0.233822	-0.266513	0.000506	-0.835187	0.260005	0.484624	-0.370264	-0.917395	-0.145913	0.406654	-0.301303	0.862467
16034	4.859177	-1.546720	9.093765	-0.269248	-0.247952	-0.002921	-0.834152	0.259295	0.486781	-0.371423	-0.916551	-0.148253	0.407719	-0.304467	0.860851
16035	4.912910	-1.480524	8.903743	-0.290335	-0.309585	-0.011086	-0.832829	0.258438	0.489495	-0.372713	-0.915625	-0.150715	0.409244	-0.307961	0.858883
16036	5.085606	-1.599807	8.677947	-0.321351	-0.304045	0.003981	-0.831584	0.257473	0.492114	-0.374036	-0.914618	-0.153526	0.410568	-0.311738	0.856886
16037	5.115183	-1.674532	8.646545	-0.304287	-0.296420	0.003321	-0.830359	0.256503	0.494681	-0.375272	-0.913665	-0.156166	0.411916	-0.315314	0.854928
16038	5.190155	-1.825447	8.528747	-0.313587	-0.285978	0.002824	-0.829176	0.255584	0.497135	-0.376580	-0.912656	-0.158892	0.413103	-0.318961	0.853000
16039	5.175197	-1.924708	8.595561	-0.281730	-0.248969	-0.000275	-0.828127	0.254779	0.499293	-0.377761	-0.911743	-0.161311	0.414129	-0.322199	0.851284
16040	5.125041	-1.902270	8.780514	-0.279053	-0.229857	-0.010795	-0.827119	0.254147	0.501282	-0.379046	-0.910790	-0.163664	0.414968	-0.325378	0.849665
16041	5.223990	-1.943820	8.657044	-0.269570	-0.224666	-0.023673	-0.826077	0.253618	0.503264	-0.380375	-0.909839	-0.165852	0.415826	-0.328436	0.848067
16042	5.236632	-1.773627	8.582035	-0.235756	-0.195858	-0.023389	-0.825159	0.253199	0.504979	-0.381588	-0.908980	-0.167766	0.416538	-0.331127	0.846670
16043	4.991656	-1.481461	9.060145	-0.236218	-0.184717	-0.022036	-0.824285	0.252775	0.506615	-0.382769	-0.908130	-0.169672	0.417183	-0.333775	0.845312
16044	4.844327	-1.482003	9.201494	-0.304419	-0.282108	0.002630	-0.823102	0.251818	0.509009	-0.384058	-0.907092	-0.172289	0.418332	-0.337300	0.843343
16045	4.930751	-1.608327	9.177132	-0.347993	-0.350172	0.016275	-0.821678	0.250473	0.511965	-0.385397	-0.905942	-0.175321	0.419897	-0.341367	0.840925
16046	4.690356	-1.554943	9.322211	-0.375456	-0.427822	0.022628	-0.819951	0.248812	0.515533	-0.386830	-0.904686	-0.178622	0.421952	-0.345885	0.838046
16047	4.759623	-1.386934	9.278481	-0.454446	-0.547742	0.040266	-0.817769	0.246529	0.520075	-0.388439	-0.903191	-0.182648	0.424699	-0.351381	0.834363
16048	4.602249	-1.351325	9.256862	-0.518803	-0.667528	0.062020	-0.815149	0.243616	0.525531	-0.390184	-0.901480	-0.187322	0.428122	-0.357749	0.829896
16049	4.349288	-1.325019	9.675448	-0.559417	-0.809929	0.076510	-0.811944	0.239991	0.532119	-0.391983	-0.899635	-0.192370	0.432546	-0.364776	0.824526
16050	4.123406	-1.527705	9.795398	-0.598377	-0.969263	0.087801	-0.808055	0.235642	0.539926	-0.393916	-0.897614	-0.197787	0.438038	-0.372508	0.818145
16051	3.587804	-1.596354	10.235645	-0.667629	-1.124216	0.074689	-0.803371	0.230727	0.548963	-0.396274	-0.895263	-0.203645	0.444480	-0.381143	0.810659
16052	2.889580	-1.904035	10.539684	-0.817128	-1.363659	0.007277	-0.797271	0.225406	0.559956	-0.399919	-0.892097	-0.210302	0.452132	-0.391605	0.801388
16053	2.087619	-2.426519	10.409463	-0.860965	-1.678213	-0.168427	-0.788904	0.220230	0.573697	-0.405205	-0.888292	-0.216211	0.461994	-0.403034	0.790015
16054	1.565439	-3.046715	10.488321	-0.770548	-2.177481	-0.436834	-0.776892	0.215211	0.591712	-0.412279	-0.884164	-0.219726	0.475884	-0.414654	0.775627
16055	2.422369	-3.049500	10.336717	-0.537134	-2.752917	-0.706920	-0.760570	0.209883	0.614396	-0.420338	-0.880395	-0.219592	0.494823	-0.425269	0.757824
16056	2.079288	-3.041679	9.478782	-0.162766	-3.319487	-0.949168	-0.739696	0.203982	0.641280	-0.428325	-0.877705	-0.214874	0.519025	-0.433618	0.736606
16057	2.764571	-1.795660	9.375567	0.027855	-4.141105	-1.014550	-0.713176	0.194755	0.673387	-0.435568	-0.875792	-0.208011	0.549236	-0.441655	0.709423
16058	2.699519	-1.839341	10.011430	-0.024311	-4.927965	-0.988573	-0.680901	0.181412	0.709552	-0.442642	-0.873797	-0.201364	0.583474	-0.451186	0.675269
16059	2.847815	-2.363743	11.336076	-0.102905	-5.979158	-0.923362	-0.640702	0.162160	0.750470	-0.449389	-0.871727	-0.195297	0.622536	-0.462380	0.631391
16060	4.759215	-2.370368	11.394817	-0.061013	-7.004798	-0.878995	-0.591577	0.137040	0.794516	-0.455246	-0.870099	-0.188888	0.665423	-0.473442	0.577118
16061	8.996658	-2.003135	12.343804	-0.398182	-7.637943	-0.794856	-0.535494	0.107294	0.837696	-0.462485	-0.867203	-0.184568	0.706650	-0.486257	0.514004
16062	16.140356	-3.852534	14.678323	-0.939073	-7.995088	-0.676291	-0.474341	0.073641	0.877256	-0.472759	-0.861923	-0.183272	0.742630	-0.501664	0.443660
16063	25.510349	-9.404059	15.822485	-1.076563	-7.404404	-0.741293	-0.414745	0.042368	0.908951	-0.484229	-0.856005	-0.181048	0.770396	-0.515229	0.375539
16064	21.027913	-10.630983	14.871524	0.423840	-5.574799	-1.024636	-0.366133	0.022479	0.930291	-0.484962	-0.857826	-0.170137	0.794203	-0.513449	0.324980
16065	15.788626	-8.020385	14.676608	0.919207	-5.437317	-1.231577	-0.316359	0.005371	0.948624	-0.481793	-0.862325	-0.155792	0.817186	-0.506327	0.275392
16066	11.610633	-8.617794	14.510166	1.374814	-5.046892	-1.330229	-0.268185	-0.008358	0.963331	-0.474347	-0.869200	-0.139597	0.838494	-0.494391	0.229142
16067	3.546583	-6.798102	12.522926	1.931507	-4.692373	-1.182392	-0.222836	-0.020781	0.974634	-0.460899	-0.878731	-0.124114	0.859021	-0.476865	0.186235
16068	-4.260935	-3.572632	10.927157	2.430786	-4.726315	-1.107247	-0.176721	-0.032980	0.983708	-0.442026	-0.890323	-0.109259	0.879422	-0.454133	0.142761
16069	-7.369536	-1.258606	9.320010	2.771180	-4.388307	-1.225701	-0.132466	-0.041303	0.990327	-0.419344	-0.902974	-0.093751	0.898111	-0.427706	0.102294
16070	11.136784	3.061378	16.686180	1.573565	-5.756638	-1.422349	-0.074493	-0.052533	0.995837	-0.406630	-0.910220	-0.078434	0.910551	-0.410780	0.046443
16071	27.646073	-6.513104	17.045436	-0.313787	-1.982291	-0.625942	-0.053940	-0.054953	0.997031	-0.409947	-0.909240	-0.072293	0.910513	-0.412629	0.026517
16072	9.049837	-0.597511	23.449615	1.646454	1.751875	-0.638481	-0.067347	-0.042007	0.996845	-0.395345	-0.916207	-0.065319	0.916060	-0.398497	0.045097
16073	10.858795	-5.959453	15.248339	-0.145689	3.397186	-0.028183	-0.098381	-0.028109	0.994752	-0.396767	-0.915607	-0.065113	0.912632	-0.401091	0.078926
16074	0.141017	-7.826367	9.665165	1.069026	4.452522	-0.359311	-0.137568	-0.007136	0.990467	-0.387489	-0.919891	-0.060447	0.911552	-0.392110	0.123783
16075	-2.237396	-5.133925	5.572307	1.233615	4.639435	-0.606952	-0.177583	0.016451	0.983968	-0.377299	-0.924594	-0.052635	0.908906	-0.380598	0.170400
16076	-2.944072	-4.024106	3.406732	1.185180	4.514004	-0.779057	-0.215592	0.040593	0.975639	-0.368135	-0.928791	-0.042705	0.904432	-0.368373	0.215184
16077	-2.500142	-1.834897	2.867713	1.001169	4.363594	-0.921380	-0.251662	0.065055	0.965626	-0.361364	-0.931896	-0.031396	0.897821	-0.356844	0.258031
16078	-1.291510	-0.595185	2.668858	0.271879	4.047440	-0.859312	-0.284680	0.087412	0.954629	-0.361293	-0.932184	-0.022385	0.887933	-0.351273	0.296955
16079	-0.236241	-1.515283	2.288168	-0.525293	3.831241	-0.711034	-0.315953	0.107582	0.942656	-0.368164	-0.929600	-0.017306	0.874431	-0.352520	0.333317
16080	0.097925	-2.509318	2.990828	-1.078197	3.618774	-0.553829	-0.345219	0.125596	0.930080	-0.379390	-0.925100	-0.015895	0.858421	-0.358350	0.367012
16081	3.009986	-4.089728	4.330493	-1.579782	3.364815	-0.319574	-0.372663	0.140844	0.917216	-0.394065	-0.918886	-0.019008	0.840140	-0.368527	0.397937
16082	6.589212	-5.845402	5.680786	-1.708393	3.432130	-0.021799	-0.401048	0.153889	0.903039	-0.408383	-0.912444	-0.025875	0.819990	-0.379163	0.428779
16083	8.645357	-6.295849	6.496149	-1.494137	3.747895	0.338783	-0.432874	0.165236	0.886182	-0.419177	-0.907206	-0.035600	0.798067	-0.386877	0.461969
16084	8.264142	-6.756660	6.130006	-1.286208	4.003893	0.773735	-0.467611	0.173833	0.866673	-0.425858	-0.903486	-0.048554	0.774587	-0.391784	0.496508
16085	8.734274	-6.168958	6.033975	-0.994569	4.152419	1.138104	-0.504225	0.179944	0.844617	-0.428034	-0.901532	-0.063461	0.750030	-0.393523	0.531597
16086	8.297052	-5.377583	5.703035	-0.663366	4.190441	1.362461	-0.540939	0.184132	0.820659	-0.425856	-0.901383	-0.078459	0.725281	-0.391924	0.566007
16087	8.137322	-4.364444	5.619146	-0.466349	4.100026	1.442333	-0.576365	0.187211	0.795459	-0.421250	-0.902174	-0.092898	0.700251	-0.388630	0.598844
16088	8.488611	-2.900849	6.217881	-0.331707	3.941417	1.385720	-0.609259	0.189944	0.769886	-0.415363	-0.903482	-0.105798	0.675482	-0.384241	0.629351
16089	9.272051	-2.201883	6.952166	-0.387525	3.838925	1.283645	-0.640079	0.193110	0.743645	-0.410040	-0.904392	-0.118081	0.649744	-0.380505	0.658065
16090	9.613476	-2.109412	7.503396	-0.391782	3.848160	1.155755	-0.669262	0.197234	0.716371	-0.405012	-0.905141	-0.129172	0.622939	-0.376588	0.685659
16091	9.691101	-2.419120	7.939360	-0.371115	3.904224	1.038571	-0.697287	0.202544	0.687580	-0.400298	-0.905761	-0.139134	0.594603	-0.372253	0.712653
16092	9.635329	-2.536766	8.244160	-0.297882	3.966638	0.943646	-0.724031	0.208666	0.657448	-0.395363	-0.906577	-0.147667	0.565215	-0.366846	0.738889
16093	9.604056	-2.212602	8.361199	-0.235124	3.993348	0.861072	-0.749440	0.215481	0.626026	-0.390432	-0.907483	-0.155040	0.534699	-0.360613	0.764235
16094	9.443362	-1.378709	8.076412	-0.231037	4.009831	0.779642	-0.773263	0.222744	0.593674	-0.385737	-0.908343	-0.161617	0.503261	-0.353974	0.788309
16095	9.121960	-0.395381	7.874257	-0.368038	3.954449	0.704298	-0.795275	0.230338	0.560787	-0.382119	-0.908583	-0.168707	0.470661	-0.348456	0.810590
16096	9.206404	-0.248034	8.324505	-0.624772	3.812784	0.650210	-0.815055	0.237672	0.528392	-0.379761	-0.907915	-0.177406	0.437570	-0.345258	0.830258
16097	9.792374	-0.754808	8.820938	-0.776849	3.705371	0.579135	-0.832879	0.245280	0.496135	-0.378362	-0.906578	-0.186974	0.403924	-0.343445	0.847874
16098	10.134039	-0.937653	9.358416	-0.842721	3.664141	0.504313	-0.848951	0.253284	0.463821	-0.377419	-0.904924	-0.196643	0.369916	-0.341995	0.863830
16099	10.540977	-1.159398	9.785708	-0.859323	3.646238	0.435417	-0.863477	0.261891	0.431070	-0.376815	-0.903055	-0.206160	0.335288	-0.340448	0.878451
16100	10.795851	-1.194875	10.084181	-0.836530	3.645275	0.388105	-0.876513	0.270776	0.398001	-0.376132	-0.901226	-0.215212	0.300415	-0.338337	0.891784
16101	10.990058	-1.010130	9.899269	-0.814618	3.624596	0.356928	-0.888121	0.279876	0.364570	-0.375372	-0.899407	-0.223969	0.265213	-0.335761	0.903840
16102	10.776329	-0.842050	9.514116	-0.789526	3.554434	0.354282	-0.898248	0.288589	0.331462	-0.374195	-0.897752	-0.232421	0.230496	-0.332803	0.914392
16103	10.760952	-0.301125	8.977378	-0.781112	3.396405	0.373788	-0.906904	0.296582	0.299273	-0.372565	-0.896204	-0.240859	0.196775	-0.329935	0.923267
16104	10.853301	-0.229644	8.331551	-0.808372	3.165035	0.408311	-0.914135	0.303348	0.268955	-0.370337	-0.894748	-0.249554	0.164946	-0.327730	0.930261
16105	11.046332	-0.279323	7.601925	-0.794681	2.869644	0.428677	-0.920025	0.308980	0.241010	-0.367665	-0.893413	-0.258140	0.135561	-0.326106	0.935563
16106	11.326165	-0.351533	6.731284	-0.727656	2.532348	0.411079	-0.924625	0.313564	0.216210	-0.364790	-0.892301	-0.265946	0.109533	-0.324771	0.939429
16107	11.639209	-0.418992	5.717276	-0.600349	2.152493	0.353902	-0.928019	0.317459	0.194935	-0.362160	-0.891426	-0.272398	0.087295	-0.323389	0.942231
16108	11.854793	-0.552769	4.584454	-0.432820	1.746240	0.263059	-0.930330	0.320761	0.177760	-0.360078	-0.890846	-0.277016	0.069501	-0.321724	0.944279
16109	12.159564	-0.779272	3.721175	-0.255020	1.321595	0.148923	-0.931682	0.323741	0.164802	-0.358903	-0.890463	-0.279756	0.056181	-0.319792	0.945821
16110	11.188739	-1.156826	3.574973	-0.064026	0.923675	0.033198	-0.932271	0.326402	0.155986	-0.358649	-0.890344	-0.280461	0.047338	-0.317410	0.947106
16111	11.416267	-2.325466	0.310773	0.573572	-0.363332	-0.210130	-0.931319	0.327190	0.159976	-0.360371	-0.891423	-0.274768	0.052705	-0.313547	0.948109
16112	15.294553	0.117588	0.552588	0.570430	-0.406697	-0.230166	-0.930253	0.327988	0.164479	-0.362218	-0.892424	-0.269030	0.058547	-0.309843	0.948984
16113	14.838052	-0.639698	1.990185	0.849957	-0.972883	-0.142349	-0.929091	0.326323	0.174075	-0.363047	-0.894530	-0.260794	0.070612	-0.305499	0.949570
16114	14.239925	-0.185047	2.468054	0.871272	-1.128832	0.012241	-0.928253	0.322802	0.184784	-0.362282	-0.897191	-0.252588	0.084251	-0.301409	0.949765
16115	12.774484	-1.046390	2.374570	1.007098	-1.544122	0.180406	-0.927447	0.316606	0.199004	-0.359725	-0.900740	-0.243444	0.102175	-0.297368	0.949280
16116	10.954819	-0.500607	2.732955	1.213711	-1.818156	0.372122	-0.926717	0.307900	0.215389	-0.354931	-0.905458	-0.232743	0.123364	-0.292136	0.948387
16117	9.450610	-0.484751	3.793698	1.362014	-2.158580	0.638840	-0.926011	0.295895	0.234415	-0.347222	-0.911286	-0.221346	0.148124	-0.286363	0.946602
16118	8.270728	0.185570	5.035286	1.637174	-2.332149	0.885511	-0.925257	0.281224	0.254584	-0.336404	-0.918443	-0.208074	0.175305	-0.278165	0.944400
16119	4.554568	3.865705	7.249083	2.026573	-2.171044	0.836051	-0.923905	0.267645	0.273434	-0.324908	-0.926211	-0.191228	0.202076	-0.265517	0.942691
16120	1.379008	8.104843	9.406881	1.478547	-2.086528	1.001122	-0.922619	0.252901	0.291231	-0.312529	-0.932663	-0.180182	0.226052	-0.257257	0.939531
16121	-3.005702	3.389403	5.766093	0.738298	-2.466667	0.951183	-0.919641	0.237695	0.312669	-0.302052	-0.936867	-0.176196	0.251049	-0.256479	0.933377
16122	-2.576988	5.515234	5.286987	1.110530	-2.844502	0.192371	-0.912648	0.228662	0.338804	-0.297371	-0.940125	-0.166539	0.280437	-0.252742	0.926000
16123	-0.493742	12.534930	11.794674	0.892231	-3.111864	-0.739596	-0.901210	0.227787	0.368691	-0.301478	-0.940667	-0.155748	0.311338	-0.251514	0.916411
16124	16.257621	6.651689	19.954941	-0.411298	-3.978087	-0.959840	-0.885188	0.226553	0.406344	-0.311439	-0.937407	-0.155804	0.345612	-0.264467	0.900339
16125	71.298618	-11.600508	39.527729	1.135668	-3.776617	0.324738	-0.872428	0.213556	0.439617	-0.304468	-0.941103	-0.147055	0.382320	-0.262144	0.886065
16126	-9.950919	-15.323492	-15.625422	2.162866	5.310544	-0.187704	-0.891089	0.228416	0.392157	-0.298325	-0.945995	-0.126872	0.341999	-0.230044	0.911107
16127	-22.396158	-0.563000	17.850271	2.369673	-0.659627	-0.967132	-0.885876	0.236129	0.399333	-0.298689	-0.948938	-0.101493	0.354977	-0.209186	0.911171
16128	22.570899	15.483908	24.255722	0.301657	-5.482606	-0.255605	-0.864292	0.226829	0.448942	-0.299819	-0.948977	-0.097732	0.403867	-0.219070	0.888200
16129	11.303487	-1.151955	-4.638881	-1.508317	0.241844	0.430395	-0.866534	0.223289	0.446387	-0.302151	-0.946530	-0.113074	0.397270	-0.232859	0.887667
16130	1.350367	-5.726250	17.117879	-0.942392	0.748731	0.179561	-0.870006	0.223378	0.439537	-0.304330	-0.944685	-0.122282	0.387909	-0.240151	0.889862
16131	5.655889	2.604109	9.444755	1.703375	-1.635120	-0.534527	-0.861859	0.224603	0.454701	-0.302206	-0.947464	-0.104806	0.407273	-0.227741	0.884456
16132	8.458819	2.996106	8.379203	-0.672894	-0.178718	0.083665	-0.861373	0.223414	0.456206	-0.304262	-0.946079	-0.111170	0.406770	-0.234565	0.882903
16133	3.236517	-2.979760	9.894495	-1.325873	0.304121	0.416962	-0.863847	0.220193	0.453083	-0.306027	-0.943809	-0.124790	0.400146	-0.246455	0.882691
16134	4.667356	-2.456216	9.539275	0.202608	-0.551672	0.079904	-0.861856	0.218096	0.457863	-0.304559	-0.944465	-0.123404	0.405522	-0.245803	0.880416
16135	5.480440	-0.798801	8.684678	-0.231062	-0.187390	0.082683	-0.861321	0.216842	0.459461	-0.304800	-0.944067	-0.125838	0.406475	-0.248431	0.879238
16136	4.494130	-1.789220	9.596465	-0.211751	-0.210302	0.093653	-0.860739	0.215449	0.461206	-0.304895	-0.943723	-0.128165	0.407637	-0.250936	0.877988
16137	5.126520	-1.684829	8.915082	-0.121350	-0.232314	0.066795	-0.859967	0.214224	0.463211	-0.304831	-0.943553	-0.129560	0.409309	-0.252618	0.876727
16138	4.863548	-1.682219	9.069301	-0.105260	-0.146324	0.053201	-0.859517	0.213367	0.464440	-0.304844	-0.943383	-0.130765	0.410244	-0.253977	0.875897
16139	4.950353	-1.734628	9.025766	-0.074377	-0.166264	0.032645	-0.858907	0.212626	0.465906	-0.304886	-0.943254	-0.131589	0.411488	-0.255071	0.874995
16140	5.019664	-1.708631	8.976061	-0.050916	-0.129953	0.015852	-0.858408	0.212160	0.467037	-0.304998	-0.943140	-0.132145	0.412446	-0.255880	0.874308
16141	4.885274	-1.550247	9.017144	-0.026380	-0.098632	0.001528	-0.857978	0.211884	0.467951	-0.305112	-0.943067	-0.132404	0.413255	-0.256378	0.873780
16142	4.927248	-1.480413	9.027419	-0.027759	-0.105202	0.001494	-0.857535	0.211615	0.468884	-0.305253	-0.942981	-0.132689	0.414070	-0.256914	0.873236
16143	4.959286	-1.522207	8.965241	-0.026204	-0.085098	-0.005587	-0.857139	0.211441	0.469688	-0.305428	-0.942893	-0.132914	0.414762	-0.257382	0.872770
16144	4.855330	-1.463923	9.029987	-0.028312	-0.079896	-0.010925	-0.856761	0.211353	0.470415	-0.305678	-0.942780	-0.133145	0.415357	-0.257869	0.872343
16145	4.885487	-1.481257	8.972626	-0.030389	-0.077920	-0.016532	-0.856359	0.211300	0.471170	-0.305965	-0.942657	-0.133355	0.415974	-0.258361	0.871903
16146	4.905936	-1.389524	9.003427	-0.025088	-0.072982	-0.014776	-0.855998	0.211266	0.471842	-0.306235	-0.942543	-0.133539	0.416519	-0.258804	0.871512
16147	4.896097	-1.341071	8.988876	-0.045407	-0.070765	-0.012231	-0.855638	0.211189	0.472528	-0.306548	-0.942390	-0.133900	0.417028	-0.259422	0.871084
16148	4.900227	-1.374843	9.014278	-0.054988	-0.080872	-0.012875	-0.855248	0.211116	0.473266	-0.306927	-0.942202	-0.134353	0.417548	-0.260163	0.870614
16149	4.890501	-1.303934	9.003309	-0.049670	-0.077550	-0.011258	-0.854862	0.211012	0.474009	-0.307250	-0.942040	-0.134754	0.418101	-0.260836	0.870147
16150	4.903478	-1.398753	8.948220	-0.060158	-0.089474	-0.010096	-0.854444	0.210889	0.474817	-0.307627	-0.941843	-0.135265	0.418677	-0.261643	0.869628
16151	4.843252	-1.427922	8.932269	-0.058756	-0.086165	-0.010332	-0.854023	0.210753	0.475634	-0.307981	-0.941658	-0.135749	0.419275	-0.262419	0.869106
16152	4.886620	-1.456309	8.926118	-0.054289	-0.100423	-0.013099	-0.853549	0.210627	0.476540	-0.308360	-0.941470	-0.136193	0.419962	-0.263194	0.868540
16153	4.897894	-1.580954	8.899862	-0.062349	-0.090385	-0.020776	-0.853077	0.210577	0.477406	-0.308820	-0.941252	-0.136657	0.420583	-0.264012	0.867991
16154	4.776776	-1.528856	8.980060	-0.069742	-0.094984	-0.028261	-0.852577	0.210607	0.478285	-0.309394	-0.940990	-0.137163	0.421174	-0.264920	0.867427
16155	4.672599	-1.339400	9.261339	-0.094687	-0.124959	-0.033137	-0.851920	0.210580	0.479467	-0.310096	-0.940659	-0.137847	0.421987	-0.266115	0.866666
16156	4.983341	-1.597654	8.866227	-0.158274	-0.164750	-0.037897	-0.851094	0.210512	0.480962	-0.311127	-0.940138	-0.139071	0.422895	-0.268003	0.865641
16157	4.726231	-1.369545	9.156527	-0.122200	-0.137564	-0.034037	-0.850377	0.210455	0.482253	-0.311955	-0.939728	-0.139986	0.423725	-0.269482	0.864775
16158	4.872712	-1.485550	9.051031	-0.168760	-0.205086	-0.030981	-0.849397	0.210206	0.484084	-0.312974	-0.939188	-0.141330	0.424938	-0.271551	0.863532
16159	5.004955	-1.425641	8.921060	-0.158702	-0.193551	-0.028786	-0.848455	0.209943	0.485848	-0.313915	-0.938684	-0.142581	0.426124	-0.273489	0.862335
16160	4.911195	-1.435748	9.005458	-0.201318	-0.212758	-0.018148	-0.847477	0.209544	0.487723	-0.314967	-0.938075	-0.144262	0.427291	-0.275876	0.860996
16161	5.045164	-1.553273	8.876725	-0.192301	-0.226040	-0.012835	-0.846441	0.209031	0.489738	-0.315921	-0.937504	-0.145875	0.428639	-0.278193	0.859579
16162	5.151998	-1.603820	8.651185	-0.210389	-0.229822	-0.017965	-0.845385	0.208573	0.491754	-0.317016	-0.936860	-0.147628	0.429914	-0.280697	0.858128
16163	5.182381	-1.534091	8.706857	-0.192056	-0.205420	-0.009508	-0.844441	0.208076	0.493582	-0.317945	-0.936288	-0.149249	0.431080	-0.282964	0.856797
16164	5.187678	-1.589554	8.632061	-0.209393	-0.200427	-0.002659	-0.843555	0.207547	0.495318	-0.318911	-0.935669	-0.151063	0.432101	-0.285392	0.855477
16165	5.067765	-1.650736	8.829550	-0.209223	-0.184049	-0.004516	-0.842715	0.207055	0.496950	-0.319878	-0.935048	-0.152850	0.433024	-0.287772	0.854211
16166	5.117305	-1.724115	8.843379	-0.227148	-0.189886	-0.004942	-0.841863	0.206567	0.498595	-0.320943	-0.934362	-0.154798	0.433892	-0.290340	0.852901
16167	5.006998	-1.713986	8.914974	-0.242418	-0.191836	-0.010899	-0.840965	0.206104	0.500299	-0.322112	-0.933621	-0.156831	0.434766	-0.293041	0.851531
16168	4.846948	-1.579152	9.220013	-0.267746	-0.213641	-0.019879	-0.839958	0.205675	0.502164	-0.323484	-0.932772	-0.159043	0.435693	-0.296031	0.850022
16169	4.784532	-1.530167	9.194968	-0.313325	-0.299513	-0.020885	-0.838554	0.204972	0.504792	-0.325051	-0.931784	-0.161618	0.437230	-0.299608	0.847977
16170	4.795330	-1.342638	9.200166	-0.377580	-0.368163	-0.008328	-0.836900	0.203953	0.507939	-0.326815	-0.930608	-0.164806	0.439079	-0.303929	0.845480
16171	4.649140	-1.226387	9.373003	-0.451140	-0.482796	0.012966	-0.834787	0.202347	0.512041	-0.328718	-0.929239	-0.168699	0.441673	-0.309145	0.842232
16172	4.664728	-1.352482	9.357798	-0.531560	-0.606385	0.032552	-0.832193	0.200166	0.517097	-0.330843	-0.927624	-0.173366	0.444970	-0.315352	0.838186
16173	4.368238	-1.293223	9.575885	-0.578484	-0.720213	0.046681	-0.829099	0.197432	0.523083	-0.333066	-0.925861	-0.178461	0.449068	-0.322183	0.833388
16174	4.321529	-1.350820	9.616574	-0.663974	-0.916049	0.061717	-0.825153	0.193887	0.530594	-0.335595	-0.923795	-0.184332	0.454421	-0.330167	0.827340
16175	4.117650	-1.534143	9.618577	-0.689525	-1.000478	0.071850	-0.820790	0.189875	0.538750	-0.338183	-0.921616	-0.190414	0.460366	-0.338485	0.820665
16176	3.644650	-1.527226	9.944470	-0.763807	-1.180194	0.060309	-0.815506	0.185284	0.548288	-0.341273	-0.919086	-0.197011	0.467421	-0.347780	0.812753
16177	3.669332	-1.527014	9.939785	-0.934105	-1.428191	0.034221	-0.808859	0.179919	0.559800	-0.345426	-0.915835	-0.204760	0.475844	-0.358992	0.802930
16178	3.472821	-1.581369	9.596842	-1.100032	-1.638990	-0.017732	-0.800907	0.174104	0.572919	-0.350896	-0.911761	-0.213458	0.485201	-0.371995	0.791328
16179	3.214431	-1.706853	9.503490	-1.157891	-1.976628	-0.091267	-0.790850	0.167441	0.588660	-0.357334	-0.907204	-0.222021	0.496859	-0.385933	0.777295
16180	3.674990	-1.616597	9.255763	-1.122817	-2.413819	-0.149498	-0.778122	0.159319	0.607572	-0.364212	-0.902523	-0.229787	0.511738	-0.400087	0.760299
16181	3.479769	-1.821749	9.284108	-1.051713	-2.803362	-0.231144	-0.762649	0.149989	0.629182	-0.371494	-0.897872	-0.236256	0.529489	-0.413918	0.740482
16182	2.694222	-2.117239	10.079503	-1.002585	-3.442364	-0.280775	-0.742969	0.138025	0.654940	-0.379072	-0.893223	-0.241780	0.551635	-0.427904	0.715959
16183	3.114844	-2.918871	9.676761	-1.025527	-4.034302	-0.338311	-0.718873	0.123486	0.684085	-0.387361	-0.888305	-0.246709	0.577211	-0.442340	0.686413
16184	3.251065	-3.612005	9.298847	-0.892349	-4.630752	-0.450976	-0.689682	0.106699	0.716208	-0.395864	-0.883753	-0.249543	0.606326	-0.455627	0.651747
16185	3.998511	-3.768031	9.331461	-0.801842	-5.304004	-0.497943	-0.654638	0.086602	0.750965	-0.404235	-0.879555	-0.250952	0.638782	-0.467849	0.610798
16186	5.341164	-3.359886	9.625291	-0.640223	-5.944176	-0.592248	-0.613177	0.063694	0.787373	-0.412240	-0.876055	-0.250169	0.673848	-0.477985	0.563435
16187	7.760533	-2.713828	10.529032	-0.721942	-6.513884	-0.589142	-0.565641	0.037400	0.823803	-0.420741	-0.872257	-0.249290	0.709244	-0.487616	0.509120
16188	12.923711	-3.366272	11.085188	-0.991593	-6.859553	-0.549501	-0.513485	0.008378	0.858058	-0.430954	-0.867217	-0.249426	0.742033	-0.497860	0.448913
16189	20.447716	-5.585816	14.679070	-1.443059	-6.742990	-0.482987	-0.460404	-0.021419	0.887451	-0.444242	-0.859962	-0.251226	0.768555	-0.509908	0.386415
16190	23.741707	-10.358187	13.980260	-0.873667	-5.641066	-0.599627	-0.413739	-0.045196	0.909273	-0.453719	-0.855655	-0.248983	0.789277	-0.515569	0.333512
16191	17.860547	-8.358158	12.806268	0.211354	-4.840811	-0.891583	-0.370977	-0.062390	0.926544	-0.455561	-0.857208	-0.240122	0.809222	-0.511177	0.289582
16192	12.095728	-6.837966	13.904790	0.358299	-4.698329	-1.109468	-0.327444	-0.076727	0.941750	-0.456554	-0.859776	-0.228790	0.827248	-0.504875	0.246498
16193	8.154269	-7.143663	12.230733	0.800908	-4.665510	-1.152664	-0.283184	-0.090062	0.954828	-0.453410	-0.864724	-0.216036	0.845119	-0.494106	0.204041
16194	2.120790	-5.274366	10.998469	1.349955	-4.418976	-1.056902	-0.240673	-0.102357	0.965194	-0.444699	-0.872282	-0.203390	0.862740	-0.478171	0.164416
16195	-2.659562	-4.141275	9.612111	1.567376	-4.553990	-1.056039	-0.196383	-0.114417	0.973829	-0.433390	-0.880760	-0.190880	0.879549	-0.459533	0.123379
16196	-3.298734	-2.339669	8.889097	2.467139	-4.083904	-1.366280	-0.154285	-0.120510	0.980650	-0.413914	-0.893355	-0.174903	0.897146	-0.432890	0.087950
16197	14.199023	2.907336	17.284263	1.182068	-5.347397	-1.939767	-0.098084	-0.125759	0.987200	-0.405732	-0.900744	-0.155057	0.908714	-0.415747	0.037324
16198	27.658792	-7.910129	16.256415	-0.109122	-1.692857	-1.305000	-0.077360	-0.121014	0.989632	-0.407918	-0.901882	-0.142171	0.909735	-0.414687	0.020406
16199	9.276671	0.147577	19.937440	1.992335	1.558364	-1.692164	-0.084905	-0.099275	0.991431	-0.391142	-0.911829	-0.124801	0.916405	-0.398387	0.038588
16200	11.318544	-0.933553	15.190072	-0.238763	2.794549	-1.008765	-0.106482	-0.078864	0.991182	-0.394341	-0.911752	-0.114908	0.912774	-0.403099	0.065986
16201	3.288161	-5.521059	10.416254	0.149033	4.073058	-1.034742	-0.139598	-0.052901	0.988794	-0.394302	-0.913018	-0.104515	0.908316	-0.404474	0.106597
16202	0.499892	-4.502944	6.704779	0.155865	4.299828	-1.148382	-0.173976	-0.024995	0.984433	-0.394742	-0.914076	-0.092970	0.902170	-0.404771	0.149161
16203	-0.985137	-5.009310	4.361114	0.049484	4.308530	-1.086152	-0.208502	0.002453	0.978019	-0.396432	-0.914375	-0.082222	0.894074	-0.404861	0.191621
16204	-1.137808	-4.263185	3.452196	0.115206	4.202353	-1.057604	-0.241668	0.029120	0.969922	-0.397839	-0.914652	-0.071666	0.885054	-0.403192	0.232628
16205	-1.306911	-3.850468	2.812454	-0.027628	4.055599	-0.967126	-0.273619	0.054360	0.960301	-0.400643	-0.914106	-0.062410	0.874424	-0.401814	0.271895
16206	-0.035161	-2.826332	3.269514	-0.170947	3.742558	-0.872294	-0.302599	0.077366	0.949973	-0.404692	-0.912823	-0.054568	0.862935	-0.400959	0.307529
16207	0.052614	-3.242951	2.945337	-0.476558	3.670046	-0.731243	-0.331169	0.098840	0.938380	-0.411168	-0.910229	-0.049233	0.849275	-0.402136	0.342080
16208	0.644415	-3.048104	3.882423	-0.712039	3.456394	-0.592387	-0.357789	0.118183	0.926294	-0.419254	-0.906690	-0.046258	0.834394	-0.404903	0.373952
16209	2.483457	-3.891730	4.747635	-0.942287	3.380496	-0.410977	-0.384106	0.135732	0.913258	-0.428646	-0.902291	-0.046182	0.817756	-0.409203	0.404756
16210	3.979105	-4.568211	5.643234	-0.966883	3.440003	-0.188944	-0.411093	0.151589	0.898901	-0.437269	-0.898020	-0.048535	0.799874	-0.413014	0.435455
16211	4.989334	-5.008033	6.298409	-0.916310	3.561430	0.103364	-0.439826	0.165490	0.882704	-0.444159	-0.894341	-0.053640	0.780561	-0.415653	0.466859
16212	5.539692	-5.059924	6.593605	-0.769164	3.721738	0.426041	-0.470381	0.177178	0.864494	-0.448195	-0.891847	-0.061084	0.760173	-0.416194	0.498918
16213	5.632413	-4.929781	6.745603	-0.620782	3.845812	0.738700	-0.502650	0.186646	0.844101	-0.449344	-0.890560	-0.070659	0.738534	-0.414809	0.531509
16214	5.796632	-4.576928	6.846023	-0.407000	3.919164	0.998465	-0.535620	0.193949	0.821885	-0.447169	-0.890754	-0.081218	0.716345	-0.411024	0.563834
16215	6.010198	-4.284882	6.914241	-0.264300	3.965157	1.199652	-0.569032	0.199522	0.797743	-0.442498	-0.891982	-0.092543	0.693107	-0.405660	0.595854
16216	5.990777	-3.658496	7.197733	-0.112771	3.972262	1.333703	-0.601933	0.203599	0.772156	-0.435504	-0.894192	-0.103719	0.669338	-0.398709	0.626912
16217	6.010898	-3.185209	7.507688	-0.017293	3.963578	1.424097	-0.634238	0.206570	0.745030	-0.426906	-0.896990	-0.114719	0.644587	-0.390817	0.657092
16218	6.357521	-2.588718	8.112953	0.042786	3.953787	1.482592	-0.665462	0.208544	0.716707	-0.417046	-0.900209	-0.125289	0.619058	-0.382275	0.686027
16219	6.623390	-2.290107	8.668770	0.058667	3.971066	1.519800	-0.695884	0.209926	0.686787	-0.406433	-0.903558	-0.135632	0.592079	-0.373517	0.714093
16220	6.868091	-1.915760	9.102026	0.057780	4.006855	1.522991	-0.725135	0.210940	0.655502	-0.395321	-0.906953	-0.145458	0.563827	-0.364611	0.741052
16221	7.320940	-1.642968	9.669501	0.035468	4.039419	1.485405	-0.753202	0.212081	0.622662	-0.384228	-0.910173	-0.154773	0.533905	-0.355820	0.767032
16222	7.716801	-1.209111	10.281941	0.016794	4.092960	1.394666	-0.779687	0.213763	0.588553	-0.373493	-0.913179	-0.163117	0.502585	-0.347001	0.791832
16223	8.111178	-0.648661	10.907943	-0.016566	4.151447	1.231382	-0.804496	0.216816	0.552971	-0.363895	-0.915727	-0.170366	0.469432	-0.338282	0.815597
16224	8.915528	0.098344	11.682413	-0.138100	4.214292	1.006276	-0.827157	0.221697	0.516392	-0.356348	-0.917450	-0.176921	0.434542	-0.330357	0.837877
16225	9.863369	0.701550	12.589223	-0.311020	4.299154	0.717313	-0.847653	0.229260	0.478460	-0.351702	-0.918009	-0.183210	0.397227	-0.323574	0.858784
16226	10.689782	1.331852	13.313665	-0.555682	4.402362	0.379622	-0.865591	0.239923	0.439533	-0.350584	-0.917094	-0.189815	0.357552	-0.318395	0.877941
16227	11.459578	1.523732	13.632928	-0.861595	4.477822	-0.002160	-0.880705	0.254215	0.399668	-0.353555	-0.914321	-0.197523	0.315211	-0.315264	0.895126
16228	12.273353	1.426654	13.836223	-1.151627	4.530878	-0.404350	-0.892530	0.272173	0.359601	-0.360550	-0.909612	-0.206423	0.270914	-0.313892	0.909987
16229	13.520113	1.503030	13.616891	-1.375830	4.512061	-0.806762	-0.900810	0.293718	0.319798	-0.371237	-0.902979	-0.216363	0.225221	-0.313623	0.922451
16230	4.977725	-7.981704	11.799153	-1.680556	4.078572	-1.098296	-0.904954	0.316452	0.284457	-0.384606	-0.894310	-0.228663	0.182032	-0.316333	0.931020
16231	15.499789	3.519477	3.031481	2.059230	0.061373	-3.087160	-0.892847	0.344261	0.290359	-0.408569	-0.890400	-0.200648	0.189460	-0.297780	0.935645
16232	31.260567	2.440716	-3.709019	-1.644594	1.856974	-1.673443	-0.889150	0.364689	0.276431	-0.426431	-0.879481	-0.211352	0.166038	-0.305803	0.937505
16233	19.687613	-6.787082	3.260208	0.709722	1.165830	-2.559929	-0.879861	0.390665	0.270604	-0.447956	-0.871910	-0.197758	0.158685	-0.295218	0.942160
16234	31.479318	4.945334	-2.592838	1.199546	0.826039	-2.438389	-0.869992	0.414244	0.267425	-0.467424	-0.865532	-0.179913	0.156937	-0.281523	0.946634
16235	20.599602	-2.729483	-5.159721	-0.142909	0.548408	-0.693665	-0.867569	0.421823	0.263420	-0.473712	-0.862192	-0.179507	0.151398	-0.280520	0.947833
16236	21.336310	-6.159335	-8.029337	0.277700	-0.441279	0.111136	-0.867403	0.419640	0.267420	-0.472346	-0.863414	-0.177214	0.156528	-0.280031	0.947144
16237	20.339533	-6.344207	-3.797042	0.487374	-1.335887	1.134292	-0.870501	0.406107	0.278040	-0.461749	-0.869417	-0.175789	0.170344	-0.281409	0.944347
16238	20.033284	-3.043665	1.011186	0.873398	-1.646597	1.919737	-0.876222	0.384707	0.290233	-0.443440	-0.879439	-0.173052	0.188668	-0.280333	0.941179
16239	15.679611	-0.885445	3.974645	1.004376	-1.738101	2.399634	-0.883111	0.358653	0.302461	-0.420408	-0.891110	-0.170825	0.208259	-0.278014	0.937729
16240	11.540352	3.670517	4.663596	1.372076	-1.745468	2.361949	-0.888929	0.332678	0.314851	-0.396505	-0.903026	-0.165312	0.229323	-0.271790	0.934634
16241	6.412552	5.644197	5.032035	0.969429	-1.977044	2.534632	-0.893891	0.304337	0.329147	-0.371655	-0.913676	-0.164528	0.250662	-0.269399	0.929835
16242	3.665295	5.900172	4.902176	0.751118	-2.381924	2.361860	-0.896129	0.276247	0.347334	-0.348573	-0.922537	-0.165599	0.274682	-0.269469	0.923004
16243	0.555868	6.564181	3.356388	0.999660	-2.436660	1.910757	-0.895572	0.252036	0.366646	-0.328646	-0.930227	-0.163307	0.299905	-0.266750	0.915916
16244	-3.791872	9.012958	1.749718	1.314881	-2.761853	1.217476	-0.890788	0.233394	0.389902	-0.313672	-0.936635	-0.155963	0.328795	-0.261231	0.907553
16245	4.320791	0.673775	17.503493	-0.331565	-4.160095	0.778231	-0.878759	0.214987	0.426102	-0.307989	-0.937465	-0.162179	0.364589	-0.273751	0.890020
16246	75.630051	24.103467	45.201958	5.910087	-4.361405	-2.213532	-0.854842	0.224934	0.467601	-0.304012	-0.947401	-0.100041	0.420503	-0.227675	0.878260
16247	-5.390119	19.732631	-17.359059	-0.934613	6.923975	0.116927	-0.882107	0.239338	0.405715	-0.306653	-0.945569	-0.108921	0.357563	-0.220493	0.907486
16248	-32.423331	-46.669374	16.602287	-7.338939	-1.896944	0.253227	-0.876180	0.232100	0.422419	-0.330470	-0.927268	-0.175967	0.350854	-0.293775	0.889156
16249	24.852064	-6.545970	6.984885	7.321528	-4.822901	-1.565230	-0.852578	0.233958	0.467305	-0.315954	-0.943022	-0.104316	0.416273	-0.236584	0.877920
16250	18.267567	39.785967	20.637502	2.600978	1.717921	-0.736286	-0.857351	0.244752	0.452819	-0.311545	-0.947025	-0.077995	0.409742	-0.207943	0.888184
16251	-3.929935	-12.006948	8.330338	-7.869010	-0.152352	0.753332	-0.859150	0.237294	0.453378	-0.336399	-0.929541	-0.150962	0.385611	-0.282215	0.878441
16252	4.832723	-13.664768	2.924280	3.207838	-1.514176	0.650146	-0.855249	0.227159	0.465778	-0.318116	-0.939662	-0.125845	0.409087	-0.255800	0.875908
16253	9.090528	9.397695	12.333178	2.357973	0.027503	-1.086750	-0.851870	0.237454	0.466834	-0.317695	-0.942892	-0.100123	0.416399	-0.233602	0.878659
16254	4.089302	2.803860	10.266733	-1.860597	-0.008673	0.534522	-0.853528	0.232417	0.466339	-0.320868	-0.939620	-0.118983	0.410528	-0.251189	0.876568
16255	5.708893	-0.302953	-10.468897	-0.790001	-0.481680	0.416357	-0.852845	0.227270	0.470111	-0.320589	-0.938549	-0.127861	0.412163	-0.259758	0.873297
16256	5.172084	-1.654942	8.619731	0.354965	-0.070337	0.006652	-0.852563	0.227041	0.470732	-0.319105	-0.939463	-0.124828	0.413894	-0.256637	0.873401
16257	5.100643	-0.705201	9.765726	-0.248217	-0.197195	0.094733	-0.852006	0.225633	0.472415	-0.319351	-0.939026	-0.127459	0.414850	-0.259462	0.872112
16258	5.113785	-2.585763	8.703289	-0.164899	-0.153911	0.065024	-0.851562	0.224637	0.473688	-0.319520	-0.938725	-0.129240	0.415631	-0.261409	0.871158
16259	4.940795	-1.495475	9.160880	-0.107691	-0.145493	0.030571	-0.851012	0.223959	0.474996	-0.319734	-0.938499	-0.130341	0.416592	-0.262795	0.870281
16260	5.105024	-2.205791	8.766094	-0.137678	-0.120847	0.009059	-0.850524	0.223571	0.476051	-0.320270	-0.938139	-0.131618	0.417176	-0.264409	0.869513
16261	4.974462	-1.469921	9.014158	-0.076296	-0.090141	-0.015462	-0.850055	0.223469	0.476936	-0.320747	-0.937890	-0.132227	0.417764	-0.265376	0.868935
16262	4.959088	-1.610663	8.912777	-0.111827	-0.085043	-0.018565	-0.849628	0.223431	0.477714	-0.321411	-0.937533	-0.133145	0.418124	-0.266666	0.868367
16263	4.935794	-1.441794	9.022926	-0.105849	-0.080759	-0.028520	-0.849155	0.223475	0.478534	-0.322124	-0.937174	-0.133947	0.418536	-0.267889	0.867792
16264	4.803669	-1.482962	9.033949	-0.131760	-0.079693	-0.037009	-0.848689	0.223622	0.479291	-0.323028	-0.936718	-0.134948	0.418783	-0.269354	0.867219
16265	4.747378	-1.027309	9.472990	-0.131931	-0.128429	-0.039243	-0.847981	0.223635	0.480537	-0.323943	-0.936262	-0.135924	0.419511	-0.270927	0.866377
16266	4.808430	-1.408023	9.015845	-0.199252	-0.163807	-0.004742	-0.847265	0.223249	0.481978	-0.324858	-0.935690	-0.137661	0.420249	-0.273210	0.865302
16267	4.855794	-1.164149	9.211639	-0.199977	-0.237110	-0.007254	-0.846200	0.222658	0.484117	-0.325790	-0.935113	-0.139374	0.421671	-0.275659	0.863832
16268	4.928796	-1.453719	9.047434	-0.248600	-0.219071	0.000502	-0.845264	0.222061	0.486023	-0.326875	-0.934406	-0.141557	0.422708	-0.278522	0.862406
16269	4.816393	-1.230988	9.153638	-0.277928	-0.290847	0.000220	-0.843989	0.221236	0.488607	-0.328079	-0.933615	-0.143971	0.424319	-0.281811	0.860544
16270	5.030011	-1.326687	8.996086	-0.322142	-0.322240	0.013691	-0.842651	0.220209	0.491372	-0.329372	-0.932712	-0.146842	0.425973	-0.285580	0.858482
16271	5.051068	-1.413817	8.875195	-0.352652	-0.344419	0.021299	-0.841208	0.219013	0.494372	-0.330727	-0.931731	-0.149987	0.427772	-0.289673	0.856213
16272	5.118566	-1.518640	8.840732	-0.370479	-0.364768	0.032552	-0.839739	0.217659	0.497457	-0.332081	-0.930702	-0.153351	0.429606	-0.293971	0.853827
16273	5.164591	-1.694671	8.647621	-0.391126	-0.374968	0.037600	-0.838205	0.216191	0.500673	-0.333480	-0.929611	-0.156890	0.431513	-0.298470	0.851300
16274	5.195947	-1.831537	8.636628	-0.361142	-0.358787	0.032733	-0.836750	0.214823	0.503687	-0.334807	-0.928576	-0.160158	0.433306	-0.302650	0.848910
16275	5.119122	-1.800724	8.653047	-0.358379	-0.360652	0.031448	-0.835244	0.213425	0.506771	-0.336131	-0.927537	-0.163371	0.435181	-0.306796	0.846459
16276	5.223101	-1.896530	8.583143	-0.351890	-0.376180	0.020840	-0.833661	0.212084	0.509932	-0.337532	-0.926475	-0.166485	0.437130	-0.310910	0.843950
16277	5.271918	-1.899041	8.546552	-0.330153	-0.360257	0.015735	-0.832090	0.210804	0.513018	-0.338879	-0.925460	-0.169364	0.439075	-0.314778	0.841503
16278	5.156167	-1.807473	8.646001	-0.313073	-0.360783	0.009084	-0.830520	0.209592	0.516050	-0.340221	-0.924467	-0.172075	0.441006	-0.318483	0.839096
16279	5.215931	-1.762377	8.744510	-0.327003	-0.389049	0.016383	-0.828810	0.208187	0.519358	-0.341564	-0.923439	-0.174915	0.443180	-0.322365	0.836464
16280	5.291223	-1.785097	8.579518	-0.327851	-0.406079	0.016490	-0.827048	0.206732	0.522736	-0.342924	-0.922388	-0.177772	0.445415	-0.326285	0.833753
16281	5.198851	-1.722726	8.691294	-0.318743	-0.426348	0.020579	-0.825168	0.205136	0.526324	-0.344212	-0.921369	-0.180548	0.447901	-0.330149	0.830894
16282	5.291111	-1.740403	8.613544	-0.335982	-0.477093	0.033247	-0.823126	0.203258	0.530236	-0.345487	-0.920299	-0.183543	0.450669	-0.334268	0.827745
16283	5.383797	-1.774767	8.600123	-0.337446	-0.501653	0.039252	-0.820946	0.201203	0.534382	-0.346725	-0.919228	-0.186554	0.453684	-0.338434	0.824399
16284	5.373631	-1.810594	8.582465	-0.334874	-0.497428	0.055141	-0.818860	0.199016	0.538387	-0.347837	-0.918176	-0.189636	0.456594	-0.342557	0.821083
16285	5.258614	-1.864389	8.629458	-0.346138	-0.509632	0.063104	-0.816698	0.196674	0.542517	-0.348942	-0.917092	-0.192827	0.459613	-0.346788	0.817614
16286	5.250534	-1.942733	8.671770	-0.357205	-0.557888	0.066753	-0.814344	0.194129	0.546954	-0.350086	-0.915953	-0.196136	0.462909	-0.351203	0.813863
16287	5.228842	-1.891369	8.690646	-0.363009	-0.593745	0.064691	-0.811763	0.191431	0.551719	-0.351283	-0.914779	-0.199451	0.466520	-0.355716	0.809830
16288	5.125138	-1.910517	8.779233	-0.389075	-0.644358	0.064065	-0.808956	0.188551	0.556811	-0.352627	-0.913484	-0.202979	0.470366	-0.360548	0.805457
16289	4.872823	-1.813036	8.985958	-0.420374	-0.722855	0.055410	-0.805688	0.185414	0.562573	-0.354203	-0.912045	-0.206676	0.474771	-0.365781	0.800498
16290	4.598595	-1.745271	9.186089	-0.497869	-0.841791	0.039084	-0.801795	0.181966	0.569221	-0.356306	-0.910257	-0.210898	0.479762	-0.371914	0.794675
16291	4.460469	-1.810382	9.187275	-0.587043	-1.028792	0.006986	-0.796805	0.178034	0.577413	-0.359121	-0.908048	-0.215592	0.485937	-0.379146	0.787473
16292	4.124296	-1.809632	9.477091	-0.653421	-1.207830	-0.035867	-0.790748	0.173744	0.586968	-0.362646	-0.905458	-0.220530	0.493159	-0.387245	0.778996
16293	3.800180	-1.708774	9.743441	-0.701125	-1.495315	-0.090598	-0.782927	0.168701	0.598804	-0.366886	-0.902540	-0.225425	0.502415	-0.396184	0.768517
16294	3.542852	-1.892939	9.819777	-0.789217	-1.859583	-0.156398	-0.772883	0.162660	0.613346	-0.372156	-0.899089	-0.230518	0.513957	-0.406424	0.755426
16295	3.221508	-2.434078	9.794986	-0.809372	-2.266379	-0.264319	-0.760034	0.155694	0.630958	-0.378437	-0.895318	-0.234927	0.528331	-0.417330	0.739393
16296	2.618424	-2.658009	10.100101	-0.728989	-2.782205	-0.403057	-0.743526	0.147546	0.652226	-0.385428	-0.891600	-0.237685	0.546456	-0.428111	0.719797
16297	2.458234	-2.936655	9.994804	-0.720125	-3.405955	-0.537485	-0.722398	0.137554	0.677658	-0.393421	-0.887694	-0.239207	0.568648	-0.439407	0.695385
16298	2.512682	-3.035099	9.737544	-0.601277	-4.150393	-0.648605	-0.695637	0.124848	0.707462	-0.401566	-0.884142	-0.238827	0.595679	-0.450229	0.665177
16299	2.824501	-2.908321	10.207096	-0.594242	-5.016150	-0.698309	-0.662083	0.108149	0.741586	-0.409980	-0.880602	-0.237605	0.627346	-0.461350	0.627371
16300	3.657960	-3.216993	10.968645	-0.549576	-5.896819	-0.716248	-0.621045	0.086930	0.778939	-0.418169	-0.877312	-0.235496	0.662900	-0.471982	0.581202
16301	5.454058	-2.877443	11.492651	-0.491718	-6.787559	-0.817091	-0.571244	0.061734	0.818455	-0.426436	-0.874343	-0.231683	0.701307	-0.481367	0.525789
16302	9.924364	-2.124533	13.277842	-0.857607	-7.663004	-0.820589	-0.512462	0.031573	0.858129	-0.437113	-0.869755	-0.229037	0.739131	-0.492472	0.459518
16303	19.168714	-3.680991	16.611955	-1.619875	-8.046117	-0.594447	-0.449019	-0.003516	0.893515	-0.452244	-0.861553	-0.230657	0.770622	-0.507656	0.385264
16304	28.574397	-10.433761	17.322515	-1.906410	-7.361021	-0.610366	-0.388619	-0.036211	0.920687	-0.469759	-0.851823	-0.231786	0.792655	-0.522577	0.314024
16305	23.135796	-10.471564	15.847758	-0.114954	-5.785422	-0.883531	-0.337969	-0.058847	0.939316	-0.473926	-0.851630	-0.223874	0.813124	-0.520829	0.259936
16306	15.815434	-8.339416	17.329567	0.080519	-5.610109	-1.224133	-0.285993	-0.077503	0.955092	-0.477133	-0.852857	-0.212080	0.830994	-0.516360	0.206932
16307	9.355322	-9.611868	15.808036	0.712421	-5.348717	-1.304685	-0.234871	-0.093647	0.967505	-0.474583	-0.857602	-0.198218	0.848297	-0.505717	0.156983
16308	0.247426	-5.657587	13.759401	1.662758	-4.865539	-1.062200	-0.188147	-0.108619	0.976116	-0.462620	-0.866904	-0.185637	0.866362	-0.486498	0.112855
16309	-6.278001	-1.244336	9.084593	2.546668	-4.511862	-1.316752	-0.142704	-0.118408	0.982657	-0.442525	-0.880427	-0.170354	0.885329	-0.459161	0.073242
16310	4.812225	4.221061	10.065522	3.206229	-5.250890	-2.303962	-0.085760	-0.121115	0.988927	-0.416494	-0.897336	-0.146016	0.905085	-0.424404	0.026511
16311	40.138944	-2.512737	23.948294	-2.336924	-6.477097	-0.898353	-0.023546	-0.140936	0.989739	-0.438102	-0.888434	-0.136933	0.898617	-0.436831	-0.040826
16312	14.347823	-9.761808	15.386696	1.838949	1.134158	-0.745542	-0.030553	-0.129397	0.991122	-0.421756	-0.897320	-0.130152	0.906195	-0.421988	-0.027158
16313	12.629208	-2.213436	14.493201	1.221547	1.135152	-1.055189	-0.036582	-0.115086	0.992682	-0.411044	-0.903694	-0.119917	0.910881	-0.412423	-0.014247
16314	7.414275	-4.648339	11.599662	0.825447	3.786635	-0.658374	-0.068399	-0.093557	0.993262	-0.403913	-0.907752	-0.113317	0.912237	-0.408942	0.024300
16315	3.556751	-4.545203	7.432760	1.196282	4.058955	-0.890881	-0.102044	-0.068914	0.992390	-0.393787	-0.913309	-0.103914	0.913520	-0.401394	0.066060
16316	0.543778	-3.372565	5.208460	1.041788	4.367310	-1.045473	-0.137825	-0.041948	0.989568	-0.385578	-0.918015	-0.092618	0.912323	-0.394321	0.110351
16317	-0.987686	-3.156412	3.465674	0.784972	4.042554	-1.090070	-0.170626	-0.016019	0.985206	-0.380157	-0.921384	-0.080820	0.909048	-0.388323	0.151122
16318	-0.998175	-3.481569	2.515205	0.446203	3.788413	-1.129718	-0.200662	0.009053	0.979619	-0.378260	-0.923128	-0.068951	0.903689	-0.384387	0.188660
16319	-0.545140	-3.460293	2.975677	0.216081	3.583985	-1.160621	-0.228696	0.033578	0.972919	-0.378863	-0.923685	-0.057178	0.896750	-0.381679	0.223964
16320	0.252463	-3.315112	3.330069	-0.073141	3.512582	-1.119460	-0.255762	0.057321	0.965039	-0.382279	-0.922876	-0.046498	0.887946	-0.380807	0.257950
16321	0.586660	-3.564260	3.596584	-0.428570	3.476444	-0.985499	-0.282808	0.079747	0.955856	-0.388781	-0.920537	-0.038228	0.876852	-0.382429	0.291339
16322	1.669089	-4.109245	4.038812	-0.795413	3.392066	-0.738123	-0.309406	0.099588	0.945701	-0.397940	-0.916794	-0.033650	0.863662	-0.386744	0.323292
16323	3.401433	-5.167998	4.442309	-1.019867	3.381786	-0.374927	-0.337019	0.116266	0.934291	-0.407956	-0.912382	-0.033619	0.848522	-0.392480	0.354922
16324	4.482925	-6.401412	4.740802	-1.054201	3.478813	0.062047	-0.366487	0.129462	0.921372	-0.416647	-0.908269	-0.038105	0.831921	-0.397852	0.386809
16325	4.932838	-7.367550	4.779779	-0.878174	3.606191	0.509546	-0.398484	0.139313	0.906533	-0.422005	-0.905408	-0.046360	0.814324	-0.401035	0.419581
16326	5.055855	-7.698315	4.808465	-0.539589	3.685004	0.896748	-0.431938	0.145983	0.890010	-0.422678	-0.904500	-0.056773	0.796726	-0.400710	0.452392
16327	5.373674	-7.341843	4.850827	-0.185977	3.722996	1.218072	-0.466574	0.149869	0.871693	-0.418753	-0.905517	-0.068454	0.779073	-0.396962	0.485249
16328	5.234073	-5.980292	4.925127	0.181823	3.765262	1.478748	-0.501693	0.151279	0.851715	-0.410241	-0.908435	-0.080294	0.761581	-0.389692	0.517817
16329	5.147525	-4.311118	4.987059	0.371590	3.800312	1.682645	-0.537269	0.150656	0.829846	-0.398787	-0.912361	-0.092551	0.743176	-0.380657	0.550263
16330	5.175873	-2.447889	5.177303	0.411089	3.853447	1.814266	-0.572629	0.148564	0.806241	-0.385752	-0.916599	-0.105080	0.723389	-0.371181	0.582180
16331	5.104597	-1.220664	5.355099	0.255456	3.910767	1.884465	-0.607801	0.145675	0.780613	-0.372889	-0.920265	-0.118603	0.701093	-0.363169	0.613659
16332	5.070040	-1.034163	5.693795	0.080526	3.965025	1.871358	-0.641966	0.142712	0.753335	-0.360687	-0.923232	-0.132468	0.676598	-0.356758	0.644158
16333	5.348164	-0.936335	6.195156	0.033121	4.012527	1.737015	-0.674907	0.140914	0.724323	-0.349102	-0.925770	-0.145181	0.650098	-0.350846	0.674002
16334	5.912270	-0.549653	6.852286	0.028185	4.095990	1.517880	-0.706165	0.141106	0.693845	-0.338486	-0.927988	-0.155773	0.621899	-0.344858	0.703075
16335	6.754036	-0.011683	7.375147	0.012759	4.218251	1.219682	-0.735974	0.144265	0.661460	-0.329678	-0.929733	-0.164041	0.591316	-0.338799	0.731820
16336	7.355960	0.360857	7.697813	-0.070019	4.381957	0.865170	-0.763976	0.150952	0.627339	-0.323636	-0.930754	-0.170165	0.558212	-0.333031	0.759927
16337	7.486663	0.412356	7.673615	-0.182331	4.539288	0.490473	-0.790205	0.161455	0.591192	-0.320866	-0.930882	-0.174654	0.522131	-0.327706	0.787393
16338	7.490526	-0.404502	7.630194	-0.313847	4.658923	0.139935	-0.814076	0.175324	0.553662	-0.321364	-0.930076	-0.177998	0.483741	-0.322831	0.813496
16339	7.720932	-1.145977	8.029291	-0.371790	4.703235	-0.132710	-0.835561	0.191694	0.514871	-0.324233	-0.928607	-0.180448	0.443522	-0.317713	0.838061
16340	8.266942	-1.584351	8.622825	-0.452902	4.743137	-0.299199	-0.854626	0.209431	0.475135	-0.328715	-0.926560	-0.182849	0.401947	-0.312452	0.860705
16341	8.901185	-1.710630	9.243146	-0.582227	4.771640	-0.367526	-0.871637	0.227694	0.434056	-0.334146	-0.923917	-0.186344	0.358602	-0.307462	0.881403
16342	9.428715	-1.444500	9.485786	-0.763256	4.808948	-0.396705	-0.886457	0.246053	0.391985	-0.340236	-0.920626	-0.191542	0.313742	-0.303161	0.899811
16343	9.840983	-1.241405	9.565789	-0.999711	4.774425	-0.419827	-0.898948	0.264383	0.349276	-0.346926	-0.916503	-0.199159	0.267458	-0.300207	0.915610
16344	10.853640	-1.494985	9.926333	-1.248240	4.667044	-0.452215	-0.908750	0.282514	0.307179	-0.354094	-0.911505	-0.209227	0.220885	-0.298905	0.928367
16345	12.459739	-1.775939	10.450904	-1.391078	4.521579	-0.495545	-0.915951	0.300586	0.265862	-0.361393	-0.905870	-0.220894	0.174439	-0.298408	0.938362
16346	14.235738	-1.152204	10.668204	-1.459324	4.371699	-0.584535	-0.920439	0.318918	0.226016	-0.369002	-0.899684	-0.233250	0.128955	-0.298093	0.945786
16347	15.620587	0.416468	10.265457	-1.516172	4.161299	-0.742158	-0.922130	0.338032	0.188179	-0.377481	-0.892691	-0.246194	0.084764	-0.298057	0.950777
16348	17.069580	2.359940	8.839804	-1.689575	3.822338	-0.958929	-0.920897	0.357994	0.154238	-0.387421	-0.884279	-0.260684	0.043066	-0.299818	0.953024
16349	18.403063	3.352444	6.734948	-1.969528	3.380000	-1.143460	-0.917199	0.378313	0.124999	-0.398407	-0.874080	-0.277949	0.004107	-0.304735	0.952428
16350	19.364965	2.338698	4.189448	-2.158098	2.751755	-1.335922	-0.911435	0.398423	0.102690	-0.410364	-0.862203	-0.296999	-0.029791	-0.312835	0.949340
16351	20.443665	0.416082	1.812078	-2.055516	2.002861	-1.459548	-0.904480	0.417313	0.088120	-0.422737	-0.849686	-0.315163	-0.056647	-0.322310	0.944938
16352	16.724072	-4.793427	0.739713	-1.414773	1.424877	-1.315586	-0.897897	0.433072	0.078927	-0.433673	-0.839464	-0.327457	-0.075556	-0.328251	0.941564
16353	16.600128	-13.334244	-7.947103	0.695349	-1.828554	-1.356239	-0.893119	0.438445	0.100521	-0.446297	-0.835799	-0.319780	-0.056191	-0.330463	0.942145
16354	27.511633	-5.270335	-10.491931	2.929270	-1.890375	-1.189059	-0.888511	0.442326	0.122048	-0.458112	-0.839981	-0.290802	-0.026112	-0.314292	0.948967
16355	20.244031	-9.938429	-3.884967	3.009510	-2.648294	-0.081386	-0.888308	0.434914	0.147507	-0.459112	-0.848812	-0.262174	0.011183	-0.300614	0.953680
16356	11.383761	2.955213	7.297739	5.284299	-1.864280	-0.178968	-0.886888	0.431200	0.165823	-0.459051	-0.862922	-0.211278	0.051989	-0.263501	0.963257
16357	6.200237	11.975806	24.042314	3.014177	-1.684573	2.143139	-0.895351	0.408289	0.177892	-0.438022	-0.879512	-0.186001	0.080516	-0.244457	0.966311
16358	-6.326625	-0.443065	7.840868	0.139869	-2.512560	3.609007	-0.908248	0.370046	0.195326	-0.405365	-0.893886	-0.191435	0.103759	-0.253048	0.961874
16359	-4.825810	5.931440	0.599429	2.892755	-3.986984	2.513105	-0.912989	0.337553	0.229149	-0.378844	-0.909883	-0.169090	0.151422	-0.241189	0.958592
16360	1.643152	15.700968	7.845613	0.187884	-4.149363	2.093675	-0.913624	0.308186	0.265166	-0.359425	-0.917089	-0.172518	0.190013	-0.252924	0.948644
16361	5.924986	8.690846	10.424786	0.126609	-4.476142	1.097787	-0.908062	0.286519	0.305500	-0.349208	-0.920648	-0.174533	0.231251	-0.265170	0.936060
16362	4.530503	20.174343	7.568950	1.644803	-3.531181	-0.514638	-0.897421	0.282004	0.339277	-0.349772	-0.923486	-0.157588	0.268877	-0.260093	0.927393
16363	5.834025	14.708916	13.830619	0.495445	-4.489885	-1.381909	-0.879476	0.282893	0.382744	-0.360650	-0.920872	-0.148074	0.310569	-0.268264	0.911911
16364	75.242426	-17.126742	49.067133	-0.926239	-6.474737	1.220123	-0.861985	0.253447	0.439028	-0.353180	-0.921520	-0.161447	0.363655	-0.294222	0.883849
16365	9.627746	-27.045905	-14.536027	1.832730	4.150581	-0.184464	-0.875770	0.266784	0.402310	-0.348424	-0.926163	-0.144301	0.334108	-0.266549	0.904059
16366	-25.764378	8.866546	7.744242	6.313262	1.776137	-2.363154	-0.873522	0.292962	0.388759	-0.347831	-0.934353	-0.077448	0.340549	-0.202875	0.918079
16367	19.422122	29.032933	42.330270	-0.930862	-6.277936	1.192774	-0.854593	0.268235	0.444658	-0.340973	-0.935670	-0.090886	0.391674	-0.229287	0.891078
16368	11.925396	-11.262523	-13.302822	-4.857556	-1.704632	1.263938	-0.852284	0.252145	0.458296	-0.349197	-0.926592	-0.139602	0.389453	-0.279016	0.877768
16369	7.353301	-9.760710	12.027060	1.183769	2.557646	-0.020355	-0.861891	0.259239	0.435819	-0.344900	-0.929725	-0.129057	0.371735	-0.261547	0.890733
16370	-1.296704	4.562119	16.200900	1.966722	-0.672575	-0.552293	-0.857439	0.262696	0.442482	-0.342251	-0.933247	-0.109156	0.384270	-0.245034	0.890110
16371	8.955114	2.260653	7.051908	-1.162408	-1.391435	-0.051998	-0.851804	0.259664	0.454978	-0.347242	-0.930164	-0.119241	0.392241	-0.259558	0.882483
16372	5.713352	-4.213811	7.825984	-0.764673	0.501915	0.491769	-0.855447	0.256424	0.449952	-0.346054	-0.929407	-0.128256	0.385301	-0.265425	0.883795
16373	3.758767	-2.367080	10.731377	0.423294	-0.104410	-0.048858	-0.854818	0.256596	0.451048	-0.344871	-0.930382	-0.124311	0.387750	-0.261817	0.883800
16374	5.642593	-0.477447	8.547499	0.009172	-0.251388	0.012493	-0.853871	0.255835	0.453269	-0.344766	-0.930419	-0.124323	0.389924	-0.262428	0.882662
16375	4.681280	-2.170707	9.259157	-0.046433	0.088654	0.035395	-0.854282	0.255732	0.452552	-0.344680	-0.930373	-0.124909	0.389099	-0.262693	0.882946
16376	4.550250	-1.224448	9.196418	0.094713	-0.119651	0.005683	-0.853822	0.255380	0.453617	-0.344300	-0.930617	-0.124136	0.390442	-0.262170	0.882509
16377	4.755985	-1.467550	8.944036	-0.057466	-0.065966	0.014946	-0.853560	0.255061	0.454290	-0.344433	-0.930489	-0.124727	0.390899	-0.262935	0.882079
16378	4.635654	-1.508720	9.129981	0.022328	-0.082898	-0.000802	-0.853220	0.254866	0.455038	-0.344390	-0.930526	-0.124563	0.391678	-0.262990	0.881717
16379	4.869969	-1.418218	8.957023	-0.040643	-0.084606	-0.005149	-0.852814	0.254685	0.455899	-0.344630	-0.930390	-0.124916	0.392350	-0.263646	0.881222
16380	4.856651	-1.371470	9.100317	-0.007431	-0.064261	-0.013499	-0.852502	0.254656	0.456498	-0.344812	-0.930318	-0.124956	0.392867	-0.263931	0.880906
16381	4.895164	-1.375046	8.976717	-0.026226	-0.067081	-0.012076	-0.852140	0.254585	0.457213	-0.345055	-0.930201	-0.125150	0.393439	-0.264409	0.880508
16382	4.818325	-1.294595	9.049083	-0.014320	-0.043767	-0.011237	-0.851916	0.254588	0.457628	-0.345245	-0.930116	-0.125261	0.393757	-0.264705	0.880276
16383	4.765284	-1.306869	9.091019	-0.027775	-0.046382	-0.008394	-0.851648	0.254538	0.458156	-0.345463	-0.930005	-0.125484	0.394147	-0.265145	0.879970
16384	4.843062	-1.378281	9.084247	-0.024925	-0.062157	-0.012168	-0.851348	0.254501	0.458734	-0.345702	-0.929889	-0.125684	0.394585	-0.265586	0.879640
16385	4.781679	-1.352307	9.043514	-0.021410	-0.035711	-0.016296	-0.851093	0.254552	0.459178	-0.345963	-0.929774	-0.125816	0.394905	-0.265940	0.879390
16386	4.805008	-1.350642	9.026141	-0.035770	-0.054893	-0.009493	-0.850831	0.254509	0.459688	-0.346223	-0.929636	-0.126123	0.395243	-0.266464	0.879079
16387	4.847091	-1.267707	8.972289	-0.030534	-0.037974	-0.014921	-0.850572	0.254540	0.460149	-0.346509	-0.929500	-0.126341	0.395550	-0.266908	0.878807
16388	4.724290	-1.338118	9.031653	-0.047790	-0.043905	-0.014233	-0.850336	0.254570	0.460568	-0.346857	-0.929317	-0.126731	0.395752	-0.267515	0.878531
16389	4.802635	-1.278884	8.977369	-0.043331	-0.063136	-0.013976	-0.849980	0.254526	0.461249	-0.347186	-0.929148	-0.127065	0.396227	-0.268142	0.878125
16390	4.800363	-1.295131	9.041490	-0.065002	-0.051465	-0.013673	-0.849716	0.254529	0.461734	-0.347597	-0.928920	-0.127609	0.396433	-0.268929	0.877791
16391	4.770497	-1.278270	9.037645	-0.077384	-0.073501	-0.011019	-0.849329	0.254428	0.462501	-0.348036	-0.928666	-0.128255	0.396878	-0.269898	0.877293
16392	4.821103	-1.373613	8.986635	-0.082131	-0.077030	-0.011256	-0.848971	0.254339	0.463207	-0.348496	-0.928397	-0.128960	0.397240	-0.270908	0.876818
16393	4.815744	-1.426613	8.954431	-0.092237	-0.077915	-0.007799	-0.848576	0.254195	0.464008	-0.348968	-0.928109	-0.129750	0.397668	-0.272026	0.876277
16394	4.869905	-1.516253	8.869199	-0.079905	-0.071917	-0.013278	-0.848231	0.254137	0.464670	-0.349436	-0.927838	-0.130424	0.397993	-0.273002	0.875826
16395	4.803726	-1.531547	8.890606	-0.084270	-0.058780	-0.018861	-0.847873	0.254146	0.465317	-0.349971	-0.927543	-0.131092	0.398285	-0.273997	0.875383
16396	4.853820	-1.521064	8.947345	-0.076506	-0.059866	-0.020045	-0.847552	0.254183	0.465883	-0.350483	-0.927262	-0.131704	0.398519	-0.274910	0.874990
16397	4.911638	-1.576170	8.957644	-0.086676	-0.051316	-0.033680	-0.847171	0.254349	0.466484	-0.351154	-0.926920	-0.132324	0.398737	-0.275909	0.874576
16398	4.771366	-1.470712	9.118128	-0.083463	-0.035644	-0.044956	-0.846858	0.254682	0.466871	-0.351906	-0.926556	-0.132880	0.398740	-0.276825	0.874285
16399	4.740409	-1.508128	9.139871	-0.097204	-0.068021	-0.057294	-0.846327	0.255019	0.467648	-0.352819	-0.926122	-0.133480	0.399060	-0.277963	0.873778
16400	4.710006	-1.339903	9.252095	-0.128037	-0.068491	-0.075741	-0.845773	0.255544	0.468364	-0.354009	-0.925552	-0.134280	0.399181	-0.279375	0.873272
16401	4.443930	-0.944181	9.524297	-0.149162	-0.073399	-0.071955	-0.845168	0.256000	0.469207	-0.355253	-0.924932	-0.135263	0.399358	-0.281008	0.872667
16402	4.525600	-0.988907	9.552451	-0.263335	-0.232639	-0.041249	-0.844078	0.255738	0.471308	-0.356693	-0.924062	-0.137401	0.400379	-0.284089	0.871200
16403	4.805178	-1.281478	9.194995	-0.288554	-0.233026	-0.038908	-0.842947	0.255428	0.473494	-0.358218	-0.923120	-0.139746	0.401397	-0.287412	0.869640
16404	4.591824	-1.246136	9.415809	-0.386599	-0.258162	-0.030655	-0.841787	0.254977	0.475796	-0.360068	-0.921902	-0.142994	0.402177	-0.291689	0.867854
16405	4.674313	-1.374236	9.242459	-0.428389	-0.330283	-0.023600	-0.840314	0.254219	0.478796	-0.362033	-0.920564	-0.146610	0.403491	-0.296538	0.865598
16406	4.686164	-1.433722	9.426828	-0.498636	-0.353402	-0.023377	-0.838788	0.253391	0.481901	-0.364282	-0.918991	-0.150843	0.404640	-0.302073	0.863144
16407	4.444314	-1.515066	9.599893	-0.561340	-0.411046	-0.035474	-0.836934	0.252458	0.485598	-0.366897	-0.917169	-0.155523	0.406113	-0.308327	0.860237
16408	4.245367	-1.430037	9.899210	-0.629206	-0.520322	-0.044076	-0.834640	0.251253	0.490151	-0.369865	-0.915075	-0.160744	0.408137	-0.315453	0.856688
16409	3.971985	-1.384878	10.074789	-0.702970	-0.707564	-0.051778	-0.831491	0.249462	0.496378	-0.373220	-0.912679	-0.166507	0.411497	-0.323707	0.851988
16410	3.727559	-1.350552	10.371801	-0.734963	-0.887925	-0.060051	-0.827578	0.247108	0.504036	-0.376797	-0.910096	-0.172481	0.416099	-0.332661	0.846285
16411	3.326349	-1.280888	10.773217	-0.709625	-1.084172	-0.075729	-0.822689	0.244138	0.513400	-0.380440	-0.907497	-0.178088	0.422431	-0.341829	0.839467
16412	3.128364	-0.978479	10.764563	-0.689040	-1.332524	-0.096329	-0.816623	0.240405	0.524722	-0.384208	-0.904852	-0.183377	0.430711	-0.351352	0.831288
16413	2.572063	-0.658707	10.485078	-0.833612	-1.618143	-0.119529	-0.809055	0.235705	0.538399	-0.388854	-0.901571	-0.189635	0.440707	-0.362783	0.821076
16414	1.326516	-1.073742	9.770618	-0.956103	-2.058977	-0.238384	-0.798900	0.230254	0.555646	-0.395085	-0.897459	-0.196150	0.453505	-0.376231	0.807950
16415	1.022912	-1.234263	9.711048	-0.947569	-2.921208	-0.365639	-0.783856	0.222316	0.579781	-0.402410	-0.892976	-0.201643	0.472902	-0.391369	0.789427
16416	1.477146	-1.874378	11.132320	-1.090311	-3.723182	-0.454937	-0.763926	0.211474	0.609668	-0.411262	-0.887599	-0.207441	0.497273	-0.409203	0.765031
16417	0.594985	-3.891737	10.558599	-0.923277	-4.530322	-0.640622	-0.737992	0.198211	0.645042	-0.420847	-0.882409	-0.210341	0.527499	-0.426694	0.734627
16418	2.459535	-4.062176	10.596723	-0.505840	-5.438853	-0.883117	-0.704512	0.182383	0.685857	-0.430024	-0.878505	-0.208109	0.564573	-0.441550	0.697346
16419	4.217434	-3.471938	9.643743	-0.127449	-6.066932	-0.976390	-0.664721	0.163810	0.728911	-0.437499	-0.876224	-0.202056	0.605591	-0.453208	0.654111
16420	6.732712	-2.491348	11.150553	-0.136120	-6.848334	-0.874327	-0.617875	0.140027	0.773707	-0.444007	-0.874243	-0.196357	0.648913	-0.464856	0.602346
16421	10.604452	-2.312761	12.424851	-0.417240	-7.225253	-0.789848	-0.565907	0.112872	0.816706	-0.451522	-0.871257	-0.192455	0.689838	-0.477672	0.544015
16422	17.400544	-4.857493	14.369690	-1.050704	-7.318526	-0.642262	-0.511175	0.082889	0.855470	-0.462463	-0.865494	-0.192478	0.724450	-0.494014	0.480752
16423	24.850802	-9.778322	16.297104	-0.898834	-6.392510	-0.767782	-0.460357	0.057552	0.885866	-0.472871	-0.860439	-0.189836	0.751309	-0.506293	0.423323
16424	18.238774	-9.121796	14.074377	0.399584	-4.973311	-0.925458	-0.417991	0.040372	0.907554	-0.473935	-0.861980	-0.179934	0.775029	-0.505332	0.379434
16425	12.732347	-6.768342	12.324566	0.758239	-4.789866	-1.122448	-0.374979	0.025995	0.926669	-0.472467	-0.865399	-0.166909	0.797600	-0.500408	0.336788
16426	7.367817	-6.760780	11.211065	1.198226	-4.419858	-1.125230	-0.333942	0.013864	0.942492	-0.466819	-0.871089	-0.152588	0.818879	-0.490929	0.297365
16427	1.248622	-4.338773	9.480473	1.743355	-4.277380	-1.096167	-0.293385	0.002795	0.955990	-0.455838	-0.879406	-0.137322	0.840319	-0.476065	0.259279
16428	-2.174634	-2.862773	7.988191	1.980776	-4.482974	-1.133312	-0.250123	-0.008125	0.968180	-0.442111	-0.888669	-0.121674	0.861380	-0.458477	0.218684
16429	-4.863197	-2.004233	6.215302	2.518202	-3.716115	-1.325316	-0.212027	-0.012861	0.977179	-0.423281	-0.900046	-0.103689	0.880839	-0.435606	0.185390
16430	15.972463	1.455420	16.535607	1.098329	-5.676595	-1.711347	-0.154373	-0.021826	0.987772	-0.416707	-0.905047	-0.085123	0.895837	-0.424752	0.130620
16431	29.408391	-4.793623	12.971343	0.515263	-0.939778	-1.270921	-0.140702	-0.014240	0.989950	-0.414002	-0.907433	-0.071895	0.899336	-0.419956	0.121782
16432	8.651167	2.140892	20.883424	1.339289	2.163504	-1.158731	-0.155425	0.005276	0.987834	-0.403706	-0.913007	-0.058643	0.901590	-0.407909	0.144034
16433	11.154737	-4.739104	11.570970	-0.531521	3.040109	-0.546006	-0.180583	0.022778	0.983296	-0.409440	-0.910732	-0.054097	0.894286	-0.412370	0.173789
16434	0.786798	-7.372759	7.349734	0.375326	4.307501	-0.866005	-0.215399	0.048344	0.975329	-0.407862	-0.911940	-0.044873	0.887272	-0.407465	0.216149
16435	-1.615949	-6.058990	3.820980	0.682813	3.963446	-1.153126	-0.245861	0.074904	0.966407	-0.404535	-0.913960	-0.032078	0.880854	-0.398832	0.255008
16436	-1.864002	-5.028049	2.529323	0.631777	3.820711	-1.260123	-0.274273	0.101510	0.956279	-0.402321	-0.915317	-0.018229	0.873448	-0.389731	0.291887
16437	-2.105481	-3.654755	1.920865	0.598162	3.533633	-1.330645	-0.299771	0.127344	0.945474	-0.401000	-0.916070	-0.003757	0.865642	-0.380262	0.325676
16438	-1.046297	-2.285696	1.729182	0.062721	3.219258	-1.244387	-0.322451	0.150910	0.934479	-0.404383	-0.914553	0.008156	0.855862	-0.375258	0.355924
16439	-1.054444	-2.617392	1.936349	-0.626163	3.016186	-1.031565	-0.343975	0.171696	0.923148	-0.413208	-0.910507	0.015379	0.843173	-0.376162	0.384137
16440	0.144508	-3.369170	2.859606	-1.158473	2.674464	-0.767372	-0.363095	0.188812	0.912421	-0.425657	-0.904709	0.017826	0.828841	-0.381906	0.408865
16441	2.152491	-5.119434	4.085576	-1.545540	2.498840	-0.428648	-0.381871	0.202368	0.901788	-0.440012	-0.897864	0.015160	0.812751	-0.391008	0.431912
16442	4.123808	-6.822120	5.325675	-1.589244	2.495615	-0.058867	-0.401661	0.212779	0.890727	-0.453075	-0.891430	0.008639	0.795859	-0.400096	0.454457
16443	5.796922	-7.610784	6.362857	-1.379953	2.626780	0.358538	-0.424108	0.220216	0.878429	-0.462533	-0.886602	-0.001047	0.778586	-0.406746	0.477872
16444	6.672544	-8.341115	6.853552	-1.119564	2.857556	0.835586	-0.449971	0.224506	0.864363	-0.467548	-0.883860	-0.013826	0.760872	-0.410352	0.502678
16445	7.153944	-7.065673	6.649496	-0.630410	3.042293	1.308828	-0.479103	0.225421	0.848319	-0.466286	-0.884178	-0.028394	0.743665	-0.409164	0.528723
16446	6.279949	-5.308560	6.430460	-0.391542	3.190258	1.720451	-0.510505	0.223196	0.830403	-0.460698	-0.886417	-0.044970	0.726046	-0.405523	0.555346
16447	5.774583	-3.510466	6.342058	-0.240698	3.196414	1.966392	-0.542536	0.218633	0.811082	-0.452145	-0.889745	-0.062605	0.707968	-0.400692	0.581573
16448	5.816913	-2.297983	6.590960	-0.294244	3.159470	2.070853	-0.573855	0.212780	0.790832	-0.442687	-0.893014	-0.080956	0.688999	-0.396548	0.606655
16449	6.358861	-1.796496	7.081307	-0.351682	3.120205	2.033385	-0.604080	0.206931	0.769588	-0.433166	-0.895846	-0.099130	0.668920	-0.393242	0.630799
16450	6.641858	-1.669218	7.632595	-0.367797	3.130605	1.910129	-0.632863	0.202071	0.747430	-0.423820	-0.898287	-0.116001	0.647966	-0.390189	0.654135
