// General information: 
//  MT Manager version: 2022.2.0 
//  XDA version: 2022.2.0 build 7381 rev 124627 built on 2023-07-19
// Device information: 
//  DeviceId: 00B4CAF0
//  ProductCode: MTW2-3A7G6
//  Firmware Version: 4.6.0
//  Hardware Version: 2.0.0
// Device settings: 
//  Filter Profile: human(46.1)
//  Option Flags: Orientation Smoother Disabled, Position/Velocity Smoother Disabled, Continuous Zero Rotation Update Disabled, AHS Disabled, ICC Disabled
// Coordinate system: ENU
PacketCounter	Acc_X	Acc_Y	Acc_Z	Gyr_X	Gyr_Y	Gyr_Z	Mat[1][1]	Mat[2][1]	Mat[3][1]	Mat[1][2]	Mat[2][2]	Mat[3][2]	Mat[1][3]	Mat[2][3]	Mat[3][3]
16528	4.880682	-1.584197	8.900235	0.009590	0.023872	0.010327	-0.810254	-0.333327	0.482060	0.298368	-0.942552	-0.150239	0.504445	0.022099	0.863161
16529	4.895448	-1.609848	8.886374	0.010452	0.021382	0.012094	-0.810325	-0.333419	0.481876	0.298469	-0.942520	-0.150240	0.504271	0.022082	0.863263
16530	4.877511	-1.636530	8.916030	0.008980	0.020234	0.013438	-0.810387	-0.333524	0.481700	0.298579	-0.942483	-0.150252	0.504107	0.022063	0.863359
16531	4.957352	-1.669173	8.868727	0.013882	0.019228	0.008822	-0.810463	-0.333577	0.481534	0.298662	-0.942464	-0.150207	0.503935	0.022079	0.863460
16532	4.908975	-1.739809	8.901424	0.019258	0.013775	0.003622	-0.810522	-0.333588	0.481429	0.298744	-0.942458	-0.150083	0.503792	0.022179	0.863540
16533	4.922691	-1.658321	8.860494	0.021209	0.010476	0.001695	-0.810569	-0.333584	0.481352	0.298819	-0.942457	-0.149942	0.503671	0.022299	0.863608
16534	4.952325	-1.611403	8.858457	0.025790	0.018091	0.000304	-0.810659	-0.333564	0.481214	0.298907	-0.942460	-0.149745	0.503475	0.022446	0.863718
16535	4.901985	-1.575058	8.864462	0.026266	0.013645	-0.000278	-0.810724	-0.333547	0.481116	0.298997	-0.942462	-0.149551	0.503316	0.022608	0.863807
16536	4.905430	-1.549080	8.869519	0.026269	0.013643	-0.000279	-0.810793	-0.333521	0.481017	0.299083	-0.942467	-0.149347	0.503154	0.022774	0.863897
16537	4.912697	-1.508961	8.932237	0.017365	0.009973	0.009254	-0.810813	-0.333595	0.480934	0.299207	-0.942439	-0.149276	0.503049	0.022864	0.863956
16538	4.911874	-1.508387	8.932786	0.006210	0.005143	0.010254	-0.810808	-0.333666	0.480893	0.299277	-0.942414	-0.149296	0.503015	0.022869	0.863975
16539	4.892815	-1.603155	8.917119	0.001585	0.000730	0.013113	-0.810772	-0.333762	0.480885	0.299340	-0.942381	-0.149379	0.503034	0.022836	0.863965
16540	4.932446	-1.685007	8.904314	-0.000235	-0.005573	0.010642	-0.810712	-0.333835	0.480937	0.299381	-0.942355	-0.149457	0.503107	0.022817	0.863923
16541	4.953210	-1.696699	8.946963	0.003921	-0.000614	0.013539	-0.810669	-0.333935	0.480940	0.299460	-0.942320	-0.149522	0.503130	0.022810	0.863910
16542	4.867835	-1.678736	8.937279	-0.001904	-0.007696	0.010811	-0.810597	-0.334009	0.481009	0.299493	-0.942295	-0.149615	0.503225	0.022782	0.863855
16543	4.842888	-1.700400	8.943600	0.001264	-0.025312	0.005974	-0.810452	-0.334035	0.481236	0.299501	-0.942284	-0.149666	0.503454	0.022833	0.863720
16544	4.829238	-1.665482	8.903512	0.001777	-0.029061	-0.001247	-0.810309	-0.333990	0.481507	0.299455	-0.942298	-0.149669	0.503712	0.022911	0.863568
16545	4.829348	-1.732790	8.857653	0.003965	-0.034587	-0.003462	-0.810148	-0.333923	0.481825	0.299397	-0.942319	-0.149652	0.504006	0.023017	0.863394
16546	4.734835	-1.837276	8.847814	0.005705	-0.052655	-0.013598	-0.809923	-0.333757	0.482319	0.299271	-0.942373	-0.149562	0.504442	0.023211	0.863133
16547	4.672711	-1.966845	8.955104	0.008362	-0.076419	-0.023432	-0.809607	-0.333497	0.483029	0.299080	-0.942458	-0.149411	0.505062	0.023500	0.862763
16548	4.796136	-1.832044	8.929990	0.018814	-0.114097	-0.034336	-0.809132	-0.333120	0.484083	0.298853	-0.942578	-0.149107	0.505957	0.024022	0.862224
16549	4.816835	-1.790226	8.985926	0.017747	-0.141588	-0.038081	-0.808538	-0.332686	0.485373	0.298569	-0.942717	-0.148801	0.507073	0.024606	0.861552
16550	4.246485	-2.024009	9.287436	0.041026	-0.165936	-0.047282	-0.807836	-0.332172	0.486891	0.298351	-0.942874	-0.148242	0.508319	0.025509	0.860791
16551	4.394681	-2.169673	9.288422	0.042422	-0.271235	-0.089912	-0.806729	-0.331220	0.489369	0.297783	-0.943174	-0.147471	0.510406	0.026757	0.859517
16552	4.019157	-1.995343	9.521461	0.045909	-0.352648	-0.128266	-0.805305	-0.329886	0.492605	0.296939	-0.943596	-0.146471	0.513138	0.028320	0.857839
16553	2.566943	-1.343071	10.735536	-0.042282	-0.523459	-0.209558	-0.803226	-0.327736	0.497410	0.294993	-0.944305	-0.145830	0.517501	0.029598	0.855171
16554	4.694688	-1.430240	9.585062	-0.031638	-0.796641	-0.212262	-0.799701	-0.325460	0.504534	0.293082	-0.945019	-0.145060	0.524005	0.031865	0.851119
16555	3.707024	-1.560464	9.957522	-0.077324	-0.928726	-0.276939	-0.795601	-0.322536	0.512825	0.290443	-0.945943	-0.144344	0.531659	0.034107	0.846271
16556	4.303030	-1.433733	9.970941	-0.114259	-1.056894	-0.370069	-0.791003	-0.318633	0.522291	0.286850	-0.947180	-0.143415	0.540400	0.036378	0.840622
16557	4.510019	-1.782779	10.465313	-0.165091	-1.269920	-0.510700	-0.785517	-0.313324	0.533659	0.281912	-0.948854	-0.142136	0.550899	0.038795	0.833670
16558	4.619636	-3.083743	10.194563	-0.070225	-1.440224	-0.688893	-0.779420	-0.306167	0.546596	0.276085	-0.951026	-0.139019	0.562390	0.042553	0.825777
16559	5.166378	-2.811209	9.615051	0.032217	-1.613537	-0.844196	-0.772548	-0.297379	0.561013	0.269671	-0.953568	-0.134110	0.574846	0.047683	0.816871
16560	6.132966	-2.532125	9.454242	0.040417	-1.695236	-0.986784	-0.765315	-0.287074	0.576092	0.262271	-0.956442	-0.128191	0.587799	0.052986	0.807270
16561	6.374669	-4.783210	9.439396	0.048856	-1.705207	-1.158742	-0.758169	-0.275005	0.591229	0.253689	-0.959680	-0.121066	0.600684	0.058200	0.797365
16562	7.475123	-8.544292	9.272354	0.520729	-1.548087	-1.274504	-0.751978	-0.261754	0.604991	0.247173	-0.962784	-0.109331	0.611094	0.067323	0.788690
16563	6.634642	-7.516169	9.248036	1.247282	-1.416730	-1.303238	-0.746471	-0.248107	0.617433	0.245029	-0.965178	-0.091605	0.618661	0.082909	0.781271
16564	5.378978	-3.748463	9.839005	1.687490	-1.188288	-1.250024	-0.742158	-0.234905	0.627712	0.246157	-0.966648	-0.070705	0.623385	0.102041	0.775228
16565	2.944522	-0.915131	10.832613	1.581928	-0.851805	-1.118455	-0.739597	-0.223127	0.634989	0.247703	-0.967469	-0.051447	0.625811	0.119239	0.770806
16566	4.211117	2.053788	13.011174	1.011826	-0.717261	-0.914873	-0.737358	-0.213347	0.640926	0.247245	-0.968214	-0.037848	0.628628	0.130559	0.766669
16567	4.724575	0.393476	13.130387	0.004646	-0.255820	-0.537913	-0.737066	-0.207783	0.643087	0.243261	-0.969351	-0.034389	0.630522	0.131091	0.765021
16568	2.557700	-1.899895	11.033348	-0.516218	0.121266	-0.354572	-0.738678	-0.204470	0.642298	0.237341	-0.970756	-0.036077	0.630891	0.125794	0.765606
16569	1.578914	-3.375010	9.988326	-0.596767	0.423973	-0.288690	-0.742026	-0.202168	0.639160	0.231398	-0.972084	-0.038835	0.629168	0.119084	0.768093
16570	1.304564	-3.106035	9.127383	-0.500821	0.602263	-0.289625	-0.746463	-0.200021	0.634653	0.226051	-0.973258	-0.040862	0.625854	0.112962	0.771716
16571	1.800870	-1.854567	9.014388	-0.460610	0.783478	-0.314550	-0.752051	-0.197804	0.628723	0.220777	-0.974399	-0.042474	0.621029	0.106865	0.776468
16572	2.374246	-0.726499	9.105970	-0.564330	0.976410	-0.329829	-0.758799	-0.195566	0.621272	0.214750	-0.975640	-0.044828	0.614904	0.099403	0.782312
16573	2.861987	-0.496837	9.061130	-0.738669	1.167972	-0.337207	-0.766651	-0.193365	0.612254	0.207619	-0.977002	-0.048587	0.607569	0.089867	0.789167
16574	3.330503	-0.776697	8.684056	-0.862983	1.334313	-0.348782	-0.775407	-0.191052	0.601866	0.199675	-0.978410	-0.053331	0.599061	0.078825	0.796814
16575	3.585674	-1.375634	8.259180	-0.890666	1.466196	-0.348623	-0.784803	-0.188697	0.590319	0.191620	-0.979729	-0.058422	0.589377	0.067267	0.805053
16576	3.837055	-1.610957	7.967463	-0.837948	1.535181	-0.316102	-0.794360	-0.186517	0.578103	0.184181	-0.980847	-0.063377	0.578852	0.056132	0.813499
16577	4.102215	-1.539798	7.851196	-0.766808	1.567023	-0.244028	-0.803787	-0.184907	0.565452	0.177793	-0.981696	-0.068290	0.567729	0.045643	0.821949
16578	4.483533	-1.429368	7.800265	-0.725420	1.579630	-0.126360	-0.812881	-0.184280	0.552508	0.172648	-0.982230	-0.073597	0.556252	0.035563	0.830252
16579	4.845675	-1.517749	7.767570	-0.691516	1.575563	0.040338	-0.821486	-0.185147	0.539334	0.169130	-0.982372	-0.079627	0.544569	0.025805	0.838319
16580	5.276478	-1.756515	7.707701	-0.630116	1.547581	0.244545	-0.829407	-0.187850	0.526114	0.167707	-0.982056	-0.086259	0.532877	0.016689	0.846028
16581	5.717406	-1.776012	7.644607	-0.529940	1.503822	0.468591	-0.836546	-0.192628	0.512918	0.168777	-0.981234	-0.093238	0.521253	0.008570	0.853359
16582	6.173265	-1.707279	7.469344	-0.420496	1.456131	0.703611	-0.842848	-0.199574	0.499777	0.172471	-0.979882	-0.100428	0.509765	0.001552	0.860312
16583	6.462901	-1.635184	7.288731	-0.296441	1.381215	0.922699	-0.848194	-0.208575	0.486892	0.178738	-0.977997	-0.107583	0.498619	-0.004225	0.866811
16584	6.656389	-1.378700	7.183374	-0.170207	1.279894	1.107852	-0.852477	-0.219288	0.474548	0.187274	-0.975622	-0.114414	0.488069	-0.008665	0.872762
16585	7.054721	-0.928356	7.257170	-0.057027	1.161473	1.226830	-0.855731	-0.231107	0.462941	0.197437	-0.972856	-0.120709	0.478272	-0.011893	0.878131
16586	7.520217	-0.453732	7.265937	0.011230	1.056684	1.262082	-0.858174	-0.243202	0.452096	0.208261	-0.969870	-0.126411	0.469217	-0.014328	0.882967
16587	7.794926	0.156039	7.160603	0.037622	0.964673	1.208077	-0.860082	-0.254737	0.442004	0.218775	-0.966871	-0.131523	0.460865	-0.016421	0.887319
16588	7.615722	1.044736	6.918882	0.004129	0.870072	1.045543	-0.861724	-0.264653	0.432887	0.227751	-0.964163	-0.136087	0.453389	-0.018679	0.891117
16589	7.368256	2.653536	7.073320	-0.150456	0.747695	0.780418	-0.863292	-0.272001	0.425139	0.233764	-0.962041	-0.140823	0.447305	-0.022189	0.894106
16590	7.514531	4.263753	7.291848	-0.470815	0.634976	0.430263	-0.865108	-0.275950	0.418856	0.235343	-0.960749	-0.146881	0.442947	-0.028493	0.896095
16591	7.648278	4.785535	7.342204	-0.872464	0.587262	0.008058	-0.867682	-0.275814	0.413587	0.231521	-0.960438	-0.154780	0.439915	-0.038546	0.897212
16592	7.602367	4.269514	7.227543	-1.181773	0.574167	-0.486760	-0.871304	-0.270852	0.409228	0.222060	-0.961242	-0.163411	0.437627	-0.051508	0.897680
16593	7.890125	3.398246	7.275210	-1.342964	0.583546	-0.985759	-0.875970	-0.261006	0.405651	0.207544	-0.963076	-0.171492	0.435433	-0.066031	0.897796
16594	7.891395	2.536770	7.115927	-1.401516	0.618526	-1.408161	-0.881445	-0.246945	0.402582	0.189043	-0.965625	-0.178413	0.432801	-0.081156	0.897829
16595	7.853439	1.586792	6.648798	-1.404381	0.610729	-1.711703	-0.887133	-0.229830	0.400216	0.167806	-0.968461	-0.184189	0.429925	-0.096241	0.897720
16596	8.054891	0.407768	5.965211	-1.354743	0.547734	-1.894610	-0.892442	-0.210863	0.398854	0.145097	-0.971236	-0.188807	0.427193	-0.110627	0.897367
16597	8.125947	-0.616271	4.970854	-1.248012	0.416937	-1.913451	-0.896778	-0.191745	0.398778	0.122617	-0.973624	-0.192408	0.425153	-0.123651	0.896636
16598	7.539730	-2.178757	4.342735	-1.059959	0.210850	-1.758592	-0.899647	-0.174310	0.400315	0.102274	-0.975475	-0.194908	0.424471	-0.134406	0.895410
16599	-1.388600	-18.625503	2.872499	0.425684	-0.670826	-1.225179	-0.897972	-0.163204	0.408669	0.093036	-0.978101	-0.186181	0.430105	-0.129165	0.893491
16600	2.590950	9.495160	13.759345	1.471572	-0.194118	-1.355744	-0.898354	-0.150128	0.412823	0.087147	-0.982016	-0.167478	0.430542	-0.114478	0.895281
16601	1.363344	0.941118	17.135229	0.111648	-1.509097	-0.099343	-0.891837	-0.150834	0.426470	0.086702	-0.982289	-0.166103	0.443971	-0.111161	0.889119
16602	13.583004	-9.341274	10.664767	0.340510	-0.996675	-0.091350	-0.887443	-0.150995	0.435483	0.087371	-0.982797	-0.162716	0.452561	-0.106352	0.885369
16603	10.539831	4.484905	14.728660	0.658875	0.288958	-0.350884	-0.889048	-0.147224	0.433497	0.087181	-0.983999	-0.155388	0.449437	-0.100355	0.887657
16604	3.482502	-1.511307	7.072462	0.125488	-0.511120	-0.109693	-0.886829	-0.146627	0.438218	0.086729	-0.984285	-0.153824	0.453886	-0.098410	0.885609
16605	5.085480	-0.036317	11.000468	0.239906	-0.147209	-0.159399	-0.886293	-0.145178	0.439782	0.086361	-0.984749	-0.151037	0.455002	-0.095883	0.885313
16606	6.877645	-1.689295	9.877345	0.009780	-0.224490	-0.081154	-0.885334	-0.144568	0.441910	0.085642	-0.984875	-0.150619	0.457001	-0.095502	0.884324
16607	3.665678	-2.824194	8.920578	0.080832	-0.176956	-0.102874	-0.884606	-0.143701	0.443647	0.085056	-0.985099	-0.149484	0.458517	-0.094500	0.883647
16608	5.898199	-1.282289	10.447385	0.089805	-0.264835	-0.117651	-0.883483	-0.142764	0.446180	0.084384	-0.985352	-0.148194	0.460801	-0.093277	0.882588
16609	5.343721	-0.894525	8.563165	-0.072491	-0.114416	-0.070135	-0.883008	-0.142158	0.447312	0.083384	-0.985382	-0.148556	0.461892	-0.093878	0.881954
16610	4.538034	-0.590119	9.429241	-0.032702	-0.146972	-0.049504	-0.882364	-0.141783	0.448700	0.082751	-0.985422	-0.148649	0.463235	-0.094032	0.881233
16611	4.799331	-0.788054	8.951015	-0.054753	-0.056683	-0.014931	-0.882108	-0.141666	0.449240	0.082320	-0.985390	-0.149100	0.463799	-0.094541	0.880882
16612	4.306983	-0.869735	9.378783	-0.085426	-0.125260	0.006844	-0.881515	-0.141827	0.450352	0.081939	-0.985299	-0.149909	0.464992	-0.095246	0.880176
16613	4.502103	-1.076842	9.178192	-0.117249	-0.125389	0.015813	-0.880912	-0.142080	0.451450	0.081486	-0.985162	-0.151046	0.466212	-0.096272	0.879419
16614	4.532033	-1.225298	9.291819	-0.148178	-0.169757	0.030867	-0.880089	-0.142523	0.452914	0.081021	-0.984975	-0.152514	0.467846	-0.097531	0.878412
16615	4.786319	-1.306137	9.069035	-0.172384	-0.187249	0.038110	-0.879174	-0.143060	0.454518	0.080502	-0.984749	-0.154235	0.469651	-0.099010	0.877283
16616	4.802485	-1.418341	9.031728	-0.183816	-0.161450	0.049669	-0.878369	-0.143684	0.455875	0.080029	-0.984494	-0.156098	0.471236	-0.100629	0.876248
16617	4.711840	-1.907118	8.883070	-0.190482	-0.170351	0.055438	-0.877515	-0.144380	0.457298	0.079570	-0.984219	-0.158054	0.472902	-0.102307	0.875156
16618	4.994656	-2.479304	8.949770	-0.172134	-0.160834	0.047204	-0.876710	-0.144985	0.458649	0.079124	-0.983973	-0.159801	0.474468	-0.103809	0.874131
16619	5.449307	-2.515490	8.414818	-0.089041	-0.090961	0.014401	-0.876260	-0.145199	0.459440	0.078781	-0.983858	-0.160679	0.475354	-0.104602	0.873554
16620	4.721470	-1.508660	9.189104	-0.077094	-0.054615	0.004647	-0.875991	-0.145277	0.459929	0.078410	-0.983769	-0.161400	0.475911	-0.105322	0.873164
16621	4.843030	-1.643018	8.925440	-0.080140	-0.033267	0.002749	-0.875824	-0.145316	0.460233	0.078006	-0.983679	-0.162146	0.476284	-0.106110	0.872865
16622	4.636594	-1.717787	8.975306	-0.075159	-0.036701	0.004520	-0.875640	-0.145375	0.460566	0.077642	-0.983591	-0.162848	0.476682	-0.106837	0.872559
16623	4.748508	-1.925674	8.973914	-0.034921	-0.035375	-0.010782	-0.875474	-0.145284	0.460910	0.077335	-0.983568	-0.163137	0.477038	-0.107178	0.872323
16624	4.854949	-2.209773	8.812690	0.000143	-0.039374	-0.029065	-0.875302	-0.145015	0.461321	0.077036	-0.983609	-0.163028	0.477401	-0.107160	0.872127
16625	4.787564	-1.903259	8.989116	0.024206	-0.014706	-0.039752	-0.875256	-0.144617	0.461532	0.076757	-0.983691	-0.162667	0.477530	-0.106950	0.872082
16626	4.736129	-1.898517	8.986698	0.034382	-0.037174	-0.044059	-0.875106	-0.144198	0.461948	0.076491	-0.983790	-0.162190	0.477847	-0.106599	0.871951
16627	4.717471	-1.755360	9.036190	0.038993	-0.045010	-0.050647	-0.874924	-0.143725	0.462441	0.076187	-0.983903	-0.161650	0.478230	-0.106199	0.871790
16628	4.790586	-1.678296	8.966317	0.037371	-0.055122	-0.050609	-0.874692	-0.143260	0.463022	0.075878	-0.984014	-0.161115	0.478702	-0.105793	0.871580
16629	4.863795	-1.577848	8.902873	0.040472	-0.055856	-0.044700	-0.874453	-0.142857	0.463599	0.075635	-0.984119	-0.160590	0.479178	-0.105364	0.871370
16630	4.667121	-1.522040	9.069068	0.018896	-0.041013	-0.036737	-0.874278	-0.142513	0.464035	0.075359	-0.984191	-0.160280	0.479541	-0.105160	0.871196
16631	4.838169	-1.488387	8.967390	0.015987	-0.041824	-0.031746	-0.874095	-0.142222	0.464469	0.075112	-0.984251	-0.160028	0.479913	-0.104992	0.871011
16632	4.886790	-1.456559	8.952388	0.006240	-0.051515	-0.020917	-0.873857	-0.142045	0.464970	0.074913	-0.984286	-0.159902	0.480377	-0.104899	0.870766
16633	4.858029	-1.608606	8.950634	-0.007709	-0.029298	-0.015819	-0.873722	-0.141898	0.465269	0.074692	-0.984299	-0.159929	0.480658	-0.104982	0.870602
16634	4.861742	-1.678443	8.928675	0.000599	-0.033130	-0.018197	-0.873570	-0.141728	0.465606	0.074490	-0.984324	-0.159865	0.480965	-0.104970	0.870433
16635	4.758557	-1.802049	8.831100	0.019891	-0.029996	-0.027608	-0.873440	-0.141465	0.465930	0.074298	-0.984382	-0.159597	0.481231	-0.104780	0.870309
16636	4.900063	-1.340240	8.921336	0.036854	-0.020124	-0.029976	-0.873359	-0.141166	0.466172	0.074168	-0.984463	-0.159162	0.481397	-0.104430	0.870259
16637	4.846034	-1.375626	8.965031	0.014390	-0.012202	-0.012720	-0.873303	-0.141031	0.466317	0.074080	-0.984494	-0.159011	0.481512	-0.104320	0.870209
16638	4.692602	-1.575190	9.038807	0.002768	-0.009840	-0.008694	-0.873256	-0.140930	0.466436	0.073972	-0.984508	-0.158972	0.481614	-0.104320	0.870153
16639	4.729342	-1.835754	8.974784	-0.003585	-0.025585	-0.009498	-0.873134	-0.140841	0.466692	0.073825	-0.984516	-0.158992	0.481859	-0.104368	0.870011
16640	4.865152	-1.816798	8.913811	0.000445	-0.040030	-0.016887	-0.872947	-0.140691	0.467087	0.073635	-0.984539	-0.158935	0.482226	-0.104348	0.869810
16641	4.889615	-1.695048	8.936150	0.009137	-0.031024	-0.023135	-0.872808	-0.140473	0.467412	0.073430	-0.984579	-0.158781	0.482509	-0.104263	0.869664
16642	4.861739	-1.674837	8.870990	0.011027	-0.032782	-0.026035	-0.872662	-0.140225	0.467758	0.073211	-0.984627	-0.158589	0.482805	-0.104149	0.869513
16643	4.575034	-1.369806	9.041273	0.002436	-0.016145	-0.019555	-0.872592	-0.140027	0.467948	0.073005	-0.984655	-0.158510	0.482962	-0.104152	0.869425
16644	4.266229	-1.642943	8.918410	-0.019459	-0.067026	-0.020706	-0.872277	-0.139867	0.468582	0.072685	-0.984663	-0.158607	0.483579	-0.104290	0.869065
16645	4.021081	-1.836839	9.124369	-0.076392	-0.158797	-0.042116	-0.871532	-0.139596	0.470047	0.071902	-0.984640	-0.159107	0.485038	-0.104869	0.868183
16646	4.391461	-1.901436	8.980779	-0.094292	-0.206700	-0.063849	-0.870567	-0.139160	0.471961	0.070842	-0.984629	-0.159649	0.486923	-0.105551	0.867044
16647	4.564244	-1.813685	9.089494	-0.104492	-0.269134	-0.083798	-0.869306	-0.138598	0.474445	0.069556	-0.984632	-0.160191	0.489356	-0.106255	0.865587
16648	5.145986	-2.012307	8.628752	-0.080173	-0.287925	-0.095344	-0.867952	-0.137940	0.477107	0.068289	-0.984678	-0.160456	0.491930	-0.106687	0.864073
16649	5.020642	-1.659410	8.876154	-0.065931	-0.195920	-0.094459	-0.867044	-0.137197	0.478969	0.067098	-0.984735	-0.160607	0.493692	-0.107115	0.863015
16650	5.151867	-1.759925	8.779392	-0.034608	-0.223237	-0.098834	-0.865999	-0.136438	0.481072	0.066025	-0.984832	-0.160456	0.495668	-0.107192	0.861872
16651	5.211038	-1.485447	8.883287	-0.023698	-0.171468	-0.090612	-0.865201	-0.135707	0.482713	0.065076	-0.984928	-0.160256	0.497185	-0.107241	0.860991
16652	5.043479	-1.651487	8.834705	-0.021195	-0.162872	-0.087733	-0.864440	-0.134992	0.484274	0.064166	-0.985023	-0.160039	0.498625	-0.107270	0.860155
16653	5.099485	-1.415771	8.986116	-0.021646	-0.164823	-0.082318	-0.863662	-0.134336	0.485841	0.063300	-0.985108	-0.159859	0.500081	-0.107310	0.859304
16654	5.354832	-1.354354	8.870918	-0.030425	-0.148562	-0.065638	-0.862953	-0.133824	0.487241	0.062535	-0.985163	-0.159825	0.501400	-0.107452	0.858517
16655	5.106196	-1.426046	8.921313	-0.045154	-0.124573	-0.049804	-0.862351	-0.133445	0.488408	0.061832	-0.985178	-0.160002	0.502521	-0.107779	0.857821
16656	5.185607	-1.581733	8.834543	-0.048945	-0.126127	-0.040182	-0.861735	-0.133160	0.489573	0.061193	-0.985178	-0.160249	0.503655	-0.108134	0.857110
16657	5.218571	-1.565185	8.764775	-0.046152	-0.114976	-0.031402	-0.861167	-0.132953	0.490627	0.060643	-0.985167	-0.160523	0.504692	-0.108484	0.856456
16658	4.988546	-1.604775	8.702553	-0.040463	-0.095135	-0.027654	-0.860696	-0.132758	0.491505	0.060155	-0.985159	-0.160758	0.505552	-0.108798	0.855909
16659	4.639978	-1.763974	8.867525	-0.037288	-0.119068	-0.031855	-0.860106	-0.132552	0.492593	0.059645	-0.985158	-0.160953	0.506617	-0.109056	0.855246
16660	4.796433	-1.883935	8.835806	-0.041439	-0.158909	-0.044465	-0.859319	-0.132262	0.494042	0.059006	-0.985171	-0.161111	0.508025	-0.109295	0.854380
16661	4.658793	-1.799764	9.047207	-0.037108	-0.176182	-0.055844	-0.858448	-0.131883	0.495655	0.058291	-0.985201	-0.161184	0.509577	-0.109476	0.853432
16662	4.800290	-1.991818	9.001826	-0.035135	-0.215926	-0.067679	-0.857378	-0.131427	0.497625	0.057484	-0.985251	-0.161171	0.511467	-0.109579	0.852287
16663	4.607949	-2.094437	9.074748	-0.007496	-0.277625	-0.098972	-0.856004	-0.130734	0.500166	0.056551	-0.985370	-0.160773	0.513867	-0.109338	0.850873
16664	4.660298	-2.101494	9.102305	0.015461	-0.334117	-0.105998	-0.854334	-0.130028	0.503195	0.055678	-0.985524	-0.160134	0.516733	-0.108791	0.849206
16665	4.384825	-1.403252	9.571732	-0.000621	-0.386626	-0.152361	-0.852407	-0.128925	0.506736	0.054328	-0.985718	-0.159401	0.520049	-0.108345	0.847237
16666	4.777185	-1.472320	9.223365	0.011135	-0.566182	-0.136375	-0.849514	-0.128166	0.511760	0.053179	-0.985904	-0.158636	0.524878	-0.107549	0.844355
16667	4.723576	-1.475788	9.311168	-0.009060	-0.534146	-0.133521	-0.846762	-0.127401	0.516492	0.051952	-0.986062	-0.158057	0.529430	-0.107004	0.841578
16668	4.797824	-1.116366	9.376657	-0.007343	-0.656017	-0.110076	-0.843319	-0.126990	0.522194	0.050936	-0.986193	-0.157570	0.534994	-0.106283	0.838144
16669	5.064992	-1.265170	9.095011	-0.011418	-0.716199	-0.088601	-0.839503	-0.126854	0.528339	0.050082	-0.986291	-0.157230	0.541042	-0.105535	0.834348
16670	4.964185	-1.407631	9.113489	0.005692	-0.766698	-0.058809	-0.835352	-0.127054	0.534831	0.049573	-0.986371	-0.156892	0.547476	-0.104547	0.830265
16671	4.917635	-1.790365	9.090060	0.048826	-0.855343	-0.062913	-0.830662	-0.127300	0.542028	0.049271	-0.986499	-0.156179	0.554592	-0.103025	0.825720
16672	4.875509	-2.169519	9.155706	0.105925	-0.962097	-0.096191	-0.825327	-0.127306	0.550116	0.049019	-0.986729	-0.154803	0.562523	-0.100797	0.820615
16673	4.689347	-2.788264	9.364045	0.164231	-1.089712	-0.168196	-0.819224	-0.126707	0.559301	0.048520	-0.987103	-0.152555	0.571418	-0.097840	0.814806
16674	4.749339	-2.923446	9.361485	0.291066	-1.287677	-0.272198	-0.811922	-0.125225	0.570177	0.047931	-0.987724	-0.148677	0.581796	-0.093385	0.807956
16675	4.932092	-2.724285	9.138651	0.413352	-1.461561	-0.389299	-0.803511	-0.122680	0.582512	0.047168	-0.988578	-0.143138	0.593419	-0.087537	0.800120
16676	5.112132	-2.245799	8.960051	0.521823	-1.622160	-0.503629	-0.794007	-0.119036	0.596140	0.046226	-0.989625	-0.136036	0.606148	-0.080456	0.791272
16677	5.147459	-2.244589	8.800443	0.612624	-1.787241	-0.612935	-0.783322	-0.114312	0.611014	0.045101	-0.990807	-0.127546	0.619977	-0.072353	0.781277
16678	5.136784	-2.154548	8.918432	0.755245	-1.977932	-0.735901	-0.771229	-0.108325	0.627273	0.044071	-0.992136	-0.117149	0.635030	-0.062704	0.769938
16679	4.647617	-2.216899	9.378393	0.837357	-2.240528	-0.924303	-0.757204	-0.100415	0.645414	0.042347	-0.993581	-0.104901	0.651804	-0.052100	0.756596
16680	4.916450	-2.899490	9.417196	0.948410	-2.586272	-1.140681	-0.740559	-0.090239	0.665904	0.040027	-0.995107	-0.090336	0.670798	-0.040245	0.740548
16681	5.634446	-2.867711	10.349754	0.989681	-2.878871	-1.378843	-0.721470	-0.077471	0.688099	0.036640	-0.996601	-0.073787	0.691476	-0.028023	0.721856
16682	6.471701	-4.007925	10.042899	0.978823	-3.036513	-1.649985	-0.700701	-0.061658	0.710786	0.031729	-0.997966	-0.055292	0.712749	-0.016191	0.701232
16683	8.892311	-3.487927	10.625586	1.038338	-3.165298	-1.838050	-0.678325	-0.043609	0.733467	0.026519	-0.999040	-0.034874	0.734284	-0.004205	0.678830
16684	9.290865	-3.694542	10.286427	0.854452	-3.090509	-2.013259	-0.655763	-0.023442	0.754603	0.019399	-0.999711	-0.014198	0.754717	0.005328	0.656028
16685	10.281277	-4.796458	10.109653	0.750990	-3.121305	-2.162477	-0.632214	-0.001514	0.774792	0.011167	-0.999912	0.007158	0.774713	0.013177	0.632175
16686	10.293452	-4.080976	9.811718	0.910724	-3.084873	-2.352692	-0.608179	0.022578	0.793479	0.003665	-0.999505	0.031250	0.793791	0.021914	0.607795
16687	10.289610	-4.253718	9.551291	0.935027	-2.980841	-2.506874	-0.584239	0.048413	0.810136	-0.003826	-0.998372	0.056903	0.811572	0.030145	0.583474
16688	10.243342	-5.410905	9.636729	1.035808	-2.871595	-2.603630	-0.560496	0.075401	0.824717	-0.010289	-0.996404	0.084105	0.828093	0.038655	0.559256
16689	7.918326	-6.104245	8.629340	1.287536	-2.625928	-2.756221	-0.538204	0.103989	0.836375	-0.014724	-0.993368	0.114033	0.842686	0.049058	0.536166
16690	6.849975	-5.540412	7.553079	1.684121	-2.503233	-2.942914	-0.516471	0.134589	0.845662	-0.015990	-0.988915	0.147622	0.856155	0.062720	0.512898
16691	2.840031	-5.012091	5.197672	2.224818	-2.534863	-3.224311	-0.494122	0.168203	0.852966	-0.013138	-0.982438	0.186124	0.869293	0.080762	0.487654
16692	2.523499	-2.966864	8.162539	2.959647	-2.499713	-3.433664	-0.471926	0.204138	0.857679	-0.003862	-0.973294	0.229530	0.881630	0.105009	0.460111
16693	15.598308	1.272040	17.266730	2.682066	-1.955386	-2.728251	-0.454638	0.232843	0.859703	0.007217	-0.964230	0.264970	0.890647	0.126670	0.436695
16694	10.165632	-0.480566	18.808004	0.965228	-0.024179	-1.668507	-0.454536	0.248948	0.855232	0.008177	-0.958942	0.283483	0.890691	0.135847	0.433838
16695	5.706473	-2.347419	14.933691	-0.153095	0.891989	-0.761830	-0.462508	0.255034	0.849143	0.003275	-0.957238	0.289284	0.886609	0.136577	0.441895
16696	1.448496	-5.339469	10.803676	-0.739263	1.495417	-0.024736	-0.475699	0.253283	0.842353	-0.003422	-0.958171	0.286175	0.879601	0.133251	0.456668
16697	-1.076596	-6.664832	7.472466	-0.758351	1.631402	0.408109	-0.490014	0.247219	0.835924	-0.008140	-0.960198	0.279201	0.871676	0.130008	0.472523
16698	-1.572043	-6.413455	5.832556	-0.466363	1.531645	0.644438	-0.503347	0.239067	0.830354	-0.009038	-0.962369	0.271597	0.864037	0.129203	0.486566
16699	-0.697546	-5.147490	6.041384	-0.190476	1.438541	0.804392	-0.515796	0.229443	0.825415	-0.006625	-0.964509	0.263967	0.856686	0.130685	0.499010
16700	0.847091	-3.910756	7.097602	-0.080563	1.439036	0.974141	-0.528099	0.218167	0.820679	-0.002279	-0.966795	0.255543	0.849180	0.133081	0.511061
16701	2.845732	-2.816085	8.506405	-0.160352	1.599406	1.171160	-0.541622	0.204677	0.815323	0.002584	-0.969495	0.245097	0.840618	0.134857	0.524571
16702	4.615379	-1.920925	9.509155	-0.369163	1.919191	1.384738	-0.557574	0.188669	0.808403	0.007059	-0.972717	0.231886	0.830097	0.135000	0.541030
16703	5.780218	-1.246558	9.761529	-0.647171	2.311825	1.606447	-0.576485	0.169906	0.799248	0.010795	-0.976474	0.215366	0.817036	0.132783	0.561089
16704	6.129927	-0.854989	9.067532	-0.897666	2.696417	1.785703	-0.598072	0.148941	0.787481	0.013966	-0.980494	0.196053	0.801321	0.128252	0.584325
16705	5.770634	-0.543671	7.897978	-1.065734	2.959643	1.904799	-0.621245	0.126512	0.773337	0.017093	-0.984459	0.174781	0.783430	0.121800	0.609428
16706	5.299259	-0.094152	6.934965	-1.169115	3.061693	1.953761	-0.644562	0.103663	0.757492	0.020360	-0.988087	0.152545	0.764281	0.113747	0.634773
16707	5.342754	0.525280	6.496991	-1.256912	3.031394	1.934857	-0.667026	0.081198	0.740596	0.023527	-0.991252	0.129869	0.744663	0.104050	0.659281
16708	6.072421	1.183357	6.597541	-1.367674	2.951857	1.858978	-0.688248	0.059871	0.723001	0.026023	-0.993910	0.107077	0.725009	0.092510	0.682498
16709	6.991987	1.263571	6.715835	-1.513448	2.918721	1.768242	-0.708660	0.039762	0.704429	0.027515	-0.996094	0.083905	0.705013	0.078843	0.704798
16710	7.198554	0.513672	6.770215	-1.589139	2.875945	1.667808	-0.728170	0.021110	0.685071	0.028404	-0.997738	0.060935	0.684808	0.063829	0.725923
16711	7.291494	-0.253016	7.158437	-1.559293	2.800683	1.614800	-0.746612	0.003402	0.665251	0.029756	-0.998815	0.038503	0.664594	0.048542	0.745626
16712	7.714145	-0.377355	7.857967	-1.507197	2.718695	1.675996	-0.763877	-0.014428	0.645200	0.032499	-0.999342	0.016129	0.644543	0.033289	0.763843
16713	8.215904	-0.113559	8.729353	-1.498766	2.680725	1.858232	-0.780250	-0.033693	0.624560	0.037305	-0.999277	-0.007305	0.624355	0.017600	0.780943
16714	8.886620	-0.227592	9.398817	-1.496925	2.679216	2.128851	-0.795821	-0.055187	0.603011	0.044840	-0.998475	-0.032203	0.603869	0.001411	0.797082
16715	9.521727	-0.450323	10.048550	-1.404891	2.689949	2.427193	-0.810573	-0.079239	0.580253	0.055970	-0.996750	-0.057931	0.582958	-0.014480	0.812373
16716	10.725837	0.218340	10.565313	-1.236834	2.675665	2.701423	-0.824168	-0.105519	0.556428	0.070924	-0.993985	-0.083444	0.561886	-0.029308	0.826695
16717	12.615016	1.508659	10.472767	-1.089735	2.673444	2.959892	-0.836542	-0.133923	0.531284	0.089470	-0.990042	-0.108688	0.540549	-0.043388	0.840193
16718	14.048861	2.371516	9.244222	-0.950078	2.663778	3.185654	-0.847454	-0.164023	0.504895	0.111216	-0.984821	-0.133261	0.519089	-0.056780	0.852832
16719	14.670641	2.946687	7.449631	-0.717867	2.570722	3.321680	-0.856433	-0.195029	0.478003	0.135840	-0.978402	-0.155812	0.498067	-0.068511	0.864428
16720	14.234637	3.010810	5.583436	-0.373111	2.347767	3.286006	-0.862996	-0.225330	0.452178	0.162227	-0.971225	-0.174367	0.478457	-0.077123	0.874718
16721	13.509861	3.511214	4.297604	0.064522	1.981650	2.972019	-0.867104	-0.252524	0.429374	0.188214	-0.964169	-0.186958	0.461201	-0.081298	0.883563
16722	13.773778	5.482958	3.763004	0.348341	1.584937	2.386900	-0.869539	-0.274148	0.410786	0.210479	-0.958171	-0.193923	0.446767	-0.082161	0.890870
16723	14.133726	7.731556	3.674355	0.249719	1.293563	1.702374	-0.871528	-0.289346	0.395877	0.226370	-0.953578	-0.198611	0.434967	-0.083481	0.896568
16724	14.352632	9.434762	3.688019	-0.154326	1.013305	1.084208	-0.873390	-0.298773	0.384610	0.235122	-0.950261	-0.204258	0.426507	-0.087966	0.900196
16725	14.958055	9.120559	2.865532	-0.666976	0.760799	0.577386	-0.875254	-0.303542	0.376552	0.237310	-0.947904	-0.212514	0.421442	-0.096644	0.901691
16726	12.947059	2.258984	2.475168	-1.073199	0.443570	0.152426	-0.876761	-0.304507	0.372244	0.234086	-0.946345	-0.222787	0.420112	-0.108194	0.901000
16727	13.315885	2.692428	-7.300041	1.347871	-0.971426	-1.018976	-0.875024	-0.295804	0.383188	0.230824	-0.950755	-0.206844	0.425503	-0.092545	0.900213
16728	11.696975	6.442169	-0.376240	1.139305	-1.018900	-1.091753	-0.873150	-0.286249	0.394552	0.226122	-0.954913	-0.192381	0.431831	-0.078760	0.898509
16729	13.600085	6.782796	1.635157	1.195146	-1.596036	-0.800118	-0.867970	-0.279708	0.410355	0.224343	-0.958025	-0.178489	0.443055	-0.062863	0.894288
16730	9.133561	8.363423	11.285493	0.998532	-1.397248	-0.526613	-0.862890	-0.275417	0.423753	0.224216	-0.960053	-0.167411	0.452933	-0.049445	0.890172
16731	7.487904	5.845871	16.700558	0.255857	-0.957056	-0.243212	-0.859061	-0.273509	0.432674	0.223247	-0.960844	-0.164133	0.460624	-0.044407	0.886484
16732	12.647688	-7.447508	16.013255	0.366162	-1.233583	-0.613978	-0.854677	-0.268083	0.444589	0.219647	-0.962662	-0.158230	0.470407	-0.037583	0.881649
16733	11.873061	2.743828	12.857370	0.346817	0.308487	-0.497912	-0.857208	-0.263152	0.442657	0.216966	-0.964115	-0.152994	0.467033	-0.035106	0.883543
16734	-1.167125	-7.598062	5.138230	-0.143256	-0.763965	-0.149199	-0.853934	-0.261953	0.449641	0.214971	-0.964463	-0.153618	0.473903	-0.034520	0.879900
16735	8.169233	-1.337131	11.107802	0.559923	-0.670734	-0.388737	-0.851573	-0.258387	0.456136	0.214278	-0.965652	-0.146971	0.478445	-0.027417	0.877690
16736	8.617455	1.777736	13.656423	-0.047777	-0.596133	-0.171298	-0.849068	-0.256867	0.461630	0.212547	-0.966087	-0.146630	0.483639	-0.026381	0.874870
16737	7.778638	-2.619669	7.489684	-0.253883	-0.354371	-0.017272	-0.847382	-0.256773	0.464770	0.211123	-0.966067	-0.148801	0.487207	-0.027968	0.872839
16738	6.078313	-0.846766	9.620168	-0.062581	0.051293	0.017565	-0.847593	-0.256902	0.464315	0.210922	-0.966010	-0.149455	0.486928	-0.028742	0.872969
16739	3.852237	-0.923966	9.366183	-0.073517	-0.043190	0.039236	-0.847297	-0.257269	0.464652	0.210850	-0.965893	-0.150311	0.487474	-0.029386	0.872643
16740	4.827056	-1.934689	8.814545	-0.091069	-0.143441	0.044992	-0.846499	-0.257720	0.465854	0.210742	-0.965756	-0.151340	0.488904	-0.029935	0.871824
16741	4.647646	-1.109700	9.004097	-0.073756	-0.103048	0.036881	-0.845914	-0.258084	0.466714	0.210647	-0.965643	-0.152188	0.489956	-0.030426	0.871216
16742	4.779508	-0.443582	9.174542	-0.118187	-0.115431	0.050971	-0.845238	-0.258586	0.467660	0.210453	-0.965481	-0.153480	0.491205	-0.031307	0.870481
16743	5.692950	-1.762275	8.784459	-0.110538	-0.108422	0.045619	-0.844606	-0.259037	0.468552	0.210249	-0.965333	-0.154688	0.492378	-0.032138	0.869788
16744	4.937809	-1.491325	8.935665	-0.093775	-0.003556	0.048548	-0.844484	-0.259480	0.468526	0.210152	-0.965182	-0.155756	0.492629	-0.033072	0.869611
16745	4.956447	-1.246913	9.021384	-0.093409	-0.006608	0.064817	-0.844312	-0.260084	0.468501	0.210193	-0.964987	-0.156904	0.492906	-0.034000	0.869418
16746	5.079917	-1.878772	8.794367	-0.087366	0.014712	0.080457	-0.844213	-0.260829	0.468265	0.210396	-0.964753	-0.158066	0.492989	-0.034920	0.869335
16747	4.963452	-1.809968	8.841185	-0.051572	0.058336	0.077574	-0.844334	-0.261533	0.467654	0.210751	-0.964537	-0.158909	0.492630	-0.035614	0.869510
16748	4.723795	-1.729442	9.032508	-0.036011	0.064073	0.071418	-0.844496	-0.262173	0.467002	0.211132	-0.964343	-0.159581	0.492188	-0.036167	0.869737
16749	4.664318	-1.717032	9.092476	-0.036233	0.046934	0.074996	-0.844566	-0.262855	0.466493	0.211540	-0.964138	-0.160278	0.491893	-0.036684	0.869882
16750	4.690438	-1.932027	8.994497	-0.028139	0.012937	0.068006	-0.844483	-0.263480	0.466290	0.211931	-0.963954	-0.160866	0.491867	-0.037027	0.869883
16751	4.665596	-2.126800	8.953303	-0.025167	-0.003089	0.052055	-0.844355	-0.263959	0.466252	0.212201	-0.963812	-0.161360	0.491971	-0.037306	0.869812
16752	4.663815	-2.243020	8.894621	-0.007551	-0.032344	0.021207	-0.844148	-0.264150	0.466518	0.212298	-0.963759	-0.161550	0.492284	-0.037331	0.869634
16753	4.959186	-2.112744	8.819192	0.001516	-0.043681	-0.007808	-0.843947	-0.264067	0.466929	0.212193	-0.963785	-0.161532	0.492675	-0.037246	0.869416
16754	4.850706	-1.765430	8.909336	0.008148	-0.019937	-0.022045	-0.843893	-0.263836	0.467157	0.212002	-0.963852	-0.161384	0.492849	-0.037152	0.869321
16755	4.659273	-1.635459	9.006843	0.002291	-0.025945	-0.025906	-0.843817	-0.263572	0.467443	0.211749	-0.963926	-0.161276	0.493088	-0.037107	0.869188
16756	4.801374	-1.399631	9.004208	-0.001502	-0.028897	-0.018723	-0.843711	-0.263377	0.467744	0.211538	-0.963980	-0.161227	0.493359	-0.037083	0.869035
16757	4.648685	-1.586630	9.024835	-0.011980	-0.029149	-0.004141	-0.843573	-0.263324	0.468022	0.211398	-0.963991	-0.161344	0.493655	-0.037166	0.868863
16758	4.829179	-1.769731	8.833889	-0.015659	-0.049591	-0.009106	-0.843345	-0.263229	0.468487	0.211199	-0.964015	-0.161463	0.494130	-0.037225	0.868591
16759	4.954446	-1.588069	8.852028	-0.003922	-0.031600	-0.014049	-0.843215	-0.263082	0.468802	0.211015	-0.964055	-0.161463	0.494429	-0.037224	0.868420
16760	4.934466	-1.497873	8.913743	0.000761	-0.016792	-0.008872	-0.843149	-0.262976	0.468982	0.210899	-0.964084	-0.161440	0.494593	-0.037211	0.868328
16761	4.800384	-1.607941	8.919069	-0.000408	0.004222	-0.007202	-0.843182	-0.262882	0.468975	0.210790	-0.964108	-0.161442	0.494583	-0.037270	0.868331
16762	4.685026	-1.830424	8.968265	-0.003547	-0.013502	-0.016419	-0.843147	-0.262703	0.469138	0.210589	-0.964155	-0.161422	0.494728	-0.037307	0.868247
16763	4.663905	-1.930100	8.978641	-0.007625	-0.029726	-0.028588	-0.843057	-0.262414	0.469461	0.210263	-0.964232	-0.161386	0.495019	-0.037347	0.868079
16764	4.615529	-2.000245	8.982145	-0.023521	-0.052702	-0.036668	-0.842870	-0.262055	0.469997	0.209793	-0.964325	-0.161443	0.495537	-0.037474	0.867778
16765	4.805849	-1.855079	8.903420	-0.015617	-0.085649	-0.052438	-0.842552	-0.261558	0.470843	0.209227	-0.964461	-0.161365	0.496316	-0.037445	0.867334
16766	4.897138	-1.624625	8.838962	-0.016419	-0.070974	-0.053837	-0.842310	-0.261039	0.471564	0.208647	-0.964601	-0.161278	0.496972	-0.037456	0.866958
16767	4.843430	-1.574856	8.877579	-0.010910	-0.058633	-0.046917	-0.842113	-0.260585	0.472167	0.208151	-0.964724	-0.161184	0.497513	-0.037453	0.866648
16768	4.880086	-1.502661	8.879284	-0.005322	-0.062639	-0.043094	-0.841888	-0.260167	0.472798	0.207717	-0.964840	-0.161052	0.498075	-0.037380	0.866328
16769	4.869405	-1.453420	8.897320	-0.003081	-0.050530	-0.033232	-0.841702	-0.259841	0.473308	0.207375	-0.964930	-0.160954	0.498531	-0.037323	0.866068
16770	4.676011	-1.727739	8.998109	-0.011574	-0.051965	-0.028122	-0.841498	-0.259564	0.473822	0.207036	-0.965004	-0.160946	0.499016	-0.037338	0.865788
16771	4.002737	-2.076351	9.002490	-0.043934	-0.077233	-0.040490	-0.841193	-0.259178	0.474574	0.206429	-0.965097	-0.161166	0.499781	-0.037606	0.865335
16772	3.898110	-2.249080	9.145801	-0.086777	-0.219065	-0.082295	-0.840263	-0.258441	0.476620	0.205258	-0.965283	-0.161550	0.501825	-0.037915	0.864138
16773	4.899484	-1.993366	8.675450	-0.090501	-0.305675	-0.113054	-0.838953	-0.257442	0.479460	0.203807	-0.965544	-0.161824	0.504600	-0.038045	0.862515
16774	5.258191	-1.593437	8.720287	-0.049248	-0.229472	-0.118966	-0.838031	-0.256355	0.481649	0.202515	-0.965837	-0.161701	0.506647	-0.037970	0.861317
16775	4.734067	-1.752946	8.819753	-0.052433	-0.218533	-0.116890	-0.837154	-0.255286	0.483737	0.201223	-0.966120	-0.161621	0.508608	-0.037962	0.860161
16776	5.257823	-1.220592	8.874484	-0.028087	-0.242758	-0.117699	-0.836150	-0.254214	0.486033	0.200050	-0.966415	-0.161316	0.510718	-0.037654	0.858923
16777	5.335110	-1.111216	8.920049	-0.036304	-0.189369	-0.095890	-0.835369	-0.253336	0.487831	0.199016	-0.966649	-0.161192	0.512397	-0.037569	0.857927
16778	5.244486	-1.553932	8.813061	-0.035514	-0.146983	-0.077533	-0.834766	-0.252615	0.489235	0.198141	-0.966837	-0.161143	0.513718	-0.037579	0.857136
16779	4.929615	-1.830385	8.752864	-0.032487	-0.139451	-0.076217	-0.834196	-0.251908	0.490571	0.197291	-0.967021	-0.161079	0.514969	-0.037586	0.856384
16780	4.973663	-1.882210	8.856183	-0.031275	-0.172527	-0.080513	-0.833461	-0.251168	0.492196	0.196413	-0.967217	-0.160975	0.516492	-0.037493	0.855471
16781	4.748934	-2.070288	8.804395	-0.038079	-0.169988	-0.090865	-0.832756	-0.250330	0.493814	0.195412	-0.967435	-0.160885	0.518007	-0.037481	0.854555
16782	4.675873	-1.937942	8.934275	-0.032437	-0.227773	-0.104818	-0.831775	-0.249374	0.495946	0.194325	-0.967690	-0.160667	0.519988	-0.037264	0.853360
16783	5.049167	-1.935379	8.855707	-0.024637	-0.247161	-0.113518	-0.830703	-0.248345	0.498254	0.193207	-0.967967	-0.160344	0.522114	-0.036932	0.852076
16784	4.767358	-2.043684	8.941685	-0.018345	-0.247752	-0.138594	-0.829670	-0.247068	0.500604	0.191914	-0.968309	-0.159832	0.524229	-0.036535	0.850793
16785	5.030601	-2.083742	8.905998	0.008723	-0.293628	-0.155234	-0.828421	-0.245648	0.503365	0.190626	-0.968699	-0.159010	0.526670	-0.035773	0.849317
16786	4.952827	-1.997306	9.054360	0.021938	-0.302745	-0.167406	-0.827137	-0.244107	0.506218	0.189310	-0.969122	-0.158002	0.529156	-0.034857	0.847808
16787	4.710058	-2.129476	9.145425	0.030031	-0.320525	-0.199527	-0.825809	-0.242260	0.509264	0.187774	-0.969621	-0.156766	0.531772	-0.033833	0.846212
16788	4.745804	-1.980021	8.967978	0.054703	-0.440630	-0.223476	-0.823872	-0.240212	0.513355	0.186176	-0.970184	-0.155185	0.535326	-0.032278	0.844029
16789	4.144853	-0.980935	9.824047	0.008765	-0.453854	-0.245953	-0.821885	-0.237947	0.517577	0.184152	-0.970778	-0.153874	0.539067	-0.031154	0.841687
16790	5.363493	-0.809776	9.177335	0.006542	-0.692805	-0.192055	-0.818479	-0.236266	0.523709	0.182566	-0.971241	-0.152842	0.544759	-0.029487	0.838074
16791	4.371333	-0.928175	9.552654	-0.025572	-0.639870	-0.163927	-0.815270	-0.234836	0.529327	0.181040	-0.971624	-0.152223	0.550054	-0.028274	0.834650
16792	5.189857	-0.813281	9.211854	-0.049078	-0.786839	-0.119077	-0.811127	-0.233870	0.536077	0.179753	-0.971894	-0.152020	0.556563	-0.026945	0.830368
16793	4.972720	-1.190229	9.089600	-0.028176	-0.848381	-0.076811	-0.806509	-0.233323	0.543234	0.178928	-0.972071	-0.151868	0.563496	-0.025283	0.825732
16794	5.057752	-1.543922	8.944366	-0.010821	-0.927690	-0.066116	-0.801360	-0.232879	0.550989	0.178288	-0.972227	-0.151616	0.570995	-0.023264	0.820624
16795	4.942290	-1.809304	8.972560	0.033831	-1.042800	-0.085281	-0.795510	-0.232257	0.559661	0.177755	-0.972437	-0.150894	0.579281	-0.020555	0.814869
16796	5.191469	-2.121708	8.824954	0.086867	-1.155529	-0.121372	-0.788975	-0.231267	0.569240	0.177253	-0.972740	-0.149524	0.588303	-0.017071	0.808460
16797	4.890803	-2.334605	9.021196	0.189990	-1.273828	-0.184073	-0.781741	-0.229642	0.579781	0.176887	-0.973197	-0.146965	0.597990	-0.012332	0.801408
16798	5.207076	-2.131738	8.762171	0.325632	-1.458220	-0.239749	-0.773361	-0.227414	0.591774	0.176940	-0.973780	-0.142983	0.608774	-0.005869	0.793322
16799	5.113830	-2.242216	8.864990	0.446589	-1.591253	-0.307248	-0.764122	-0.224431	0.604771	0.177275	-0.974488	-0.137648	0.620234	0.002031	0.784414
16800	4.782697	-2.475919	8.931055	0.576254	-1.820411	-0.407124	-0.753431	-0.220310	0.619520	0.177749	-0.975360	-0.130683	0.633046	0.011659	0.774027
16801	4.300673	-2.309627	9.055322	0.688210	-2.114836	-0.548773	-0.740861	-0.214569	0.636463	0.178009	-0.976440	-0.121977	0.647641	0.022928	0.761601
16802	4.011962	-2.494242	9.735254	0.681080	-2.542061	-0.749367	-0.725498	-0.206484	0.656519	0.176936	-0.977828	-0.112013	0.665091	0.034896	0.745946
16803	3.793445	-3.039969	9.991782	0.712725	-3.052525	-1.044642	-0.706710	-0.194975	0.680107	0.174222	-0.979635	-0.099808	0.685717	0.047954	0.726287
16804	4.578474	-3.671681	10.194081	0.832017	-3.500522	-1.362383	-0.684643	-0.179649	0.706392	0.170494	-0.981735	-0.084429	0.708657	0.062632	0.702767
16805	6.412605	-4.084053	10.498365	1.025349	-3.799488	-1.620828	-0.659993	-0.161007	0.733816	0.166938	-0.983775	-0.065707	0.732489	0.079136	0.676164
16806	7.774465	-4.000642	10.579155	1.208973	-3.872657	-1.909405	-0.634322	-0.138766	0.760513	0.163526	-0.985582	-0.043442	0.755576	0.096807	0.647868
16807	9.925922	-3.898202	11.626574	1.306453	-3.950388	-2.019619	-0.607301	-0.114654	0.786155	0.160958	-0.986767	-0.019572	0.777996	0.114652	0.617719
16808	9.561169	-3.059726	11.223028	1.221251	-3.889123	-2.120566	-0.580000	-0.088918	0.809749	0.157948	-0.987436	0.004704	0.799158	0.130627	0.586757
16809	9.877342	-3.252598	10.205085	1.056975	-3.950649	-2.215482	-0.551467	-0.061597	0.831919	0.153923	-0.987660	0.028905	0.819873	0.143992	0.554143
16810	11.065125	-4.592184	9.968896	1.058546	-3.986343	-2.316940	-0.521897	-0.032699	0.852381	0.150220	-0.987171	0.054107	0.839677	0.156283	0.520114
16811	11.759978	-4.040579	10.654465	1.339808	-3.891049	-2.466642	-0.492565	-0.002005	0.870274	0.149030	-0.985420	0.082079	0.857421	0.170126	0.485682
16812	11.984474	-5.319427	11.605867	1.594484	-3.660582	-2.512460	-0.464651	0.029254	0.885011	0.150746	-0.982251	0.111614	0.872568	0.185274	0.451994
16813	9.510840	-5.987062	10.994099	1.809090	-3.356868	-2.499286	-0.438974	0.060248	0.896478	0.155306	-0.977644	0.141751	0.884976	0.201453	0.419803
16814	5.951657	-6.793906	8.639357	2.315453	-3.360589	-2.650798	-0.413279	0.093213	0.905821	0.164575	-0.970720	0.174979	0.895609	0.221391	0.385837
16815	2.417338	-5.280672	4.845194	2.806091	-3.320978	-2.828681	-0.388246	0.128284	0.912583	0.178446	-0.961057	0.211015	0.904114	0.244773	0.350234
16816	-4.220084	-0.804953	7.322439	3.550288	-3.280232	-3.074247	-0.364281	0.166164	0.916345	0.199033	-0.947329	0.250905	0.909772	0.273783	0.312022
16817	21.696272	8.291767	25.857362	2.645154	-2.562466	-2.383427	-0.345859	0.195878	0.917613	0.214639	-0.935518	0.280600	0.913407	0.294003	0.281515
16818	12.401220	0.612596	24.252241	-0.345613	0.858861	-1.029132	-0.355859	0.203013	0.912223	0.207825	-0.934486	0.289041	0.911138	0.292440	0.290354
16819	2.712663	-4.141522	15.202817	-1.188385	1.735914	-0.374047	-0.372419	0.201494	0.905927	0.195612	-0.937175	0.288859	0.907216	0.284787	0.309607
16820	-2.232916	-7.055992	9.532569	-1.124500	2.204131	0.001665	-0.392334	0.195301	0.898850	0.185401	-0.940353	0.285243	0.900944	0.278558	0.332723
16821	-2.741769	-6.169439	6.698306	-0.778196	2.161940	0.115575	-0.411551	0.188209	0.891741	0.178838	-0.942746	0.281510	0.893668	0.275333	0.354329
16822	-0.930100	-4.063685	6.265538	-0.443441	2.054655	0.100335	-0.429645	0.181640	0.884540	0.175263	-0.944158	0.279013	0.885826	0.274904	0.373818
16823	1.611785	-2.370901	7.388902	-0.412529	2.159498	0.118235	-0.448506	0.174567	0.876566	0.172101	-0.945520	0.276357	0.877054	0.274806	0.394029
16824	3.116988	-1.938003	8.192770	-0.554883	2.395658	0.200377	-0.469048	0.166132	0.867407	0.168131	-0.947390	0.272367	0.867022	0.273591	0.416439
16825	4.144053	-1.572910	8.570390	-0.772143	2.659485	0.346532	-0.491414	0.155585	0.856916	0.163100	-0.950066	0.266030	0.855518	0.270494	0.441500
16826	5.412114	-1.509956	8.691999	-0.996310	2.950995	0.519419	-0.515625	0.142764	0.844837	0.157206	-0.953519	0.257077	0.842269	0.265369	0.469215
16827	5.690027	-1.529243	7.983716	-1.189808	3.244915	0.699372	-0.541667	0.127556	0.830859	0.150930	-0.957598	0.245410	0.826932	0.258332	0.499447
16828	5.137199	-1.351015	6.803672	-1.307417	3.417700	0.875072	-0.568337	0.110502	0.815342	0.145035	-0.961970	0.231472	0.809912	0.249807	0.530696
16829	4.830844	-1.113668	5.913253	-1.387802	3.424492	1.056991	-0.594296	0.091895	0.798979	0.140023	-0.966455	0.215309	0.791963	0.239833	0.561493
16830	4.873492	-1.075760	5.621352	-1.414621	3.337297	1.205897	-0.618750	0.072423	0.782243	0.136211	-0.970769	0.197619	0.773690	0.228827	0.590798
16831	5.339565	-0.857299	5.943816	-1.414322	3.210666	1.333098	-0.641532	0.052265	0.765313	0.133760	-0.974770	0.178695	0.755344	0.217007	0.618355
16832	6.150265	-0.430422	6.510890	-1.430455	3.097099	1.426413	-0.662739	0.031839	0.748174	0.132337	-0.978391	0.158861	0.737065	0.204295	0.644204
16833	7.081373	-0.550961	6.879080	-1.478226	3.051237	1.504372	-0.682993	0.011041	0.730342	0.131667	-0.981646	0.137970	0.718460	0.190394	0.669003
16834	7.627474	-1.288666	7.323346	-1.472093	3.034305	1.572273	-0.702424	-0.009944	0.711689	0.132071	-0.984359	0.116598	0.699398	0.175895	0.692751
16835	8.232779	-1.708430	7.718303	-1.416003	3.022287	1.659692	-0.721088	-0.031427	0.692130	0.134088	-0.986414	0.094908	0.679744	0.161244	0.715506
16836	8.717212	-1.656069	8.096446	-1.387699	3.011775	1.810120	-0.738790	-0.053898	0.671776	0.137958	-0.987783	0.072469	0.659664	0.146216	0.737201
16837	9.359624	-1.496030	8.507496	-1.404476	2.978914	2.024437	-0.755314	-0.078054	0.650698	0.143931	-0.988398	0.048509	0.639362	0.130295	0.757786
16838	10.509864	-0.935812	8.759873	-1.419141	2.923520	2.280640	-0.770328	-0.104131	0.629088	0.152350	-0.988059	0.023006	0.619180	0.113564	0.776994
16839	11.705007	-0.304428	8.894028	-1.431044	2.915114	2.569175	-0.784048	-0.132583	0.606375	0.163578	-0.986521	-0.004193	0.598758	0.095902	0.795167
16840	12.601479	0.032765	8.741253	-1.353338	2.925110	2.808577	-0.796461	-0.162771	0.582370	0.177765	-0.983559	-0.031787	0.577970	0.078208	0.812302
16841	12.875691	-0.003285	8.686070	-1.152980	2.901246	2.965159	-0.807418	-0.193929	0.557196	0.194981	-0.979078	-0.058221	0.556829	0.061634	0.828337
16842	12.949111	0.182989	8.740472	-0.842312	2.831788	2.976929	-0.816788	-0.224511	0.531463	0.214512	-0.973316	-0.081490	0.535576	0.047445	0.843153
16843	13.081815	2.101074	9.348588	-0.575571	2.741313	2.821165	-0.824861	-0.253037	0.505546	0.234627	-0.966815	-0.101089	0.514349	0.035231	0.856857
16844	15.207837	7.247976	10.160946	-0.611150	2.605762	2.513596	-0.831881	-0.277984	0.480312	0.252324	-0.960325	-0.118780	0.494274	0.022384	0.869018
16845	20.515743	12.907730	8.587623	-1.249309	2.675290	2.110827	-0.839414	-0.298545	0.454153	0.263887	-0.954392	-0.139641	0.475129	0.002628	0.879912
16846	21.858809	12.919929	3.633237	-2.230717	2.983509	1.588523	-0.849088	-0.313266	0.425341	0.266870	-0.949259	-0.166394	0.455884	-0.027772	0.889606
16847	16.668498	7.603901	0.527486	-2.625246	2.893070	0.961538	-0.859481	-0.321083	0.397741	0.263325	-0.945027	-0.193866	0.438123	-0.061889	0.896782
16848	13.806972	-10.414465	-19.261947	0.642608	-0.831179	0.030504	-0.855736	-0.321824	0.405149	0.266377	-0.945305	-0.188261	0.443576	-0.053180	0.894658
16849	22.801106	16.340099	-10.006349	1.437118	-0.544498	-0.205403	-0.853876	-0.320129	0.410382	0.270970	-0.946615	-0.174628	0.444377	-0.037909	0.895037
16850	27.172477	7.473165	-13.242075	1.893894	-2.647675	0.995785	-0.839099	-0.330170	0.432320	0.287936	-0.943852	-0.161975	0.461525	-0.011432	0.887053
16851	18.408843	8.420899	-8.366985	2.612813	-2.270185	1.500422	-0.823991	-0.344177	0.450091	0.312577	-0.938675	-0.145548	0.472584	0.020757	0.881041
16852	32.739541	8.079906	25.095648	1.874967	-1.960925	0.646785	-0.812557	-0.349567	0.466427	0.326782	-0.935825	-0.132078	0.482664	0.045099	0.874644
16853	23.560626	49.838508	34.685258	0.895853	2.411307	-0.715494	-0.826255	-0.343929	0.446112	0.325093	-0.937913	-0.120969	0.460019	0.045077	0.886764
16854	-28.264650	-9.118103	-1.403825	-2.161029	0.200169	0.829804	-0.824497	-0.351746	0.443259	0.321900	-0.935785	-0.143829	0.465386	0.024099	0.884780
16855	18.147529	-14.233968	16.574667	0.097174	-3.270089	-0.354896	-0.809986	-0.347411	0.472471	0.319424	-0.937006	-0.141380	0.491825	0.036403	0.869933
16856	10.316926	-3.875675	0.895600	-0.340296	0.683818	-0.064419	-0.813539	-0.347011	0.466623	0.317191	-0.937355	-0.144068	0.487385	0.030803	0.872644
16857	3.105765	4.806146	16.256858	-0.205979	-1.037510	-0.062060	-0.808631	-0.346077	0.475758	0.315628	-0.937646	-0.145602	0.496482	0.032425	0.867441
16858	11.357792	-6.469258	2.953701	-0.139028	0.163054	0.014011	-0.809396	-0.346234	0.474342	0.315008	-0.937652	-0.146900	0.495629	0.030521	0.867998
16859	1.859392	-0.269074	11.544189	0.080225	-0.076238	-0.072584	-0.809246	-0.345505	0.475129	0.314771	-0.937888	-0.145892	0.496024	0.031495	0.867737
16860	6.055819	-2.260466	8.235299	-0.035918	0.014571	-0.060665	-0.809509	-0.344914	0.475110	0.314058	-0.938120	-0.145941	0.496047	0.031072	0.867740
16861	5.523102	-0.611433	8.997385	0.039057	-0.081922	-0.055832	-0.809277	-0.344340	0.475920	0.313754	-0.938310	-0.145369	0.496617	0.031678	0.867391
16862	4.608980	-0.678097	9.271406	-0.030927	-0.000253	-0.015215	-0.809324	-0.344171	0.475963	0.313433	-0.938383	-0.145590	0.496744	0.031353	0.867331
16863	4.153357	-1.086256	9.082427	-0.060831	-0.007101	-0.008966	-0.809316	-0.344060	0.476057	0.313012	-0.938443	-0.146107	0.497022	0.030765	0.867193
16864	4.112880	-1.115025	9.316299	-0.064970	-0.163297	-0.029556	-0.808596	-0.343706	0.477534	0.312406	-0.938576	-0.146554	0.498573	0.030681	0.866304
16865	4.970044	-1.457819	8.993576	-0.082550	-0.174443	-0.025415	-0.807803	-0.343390	0.479100	0.311742	-0.938699	-0.147179	0.500270	0.030464	0.865333
16866	5.117912	-2.189804	8.741917	-0.097998	-0.144901	-0.016746	-0.807130	-0.343163	0.480396	0.311072	-0.938796	-0.147971	0.501773	0.030006	0.864479
16867	5.098424	-2.962262	8.502877	-0.061651	-0.130987	-0.032817	-0.806573	-0.342791	0.481595	0.310452	-0.938938	-0.148378	0.503050	0.029835	0.863742
16868	5.283765	-2.256764	8.587765	-0.009180	-0.108976	-0.066435	-0.806230	-0.342109	0.482653	0.309825	-0.939179	-0.148161	0.503985	0.030086	0.863188
16869	5.007113	-1.718977	8.797267	0.004192	-0.066161	-0.071034	-0.806116	-0.341397	0.483348	0.309228	-0.939430	-0.147815	0.504535	0.030309	0.862859
16870	4.983583	-1.502251	8.944572	0.025176	-0.082039	-0.076372	-0.805938	-0.340629	0.484187	0.308695	-0.939694	-0.147253	0.505146	0.030789	0.862485
16871	5.009702	-1.672780	8.916531	0.030296	-0.069312	-0.074118	-0.805815	-0.339886	0.484912	0.308204	-0.939947	-0.146665	0.505640	0.031267	0.862178
16872	5.200238	-1.431383	8.938543	0.040336	-0.062173	-0.064626	-0.805700	-0.339233	0.485561	0.307843	-0.940164	-0.146028	0.506044	0.031822	0.861920
16873	5.115163	-1.377005	8.908671	0.028139	-0.045737	-0.050117	-0.805621	-0.338723	0.486046	0.307536	-0.940335	-0.145575	0.506356	0.032199	0.861723
16874	5.044691	-1.358741	8.918736	0.014920	-0.041306	-0.037627	-0.805528	-0.338329	0.486476	0.307263	-0.940468	-0.145288	0.506670	0.032443	0.861529
16875	5.047367	-1.514608	8.795258	0.009409	-0.043803	-0.029854	-0.805396	-0.338010	0.486915	0.307024	-0.940576	-0.145094	0.507024	0.032637	0.861314
16876	5.041840	-1.611951	8.801352	0.014708	-0.036497	-0.029298	-0.805301	-0.337696	0.487290	0.306818	-0.940681	-0.144849	0.507300	0.032863	0.861143
16877	4.960438	-1.641899	8.805297	0.024705	-0.031286	-0.034527	-0.805247	-0.337337	0.487628	0.306619	-0.940800	-0.144500	0.507505	0.033158	0.861010
16878	4.909738	-1.634356	8.859118	0.026429	-0.032402	-0.036158	-0.805193	-0.336960	0.487977	0.306418	-0.940924	-0.144121	0.507712	0.033480	0.860876
16879	4.952298	-1.712086	8.846709	0.028222	-0.043180	-0.042069	-0.805102	-0.336525	0.488428	0.306176	-0.941066	-0.143705	0.508003	0.033848	0.860690
16880	5.040782	-1.568407	8.810092	0.040436	-0.047389	-0.044250	-0.804996	-0.336066	0.488918	0.305981	-0.941212	-0.143165	0.508288	0.034352	0.860502
16881	5.039002	-1.481144	8.775778	0.040143	-0.034879	-0.046356	-0.804960	-0.335594	0.489302	0.305765	-0.941364	-0.142626	0.508476	0.034804	0.860373
16882	4.907758	-1.436958	8.877727	0.031430	-0.036756	-0.042219	-0.804901	-0.335157	0.489697	0.305541	-0.941505	-0.142173	0.508703	0.035187	0.860223
16883	4.936339	-1.585315	8.855029	0.027545	-0.054244	-0.042925	-0.804755	-0.334710	0.490243	0.305289	-0.941649	-0.141759	0.509085	0.035585	0.859980
16884	5.009265	-1.468107	8.846900	0.026689	-0.051774	-0.044723	-0.804628	-0.334244	0.490770	0.305021	-0.941800	-0.141334	0.509447	0.035973	0.859750
16885	4.987558	-1.431810	8.837722	0.024173	-0.054638	-0.047739	-0.804494	-0.333750	0.491325	0.304713	-0.941961	-0.140925	0.509843	0.036340	0.859500
16886	5.007380	-1.363758	8.899245	0.023361	-0.056011	-0.044316	-0.804343	-0.333286	0.491887	0.304431	-0.942111	-0.140530	0.510249	0.036711	0.859243
16887	4.822126	-1.583573	8.797735	0.006659	-0.090029	-0.047933	-0.804028	-0.332777	0.492746	0.304033	-0.942278	-0.140270	0.510982	0.037030	0.858793
16888	4.724696	-1.355823	8.955622	-0.016233	-0.101505	-0.047966	-0.803654	-0.332261	0.493703	0.303520	-0.942454	-0.140197	0.511874	0.037179	0.858255
16889	4.982838	-1.128660	8.937622	-0.043368	-0.147610	-0.044575	-0.803032	-0.331762	0.495050	0.302893	-0.942629	-0.140381	0.513221	0.037217	0.857449
16890	4.933178	-1.454611	8.994941	-0.068995	-0.153922	-0.037843	-0.802355	-0.331322	0.496440	0.302190	-0.942790	-0.140809	0.514692	0.037041	0.856575
16891	4.997097	-1.749416	8.835500	-0.062699	-0.169461	-0.045271	-0.801616	-0.330809	0.497973	0.301458	-0.942974	-0.141153	0.516270	0.036967	0.855628
16892	5.090136	-1.854988	8.734304	-0.041378	-0.176640	-0.060059	-0.800884	-0.330150	0.499586	0.300718	-0.943198	-0.141231	0.517836	0.037125	0.854674
16893	4.979504	-1.882948	8.754061	-0.025454	-0.178247	-0.069676	-0.800167	-0.329403	0.501225	0.299982	-0.943447	-0.141132	0.519369	0.037429	0.853730
16894	4.844989	-1.982383	8.797033	-0.004591	-0.195480	-0.084212	-0.799402	-0.328508	0.503030	0.299239	-0.943737	-0.140772	0.520973	0.037993	0.852727
16895	4.980048	-1.808697	8.853277	0.014820	-0.247150	-0.100487	-0.798411	-0.327441	0.505294	0.298467	-0.944071	-0.140172	0.522932	0.038899	0.851487
16896	5.075897	-1.627511	8.930514	0.021674	-0.268236	-0.109704	-0.797332	-0.326273	0.507748	0.297660	-0.944431	-0.139456	0.525034	0.039944	0.850144
16897	5.164259	-1.312016	8.959063	0.013269	-0.277739	-0.109573	-0.796195	-0.325102	0.510277	0.296811	-0.944793	-0.138818	0.527236	0.040930	0.848733
16898	5.147613	-1.255755	9.007378	-0.002775	-0.284189	-0.099388	-0.794987	-0.324019	0.512843	0.295960	-0.945127	-0.138356	0.529532	0.041790	0.847260
16899	4.976518	-1.553916	9.108279	-0.022466	-0.289203	-0.113897	-0.793787	-0.322797	0.515465	0.294889	-0.945515	-0.137993	0.531924	0.042468	0.845727
16900	4.443608	-1.440442	9.473455	-0.063176	-0.291184	-0.155274	-0.792690	-0.321178	0.518158	0.293275	-0.946052	-0.137747	0.534446	0.042772	0.844120
16901	4.528827	-0.959846	9.574494	-0.003097	-0.577221	-0.125004	-0.789956	-0.319720	0.523210	0.292223	-0.946464	-0.137154	0.539050	0.044548	0.841095
16902	4.666839	-1.676737	9.358003	-0.068663	-0.487908	-0.127821	-0.787688	-0.318264	0.527500	0.290798	-0.946913	-0.137082	0.543125	0.045418	0.838422
16903	4.844061	-1.263318	9.448735	-0.036456	-0.713151	-0.129735	-0.784169	-0.316682	0.533659	0.289533	-0.947352	-0.136730	0.548862	0.047293	0.834574
16904	4.802516	-1.443994	9.259254	-0.035817	-0.751632	-0.123082	-0.780375	-0.315126	0.540102	0.288327	-0.947769	-0.136389	0.554872	0.049291	0.830474
16905	5.028585	-1.652063	9.082659	-0.001864	-0.856641	-0.121273	-0.775941	-0.313521	0.547376	0.287326	-0.948161	-0.135776	0.561569	0.051922	0.825799
16906	4.896334	-1.666411	9.157900	0.044933	-0.953572	-0.149299	-0.770978	-0.311567	0.555445	0.286379	-0.948614	-0.134604	0.568841	0.055292	0.820587
16907	5.013459	-1.783052	9.122100	0.094756	-1.073084	-0.184807	-0.765358	-0.309176	0.564480	0.285456	-0.949143	-0.132824	0.576838	0.059477	0.814690
16908	4.977875	-2.121777	9.183801	0.189144	-1.193161	-0.235379	-0.759093	-0.306172	0.574488	0.284715	-0.949761	-0.129969	0.585419	0.064907	0.808128
16909	5.051762	-2.163363	9.018948	0.310212	-1.372929	-0.310504	-0.751872	-0.302261	0.585941	0.284154	-0.950503	-0.125701	0.594933	0.071986	0.800545
16910	4.976984	-2.351327	8.767487	0.408345	-1.528494	-0.412131	-0.743867	-0.297150	0.598635	0.283475	-0.951439	-0.120027	0.605231	0.080413	0.791978
16911	4.946209	-2.052402	8.694407	0.520075	-1.725333	-0.529429	-0.734824	-0.290616	0.612842	0.282691	-0.952561	-0.112755	0.616538	0.090390	0.782120
16912	4.659658	-1.806756	8.790742	0.598474	-1.961168	-0.656364	-0.724458	-0.282448	0.628796	0.281582	-0.953879	-0.104051	0.629184	0.101677	0.770577
16913	4.216805	-1.491767	9.160357	0.650398	-2.277053	-0.817660	-0.712259	-0.272165	0.647004	0.279801	-0.955455	-0.093896	0.643738	0.114155	0.756684
16914	3.496026	-1.391572	9.621902	0.685199	-2.764378	-1.000629	-0.697002	-0.259219	0.668576	0.277173	-0.957297	-0.082203	0.661334	0.128016	0.739087
16915	3.718431	-1.973718	9.743629	0.811095	-3.276301	-1.191660	-0.678287	-0.243325	0.693340	0.274379	-0.959200	-0.068205	0.681648	0.143975	0.717376
16916	5.149945	-2.832387	10.045506	0.967313	-3.707331	-1.378540	-0.656363	-0.224389	0.720304	0.271831	-0.960958	-0.051656	0.703772	0.161896	0.691733
16917	6.454572	-4.276001	10.840646	1.113763	-3.991995	-1.605427	-0.632157	-0.202084	0.748024	0.269407	-0.962483	-0.032346	0.726497	0.181075	0.662883
16918	7.405445	-4.870014	10.751047	1.296155	-4.121145	-1.906138	-0.606866	-0.175813	0.775115	0.267108	-0.963620	-0.009442	0.748577	0.201309	0.631749
16919	9.920269	-4.439109	11.710335	1.418201	-4.299439	-2.130596	-0.579881	-0.146164	0.801483	0.265190	-0.964063	0.016054	0.770333	0.221854	0.597803
16920	9.865959	-3.104108	11.143129	1.350150	-4.284042	-2.271462	-0.552421	-0.114328	0.825688	0.262820	-0.963914	0.042370	0.791048	0.240413	0.562534
16921	10.839169	-2.265141	10.745870	1.148196	-4.405779	-2.358205	-0.523267	-0.080660	0.848343	0.259291	-0.963379	0.068336	0.811764	0.255725	0.525018
16922	11.645461	-2.520995	10.069467	0.892652	-4.478654	-2.433250	-0.492686	-0.045481	0.869018	0.254217	-0.962593	0.093748	0.832247	0.267107	0.485818
16923	13.409566	-3.158052	10.877585	0.858958	-4.460659	-2.535454	-0.461517	-0.008960	0.887086	0.249303	-0.960962	0.119997	0.851381	0.276534	0.445734
16924	13.240326	-4.566970	12.173161	0.886307	-4.150403	-2.599894	-0.432257	0.027673	0.901326	0.245252	-0.958244	0.147037	0.867759	0.284609	0.407421
16925	10.384128	-6.424036	10.522476	1.036954	-3.681764	-2.697789	-0.406659	0.064099	0.911329	0.242953	-0.954027	0.175515	0.880683	0.292785	0.372390
16926	7.797319	-6.509625	8.411820	1.539575	-3.623493	-2.856949	-0.381517	0.102113	0.918704	0.245285	-0.947066	0.207127	0.891224	0.304367	0.336275
16927	1.394757	-5.669320	5.084705	1.884657	-3.177866	-2.883608	-0.360251	0.139176	0.922415	0.251407	-0.937737	0.239675	0.898339	0.318245	0.302831
16928	-3.298962	0.470958	6.221246	2.687836	-3.432357	-3.281802	-0.337775	0.181019	0.923656	0.264121	-0.923674	0.277610	0.903409	0.337727	0.264183
16929	29.781212	8.594255	26.120168	1.616333	-2.490484	-2.509531	-0.321949	0.212590	0.922580	0.270429	-0.913216	0.304803	0.907313	0.347623	0.236519
16930	12.527181	-1.014338	21.383512	-0.895861	0.969359	-1.200674	-0.333907	0.220249	0.916513	0.258318	-0.913714	0.313687	0.906520	0.341494	0.248201
16931	3.859486	-4.710245	12.361448	-1.453782	1.858912	-0.567912	-0.352189	0.219160	0.909908	0.243161	-0.917386	0.315080	0.903790	0.332221	0.269802
16932	-0.993578	-6.282360	7.677119	-1.193419	2.104781	-0.269655	-0.371793	0.214745	0.903136	0.231377	-0.920736	0.314180	0.899019	0.325775	0.292637
16933	-1.673445	-5.419163	5.472780	-0.811355	1.986707	-0.183098	-0.390051	0.209959	0.896537	0.223359	-0.923003	0.313332	0.893292	0.322465	0.313121
16934	-1.009147	-4.131839	5.414684	-0.502989	1.872862	-0.185757	-0.407123	0.205673	0.889915	0.218091	-0.924245	0.313381	0.886954	0.321667	0.331426
16935	0.296800	-3.304970	6.404250	-0.418851	1.869405	-0.083202	-0.423859	0.200391	0.883282	0.213995	-0.925450	0.312648	0.880085	0.321536	0.349378
16936	1.481374	-2.794159	7.312904	-0.488501	1.991426	0.136641	-0.441012	0.192760	0.876557	0.210254	-0.927297	0.309700	0.872526	0.320881	0.368420
16937	2.575156	-2.049730	7.982809	-0.689723	2.208551	0.447771	-0.459299	0.181495	0.869542	0.206232	-0.930368	0.303124	0.864010	0.318552	0.389887
16938	3.729362	-1.203280	8.277303	-0.978437	2.491240	0.784972	-0.479096	0.166328	0.861860	0.201457	-0.934836	0.292399	0.854331	0.313715	0.414368
16939	4.356867	-0.733754	7.953181	-1.266312	2.814905	1.077836	-0.500892	0.147447	0.852858	0.195943	-0.940480	0.277675	0.843038	0.306197	0.442188
16940	4.034322	-0.331913	7.026591	-1.463605	3.073662	1.294580	-0.524099	0.125997	0.842285	0.190282	-0.946671	0.260012	0.830128	0.296544	0.472175
16941	3.702905	-0.078653	6.354721	-1.567090	3.198665	1.434087	-0.547785	0.103017	0.830253	0.185024	-0.952899	0.240310	0.815903	0.285255	0.502923
16942	3.859516	0.318891	6.230491	-1.621181	3.210718	1.522739	-0.570953	0.079533	0.817121	0.180385	-0.958822	0.219367	0.800921	0.272644	0.533095
16943	4.442804	0.935460	6.660957	-1.674040	3.201589	1.575652	-0.593585	0.055821	0.802833	0.176240	-0.964360	0.197358	0.785236	0.258640	0.562591
16944	5.638808	1.675539	7.189240	-1.761036	3.206575	1.579595	-0.615747	0.032533	0.787272	0.172055	-0.969485	0.174631	0.768930	0.242983	0.591360
16945	6.717923	1.150852	7.366784	-1.855770	3.305148	1.573804	-0.638246	0.009439	0.769775	0.167778	-0.974183	0.151056	0.751327	0.225562	0.620185
16946	7.123171	-0.098427	7.546776	-1.812141	3.380633	1.562189	-0.660726	-0.013108	0.750513	0.164430	-0.978091	0.127676	0.732396	0.207765	0.648406
16947	7.602326	-0.618886	7.947978	-1.656010	3.393928	1.581890	-0.682699	-0.035419	0.729840	0.163059	-0.981022	0.104918	0.712273	0.190635	0.675518
16948	8.463573	-0.216678	8.334792	-1.554020	3.374576	1.659570	-0.703669	-0.057838	0.708170	0.163606	-0.983089	0.082274	0.691436	0.173755	0.701232
16949	9.473025	0.095241	8.639870	-1.581865	3.370636	1.814566	-0.723669	-0.081298	0.685343	0.165759	-0.984444	0.058251	0.669946	0.155756	0.725887
16950	10.139767	-0.061256	8.671519	-1.636444	3.358626	2.004669	-0.742437	-0.105919	0.661489	0.169621	-0.984968	0.032663	0.648086	0.136453	0.749243
16951	10.568017	-0.484651	8.744594	-1.646152	3.323710	2.193991	-0.759862	-0.131775	0.636588	0.175591	-0.984446	0.005812	0.625921	0.116195	0.771182
16952	11.360136	-0.641632	9.155333	-1.572636	3.275726	2.366914	-0.775741	-0.158505	0.610820	0.184049	-0.982687	-0.021260	0.603615	0.095928	0.791484
16953	12.582187	-0.365175	9.808560	-1.462960	3.228671	2.536047	-0.790091	-0.186210	0.584022	0.195218	-0.979573	-0.048228	0.581073	0.075907	0.810304
16954	14.163441	0.278094	10.350693	-1.364193	3.180569	2.700803	-0.802755	-0.214682	0.556324	0.208910	-0.975068	-0.074824	0.558517	0.056156	0.827590
16955	15.971798	2.009606	10.138358	-1.314626	3.159889	2.841163	-0.813913	-0.243802	0.527358	0.224666	-0.969156	-0.101303	0.535790	0.036027	0.843582
16956	16.969397	5.528161	9.132288	-1.380592	3.115419	2.922332	-0.823449	-0.272785	0.497514	0.241304	-0.961964	-0.128052	0.513522	0.014608	0.857952
16957	18.046505	9.710686	6.952303	-1.686030	3.035821	2.814019	-0.831743	-0.299841	0.467225	0.256096	-0.953933	-0.156290	0.492563	-0.010339	0.870215
16958	18.591887	10.860422	4.350100	-2.129709	3.008735	2.441320	-0.839894	-0.322252	0.436729	0.266176	-0.945810	-0.185994	0.472999	-0.039969	0.880156
16959	18.002680	9.022815	2.276614	-2.148611	2.800834	1.685180	-0.848385	-0.336618	0.408571	0.270412	-0.939070	-0.212191	0.455104	-0.069537	0.887719
16960	13.091287	-16.105371	-12.517746	0.514770	-0.028440	0.369777	-0.847246	-0.340084	0.408066	0.275843	-0.938171	-0.209157	0.453966	-0.064645	0.888671
16961	23.001736	28.899544	-10.372581	2.677865	-0.211087	-1.251432	-0.849764	-0.328427	0.412356	0.277278	-0.943731	-0.180247	0.448351	-0.038830	0.893014
16962	24.400816	9.342501	-15.492124	1.222643	-2.490320	0.833848	-0.836014	-0.336982	0.433039	0.289853	-0.941318	-0.172932	0.465903	-0.019056	0.884631
16963	25.268541	-0.241058	-10.852843	2.270524	-2.617906	1.545185	-0.818964	-0.351585	0.453526	0.313349	-0.936089	-0.159845	0.480739	0.011205	0.876792
16964	45.216685	20.971052	20.844159	4.957282	-2.200212	-1.103084	-0.811901	-0.340379	0.474298	0.328197	-0.938022	-0.111363	0.482807	0.065248	0.873293
16965	11.328525	38.219317	34.508594	-3.080150	4.322309	0.515985	-0.830552	-0.347069	0.435576	0.317903	-0.937594	-0.140906	0.457298	0.021441	0.889055
16966	-23.120495	-2.833165	0.925030	-0.091186	-1.076819	0.178283	-0.825011	-0.348468	0.444889	0.318914	-0.937006	-0.142527	0.466530	0.024295	0.884172
16967	15.481099	-13.813529	15.054309	-0.729577	-2.147306	0.063412	-0.814580	-0.348510	0.463682	0.315916	-0.936974	-0.149254	0.486474	0.024905	0.873340
16968	3.889678	-0.785827	5.132400	-0.124344	0.229052	-0.096564	-0.815997	-0.347634	0.461843	0.314481	-0.937351	-0.149920	0.485026	0.022907	0.874200
16969	11.073104	-3.461941	10.880596	-0.372467	-1.653583	0.022978	-0.807784	-0.347429	0.476213	0.312788	-0.937370	-0.153301	0.499649	0.025120	0.865864
16970	7.727379	-2.224362	5.790673	-0.051980	0.878569	-0.067156	-0.812353	-0.346978	0.468710	0.311942	-0.937626	-0.153460	0.492722	0.021547	0.869920
16971	3.360952	0.021034	10.113991	0.029151	-0.316458	-0.020552	-0.810852	-0.346690	0.471514	0.311872	-0.937701	-0.153143	0.495232	0.022875	0.868460
16972	4.819193	-2.764665	8.692438	-0.044044	0.039910	-0.036304	-0.811163	-0.346333	0.471241	0.311316	-0.937847	-0.153380	0.495073	0.022288	0.868566
16973	5.468037	-0.979229	8.973831	-0.005774	-0.019500	-0.035168	-0.811174	-0.345974	0.471485	0.310955	-0.937980	-0.153298	0.495281	0.022259	0.868448
16974	4.426592	-1.259834	9.165901	-0.043960	-0.046993	-0.003449	-0.810952	-0.345905	0.471917	0.310665	-0.938012	-0.153689	0.495826	0.021974	0.868144
16975	4.696123	-1.022971	9.183147	-0.062722	-0.044365	0.010025	-0.810700	-0.345964	0.472308	0.310388	-0.938001	-0.154313	0.496412	0.021497	0.867821
16976	4.941682	-1.259562	9.010376	-0.073347	-0.082320	0.019923	-0.810229	-0.346108	0.473010	0.310141	-0.937958	-0.155069	0.497334	0.021058	0.867303
16977	4.811218	-1.077213	9.117390	-0.078541	-0.063291	0.024096	-0.809838	-0.346296	0.473542	0.309899	-0.937901	-0.155896	0.498122	0.020499	0.866865
16978	4.908494	-1.481089	8.915541	-0.090907	-0.074173	0.032571	-0.809367	-0.346560	0.474153	0.309665	-0.937817	-0.156864	0.499031	0.019868	0.866356
16979	4.385596	-2.267022	8.795136	-0.109987	-0.071584	0.023824	-0.808934	-0.346745	0.474756	0.309262	-0.937766	-0.157961	0.499982	0.019043	0.865826
16980	4.331948	-2.118573	8.996280	-0.129245	-0.173288	-0.003034	-0.808076	-0.346658	0.476279	0.308545	-0.937811	-0.159091	0.501810	0.018396	0.864782
16981	5.121411	-1.815533	8.784699	-0.134922	-0.215996	-0.007075	-0.807010	-0.346528	0.478177	0.307763	-0.937870	-0.160255	0.504001	0.017838	0.863519
16982	4.952544	-1.865868	8.961607	-0.136644	-0.157868	0.004775	-0.806198	-0.346519	0.479551	0.307067	-0.937888	-0.161482	0.505721	0.017068	0.862528
16983	4.955832	-2.179433	8.794477	-0.120818	-0.196829	-0.000602	-0.805201	-0.346456	0.481269	0.306403	-0.937920	-0.162553	0.507709	0.016575	0.861369
16984	5.297709	-2.024195	8.725640	-0.087063	-0.163275	-0.009566	-0.804400	-0.346313	0.482709	0.305839	-0.937977	-0.163281	0.509317	0.016288	0.860425
16985	5.129740	-1.991997	8.729855	-0.064434	-0.140467	-0.012558	-0.803720	-0.346149	0.483958	0.305362	-0.938041	-0.163807	0.510674	0.016128	0.859623
16986	5.280597	-1.965978	8.662753	-0.023022	-0.112785	-0.025101	-0.803220	-0.345869	0.484987	0.304998	-0.938142	-0.163908	0.511678	0.016266	0.859024
16987	5.166613	-1.862926	8.660304	-0.001999	-0.077543	-0.027592	-0.802905	-0.345573	0.485719	0.304719	-0.938247	-0.163824	0.512338	0.016473	0.858626
16988	5.224546	-1.580941	8.733476	0.007091	-0.053113	-0.033963	-0.802736	-0.345220	0.486250	0.304438	-0.938374	-0.163623	0.512770	0.016687	0.858364
16989	5.146244	-1.304232	8.871503	0.007815	-0.031608	-0.015155	-0.802617	-0.345048	0.486567	0.304309	-0.938434	-0.163515	0.513031	0.016827	0.858205
16990	5.043414	-1.474568	8.820557	0.003221	-0.027014	-0.001286	-0.802482	-0.345005	0.486820	0.304270	-0.938448	-0.163506	0.513265	0.016914	0.858063
16991	4.923246	-1.680071	8.852655	0.000707	-0.027301	0.003759	-0.802329	-0.345011	0.487069	0.304257	-0.938445	-0.163550	0.513514	0.016973	0.857913
16992	5.001415	-1.739123	8.798886	0.004086	-0.035932	-0.002402	-0.802151	-0.344957	0.487400	0.304214	-0.938463	-0.163528	0.513817	0.017099	0.857729
16993	5.075219	-1.812672	8.687492	0.014026	-0.030713	-0.007595	-0.802014	-0.344855	0.487697	0.304177	-0.938496	-0.163403	0.514052	0.017295	0.857585
16994	5.033457	-1.715978	8.788743	0.012303	-0.019300	-0.008258	-0.801940	-0.344749	0.487895	0.304130	-0.938533	-0.163282	0.514196	0.017441	0.857495
16995	4.896665	-1.840729	8.822437	0.011004	-0.018764	-0.012369	-0.801878	-0.344605	0.488097	0.304039	-0.938583	-0.163160	0.514345	0.017566	0.857403
16996	4.797992	-1.844856	8.841313	0.006706	-0.035845	-0.027628	-0.801778	-0.344313	0.488468	0.303808	-0.938688	-0.162992	0.514639	0.017717	0.857224
16997	4.909613	-1.910209	8.797192	0.014130	-0.050173	-0.036452	-0.801628	-0.343938	0.488978	0.303540	-0.938820	-0.162725	0.515030	0.017980	0.856983
16998	4.964113	-1.933546	8.735922	0.023478	-0.064630	-0.045749	-0.801433	-0.343470	0.489625	0.303250	-0.938984	-0.162325	0.515504	0.018386	0.856690
16999	5.023376	-1.834507	8.704140	0.037416	-0.051586	-0.054477	-0.801330	-0.342925	0.490176	0.302959	-0.939173	-0.161770	0.515836	0.018872	0.856480
17000	4.857101	-1.812121	8.846650	0.044603	-0.053385	-0.065331	-0.801252	-0.342275	0.490758	0.302621	-0.939399	-0.161093	0.516155	0.019438	0.856274
17001	4.986902	-1.793406	8.758947	0.047832	-0.066234	-0.074111	-0.801132	-0.341542	0.491465	0.302226	-0.939652	-0.160352	0.516573	0.020070	0.856008
17002	4.823175	-1.753560	8.793070	0.045496	-0.067424	-0.082617	-0.801032	-0.340725	0.492193	0.301755	-0.939935	-0.159581	0.517002	0.020692	0.855734
17003	5.004986	-1.409305	8.819227	0.036997	-0.092490	-0.081952	-0.800798	-0.339911	0.493135	0.301242	-0.940216	-0.158894	0.517663	0.021311	0.855319
17004	5.067625	-1.414304	8.813574	0.019050	-0.092793	-0.074287	-0.800541	-0.339167	0.494065	0.300701	-0.940474	-0.158389	0.518376	0.021769	0.854876
17005	4.813102	-1.660791	8.847310	0.011219	-0.111705	-0.068671	-0.800165	-0.338472	0.495149	0.300162	-0.940714	-0.157986	0.519267	0.022210	0.854323
17006	5.105303	-1.545161	8.870610	0.001895	-0.109472	-0.071779	-0.799811	-0.337746	0.496216	0.299553	-0.940967	-0.157638	0.520164	0.022562	0.853768
17007	4.885685	-1.793898	8.859275	-0.007045	-0.144628	-0.070845	-0.799267	-0.337023	0.497582	0.298902	-0.941217	-0.157379	0.521373	0.022940	0.853021
17008	5.022453	-1.795153	8.873492	-0.007419	-0.145977	-0.079833	-0.798743	-0.336211	0.498971	0.298180	-0.941498	-0.157068	0.522588	0.023326	0.852266
17009	5.038105	-1.836307	8.825843	-0.005862	-0.162638	-0.082970	-0.798137	-0.335368	0.500506	0.297440	-0.941787	-0.156737	0.523935	0.023773	0.851427
17010	4.969750	-1.864826	8.823770	0.013914	-0.174792	-0.091251	-0.797490	-0.334440	0.502155	0.296740	-0.942100	-0.156185	0.525315	0.024454	0.850557
17011	4.946763	-1.957272	8.866684	0.042996	-0.196625	-0.100552	-0.796751	-0.333420	0.504003	0.296117	-0.942434	-0.155346	0.526785	0.025471	0.849617
17012	5.084394	-1.869318	8.845396	0.065086	-0.243460	-0.111713	-0.795796	-0.332277	0.506261	0.295525	-0.942799	-0.154253	0.528558	0.026859	0.848472
17013	5.066332	-1.948834	8.832558	0.075013	-0.230545	-0.127459	-0.794949	-0.330988	0.508432	0.294861	-0.943211	-0.153003	0.530201	0.028287	0.847400
17014	4.948850	-1.952925	8.975188	0.064502	-0.261530	-0.158065	-0.794025	-0.329394	0.510905	0.293903	-0.943725	-0.151675	0.532115	0.029723	0.846150
17015	4.860625	-1.657136	9.094415	0.034205	-0.265585	-0.206852	-0.793212	-0.327338	0.513482	0.292396	-0.944403	-0.150360	0.534153	0.030873	0.844824
17016	3.994238	-1.209249	9.633931	0.039049	-0.411091	-0.192806	-0.791571	-0.325360	0.517258	0.291032	-0.945030	-0.149060	0.537322	0.032547	0.842749
17017	5.196526	-0.885308	9.248208	-0.049156	-0.466018	-0.177681	-0.789572	-0.323503	0.521462	0.289315	-0.945632	-0.148583	0.541178	0.033549	0.840238
17018	4.557310	-0.905321	9.501645	-0.047211	-0.611176	-0.144722	-0.786665	-0.321898	0.526820	0.287872	-0.946126	-0.148243	0.546157	0.035039	0.836950
17019	5.103810	-0.888309	9.181213	-0.070836	-0.640054	-0.109674	-0.783465	-0.320609	0.532345	0.286575	-0.946513	-0.148286	0.551413	0.036380	0.833439
17020	5.192541	-0.958165	9.056861	-0.061790	-0.734443	-0.065752	-0.779580	-0.319687	0.538567	0.285672	-0.946757	-0.148469	0.557356	0.038110	0.829399
17021	5.224102	-1.433894	8.860163	-0.043055	-0.779840	-0.038849	-0.775319	-0.318991	0.545093	0.285082	-0.946907	-0.148645	0.563568	0.040149	0.825093
17022	5.222248	-1.821275	8.819034	-0.007054	-0.856755	-0.041057	-0.770577	-0.318220	0.552220	0.284679	-0.947051	-0.148499	0.570236	0.042775	0.820366
17023	5.216250	-2.154182	8.794698	0.042110	-0.924634	-0.069824	-0.765468	-0.317126	0.559901	0.284337	-0.947264	-0.147796	0.577244	0.046068	0.815271
17024	5.146873	-2.648925	8.827091	0.097963	-0.995318	-0.138170	-0.760077	-0.315311	0.568209	0.283806	-0.947665	-0.146241	0.584583	0.050107	0.809785
17025	5.063205	-2.830771	8.895195	0.191065	-1.122410	-0.222687	-0.754100	-0.312587	0.577601	0.283197	-0.948272	-0.143453	0.592565	0.055397	0.803616
17026	5.115583	-2.656369	9.033325	0.291347	-1.265675	-0.307668	-0.747413	-0.308898	0.588181	0.282579	-0.949069	-0.139348	0.601268	0.062057	0.796634
17027	4.891444	-2.636658	9.198005	0.388851	-1.425749	-0.418491	-0.739951	-0.303961	0.600067	0.281776	-0.950104	-0.133809	0.610798	0.070073	0.788679
17028	4.678776	-2.490817	9.281146	0.486383	-1.649577	-0.548564	-0.731326	-0.297484	0.613731	0.280691	-0.951401	-0.126684	0.621590	0.079621	0.779285
17029	4.326585	-2.143808	9.801490	0.540993	-1.977949	-0.715527	-0.720904	-0.288969	0.629916	0.278846	-0.953049	-0.118080	0.634462	0.090525	0.767634
17030	3.926593	-2.434265	10.002815	0.582737	-2.371277	-0.916405	-0.708216	-0.277905	0.648999	0.275991	-0.955095	-0.107804	0.649815	0.102769	0.753113
17031	3.738288	-2.018273	9.594925	0.720497	-2.844431	-1.180373	-0.692712	-0.263470	0.671367	0.272423	-0.957508	-0.094678	0.667785	0.117311	0.735052
17032	4.724199	-2.409376	9.245992	0.882279	-3.290095	-1.393550	-0.674175	-0.245943	0.696419	0.268830	-0.959961	-0.078770	0.687909	0.134114	0.713299
17033	6.289303	-2.467164	9.657417	0.991834	-3.537301	-1.547092	-0.653605	-0.225998	0.722306	0.265439	-0.962204	-0.060867	0.708762	0.151945	0.688890
17034	7.103820	-3.247455	9.719268	1.013244	-3.592190	-1.732214	-0.632334	-0.203509	0.747488	0.261537	-0.964310	-0.041295	0.729214	0.169383	0.662990
17035	9.204460	-2.992473	10.383525	1.108184	-3.713347	-1.842871	-0.609669	-0.179090	0.772160	0.258238	-0.965872	-0.020123	0.749411	0.187133	0.635110
17036	9.466825	-2.321601	10.116580	1.026206	-3.621628	-1.905505	-0.587060	-0.153575	0.794843	0.254574	-0.967053	0.001176	0.768474	0.203037	0.606814
17037	10.024375	-2.276892	9.770064	0.810450	-3.663320	-1.955135	-0.563488	-0.126972	0.816308	0.249585	-0.968110	0.021702	0.787521	0.215967	0.577208
17038	10.398240	-2.922236	9.820780	0.646216	-3.727050	-2.063629	-0.538858	-0.098706	0.836593	0.243309	-0.969022	0.042387	0.806494	0.226392	0.546182
17039	11.303488	-4.813798	9.874455	0.679046	-3.798061	-2.234467	-0.513246	-0.068259	0.855523	0.237045	-0.969330	0.064869	0.824856	0.236091	0.513686
17040	11.898626	-5.054293	10.405302	0.789051	-3.666605	-2.420765	-0.488358	-0.035935	0.871903	0.231444	-0.968703	0.089709	0.841392	0.245607	0.481390
17041	12.207063	-5.329442	11.099611	0.927140	-3.515082	-2.518278	-0.464303	-0.002761	0.885672	0.227269	-0.966883	0.116129	0.856021	0.255205	0.449554
17042	8.208939	-5.635060	9.737120	1.056472	-3.205870	-2.628054	-0.442589	0.030982	0.896189	0.224409	-0.963775	0.144144	0.868191	0.264910	0.419604
17043	5.553461	-6.080637	8.120399	1.250983	-3.159445	-2.815925	-0.421295	0.066580	0.904477	0.223126	-0.959039	0.174525	0.879048	0.275339	0.389182
17044	-0.655351	-5.521426	5.590040	1.751786	-3.186847	-3.167355	-0.400227	0.105870	0.910280	0.225545	-0.951371	0.209815	0.888227	0.289283	0.356886
17045	4.765886	-0.224306	15.014962	2.516231	-3.468617	-3.410797	-0.377142	0.148472	0.914177	0.234687	-0.939530	0.249410	0.895927	0.308609	0.319492
17046	20.755843	2.946777	24.797757	0.605829	-1.124095	-2.286620	-0.372377	0.173415	0.911736	0.231504	-0.933978	0.272198	0.898744	0.312431	0.307645
17047	7.586330	-2.918024	20.854916	-0.648739	0.480399	-1.292963	-0.379649	0.183967	0.906655	0.220762	-0.933702	0.281896	0.898405	0.307176	0.313866
17048	1.359988	-6.488310	14.684404	-1.376252	1.748235	-0.479144	-0.396337	0.183194	0.899643	0.206514	-0.936991	0.281779	0.894578	0.297468	0.333532
17049	-2.275858	-7.215055	10.337898	-1.322959	2.177790	0.012785	-0.415773	0.176640	0.892150	0.194720	-0.940921	0.277043	0.888379	0.288906	0.356814
17050	-4.018929	-6.739122	7.533454	-1.062811	2.163324	0.291441	-0.434350	0.167741	0.884987	0.186504	-0.944467	0.270551	0.881224	0.282567	0.378945
17051	-2.886357	-5.144712	7.202799	-0.811307	2.077920	0.477230	-0.451759	0.157340	0.878156	0.181449	-0.947547	0.263118	0.873493	0.278207	0.399513
17052	-0.721133	-3.439638	7.972785	-0.760788	2.091490	0.640085	-0.468783	0.145520	0.871244	0.177730	-0.950625	0.254408	0.865248	0.274108	0.419774
17053	1.414669	-1.473399	9.010272	-0.919196	2.230997	0.786833	-0.486666	0.131907	0.863572	0.173527	-0.954239	0.243547	0.856180	0.268380	0.441507
17054	3.513330	-0.055795	9.802539	-1.269693	2.517807	0.907912	-0.506538	0.116609	0.854296	0.167179	-0.958726	0.229989	0.845855	0.259319	0.466137
17055	5.471012	0.316718	9.876595	-1.658828	2.917983	0.965709	-0.529537	0.099873	0.842387	0.158206	-0.963995	0.213741	0.833404	0.246455	0.494670
17056	6.686206	-0.477564	9.128811	-1.908086	3.353226	0.979594	-0.555723	0.082426	0.827272	0.147712	-0.969452	0.195818	0.818140	0.231019	0.526571
17057	6.696460	-1.247217	7.953013	-1.954271	3.674904	0.995601	-0.584107	0.064484	0.809111	0.137531	-0.974563	0.176954	0.799940	0.214638	0.560381
17058	5.914696	-1.332948	6.656284	-1.868288	3.748318	1.055035	-0.612307	0.046464	0.789254	0.129030	-0.979015	0.157738	0.780020	0.198421	0.593462
17059	5.928455	-0.847300	6.148127	-1.768124	3.626781	1.174326	-0.638817	0.027962	0.768851	0.122726	-0.982839	0.137715	0.759507	0.182332	0.624422
17060	6.788678	-0.268654	6.325502	-1.729036	3.438794	1.339606	-0.662965	0.008814	0.748599	0.118437	-0.986104	0.116499	0.739223	0.165897	0.652708
17061	7.633266	-0.154096	6.670397	-1.739006	3.289940	1.536438	-0.685217	-0.011608	0.728247	0.116080	-0.988833	0.093460	0.719030	0.148575	0.678912
17062	7.970738	-1.119894	6.954219	-1.668144	3.174780	1.738645	-0.705699	-0.033233	0.707732	0.116294	-0.990785	0.069436	0.698903	0.131306	0.703060
17063	8.459482	-2.127517	7.588060	-1.445897	3.072655	1.943973	-0.724623	-0.056369	0.686836	0.120210	-0.991708	0.045433	0.678580	0.115486	0.725391
17064	9.062810	-1.923816	8.277966	-1.188890	2.988929	2.190607	-0.741873	-0.081310	0.665593	0.128278	-0.991497	0.021856	0.658156	0.101595	0.745995
17065	9.727042	-0.422295	8.695110	-1.052362	2.937403	2.482229	-0.757626	-0.108767	0.643563	0.140048	-0.990142	-0.002471	0.637487	0.088258	0.765390
17066	10.429882	1.323927	8.974413	-1.074525	2.916353	2.784935	-0.771809	-0.138647	0.620555	0.154560	-0.987575	-0.028417	0.616784	0.073981	0.783648
17067	10.752929	2.080019	8.859384	-1.105937	2.920650	3.016197	-0.784651	-0.170379	0.596066	0.171311	-0.983644	-0.055653	0.595799	0.058444	0.801004
17068	10.949743	2.698713	9.108719	-1.028963	2.914151	3.125713	-0.796056	-0.202496	0.570343	0.189949	-0.978344	-0.082232	0.574643	0.042874	0.817280
17069	11.708222	3.780141	9.520461	-0.860791	2.901618	3.075682	-0.806312	-0.233578	0.543417	0.209725	-0.971934	-0.106581	0.553061	0.028030	0.832669
17070	13.652058	5.949437	9.929432	-0.706133	2.915194	2.846756	-0.815867	-0.261737	0.515611	0.228944	-0.965039	-0.127612	0.530985	0.013931	0.847267
17071	16.660801	9.360839	9.194886	-0.781493	3.011500	2.471574	-0.825689	-0.285734	0.486410	0.245160	-0.958307	-0.146779	0.508070	-0.001946	0.861314
17072	18.366326	10.312359	5.944280	-1.119866	3.237875	1.987370	-0.836769	-0.304304	0.455211	0.256081	-0.952315	-0.165885	0.483984	-0.022237	0.874794
17073	17.590771	8.289635	2.655945	-1.308381	3.285245	1.375252	-0.848736	-0.316295	0.423798	0.261486	-0.947595	-0.183546	0.459643	-0.044965	0.886965
17074	16.129929	5.308119	-0.362951	-1.106806	2.866751	0.759781	-0.859612	-0.321888	0.396806	0.262965	-0.944570	-0.196563	0.438083	-0.064622	0.896609
17075	12.497957	-4.748868	-2.406867	-0.977336	1.822465	0.529656	-0.866099	-0.325583	0.379299	0.263301	-0.942137	-0.207486	0.424906	-0.079834	0.901710
17076	18.083537	3.324570	-21.960962	3.184161	-2.134972	-0.830068	-0.859133	-0.319028	0.400139	0.269787	-0.946773	-0.175600	0.434863	-0.042912	0.899474
17077	25.291388	4.699060	-12.806372	1.019164	-1.945800	1.527921	-0.846291	-0.334147	0.414895	0.287288	-0.942134	-0.172772	0.448617	-0.027021	0.893315
17078	27.372864	4.569975	-12.601805	2.196190	-3.239352	2.831471	-0.822813	-0.361027	0.438905	0.320958	-0.932543	-0.165378	0.469004	0.004795	0.883183
17079	31.330822	-12.883865	16.581482	2.545827	-3.151183	1.635435	-0.802303	-0.375513	0.464004	0.346361	-0.925954	-0.150476	0.486153	0.039986	0.872959
17080	39.451944	76.510065	42.407195	3.838735	2.166720	-2.053946	-0.819635	-0.357575	0.447592	0.347731	-0.931430	-0.107338	0.455282	0.067664	0.887772
17081	-34.021283	-2.336863	1.914625	-3.385865	1.661580	0.880641	-0.824155	-0.366550	0.431752	0.339539	-0.929911	-0.141345	0.453301	0.030106	0.890849
17082	13.784946	-11.837792	17.824234	-0.483211	-4.037000	-0.185348	-0.805782	-0.363377	0.467624	0.335711	-0.930770	-0.144798	0.487866	0.040311	0.871987
17083	16.117794	-11.729422	-4.403381	-0.200409	-0.198573	-0.016624	-0.804869	-0.363119	0.469394	0.334554	-0.930921	-0.146494	0.490163	0.039129	0.870752
17084	-0.164501	9.361051	21.230607	-0.356593	-0.062153	-0.089723	-0.804864	-0.362234	0.470086	0.332037	-0.931392	-0.149202	0.491880	0.035999	0.869918
17085	14.509535	-9.361557	-1.447293	-0.151551	-0.833533	0.142135	-0.800261	-0.363225	0.477126	0.332382	-0.930944	-0.151216	0.499103	0.037576	0.865727
17086	0.646826	0.902266	13.328822	0.071512	0.786071	-0.079825	-0.804425	-0.362742	0.470445	0.332052	-0.931219	-0.150243	0.492587	0.035353	0.869545
17087	7.028108	-1.886446	7.642569	-0.071793	-0.318710	0.001148	-0.802845	-0.362612	0.473237	0.331659	-0.931252	-0.150903	0.495422	0.035802	0.867914
17088	4.612052	-1.999601	9.114359	0.006233	0.033098	-0.027488	-0.803100	-0.362342	0.473009	0.331425	-0.931361	-0.150744	0.495163	0.035704	0.868066
17089	4.726584	-0.985052	9.276983	-0.016100	0.103594	-0.040592	-0.803745	-0.361973	0.472197	0.330971	-0.931526	-0.150723	0.494421	0.035140	0.868512
17090	5.144723	-1.575414	8.777112	0.030812	-0.083519	-0.038015	-0.803458	-0.361564	0.472998	0.330774	-0.931664	-0.150302	0.495019	0.035694	0.868149
17091	4.476932	-1.137636	9.217375	0.030486	0.037335	-0.040482	-0.803774	-0.361172	0.472760	0.330552	-0.931811	-0.149876	0.494655	0.035805	0.868352
17092	5.120941	-1.862586	8.773926	0.042567	-0.016402	-0.027963	-0.803786	-0.360880	0.472963	0.330494	-0.931909	-0.149400	0.494674	0.036226	0.868323
17093	4.767665	-2.121200	8.930658	0.043362	-0.002584	-0.033608	-0.803881	-0.360538	0.473062	0.330390	-0.932026	-0.148895	0.494588	0.036601	0.868356
17094	5.044519	-2.090066	8.809818	0.044063	-0.014732	-0.035966	-0.803928	-0.360171	0.473261	0.330275	-0.932151	-0.148368	0.494589	0.037029	0.868338
17095	5.203701	-1.798607	8.859830	0.059684	-0.002524	-0.040690	-0.804047	-0.359764	0.473369	0.330195	-0.932287	-0.147689	0.494449	0.037555	0.868395
17096	5.088002	-1.617386	8.900784	0.056141	0.017113	-0.031439	-0.804236	-0.359451	0.473286	0.330175	-0.932391	-0.147078	0.494154	0.037982	0.868544
17097	4.921205	-1.505056	8.976581	0.054934	0.020237	-0.027536	-0.804424	-0.359175	0.473176	0.330177	-0.932481	-0.146502	0.493848	0.038382	0.868701
17098	4.938515	-1.467985	8.894486	0.046553	0.017302	-0.022526	-0.804584	-0.358945	0.473077	0.330182	-0.932555	-0.146017	0.493583	0.038719	0.868837
17099	4.909241	-1.391700	8.980638	0.033542	0.019802	-0.010399	-0.804713	-0.358829	0.472947	0.330215	-0.932592	-0.145708	0.493350	0.038921	0.868960
17100	4.929193	-1.438251	8.933012	0.025258	0.027124	-0.007865	-0.804874	-0.358740	0.472741	0.330233	-0.932622	-0.145477	0.493077	0.039024	0.869110
17101	4.841219	-1.467041	8.939474	0.020325	0.020730	0.007215	-0.804949	-0.358788	0.472576	0.330343	-0.932600	-0.145366	0.492880	0.039100	0.869218
17102	4.812536	-1.531603	8.910280	0.010394	0.021111	0.001702	-0.805048	-0.358786	0.472409	0.330364	-0.932601	-0.145309	0.492704	0.039086	0.869319
17103	4.853250	-1.636700	8.867167	0.006465	0.014399	0.006478	-0.805095	-0.358824	0.472300	0.330399	-0.932588	-0.145315	0.492604	0.039055	0.869377
17104	4.890250	-1.568821	8.865964	0.016756	0.013942	-0.000374	-0.805165	-0.358800	0.472198	0.330435	-0.932594	-0.145193	0.492465	0.039126	0.869453
17105	4.835701	-1.554280	8.867016	0.025635	0.018848	-0.003086	-0.805265	-0.358751	0.472065	0.330488	-0.932607	-0.144988	0.492266	0.039258	0.869559
17106	4.846164	-1.406297	8.896479	0.028803	0.015553	-0.007442	-0.805367	-0.358662	0.471959	0.330526	-0.932634	-0.144728	0.492073	0.039436	0.869660
17107	4.748748	-1.383948	8.918955	0.016949	0.011709	-0.000611	-0.805424	-0.358633	0.471884	0.330556	-0.932642	-0.144609	0.491961	0.039512	0.869720
17108	4.751418	-1.463546	8.954178	0.010140	0.001191	0.000026	-0.805430	-0.358608	0.471892	0.330562	-0.932649	-0.144547	0.491946	0.039567	0.869726
17109	4.838551	-1.379846	8.933397	0.004474	-0.003786	-0.000231	-0.805409	-0.358577	0.471952	0.330534	-0.932661	-0.144539	0.491999	0.039583	0.869695
17110	4.804926	-1.475317	8.954213	-0.002403	-0.001826	-0.001843	-0.805407	-0.358533	0.471989	0.330464	-0.932680	-0.144577	0.492050	0.039532	0.869669
17111	4.773139	-1.518463	8.958775	0.004699	-0.017917	-0.004855	-0.805332	-0.358453	0.472178	0.330400	-0.932707	-0.144544	0.492216	0.039601	0.869572
17112	4.843808	-1.701487	8.883713	0.009800	-0.021372	-0.009664	-0.805260	-0.358328	0.472396	0.330326	-0.932750	-0.144439	0.492384	0.039734	0.869471
17113	4.754753	-1.610285	8.945589	0.012596	-0.020206	-0.013549	-0.805202	-0.358167	0.472617	0.330231	-0.932805	-0.144297	0.492542	0.039884	0.869374
17114	4.857129	-1.661781	8.776325	0.017168	-0.032673	-0.016785	-0.805097	-0.357971	0.472944	0.330136	-0.932870	-0.144095	0.492777	0.040126	0.869230
17115	4.483318	-1.689001	8.914727	0.003506	-0.037436	-0.023006	-0.804985	-0.357714	0.473328	0.329920	-0.932963	-0.143987	0.493104	0.040253	0.869039
17116	4.078473	-1.811867	8.853461	-0.021608	-0.076966	-0.039654	-0.804737	-0.357287	0.474072	0.329451	-0.933125	-0.144013	0.493823	0.040291	0.868629
17117	3.875752	-1.967055	9.076767	-0.055281	-0.187996	-0.071660	-0.804040	-0.356516	0.475833	0.328553	-0.933415	-0.144185	0.495554	0.040406	0.867637
17118	4.869260	-1.745443	8.885094	-0.065506	-0.263142	-0.108150	-0.803088	-0.355373	0.478289	0.327314	-0.933838	-0.144262	0.497911	0.040696	0.866273
17119	5.075705	-1.439488	8.912231	-0.050117	-0.208663	-0.111425	-0.802408	-0.354221	0.480280	0.326122	-0.934266	-0.144195	0.499786	0.040927	0.865181
17120	5.048732	-1.363216	8.995702	-0.055464	-0.250008	-0.105909	-0.801501	-0.353102	0.482613	0.324950	-0.934675	-0.144189	0.501999	0.041257	0.863883
17121	5.407761	-1.300143	8.865062	-0.039916	-0.185357	-0.097210	-0.800881	-0.352090	0.484378	0.323923	-0.935046	-0.144096	0.503650	0.041497	0.862910
17122	4.949096	-1.335330	9.018812	-0.050776	-0.197185	-0.077781	-0.800138	-0.351255	0.486209	0.322999	-0.935352	-0.144182	0.505421	0.041680	0.861866
17123	5.407577	-1.014353	8.844062	-0.050385	-0.168179	-0.065278	-0.799494	-0.350547	0.487776	0.322174	-0.935614	-0.144330	0.506965	0.041758	0.860955
17124	5.116852	-1.336924	8.935312	-0.073937	-0.180857	-0.047365	-0.798728	-0.350002	0.489419	0.321376	-0.935822	-0.144759	0.508675	0.041664	0.859950
17125	5.068868	-1.468118	8.843639	-0.076874	-0.164705	-0.037413	-0.798006	-0.349557	0.490914	0.320637	-0.935996	-0.145268	0.510273	0.041481	0.859011
17126	5.062345	-1.574251	8.876406	-0.077070	-0.177623	-0.030648	-0.797196	-0.349170	0.492502	0.319954	-0.936147	-0.145803	0.511964	0.041344	0.858011
17127	4.788578	-1.965427	8.861807	-0.063403	-0.166257	-0.048574	-0.796495	-0.348620	0.494024	0.319193	-0.936354	-0.146139	0.513528	0.041290	0.857079
17128	4.703792	-2.174193	8.881270	-0.036610	-0.201710	-0.070428	-0.795682	-0.347851	0.495872	0.318400	-0.936626	-0.146128	0.515278	0.041614	0.856012
17129	4.666373	-2.484131	8.853645	-0.004887	-0.257786	-0.105381	-0.794683	-0.346729	0.498256	0.317488	-0.937006	-0.145678	0.517379	0.042423	0.854704
17130	4.961484	-2.001296	8.986970	0.039175	-0.293985	-0.125948	-0.793558	-0.345395	0.500967	0.316646	-0.937436	-0.144738	0.519617	0.043771	0.853278
17131	5.055500	-1.850630	8.945444	0.050747	-0.316451	-0.139643	-0.792347	-0.343919	0.503890	0.315754	-0.937906	-0.143636	0.522001	0.045296	0.851741
17132	4.776172	-2.011200	9.075569	0.062644	-0.373029	-0.174289	-0.790944	-0.342085	0.507331	0.314658	-0.938486	-0.142246	0.524784	0.047127	0.849930
17133	4.764164	-1.619125	9.368651	0.034325	-0.382462	-0.244161	-0.789693	-0.339585	0.510947	0.312860	-0.939313	-0.140744	0.527734	0.048710	0.848012
17134	4.010563	-1.772757	9.695772	-0.030929	-0.364369	-0.294531	-0.788683	-0.336611	0.514464	0.310327	-0.940336	-0.139520	0.530733	0.049615	0.846086
17135	4.946728	-0.402560	9.750726	0.056650	-0.788716	-0.233651	-0.785192	-0.333985	0.521467	0.308742	-0.941101	-0.137864	0.536798	0.052749	0.842061
17136	4.162858	-1.458165	9.700728	-0.008193	-0.614595	-0.225657	-0.782572	-0.331503	0.526960	0.306884	-0.941868	-0.136773	0.541667	0.054680	0.838813
17137	4.928566	-0.803312	9.753126	0.015556	-0.920864	-0.198742	-0.778156	-0.329089	0.534952	0.305370	-0.942527	-0.135619	0.548837	0.057825	0.833927
17138	4.443646	-1.404755	9.803170	0.055057	-0.980420	-0.176627	-0.773276	-0.326812	0.543358	0.304258	-0.943085	-0.134231	0.556301	0.061523	0.828700
17139	4.250918	-2.451940	10.230055	0.121437	-1.209925	-0.231977	-0.767193	-0.323825	0.553672	0.303105	-0.943773	-0.131986	0.565281	0.066562	0.822209
17140	3.795220	-3.212881	10.612502	0.276308	-1.485140	-0.369471	-0.759836	-0.319266	0.566321	0.301814	-0.944779	-0.127677	0.575810	0.073910	0.814236
17141	4.253433	-2.752571	9.930056	0.461023	-1.852230	-0.525084	-0.750633	-0.312817	0.581976	0.300486	-0.946085	-0.120962	0.588437	0.084078	0.804160
17142	4.527945	-2.501923	9.737136	0.576681	-2.096991	-0.705567	-0.740259	-0.304220	0.599556	0.298613	-0.947755	-0.112209	0.602368	0.095971	0.792428
17143	4.263849	-2.347456	9.611012	0.754390	-2.391251	-0.914020	-0.728390	-0.293063	0.619324	0.296456	-0.949718	-0.100742	0.617707	0.110223	0.778645
17144	4.142684	-1.970059	9.481203	0.956717	-2.728962	-1.152516	-0.714702	-0.278838	0.641444	0.294083	-0.951892	-0.086121	0.634600	0.127087	0.762320
17145	4.280101	-2.390114	9.552143	1.162312	-3.117246	-1.389162	-0.698697	-0.261316	0.665985	0.291704	-0.954066	-0.068320	0.653247	0.146535	0.742830
17146	5.047667	-2.748674	10.402491	1.231214	-3.515371	-1.593866	-0.679990	-0.240549	0.692639	0.288838	-0.956149	-0.048501	0.673933	0.167080	0.719652
17147	6.467141	-3.838350	10.460547	1.242873	-3.696535	-1.840751	-0.659967	-0.216363	0.719465	0.284967	-0.958164	-0.026745	0.695153	0.187373	0.694013
17148	9.851905	-4.405515	11.810528	1.244191	-3.819693	-1.951704	-0.638523	-0.190081	0.745760	0.281027	-0.959691	-0.003992	0.716458	0.207030	0.666203
17149	9.877416	-4.683460	11.663194	1.298793	-3.710107	-2.083399	-0.617394	-0.162034	0.769786	0.277330	-0.960562	0.020237	0.736147	0.225979	0.637982
17150	10.023674	-5.009241	10.894383	1.430370	-3.711418	-2.198568	-0.595786	-0.132138	0.792198	0.274606	-0.960440	0.046321	0.754739	0.245140	0.608503
17151	10.155693	-4.186273	10.920460	1.476068	-3.746307	-2.318489	-0.573517	-0.100348	0.813024	0.272275	-0.959397	0.073651	0.772622	0.263606	0.577553
17152	10.526667	-5.864373	10.714635	1.634121	-3.691012	-2.458033	-0.551367	-0.066684	0.831593	0.271159	-0.957003	0.103045	0.788966	0.282310	0.545742
17153	9.005970	-5.428126	10.666787	1.890897	-3.530962	-2.510695	-0.530091	-0.032397	0.847322	0.272585	-0.952740	0.134103	0.802933	0.302054	0.513870
17154	7.314374	-5.425011	9.831570	2.170166	-3.474321	-2.604472	-0.509125	0.003232	0.860686	0.276559	-0.946349	0.167147	0.815050	0.323129	0.480917
17155	1.939381	-5.385398	7.652214	2.633851	-3.393913	-2.822237	-0.489217	0.041166	0.871190	0.284016	-0.936919	0.203761	0.824622	0.347115	0.446665
17156	-0.439469	-1.662608	10.337441	3.195327	-3.329031	-3.082256	-0.470576	0.081895	0.878551	0.295634	-0.923500	0.244434	0.831360	0.374754	0.410366
17157	17.815436	5.121442	24.281176	2.412872	-2.675833	-2.576119	-0.456000	0.115792	0.882415	0.303771	-0.911706	0.276614	0.836533	0.394188	0.380563
17158	10.183335	-0.507081	23.545091	0.012530	-0.095758	-1.467728	-0.459602	0.129569	0.878623	0.297107	-0.909870	0.289592	0.836955	0.394142	0.379682
17159	3.390907	-5.031645	16.909631	-1.059310	0.971652	-0.675248	-0.469735	0.131887	0.872900	0.285056	-0.913153	0.291366	0.835519	0.385690	0.391345
17160	-1.151434	-8.446742	11.961244	-1.274795	1.661929	-0.153579	-0.484008	0.126993	0.865800	0.273650	-0.917824	0.287603	0.831175	0.376128	0.409482
17161	-3.965424	-8.151374	8.215890	-1.076252	1.814846	0.154380	-0.498676	0.118750	0.858615	0.265440	-0.922059	0.281690	0.825145	0.368382	0.428288
17162	-3.469545	-5.817065	7.184499	-0.871305	1.769863	0.337948	-0.512328	0.109193	0.851820	0.259937	-0.925641	0.274995	0.818507	0.362307	0.445848
17163	-1.554427	-3.601216	7.607116	-0.937776	1.811676	0.501093	-0.525865	0.097964	0.844907	0.254840	-0.929566	0.266390	0.811494	0.355401	0.463862
17164	0.235914	-2.199364	8.234494	-1.211614	1.992114	0.644706	-0.540328	0.085000	0.837150	0.248439	-0.934418	0.255228	0.803942	0.345888	0.483775
17165	1.617015	-1.525137	8.682716	-1.549713	2.227039	0.785929	-0.556287	0.069986	0.828038	0.240301	-0.940327	0.240914	0.795487	0.332996	0.506274
17166	2.904777	-0.619002	8.916543	-1.874123	2.474411	0.873454	-0.573792	0.053734	0.817237	0.230366	-0.946970	0.224007	0.785935	0.316797	0.530985
17167	4.255992	0.483808	8.883831	-2.206137	2.740967	0.906538	-0.593223	0.036612	0.804205	0.218388	-0.954187	0.204534	0.774850	0.296963	0.558050
17168	5.241530	1.033597	8.492006	-2.518224	3.026823	0.924479	-0.614522	0.019149	0.788667	0.204568	-0.961642	0.182747	0.761915	0.273638	0.587033
17169	6.000653	0.814602	7.977180	-2.719651	3.255014	0.932531	-0.637316	0.001570	0.770601	0.189841	-0.968858	0.158979	0.746853	0.247611	0.617171
17170	5.956977	0.228485	7.522789	-2.745717	3.386390	0.963427	-0.660556	-0.015696	0.750613	0.175766	-0.975230	0.134285	0.729912	0.220635	0.646953
17171	6.114058	0.301820	7.593922	-2.644583	3.374887	1.047526	-0.683179	-0.033026	0.729504	0.163700	-0.980479	0.108917	0.711666	0.193830	0.675249
17172	6.966066	0.497905	7.680645	-2.530275	3.329867	1.189451	-0.704665	-0.050702	0.707726	0.154137	-0.984563	0.082935	0.692596	0.167528	0.701602
17173	7.131353	-0.278043	7.806762	-2.352243	3.289356	1.378965	-0.725105	-0.069483	0.685124	0.147905	-0.987392	0.056398	0.672567	0.142228	0.726240
17174	7.065641	-1.385677	8.053581	-2.050040	3.189313	1.590173	-0.743890	-0.089341	0.662304	0.145956	-0.988819	0.030549	0.652170	0.119393	0.748612
17175	7.512121	-1.894832	8.529273	-1.662661	3.045531	1.836202	-0.760794	-0.110921	0.639444	0.149071	-0.988809	0.005838	0.631640	0.099764	0.768816
17176	9.394686	-1.028813	9.304291	-1.307471	2.912645	2.115252	-0.775652	-0.134462	0.616671	0.157148	-0.987417	-0.017639	0.611284	0.083227	0.787023
17177	11.935458	1.604763	9.557677	-1.159389	2.832235	2.466648	-0.788707	-0.161000	0.593313	0.169453	-0.984646	-0.041933	0.590954	0.067466	0.803879
17178	14.186752	4.414772	9.095456	-1.204245	2.854236	2.778769	-0.800360	-0.189964	0.568627	0.184493	-0.980487	-0.067877	0.570426	0.050582	0.819790
17179	15.210404	6.535475	7.370432	-1.282997	2.937187	2.940072	-0.811184	-0.219993	0.541833	0.200986	-0.974981	-0.094959	0.549167	0.031872	0.835105
17180	15.096320	7.507775	5.667625	-1.256081	2.948168	2.898653	-0.820987	-0.248795	0.513888	0.217835	-0.968473	-0.120866	0.527757	0.012713	0.849300
17181	15.383376	6.989261	3.921040	-1.046580	2.735037	2.665529	-0.829155	-0.274681	0.486881	0.234397	-0.961524	-0.143281	0.507504	-0.004679	0.861637
17182	15.869400	6.062176	3.051577	-0.598557	2.445127	2.179700	-0.836058	-0.295276	0.462405	0.249520	-0.955253	-0.158844	0.488617	-0.017423	0.872324
17183	16.860492	7.496193	1.903321	-0.222516	2.166991	1.556159	-0.842505	-0.309666	0.440785	0.261496	-0.950484	-0.167930	0.470961	-0.026218	0.881764
17184	17.141555	8.387735	1.180772	-0.218055	1.883939	1.049085	-0.848449	-0.319025	0.422323	0.269312	-0.947127	-0.174416	0.455637	-0.034247	0.889507
17185	17.139545	7.054940	0.404290	-0.409037	1.559016	0.796465	-0.853311	-0.325971	0.406944	0.274226	-0.944390	-0.181460	0.443465	-0.043247	0.895248
17186	17.083813	4.613122	-0.379140	-0.437004	1.129495	0.749583	-0.856200	-0.332483	0.395445	0.278671	-0.941723	-0.188416	0.435045	-0.051123	0.898956
17187	13.653120	-3.428665	-0.915977	-0.550755	0.488372	0.971103	-0.855593	-0.341348	0.389156	0.284562	-0.938144	-0.197258	0.432418	-0.058034	0.899804
17188	16.231960	-0.760127	-18.708352	3.154157	-3.129247	0.306282	-0.840892	-0.345383	0.416668	0.301033	-0.938295	-0.170243	0.449756	-0.017726	0.892976
17189	11.851800	10.143745	-4.523009	2.243421	-2.326138	1.686722	-0.825002	-0.361231	0.434607	0.325268	-0.932407	-0.157539	0.462138	0.011393	0.886735
17190	33.796833	-6.126286	24.882468	2.795601	-3.738566	0.603332	-0.805310	-0.365657	0.466659	0.343362	-0.929353	-0.135670	0.483299	0.050977	0.873970
17191	39.956937	68.081594	37.175737	1.258474	1.904430	-1.216996	-0.818474	-0.355325	0.451491	0.339386	-0.933078	-0.119090	0.463592	0.055758	0.884292
17192	-35.530712	-12.249274	-5.328952	-2.217145	2.015588	0.832444	-0.824918	-0.363901	0.432535	0.336004	-0.931023	-0.142471	0.454545	0.027807	0.890289
17193	21.992923	-6.796367	21.457282	-0.473375	-4.584246	-0.073703	-0.803432	-0.361631	0.472990	0.333117	-0.931463	-0.146322	0.493487	0.040001	0.868833
17194	10.051494	-10.193825	-5.022284	-0.012784	1.872341	-0.271297	-0.813433	-0.359761	0.457055	0.330818	-0.932457	-0.145198	0.478421	0.033093	0.877507
17195	-2.596765	7.934078	20.605393	-0.475382	-1.137644	0.046174	-0.807769	-0.359786	0.466971	0.328841	-0.932461	-0.149600	0.489257	0.032717	0.871526
17196	13.334015	-6.435210	2.013063	-0.338280	-0.292728	0.148811	-0.805844	-0.361055	0.469313	0.328337	-0.932043	-0.153268	0.492758	0.030583	0.869629
17197	2.682951	-2.578567	10.602288	-0.031761	0.033074	0.029137	-0.805905	-0.361304	0.469016	0.328365	-0.931961	-0.153706	0.492639	0.030136	0.869712
17198	6.552826	-2.156566	8.246958	-0.109205	0.031625	0.023134	-0.805986	-0.361503	0.468724	0.327969	-0.931921	-0.154790	0.492770	0.028968	0.869677
17199	5.139121	-3.043439	8.323781	0.028507	-0.076870	-0.022313	-0.805674	-0.361241	0.469461	0.327880	-0.932006	-0.154465	0.493339	0.029478	0.869337
17200	4.781772	-0.971762	9.256086	0.033241	0.097045	-0.050175	-0.806318	-0.360776	0.468713	0.327595	-0.932189	-0.153966	0.492476	0.029402	0.869829
17201	5.073375	-0.950428	8.963067	0.020573	0.031085	-0.021964	-0.806537	-0.360549	0.468511	0.327469	-0.932275	-0.153712	0.492202	0.029448	0.869983
17202	4.373586	-0.572889	9.317044	0.010335	0.030939	-0.008497	-0.806718	-0.360453	0.468273	0.327407	-0.932314	-0.153608	0.491946	0.029397	0.870129
17203	4.485015	-0.998787	9.247819	-0.066865	-0.023436	0.027538	-0.806506	-0.360672	0.468469	0.327250	-0.932247	-0.154345	0.492397	0.028826	0.869893
17204	4.933230	-1.062325	9.056345	-0.034313	-0.002784	0.020911	-0.806425	-0.360840	0.468480	0.327206	-0.932193	-0.154768	0.492560	0.028481	0.869812
17205	4.648271	-2.313365	8.860147	-0.037215	-0.090516	0.019250	-0.805910	-0.360962	0.469271	0.327127	-0.932147	-0.155207	0.493453	0.028429	0.869308
17206	5.176994	-2.097035	8.724777	-0.022489	0.001662	0.007485	-0.805895	-0.361006	0.469264	0.327033	-0.932138	-0.155463	0.493541	0.028177	0.869266
17207	5.128239	-2.022740	8.819747	-0.004395	-0.016752	-0.007214	-0.805830	-0.360902	0.469455	0.326903	-0.932178	-0.155494	0.493734	0.028164	0.869157
17208	4.842586	-2.185377	8.856410	0.007612	0.001171	-0.021716	-0.805907	-0.360674	0.469497	0.326721	-0.932266	-0.155352	0.493727	0.028195	0.869160
17209	4.890316	-1.941921	8.865269	0.022833	-0.009154	-0.036150	-0.805974	-0.360303	0.469667	0.326492	-0.932403	-0.155011	0.493769	0.028408	0.869129
17210	4.956208	-1.528476	8.906178	0.027675	-0.001705	-0.037693	-0.806090	-0.359925	0.469759	0.326281	-0.932542	-0.154619	0.493721	0.028636	0.869149
17211	4.866085	-1.435208	8.969362	0.019972	-0.005490	-0.024005	-0.806135	-0.359669	0.469878	0.326135	-0.932635	-0.154360	0.493743	0.028809	0.869130
17212	4.817537	-1.357696	9.064778	0.005585	-0.009531	-0.012171	-0.806128	-0.359526	0.469998	0.326021	-0.932689	-0.154280	0.493830	0.028860	0.869080
17213	4.862464	-1.502079	8.927283	-0.003736	-0.005130	-0.000728	-0.806099	-0.359487	0.470078	0.325946	-0.932705	-0.154336	0.493926	0.028810	0.869026
17214	4.897368	-1.407047	8.906437	-0.008092	-0.010606	0.003118	-0.806037	-0.359487	0.470184	0.325887	-0.932708	-0.154447	0.494066	0.028737	0.868949
17215	4.876677	-1.404330	8.916574	-0.011950	-0.010289	0.004023	-0.805967	-0.359490	0.470302	0.325810	-0.932710	-0.154597	0.494231	0.028629	0.868859
17216	4.859325	-1.574617	8.883972	-0.017442	-0.005607	0.007925	-0.805914	-0.359536	0.470357	0.325744	-0.932697	-0.154811	0.494361	0.028451	0.868791
17217	4.810318	-1.690572	8.878799	-0.018886	-0.015355	0.006260	-0.805812	-0.359559	0.470515	0.325651	-0.932693	-0.155031	0.494589	0.028297	0.868666
17218	4.692613	-1.675219	8.963927	-0.025076	-0.025522	0.002287	-0.805679	-0.359547	0.470752	0.325501	-0.932703	-0.155286	0.494904	0.028120	0.868492
17219	4.810509	-1.574749	8.933725	-0.023738	-0.049797	-0.002439	-0.805434	-0.359478	0.471223	0.325313	-0.932732	-0.155507	0.495426	0.028044	0.868197
17220	4.912510	-1.590072	8.855413	-0.017630	-0.042250	-0.006497	-0.805247	-0.359380	0.471618	0.325130	-0.932771	-0.155655	0.495851	0.027996	0.867956
17221	4.939269	-1.587521	8.788365	0.000042	-0.035651	-0.013280	-0.805107	-0.359215	0.471983	0.324972	-0.932832	-0.155619	0.496181	0.028091	0.867764
17222	4.835737	-1.515680	8.825451	0.001485	-0.025903	-0.011611	-0.805017	-0.359073	0.472244	0.324842	-0.932884	-0.155577	0.496413	0.028163	0.867630
17223	4.042076	-1.703886	9.008622	-0.042201	-0.045689	-0.014586	-0.804831	-0.358893	0.472698	0.324465	-0.932962	-0.155901	0.496960	0.027900	0.867325
17224	4.442775	-1.950506	8.984505	-0.059582	-0.163713	-0.035798	-0.804133	-0.358487	0.474191	0.323836	-0.933118	-0.156274	0.498498	0.027896	0.866442
17225	5.129164	-1.586296	8.807939	-0.050092	-0.161103	-0.051126	-0.803488	-0.357934	0.475700	0.323125	-0.933328	-0.156491	0.499997	0.027971	0.865575
17226	4.807006	-1.684898	8.988207	-0.067295	-0.140804	-0.046421	-0.802933	-0.357436	0.477009	0.322371	-0.933524	-0.156878	0.501373	0.027811	0.864784
17227	5.024277	-2.006382	8.724874	-0.045999	-0.157671	-0.057336	-0.802320	-0.356825	0.478496	0.321629	-0.933754	-0.157028	0.502829	0.027911	0.863935
17228	5.047044	-1.643081	8.828297	-0.019004	-0.140330	-0.069831	-0.801839	-0.356108	0.479836	0.320929	-0.934019	-0.156883	0.504043	0.028198	0.863218
17229	5.173506	-1.583008	8.754043	-0.002370	-0.117709	-0.067163	-0.801454	-0.355416	0.480990	0.320328	-0.934272	-0.156608	0.505037	0.028561	0.862625
17230	4.926977	-1.490521	8.919518	-0.006493	-0.109741	-0.064349	-0.801105	-0.354757	0.482056	0.319735	-0.934513	-0.156379	0.505964	0.028854	0.862072
17231	4.734619	-1.542200	8.914541	-0.029135	-0.112393	-0.059279	-0.800719	-0.354140	0.483151	0.319062	-0.934745	-0.156371	0.507000	0.028946	0.861460
17232	4.912903	-1.510581	8.947119	-0.037787	-0.164961	-0.062014	-0.800079	-0.353486	0.484687	0.318330	-0.934986	-0.156421	0.508468	0.029141	0.860588
17233	5.283450	-1.235044	8.890662	-0.042629	-0.151913	-0.052962	-0.799468	-0.352915	0.486110	0.317638	-0.935198	-0.156557	0.509860	0.029245	0.859760
17234	5.080329	-1.540201	8.885228	-0.054291	-0.137517	-0.038814	-0.798889	-0.352486	0.487371	0.317007	-0.935362	-0.156860	0.511159	0.029186	0.858991
17235	4.970232	-1.634405	8.831254	-0.050963	-0.141438	-0.036594	-0.798274	-0.352071	0.488676	0.316403	-0.935518	-0.157145	0.512492	0.029174	0.858196
17236	4.876245	-1.763113	8.816765	-0.064020	-0.157799	-0.039441	-0.797589	-0.351630	0.490110	0.315715	-0.935687	-0.157526	0.513980	0.029094	0.857308
17237	4.844982	-1.587516	8.874176	-0.065940	-0.173828	-0.046028	-0.796833	-0.351118	0.491705	0.314958	-0.935880	-0.157890	0.515616	0.029054	0.856327
17238	4.818722	-1.637482	8.901954	-0.087192	-0.193221	-0.043806	-0.795972	-0.350626	0.493447	0.314114	-0.936070	-0.158445	0.517456	0.028880	0.855222
17239	4.915859	-1.935213	8.863572	-0.079457	-0.233235	-0.056046	-0.794932	-0.350002	0.495562	0.313205	-0.936302	-0.158873	0.519601	0.028919	0.853919
17240	4.894315	-2.081547	8.864730	-0.064991	-0.240454	-0.079222	-0.793928	-0.349165	0.497758	0.312193	-0.936609	-0.159058	0.521742	0.029115	0.852606
17241	5.001445	-2.395529	8.787982	-0.027330	-0.266821	-0.102003	-0.792844	-0.348100	0.500225	0.311190	-0.936985	-0.158808	0.523985	0.029755	0.851208
17242	4.938846	-2.308559	8.895350	0.045346	-0.287998	-0.109408	-0.791671	-0.346961	0.502866	0.310516	-0.937362	-0.157898	0.526152	0.031145	0.849820
17243	4.530452	-2.313846	9.212150	0.066788	-0.351175	-0.141739	-0.790252	-0.345489	0.506102	0.309696	-0.937844	-0.156643	0.528763	0.032951	0.848129
17244	4.822897	-1.828446	9.210155	0.093172	-0.437077	-0.202008	-0.788558	-0.343419	0.510138	0.308550	-0.938519	-0.154851	0.531953	0.035294	0.846038
17245	3.731706	-1.292411	9.934957	0.019689	-0.492890	-0.241196	-0.786661	-0.340946	0.514704	0.306705	-0.939349	-0.153476	0.535813	0.037129	0.843520
17246	5.669891	-0.898737	9.073094	0.014043	-0.660523	-0.210857	-0.783749	-0.338685	0.520604	0.305080	-0.940071	-0.152289	0.540984	0.039469	0.840107
17247	4.079059	-1.199937	9.703844	-0.000583	-0.679724	-0.188360	-0.780621	-0.336609	0.526617	0.303553	-0.940720	-0.151334	0.546339	0.041722	0.836524
17248	5.088382	-0.956839	9.305190	-0.027969	-0.822856	-0.163276	-0.776592	-0.334693	0.533747	0.302082	-0.941291	-0.150724	0.552857	0.044184	0.832104
17249	5.096724	-1.146925	9.139435	-0.008845	-0.912212	-0.126370	-0.771892	-0.333057	0.541531	0.301005	-0.941729	-0.150142	0.559982	0.047111	0.827164
17250	5.006480	-1.553907	9.091235	0.014825	-0.990260	-0.111028	-0.766641	-0.331502	0.549880	0.300188	-0.942102	-0.149435	0.567581	0.050504	0.821767
17251	4.943860	-1.938561	9.064511	0.075929	-1.125364	-0.133478	-0.760601	-0.329622	0.559317	0.299554	-0.942515	-0.148096	0.575980	0.054903	0.815618
17252	4.843173	-2.486155	9.316146	0.142809	-1.245576	-0.185721	-0.753925	-0.327127	0.569724	0.298930	-0.943054	-0.145908	0.585011	0.060304	0.808780
17253	4.631065	-2.965955	9.344058	0.288350	-1.475860	-0.267793	-0.746010	-0.323627	0.582009	0.298574	-0.943753	-0.142068	0.595250	0.067788	0.800676
17254	4.514790	-3.217845	9.383915	0.422740	-1.684928	-0.424425	-0.737150	-0.318371	0.596029	0.297920	-0.944821	-0.136222	0.606510	0.077152	0.791324
17255	4.315751	-2.775466	9.451960	0.561572	-2.001978	-0.592280	-0.726634	-0.311085	0.612560	0.296978	-0.946232	-0.128255	0.619521	0.088723	0.779950
17256	3.799244	-2.792895	10.172122	0.660684	-2.363582	-0.782368	-0.714127	-0.301391	0.631812	0.295438	-0.948010	-0.118297	0.634617	0.102182	0.766042
17257	2.764689	-2.370890	10.958463	0.739391	-2.959271	-1.084396	-0.698253	-0.287818	0.655441	0.292493	-0.950403	-0.105744	0.653368	0.117876	0.747807
17258	3.188789	-2.724799	10.312128	0.812280	-3.664781	-1.430167	-0.678035	-0.269526	0.683831	0.288003	-0.953372	-0.090202	0.676257	0.135785	0.724043
17259	5.511229	-3.952451	11.025646	1.082765	-4.135992	-1.728194	-0.654497	-0.246953	0.714596	0.283895	-0.956264	-0.070450	0.700740	0.156761	0.695981
17260	7.470027	-4.186112	11.632551	1.149184	-4.241794	-1.981164	-0.629834	-0.220855	0.744669	0.279314	-0.958990	-0.048177	0.724771	0.177653	0.665693
17261	10.131102	-4.080480	12.377979	1.177319	-4.323267	-2.134295	-0.603906	-0.192229	0.773528	0.274771	-0.961201	-0.024350	0.748197	0.197838	0.633294
17262	10.510115	-3.017987	11.496094	0.963054	-4.200699	-2.210380	-0.578009	-0.162265	0.799735	0.268970	-0.963148	-0.001023	0.770429	0.214513	0.600352
17263	10.874959	-4.334951	10.913981	0.768040	-4.219202	-2.282563	-0.551105	-0.130915	0.824103	0.262036	-0.964808	0.021965	0.792225	0.228050	0.566014
17264	10.874099	-6.329385	10.290517	0.904511	-4.194228	-2.440650	-0.523764	-0.097474	0.846268	0.256125	-0.965485	0.047312	0.812448	0.241531	0.530652
17265	11.076479	-6.157623	10.993856	1.203105	-4.070966	-2.618526	-0.496992	-0.062069	0.865532	0.252592	-0.964594	0.075866	0.830178	0.256332	0.495074
17266	10.927122	-5.913415	10.789084	1.458685	-3.763841	-2.683083	-0.472225	-0.026243	0.881087	0.251755	-0.961938	0.106278	0.844762	0.272006	0.460858
17267	5.573056	-7.320512	8.975427	1.799701	-3.554505	-2.830404	-0.449152	0.010881	0.893389	0.253976	-0.957120	0.139344	0.856597	0.289486	0.427129
17268	3.258070	-6.390529	6.468172	2.332106	-3.507261	-3.126428	-0.426972	0.051244	0.902812	0.260318	-0.949163	0.176988	0.865985	0.310587	0.391926
17269	-3.470272	-4.214047	7.339255	3.205827	-3.572187	-3.496531	-0.405270	0.095768	0.909167	0.273584	-0.936216	0.220570	0.872301	0.338124	0.353219
17270	19.751139	3.835066	22.870281	2.958570	-3.233803	-2.989126	-0.385364	0.134905	0.912850	0.287595	-0.922423	0.257730	0.876803	0.361851	0.316671
17271	13.053639	-0.015333	24.515758	0.502504	-0.216367	-1.782541	-0.388608	0.152047	0.908771	0.285047	-0.918069	0.275495	0.876203	0.366102	0.313428
17272	4.607173	-2.657577	18.415001	-0.836839	1.125741	-0.899187	-0.400968	0.156253	0.902668	0.274124	-0.919734	0.280974	0.874117	0.360104	0.325951
17273	-1.508096	-6.924363	12.828239	-1.420026	1.998427	-0.221410	-0.419048	0.151130	0.895298	0.260776	-0.924472	0.278112	0.869709	0.350015	0.347987
17274	-4.350459	-7.895856	8.984846	-1.404263	2.234665	0.148577	-0.438031	0.142071	0.887662	0.249191	-0.929548	0.271742	0.863732	0.340229	0.371768
17275	-4.142518	-7.252081	7.608908	-1.113374	2.188649	0.316924	-0.456158	0.131666	0.880104	0.240972	-0.933769	0.264590	0.856652	0.332775	0.394219
17276	-2.186010	-5.498784	8.027996	-0.936157	2.237189	0.464354	-0.474120	0.119974	0.872248	0.235099	-0.937452	0.256733	0.848492	0.326787	0.416259
17277	-0.287146	-3.472957	8.768823	-1.009416	2.398079	0.638892	-0.492958	0.106116	0.863557	0.229612	-0.941480	0.246765	0.839208	0.319928	0.439745
17278	1.627503	-1.717504	9.484123	-1.307294	2.648169	0.834579	-0.513151	0.089925	0.853575	0.222856	-0.946429	0.233684	0.828862	0.310139	0.465620
17279	3.431246	-0.766871	10.039402	-1.733158	2.946997	1.029419	-0.535253	0.071110	0.841693	0.213931	-0.952551	0.216520	0.817152	0.295957	0.494643
17280	5.049617	-0.357586	9.979231	-2.115337	3.286903	1.164332	-0.559457	0.050580	0.827315	0.203110	-0.959338	0.196001	0.803589	0.277690	0.526435
17281	6.071342	0.004868	9.239800	-2.400926	3.613871	1.207278	-0.585933	0.029199	0.809834	0.190870	-0.966262	0.172937	0.787561	0.255902	0.560591
17282	6.409630	0.191101	8.068053	-2.594752	3.834699	1.198077	-0.613573	0.008266	0.789595	0.177802	-0.972820	0.148350	0.769360	0.231415	0.595426
17283	6.632633	-0.181803	6.930307	-2.667671	3.905935	1.159582	-0.641349	-0.011691	0.767160	0.164775	-0.978652	0.122839	0.749347	0.205191	0.629584
17284	6.564049	-0.754248	6.514574	-2.593590	3.815980	1.128566	-0.667750	-0.030064	0.743778	0.152944	-0.983407	0.097560	0.728504	0.178903	0.661269
17285	7.304931	-0.416391	6.701319	-2.469935	3.603427	1.139227	-0.692033	-0.047380	0.720309	0.142917	-0.987085	0.072379	0.707576	0.153033	0.689867
17286	8.021152	-0.192778	6.798177	-2.392600	3.419539	1.216608	-0.714182	-0.064174	0.697012	0.134738	-0.989769	0.046928	0.686870	0.127429	0.715522
17287	8.382673	-0.971980	7.261243	-2.287656	3.227870	1.358122	-0.734317	-0.081440	0.673903	0.129065	-0.991418	0.020824	0.666424	0.102268	0.738526
17288	9.409587	-1.865408	8.184581	-2.081936	3.035053	1.547104	-0.752257	-0.099504	0.651313	0.126847	-0.991910	-0.005033	0.646544	0.078831	0.758793
17289	11.590664	-1.477433	9.471171	-1.835286	2.944833	1.844619	-0.768715	-0.119898	0.628253	0.129172	-0.991134	-0.031101	0.626412	0.057245	0.777387
17290	13.599679	0.557946	10.254751	-1.713976	2.978236	2.285830	-0.784022	-0.143897	0.603824	0.136312	-0.988927	-0.058680	0.605581	0.036303	0.794955
17291	14.648900	1.909112	10.067868	-1.720080	3.138827	2.780526	-0.798789	-0.172226	0.576432	0.148080	-0.984955	-0.089082	0.583102	0.014200	0.812275
17292	14.426420	2.320059	9.133445	-1.585479	3.251416	3.192365	-0.812368	-0.203662	0.546425	0.164696	-0.979012	-0.120043	0.559405	-0.007525	0.828860
17293	14.526969	2.590169	8.270046	-1.224696	3.200018	3.455158	-0.823873	-0.236886	0.514897	0.186253	-0.971171	-0.148785	0.535298	-0.026679	0.844242
17294	15.526100	3.298578	7.710480	-0.730911	3.022834	3.525574	-0.832683	-0.269915	0.483513	0.211586	-0.961992	-0.172635	0.511733	-0.041445	0.858145
17295	17.319111	5.069190	6.516084	-0.289991	2.863682	3.400629	-0.839388	-0.301176	0.452461	0.238560	-0.952119	-0.191201	0.488382	-0.052552	0.871046
17296	17.572107	6.190447	4.488726	-0.008211	2.697770	3.038059	-0.844622	-0.328402	0.422807	0.264061	-0.942556	-0.204597	0.465709	-0.061161	0.882822
17297	16.582040	6.229061	2.341944	0.148543	2.472637	2.458293	-0.849144	-0.349909	0.395624	0.285542	-0.934291	-0.213460	0.444320	-0.068291	0.893262
17298	16.462965	5.504968	0.751476	0.241469	2.049268	1.803455	-0.852767	-0.365227	0.373360	0.301899	-0.928020	-0.218257	0.426198	-0.073406	0.901647
17299	17.446040	6.083711	-0.241862	0.184453	1.561911	1.305123	-0.855314	-0.376147	0.356301	0.313796	-0.923304	-0.221455	0.412274	-0.077608	0.907749
17300	18.712055	7.506283	-1.461421	-0.129863	1.093049	0.998715	-0.856600	-0.384448	0.344145	0.321773	-0.919408	-0.226165	0.403358	-0.082996	0.911270
17301	14.498797	-4.121107	-3.117998	-0.530199	0.285278	1.034064	-0.854397	-0.393690	0.339138	0.328450	-0.914918	-0.234618	0.402650	-0.089067	0.911011
17302	17.824903	5.257036	-14.933596	2.844554	-1.834294	-0.250147	-0.847790	-0.392702	0.356423	0.337822	-0.917970	-0.207863	0.408814	-0.055817	0.910909
17303	13.137733	6.577185	-7.330496	2.361645	-2.067545	0.624087	-0.837085	-0.399267	0.373998	0.352798	-0.916464	-0.188751	0.418118	-0.026055	0.908019
17304	6.292434	14.714680	6.028197	2.447869	-1.981443	0.821674	-0.825757	-0.406976	0.390507	0.369918	-0.913429	-0.169732	0.425777	0.004298	0.904818
17305	7.251699	13.976460	16.893759	1.593879	-2.379095	0.625186	-0.813112	-0.412271	0.410952	0.381886	-0.910615	-0.157936	0.439332	0.028518	0.897872
17306	8.458557	14.110545	19.139760	0.507917	-1.622888	0.166500	-0.805255	-0.413207	0.425235	0.385451	-0.909767	-0.154115	0.450546	0.039806	0.891865
17307	24.992749	0.417920	20.843798	1.517954	-2.753845	-1.371044	-0.797880	-0.399231	0.451666	0.381379	-0.914557	-0.134668	0.466838	0.064807	0.881965
17308	11.194609	10.857114	21.058103	-1.672774	1.348052	0.167539	-0.803512	-0.401472	0.439532	0.374906	-0.914810	-0.150226	0.462400	0.044074	0.885575
17309	-8.061167	-20.932001	-5.181532	0.251484	-2.340467	-0.290352	-0.793566	-0.397608	0.460610	0.373726	-0.915862	-0.146715	0.480190	0.055714	0.875393
17310	29.172055	12.446735	23.323670	0.255163	-1.792166	-0.300792	-0.785966	-0.393743	0.476681	0.372549	-0.916912	-0.143108	0.493422	0.065109	0.867350
17311	-0.877776	-5.268652	2.109737	-0.559471	1.753779	0.108740	-0.794105	-0.395736	0.461292	0.370630	-0.916832	-0.148505	0.481696	0.053040	0.874732
17312	6.180371	-3.190405	9.402044	-0.157805	-1.248015	0.077575	-0.787743	-0.395737	0.472074	0.370432	-0.916624	-0.150268	0.492181	0.056498	0.868658
17313	4.161347	-0.920419	10.275138	-0.061296	0.457524	-0.057387	-0.790191	-0.395426	0.468226	0.369626	-0.916903	-0.150552	0.488850	0.054104	0.870688
17314	6.910896	-1.018056	7.907658	-0.065518	-0.468678	0.021536	-0.787813	-0.395342	0.472288	0.369431	-0.916867	-0.151249	0.492820	0.055322	0.868371
17315	4.695656	-0.922994	9.403040	-0.122290	0.101278	0.034940	-0.788175	-0.395679	0.471401	0.369052	-0.916813	-0.152494	0.492525	0.053779	0.868635
17316	5.879410	-0.589542	8.666419	-0.096860	-0.006500	0.068642	-0.787891	-0.396279	0.471371	0.369072	-0.916606	-0.153685	0.492964	0.052883	0.868441
17317	4.788326	-0.995242	9.073638	-0.087469	0.046381	0.105437	-0.787722	-0.397230	0.470853	0.369420	-0.916252	-0.154958	0.492973	0.051878	0.868496
17318	5.023787	-1.466598	8.886998	-0.063689	0.101134	0.123466	-0.787766	-0.398387	0.469801	0.370035	-0.915806	-0.156118	0.492442	0.050858	0.868858
17319	4.848993	-2.008840	8.814926	-0.026593	0.087226	0.125073	-0.787724	-0.399537	0.468894	0.370837	-0.915339	-0.156952	0.491905	0.050248	0.869198
17320	4.478944	-2.553805	8.856599	-0.006145	0.078526	0.102934	-0.787730	-0.400492	0.468068	0.371575	-0.914943	-0.157514	0.491339	0.049844	0.869541
17321	4.792140	-2.673306	8.824218	-0.020685	0.011256	0.059333	-0.787557	-0.401002	0.467923	0.371888	-0.914734	-0.157990	0.491379	0.049590	0.869533
17322	4.875795	-2.264046	8.799773	-0.003370	0.015569	0.006521	-0.787611	-0.401043	0.467796	0.371880	-0.914723	-0.158075	0.491299	0.049462	0.869585
17323	4.553249	-2.239461	8.978544	-0.004950	-0.023932	-0.027696	-0.787588	-0.400740	0.468095	0.371585	-0.914854	-0.158008	0.491559	0.049492	0.869437
17324	4.872393	-1.736381	8.924039	0.006153	-0.023523	-0.050325	-0.787661	-0.400242	0.468397	0.371175	-0.915066	-0.157745	0.491751	0.049608	0.869322
17325	4.942970	-1.424633	8.964192	0.013170	-0.048102	-0.048341	-0.787595	-0.399738	0.468938	0.370807	-0.915270	-0.157425	0.492134	0.049899	0.869088
17326	5.117776	-1.259642	8.895423	0.020868	-0.004570	-0.031980	-0.787693	-0.399417	0.469047	0.370615	-0.915401	-0.157119	0.492122	0.050074	0.869085
17327	4.847761	-1.443726	9.002014	0.036186	0.001536	-0.021541	-0.787772	-0.399183	0.469114	0.370571	-0.915486	-0.156723	0.492029	0.050377	0.869120
17328	4.808606	-1.654624	8.970576	0.036896	0.001274	-0.019485	-0.787853	-0.398979	0.469152	0.370555	-0.915559	-0.156337	0.491911	0.050676	0.869169
17329	4.794746	-1.622018	8.984139	0.035629	-0.009703	-0.020089	-0.787871	-0.398752	0.469314	0.370520	-0.915638	-0.155953	0.491909	0.051019	0.869151
17330	4.800345	-1.763151	8.893899	0.030449	-0.021930	-0.026613	-0.787864	-0.398472	0.469565	0.370417	-0.915742	-0.155589	0.491998	0.051351	0.869081
17331	4.773234	-1.823990	8.864407	0.029833	-0.031059	-0.037279	-0.787841	-0.398076	0.469939	0.370218	-0.915893	-0.155175	0.492185	0.051727	0.868952
17332	4.892495	-1.694482	8.812192	0.027721	-0.035760	-0.045007	-0.787833	-0.397620	0.470338	0.369956	-0.916071	-0.154748	0.492394	0.052089	0.868813
17333	4.879241	-1.510828	8.859780	0.034804	-0.030898	-0.047347	-0.787848	-0.397132	0.470726	0.369702	-0.916258	-0.154243	0.492561	0.052508	0.868692
