// General information: 
//  MT Manager version: 2022.2.0 
//  XDA version: 2022.2.0 build 7381 rev 124627 built on 2023-07-19
// Device information: 
//  DeviceId: 00B4CBA7
//  ProductCode: MTW2-3A7G6
//  Firmware Version: 4.6.0
//  Hardware Version: 2.0.0
// Device settings: 
//  Filter Profile: human(46.1)
//  Option Flags: Orientation Smoother Disabled, Position/Velocity Smoother Disabled, Continuous Zero Rotation Update Disabled, AHS Disabled, ICC Disabled
// Coordinate system: ENU
PacketCounter	Acc_X	Acc_Y	Acc_Z	Gyr_X	Gyr_Y	Gyr_Z	Mat[1][1]	Mat[2][1]	Mat[3][1]	Mat[1][2]	Mat[2][2]	Mat[3][2]	Mat[1][3]	Mat[2][3]	Mat[3][3]
39108	9.641908	-0.531875	-1.959630	-0.223363	-0.108838	-0.114724	-0.225017	0.003725	0.974348	-0.204193	0.977607	-0.050894	-0.952719	-0.210406	-0.219217
39109	9.733983	-0.608256	-1.922444	-0.239975	-0.114564	-0.116491	-0.225856	0.002338	0.974158	-0.202074	0.978134	-0.049198	-0.952972	-0.207963	-0.220445
39110	9.956447	-0.534525	-1.852212	-0.207702	-0.100750	-0.117908	-0.226562	0.000942	0.973996	-0.200354	0.978569	-0.047550	-0.953167	-0.205917	-0.221518
39111	9.719708	-0.470028	-1.733996	-0.322564	-0.095399	-0.117365	-0.227223	-0.000411	0.973843	-0.197458	0.979247	-0.045659	-0.953614	-0.202668	-0.222589
39112	9.384552	-1.114606	-2.175199	-0.373270	-0.109920	-0.125883	-0.228007	-0.001900	0.973658	-0.194177	0.979999	-0.043559	-0.954101	-0.198994	-0.223816
39113	9.121758	-1.339157	-2.219006	-0.313113	-0.124702	-0.125599	-0.228942	-0.003403	0.973434	-0.191458	0.980619	-0.041601	-0.954426	-0.195896	-0.225156
39114	9.121786	-1.721851	-2.324839	-0.232997	-0.135786	-0.134859	-0.229964	-0.005025	0.973186	-0.189537	0.981070	-0.039722	-0.954564	-0.193589	-0.226563
39115	9.345943	-1.449828	-2.329095	-0.011105	-0.142414	-0.154468	-0.231017	-0.006856	0.972925	-0.189832	0.981075	-0.038161	-0.954251	-0.193509	-0.227947
39116	9.583768	-0.434619	-2.220571	0.144955	-0.144840	-0.160160	-0.232076	-0.008744	0.972658	-0.191579	0.980783	-0.036894	-0.953645	-0.194904	-0.229292
39117	9.695571	0.312250	-2.071279	0.164766	-0.145479	-0.164668	-0.233133	-0.010642	0.972387	-0.193415	0.980470	-0.035642	-0.953016	-0.196383	-0.230638
39118	9.827805	0.528649	-2.066441	0.117749	-0.143001	-0.162614	-0.234162	-0.012552	0.972116	-0.194910	0.980221	-0.034293	-0.952459	-0.197505	-0.231978
39119	9.789175	0.184759	-2.324620	0.106860	-0.131416	-0.171497	-0.235065	-0.014514	0.971871	-0.196296	0.979994	-0.032843	-0.951952	-0.198495	-0.233212
39120	9.870386	0.359182	-2.501863	0.147856	-0.111017	-0.170241	-0.235769	-0.016438	0.971670	-0.198098	0.979676	-0.031494	-0.951404	-0.199911	-0.234233
39121	9.622087	0.179832	-2.917828	0.042113	-0.085458	-0.159786	-0.236251	-0.018196	0.971522	-0.198848	0.979571	-0.030008	-0.951128	-0.200274	-0.235043
39122	9.351859	-0.559141	-3.555376	-0.012285	-0.070560	-0.162354	-0.236582	-0.019963	0.971406	-0.199108	0.979567	-0.028361	-0.950992	-0.200125	-0.235723
39123	9.360717	-1.124172	-3.633084	0.047467	-0.046168	-0.167519	-0.236675	-0.021717	0.971346	-0.199924	0.979444	-0.026815	-0.950797	-0.200542	-0.236151
39124	9.283952	-1.602696	-3.963266	0.135018	-0.009642	-0.173401	-0.236401	-0.023469	0.971372	-0.201611	0.979136	-0.025409	-0.950509	-0.201846	-0.236200
39125	9.526487	-0.361917	-3.232388	0.262530	0.023280	-0.167846	-0.235828	-0.025061	0.971472	-0.204373	0.978590	-0.024368	-0.950062	-0.204289	-0.235900
39126	9.702521	-0.305193	-2.611831	0.123492	0.042998	-0.143873	-0.235106	-0.026415	0.971611	-0.205879	0.978302	-0.023220	-0.949915	-0.205493	-0.235443
39127	9.593813	-0.700255	-2.267584	0.215407	0.052804	-0.158903	-0.234264	-0.027869	0.971773	-0.208211	0.977833	-0.022151	-0.949615	-0.207523	-0.234874
39128	9.189903	0.060434	-1.555630	0.268924	0.047093	-0.174411	-0.233433	-0.029510	0.971925	-0.211165	0.977224	-0.021046	-0.949167	-0.210150	-0.234348
39129	8.880293	-0.416354	-1.474524	0.141536	0.006092	-0.177619	-0.232986	-0.031258	0.971978	-0.212904	0.976876	-0.019619	-0.948888	-0.211509	-0.234254
39130	8.958844	-0.878230	-1.504903	0.294913	-0.028526	-0.186547	-0.232838	-0.033175	0.971949	-0.216129	0.976190	-0.018456	-0.948195	-0.214364	-0.234465
39131	9.269153	0.323951	-0.986527	0.371313	-0.047636	-0.169653	-0.232907	-0.034949	0.971871	-0.219989	0.975343	-0.017646	-0.947291	-0.217910	-0.234853
39132	9.652861	1.145867	-0.737640	0.150611	-0.076211	-0.132916	-0.233317	-0.036446	0.971718	-0.221718	0.974968	-0.016668	-0.946786	-0.219336	-0.235557
39133	9.992644	0.791088	-1.006514	0.015379	-0.109478	-0.107059	-0.234100	-0.037761	0.971479	-0.222116	0.974895	-0.015630	-0.946500	-0.219440	-0.236610
39134	10.006684	1.389149	-1.152891	0.001104	-0.133882	-0.092853	-0.235142	-0.038995	0.971178	-0.222338	0.974859	-0.014690	-0.946189	-0.219384	-0.237901
39135	9.950353	1.430373	-1.814389	-0.098652	-0.159053	-0.073186	-0.236468	-0.040089	0.970812	-0.221583	0.975045	-0.013708	-0.946036	-0.218357	-0.239450
39136	9.864397	1.072945	-2.442101	-0.102677	-0.167524	-0.057546	-0.237907	-0.041050	0.970420	-0.220741	0.975248	-0.012863	-0.945872	-0.217272	-0.241080
39137	9.801382	0.796346	-2.785051	-0.080956	-0.167916	-0.049924	-0.239368	-0.041932	0.970023	-0.220091	0.975404	-0.012146	-0.945655	-0.216401	-0.242709
39138	9.674580	0.422897	-3.084921	-0.057330	-0.155340	-0.026665	-0.240760	-0.042562	0.969651	-0.219607	0.975518	-0.011707	-0.945414	-0.215761	-0.244213
39139	9.629362	0.280455	-3.258705	0.004374	-0.137835	-0.016223	-0.242011	-0.043049	0.969318	-0.219682	0.975504	-0.011524	-0.945077	-0.215730	-0.245539
39140	9.490983	0.194797	-3.340561	0.013795	-0.111988	-0.009408	-0.243030	-0.043417	0.969047	-0.219828	0.975472	-0.011426	-0.944781	-0.215801	-0.246613
39141	9.370024	0.200524	-3.370029	0.043022	-0.081190	-0.001540	-0.243777	-0.043640	0.968849	-0.220233	0.975380	-0.011480	-0.944495	-0.216172	-0.247386
39142	9.298236	0.431722	-3.076772	-0.038702	-0.053277	0.018023	-0.244302	-0.043613	0.968718	-0.219818	0.975473	-0.011519	-0.944456	-0.215755	-0.247897
39143	9.262995	0.285901	-2.928078	-0.150194	-0.046108	0.036653	-0.244802	-0.043387	0.968602	-0.218304	0.975813	-0.011463	-0.944677	-0.214256	-0.248353
39144	9.472097	-0.371830	-2.768151	-0.245784	-0.038843	0.046431	-0.245251	-0.043051	0.968503	-0.215862	0.976359	-0.011262	-0.945122	-0.211825	-0.248747
39145	9.388340	-0.904939	-2.637414	-0.154861	-0.047020	0.035835	-0.245758	-0.042832	0.968385	-0.214300	0.976704	-0.011186	-0.945346	-0.210274	-0.249211
39146	9.444378	-0.565912	-2.275775	-0.039184	-0.057916	0.019986	-0.246330	-0.042793	0.968241	-0.213874	0.976796	-0.011241	-0.945293	-0.209851	-0.249766
39147	9.267908	-0.547502	-2.079451	-0.049263	-0.077318	0.015686	-0.247079	-0.042833	0.968048	-0.213361	0.976909	-0.011232	-0.945214	-0.209319	-0.250513
39148	9.162175	-0.474743	-1.867286	0.018558	-0.107077	0.015639	-0.248106	-0.042939	0.967781	-0.213492	0.976878	-0.011390	-0.944915	-0.209439	-0.251537
39149	9.223494	-0.343491	-1.669203	0.051837	-0.137874	0.014928	-0.249426	-0.043115	0.967434	-0.213943	0.976777	-0.011628	-0.944466	-0.209876	-0.252857
39150	9.304621	-0.315054	-1.506591	0.105521	-0.181434	0.010589	-0.251143	-0.043428	0.966975	-0.214907	0.976561	-0.011958	-0.943791	-0.210813	-0.254589
39151	9.428255	-0.226913	-1.402194	0.161301	-0.216622	0.008151	-0.253188	-0.043838	0.966423	-0.216402	0.976225	-0.012412	-0.942903	-0.212279	-0.256655
39152	9.498302	-0.083726	-1.326040	0.185238	-0.242167	0.013044	-0.255481	-0.044261	0.965801	-0.218109	0.975838	-0.012975	-0.941891	-0.213965	-0.258961
39153	9.432758	-0.088310	-1.725906	0.111470	-0.274066	0.020585	-0.258089	-0.044680	0.965087	-0.219103	0.975609	-0.013427	-0.940948	-0.214919	-0.261583
39154	9.472760	-0.032317	-2.150663	0.158008	-0.285717	0.032822	-0.260830	-0.045010	0.964335	-0.220498	0.975285	-0.014118	-0.939866	-0.216317	-0.264308
39155	9.624413	0.584098	-2.260845	0.114915	-0.294387	0.048784	-0.263685	-0.045203	0.963549	-0.221442	0.975060	-0.014857	-0.938847	-0.217287	-0.267119
39156	9.699103	0.759067	-2.496193	0.047000	-0.305557	0.064587	-0.266678	-0.045272	0.962722	-0.221706	0.974989	-0.015564	-0.937939	-0.217592	-0.270045
39157	9.766313	0.552582	-2.629284	0.083689	-0.313418	0.068459	-0.269750	-0.045320	0.961863	-0.222303	0.974839	-0.016413	-0.936918	-0.218253	-0.273038
39158	9.831224	0.384410	-2.667452	0.152579	-0.308380	0.070058	-0.272775	-0.045346	0.961008	-0.223537	0.974539	-0.017465	-0.935748	-0.219585	-0.275967
39159	9.577432	-0.103973	-2.649047	0.208375	-0.312750	0.077956	-0.275857	-0.045309	0.960130	-0.225268	0.974116	-0.018753	-0.934429	-0.221460	-0.278923
39160	9.441848	-0.513675	-2.211210	0.352732	-0.329767	0.083952	-0.279108	-0.045261	0.959193	-0.228323	0.973369	-0.020508	-0.932720	-0.224730	-0.282009
39161	9.467984	-0.362928	-0.916317	0.427915	-0.362473	0.094230	-0.282684	-0.045198	0.958148	-0.232041	0.972444	-0.022587	-0.930724	-0.228715	-0.285382
39162	9.450404	-0.686509	0.100565	0.442789	-0.424935	0.110630	-0.286874	-0.045138	0.956904	-0.235838	0.971474	-0.024878	-0.928485	-0.232811	-0.289336
39163	9.327488	0.153860	0.552653	0.610060	-0.500161	0.119252	-0.291775	-0.045190	0.955419	-0.241145	0.970092	-0.027759	-0.925590	-0.238494	-0.293946
39164	9.203120	2.160988	1.052962	0.353107	-0.596871	0.165238	-0.297674	-0.045054	0.953604	-0.243918	0.969321	-0.030344	-0.922981	-0.241633	-0.299531
39165	8.982903	0.946782	-0.187619	-0.143186	-0.699123	0.204831	-0.304596	-0.044783	0.951428	-0.241976	0.969760	-0.031822	-0.921232	-0.239916	-0.306221
39166	8.967418	-0.595196	-1.202033	-0.059112	-0.779160	0.195405	-0.312218	-0.044787	0.948954	-0.240827	0.969991	-0.033455	-0.918979	-0.238979	-0.313634
39167	8.802150	-0.635872	-1.561779	0.237337	-0.852807	0.183710	-0.320461	-0.045083	0.946188	-0.242420	0.969507	-0.035910	-0.915717	-0.240882	-0.321618
39168	8.984589	0.657247	-1.073913	0.427838	-0.901809	0.206760	-0.329187	-0.045303	0.943177	-0.245655	0.968564	-0.039216	-0.911751	-0.244606	-0.329968
39169	9.168395	1.132931	-0.759763	0.158088	-0.964461	0.262960	-0.338586	-0.045152	0.939852	-0.246213	0.968297	-0.042181	-0.908151	-0.245686	-0.338968
39170	9.544309	0.618287	-1.491864	0.137358	-1.015935	0.296183	-0.348503	-0.044818	0.936236	-0.246439	0.968095	-0.045391	-0.904330	-0.246544	-0.348429
39171	10.295543	1.268184	-1.657678	0.165474	-1.060560	0.324308	-0.358846	-0.044331	0.932343	-0.246783	0.967833	-0.048965	-0.900182	-0.247657	-0.358243
39172	10.291461	1.217895	-2.407112	0.056791	-1.091392	0.340128	-0.369468	-0.043776	0.928212	-0.246053	0.967844	-0.052295	-0.896076	-0.247711	-0.368358
39173	10.612795	1.049989	-3.166165	0.076511	-1.108005	0.349138	-0.380203	-0.043175	0.923895	-0.245427	0.967809	-0.055772	-0.891746	-0.247954	-0.378561
39174	10.471671	-0.094819	-3.816114	-0.019227	-1.115737	0.354128	-0.390977	-0.042544	0.919417	-0.243891	0.968011	-0.058921	-0.887499	-0.247274	-0.388846
39175	10.350314	-1.457137	-4.442591	0.143940	-1.106941	0.325205	-0.401541	-0.042171	0.914870	-0.243876	0.967795	-0.062428	-0.882774	-0.248182	-0.398894
39176	10.946845	-1.358174	-4.015248	0.404231	-1.097580	0.301357	-0.411920	-0.042032	0.910250	-0.246208	0.966914	-0.066769	-0.877327	-0.251615	-0.408640
39177	11.574067	-1.007364	-2.721164	0.432470	-1.077584	0.345249	-0.422171	-0.041459	0.905568	-0.248551	0.965965	-0.071650	-0.871776	-0.255329	-0.418107
39178	11.373102	-0.366358	-1.199395	0.288208	-1.143057	0.384401	-0.433042	-0.040712	0.900454	-0.249414	0.965386	-0.076300	-0.866179	-0.257627	-0.428207
39179	11.507900	-0.959770	-0.374372	0.043993	-1.248240	0.429995	-0.444860	-0.039807	0.894715	-0.247908	0.965449	-0.080308	-0.860605	-0.257533	-0.439358
39180	11.435441	-1.210337	0.681675	-0.089847	-1.354574	0.467557	-0.457612	-0.038804	0.888305	-0.245031	0.965866	-0.084036	-0.854723	-0.256118	-0.451500
39181	11.624865	-1.599636	1.485363	0.010396	-1.486240	0.500145	-0.471453	-0.037806	0.881080	-0.242799	0.966034	-0.088466	-0.847809	-0.255633	-0.464619
39182	12.193680	-1.052785	2.459344	-0.049247	-1.645714	0.527765	-0.486598	-0.036939	0.872845	-0.239859	0.966360	-0.092822	-0.840054	-0.254527	-0.479089
39183	12.998739	-1.392724	2.892115	-0.233839	-1.822519	0.555720	-0.503117	-0.036207	0.863460	-0.235159	0.967158	-0.096466	-0.831609	-0.251584	-0.495108
39184	13.763038	-2.409450	2.551961	-0.231302	-1.998935	0.550654	-0.520908	-0.035912	0.852857	-0.230433	0.967938	-0.099986	-0.821922	-0.248610	-0.512482
39185	14.142672	-2.520468	2.127800	-0.031391	-2.144373	0.531737	-0.539592	-0.036111	0.841152	-0.227363	0.968210	-0.104286	-0.810646	-0.247519	-0.530649
39186	14.016403	-1.992138	0.772745	0.118165	-2.258087	0.510558	-0.558894	-0.036794	0.828422	-0.225517	0.968106	-0.109146	-0.797985	-0.247825	-0.549366
39187	13.719940	-1.350522	-0.971601	0.210515	-2.321303	0.466156	-0.578268	-0.038073	0.814958	-0.224540	0.967760	-0.114114	-0.784339	-0.248980	-0.568173
39188	12.789602	-0.497480	-3.032864	0.253424	-2.350012	0.434804	-0.597490	-0.039769	0.800890	-0.223963	0.967299	-0.119051	-0.769965	-0.250502	-0.586858
39189	12.755662	0.807401	-4.504489	-0.200150	-2.274379	0.405205	-0.615707	-0.041537	0.786879	-0.219988	0.967965	-0.121037	-0.756644	-0.247627	-0.605121
39190	11.220801	1.341929	-6.449842	-0.690817	-2.152607	0.382987	-0.632679	-0.043109	0.773213	-0.212422	0.969813	-0.119744	-0.744711	-0.240007	-0.622738
39191	9.865175	0.931382	-8.103718	-1.140738	-2.067805	0.351688	-0.648652	-0.044557	0.759780	-0.201747	0.972640	-0.115198	-0.733859	-0.228007	-0.639894
39192	8.751245	-0.502141	-9.687442	-1.071077	-1.978163	0.302558	-0.663643	-0.046043	0.746631	-0.191972	0.975160	-0.110498	-0.722997	-0.216663	-0.655997
39193	7.475869	-0.543676	-10.287663	-1.008080	-1.819218	0.226534	-0.677087	-0.047702	0.734355	-0.183228	0.977398	-0.105450	-0.712728	-0.205953	-0.670524
39194	6.592713	-1.472076	-11.253167	-0.957080	-1.616130	0.143601	-0.688774	-0.049578	0.723279	-0.175485	0.979392	-0.099979	-0.703417	-0.195788	-0.683280
39195	6.202228	-2.892464	-12.284439	-0.570261	-1.365567	0.073750	-0.698412	-0.051513	0.713840	-0.170999	0.980530	-0.096545	-0.694968	-0.189494	-0.693622
39196	7.474076	-3.200366	-8.224533	0.095820	-0.907771	0.039659	-0.704745	-0.052882	0.707487	-0.171398	0.980370	-0.097456	-0.688445	-0.189944	-0.699975
39197	7.363643	-1.186383	-5.561447	0.480947	-0.384586	0.106157	-0.707534	-0.052607	0.704719	-0.173966	0.979503	-0.101540	-0.684932	-0.194440	-0.702183
39198	5.763511	0.674821	-5.643259	0.067091	0.056874	0.057757	-0.707231	-0.051966	0.705070	-0.174032	0.979403	-0.102380	-0.685228	-0.195112	-0.701708
39199	4.708905	-1.499858	-7.097849	-0.406129	0.395112	-0.113775	-0.704284	-0.052344	0.707986	-0.172059	0.980130	-0.098694	-0.688753	-0.191324	-0.699296
39200	4.269321	-4.357894	-8.707576	-0.000578	0.765936	-0.261368	-0.698522	-0.053474	0.713588	-0.173903	0.979994	-0.096794	-0.694136	-0.191708	-0.693846
39201	4.071874	-4.289187	-8.616269	0.809934	1.200508	-0.312346	-0.689556	-0.054206	0.722201	-0.181735	0.978240	-0.100097	-0.701060	-0.200272	-0.684402
39202	3.885031	-3.006759	-7.846907	1.266963	1.638798	-0.306655	-0.677406	-0.053846	0.733636	-0.192784	0.975454	-0.106414	-0.709899	-0.213519	-0.671159
39203	3.781452	-1.398905	-7.033906	1.355952	2.016747	-0.302560	-0.662343	-0.052368	0.747369	-0.204525	0.972302	-0.113127	-0.720744	-0.227784	-0.654708
39204	3.833590	-0.884921	-6.714013	1.166986	2.336677	-0.321035	-0.644661	-0.050050	0.762828	-0.215122	0.969408	-0.118194	-0.733577	-0.240296	-0.635707
39205	3.915147	-1.016353	-6.536755	0.960428	2.635185	-0.334064	-0.624366	-0.046839	0.779726	-0.224370	0.966890	-0.121583	-0.748214	-0.250860	-0.614202
39206	3.989099	-1.779378	-6.710302	0.731870	2.898535	-0.324000	-0.601688	-0.042609	0.797594	-0.231903	0.964880	-0.123397	-0.764325	-0.259211	-0.590438
39207	4.249075	-3.095012	-7.319804	0.624410	3.119857	-0.293434	-0.576850	-0.037263	0.816000	-0.238469	0.963124	-0.124598	-0.781266	-0.266464	-0.564464
39208	4.569118	-4.266923	-7.622695	0.831871	3.311786	-0.273620	-0.550016	-0.030952	0.834580	-0.246588	0.960779	-0.126877	-0.797920	-0.275582	-0.536077
39209	4.936893	-4.090105	-7.388436	1.207726	3.471931	-0.266111	-0.521333	-0.023743	0.853023	-0.257754	0.957305	-0.130883	-0.813495	-0.288104	-0.505195
39210	5.353250	-3.188836	-6.780442	1.372819	3.569344	-0.291121	-0.491248	-0.016026	0.870873	-0.270502	0.953200	-0.135046	-0.827952	-0.301914	-0.472592
39211	5.753377	-3.070880	-6.312293	1.316309	3.614487	-0.340460	-0.460095	-0.008140	0.887832	-0.283118	0.949103	-0.138016	-0.841520	-0.314862	-0.438982
39212	6.271461	-2.997269	-5.944054	1.353300	3.629097	-0.403893	-0.428140	-0.000334	0.903713	-0.296387	0.944741	-0.140066	-0.853728	-0.327817	-0.404580
39213	6.668717	-2.476636	-5.459468	1.303318	3.617237	-0.450574	-0.395657	0.007475	0.918368	-0.309448	0.940409	-0.140972	-0.864695	-0.339963	-0.369766
39214	7.058940	-2.102409	-5.549717	1.126932	3.600269	-0.466869	-0.362846	0.015485	0.931720	-0.321021	0.936580	-0.140583	-0.874807	-0.350112	-0.334863
39215	7.440740	-2.044956	-5.552294	0.925264	3.541776	-0.450766	-0.330192	0.023791	0.943614	-0.330723	0.933396	-0.139261	-0.884079	-0.358058	-0.300331
39216	7.923759	-2.078062	-5.065811	0.870164	3.468780	-0.396031	-0.298033	0.032614	0.953998	-0.339693	0.930368	-0.137927	-0.892068	-0.365174	-0.266202
39217	8.352089	-1.312678	-4.462966	0.810890	3.381396	-0.307964	-0.266659	0.042186	0.962867	-0.347824	0.927502	-0.136964	-0.898839	-0.371431	-0.232653
39218	8.720963	-0.664950	-3.748425	0.521277	3.225456	-0.209434	-0.236806	0.052249	0.970151	-0.353049	0.925663	-0.136030	-0.905141	-0.374723	-0.200756
39219	9.063399	-0.855049	-2.963318	0.233763	3.033079	-0.106262	-0.208851	0.062617	0.975941	-0.355405	0.924854	-0.135396	-0.911081	-0.375132	-0.170902
39220	9.421141	-1.025315	-2.474501	0.019439	2.840196	-0.002698	-0.182862	0.073192	0.980410	-0.355581	0.924792	-0.135361	-0.916583	-0.373367	-0.143084
39221	9.543970	-1.365236	-2.089888	-0.209135	2.622971	0.065707	-0.158951	0.083519	0.983748	-0.353540	0.925524	-0.135700	-0.921816	-0.369364	-0.117585
39222	9.148861	-2.066092	-2.391213	-0.287128	2.411163	0.075259	-0.136910	0.093034	0.986205	-0.350766	0.926521	-0.136098	-0.926401	-0.364560	-0.094217
39223	8.759349	-2.665227	-2.826933	-0.202304	2.188122	0.028562	-0.116668	0.101210	0.988001	-0.348845	0.927234	-0.136178	-0.929890	-0.360546	-0.072872
39224	8.694767	-2.163475	-1.795110	0.119925	1.911838	-0.011837	-0.098810	0.107954	0.989233	-0.349962	0.926824	-0.136099	-0.931538	-0.359642	-0.053799
39225	8.690247	-0.823994	-1.088133	0.274628	1.589701	0.005789	-0.083987	0.113709	0.989958	-0.352508	0.925837	-0.136251	-0.932033	-0.360411	-0.037674
39226	8.388007	0.432245	-0.906228	0.177941	1.248497	0.026750	-0.072419	0.118427	0.990318	-0.354133	0.925175	-0.136533	-0.932387	-0.360592	-0.025061
39227	8.285036	0.614520	-1.038769	-0.211320	0.872721	0.042384	-0.064395	0.121931	0.990447	-0.352123	0.925891	-0.136877	-0.933736	-0.357573	-0.016688
39228	8.185765	-0.635650	-1.972965	-0.454565	0.524867	0.046016	-0.059627	0.124190	0.990465	-0.347833	0.927459	-0.137230	-0.935659	-0.352699	-0.012104
39229	7.990975	-1.565250	-2.978370	-0.286260	0.235584	0.027006	-0.057486	0.125245	0.990459	-0.345126	0.928440	-0.137433	-0.936794	-0.349734	-0.010147
39230	7.766927	-1.344154	-3.615091	-0.007924	-0.005525	-0.009402	-0.057482	0.125107	0.990477	-0.345044	0.928489	-0.137302	-0.936825	-0.349651	-0.010204
39231	7.640499	-0.331268	-3.826721	0.121364	-0.212334	-0.038269	-0.059311	0.123984	0.990510	-0.346193	0.928121	-0.136904	-0.936287	-0.351027	-0.012125
39232	7.455082	0.545859	-4.178974	0.013096	-0.385305	-0.055413	-0.062703	0.122085	0.990537	-0.346336	0.928153	-0.136320	-0.936013	-0.351607	-0.015916
39233	7.206113	0.880675	-4.422871	-0.212647	-0.528285	-0.067266	-0.067392	0.119581	0.990535	-0.344379	0.928989	-0.135581	-0.936409	-0.350256	-0.021425
39234	8.257228	0.251871	-3.797146	-0.451909	-0.596912	-0.074514	-0.072707	0.116776	0.990493	-0.340184	0.930662	-0.134694	-0.937544	-0.346743	-0.027940
39235	9.101563	-1.283693	-3.893265	-0.555354	-0.549676	-0.030887	-0.077737	0.114568	0.990369	-0.334985	0.932620	-0.134181	-0.939011	-0.342190	-0.034121
39236	10.070865	-1.866715	-2.805465	-0.614386	-0.371203	0.028463	-0.081298	0.113541	0.990202	-0.329176	0.934683	-0.134202	-0.940762	-0.336861	-0.038613
39237	10.568014	-3.125652	-1.882185	-0.752420	-0.155347	0.075263	-0.082986	0.113699	0.990043	-0.322016	0.937115	-0.134612	-0.943090	-0.329981	-0.041154
39238	10.683375	-3.198255	-0.593030	-0.798934	-0.005085	0.058816	-0.083199	0.114203	0.989968	-0.314410	0.939664	-0.134823	-0.945634	-0.322473	-0.042272
39239	10.912139	-3.003799	0.148437	-0.900629	0.095194	0.014940	-0.082324	0.114618	0.989993	-0.305858	0.942521	-0.134556	-0.948511	-0.313874	-0.042535
39240	11.308099	-2.920498	0.473245	-0.968631	0.157862	-0.020267	-0.080742	0.114883	0.990092	-0.296659	0.945549	-0.133907	-0.951564	-0.304532	-0.042264
39241	11.778562	-2.290276	0.842853	-0.926330	0.107423	-0.065466	-0.079508	0.114558	0.990230	-0.287874	0.948411	-0.132834	-0.954362	-0.295623	-0.042428
39242	12.376264	-2.301104	0.629888	-0.868954	-0.074211	-0.125834	-0.079839	0.113114	0.990369	-0.279658	0.951097	-0.131173	-0.956774	-0.287438	-0.044302
39243	12.179284	-2.855500	0.199525	-0.642519	-0.305395	-0.185247	-0.082232	0.110454	0.990473	-0.273646	0.953139	-0.129010	-0.958309	-0.281648	-0.048154
39244	11.163962	-2.952139	-0.083837	-0.245023	-0.463117	-0.234466	-0.086012	0.106885	0.990544	-0.271482	0.954090	-0.126525	-0.958592	-0.279798	-0.053045
39245	10.293066	-2.741548	-0.397993	-0.043091	-0.530038	-0.277137	-0.090321	0.102731	0.990600	-0.271304	0.954508	-0.123725	-0.958246	-0.279929	-0.058341
39246	9.773507	-2.825131	-1.093338	0.230340	-0.534852	-0.325496	-0.094535	0.098087	0.990678	-0.273799	0.954196	-0.120602	-0.957130	-0.282648	-0.063349
39247	9.716756	-1.917375	-1.738345	0.511733	-0.509535	-0.356360	-0.098404	0.093209	0.990772	-0.279027	0.953083	-0.117377	-0.955228	-0.288003	-0.067779
39248	9.790106	-0.992195	-2.412360	0.601003	-0.480916	-0.377559	-0.101907	0.088181	0.990878	-0.285128	0.951684	-0.114017	-0.953057	-0.294146	-0.071840
39249	9.798660	-0.446784	-3.429898	0.526484	-0.429593	-0.357596	-0.104950	0.083479	0.990968	-0.290503	0.950434	-0.110831	-0.951101	-0.299510	-0.075497
39250	9.675278	-0.587529	-4.515142	0.431565	-0.365031	-0.339353	-0.107404	0.079122	0.991062	-0.294952	0.949416	-0.107762	-0.949456	-0.303890	-0.078634
39251	9.489110	-0.828039	-4.380495	0.380811	-0.296617	-0.325503	-0.109235	0.075100	0.991175	-0.298910	0.948508	-0.104809	-0.948009	-0.307721	-0.081162
39252	9.414729	-1.051639	-3.841412	0.397163	-0.238165	-0.320795	-0.110504	0.071289	0.991316	-0.303013	0.947521	-0.101917	-0.946558	-0.311644	-0.083104
39253	9.735986	-0.618417	-2.694654	0.414790	-0.189947	-0.313130	-0.111331	0.067701	0.991475	-0.307276	0.946443	-0.099129	-0.945086	-0.315692	-0.084565
39254	9.768486	-0.808412	-1.566861	0.318580	-0.153034	-0.299502	-0.111829	0.064350	0.991642	-0.310608	0.945638	-0.096392	-0.943937	-0.318791	-0.085762
39255	9.611676	-0.961929	-0.600274	0.298799	-0.145371	-0.286546	-0.112292	0.061148	0.991792	-0.313740	0.944867	-0.093777	-0.942846	-0.321695	-0.086916
39256	9.533460	-0.498644	0.317511	0.307577	-0.158084	-0.293181	-0.112835	0.057836	0.991929	-0.316957	0.944055	-0.091100	-0.941704	-0.324678	-0.088191
39257	9.343395	-0.263061	1.096898	0.180920	-0.187179	-0.296818	-0.113638	0.054398	0.992032	-0.318988	0.943638	-0.088285	-0.940921	-0.326479	-0.089881
39258	8.952418	-0.313824	1.405370	0.075531	-0.225047	-0.300855	-0.114772	0.050792	0.992093	-0.320031	0.943556	-0.085330	-0.940429	-0.327294	-0.092039
39259	9.212144	-0.050737	1.807859	-0.009377	-0.286435	-0.299648	-0.116489	0.047000	0.992079	-0.320282	0.943739	-0.082317	-0.940133	-0.327334	-0.094882
39260	9.612624	-0.071920	1.785372	-0.172121	-0.351630	-0.283915	-0.118866	0.043139	0.991973	-0.318987	0.944436	-0.079295	-0.940276	-0.325851	-0.098500
39261	10.019117	-0.279758	1.505138	-0.276515	-0.413800	-0.261787	-0.121907	0.039295	0.991763	-0.316693	0.945447	-0.076388	-0.940662	-0.323397	-0.102812
39262	9.961346	-0.585118	0.905422	-0.269220	-0.489927	-0.253181	-0.125695	0.035290	0.991441	-0.314463	0.946416	-0.073555	-0.940911	-0.321017	-0.107863
39263	10.077623	-0.250348	0.220409	-0.160640	-0.551808	-0.233952	-0.130133	0.031280	0.991003	-0.313243	0.947013	-0.071025	-0.940715	-0.319668	-0.113439
39264	9.974939	-0.042270	-0.597672	-0.194429	-0.607734	-0.223066	-0.135130	0.027197	0.990454	-0.311700	0.947705	-0.068549	-0.940523	-0.317988	-0.119586
39265	9.988501	-0.303367	-1.428733	-0.106090	-0.626619	-0.214111	-0.140335	0.023151	0.989833	-0.310990	0.948100	-0.066266	-0.939995	-0.317128	-0.125852
39266	10.037490	0.366001	-1.604925	0.032784	-0.637691	-0.207572	-0.145659	0.019127	0.989150	-0.311585	0.948046	-0.064215	-0.938988	-0.317558	-0.132131
39267	9.958285	0.676156	-1.865750	0.017818	-0.612765	-0.175693	-0.150841	0.015487	0.988437	-0.312005	0.948025	-0.062468	-0.938030	-0.317820	-0.138169
39268	9.906544	0.896287	-2.176936	0.012213	-0.584518	-0.140644	-0.155861	0.012263	0.987703	-0.312326	0.948011	-0.061056	-0.937102	-0.318002	-0.143928
39269	9.846633	0.896215	-2.404684	-0.033888	-0.560444	-0.107870	-0.160753	0.009431	0.986950	-0.312172	0.948135	-0.059906	-0.936326	-0.317728	-0.149472
39270	9.918174	0.464427	-2.870784	-0.024347	-0.525577	-0.083462	-0.165390	0.006938	0.986204	-0.312071	0.948225	-0.059006	-0.935552	-0.317525	-0.154662
39271	9.820114	0.015496	-3.292864	0.042431	-0.478079	-0.077625	-0.169599	0.004653	0.985502	-0.312591	0.948099	-0.058271	-0.934625	-0.317942	-0.159342
39272	9.384419	-1.031116	-3.550970	0.110360	-0.434681	-0.079259	-0.173389	0.002485	0.984850	-0.313749	0.947756	-0.057629	-0.933541	-0.318988	-0.163550
39273	9.368282	-1.043595	-3.263388	0.362363	-0.387255	-0.075674	-0.176743	0.000497	0.984257	-0.317254	0.946599	-0.057447	-0.931725	-0.322413	-0.167147
39274	9.501379	-0.219468	-2.465098	0.314343	-0.352902	-0.035807	-0.179892	-0.001017	0.983686	-0.320236	0.945586	-0.057586	-0.930101	-0.325370	-0.170429
39275	9.522180	-0.079386	-2.051560	0.188706	-0.342931	-0.012920	-0.183020	-0.002288	0.983107	-0.322006	0.944975	-0.057747	-0.928879	-0.327135	-0.173686
39276	9.569628	-0.106989	-1.606127	0.096036	-0.338891	0.003598	-0.186156	-0.003396	0.982514	-0.322883	0.944665	-0.057911	-0.927951	-0.328018	-0.176952
39277	9.573609	-0.310246	-1.430835	0.082982	-0.349134	0.000700	-0.189378	-0.004566	0.981894	-0.323645	0.944397	-0.058029	-0.927033	-0.328774	-0.180326
39278	9.585026	-0.360369	-1.288971	0.155746	-0.357698	-0.006528	-0.192649	-0.005839	0.981250	-0.325093	0.943889	-0.058209	-0.925852	-0.330211	-0.183737
39279	9.521712	-0.257650	-1.268245	0.181912	-0.367420	-0.010289	-0.195996	-0.007182	0.980578	-0.326789	0.943291	-0.058409	-0.924551	-0.331890	-0.187228
39280	9.394124	-0.376535	-1.201294	0.174357	-0.393970	-0.001740	-0.199608	-0.008541	0.979839	-0.328396	0.942716	-0.058681	-0.923208	-0.333488	-0.190978
39281	9.354975	-0.689021	-1.163443	0.183842	-0.421967	0.003020	-0.203491	-0.009954	0.979026	-0.330080	0.942106	-0.059029	-0.921759	-0.335168	-0.194996
39282	9.277180	-0.729489	-0.980986	0.207701	-0.456573	0.013059	-0.207717	-0.011397	0.978123	-0.331958	0.941414	-0.059526	-0.920140	-0.337061	-0.199331
39283	9.562856	-0.616629	-0.875759	0.207902	-0.487709	0.026009	-0.212267	-0.012831	0.977127	-0.333809	0.940719	-0.060163	-0.918430	-0.338945	-0.203967
39284	9.761146	-0.473233	-0.927850	0.149390	-0.515922	0.039547	-0.217111	-0.014243	0.976043	-0.335089	0.940222	-0.060817	-0.916831	-0.340265	-0.208905
39285	9.579193	-0.448080	-1.295381	0.207231	-0.548181	0.045310	-0.222264	-0.015717	0.974860	-0.336882	0.939526	-0.061660	-0.914937	-0.342117	-0.214117
39286	9.642952	0.804990	-1.169281	0.347989	-0.575448	0.059003	-0.227699	-0.017172	0.973580	-0.339922	0.938344	-0.062949	-0.912473	-0.345275	-0.219497
39287	9.562928	1.303920	-0.977820	0.227356	-0.607226	0.075796	-0.233470	-0.018594	0.972186	-0.341814	0.937575	-0.064154	-0.910305	-0.347285	-0.225251
39288	9.378929	0.536021	-1.114760	0.188617	-0.646329	0.102918	-0.239676	-0.019911	0.970649	-0.343280	0.936943	-0.065545	-0.908138	-0.348913	-0.231398
39289	9.368487	0.342511	-0.883853	0.312502	-0.689330	0.131899	-0.246359	-0.021121	0.968948	-0.345789	0.935880	-0.067518	-0.905394	-0.351685	-0.237866
39290	9.597715	0.557487	-0.378317	0.289831	-0.733458	0.163720	-0.253535	-0.022209	0.967071	-0.347994	0.934898	-0.069762	-0.902563	-0.354222	-0.244758
39291	9.556689	0.034842	-0.034093	0.174726	-0.776657	0.202326	-0.261215	-0.023105	0.965004	-0.349043	0.934328	-0.072111	-0.899964	-0.355664	-0.252126
39292	9.375276	-0.616814	-0.033678	0.212970	-0.843907	0.217850	-0.269537	-0.024111	0.962688	-0.350374	0.933625	-0.074716	-0.896988	-0.357439	-0.260094
39293	9.248621	-0.526551	0.215090	0.302983	-0.913261	0.227056	-0.278485	-0.025298	0.960107	-0.352459	0.932599	-0.077660	-0.893431	-0.360026	-0.268631
39294	9.237445	-0.165118	0.163476	0.264868	-0.986701	0.260968	-0.288181	-0.026460	0.957210	-0.354077	0.931715	-0.080845	-0.889708	-0.362224	-0.277872
39295	8.972048	-0.377686	-0.593712	0.132456	-1.051916	0.289849	-0.298521	-0.027604	0.954004	-0.354400	0.931318	-0.083949	-0.886164	-0.363159	-0.287801
39296	9.044415	-0.802502	-1.564419	0.142051	-1.114812	0.312561	-0.309464	-0.028779	0.950476	-0.354703	0.930894	-0.087301	-0.882280	-0.364153	-0.298286
39297	9.176622	-0.380892	-2.124137	0.246645	-1.154691	0.330366	-0.320771	-0.029950	0.946683	-0.355829	0.930096	-0.091143	-0.877776	-0.366094	-0.309005
39298	9.326651	0.192160	-1.746258	0.180553	-1.203747	0.357047	-0.332559	-0.031076	0.942570	-0.356242	0.929547	-0.095043	-0.873210	-0.367391	-0.320200
39299	9.504551	-0.312354	-1.222920	0.197383	-1.268130	0.379617	-0.344925	-0.032245	0.938076	-0.356673	0.928946	-0.099216	-0.868223	-0.368808	-0.331918
39300	9.602381	0.354996	0.019083	0.277616	-1.339405	0.407884	-0.357950	-0.033443	0.933142	-0.357641	0.928058	-0.103930	-0.862534	-0.370931	-0.344159
39301	9.734642	0.063911	0.344232	0.094449	-1.442096	0.442385	-0.371899	-0.034718	0.927624	-0.356838	0.927863	-0.108335	-0.856947	-0.371301	-0.357460
39302	10.328123	-0.413738	0.490041	0.182283	-1.552596	0.450123	-0.386737	-0.036347	0.921474	-0.356687	0.927350	-0.113121	-0.850417	-0.372426	-0.371605
39303	11.198108	0.135672	0.704700	0.278993	-1.679032	0.457388	-0.402552	-0.038405	0.914591	-0.357245	0.926484	-0.118335	-0.842809	-0.374369	-0.386679
39304	12.992188	0.472874	1.109678	0.351901	-1.813808	0.459898	-0.419384	-0.040991	0.906883	-0.358308	0.925349	-0.123872	-0.834106	-0.376893	-0.402764
39305	16.155088	0.175711	2.629099	0.257956	-1.931329	0.497459	-0.437152	-0.043711	0.898325	-0.358320	0.924591	-0.129380	-0.824927	-0.378446	-0.419849
39306	15.317823	-2.743666	2.310095	0.134953	-2.088157	0.533085	-0.456161	-0.046719	0.888670	-0.357049	0.924325	-0.134682	-0.815128	-0.378735	-0.438322
39307	14.969264	-2.558970	2.874209	0.411740	-2.254282	0.556848	-0.476352	-0.050169	0.877822	-0.357788	0.923035	-0.141401	-0.803166	-0.381431	-0.457640
39308	15.309941	-1.524986	3.662444	0.450400	-2.410350	0.658382	-0.497887	-0.053356	0.865599	-0.358174	0.921655	-0.149208	-0.789823	-0.384324	-0.477991
39309	15.067048	-1.195405	4.039862	0.352485	-2.564678	0.798157	-0.520770	-0.055907	0.851864	-0.356875	0.920738	-0.157742	-0.775525	-0.386156	-0.499444
39310	14.740818	0.083882	4.958948	0.049954	-2.740908	0.926722	-0.545090	-0.057972	0.836371	-0.352327	0.921077	-0.165780	-0.760751	-0.385041	-0.522495
39311	14.410291	0.185897	3.372109	-0.291140	-2.898070	1.047977	-0.570521	-0.059426	0.819130	-0.344299	0.922810	-0.172855	-0.745630	-0.380643	-0.546943
39312	14.176163	0.378224	0.432106	-0.466176	-2.972805	1.114635	-0.596217	-0.060382	0.800549	-0.334367	0.925242	-0.179235	-0.729879	-0.374540	-0.571835
39313	13.084456	0.304261	-2.934627	-0.624370	-2.957591	1.089099	-0.621100	-0.061274	0.781332	-0.323243	0.928224	-0.184160	-0.713967	-0.366942	-0.596326
39314	12.114088	0.122443	-5.953936	-0.997953	-2.837469	0.987899	-0.644259	-0.062370	0.762260	-0.309953	0.932445	-0.185676	-0.699185	-0.355888	-0.620068
39315	11.032480	-0.319232	-8.243454	-1.363936	-2.612914	0.835412	-0.664836	-0.063689	0.744269	-0.295051	0.937731	-0.183317	-0.686249	-0.341473	-0.642229
39316	8.540366	-0.415118	-10.085596	-1.390070	-2.446987	0.686486	-0.683436	-0.065442	0.727071	-0.280984	0.942823	-0.179259	-0.673768	-0.326807	-0.662747
39317	7.409433	-1.437380	-11.440010	-1.157823	-2.388120	0.461026	-0.700591	-0.068763	0.710242	-0.270085	0.946846	-0.174745	-0.660475	-0.314251	-0.681924
39318	7.302550	-1.193917	-9.959356	-0.995299	-2.191130	0.238120	-0.715539	-0.073302	0.694716	-0.261905	0.950091	-0.169508	-0.647619	-0.303239	-0.699025
39319	6.231894	-3.514951	-11.606821	-1.098416	-1.915045	0.070185	-0.727973	-0.078350	0.681114	-0.254362	0.953412	-0.162188	-0.636675	-0.291318	-0.713988
39320	5.403479	-6.215104	-12.443788	-0.265033	-1.499975	-0.043894	-0.737318	-0.083143	0.670410	-0.253027	0.954146	-0.159948	-0.626370	-0.287564	-0.724546
39321	6.658584	-5.104284	-7.751081	0.787216	-0.863743	-0.169284	-0.742217	-0.087292	0.664450	-0.259196	0.951713	-0.164500	-0.618006	-0.294317	-0.729003
39322	6.091096	-1.308829	-5.282551	1.147409	-0.270125	-0.274725	-0.743139	-0.090744	0.662956	-0.268316	0.948032	-0.171004	-0.612986	-0.304962	-0.728867
39323	4.914096	0.952760	-5.175140	0.592149	0.164317	-0.512537	-0.740695	-0.095114	0.665074	-0.275767	0.945734	-0.171872	-0.612636	-0.310710	-0.726730
39324	4.607962	-1.019617	-7.290968	0.266855	0.551079	-0.772588	-0.735134	-0.100726	0.670397	-0.283125	0.944146	-0.168610	-0.615969	-0.313757	-0.722591
39325	4.707540	-2.331668	-8.558656	0.767054	0.984227	-0.909842	-0.726376	-0.106195	0.679044	-0.294537	0.940767	-0.167942	-0.620988	-0.321993	-0.714629
39326	4.843928	-1.143320	-7.965839	1.299857	1.438048	-0.927590	-0.714580	-0.110199	0.690819	-0.309352	0.935490	-0.170763	-0.627437	-0.335730	-0.702573
39327	4.754495	-0.432090	-7.172695	1.413217	1.813488	-0.923111	-0.700154	-0.112604	0.705056	-0.324826	0.929611	-0.174100	-0.635824	-0.350918	-0.687448
39328	4.814763	0.013734	-6.699983	1.408454	2.148466	-0.949417	-0.683206	-0.113727	0.721316	-0.340437	0.923487	-0.176848	-0.646013	-0.366386	-0.669648
39329	5.011142	0.392124	-6.532362	1.315934	2.435061	-0.975936	-0.663887	-0.113629	0.739150	-0.355606	0.917460	-0.178357	-0.657874	-0.381255	-0.649497
39330	5.192304	0.780382	-6.600761	1.132615	2.695944	-0.973656	-0.642416	-0.112106	0.758112	-0.369508	0.911969	-0.178259	-0.671390	-0.394645	-0.627288
39331	5.471099	0.813410	-6.893259	0.820200	2.912399	-0.922700	-0.619128	-0.108875	0.777706	-0.380912	0.907672	-0.176173	-0.686722	-0.405312	-0.603437
39332	5.742053	0.187377	-7.115755	0.488684	3.091306	-0.828049	-0.594425	-0.103759	0.797429	-0.389346	0.904795	-0.172500	-0.703611	-0.413014	-0.578231
39333	5.954108	-0.259514	-6.931141	0.385272	3.248457	-0.711704	-0.568438	-0.096688	0.817025	-0.396239	0.902482	-0.168880	-0.721022	-0.419735	-0.551317
39334	6.273991	0.562257	-6.586758	0.242464	3.390273	-0.575904	-0.541369	-0.087589	0.836210	-0.401215	0.900931	-0.165381	-0.738882	-0.425032	-0.522878
39335	6.280549	1.082724	-6.012260	-0.340606	3.478798	-0.460423	-0.513421	-0.076981	0.854677	-0.401099	0.902006	-0.159704	-0.758630	-0.424805	-0.493985
39336	6.069565	-0.733264	-6.237520	-1.128172	3.545688	-0.383488	-0.484577	-0.065551	0.872289	-0.394334	0.906486	-0.150941	-0.780824	-0.417116	-0.465111
39337	5.883098	-3.610915	-7.102816	-1.452016	3.598115	-0.346955	-0.454670	-0.053922	0.889026	-0.384463	0.912263	-0.141292	-0.803407	-0.406039	-0.435509
39338	5.966151	-5.391469	-7.377262	-1.162238	3.658321	-0.355433	-0.423524	-0.042510	0.904887	-0.376570	0.916765	-0.133182	-0.823907	-0.397159	-0.404280
39339	6.373665	-5.282861	-7.002006	-0.634920	3.718176	-0.388220	-0.391056	-0.031415	0.919831	-0.372863	0.919136	-0.127127	-0.841456	-0.392685	-0.371147
39340	6.877614	-4.330865	-6.225329	-0.262638	3.732609	-0.428051	-0.357746	-0.020750	0.933588	-0.372237	0.920060	-0.122189	-0.856421	-0.391229	-0.336872
39341	7.496027	-3.125761	-5.577100	-0.040730	3.713575	-0.458560	-0.323944	-0.010463	0.946019	-0.373446	0.920155	-0.117701	-0.869252	-0.391415	-0.301986
39342	7.982223	-1.852222	-4.919286	0.016719	3.662111	-0.460124	-0.290156	-0.000386	0.956979	-0.375002	0.920070	-0.113330	-0.880445	-0.391753	-0.267109
39343	8.655544	-1.343644	-4.422805	-0.115728	3.592255	-0.447697	-0.256615	0.009518	0.966467	-0.375196	0.920552	-0.108688	-0.890717	-0.390505	-0.232656
39344	9.023898	-1.603248	-4.321557	-0.232677	3.498301	-0.416242	-0.223706	0.019269	0.974466	-0.374107	0.921524	-0.104105	-0.900000	-0.387843	-0.198942
39345	9.139925	-2.143038	-4.402379	-0.152034	3.386815	-0.394036	-0.191575	0.028708	0.981058	-0.373542	0.922215	-0.099929	-0.907615	-0.385610	-0.165950
39346	9.255435	-2.262254	-4.128924	0.028152	3.267344	-0.368166	-0.160424	0.037868	0.986322	-0.374438	0.922237	-0.096310	-0.913269	-0.384767	-0.133770
39347	9.382266	-1.854940	-3.614513	0.156618	3.118624	-0.340421	-0.130557	0.046703	0.990340	-0.376356	0.921787	-0.093086	-0.917230	-0.384874	-0.102769
39348	9.317443	-1.321618	-3.358231	0.128496	2.949414	-0.310440	-0.102264	0.055159	0.993227	-0.377888	0.921459	-0.090081	-0.920186	-0.384540	-0.073388
39349	9.001755	-0.851208	-2.855858	0.047157	2.727248	-0.271938	-0.076065	0.063096	0.995105	-0.378552	0.921448	-0.087362	-0.922449	-0.383344	-0.046205
39350	8.586131	-0.490210	-2.877699	-0.151930	2.468509	-0.218069	-0.052418	0.070481	0.996135	-0.377276	0.922183	-0.085101	-0.924616	-0.380279	-0.021748
39351	8.412016	-0.760360	-3.250781	-0.484117	2.180156	-0.199480	-0.031441	0.076834	0.996548	-0.372861	0.924166	-0.083017	-0.927354	-0.374184	-0.000408
39352	7.794814	-1.881239	-4.303479	-0.703393	1.862589	-0.213078	-0.013328	0.081726	0.996566	-0.366361	0.926948	-0.080917	-0.930377	-0.366181	0.017587
39353	6.873690	-2.313660	-4.891548	-0.555410	1.566888	-0.239428	0.002175	0.085161	0.996365	-0.361185	0.929173	-0.078629	-0.932492	-0.359701	0.032780
39354	6.639181	-1.917956	-4.942700	-0.373530	1.269473	-0.256051	0.014965	0.087286	0.996071	-0.357662	0.930738	-0.076187	-0.933731	-0.355116	0.045147
39355	7.639549	-1.085527	-4.108945	-0.170135	0.957262	-0.258106	0.024859	0.088239	0.995789	-0.356004	0.931577	-0.073662	-0.934154	-0.352674	0.054572
39356	7.469801	1.119820	-3.147438	-0.171288	0.576944	-0.202637	0.030993	0.088348	0.995607	-0.354331	0.932367	-0.071706	-0.934606	-0.350552	0.060202
39357	6.668498	2.026697	-2.937074	-0.983399	0.152416	-0.121813	0.032877	0.087704	0.995604	-0.345066	0.935885	-0.071049	-0.938002	-0.341214	0.061033
39358	7.010039	-0.443185	-4.012223	-1.566138	-0.266582	-0.039841	0.030526	0.086408	0.995792	-0.330305	0.941159	-0.071542	-0.943381	-0.326731	0.057271
39359	8.062043	-2.487559	-3.878996	-1.724509	-0.590004	0.061563	0.024772	0.085073	0.996067	-0.313985	0.946614	-0.073041	-0.949105	-0.310941	0.050161
39360	10.148411	-3.652607	-2.356935	-1.671678	-0.632286	0.137514	0.018355	0.084428	0.996260	-0.298088	0.951576	-0.075150	-0.954362	-0.295594	0.042633
39361	12.323031	-3.427692	-0.346390	-1.677732	-0.457903	0.230239	0.013329	0.085272	0.996269	-0.282054	0.956217	-0.078070	-0.959306	-0.279961	0.036796
39362	12.183969	-3.774136	1.329542	-2.089699	-0.339411	0.291105	0.009291	0.087114	0.996155	-0.261963	0.961618	-0.081650	-0.965033	-0.260198	0.031755
39363	11.673010	-5.863573	1.589519	-2.291266	-0.434975	0.244376	0.004489	0.088352	0.996079	-0.239785	0.967124	-0.084703	-0.970816	-0.238465	0.025527
39364	11.715233	-7.573191	1.553543	-2.037068	-0.626679	0.189920	-0.002028	0.088725	0.996054	-0.219947	0.971625	-0.086996	-0.975510	-0.219256	0.017545
39365	11.983816	-8.210134	0.523003	-1.303102	-0.770732	0.117450	-0.009788	0.088194	0.996055	-0.207196	0.974306	-0.088304	-0.978251	-0.207243	0.008736
39366	11.282337	-5.008299	-0.133842	-0.232209	-0.816506	0.045911	-0.017854	0.086921	0.996055	-0.204902	0.974752	-0.088734	-0.978620	-0.205678	0.000407
39367	10.594906	-0.372945	-0.456226	0.218621	-0.883594	-0.037061	-0.026404	0.084703	0.996056	-0.207037	0.974336	-0.088344	-0.977977	-0.208553	-0.008189
39368	10.327642	2.306084	-1.171417	0.116108	-0.945645	-0.104846	-0.035413	0.081666	0.996030	-0.208190	0.974187	-0.087277	-0.977447	-0.210454	-0.017497
39369	10.357208	3.222937	-2.445953	-0.039889	-0.949516	-0.153050	-0.044357	0.078147	0.995955	-0.207849	0.974398	-0.085712	-0.977155	-0.210810	-0.026978
39370	9.923390	2.737032	-3.714096	-0.257523	-0.855797	-0.166566	-0.052357	0.074693	0.995831	-0.205399	0.975072	-0.083935	-0.977277	-0.208938	-0.035710
39371	9.486895	1.185123	-4.861813	-0.317682	-0.734217	-0.208061	-0.059093	0.071107	0.995717	-0.202398	0.975889	-0.081703	-0.977519	-0.206359	-0.043276
39372	9.664760	-0.604281	-5.073033	-0.232611	-0.608863	-0.264388	-0.064494	0.067241	0.995650	-0.200274	0.976556	-0.078924	-0.977615	-0.204493	-0.049516
39373	9.676809	-3.366563	-5.189166	-0.062145	-0.496478	-0.332414	-0.068669	0.062947	0.995652	-0.199876	0.976905	-0.075547	-0.977412	-0.204194	-0.054502
39374	9.590975	-4.836882	-4.414547	0.437054	-0.389223	-0.372178	-0.071701	0.058474	0.995711	-0.204393	0.976234	-0.072048	-0.976259	-0.208682	-0.058045
39375	9.560899	-4.027928	-2.916175	0.755405	-0.315193	-0.374257	-0.073986	0.054122	0.995790	-0.212023	0.974844	-0.068737	-0.974460	-0.216216	-0.060650
39376	9.684397	-2.461774	-1.493878	0.669153	-0.282410	-0.293387	-0.076085	0.050610	0.995816	-0.218745	0.973534	-0.066191	-0.972811	-0.222866	-0.063001
39377	9.424789	-0.835416	-0.471431	0.237637	-0.329585	-0.184612	-0.078876	0.048045	0.995726	-0.221190	0.973097	-0.064474	-0.972036	-0.225330	-0.066127
39378	9.909013	-1.310893	-0.260825	-0.267888	-0.373032	-0.083933	-0.082299	0.046358	0.995529	-0.218640	0.973743	-0.063418	-0.972329	-0.222882	-0.070002
39379	9.912777	-0.506584	0.029516	-0.186560	-0.394924	-0.050305	-0.086021	0.044962	0.995278	-0.216859	0.974184	-0.062752	-0.972405	-0.221233	-0.074050
39380	9.927533	0.675458	0.984896	-0.348753	-0.449893	-0.110916	-0.090139	0.042858	0.995007	-0.213553	0.975004	-0.061343	-0.972764	-0.218016	-0.078733
39381	9.876061	-0.691550	0.830386	-0.218142	-0.508681	-0.223284	-0.094603	0.039547	0.994729	-0.211628	0.975573	-0.058912	-0.972761	-0.216086	-0.083923
39382	9.843576	-0.211601	1.129397	0.708999	-0.546216	-0.318826	-0.099206	0.035205	0.994444	-0.218814	0.974140	-0.056315	-0.970710	-0.223185	-0.088937
39383	9.922304	2.950262	2.444497	0.994779	-0.600274	-0.316973	-0.104304	0.030722	0.994071	-0.228771	0.971979	-0.054043	-0.967876	-0.233051	-0.094353
39384	9.861148	2.949882	2.713527	0.397345	-0.688405	-0.225524	-0.110422	0.026879	0.993521	-0.232844	0.971115	-0.052151	-0.966225	-0.237094	-0.100973
39385	9.682385	0.777335	2.031513	-0.098849	-0.765830	-0.149739	-0.117456	0.023581	0.992798	-0.232050	0.971391	-0.050526	-0.965586	-0.236313	-0.108623
39386	9.622220	-0.540410	0.993369	-0.261341	-0.824808	-0.110585	-0.125144	0.020533	0.991926	-0.229650	0.972034	-0.049094	-0.965194	-0.233940	-0.116929
39387	9.587893	-0.333471	-0.158868	-0.188261	-0.864924	-0.107253	-0.133227	0.017443	0.990932	-0.227963	0.972497	-0.047767	-0.964512	-0.232260	-0.125587
39388	9.605264	1.130879	-1.016321	-0.134689	-0.878283	-0.093000	-0.141464	0.014470	0.989838	-0.226782	0.972829	-0.046632	-0.963617	-0.231074	-0.134339
39389	9.480909	1.843725	-2.184937	-0.339998	-0.874499	-0.059635	-0.149737	0.011851	0.988655	-0.223584	0.973620	-0.045534	-0.963114	-0.227866	-0.143137
39390	9.486947	0.875664	-3.703137	-0.479917	-0.835820	-0.041388	-0.157676	0.009528	0.987445	-0.219017	0.974711	-0.044378	-0.962897	-0.223264	-0.151602
39391	9.583202	-0.204842	-4.829382	-0.342730	-0.748292	-0.036277	-0.164785	0.007483	0.986301	-0.215767	0.975478	-0.043450	-0.962440	-0.219971	-0.159129
39392	9.471649	-0.489615	-5.267759	-0.182258	-0.665710	-0.036626	-0.171092	0.005633	0.985239	-0.214066	0.975883	-0.042753	-0.961719	-0.218221	-0.165760
39393	9.446449	-1.106518	-5.222741	-0.060476	-0.588571	-0.039777	-0.176651	0.003928	0.984266	-0.213546	0.976020	-0.042221	-0.960829	-0.217644	-0.171577
39394	9.452188	-1.320529	-4.531928	0.079316	-0.513074	-0.024927	-0.181507	0.002532	0.983386	-0.214343	0.975852	-0.042074	-0.959746	-0.218419	-0.176581
39395	9.679738	-1.077034	-3.510036	0.143312	-0.472633	-0.006365	-0.186015	0.001400	0.982546	-0.215722	0.975541	-0.042231	-0.958573	-0.219812	-0.181164
39396	9.775859	-0.582550	-2.570374	0.203259	-0.448447	0.011200	-0.190317	0.000485	0.981723	-0.217640	0.975096	-0.042673	-0.957294	-0.221783	-0.185472
39397	9.814439	0.141627	-1.830258	0.162809	-0.441142	0.031207	-0.194595	-0.000226	0.980884	-0.219131	0.974737	-0.043248	-0.956093	-0.223358	-0.189729
39398	9.785210	-0.100848	-1.288824	0.070170	-0.442629	0.037414	-0.198889	-0.000886	0.980022	-0.219720	0.974583	-0.043709	-0.955074	-0.224023	-0.194028
39399	9.764429	-0.961217	-1.156598	0.173138	-0.444143	0.021792	-0.203165	-0.001707	0.979143	-0.221322	0.974198	-0.044225	-0.953803	-0.225691	-0.198301
39400	9.510403	-0.504657	-0.945811	0.478468	-0.470850	0.018011	-0.207673	-0.002639	0.978195	-0.225836	0.973111	-0.045320	-0.951772	-0.230323	-0.202685
39401	9.527135	0.419879	-0.361287	0.405070	-0.511434	0.043630	-0.212624	-0.003436	0.977128	-0.229590	0.972174	-0.046540	-0.949779	-0.234234	-0.207496
39402	9.539612	-0.266560	-0.727308	0.205207	-0.550353	0.073602	-0.217997	-0.004049	0.975941	-0.231371	0.971698	-0.047650	-0.948127	-0.236192	-0.212764
39403	9.379919	-0.607218	-1.170104	0.298198	-0.575273	0.073410	-0.223604	-0.004737	0.974669	-0.234028	0.970996	-0.048971	-0.946167	-0.239049	-0.218227
39404	9.310638	0.248574	-1.081831	0.308000	-0.607244	0.086291	-0.229527	-0.005394	0.973287	-0.236736	0.970263	-0.050452	-0.944073	-0.241992	-0.223979
39405	9.302104	0.302403	-1.473828	0.210433	-0.632051	0.100795	-0.235714	-0.005985	0.971804	-0.238481	0.969761	-0.051872	-0.942107	-0.243984	-0.230013
39406	9.423169	0.480190	-1.705594	0.168506	-0.648908	0.116922	-0.242081	-0.006474	0.970234	-0.239781	0.969359	-0.053359	-0.940160	-0.245561	-0.236216
39407	9.380586	0.212274	-1.950411	0.095927	-0.668648	0.144767	-0.248695	-0.006749	0.968558	-0.240322	0.969136	-0.054953	-0.938294	-0.246432	-0.242641
39408	9.497405	0.164825	-2.256871	0.097960	-0.680604	0.164355	-0.255450	-0.006871	0.966798	-0.240820	0.968910	-0.056744	-0.936350	-0.247320	-0.249163
39409	9.372680	-0.174534	-2.460075	0.073500	-0.685558	0.181290	-0.262285	-0.006846	0.964966	-0.241033	0.968744	-0.058641	-0.934403	-0.247970	-0.255737
39410	9.220772	-0.596621	-2.497904	0.189215	-0.705613	0.186932	-0.269303	-0.006826	0.963031	-0.242297	0.968289	-0.060893	-0.932077	-0.249738	-0.262417
39411	9.093895	-0.281555	-1.958602	0.399162	-0.733288	0.193681	-0.276584	-0.006831	0.960965	-0.245479	0.967302	-0.063778	-0.929108	-0.253536	-0.269217
39412	9.219987	0.542295	-0.934277	0.494570	-0.778409	0.214374	-0.284315	-0.006784	0.958707	-0.249460	0.966055	-0.067144	-0.925708	-0.258249	-0.276356
39413	9.372601	0.616913	0.059575	0.374558	-0.852685	0.249666	-0.292804	-0.006625	0.956150	-0.252196	0.965101	-0.070544	-0.922314	-0.261793	-0.284256
39414	9.104087	-0.368365	1.096600	0.309743	-0.954671	0.281643	-0.302285	-0.006454	0.953196	-0.254206	0.964308	-0.074086	-0.918696	-0.264703	-0.293137
39415	9.131181	-1.149498	2.431205	0.527295	-1.087130	0.314638	-0.313035	-0.006361	0.949720	-0.258066	0.962924	-0.078611	-0.914008	-0.269699	-0.303070
39416	9.775971	-0.618524	3.993708	0.722929	-1.233362	0.344462	-0.325151	-0.006450	0.945640	-0.263551	0.960975	-0.084066	-0.908195	-0.276558	-0.314162
39417	9.739173	-0.500841	3.973772	0.743682	-1.410917	0.378597	-0.338903	-0.006799	0.940797	-0.269021	0.958922	-0.089979	-0.901539	-0.283588	-0.326811
39418	9.048549	0.424899	3.558943	0.649144	-1.604436	0.411247	-0.354405	-0.007491	0.935062	-0.273423	0.957095	-0.095964	-0.894224	-0.289677	-0.341248
39419	8.974834	-0.048724	2.270448	0.385735	-1.806677	0.450745	-0.371701	-0.008476	0.928314	-0.275220	0.956011	-0.101470	-0.886618	-0.293207	-0.357683
39420	9.801983	-0.100606	1.051756	0.491073	-1.970280	0.461022	-0.390338	-0.009926	0.920618	-0.277795	0.954607	-0.107492	-0.877762	-0.297702	-0.375377
39421	11.373001	0.760994	0.378960	0.500064	-2.106460	0.467722	-0.409999	-0.011813	0.912009	-0.280289	0.953163	-0.113660	-0.867951	-0.302227	-0.394107
39422	13.823935	0.392808	-0.135186	0.578308	-2.232455	0.461210	-0.430534	-0.014259	0.902462	-0.283340	0.951465	-0.120139	-0.856947	-0.307428	-0.413678
39423	16.205470	-0.250634	0.559574	0.750558	-2.320357	0.485454	-0.451626	-0.016887	0.892047	-0.287587	0.949212	-0.127631	-0.844587	-0.314183	-0.433546
39424	16.586938	0.045070	2.026388	0.626733	-2.447964	0.529583	-0.473653	-0.019655	0.880492	-0.290393	0.947327	-0.135067	-0.831460	-0.319664	-0.454412
39425	16.800737	-1.762084	2.629000	0.389210	-2.613766	0.593576	-0.496890	-0.022460	0.867523	-0.290726	0.946207	-0.142022	-0.817666	-0.322781	-0.476691
39426	16.370106	-2.897399	2.962189	0.480046	-2.726332	0.704447	-0.521006	-0.024684	0.853196	-0.291036	0.944819	-0.150386	-0.802403	-0.326663	-0.499440
39427	16.492129	-1.058110	3.302315	0.535025	-2.811069	0.852980	-0.545766	-0.025900	0.837537	-0.290742	0.943280	-0.160287	-0.785880	-0.330987	-0.522341
39428	16.030314	0.381626	3.186895	0.069169	-2.920439	1.009427	-0.571369	-0.026075	0.820279	-0.285650	0.943318	-0.168985	-0.769378	-0.330865	-0.546430
39429	14.868128	0.479951	1.307012	-0.342724	-3.033000	1.135862	-0.597593	-0.025349	0.801399	-0.276413	0.944742	-0.176235	-0.752648	-0.326834	-0.571578
39430	13.571380	0.716132	-2.462293	-0.514115	-3.034936	1.178944	-0.623353	-0.024065	0.781570	-0.265400	0.946703	-0.182524	-0.735523	-0.321206	-0.596518
39431	12.365939	1.061620	-5.909525	-0.625781	-2.968370	1.099614	-0.647734	-0.023101	0.761516	-0.253876	0.948957	-0.187156	-0.718323	-0.314557	-0.620537
39432	11.965533	0.974572	-8.032360	-0.832511	-2.828319	0.936223	-0.670121	-0.023011	0.741895	-0.241808	0.951761	-0.188894	-0.701759	-0.305978	-0.643359
39433	11.724098	0.249987	-9.773059	-1.017728	-2.550675	0.807166	-0.689681	-0.023013	0.723748	-0.229268	0.955013	-0.188110	-0.686860	-0.295668	-0.663930
39434	9.975484	1.324982	-9.209805	-1.116180	-2.195807	0.732152	-0.706239	-0.022410	0.707618	-0.216577	0.958421	-0.185802	-0.674033	-0.284475	-0.681728
39435	7.567208	2.543141	-8.820518	-1.601370	-2.014553	0.561080	-0.720832	-0.022616	0.692741	-0.201883	0.962982	-0.178631	-0.663057	-0.268615	-0.698714
39436	7.459130	0.100208	-9.780628	-2.080500	-1.915892	0.377716	-0.734159	-0.023952	0.678556	-0.185459	0.968448	-0.166472	-0.653159	-0.248060	-0.715437
39437	5.766142	-4.270364	-12.945314	-1.832865	-1.726195	0.274474	-0.745795	-0.025439	0.665690	-0.171557	0.972901	-0.155022	-0.643707	-0.229818	-0.729949
39438	6.481533	-7.604118	-12.351760	-0.327765	-1.301181	0.178061	-0.754400	-0.026707	0.655871	-0.168144	0.973698	-0.153754	-0.634514	-0.226273	-0.739048
39439	7.966364	-5.364814	-6.416861	0.984802	-0.623775	0.144097	-0.758541	-0.026773	0.651075	-0.173288	0.971466	-0.161943	-0.628161	-0.235664	-0.741536
39440	7.269250	-1.705041	-4.853312	1.205488	0.069249	0.111629	-0.758290	-0.025557	0.651416	-0.180023	0.968586	-0.171558	-0.626568	-0.247360	-0.739071
39441	5.427181	0.472365	-4.824350	0.539715	0.622515	-0.063938	-0.754217	-0.024644	0.656163	-0.183916	0.967225	-0.175072	-0.630342	-0.252721	-0.734030
39442	4.363942	-1.184604	-6.533770	-0.084624	1.029760	-0.343475	-0.747036	-0.025401	0.664298	-0.185975	0.967356	-0.172150	-0.638240	-0.252145	-0.727374
39443	3.762578	-3.909262	-8.077816	0.117935	1.434015	-0.574546	-0.736680	-0.027357	0.675688	-0.191014	0.966911	-0.169108	-0.648704	-0.253644	-0.717529
39444	3.549927	-4.185475	-7.888189	0.810024	1.882910	-0.682111	-0.722998	-0.029124	0.690236	-0.201313	0.964633	-0.170167	-0.660869	-0.261984	-0.703290
39445	3.255038	-3.295034	-7.272326	1.157516	2.331600	-0.714520	-0.705890	-0.029783	0.707695	-0.214167	0.961325	-0.173164	-0.675167	-0.273800	-0.684969
39446	3.213593	-2.357469	-6.831180	1.219074	2.742725	-0.730122	-0.685518	-0.029141	0.727473	-0.227594	0.957700	-0.176104	-0.691568	-0.286291	-0.663152
39447	3.420985	-1.621059	-6.670120	1.053337	3.089758	-0.756862	-0.662046	-0.027387	0.748963	-0.240091	0.954417	-0.177328	-0.709966	-0.297218	-0.638443
39448	3.697992	-1.399770	-6.865242	0.788387	3.383869	-0.788612	-0.635727	-0.024737	0.771518	-0.250898	0.951839	-0.176220	-0.730001	-0.305600	-0.611316
39449	4.028282	-1.994347	-7.395615	0.523986	3.619157	-0.805936	-0.606813	-0.021261	0.794560	-0.259799	0.950042	-0.172990	-0.751187	-0.311398	-0.582022
39450	4.369368	-2.570657	-7.186160	0.626360	3.820959	-0.812009	-0.575540	-0.016973	0.817597	-0.269381	0.947919	-0.169950	-0.772132	-0.318058	-0.550138
39451	4.882295	-1.674052	-6.543210	0.722638	3.999088	-0.771939	-0.542082	-0.011438	0.840248	-0.279358	0.945490	-0.167356	-0.792532	-0.325451	-0.515728
39452	5.102707	-0.818101	-5.964306	0.352441	4.123297	-0.717370	-0.506926	-0.004753	0.861977	-0.285958	0.944283	-0.162964	-0.813176	-0.329100	-0.480040
39453	5.152444	-1.701519	-6.426276	-0.241613	4.205933	-0.687278	-0.470251	0.002524	0.882529	-0.287331	0.945075	-0.155805	-0.834449	-0.326845	-0.443697
39454	5.387000	-3.226763	-7.046834	-0.505735	4.259902	-0.688211	-0.432264	0.009798	0.901694	-0.286167	0.946763	-0.147474	-0.855135	-0.321783	-0.406448
39455	5.534642	-4.196390	-7.340342	-0.417008	4.306140	-0.711369	-0.392943	0.016791	0.919409	-0.285497	0.948197	-0.139335	-0.874120	-0.317240	-0.367794
39456	5.855548	-4.090120	-7.450617	-0.125183	4.350107	-0.747606	-0.352390	0.023424	0.935560	-0.287179	0.948749	-0.131924	-0.890702	-0.315162	-0.327603
39457	6.299082	-3.004738	-6.983202	0.035510	4.357882	-0.761961	-0.311009	0.029885	0.949937	-0.290023	0.948847	-0.124804	-0.905074	-0.314319	-0.286433
39458	7.054700	-2.504623	-6.826761	-0.041009	4.350957	-0.737216	-0.269180	0.036493	0.962398	-0.291785	0.949226	-0.117605	-0.917826	-0.312470	-0.244865
39459	7.656460	-3.139805	-7.177676	-0.175302	4.304372	-0.688575	-0.227373	0.043305	0.972844	-0.291870	0.950053	-0.110506	-0.929039	-0.309070	-0.203377
39460	8.145323	-4.510448	-7.253082	0.083030	4.214811	-0.612357	-0.186216	0.050457	0.981212	-0.293904	0.950091	-0.104634	-0.937520	-0.307867	-0.162093
39461	8.463800	-4.427145	-5.830368	0.920344	4.045459	-0.524635	-0.146597	0.058040	0.987492	-0.303416	0.947518	-0.100734	-0.941514	-0.314389	-0.121293
39462	8.649859	-1.175798	-4.736407	1.774536	3.870237	-0.437108	-0.108778	0.066325	0.991851	-0.320669	0.942091	-0.098166	-0.940924	-0.328734	-0.081211
39463	8.313148	3.035234	-2.610665	1.493533	3.543351	-0.384162	-0.074167	0.074543	0.994456	-0.335052	0.937373	-0.095252	-0.939276	-0.340259	-0.044547
39464	8.518178	3.285770	-1.628897	0.364301	3.082376	-0.325773	-0.044083	0.081963	0.995660	-0.338654	0.936395	-0.092078	-0.939878	-0.341244	-0.013522
39465	8.750611	0.476007	-1.619236	-0.313832	2.567250	-0.291077	-0.018911	0.087901	0.995950	-0.335779	0.937714	-0.089137	-0.941751	-0.336104	0.011782
39466	8.446567	-1.364337	-1.650485	-0.211501	2.069179	-0.256274	0.001466	0.092380	0.995723	-0.333793	0.938660	-0.086594	-0.942645	-0.332239	0.032212
39467	8.034100	-0.620613	-1.367767	-0.124310	1.584872	-0.185376	0.017061	0.095853	0.995249	-0.332588	0.939256	-0.084759	-0.942918	-0.329562	0.047904
39468	7.610103	-0.058630	-1.747322	-0.515197	1.109944	-0.094534	0.027870	0.098558	0.994741	-0.327689	0.941039	-0.084056	-0.944375	-0.323623	0.058523
39469	8.320628	-0.631388	-2.169310	-0.732414	0.684294	-0.044461	0.034517	0.100296	0.994359	-0.320733	0.943435	-0.084026	-0.946541	-0.316023	0.064733
39470	7.687910	-0.017929	-2.970964	-0.920338	0.258048	0.010809	0.036951	0.101170	0.994183	-0.311995	0.946300	-0.084701	-0.949365	-0.307051	0.066531
39471	6.744982	-0.498093	-3.639214	-1.463220	-0.127620	0.079874	0.035523	0.101512	0.994200	-0.298082	0.950621	-0.086412	-0.953879	-0.293284	0.064028
39472	6.103290	-1.102352	-4.862699	-1.789311	-0.499371	0.179672	0.030247	0.101768	0.994348	-0.281008	0.955546	-0.089249	-0.959229	-0.276720	0.057500
39473	6.914081	-0.864654	-5.595013	-2.150276	-0.826366	0.222867	0.021716	0.101665	0.994582	-0.260357	0.961066	-0.092554	-0.965268	-0.256936	0.047340
39474	10.360424	-4.396969	-6.284417	-2.124980	-0.820838	0.237508	0.013196	0.101891	0.994708	-0.239811	0.966083	-0.095778	-0.970730	-0.237278	0.037183
39475	12.087804	-3.755227	-4.302759	-1.354227	-0.504254	0.268253	0.007685	0.103287	0.994622	-0.226655	0.968944	-0.098869	-0.973945	-0.224676	0.030857
39476	12.477070	-2.761020	-2.263794	-1.519559	-0.236397	0.253559	0.004841	0.105199	0.994439	-0.211829	0.971991	-0.101793	-0.977295	-0.210158	0.026990
39477	12.156319	-4.237292	-0.846840	-1.868853	-0.100538	0.198176	0.003468	0.106892	0.994265	-0.193521	0.975546	-0.104205	-0.981090	-0.192050	0.024069
39478	11.537268	-7.541808	0.132684	-1.966557	-0.082533	0.112397	0.002468	0.107806	0.994169	-0.174179	0.979021	-0.105731	-0.984711	-0.172902	0.021193
39479	11.618395	-9.888207	-0.288383	-1.058786	-0.200586	-0.040815	0.000570	0.107038	0.994255	-0.163728	0.980848	-0.105500	-0.986505	-0.162728	0.018084
39480	12.475000	-7.600156	-0.722753	0.568472	-0.399202	-0.183808	-0.003043	0.104539	0.994516	-0.169320	0.980107	-0.103542	-0.985556	-0.168707	0.014718
39481	11.703051	-1.381165	0.430486	1.333321	-0.560140	-0.227591	-0.008149	0.101303	0.994822	-0.182446	0.978006	-0.101085	-0.983182	-0.182325	0.010513
39482	10.788374	2.812397	1.023355	0.869245	-0.668638	-0.198707	-0.014328	0.098076	0.995076	-0.190992	0.976586	-0.099004	-0.981487	-0.191470	0.004739
39483	10.362843	3.917889	0.694455	0.129370	-0.725385	-0.136285	-0.021175	0.095323	0.995221	-0.192274	0.976474	-0.097619	-0.981113	-0.193422	-0.002349
39484	10.104142	2.175992	-0.954028	-0.428378	-0.769417	-0.116872	-0.028487	0.092672	0.995289	-0.188083	0.977412	-0.096391	-0.981740	-0.189943	-0.010413
39485	9.964633	0.482029	-2.196797	-0.329692	-0.765597	-0.188388	-0.035643	0.089356	0.995362	-0.184894	0.978211	-0.094437	-0.982112	-0.187402	-0.018345
39486	9.613192	0.026090	-2.289934	-0.130308	-0.716011	-0.277428	-0.042146	0.085267	0.995466	-0.183708	0.978703	-0.091609	-0.982077	-0.186736	-0.025584
39487	9.444887	-1.290090	-2.306684	-0.132583	-0.656705	-0.328369	-0.047985	0.080797	0.995575	-0.182541	0.979228	-0.088269	-0.982027	-0.185969	-0.032239
39488	9.462089	-3.275686	-2.967202	0.041687	-0.601115	-0.371494	-0.053190	0.076004	0.995688	-0.183125	0.979447	-0.084547	-0.981650	-0.186832	-0.038179
39489	9.479410	-3.407321	-2.555735	0.412950	-0.561137	-0.400167	-0.057948	0.070994	0.995792	-0.187387	0.978966	-0.080699	-0.980575	-0.191275	-0.043426
39490	9.364747	-2.697167	-1.701771	0.516459	-0.538179	-0.390561	-0.062462	0.066093	0.995857	-0.192670	0.978237	-0.077008	-0.979274	-0.196681	-0.048368
39491	9.536393	-1.286175	-1.163790	0.450195	-0.512271	-0.321401	-0.066844	0.061902	0.995841	-0.197273	0.977551	-0.074007	-0.978067	-0.201400	-0.053132
39492	9.411863	-0.026168	-0.774490	0.008242	-0.513467	-0.222867	-0.071407	0.058654	0.995721	-0.197495	0.977674	-0.071754	-0.977700	-0.201773	-0.058229
39493	9.517947	0.066350	-0.979306	-0.358352	-0.536948	-0.147617	-0.076364	0.056106	0.995500	-0.194090	0.978480	-0.070036	-0.978007	-0.198565	-0.063831
39494	10.108191	0.428543	-0.952851	-0.492849	-0.557220	-0.116178	-0.081575	0.053840	0.995212	-0.189347	0.979517	-0.068511	-0.978516	-0.194030	-0.069709
39495	10.345698	0.849410	-0.547903	-0.505394	-0.580752	-0.117857	-0.087034	0.051542	0.994871	-0.184491	0.980552	-0.066940	-0.978973	-0.189371	-0.075833
39496	10.113830	0.592906	-0.089060	-0.554737	-0.607735	-0.141264	-0.092711	0.048986	0.994487	-0.179173	0.981664	-0.065058	-0.979439	-0.184217	-0.082234
39497	9.799639	-0.469648	-0.007116	-0.461577	-0.638623	-0.189343	-0.098627	0.045932	0.994064	-0.174823	0.982598	-0.062748	-0.979648	-0.179974	-0.088881
39498	9.884505	-0.709593	-0.079850	-0.022248	-0.648492	-0.232095	-0.104555	0.042449	0.993613	-0.174829	0.982746	-0.060382	-0.979032	-0.180026	-0.095330
39499	9.886825	0.582548	-0.055854	0.304681	-0.666767	-0.224156	-0.110678	0.039004	0.993091	-0.178043	0.982287	-0.058423	-0.977779	-0.183278	-0.101773
39500	9.806700	1.976304	-0.050001	0.243816	-0.686537	-0.153764	-0.117094	0.036192	0.992461	-0.180589	0.981899	-0.057113	-0.976564	-0.185915	-0.108439
39501	9.910013	1.546201	-0.473682	-0.042182	-0.715920	-0.067848	-0.123954	0.034163	0.991700	-0.180249	0.982005	-0.056358	-0.975780	-0.185739	-0.115565
39502	9.917552	0.527767	-1.012042	-0.043315	-0.733937	-0.024485	-0.131051	0.032525	0.990842	-0.179847	0.982098	-0.056025	-0.974926	-0.185542	-0.122855
39503	9.746649	0.202618	-1.239853	0.020151	-0.741629	-0.007074	-0.138257	0.031044	0.989910	-0.180044	0.982066	-0.055944	-0.973894	-0.185962	-0.130188
39504	9.482873	-0.306241	-1.485943	0.072728	-0.740163	-0.009827	-0.145426	0.029533	0.988928	-0.180755	0.981938	-0.055905	-0.972717	-0.186884	-0.137461
39505	9.344303	-0.328211	-1.780218	0.206715	-0.727959	-0.008435	-0.152479	0.028047	0.987909	-0.182768	0.981556	-0.056076	-0.971260	-0.189109	-0.144541
39506	9.422164	0.287274	-1.821889	0.154316	-0.711454	0.026492	-0.159416	0.026921	0.986844	-0.184215	0.981259	-0.056526	-0.969872	-0.190803	-0.151469
39507	9.492892	0.001922	-2.023095	-0.113576	-0.701158	0.072691	-0.166339	0.026264	0.985719	-0.182987	0.981460	-0.057030	-0.968941	-0.189860	-0.158449
39508	9.497154	-0.974211	-2.597171	-0.241107	-0.689042	0.097029	-0.173172	0.025881	0.984551	-0.180478	0.981894	-0.057556	-0.968214	-0.187657	-0.165366
39509	9.297222	-1.370556	-2.718164	-0.138440	-0.676368	0.095627	-0.179883	0.025520	0.983357	-0.178962	0.982132	-0.058225	-0.967272	-0.186457	-0.172102
39510	9.310138	-1.068790	-2.496499	0.025578	-0.665592	0.072504	-0.186430	0.024955	0.982151	-0.179067	0.982070	-0.058943	-0.966012	-0.186860	-0.178619
39511	9.718245	-1.066435	-2.428346	0.168779	-0.640552	0.047084	-0.192692	0.024180	0.980961	-0.180600	0.981745	-0.059675	-0.964496	-0.188661	-0.184808
39512	9.585560	-0.638279	-1.912103	0.362636	-0.626631	0.017094	-0.198744	0.023119	0.979779	-0.184053	0.981054	-0.060483	-0.962614	-0.192351	-0.190724
39513	9.498006	-0.291073	-1.335329	0.474186	-0.630268	0.030164	-0.204856	0.022153	0.978541	-0.188545	0.980127	-0.061660	-0.960461	-0.197130	-0.196608
39514	9.522130	-0.445468	-1.060528	0.494429	-0.652539	0.052449	-0.211198	0.021329	0.977211	-0.193171	0.979133	-0.063120	-0.958165	-0.202100	-0.202671
39515	9.635236	-0.249721	-0.839367	0.641796	-0.676676	0.066229	-0.217796	0.020553	0.975778	-0.199164	0.977805	-0.065050	-0.955457	-0.208507	-0.208869
39516	9.649101	0.523183	-0.372674	0.527405	-0.717017	0.111277	-0.224844	0.020092	0.974188	-0.203943	0.976673	-0.067214	-0.952813	-0.213791	-0.215502
39517	9.317432	0.395634	-0.716604	0.357272	-0.759416	0.157661	-0.232387	0.019960	0.972419	-0.206976	0.975875	-0.069493	-0.950346	-0.217417	-0.222649
39518	9.312634	0.536488	-1.066239	0.384740	-0.803722	0.185637	-0.240383	0.019973	0.970473	-0.210182	0.974998	-0.072127	-0.947649	-0.221314	-0.230175
39519	9.428370	0.837304	-1.263446	0.354615	-0.827419	0.211102	-0.248650	0.020149	0.968384	-0.213016	0.974169	-0.074965	-0.944880	-0.224921	-0.237935
39520	9.425452	0.489629	-1.738293	0.338776	-0.852526	0.236120	-0.257181	0.020482	0.966146	-0.215609	0.973357	-0.078028	-0.942004	-0.228377	-0.245913
39521	9.344962	-0.095612	-2.103888	0.371250	-0.871469	0.263460	-0.265938	0.021002	0.963761	-0.218406	0.972452	-0.081458	-0.938923	-0.232154	-0.254025
39522	9.334731	-0.520672	-2.376378	0.474373	-0.884015	0.285634	-0.274834	0.021671	0.961248	-0.222075	0.971283	-0.085391	-0.935494	-0.236937	-0.262129
39523	9.309563	-0.435718	-2.329848	0.472254	-0.894468	0.316296	-0.283882	0.022564	0.958594	-0.225596	0.970088	-0.089644	-0.931943	-0.241703	-0.270300
39524	9.333686	-0.765937	-2.375422	0.413439	-0.905653	0.344857	-0.293071	0.023666	0.955798	-0.228443	0.969005	-0.094039	-0.928398	-0.245905	-0.278581
39525	9.429020	-0.982810	-2.317991	0.506470	-0.920287	0.350388	-0.302392	0.024736	0.952863	-0.232088	0.967667	-0.098774	-0.924497	-0.251016	-0.286874
39526	9.534463	-0.473727	-1.662835	0.656529	-0.950024	0.347691	-0.311951	0.025648	0.949752	-0.237071	0.965915	-0.103952	-0.920046	-0.257587	-0.295237
39527	9.465305	-0.427856	-0.916367	0.686812	-0.994956	0.350761	-0.321909	0.026400	0.946403	-0.242259	0.964036	-0.109293	-0.915252	-0.264457	-0.303936
39528	9.264526	-0.636640	-0.007980	0.794530	-1.060994	0.357736	-0.332449	0.026963	0.942736	-0.248337	0.961813	-0.115083	-0.909839	-0.272375	-0.313058
39529	9.023611	0.001190	1.025748	0.865934	-1.156770	0.392742	-0.343912	0.027500	0.938599	-0.254858	0.959316	-0.121489	-0.903754	-0.280992	-0.322911
39530	9.086442	0.482396	1.980148	0.755776	-1.272067	0.447239	-0.356500	0.028130	0.933872	-0.260097	0.957045	-0.128118	-0.897361	-0.288571	-0.333870
39531	9.006391	0.450798	2.239617	0.578786	-1.429577	0.501052	-0.370572	0.028718	0.928360	-0.263448	0.955222	-0.134709	-0.890658	-0.294494	-0.346413
39532	8.915293	0.343140	2.156650	0.554949	-1.600441	0.538392	-0.386174	0.029064	0.921968	-0.266333	0.953422	-0.141611	-0.883140	-0.300237	-0.360446
39533	10.934484	1.561538	2.469587	0.597614	-1.770444	0.586807	-0.403280	0.029249	0.914609	-0.269269	0.951445	-0.149156	-0.874562	-0.306427	-0.375823
39534	13.923076	2.316450	2.623950	0.524768	-1.948173	0.639481	-0.421935	0.029271	0.906153	-0.271196	0.949641	-0.156954	-0.865115	-0.311970	-0.392749
39535	16.729544	0.497094	3.836500	0.137517	-2.127868	0.643257	-0.441950	0.028685	0.896581	-0.269602	0.949032	-0.163258	-0.855567	-0.313872	-0.411692
39536	16.072388	-4.207233	2.296082	0.319573	-2.292483	0.593401	-0.463017	0.027044	0.885937	-0.269636	0.947864	-0.169854	-0.844341	-0.317526	-0.431585
39537	15.667967	-3.613233	2.385256	0.744500	-2.441405	0.542732	-0.484900	0.024304	0.874232	-0.273304	0.945340	-0.177871	-0.830769	-0.325181	-0.451753
39538	15.523283	-2.831211	2.282561	0.852227	-2.574891	0.612106	-0.507764	0.021565	0.861226	-0.277287	0.942397	-0.187082	-0.815652	-0.333800	-0.472536
39539	15.721233	-2.067562	1.739480	0.735221	-2.648187	0.777242	-0.531273	0.019914	0.846966	-0.279196	0.939762	-0.197226	-0.799874	-0.341250	-0.493710
39540	15.676082	1.092952	2.084838	0.460927	-2.685995	0.987239	-0.555275	0.019920	0.831428	-0.277490	0.937987	-0.207797	-0.784008	-0.346098	-0.515313
39541	14.374549	1.765929	1.245488	-0.557447	-2.734307	1.169881	-0.579653	0.021478	0.814581	-0.266531	0.939669	-0.214439	-0.770042	-0.341411	-0.538957
39542	13.120274	0.994158	-1.305005	-1.389351	-2.783768	1.204172	-0.603997	0.023458	0.796642	-0.248803	0.944062	-0.216436	-0.757156	-0.328934	-0.564374
39543	11.715720	0.078770	-4.724008	-1.712640	-2.808523	1.074760	-0.627592	0.024587	0.778154	-0.229342	0.949312	-0.214962	-0.743996	-0.313372	-0.590142
39544	11.040608	-0.500228	-7.332749	-1.502628	-2.820544	0.799982	-0.650125	0.023520	0.759463	-0.213173	0.953732	-0.212019	-0.729311	-0.299736	-0.615032
39545	9.921279	-0.994167	-9.188020	-1.173576	-2.754347	0.529216	-0.671040	0.020439	0.741140	-0.201224	0.957079	-0.208586	-0.713593	-0.289105	-0.638125
39546	9.095115	-0.378307	-9.298059	-0.679604	-2.624071	0.320975	-0.690169	0.015974	0.723472	-0.194260	0.958970	-0.206492	-0.697086	-0.283056	-0.658749
39547	7.675713	-0.891260	-9.868796	-0.777762	-2.430382	0.257922	-0.707364	0.011629	0.706754	-0.187112	0.961116	-0.203088	-0.681634	-0.275899	-0.677683
39548	8.032385	-2.131563	-9.783314	-0.432697	-2.159544	0.228235	-0.722335	0.007875	0.691499	-0.182579	0.962284	-0.201679	-0.667007	-0.271933	-0.693653
39549	8.714553	-1.671200	-6.392504	-0.119105	-1.756012	0.213652	-0.734277	0.005136	0.678831	-0.180253	0.962601	-0.202259	-0.654482	-0.270875	-0.705889
39550	7.333258	0.331051	-4.559466	-0.313395	-1.346088	0.140985	-0.743262	0.002835	0.668995	-0.177192	0.963444	-0.200945	-0.645109	-0.267895	-0.715589
39551	5.957026	-0.168162	-6.014351	-0.945388	-1.013141	-0.076908	-0.749585	-0.000604	0.661908	-0.171713	0.965942	-0.193576	-0.639247	-0.258760	-0.724159
39552	5.395804	-2.515298	-8.047910	-0.911858	-0.660123	-0.353337	-0.753179	-0.005734	0.657790	-0.168572	0.968254	-0.184577	-0.635849	-0.249904	-0.730235
39553	5.371609	-3.618791	-8.814570	-0.271582	-0.252573	-0.548135	-0.753806	-0.011701	0.656993	-0.170994	0.968887	-0.178936	-0.634459	-0.247225	-0.732353
39554	5.207408	-3.109352	-8.246714	0.348474	0.177139	-0.669801	-0.751498	-0.017780	0.659496	-0.178266	0.967925	-0.177039	-0.635195	-0.250610	-0.730563
39555	5.093112	-2.418317	-7.418437	0.704090	0.597519	-0.778878	-0.746217	-0.023823	0.665276	-0.188599	0.965980	-0.176955	-0.638428	-0.257518	-0.725324
39556	4.925814	-1.844323	-6.976109	0.865577	0.976498	-0.883140	-0.738222	-0.029819	0.673898	-0.200722	0.963480	-0.177248	-0.644002	-0.266115	-0.717248
39557	4.941809	-1.622786	-6.810295	0.942143	1.328701	-0.992136	-0.727508	-0.035795	0.685165	-0.214114	0.960609	-0.177162	-0.651834	-0.275590	-0.706514
39558	4.950392	-1.550308	-6.857812	1.026242	1.662258	-1.080095	-0.714185	-0.041518	0.698725	-0.228657	0.957312	-0.176833	-0.661556	-0.286059	-0.693191
39559	5.001442	-1.316702	-6.824201	1.032306	1.976113	-1.133683	-0.698270	-0.046622	0.714314	-0.243568	0.953810	-0.175844	-0.673122	-0.296771	-0.677373
39560	5.038805	-1.246249	-6.828869	0.953392	2.276960	-1.151782	-0.679886	-0.050748	0.731560	-0.258001	0.950374	-0.173851	-0.686433	-0.306942	-0.659239
39561	5.041413	-1.284090	-6.789811	0.791366	2.553219	-1.125555	-0.659138	-0.053508	0.750116	-0.271043	0.947330	-0.170593	-0.701479	-0.315758	-0.638924
39562	5.237452	-1.322044	-6.985188	0.592836	2.808457	-1.062424	-0.636246	-0.054624	0.769550	-0.282145	0.944865	-0.166203	-0.718043	-0.322871	-0.616579
39563	5.493533	-1.563827	-7.272043	0.343887	3.039378	-0.967317	-0.611323	-0.053900	0.789544	-0.290691	0.943228	-0.160683	-0.736059	-0.327742	-0.592285
39564	5.665296	-1.844374	-6.962706	0.270841	3.242329	-0.882872	-0.584536	-0.051557	0.809728	-0.297999	0.941873	-0.155152	-0.754662	-0.331990	-0.565922
39565	5.765999	-1.240698	-6.532436	0.121323	3.415596	-0.790220	-0.556000	-0.047641	0.829816	-0.303441	0.941083	-0.149284	-0.773814	-0.334802	-0.537698
39566	5.850286	-1.289522	-6.335235	-0.352698	3.545266	-0.707894	-0.526032	-0.042499	0.849402	-0.304513	0.941946	-0.141455	-0.794080	-0.333064	-0.508435
39567	6.030979	-2.812024	-6.620314	-0.785494	3.630173	-0.651226	-0.494795	-0.036691	0.868235	-0.301521	0.944288	-0.131927	-0.815024	-0.327067	-0.478292
39568	6.310625	-4.479080	-6.641827	-0.806288	3.691761	-0.623355	-0.462443	-0.030660	0.886119	-0.297856	0.946694	-0.122687	-0.835122	-0.320671	-0.446924
39569	6.542666	-5.309017	-6.381492	-0.552484	3.743748	-0.621016	-0.428934	-0.024651	0.902999	-0.295959	0.948290	-0.114696	-0.853477	-0.316448	-0.414050
39570	6.880858	-5.081095	-5.986727	-0.224816	3.772429	-0.642066	-0.394505	-0.018860	0.918700	-0.296667	0.948864	-0.107914	-0.869687	-0.315121	-0.379927
39571	7.375628	-3.993986	-5.660348	-0.079130	3.783501	-0.672138	-0.359271	-0.013350	0.933138	-0.298504	0.949012	-0.101351	-0.884206	-0.314958	-0.344938
39572	7.747468	-3.271578	-5.518774	-0.132586	3.762126	-0.699170	-0.323640	-0.008186	0.946145	-0.299709	0.949358	-0.094306	-0.897458	-0.314089	-0.309704
39573	8.004500	-3.020988	-5.255361	-0.165571	3.727988	-0.700919	-0.287806	-0.003189	0.957683	-0.300351	0.949844	-0.087100	-0.909372	-0.312709	-0.274329
39574	8.354875	-2.900937	-5.110535	-0.157385	3.680847	-0.645773	-0.252176	0.002127	0.967679	-0.300650	0.950336	-0.080438	-0.919792	-0.311218	-0.239013
39575	8.731657	-2.449627	-5.106738	-0.054035	3.636639	-0.569391	-0.216805	0.007990	0.976182	-0.301479	0.950539	-0.074737	-0.928497	-0.310501	-0.203673
39576	9.241826	-1.880129	-5.163319	-0.119083	3.592366	-0.471233	-0.181870	0.014605	0.983214	-0.301300	0.950967	-0.069859	-0.936024	-0.308948	-0.168552
39577	9.806649	-2.062860	-5.391064	-0.297113	3.530862	-0.374985	-0.147530	0.021854	0.988816	-0.299116	0.951955	-0.065667	-0.942743	-0.305459	-0.133905
39578	9.929914	-2.812953	-5.367039	-0.268372	3.434497	-0.286387	-0.114182	0.029527	0.993021	-0.296943	0.952849	-0.062476	-0.948044	-0.302004	-0.100031
39579	9.584027	-2.614348	-4.596584	0.080594	3.288776	-0.205185	-0.082304	0.037469	0.995903	-0.297897	0.952681	-0.060461	-0.951043	-0.301653	-0.067247
39580	9.293735	-1.125562	-4.250428	0.168749	3.087954	-0.133689	-0.052488	0.045483	0.997585	-0.299581	0.952234	-0.059178	-0.952626	-0.301963	-0.036355
39581	8.512593	0.146664	-3.661159	-0.062800	2.770030	-0.089158	-0.025781	0.052941	0.998265	-0.299002	0.952474	-0.058235	-0.953904	-0.299985	-0.008726
39582	7.577049	-0.708858	-3.292313	-0.599793	2.351016	-0.104054	-0.002999	0.058886	0.998260	-0.293274	0.954317	-0.057175	-0.956024	-0.292935	0.014408
39583	6.207498	-3.799493	-4.597446	-0.840490	1.910817	-0.213257	0.015938	0.062326	0.997929	-0.285199	0.956877	-0.055207	-0.958336	-0.283728	0.033026
39584	5.885668	-3.898871	-4.943335	-0.041849	1.516763	-0.331591	0.031438	0.063413	0.997492	-0.284703	0.957211	-0.051879	-0.958100	-0.282358	0.048147
39585	7.346364	0.168595	-4.139059	0.552960	1.097395	-0.307940	0.042849	0.063561	0.997058	-0.289864	0.955839	-0.048477	-0.956108	-0.286934	0.059381
39586	6.844736	4.270087	-2.889270	-0.093369	0.623983	-0.144520	0.049254	0.063933	0.996738	-0.288888	0.956206	-0.047058	-0.956095	-0.285628	0.065567
39587	6.039274	2.546954	-3.300146	-1.580010	0.077310	0.074341	0.049805	0.064827	0.996653	-0.273766	0.960558	-0.048798	-0.960506	-0.270419	0.065588
39588	5.907517	-1.109534	-4.671171	-2.071477	-0.455729	0.233463	0.044819	0.065854	0.996822	-0.253902	0.965810	-0.052390	-0.966191	-0.250747	0.060007
39589	7.536827	-2.269119	-4.634824	-1.916103	-0.793697	0.242803	0.036550	0.066249	0.997133	-0.235422	0.970288	-0.055836	-0.971206	-0.232706	0.051060
39590	10.822046	-3.593560	-3.079653	-1.601945	-0.695052	0.192824	0.029366	0.066524	0.997353	-0.219878	0.973773	-0.058478	-0.975085	-0.217579	0.043223
39591	12.638751	-1.807182	0.151490	-1.281680	-0.333728	0.231679	0.025619	0.068042	0.997353	-0.207410	0.976333	-0.061280	-0.977919	-0.205291	0.039126
39592	12.234666	-2.256170	1.723681	-1.806771	-0.150824	0.215083	0.023733	0.069814	0.997278	-0.189744	0.979741	-0.064071	-0.981547	-0.187707	0.036499
39593	12.070003	-4.980961	1.276357	-1.961045	-0.184015	0.099352	0.021750	0.070426	0.997280	-0.170466	0.983170	-0.065712	-0.985123	-0.168574	0.033390
39594	11.481305	-6.407645	0.798076	-1.341282	-0.345121	-0.042686	0.018433	0.069412	0.997418	-0.157212	0.985379	-0.065668	-0.987393	-0.155596	0.029076
39595	12.438155	-4.831330	1.004957	-0.252428	-0.504445	-0.098417	0.013610	0.067632	0.997618	-0.154689	0.985841	-0.064723	-0.987869	-0.153440	0.023879
39596	11.751553	-1.507957	1.164214	0.212407	-0.613358	-0.073727	0.007683	0.065921	0.997795	-0.156763	0.985567	-0.063906	-0.987606	-0.155926	0.017906
39597	11.039007	0.301845	0.852576	0.028092	-0.757347	-0.086927	0.000345	0.063853	0.997959	-0.157024	0.985583	-0.063007	-0.987595	-0.156682	0.010366
39598	10.694383	0.396044	0.117852	-0.217220	-0.857846	-0.120130	-0.007925	0.061296	0.998088	-0.154867	0.986002	-0.061784	-0.987904	-0.155060	0.001679
39599	10.187340	-0.111053	-1.267015	-0.227801	-0.850512	-0.144009	-0.016101	0.058536	0.998155	-0.152621	0.986443	-0.060311	-0.988154	-0.153310	-0.006948
39600	9.460020	0.374801	-2.387673	-0.120139	-0.830565	-0.181228	-0.024016	0.055442	0.998173	-0.151455	0.986735	-0.058451	-0.988172	-0.152582	-0.015300
39601	9.458599	0.414118	-3.164868	-0.111205	-0.796735	-0.211165	-0.031566	0.052116	0.998142	-0.150402	0.987021	-0.056292	-0.988121	-0.151899	-0.023318
39602	9.335140	0.159462	-3.551586	-0.129973	-0.720007	-0.224886	-0.038327	0.048770	0.998074	-0.149182	0.987336	-0.053974	-0.988067	-0.150963	-0.030566
39603	9.480243	-0.345404	-3.061047	-0.245720	-0.631064	-0.229944	-0.044222	0.045522	0.997984	-0.146837	0.987816	-0.051565	-0.988172	-0.148821	-0.036999
39604	9.446712	-1.900409	-2.468363	-0.493882	-0.568585	-0.226884	-0.049498	0.042411	0.997873	-0.142047	0.988643	-0.049065	-0.988622	-0.144174	-0.042912
39605	9.514339	-2.908770	-1.762511	-0.382002	-0.536733	-0.231333	-0.054483	0.039328	0.997740	-0.138379	0.989285	-0.046551	-0.988880	-0.140603	-0.048457
39606	9.848588	-1.905589	-0.775202	-0.194919	-0.545280	-0.223239	-0.059553	0.036321	0.997564	-0.136565	0.989645	-0.044186	-0.988839	-0.138864	-0.053976
39607	9.978772	0.063323	-0.101296	-0.193643	-0.603666	-0.199052	-0.065255	0.033489	0.997307	-0.134765	0.989985	-0.042061	-0.988727	-0.137147	-0.060089
39608	10.191586	0.919705	-0.049843	-0.414757	-0.653784	-0.158478	-0.071494	0.031000	0.996959	-0.130759	0.990600	-0.040179	-0.988833	-0.133234	-0.066768
39609	10.042830	1.197574	-0.138207	-0.545697	-0.688993	-0.130714	-0.078143	0.028774	0.996527	-0.125450	0.991354	-0.038462	-0.989018	-0.128020	-0.073858
39610	9.924430	0.475155	-0.349455	-0.589819	-0.725653	-0.148860	-0.085123	0.026353	0.996022	-0.119725	0.992137	-0.036482	-0.989151	-0.122354	-0.081298
39611	9.923681	-0.395925	-0.860314	-0.366521	-0.725335	-0.185686	-0.092081	0.023604	0.995472	-0.116255	0.992627	-0.034290	-0.988942	-0.118886	-0.088658
39612	9.828769	-0.309529	-1.054123	-0.089648	-0.713199	-0.227974	-0.098852	0.020459	0.994892	-0.115574	0.992787	-0.031899	-0.988368	-0.118137	-0.095775
39613	9.651011	-0.208459	-1.385051	0.130355	-0.714261	-0.267403	-0.105601	0.016924	0.994265	-0.117126	0.992684	-0.029337	-0.987487	-0.119552	-0.102846
39614	9.731535	-0.004577	-1.668358	0.365926	-0.700902	-0.263444	-0.112189	0.013422	0.993596	-0.121012	0.992282	-0.027068	-0.986291	-0.123274	-0.109699
39615	9.882704	1.044439	-1.845351	0.502755	-0.667596	-0.225277	-0.118494	0.010315	0.992901	-0.126219	0.991678	-0.025365	-0.984900	-0.128329	-0.116205
39616	9.724373	1.425549	-2.124740	0.289818	-0.643590	-0.163149	-0.124605	0.007826	0.992176	-0.129259	0.991319	-0.024053	-0.983751	-0.131244	-0.122512
39617	9.687164	0.611467	-2.854562	0.073743	-0.618439	-0.099963	-0.130560	0.005987	0.991422	-0.130103	0.991231	-0.023119	-0.982867	-0.132006	-0.128636
39618	9.546058	-0.102647	-3.075852	0.023664	-0.589010	-0.063246	-0.136249	0.004546	0.990664	-0.130409	0.991205	-0.022484	-0.982054	-0.132255	-0.134458
39619	9.594592	-0.246522	-3.017363	0.052881	-0.544377	-0.035272	-0.141552	0.003440	0.989925	-0.130970	0.991138	-0.022172	-0.981229	-0.132789	-0.139847
39620	9.524568	0.087362	-2.684107	0.031751	-0.506339	-0.023453	-0.146472	0.002499	0.989212	-0.131304	0.991099	-0.021946	-0.980462	-0.133102	-0.144841
39621	9.456886	-0.129883	-2.231699	-0.060695	-0.488435	-0.022879	-0.151237	0.001588	0.988496	-0.130736	0.991182	-0.021595	-0.979814	-0.132498	-0.149696
39622	9.562646	-0.590384	-1.897182	-0.005967	-0.480940	-0.024776	-0.155900	0.000670	0.987773	-0.130706	0.991192	-0.021301	-0.979087	-0.132428	-0.154439
39623	9.718464	-0.434049	-1.420814	0.074720	-0.467995	-0.023800	-0.160456	-0.000223	0.987043	-0.131468	0.991095	-0.021148	-0.978248	-0.133158	-0.159057
39624	9.636913	-0.111014	-1.100390	0.121673	-0.487526	-0.018625	-0.165183	-0.001095	0.986262	-0.132678	0.990934	-0.021121	-0.977298	-0.134344	-0.163831
39625	9.554055	0.409388	-0.586851	0.134623	-0.518764	0.000437	-0.170258	-0.001827	0.985398	-0.133986	0.990754	-0.021314	-0.976248	-0.135659	-0.168929
39626	9.556063	0.520395	-0.304257	0.089358	-0.558565	0.015998	-0.175714	-0.002464	0.984438	-0.134821	0.990635	-0.021585	-0.975166	-0.136516	-0.174401
39627	9.523127	0.440925	-0.263853	0.081743	-0.597483	0.034845	-0.181590	-0.002973	0.983370	-0.135549	0.990526	-0.022036	-0.973987	-0.137297	-0.180273
39628	9.505411	0.321626	-0.401216	0.080862	-0.636069	0.045051	-0.187827	-0.003438	0.982196	-0.136244	0.990418	-0.022588	-0.972707	-0.138061	-0.186495
39629	9.447555	-0.042875	-0.821151	0.105639	-0.665394	0.046677	-0.194362	-0.003934	0.980922	-0.137176	0.990275	-0.023209	-0.971291	-0.139070	-0.193012
39630	9.258234	-0.204174	-1.119032	0.196098	-0.692124	0.040994	-0.201120	-0.004533	0.979556	-0.138989	0.990004	-0.023956	-0.969656	-0.140966	-0.199740
39631	9.297834	-0.187337	-1.353207	0.255213	-0.714630	0.049777	-0.208116	-0.005092	0.978091	-0.141354	0.989645	-0.024925	-0.967836	-0.143445	-0.206681
39632	9.451052	-0.147672	-1.957546	0.254070	-0.726885	0.061269	-0.215215	-0.005573	0.976551	-0.143673	0.989283	-0.026017	-0.965940	-0.145904	-0.213710
39633	9.479200	-0.529525	-2.791353	0.282850	-0.722682	0.068945	-0.222291	-0.005992	0.974962	-0.146247	0.988872	-0.027267	-0.963949	-0.148646	-0.220694
39634	9.579593	-0.507302	-3.104315	0.328078	-0.715587	0.084825	-0.229291	-0.006264	0.973338	-0.149207	0.988387	-0.028788	-0.961854	-0.151830	-0.227563
39635	9.454233	-0.529723	-3.398817	0.338880	-0.707131	0.100902	-0.236240	-0.006388	0.971674	-0.152224	0.987875	-0.030515	-0.959697	-0.155121	-0.234348
39636	9.540813	-0.466626	-3.460109	0.370235	-0.689565	0.116248	-0.243013	-0.006357	0.970002	-0.155488	0.987304	-0.032483	-0.957480	-0.158717	-0.240916
39637	9.558514	-0.492229	-3.404850	0.397598	-0.651196	0.124315	-0.249440	-0.006212	0.968370	-0.158980	0.986675	-0.034622	-0.955251	-0.162588	-0.247104
39638	9.303856	-0.287997	-3.048628	0.432833	-0.639325	0.118883	-0.255715	-0.006128	0.966733	-0.162804	0.985971	-0.036814	-0.952945	-0.166801	-0.253125
39639	9.229135	-0.224238	-2.611969	0.429952	-0.641181	0.126902	-0.262031	-0.005996	0.965041	-0.166564	0.985255	-0.039104	-0.950577	-0.170987	-0.259166
39640	9.240744	-0.152680	-1.889463	0.496092	-0.666408	0.134509	-0.268567	-0.005862	0.963243	-0.170911	0.984405	-0.041662	-0.947977	-0.175818	-0.265381
39641	9.207203	0.060674	-0.735937	0.531017	-0.712369	0.134798	-0.275547	-0.005842	0.961270	-0.175567	0.983468	-0.044349	-0.945119	-0.180988	-0.272018
39642	9.618728	-0.733894	0.015578	0.540751	-0.770654	0.124755	-0.283024	-0.006066	0.959094	-0.180317	0.982485	-0.046997	-0.942010	-0.186242	-0.279161
39643	9.646165	-0.981197	0.463882	0.828610	-0.831281	0.105296	-0.291034	-0.006649	0.956690	-0.187801	0.980918	-0.050313	-0.938099	-0.194310	-0.286729
39644	9.563639	0.922258	1.055340	1.119739	-0.907217	0.132147	-0.299760	-0.007202	0.953988	-0.197884	0.978693	-0.054791	-0.933266	-0.205203	-0.294798
39645	9.055680	1.932618	1.083928	0.704700	-1.005894	0.216422	-0.309556	-0.007218	0.950854	-0.203784	0.977241	-0.058925	-0.928788	-0.212009	-0.303982
39646	9.169585	0.650118	-0.030037	0.482014	-1.106966	0.261144	-0.320332	-0.007074	0.947279	-0.207424	0.976230	-0.062852	-0.924317	-0.216622	-0.314185
39647	9.331481	0.142147	-0.807790	0.514284	-1.176101	0.285475	-0.331763	-0.006901	0.943337	-0.211232	0.975126	-0.067155	-0.919410	-0.221543	-0.324968
39648	9.260256	-0.417676	-1.245539	0.533765	-1.236693	0.320935	-0.343767	-0.006578	0.939032	-0.215039	0.973955	-0.071900	-0.914102	-0.226646	-0.336228
39649	9.099109	-0.585566	-1.428167	0.733155	-1.317786	0.333448	-0.356487	-0.006402	0.934278	-0.220550	0.972293	-0.077492	-0.907896	-0.233680	-0.348022
39650	9.266873	-0.024757	-0.972999	0.877907	-1.399834	0.353661	-0.369921	-0.006331	0.929042	-0.227204	0.970230	-0.083855	-0.900853	-0.242102	-0.360347
39651	10.143100	0.961867	-0.291333	0.932419	-1.479251	0.380847	-0.384054	-0.006322	0.923289	-0.234132	0.967959	-0.090763	-0.893132	-0.251029	-0.373229
39652	10.904739	1.233317	0.118157	0.818469	-1.568033	0.389095	-0.398900	-0.006590	0.916971	-0.239886	0.965901	-0.097413	-0.885061	-0.258827	-0.386879
39653	12.251490	1.438161	0.159326	0.942710	-1.669925	0.407130	-0.414575	-0.007095	0.909987	-0.246532	0.963451	-0.104804	-0.875985	-0.267790	-0.401172
39654	14.046354	1.794860	0.973122	0.779467	-1.771049	0.423926	-0.431044	-0.007856	0.902297	-0.251532	0.961371	-0.111791	-0.866564	-0.275144	-0.416369
39655	15.885915	-0.119383	1.514196	0.633902	-1.902743	0.410923	-0.448453	-0.009236	0.893759	-0.255189	0.959648	-0.118127	-0.856603	-0.281051	-0.432714
39656	16.234779	-1.982861	2.776520	0.743095	-2.049215	0.448196	-0.467026	-0.010803	0.884178	-0.259464	0.957583	-0.125350	-0.845320	-0.287954	-0.450019
39657	16.007327	-1.539227	4.214451	0.690084	-2.222198	0.517411	-0.486989	-0.012355	0.873321	-0.262791	0.955639	-0.133021	-0.832936	-0.294280	-0.468632
39658	15.752074	-2.058510	4.664631	0.418648	-2.429976	0.639203	-0.508732	-0.013478	0.860820	-0.263073	0.954486	-0.140528	-0.819747	-0.297949	-0.489123
39659	15.249043	-1.613279	5.340064	0.261727	-2.635109	0.813379	-0.532229	-0.013625	0.846491	-0.260974	0.953819	-0.148734	-0.805372	-0.300073	-0.511206
39660	14.773294	-0.503158	4.764845	-0.183814	-2.795685	0.957043	-0.556988	-0.012885	0.830420	-0.254302	0.954500	-0.155758	-0.790629	-0.297933	-0.534922
39661	14.124300	-1.348711	1.763109	-0.571138	-2.881558	1.023235	-0.582050	-0.011634	0.813070	-0.244012	0.956315	-0.160996	-0.775678	-0.292106	-0.559462
39662	13.204025	-1.624382	-1.420912	-0.794665	-2.922114	0.991435	-0.606834	-0.010594	0.794758	-0.232024	0.958720	-0.164382	-0.760208	-0.284156	-0.584242
39663	12.484994	-1.982615	-5.039501	-0.898644	-2.881675	0.833628	-0.630339	-0.010673	0.776247	-0.220121	0.961326	-0.165528	-0.744460	-0.275207	-0.608310
39664	11.709540	-1.289990	-6.908453	-0.837592	-2.749141	0.623539	-0.651914	-0.012155	0.758195	-0.209965	0.963671	-0.165084	-0.728644	-0.266815	-0.630783
39665	10.318233	-0.411975	-8.057444	-0.991827	-2.589084	0.411611	-0.671368	-0.014985	0.740972	-0.200105	0.966328	-0.161765	-0.713598	-0.256877	-0.651761
39666	8.957273	-0.548686	-9.155475	-0.939803	-2.503856	0.168446	-0.689362	-0.019702	0.724149	-0.192338	0.968730	-0.156742	-0.698416	-0.247333	-0.671596
39667	8.977444	-0.581181	-9.344887	-0.936866	-2.313349	-0.060751	-0.705181	-0.025926	0.708553	-0.186302	0.970992	-0.149887	-0.684113	-0.237703	-0.689555
39668	7.387110	-2.724856	-11.257422	-0.917152	-2.008849	-0.187460	-0.718439	-0.032462	0.694832	-0.181436	0.973076	-0.142139	-0.671511	-0.228185	-0.704986
39669	7.978524	-3.845604	-10.670090	-0.080228	-1.549988	-0.268706	-0.728218	-0.038629	0.684256	-0.182863	0.973166	-0.139673	-0.660499	-0.226837	-0.715741
39670	8.773388	-2.658155	-6.730385	0.506341	-0.954799	-0.303035	-0.733910	-0.043797	0.677833	-0.188420	0.971884	-0.141210	-0.652590	-0.231353	-0.721528
39671	7.864465	-0.336460	-5.431866	0.692796	-0.343582	-0.331461	-0.735456	-0.047846	0.675881	-0.195382	0.970108	-0.143929	-0.648791	-0.237908	-0.722820
39672	6.485068	0.992879	-5.641641	0.250730	0.174062	-0.478317	-0.733365	-0.052102	0.677836	-0.200540	0.969272	-0.142465	-0.649585	-0.240411	-0.721278
39673	5.404385	-0.434539	-7.107935	-0.079818	0.619444	-0.697662	-0.727855	-0.057401	0.683324	-0.205135	0.969084	-0.137098	-0.654329	-0.239961	-0.717128
39674	4.797871	-2.379522	-8.307644	0.226994	1.050746	-0.871814	-0.719105	-0.063342	0.692009	-0.212952	0.968011	-0.132685	-0.661468	-0.242779	-0.709591
39675	4.618490	-2.472015	-8.303597	0.870848	1.499053	-0.949279	-0.706985	-0.068834	0.703871	-0.225538	0.965231	-0.132143	-0.670302	-0.252172	-0.697929
39676	4.452305	-1.713788	-8.101174	1.246337	1.943840	-0.977363	-0.691556	-0.073250	0.718599	-0.240809	0.961312	-0.133755	-0.681000	-0.265545	-0.682440
39677	4.234652	-0.695641	-7.649667	1.425221	2.349548	-0.990208	-0.672884	-0.076351	0.735797	-0.257376	0.956679	-0.136099	-0.693531	-0.280956	-0.663385
39678	4.220171	-0.073097	-7.237183	1.325637	2.703082	-1.003897	-0.651260	-0.078171	0.754818	-0.273327	0.952083	-0.137227	-0.707922	-0.295682	-0.641419
39679	4.238842	-0.095951	-7.082203	1.118823	3.002819	-1.033184	-0.626801	-0.078938	0.775171	-0.287955	0.947893	-0.136312	-0.724018	-0.308654	-0.616871
39680	4.347075	-0.497795	-7.299994	0.925924	3.269996	-1.065630	-0.599681	-0.078773	0.796353	-0.301286	0.944144	-0.133486	-0.741357	-0.319979	-0.589918
39681	4.574631	-0.992036	-7.619597	0.810472	3.509211	-1.082669	-0.569957	-0.077593	0.818003	-0.313711	0.940666	-0.129356	-0.759430	-0.330344	-0.560481
39682	4.678562	-1.743848	-7.420730	0.872587	3.697038	-1.092177	-0.538033	-0.075461	0.839539	-0.326476	0.936902	-0.125015	-0.777132	-0.341352	-0.528720
39683	4.956764	-1.439438	-6.550305	1.042212	3.873454	-1.071791	-0.503971	-0.072040	0.860711	-0.340255	0.932492	-0.121181	-0.793876	-0.353933	-0.494461
39684	5.031449	-0.760538	-5.741411	0.791454	3.988891	-1.048814	-0.468316	-0.067512	0.880978	-0.351710	0.928922	-0.115778	-0.810543	-0.364070	-0.458773
39685	5.310007	-1.022036	-5.668745	0.228094	4.035715	-1.047534	-0.431472	-0.062475	0.899960	-0.358295	0.927410	-0.107399	-0.827923	-0.368791	-0.422536
39686	5.930988	-2.289136	-6.184287	-0.195707	4.064745	-1.054740	-0.393642	-0.057284	0.917477	-0.361012	0.927505	-0.096981	-0.845409	-0.369396	-0.385786
39687	6.529113	-3.663236	-6.638825	-0.301496	4.098364	-1.070666	-0.354723	-0.052119	0.933518	-0.362443	0.928038	-0.085910	-0.861862	-0.368821	-0.348086
39688	6.844780	-3.730902	-6.247616	0.002676	4.127356	-1.053930	-0.314998	-0.046662	0.947945	-0.365995	0.927512	-0.075962	-0.875685	-0.370870	-0.309242
39689	7.421704	-1.840489	-5.390775	0.109827	4.155248	-0.952474	-0.274802	-0.040051	0.960666	-0.369768	0.926695	-0.067138	-0.887556	-0.373673	-0.269468
39690	7.859226	-0.417598	-4.891542	-0.244580	4.136055	-0.752769	-0.235044	-0.031621	0.971470	-0.369497	0.927343	-0.059214	-0.899014	-0.372873	-0.229650
39691	8.506537	-0.392575	-5.226533	-0.624401	4.107608	-0.505675	-0.195975	-0.021125	0.980381	-0.364929	0.929530	-0.052919	-0.910176	-0.368141	-0.189873
39692	9.189855	-0.640594	-5.154320	-0.847988	4.070082	-0.264123	-0.157738	-0.008778	0.987442	-0.357625	0.932587	-0.048838	-0.920447	-0.360838	-0.150243
39693	9.549011	-0.868933	-4.909597	-1.117638	4.018984	-0.039950	-0.120362	0.005112	0.992717	-0.347327	0.936569	-0.046934	-0.929988	-0.350447	-0.110952
39694	9.469246	-1.445128	-4.722780	-1.399568	3.927025	0.147438	-0.084143	0.019961	0.996254	-0.334086	0.941366	-0.047078	-0.938779	-0.336795	-0.072541
39695	9.437920	-2.351588	-4.649551	-1.653471	3.760320	0.304848	-0.049643	0.035158	0.998148	-0.318277	0.946721	-0.049176	-0.946697	-0.320129	-0.035808
39696	8.992882	-3.453969	-4.093293	-1.523883	3.485870	0.394409	-0.017740	0.049752	0.998604	-0.303657	0.951318	-0.052790	-0.952616	-0.304169	-0.001769
39697	8.734943	-3.266344	-3.103434	-0.998850	3.134385	0.416982	0.010956	0.063049	0.997950	-0.294094	0.954072	-0.057048	-0.955714	-0.292867	0.028995
39698	8.329755	-1.422872	-1.141793	-0.825322	2.660705	0.351690	0.035411	0.074039	0.996626	-0.286264	0.956216	-0.060866	-0.957496	-0.283143	0.055055
39699	7.614889	-1.973488	-1.302897	-1.378834	2.056390	0.225699	0.054528	0.081840	0.995153	-0.273125	0.959849	-0.063971	-0.960432	-0.268313	0.074692
39700	6.776629	-4.346696	-2.300818	-1.391462	1.426468	0.024664	0.068204	0.085767	0.993978	-0.259738	0.963468	-0.065312	-0.963268	-0.253719	0.087989
39701	7.144534	-5.191042	-2.813320	-0.568996	0.864748	-0.201696	0.077079	0.085959	0.993313	-0.254090	0.965074	-0.063798	-0.964104	-0.247473	0.096228
39702	8.358077	-1.980528	-2.621307	0.447339	0.340270	-0.285263	0.081108	0.084022	0.993157	-0.258155	0.964208	-0.060491	-0.962693	-0.251483	0.099895
39703	7.458846	2.278561	-1.968112	0.240366	-0.198550	-0.183926	0.079691	0.081720	0.993464	-0.260304	0.963759	-0.058397	-0.962232	-0.253949	0.098075
39704	6.464040	0.911327	-3.865718	-0.750760	-0.737164	-0.017669	0.072654	0.079669	0.994170	-0.253038	0.965662	-0.058892	-0.964724	-0.247284	0.090318
39705	7.391617	-0.268798	-4.436192	-0.903792	-1.077925	0.066131	0.062087	0.077654	0.995045	-0.244333	0.967816	-0.060284	-0.967702	-0.239379	0.079062
39706	10.519029	-0.945238	-3.942105	-1.007444	-0.948998	0.115936	0.052631	0.076515	0.995678	-0.234617	0.970099	-0.062147	-0.970662	-0.230332	0.069009
39707	11.791426	-0.444369	-1.877012	-1.258310	-0.582012	0.215607	0.046486	0.077270	0.995926	-0.222473	0.972764	-0.065089	-0.973830	-0.218541	0.062410
39708	10.845870	-2.140157	-0.793063	-1.898882	-0.344249	0.228812	0.042657	0.078745	0.995982	-0.204025	0.976568	-0.068472	-0.978036	-0.200285	0.057723
39709	9.805673	-5.051001	-1.195776	-2.197113	-0.344450	0.142250	0.039007	0.079450	0.996075	-0.182530	0.980628	-0.071070	-0.982426	-0.179041	0.052753
39710	9.109167	-8.109618	-2.445378	-1.670615	-0.461572	0.014294	0.034457	0.078766	0.996297	-0.166079	0.983480	-0.072009	-0.985510	-0.162983	0.046969
39711	10.913911	-6.274076	-1.689946	-0.116932	-0.477968	-0.064895	0.029850	0.077324	0.996559	-0.164891	0.983725	-0.071389	-0.985860	-0.162193	0.042114
39712	12.436110	-1.256575	1.420447	0.358235	-0.377731	-0.059556	0.026243	0.076083	0.996756	-0.168388	0.983188	-0.070614	-0.985371	-0.165989	0.038613
39713	12.636267	-0.219743	2.787662	0.054992	-0.359842	-0.018610	0.022723	0.075279	0.996904	-0.168912	0.983115	-0.070387	-0.985369	-0.166790	0.035055
39714	11.612148	0.672888	3.128678	-0.129704	-0.514836	-0.061497	0.017769	0.073782	0.997116	-0.167605	0.983382	-0.069779	-0.985694	-0.165882	0.029840
39715	10.684189	0.775872	1.998637	-0.167098	-0.688728	-0.159775	0.011244	0.071049	0.997409	-0.165921	0.983777	-0.068207	-0.986075	-0.164724	0.022850
39716	10.282831	1.653805	0.897577	0.069871	-0.751542	-0.214412	0.004207	0.067662	0.997699	-0.166577	0.983816	-0.066018	-0.986019	-0.165916	0.015410
39717	9.635351	2.346011	-0.104421	-0.135128	-0.762882	-0.209002	-0.002969	0.064316	0.997925	-0.165230	0.984181	-0.063922	-0.986251	-0.165077	0.007705
39718	9.462169	-0.401107	-1.746453	-0.510009	-0.792406	-0.224783	-0.010405	0.060777	0.998097	-0.160198	0.985157	-0.061659	-0.987030	-0.160534	-0.000514
39719	9.869771	-3.076937	-2.879147	-0.240815	-0.789630	-0.289633	-0.017740	0.056634	0.998237	-0.157848	0.985715	-0.058729	-0.987304	-0.158612	-0.008547
39720	9.897270	-2.990517	-2.696493	0.160174	-0.769896	-0.323802	-0.024809	0.052179	0.998330	-0.159483	0.985641	-0.055479	-0.986889	-0.160593	-0.016131
39721	9.707883	-1.808628	-2.448243	0.419168	-0.732506	-0.311494	-0.031536	0.047890	0.998355	-0.163694	0.985117	-0.052426	-0.986007	-0.165078	-0.023228
39722	9.942549	1.579594	-1.146647	0.321153	-0.730858	-0.265597	-0.038284	0.044020	0.998297	-0.166937	0.984708	-0.049823	-0.985224	-0.168561	-0.030350
39723	9.864827	1.721340	-0.738690	-0.472344	-0.781410	-0.194895	-0.045670	0.040773	0.998124	-0.162354	0.985580	-0.047689	-0.985675	-0.164227	-0.038392
39724	9.839719	-0.404266	-0.947363	-0.826874	-0.816474	-0.152416	-0.053464	0.037925	0.997849	-0.154261	0.986969	-0.045777	-0.986583	-0.156377	-0.046917
39725	9.878197	-1.954388	-1.050691	-0.755696	-0.841209	-0.160008	-0.061533	0.035031	0.997490	-0.146884	0.988185	-0.043765	-0.987238	-0.149209	-0.055660
39726	9.986485	-1.402048	-1.051010	-0.287313	-0.857389	-0.198304	-0.069692	0.031767	0.997063	-0.144165	0.988680	-0.041576	-0.987097	-0.146639	-0.064323
39727	9.935692	-0.408709	-0.880484	-0.139447	-0.880338	-0.231721	-0.078056	0.028162	0.996551	-0.142950	0.988956	-0.039144	-0.986647	-0.145513	-0.073168
39728	9.822689	-0.438965	-1.519869	0.054784	-0.887285	-0.258009	-0.086421	0.024280	0.995963	-0.143690	0.988947	-0.036577	-0.985842	-0.146271	-0.081977
39729	9.872443	0.348988	-1.749225	0.290078	-0.874418	-0.280578	-0.094637	0.020186	0.995307	-0.146793	0.988582	-0.034007	-0.984630	-0.149323	-0.090594
39730	9.861504	0.592857	-2.452154	0.336082	-0.840330	-0.273642	-0.102483	0.016176	0.994603	-0.150358	0.988128	-0.031564	-0.983306	-0.152781	-0.098834
39731	9.900198	0.581499	-3.040374	0.398018	-0.785318	-0.265309	-0.109806	0.012310	0.993877	-0.154542	0.987551	-0.029306	-0.981865	-0.156814	-0.106536
39732	9.737206	0.797337	-3.033455	0.409193	-0.726834	-0.246834	-0.116534	0.008683	0.993149	-0.158824	0.986930	-0.027265	-0.980405	-0.160914	-0.113632
39733	9.748609	0.609023	-2.946072	0.388039	-0.675033	-0.201584	-0.122835	0.005564	0.992411	-0.162860	0.986315	-0.025688	-0.978973	-0.164779	-0.120248
39734	9.889894	0.647137	-2.944406	0.355549	-0.614776	-0.149656	-0.128586	0.003030	0.991694	-0.166515	0.985732	-0.024602	-0.977619	-0.168296	-0.126247
39735	9.620779	0.504173	-2.803487	0.186345	-0.567002	-0.115475	-0.133947	0.000900	0.990988	-0.168480	0.985421	-0.023667	-0.976562	-0.170132	-0.131843
39736	9.483821	-0.185854	-2.617246	0.111901	-0.541629	-0.096293	-0.139054	-0.001009	0.990284	-0.169693	0.985233	-0.022824	-0.975637	-0.171219	-0.137172
39737	9.482978	-0.207752	-2.004879	0.187500	-0.514452	-0.082002	-0.143947	-0.002736	0.989582	-0.171631	0.984910	-0.022243	-0.974588	-0.173045	-0.142244
39738	9.444581	0.256379	-1.153445	0.148356	-0.509204	-0.064435	-0.148779	-0.004290	0.988861	-0.173160	0.984653	-0.021781	-0.973591	-0.174472	-0.147239
39739	9.486578	0.486539	-0.471742	0.026298	-0.527323	-0.038586	-0.153860	-0.005624	0.988077	-0.173468	0.984607	-0.021407	-0.972747	-0.174694	-0.152467
39740	9.394688	-0.001895	-0.173333	-0.133145	-0.569396	-0.029405	-0.159329	-0.006940	0.987201	-0.172210	0.984839	-0.020870	-0.972090	-0.173331	-0.158109
39741	9.423014	-0.488212	0.070538	-0.047362	-0.617035	-0.033912	-0.165280	-0.008376	0.986211	-0.171798	0.984920	-0.020427	-0.971168	-0.172806	-0.164227
39742	9.516716	-0.157147	0.482416	0.079481	-0.664727	-0.034306	-0.171656	-0.009900	0.985107	-0.172618	0.984782	-0.020182	-0.969916	-0.173512	-0.170753
39743	9.525213	0.312506	0.419788	0.076807	-0.714624	-0.026860	-0.178547	-0.011440	0.983865	-0.173404	0.984647	-0.020019	-0.968531	-0.174180	-0.177790
39744	9.461500	0.464288	-0.102029	0.096333	-0.763784	-0.028568	-0.185872	-0.013090	0.982487	-0.174379	0.984478	-0.019873	-0.966976	-0.175019	-0.185270
39745	9.505488	0.590424	-0.880124	0.096544	-0.790108	-0.022065	-0.193476	-0.014728	0.980994	-0.175349	0.984307	-0.019806	-0.965308	-0.175848	-0.193022
39746	9.529954	0.427423	-1.854283	0.110012	-0.797161	-0.012800	-0.201125	-0.016294	0.979430	-0.176427	0.984113	-0.019857	-0.963547	-0.176791	-0.200804
39747	9.473443	0.214559	-2.827039	0.106688	-0.788843	0.003655	-0.208732	-0.017691	0.977813	-0.177441	0.983927	-0.020076	-0.961741	-0.177695	-0.208516
39748	9.489048	-0.326292	-3.723265	0.127863	-0.760237	0.014886	-0.216046	-0.018935	0.976199	-0.178630	0.983704	-0.020453	-0.959904	-0.178798	-0.215908
39749	9.369435	-0.847093	-4.327621	0.182356	-0.717779	0.021531	-0.222977	-0.020047	0.974617	-0.180327	0.983382	-0.021028	-0.958000	-0.180439	-0.222887
39750	9.386464	-0.805177	-4.286188	0.304304	-0.667205	0.026493	-0.229393	-0.021035	0.973106	-0.183172	0.982836	-0.021934	-0.955943	-0.183278	-0.229309
39751	9.337658	-0.106722	-3.771622	0.326952	-0.617878	0.055824	-0.235409	-0.021664	0.971655	-0.186161	0.982245	-0.023202	-0.953901	-0.186347	-0.235262
39752	9.391649	0.546455	-2.883066	0.133025	-0.600028	0.082934	-0.241265	-0.022006	0.970210	-0.187225	0.982017	-0.024284	-0.952228	-0.187506	-0.241046
39753	9.405418	0.006866	-2.147880	-0.155469	-0.599733	0.100862	-0.247173	-0.022171	0.968718	-0.185496	0.982331	-0.024848	-0.951050	-0.185835	-0.246918
39754	9.290470	-0.987090	-1.609467	-0.224824	-0.627275	0.101832	-0.253306	-0.022363	0.967128	-0.183098	0.982771	-0.025231	-0.949901	-0.183470	-0.253036
39755	9.046776	-1.697478	-0.941964	-0.201952	-0.678830	0.070792	-0.259891	-0.022941	0.965365	-0.180997	0.983157	-0.025363	-0.948524	-0.181320	-0.259665
39756	9.377597	-2.190216	-1.242193	0.146657	-0.722970	0.033614	-0.266784	-0.023961	0.963458	-0.182292	0.982900	-0.026033	-0.946359	-0.182576	-0.266590
39757	9.615038	-0.115184	-0.757967	0.579149	-0.766692	0.008574	-0.274055	-0.025331	0.961380	-0.187739	0.981830	-0.027648	-0.943212	-0.188066	-0.273831
39758	9.689693	1.637252	-0.403600	0.508534	-0.826248	0.028919	-0.281872	-0.026655	0.959082	-0.192442	0.980871	-0.029298	-0.939954	-0.192826	-0.281610
39759	9.841826	1.646899	-0.763914	0.333413	-0.877061	0.052375	-0.290211	-0.027880	0.956556	-0.195419	0.980239	-0.030719	-0.936797	-0.195844	-0.289924
39760	9.825491	0.364076	-1.101641	0.334373	-0.916608	0.058293	-0.298880	-0.029152	0.953845	-0.198370	0.979597	-0.032219	-0.933445	-0.198844	-0.298565
39761	9.617612	-0.216413	-1.300369	0.663016	-0.959041	0.068795	-0.307954	-0.030450	0.950914	-0.204335	0.978281	-0.034848	-0.929199	-0.205036	-0.307487
39762	9.484197	1.157389	-0.550913	0.865128	-1.021762	0.131274	-0.317678	-0.031338	0.947681	-0.211938	0.976514	-0.038754	-0.924209	-0.213161	-0.316859
39763	9.116598	1.087177	0.013268	0.625419	-1.109725	0.198873	-0.328334	-0.031829	0.944025	-0.217059	0.975228	-0.042613	-0.919283	-0.218901	-0.327109
39764	8.921781	0.298534	0.411906	0.554099	-1.213726	0.243756	-0.339976	-0.032175	0.939884	-0.221322	0.974081	-0.046712	-0.914020	-0.223897	-0.338285
39765	8.830887	0.317428	0.793968	0.681509	-1.327632	0.276907	-0.352685	-0.032528	0.935176	-0.226570	0.972626	-0.051617	-0.907898	-0.230088	-0.350401
39766	9.702370	1.601879	1.148866	0.835810	-1.455862	0.298160	-0.366518	-0.033070	0.929823	-0.233056	0.970771	-0.057340	-0.900749	-0.237716	-0.363513
39767	10.659708	3.108181	1.767761	0.717633	-1.585687	0.340948	-0.381533	-0.033618	0.923744	-0.238217	0.969159	-0.063120	-0.893132	-0.244134	-0.377775
39768	11.409959	2.118384	1.066805	0.316311	-1.719426	0.357169	-0.397661	-0.034410	0.916887	-0.239639	0.968507	-0.067586	-0.885685	-0.246598	-0.393384
39769	12.614093	1.190034	0.152371	0.401260	-1.845950	0.345744	-0.414745	-0.035681	0.909238	-0.241772	0.967635	-0.072310	-0.877230	-0.249818	-0.409949
39770	14.382882	0.207587	-0.089522	0.467732	-1.954836	0.339299	-0.432609	-0.037354	0.900808	-0.244417	0.966584	-0.077298	-0.867819	-0.253613	-0.427283
39771	15.668338	-1.458163	1.013070	0.532273	-2.073018	0.349513	-0.451323	-0.039316	0.891494	-0.247465	0.965360	-0.082707	-0.857361	-0.257941	-0.445419
39772	15.180839	-1.557727	2.545749	0.805458	-2.216485	0.388780	-0.471145	-0.041394	0.881084	-0.252532	0.963415	-0.089776	-0.845133	-0.264800	-0.464361
39773	15.586212	-0.747147	3.824732	0.665852	-2.376687	0.498289	-0.492305	-0.042986	0.869361	-0.255720	0.961847	-0.097250	-0.832012	-0.270190	-0.484514
39774	15.732926	-0.651592	5.428814	0.327456	-2.565753	0.667109	-0.515162	-0.043564	0.855985	-0.255067	0.961250	-0.104588	-0.818260	-0.272213	-0.506311
39775	15.472969	-1.033710	5.637036	-0.127602	-2.763484	0.825836	-0.539612	-0.043139	0.840808	-0.249683	0.961958	-0.110887	-0.804038	-0.269772	-0.529855
39776	15.291391	-1.349700	4.414480	-0.416346	-2.928780	0.908352	-0.565154	-0.042251	0.823903	-0.241357	0.963460	-0.116150	-0.788891	-0.264497	-0.554701
39777	15.092715	-1.019113	1.293685	-0.513847	-2.994363	0.973777	-0.590777	-0.040711	0.805807	-0.231726	0.965211	-0.121126	-0.772842	-0.258285	-0.579658
39778	13.983695	-0.115290	-1.913416	-0.868161	-2.967942	0.964351	-0.615638	-0.038947	0.787066	-0.219278	0.967798	-0.123628	-0.756906	-0.248696	-0.604354
39779	12.287033	0.713829	-5.324579	-1.413671	-2.889025	0.856328	-0.639029	-0.037636	0.768261	-0.203325	0.971540	-0.121529	-0.741823	-0.233867	-0.628494
39780	10.941396	-0.625916	-7.815844	-1.827676	-2.809318	0.628954	-0.660873	-0.037851	0.749542	-0.185824	0.975882	-0.114561	-0.727128	-0.214993	-0.651968
39781	9.750182	-2.927747	-10.241669	-1.570899	-2.666990	0.431287	-0.680769	-0.039173	0.731450	-0.171640	0.979299	-0.107301	-0.712104	-0.198593	-0.673400
39782	8.477087	-2.240395	-10.138435	-0.781504	-2.506183	0.226325	-0.698784	-0.041858	0.714107	-0.164590	0.980910	-0.103561	-0.696140	-0.189902	-0.692334
39783	7.841667	-2.646994	-10.787237	-0.806369	-2.211581	0.039454	-0.714023	-0.045596	0.698636	-0.158771	0.982425	-0.098151	-0.681882	-0.181006	-0.708713
39784	7.156187	-5.347228	-11.681719	-0.250873	-1.788702	-0.070586	-0.725983	-0.049532	0.685926	-0.157601	0.982842	-0.095831	-0.669410	-0.177674	-0.721333
39785	8.073503	-4.618706	-7.780109	0.782921	-1.184471	-0.127349	-0.733592	-0.052951	0.677525	-0.163751	0.981359	-0.100604	-0.659567	-0.184747	-0.728587
39786	8.110037	-1.309894	-5.385151	1.181273	-0.551442	-0.139521	-0.736964	-0.055404	0.673657	-0.172549	0.979035	-0.108245	-0.653537	-0.196012	-0.731074
39787	6.488092	1.257809	-5.355898	0.683655	-0.011231	-0.237404	-0.736561	-0.057769	0.673899	-0.178782	0.977538	-0.111608	-0.652315	-0.202688	-0.730345
39788	5.577485	-0.199848	-7.021414	0.090407	0.398854	-0.432616	-0.733158	-0.061221	0.677297	-0.182569	0.977098	-0.109307	-0.655093	-0.203793	-0.727545
39789	5.219529	-2.679725	-8.528542	0.315765	0.816192	-0.586866	-0.726639	-0.065295	0.683910	-0.188949	0.976078	-0.107565	-0.660526	-0.207385	-0.721594
39790	5.023314	-2.712178	-8.598829	0.945562	1.286190	-0.617654	-0.716880	-0.068618	0.693811	-0.199704	0.973657	-0.110049	-0.667983	-0.217449	-0.711699
39791	4.820273	-1.651117	-8.223880	1.299415	1.747084	-0.580721	-0.703867	-0.070363	0.706838	-0.212592	0.970338	-0.115106	-0.677772	-0.231287	-0.697947
39792	4.592829	-0.479099	-7.640953	1.413105	2.161376	-0.561878	-0.687840	-0.070675	0.722414	-0.226180	0.966567	-0.120794	-0.689724	-0.246483	-0.680828
39793	4.330666	0.100425	-7.194023	1.299877	2.505643	-0.573167	-0.668987	-0.069869	0.739983	-0.239144	0.962867	-0.125286	-0.703752	-0.260777	-0.660854
39794	4.229906	0.246530	-6.935552	1.085497	2.813462	-0.577002	-0.647532	-0.067938	0.759004	-0.250681	0.959574	-0.127974	-0.719626	-0.273136	-0.638385
39795	4.158024	-0.106035	-7.268558	0.823465	3.077947	-0.585554	-0.623553	-0.065009	0.779074	-0.260417	0.956896	-0.128584	-0.737133	-0.283063	-0.613604
39796	4.207324	-1.088326	-7.749041	0.603181	3.313731	-0.589220	-0.597238	-0.061164	0.799728	-0.268527	0.954795	-0.127513	-0.755777	-0.290905	-0.586664
39797	4.183431	-2.774079	-8.178702	0.487714	3.524492	-0.598110	-0.568570	-0.056519	0.820691	-0.275760	0.953010	-0.125413	-0.775038	-0.297620	-0.557439
39798	4.109615	-4.262354	-8.155134	0.765885	3.707265	-0.623444	-0.537725	-0.051279	0.841559	-0.285224	0.950362	-0.124339	-0.793410	-0.306893	-0.525659
39799	4.311852	-4.268581	-7.747832	1.243691	3.874453	-0.667208	-0.504653	-0.045470	0.862124	-0.298683	0.946139	-0.124937	-0.810008	-0.320552	-0.491053
39800	4.582939	-2.903125	-6.770272	1.548154	3.986379	-0.750948	-0.469741	-0.039483	0.881921	-0.315003	0.940734	-0.125666	-0.824692	-0.336839	-0.454338
39801	5.126420	-1.399672	-5.931491	1.355070	4.043226	-0.845305	-0.433329	-0.033525	0.900612	-0.330099	0.935767	-0.123993	-0.838607	-0.351021	-0.416561
39802	5.701965	-1.067240	-6.067798	0.907540	4.062240	-0.924955	-0.395848	-0.027738	0.917897	-0.341610	0.932258	-0.119149	-0.852412	-0.360728	-0.378508
39803	6.323314	-1.181745	-6.304192	0.580317	4.073399	-0.956525	-0.357487	-0.021837	0.933663	-0.350203	0.929913	-0.112338	-0.865772	-0.367131	-0.340080
39804	6.911030	-1.220730	-6.610121	0.336830	4.097241	-0.909710	-0.318513	-0.015199	0.947796	-0.356215	0.928506	-0.104819	-0.878442	-0.371005	-0.301156
39805	7.488280	-0.917205	-6.805962	0.179522	4.130670	-0.815412	-0.279011	-0.007417	0.960259	-0.360237	0.927751	-0.097504	-0.890158	-0.373126	-0.261524
39806	8.038824	-0.364509	-6.605838	-0.052146	4.148782	-0.682108	-0.239362	0.001697	0.970929	-0.361534	0.927932	-0.090750	-0.901110	-0.372746	-0.221498
39807	8.509489	-0.469289	-6.227909	-0.357666	4.132627	-0.520661	-0.199983	0.012170	0.979724	-0.359430	0.929301	-0.084911	-0.911492	-0.369123	-0.181470
39808	8.752973	-1.099683	-5.633231	-0.511008	4.074679	-0.370169	-0.161303	0.023626	0.986622	-0.355409	0.931246	-0.080406	-0.920688	-0.363624	-0.141816
39809	8.911549	-1.398619	-5.094640	-0.430583	3.970954	-0.276195	-0.123582	0.035364	0.991704	-0.351813	0.932889	-0.077108	-0.927877	-0.358424	-0.102846
39810	9.179944	-0.830100	-4.682834	-0.353290	3.814075	-0.234134	-0.087243	0.046726	0.995091	-0.348761	0.934250	-0.074446	-0.933142	-0.353544	-0.065211
39811	9.088760	-0.006916	-3.780168	-0.383879	3.556387	-0.228432	-0.053162	0.057041	0.996955	-0.345319	0.935723	-0.071951	-0.936978	-0.348093	-0.030047
39812	8.938851	0.169896	-3.132118	-0.518255	3.218702	-0.227879	-0.022148	0.065969	0.997576	-0.340527	0.937658	-0.069567	-0.939974	-0.341242	0.001697
39813	8.692437	-0.254137	-2.451957	-0.553292	2.805487	-0.223086	0.005035	0.073319	0.997296	-0.335324	0.939689	-0.067391	-0.942089	-0.334078	0.029317
39814	8.443768	-0.323413	-2.023492	-0.435014	2.343147	-0.224478	0.027894	0.078935	0.996489	-0.331171	0.941309	-0.065294	-0.943158	-0.328187	0.052397
39815	7.980298	0.505226	-1.258459	-0.513883	1.838294	-0.199431	0.045920	0.082998	0.995491	-0.326231	0.943149	-0.063586	-0.944174	-0.321840	0.070386
39816	7.986960	0.648501	-0.939479	-0.820546	1.318402	-0.158834	0.058915	0.085651	0.994582	-0.318375	0.945896	-0.062599	-0.946132	-0.312962	0.082996
39817	9.007777	0.154290	-1.035929	-0.974773	0.789612	-0.109379	0.066759	0.087011	0.993968	-0.309052	0.949001	-0.062318	-0.948699	-0.303028	0.090246
39818	7.485041	0.443633	-1.091876	-1.183388	0.239565	-0.044728	0.069193	0.087266	0.993779	-0.297757	0.952566	-0.062915	-0.952131	-0.291551	0.091895
39819	7.167173	-1.095715	-2.302348	-1.457548	-0.305503	0.004737	0.066281	0.086403	0.994053	-0.283831	0.956721	-0.064233	-0.956581	-0.277885	0.087936
39820	7.103491	-1.869906	-3.690238	-1.334920	-0.790372	0.032002	0.058636	0.084529	0.994694	-0.271035	0.960329	-0.065631	-0.960782	-0.265749	0.079220
39821	8.099641	-1.558186	-4.490619	-1.287207	-1.070652	0.044963	0.048218	0.082139	0.995454	-0.258648	0.963646	-0.066986	-0.964768	-0.254242	0.067711
39822	10.255421	-1.490641	-4.399927	-1.371650	-0.975993	0.096042	0.038561	0.080612	0.995999	-0.245412	0.966977	-0.068762	-0.968652	-0.241778	0.057071
39823	11.349976	-1.270891	-3.450020	-1.627384	-0.649771	0.195146	0.031791	0.080942	0.996212	-0.229666	0.970637	-0.071535	-0.972750	-0.226521	0.049447
39824	10.514239	-2.511479	-2.717138	-2.058579	-0.413056	0.216379	0.027306	0.082118	0.996248	-0.209639	0.974928	-0.074614	-0.977397	-0.206815	0.043837
39825	10.054062	-5.004687	-2.747617	-2.294188	-0.369744	0.175220	0.023330	0.083066	0.996271	-0.187189	0.979280	-0.077266	-0.982047	-0.184688	0.038395
39826	9.516733	-7.374281	-3.225637	-1.959913	-0.382169	0.123507	0.019368	0.083573	0.996313	-0.167916	0.982618	-0.079160	-0.985611	-0.165763	0.033064
39827	10.910021	-7.181946	-1.555984	-1.174549	-0.356313	0.087470	0.015695	0.083830	0.996356	-0.156327	0.984430	-0.080364	-0.987581	-0.154497	0.028556
39828	12.354823	-6.061198	0.235470	-0.471741	-0.271241	0.062119	0.012936	0.083993	0.996382	-0.151659	0.985102	-0.081074	-0.988348	-0.150062	0.025482
39829	12.189513	-2.673014	2.015430	0.191687	-0.305794	0.034161	0.009844	0.083844	0.996430	-0.153544	0.984788	-0.081347	-0.988093	-0.152195	0.022568
39830	11.469889	1.443438	3.358572	0.150906	-0.498514	-0.026325	0.004976	0.082786	0.996555	-0.155016	0.984584	-0.081017	-0.987899	-0.154079	0.017732
39831	11.109992	2.262304	3.060509	-0.365852	-0.702805	-0.076125	-0.001867	0.080940	0.996717	-0.151387	0.985209	-0.080289	-0.988473	-0.151040	0.010414
39832	10.234856	1.722616	1.813086	-0.439140	-0.793453	-0.110868	-0.009531	0.078628	0.996858	-0.147035	0.985958	-0.079174	-0.989085	-0.147328	0.002164
39833	9.740296	1.355732	0.094726	-0.425057	-0.837292	-0.152807	-0.017603	0.075873	0.996962	-0.142837	0.986698	-0.077614	-0.989590	-0.143769	-0.006531
39834	9.418264	-0.115117	-1.644967	-0.353999	-0.883108	-0.235621	-0.025995	0.072255	0.997047	-0.139369	0.987382	-0.075188	-0.989899	-0.140912	-0.015597
39835	9.605160	-1.012631	-2.308616	-0.113190	-0.887149	-0.311305	-0.034355	0.067902	0.997100	-0.138330	0.987763	-0.072032	-0.989790	-0.140403	-0.024542
39836	9.508622	-2.136618	-2.564255	0.033461	-0.847081	-0.351410	-0.042235	0.063202	0.997107	-0.138781	0.987951	-0.068500	-0.989422	-0.141272	-0.032955
39837	9.486840	-2.633592	-2.599646	0.189728	-0.795188	-0.356546	-0.049617	0.058517	0.997053	-0.140809	0.987902	-0.064987	-0.988793	-0.143618	-0.040777
39838	9.473408	-1.960700	-2.578437	0.294079	-0.749884	-0.337230	-0.056532	0.054061	0.996936	-0.143881	0.987669	-0.061717	-0.987979	-0.146929	-0.048057
39839	9.645873	-0.366650	-1.941060	0.224035	-0.717295	-0.291210	-0.063212	0.050094	0.996742	-0.146257	0.987491	-0.058904	-0.987225	-0.149504	-0.055095
39840	9.712366	0.434986	-1.183200	-0.291810	-0.726019	-0.217352	-0.070049	0.046835	0.996444	-0.143507	0.988034	-0.056528	-0.987167	-0.146957	-0.062489
39841	9.878147	-0.854322	-1.697458	-0.691553	-0.734737	-0.165222	-0.077091	0.044117	0.996048	-0.136790	0.989105	-0.054396	-0.987596	-0.140443	-0.070217
39842	9.935724	-1.391298	-2.139552	-0.629191	-0.712483	-0.147216	-0.083916	0.041644	0.995602	-0.130681	0.990037	-0.052426	-0.987867	-0.134506	-0.077638
39843	10.116997	-1.411671	-2.185938	-0.465409	-0.701448	-0.174603	-0.090644	0.038958	0.995121	-0.126226	0.990726	-0.050284	-0.987852	-0.130168	-0.084885
39844	10.148010	-0.745650	-2.315824	-0.111467	-0.677406	-0.238122	-0.097019	0.035684	0.994643	-0.125336	0.990963	-0.047777	-0.987359	-0.129300	-0.091670
39845	10.067080	0.692317	-1.894891	0.063843	-0.643426	-0.276582	-0.103046	0.032080	0.994159	-0.126235	0.990976	-0.045062	-0.986634	-0.130141	-0.098067
39846	9.726514	0.509737	-1.926040	0.080102	-0.626459	-0.280959	-0.108853	0.028441	0.993651	-0.127310	0.990960	-0.042311	-0.985872	-0.131108	-0.104248
39847	9.857868	0.351695	-1.481274	0.262278	-0.626291	-0.269331	-0.114703	0.024913	0.993087	-0.130188	0.990687	-0.039889	-0.984832	-0.133863	-0.110391
39848	10.082755	0.512813	-1.104849	0.394226	-0.622411	-0.227721	-0.120512	0.021776	0.992473	-0.134324	0.990207	-0.038036	-0.983582	-0.137897	-0.116407
39849	10.027419	1.070833	-1.001085	0.369117	-0.607342	-0.163302	-0.126284	0.019278	0.991807	-0.138146	0.989727	-0.036828	-0.982328	-0.141665	-0.122324
39850	9.781916	0.908759	-1.520496	0.193407	-0.595110	-0.107147	-0.131962	0.017333	0.991103	-0.140172	0.989474	-0.035968	-0.981294	-0.143672	-0.128144
39851	9.571924	0.329443	-1.743621	0.129567	-0.595434	-0.080827	-0.137713	0.015640	0.990349	-0.141545	0.989302	-0.035306	-0.980306	-0.145041	-0.134026
39852	9.489238	0.035295	-1.986536	0.181148	-0.582906	-0.062511	-0.143319	0.014135	0.989576	-0.143397	0.989050	-0.034896	-0.979233	-0.146903	-0.139723
39853	9.357163	0.486041	-1.643133	0.223949	-0.569034	-0.052828	-0.148837	0.012735	0.988780	-0.145658	0.988728	-0.034660	-0.978075	-0.149183	-0.145304
39854	9.261275	0.630402	-1.376623	0.124238	-0.565754	-0.039303	-0.154294	0.011464	0.987959	-0.146922	0.988549	-0.034416	-0.977040	-0.150463	-0.150843
39855	9.466141	0.703384	-1.132132	0.025641	-0.566614	-0.020621	-0.159822	0.010370	0.987091	-0.147198	0.988515	-0.034218	-0.976110	-0.150767	-0.156460
39856	9.576093	0.574926	-1.262508	-0.113365	-0.558066	0.008507	-0.165263	0.009580	0.986203	-0.146068	0.988687	-0.034082	-0.975373	-0.149685	-0.161994
39857	9.414170	0.102253	-1.272607	-0.227851	-0.569002	0.025697	-0.170873	0.008951	0.985252	-0.143796	0.989026	-0.033924	-0.974744	-0.147472	-0.167710
39858	9.441165	-0.495498	-1.279310	-0.197395	-0.589338	0.035691	-0.176650	0.008405	0.984238	-0.141802	0.989315	-0.033899	-0.974006	-0.145555	-0.173571
39859	9.522871	-0.338470	-1.054894	-0.063418	-0.612103	0.037624	-0.182685	0.007850	0.983140	-0.141110	0.989406	-0.034121	-0.972992	-0.144964	-0.179642
39860	9.439198	-0.003967	-0.621039	-0.082105	-0.639209	0.044760	-0.188949	0.007333	0.981960	-0.140220	0.989524	-0.034370	-0.971924	-0.144184	-0.185941
39861	9.452647	-0.438776	-0.459283	-0.140480	-0.679101	0.056391	-0.195645	0.006878	0.980651	-0.138741	0.989723	-0.034621	-0.970811	-0.142829	-0.192681
39862	9.618664	-0.831855	-0.552488	-0.023033	-0.725787	0.060757	-0.202755	0.006408	0.979209	-0.138388	0.989755	-0.035131	-0.969401	-0.142634	-0.199791
39863	9.576890	-0.130856	-0.584280	0.163992	-0.764634	0.068580	-0.210275	0.005952	0.977624	-0.139829	0.989517	-0.036100	-0.967591	-0.144291	-0.207239
39864	9.507405	0.688665	-0.865118	0.184307	-0.799900	0.089519	-0.218117	0.005641	0.975906	-0.141411	0.989247	-0.037323	-0.965623	-0.146145	-0.214974
39865	9.541441	0.763439	-1.484209	0.072988	-0.825979	0.113249	-0.226262	0.005513	0.974051	-0.141858	0.989136	-0.038550	-0.963681	-0.146899	-0.223022
39866	9.367435	0.191002	-2.395887	-0.014213	-0.827375	0.132147	-0.234399	0.005569	0.972124	-0.141410	0.989152	-0.039763	-0.961801	-0.146788	-0.231069
39867	9.311816	-0.571272	-3.284060	0.049641	-0.816581	0.128944	-0.242444	0.005604	0.970149	-0.141574	0.989074	-0.041094	-0.959780	-0.147311	-0.239001
39868	9.295940	-0.923622	-3.715932	0.202854	-0.798165	0.134272	-0.250271	0.005713	0.968159	-0.143182	0.988768	-0.042847	-0.957530	-0.149346	-0.246642
39869	9.225595	-0.966729	-3.614630	0.310346	-0.779139	0.146320	-0.257951	0.005944	0.966140	-0.145774	0.988294	-0.045001	-0.955098	-0.152446	-0.254065
39870	9.233500	-0.677755	-3.154123	0.384694	-0.769264	0.157789	-0.265505	0.006280	0.964089	-0.149024	0.987693	-0.047475	-0.952522	-0.156277	-0.261302
39871	9.059358	-0.586428	-2.620381	0.367411	-0.772759	0.171440	-0.273133	0.006713	0.961953	-0.152054	0.987104	-0.050062	-0.949883	-0.159942	-0.268589
39872	9.275007	-0.598301	-1.933185	0.325836	-0.787500	0.180848	-0.280864	0.007190	0.959721	-0.154638	0.986567	-0.052646	-0.947208	-0.163196	-0.275979
39873	9.350028	-1.000756	-1.462618	0.447933	-0.823492	0.170440	-0.288936	0.007470	0.957319	-0.158386	0.985817	-0.055496	-0.944156	-0.167660	-0.283655
39874	9.545043	0.072110	-0.592869	0.792768	-0.868449	0.170765	-0.297379	0.007627	0.954729	-0.165351	0.984446	-0.059368	-0.940332	-0.175520	-0.291493
39875	9.635374	1.326129	0.501287	0.759229	-0.944873	0.188404	-0.306577	0.007749	0.951814	-0.171902	0.983073	-0.063372	-0.936194	-0.183048	-0.300056
39876	9.399341	0.973694	0.725141	0.611132	-1.028391	0.218316	-0.316547	0.007945	0.948543	-0.176927	0.981922	-0.067269	-0.931931	-0.189117	-0.309419
39877	9.242779	0.391294	0.758314	0.595057	-1.125477	0.247504	-0.327462	0.008173	0.944829	-0.181659	0.980763	-0.071444	-0.927237	-0.195032	-0.319677
39878	9.395450	0.365215	1.129207	0.601554	-1.237699	0.292402	-0.339427	0.008553	0.940594	-0.186244	0.979551	-0.076116	-0.922010	-0.201016	-0.330893
39879	8.665701	-0.494281	1.035405	0.553165	-1.365013	0.336224	-0.352607	0.009025	0.935728	-0.190163	0.978398	-0.081094	-0.916246	-0.206535	-0.343274
39880	8.882340	-0.152365	1.363513	0.762446	-1.506780	0.357817	-0.367035	0.009319	0.930160	-0.195834	0.976765	-0.087060	-0.909359	-0.214111	-0.356682
39881	9.133747	1.135015	1.641187	0.766825	-1.643101	0.424375	-0.382750	0.009842	0.923799	-0.201186	0.975057	-0.093744	-0.901680	-0.221736	-0.371223
39882	10.729103	1.734260	1.155583	0.593124	-1.781959	0.472170	-0.399686	0.010404	0.916593	-0.204662	0.973681	-0.100297	-0.893512	-0.227679	-0.387038
39883	12.811929	2.240713	0.439997	0.608552	-1.896967	0.499327	-0.417567	0.010847	0.908581	-0.208032	0.972228	-0.107215	-0.884511	-0.233784	-0.403714
39884	13.586774	0.751077	-0.389668	0.280043	-2.015711	0.499895	-0.436328	0.010929	0.899721	-0.208364	0.971519	-0.112850	-0.875330	-0.236709	-0.421623
39885	15.159470	-2.299789	-1.189345	0.446868	-2.101354	0.430139	-0.455491	0.010044	0.890184	-0.210336	0.970412	-0.118574	-0.865036	-0.241247	-0.439901
39886	15.665004	-3.909549	-0.711025	0.952853	-2.160433	0.403673	-0.474894	0.008609	0.880001	-0.216647	0.968035	-0.126384	-0.852959	-0.250669	-0.457849
39887	15.523022	-2.361841	1.257176	1.058259	-2.259183	0.453228	-0.494981	0.007174	0.868874	-0.223410	0.965296	-0.135243	-0.839692	-0.261058	-0.476200
39888	15.396956	-2.120744	2.135096	0.894346	-2.392443	0.565963	-0.516162	0.006246	0.856468	-0.228001	0.962889	-0.144431	-0.825586	-0.269826	-0.495583
39889	15.578862	-1.341242	3.346235	0.682478	-2.525647	0.748672	-0.538496	0.006518	0.842603	-0.229646	0.960982	-0.154197	-0.810731	-0.276534	-0.515988
39890	15.546611	0.394650	4.073019	0.180310	-2.656252	0.930134	-0.561935	0.008050	0.827142	-0.225984	0.960419	-0.162873	-0.795714	-0.278445	-0.537874
39891	14.963486	-0.673540	1.980801	-0.278429	-2.731807	1.045427	-0.585730	0.010493	0.810438	-0.217802	0.961099	-0.169856	-0.780694	-0.276005	-0.560659
39892	14.283638	-0.561813	-0.451052	-0.441502	-2.787583	1.048105	-0.609491	0.012900	0.792688	-0.208136	0.962191	-0.175692	-0.764984	-0.272069	-0.583762
39893	13.654756	0.103143	-2.881877	-0.972282	-2.725526	1.024259	-0.632133	0.015449	0.774706	-0.194427	0.964653	-0.177883	-0.750070	-0.263070	-0.606786
39894	12.043867	0.341524	-5.679220	-1.329383	-2.615667	0.914484	-0.653258	0.017534	0.756932	-0.178685	0.967922	-0.176632	-0.735748	-0.250639	-0.629170
39895	10.615318	0.537184	-7.080744	-1.628718	-2.536891	0.756925	-0.672966	0.018684	0.739438	-0.161814	0.971748	-0.171821	-0.721757	-0.235281	-0.650930
39896	9.341833	-1.824222	-9.305906	-1.553159	-2.505857	0.557934	-0.691717	0.018369	0.721935	-0.146924	0.975189	-0.165587	-0.707065	-0.220608	-0.671856
39897	8.540509	-1.156090	-8.557947	-1.033063	-2.341192	0.344352	-0.708520	0.016650	0.705494	-0.137304	0.977364	-0.160959	-0.692204	-0.210910	-0.690196
39898	7.149231	-2.446262	-10.031635	-1.309412	-2.094503	0.169091	-0.723091	0.013983	0.690611	-0.127132	0.980022	-0.152955	-0.678952	-0.198399	-0.706867
39899	7.229597	-6.149363	-11.523110	-0.727500	-1.711424	0.020442	-0.734576	0.010818	0.678440	-0.122105	0.981442	-0.147858	-0.667449	-0.191454	-0.719623
