// General information: 
//  MT Manager version: 2022.2.0 
//  XDA version: 2022.2.0 build 7381 rev 124627 built on 2023-07-19
// Device information: 
//  DeviceId: 00B4CB9F
//  ProductCode: MTW2-3A7G6
//  Firmware Version: 4.6.0
//  Hardware Version: 2.0.0
// Device settings: 
//  Filter Profile: human(46.1)
//  Option Flags: Orientation Smoother Disabled, Position/Velocity Smoother Disabled, Continuous Zero Rotation Update Disabled, AHS Disabled, ICC Disabled
// Coordinate system: ENU
PacketCounter	Acc_X	Acc_Y	Acc_Z	Gyr_X	Gyr_Y	Gyr_Z	Mat[1][1]	Mat[2][1]	Mat[3][1]	Mat[1][2]	Mat[2][2]	Mat[3][2]	Mat[1][3]	Mat[2][3]	Mat[3][3]
09267	9.710214	-0.600502	-1.203877	-0.005043	-0.021835	-0.046417	-0.106158	-0.048816	0.993150	-0.680648	0.731687	-0.036790	-0.724879	-0.679891	-0.110901
09268	9.706589	-0.584998	-1.227401	-0.003112	-0.018712	-0.047141	-0.105997	-0.049306	0.993143	-0.680667	0.731692	-0.036321	-0.724884	-0.679850	-0.111118
09269	9.681101	-0.612660	-1.186273	-0.001135	-0.025191	-0.051111	-0.105913	-0.049949	0.993120	-0.680930	0.731471	-0.035829	-0.724649	-0.680040	-0.111484
09270	9.674942	-0.645687	-1.234597	0.017281	-0.027202	-0.051787	-0.105781	-0.050531	0.993105	-0.681102	0.731335	-0.035337	-0.724507	-0.680144	-0.111778
09271	9.698433	-0.601215	-1.221370	0.020314	-0.033516	-0.052431	-0.105717	-0.051292	0.993073	-0.681645	0.730855	-0.034816	-0.724006	-0.680603	-0.112226
09272	9.733569	-0.536968	-1.200748	0.018695	-0.039369	-0.050045	-0.105684	-0.051944	0.993042	-0.681825	0.730709	-0.034342	-0.723841	-0.680711	-0.112641
09273	9.739526	-0.494281	-1.158619	0.014613	-0.038077	-0.051484	-0.105702	-0.052752	0.992998	-0.682292	0.730297	-0.033832	-0.723398	-0.681090	-0.113186
09274	9.743680	-0.444037	-1.056734	0.001200	-0.029592	-0.054645	-0.105567	-0.053371	0.992979	-0.682351	0.730266	-0.033292	-0.723362	-0.681075	-0.113510
09275	9.783949	-0.449777	-1.016521	-0.003569	-0.022939	-0.053679	-0.105506	-0.054028	0.992950	-0.682562	0.730092	-0.032800	-0.723172	-0.681210	-0.113907
09276	9.766659	-0.446039	-0.988794	-0.011898	-0.018994	-0.057383	-0.105276	-0.054595	0.992943	-0.682529	0.730148	-0.032218	-0.723237	-0.681104	-0.114130
09277	9.766358	-0.492831	-0.933660	-0.013008	-0.009563	-0.057463	-0.105099	-0.055167	0.992930	-0.682692	0.730018	-0.031702	-0.723108	-0.681198	-0.114386
09278	9.730004	-0.487162	-0.955565	-0.002423	-0.003417	-0.055306	-0.104771	-0.055613	0.992940	-0.682726	0.730010	-0.031152	-0.723124	-0.681170	-0.114452
09279	9.706846	-0.521363	-0.972043	0.005444	-0.006699	-0.059394	-0.104662	-0.056205	0.992918	-0.682959	0.729812	-0.030678	-0.722920	-0.681334	-0.114769
09280	9.730053	-0.531883	-1.040072	0.012924	-0.002495	-0.060660	-0.104291	-0.056684	0.992930	-0.683109	0.729696	-0.030093	-0.722832	-0.681418	-0.114822
09281	9.728069	-0.575146	-1.064828	0.026233	-0.009607	-0.058331	-0.104098	-0.057186	0.992922	-0.683357	0.729483	-0.029629	-0.722625	-0.681604	-0.115016
09282	9.718460	-0.597205	-1.132932	0.031839	-0.009961	-0.052322	-0.103838	-0.057655	0.992922	-0.683634	0.729243	-0.029149	-0.722400	-0.681822	-0.115138
09283	9.701012	-0.650587	-1.187319	0.045768	-0.007978	-0.050395	-0.103611	-0.058129	0.992918	-0.684278	0.728655	-0.028746	-0.721823	-0.682410	-0.115273
09284	9.770567	-0.635424	-1.166936	0.053839	-0.009200	-0.048347	-0.103372	-0.058563	0.992917	-0.684709	0.728265	-0.028331	-0.721448	-0.682788	-0.115381
09285	9.751645	-0.577091	-1.275161	0.064083	-0.008579	-0.051918	-0.103145	-0.059067	0.992911	-0.685418	0.727614	-0.027917	-0.720807	-0.683439	-0.115536
09286	9.744148	-0.551079	-1.318917	0.062910	-0.012251	-0.054823	-0.102883	-0.059569	0.992908	-0.685921	0.727158	-0.027448	-0.720366	-0.683881	-0.115672
09287	9.759789	-0.484757	-1.347415	0.062299	-0.019935	-0.060954	-0.102744	-0.060233	0.992882	-0.686617	0.726518	-0.026978	-0.719722	-0.684502	-0.116002
09288	9.733043	-0.399622	-1.359960	0.058900	-0.022621	-0.071331	-0.102443	-0.060925	0.992871	-0.687108	0.726078	-0.026341	-0.719297	-0.684908	-0.116244
09289	9.732960	-0.340973	-1.419068	0.056994	-0.029197	-0.075891	-0.102294	-0.061801	0.992833	-0.687794	0.725451	-0.025708	-0.718662	-0.685494	-0.116716
09290	9.680919	-0.286958	-1.389343	0.044380	-0.035773	-0.084665	-0.101995	-0.062681	0.992808	-0.688193	0.725100	-0.024922	-0.718323	-0.685785	-0.117093
09291	9.680618	-0.279370	-1.392985	0.034894	-0.041795	-0.083472	-0.101826	-0.063695	0.992761	-0.688809	0.724540	-0.024164	-0.717756	-0.686283	-0.117651
09292	9.653238	-0.300566	-1.434406	0.024187	-0.045251	-0.092977	-0.101536	-0.064699	0.992726	-0.689071	0.724320	-0.023272	-0.717546	-0.686421	-0.118127
09293	9.666384	-0.331436	-1.433613	0.017184	-0.052162	-0.095737	-0.101400	-0.065799	0.992667	-0.689284	0.724144	-0.022410	-0.717360	-0.686502	-0.118782
09294	9.689086	-0.391414	-1.449951	0.025627	-0.065749	-0.089524	-0.101281	-0.066919	0.992605	-0.689552	0.723915	-0.021555	-0.717119	-0.686636	-0.119463
09295	9.679667	-0.458657	-1.326775	0.024098	-0.076455	-0.085860	-0.101281	-0.068189	0.992518	-0.690214	0.723308	-0.020739	-0.716483	-0.687150	-0.120322
09296	9.746710	-0.431662	-1.254327	0.020218	-0.077963	-0.079907	-0.101314	-0.069323	0.992436	-0.690433	0.723120	-0.019973	-0.716266	-0.687235	-0.121125
09297	9.735447	-0.440021	-1.129267	0.016755	-0.073856	-0.073965	-0.101408	-0.070462	0.992346	-0.690860	0.722731	-0.019281	-0.715841	-0.687528	-0.121971
09298	9.816528	-0.452935	-1.050796	0.017455	-0.064735	-0.080111	-0.101345	-0.071507	0.992278	-0.691061	0.722560	-0.018510	-0.715657	-0.687600	-0.122643
09299	9.730076	-0.402513	-0.963646	0.024920	-0.052219	-0.077375	-0.101309	-0.072637	0.992200	-0.691791	0.721879	-0.017788	-0.714956	-0.688196	-0.123383
09300	9.677542	-0.405106	-1.019555	0.033647	-0.065707	-0.082601	-0.101234	-0.073707	0.992128	-0.692109	0.721592	-0.017013	-0.714658	-0.688384	-0.124063
09301	9.820102	-0.383976	-0.962908	0.055867	-0.051608	-0.087361	-0.101149	-0.074797	0.992056	-0.692814	0.720933	-0.016283	-0.713987	-0.688957	-0.124741
09302	9.784650	-0.384365	-1.047850	0.074521	-0.049987	-0.088540	-0.100919	-0.075801	0.992003	-0.693430	0.720357	-0.015500	-0.713422	-0.689449	-0.125260
09303	9.777263	-0.407491	-1.038051	0.093149	-0.040073	-0.085694	-0.100664	-0.076865	0.991947	-0.694594	0.719251	-0.014755	-0.712324	-0.690485	-0.125793
09304	9.806793	-0.430301	-1.006180	0.099448	-0.027779	-0.080585	-0.100329	-0.077658	0.991919	-0.695378	0.718506	-0.014083	-0.711606	-0.691172	-0.126089
09305	9.815322	-0.444928	-0.964358	0.101449	-0.009418	-0.072459	-0.100077	-0.078333	0.991891	-0.696221	0.717699	-0.013566	-0.710817	-0.691933	-0.126362
09306	9.835386	-0.440081	-0.913156	0.108891	0.006582	-0.064480	-0.099608	-0.078772	0.991904	-0.697054	0.716899	-0.013066	-0.710066	-0.692712	-0.126318
09307	9.834517	-0.383300	-0.968627	0.106353	0.020585	-0.057771	-0.099069	-0.079189	0.991925	-0.698341	0.715654	-0.012614	-0.708875	-0.693952	-0.126200
09308	9.734766	-0.309603	-1.078314	0.124123	0.025491	-0.062709	-0.098478	-0.079483	0.991960	-0.699278	0.714746	-0.012151	-0.708034	-0.694853	-0.125968
09309	9.668986	-0.232434	-1.248313	0.134523	0.017820	-0.070317	-0.097948	-0.080036	0.991968	-0.700803	0.713260	-0.011649	-0.706599	-0.696315	-0.125951
09310	9.627035	-0.065092	-1.381279	0.131648	-0.000850	-0.081691	-0.097408	-0.080647	0.991972	-0.701808	0.712281	-0.011007	-0.705675	-0.697246	-0.125981
09311	9.658163	0.047271	-1.557379	0.124280	-0.021776	-0.082615	-0.096988	-0.081580	0.991936	-0.703460	0.710660	-0.010335	-0.704086	-0.698790	-0.126314
09312	9.595425	0.071612	-1.594577	0.106103	-0.037980	-0.088987	-0.096657	-0.082501	0.991893	-0.704289	0.709849	-0.009589	-0.703303	-0.699506	-0.126716
09313	9.702127	0.084312	-1.617243	0.079816	-0.050917	-0.085551	-0.096494	-0.083622	0.991815	-0.705367	0.708787	-0.008866	-0.702244	-0.700449	-0.127378
09314	9.772447	-0.047663	-1.509844	0.054916	-0.044865	-0.081872	-0.096259	-0.084541	0.991760	-0.705828	0.708336	-0.008126	-0.701812	-0.700794	-0.127855
09315	9.797661	-0.102404	-1.383424	0.034511	-0.034427	-0.076815	-0.095995	-0.085458	0.991707	-0.706623	0.707551	-0.007428	-0.701048	-0.701476	-0.128308
09316	9.811982	-0.177785	-1.263258	0.024519	-0.021166	-0.069274	-0.095681	-0.086120	0.991680	-0.706859	0.707322	-0.006775	-0.700854	-0.701625	-0.128552
09317	9.799350	-0.182952	-1.212583	0.024271	-0.001860	-0.074440	-0.095231	-0.086830	0.991661	-0.707488	0.706699	-0.006062	-0.700280	-0.702166	-0.128731
09318	9.674020	-0.233559	-1.186816	0.036391	0.008952	-0.068310	-0.094712	-0.087274	0.991672	-0.707805	0.706387	-0.005433	-0.700029	-0.702425	-0.128677
09319	9.711010	-0.225834	-1.165518	0.046415	-0.000826	-0.070578	-0.094312	-0.087933	0.991652	-0.708670	0.705523	-0.004838	-0.699208	-0.703210	-0.128855
09320	9.823338	-0.266153	-1.045379	0.055905	-0.003066	-0.070112	-0.093864	-0.088474	0.991646	-0.709125	0.705071	-0.004216	-0.698807	-0.703596	-0.128920
09321	9.922732	-0.275517	-0.989950	0.071106	0.007620	-0.072423	-0.093489	-0.089015	0.991633	-0.709793	0.704401	-0.003686	-0.698179	-0.704198	-0.129036
09322	9.826356	-0.197058	-0.880135	0.089485	0.023830	-0.071810	-0.092841	-0.089378	0.991661	-0.710482	0.703709	-0.003091	-0.697564	-0.704844	-0.128834
09323	9.708692	-0.125653	-0.960152	0.112553	0.032595	-0.079046	-0.092123	-0.089908	0.991680	-0.712010	0.702165	-0.002483	-0.696100	-0.706315	-0.128700
09324	9.640280	-0.041091	-1.071748	0.143734	0.015342	-0.078975	-0.091482	-0.090379	0.991697	-0.713081	0.701079	-0.001887	-0.695088	-0.707333	-0.128583
09325	9.568721	0.043593	-1.266223	0.168046	-0.003228	-0.070198	-0.091122	-0.091078	0.991666	-0.714786	0.699342	-0.001450	-0.693382	-0.708961	-0.128827
09326	9.504669	0.056820	-1.442156	0.183471	-0.027129	-0.064586	-0.090877	-0.091748	0.991627	-0.716114	0.697982	-0.001049	-0.692042	-0.710213	-0.129132
09327	9.432194	0.138364	-1.641421	0.191124	-0.052633	-0.059284	-0.090938	-0.092756	0.991527	-0.717968	0.696076	-0.000731	-0.690111	-0.711951	-0.129896
09328	9.634726	0.133368	-1.692287	0.177089	-0.079739	-0.050023	-0.091157	-0.093699	0.991419	-0.719233	0.694768	-0.000468	-0.688763	-0.713104	-0.130724
09329	9.683849	0.139165	-1.791055	0.157017	-0.092171	-0.044971	-0.091495	-0.094842	0.991279	-0.720899	0.693041	-0.000231	-0.686975	-0.714633	-0.131781
09330	9.770341	0.106099	-1.752982	0.117864	-0.107188	-0.045612	-0.091930	-0.095951	0.991132	-0.721749	0.692155	0.000063	-0.686023	-0.715343	-0.132883
09331	10.272304	0.067508	-1.503757	0.077943	-0.106267	-0.039647	-0.092554	-0.097004	0.990971	-0.722317	0.691562	0.000233	-0.685341	-0.715774	-0.134075
09332	10.291894	0.089600	-1.262492	0.033961	-0.058203	-0.031985	-0.092751	-0.097669	0.990888	-0.722579	0.691288	0.000502	-0.685038	-0.715948	-0.134691
09333	10.048113	0.175848	-1.042595	-0.034593	-0.022243	-0.033307	-0.092706	-0.098197	0.990840	-0.722826	0.691030	0.000855	-0.684784	-0.716125	-0.135041
09334	9.913995	0.309837	-0.874904	-0.073391	0.007274	-0.035629	-0.092427	-0.098418	0.990844	-0.722356	0.691520	0.001305	-0.685317	-0.715621	-0.135008
09335	9.618234	0.415606	-0.874652	-0.105715	0.032488	-0.040834	-0.092049	-0.098644	0.990856	-0.722079	0.691809	0.001792	-0.685660	-0.715311	-0.134909
09336	9.506289	0.314754	-0.978354	-0.122054	0.022815	-0.042578	-0.091615	-0.098803	0.990881	-0.721281	0.692639	0.002376	-0.686557	-0.714486	-0.134721
09337	9.587546	0.237192	-1.113643	-0.132588	-0.002391	-0.047035	-0.091357	-0.099260	0.990859	-0.720794	0.693143	0.002979	-0.687103	-0.713933	-0.134869
09338	9.703470	0.154705	-1.370471	-0.147718	-0.018903	-0.055959	-0.091113	-0.099811	0.990826	-0.719830	0.694140	0.003731	-0.688145	-0.712886	-0.135092
09339	9.666210	0.052386	-1.497135	-0.160659	-0.018346	-0.067560	-0.090884	-0.100512	0.990776	-0.718976	0.695020	0.004556	-0.689067	-0.711930	-0.135433
09340	9.706415	0.036539	-1.656035	-0.162556	-0.028512	-0.065828	-0.090638	-0.101201	0.990729	-0.717916	0.696109	0.005427	-0.690204	-0.710768	-0.135748
09341	9.734813	0.058963	-1.741157	-0.146337	-0.036335	-0.067438	-0.090432	-0.102004	0.990665	-0.717353	0.696682	0.006251	-0.690816	-0.710091	-0.136176
09342	9.718006	0.007529	-1.796631	-0.114464	-0.038683	-0.062339	-0.090283	-0.102741	0.990602	-0.716619	0.697430	0.007022	-0.691597	-0.709251	-0.136592
09343	9.582398	-0.014672	-1.758370	-0.081810	-0.038107	-0.061345	-0.090212	-0.103465	0.990534	-0.716181	0.697872	0.007669	-0.692059	-0.708710	-0.137056
09344	9.453679	0.041874	-1.711714	-0.056720	-0.043098	-0.046715	-0.090206	-0.104124	0.990465	-0.715832	0.698224	0.008207	-0.692421	-0.708266	-0.137520
09345	9.450468	0.063760	-1.598257	-0.047578	-0.060480	-0.032185	-0.090477	-0.104863	0.990362	-0.715707	0.698348	0.008559	-0.692515	-0.708035	-0.138236
09346	9.458071	0.212507	-1.373378	-0.052554	-0.066997	-0.022501	-0.090810	-0.105522	0.990262	-0.715365	0.698695	0.008852	-0.692825	-0.707595	-0.138936
09347	9.455418	0.390458	-1.132992	-0.084308	-0.070443	-0.038897	-0.091037	-0.106339	0.990154	-0.715074	0.698987	0.009324	-0.693096	-0.707184	-0.139674
09348	9.540851	0.677848	-0.914716	-0.142643	-0.041564	-0.080108	-0.090783	-0.107221	0.990082	-0.714159	0.699908	0.010314	-0.694072	-0.706139	-0.140113
09349	10.002523	0.614295	-0.665524	-0.262989	-0.007600	-0.096154	-0.090255	-0.107965	0.990049	-0.712381	0.701697	0.011578	-0.695965	-0.704248	-0.140244
09350	10.741449	0.294373	-1.144672	-0.313660	0.068783	-0.121996	-0.088939	-0.108367	0.990125	-0.710306	0.703769	0.013222	-0.698252	-0.702115	-0.139566
09351	9.448605	-0.451988	-1.053443	-0.460983	0.153727	-0.188181	-0.086614	-0.108657	0.990299	-0.707296	0.706743	0.015683	-0.701591	-0.699076	-0.138066
09352	9.603155	-1.362242	-0.617763	-0.566057	0.108445	-0.218798	-0.084338	-0.109479	0.990405	-0.703502	0.710449	0.018625	-0.705671	-0.695181	-0.136936
09353	9.829555	-2.260679	-0.172767	-0.602132	0.156724	-0.207468	-0.081812	-0.109900	0.990570	-0.699546	0.714265	0.021469	-0.709889	-0.691193	-0.135316
09354	8.758869	-2.400323	-0.487486	-0.729336	0.238012	-0.180852	-0.078887	-0.109584	0.990842	-0.694497	0.719088	0.024236	-0.715158	-0.686225	-0.132832
09355	7.856690	-1.816056	-0.422256	-0.788554	0.189251	-0.221507	-0.076038	-0.109850	0.991035	-0.688973	0.724268	0.027419	-0.720787	-0.680712	-0.130755
09356	8.967623	-1.038721	0.574417	-0.799686	0.348274	-0.363075	-0.071058	-0.110154	0.991371	-0.683455	0.729289	0.032046	-0.726526	-0.675281	-0.127107
09357	8.907418	-0.723270	-0.357802	-0.723847	0.446177	-0.415582	-0.065050	-0.110136	0.991786	-0.678362	0.733796	0.036994	-0.731842	-0.670383	-0.122445
09358	9.774418	-0.222655	-2.233739	-0.494313	0.384316	-0.410745	-0.059483	-0.110612	0.992082	-0.674994	0.736646	0.041661	-0.735422	-0.667171	-0.118480
09359	10.244427	0.051267	-3.953268	-0.174577	0.275459	-0.369962	-0.055017	-0.111463	0.992244	-0.673889	0.737431	0.045474	-0.736781	-0.666161	-0.115685
09360	11.183163	-0.109221	-4.684957	0.137293	0.139280	-0.303624	-0.051976	-0.112797	0.992258	-0.675065	0.736174	0.048326	-0.735925	-0.667327	-0.114409
09361	10.355789	-0.251213	-4.781499	0.409250	0.000168	-0.227329	-0.050539	-0.114392	0.992149	-0.677969	0.733387	0.050022	-0.733351	-0.670118	-0.114619
09362	9.244757	0.274147	-4.134894	0.527660	-0.162598	-0.168693	-0.050614	-0.116744	0.991871	-0.681916	0.729644	0.051082	-0.729677	-0.673788	-0.116540
09363	9.373564	1.218517	-3.186877	0.526060	-0.228504	-0.122605	-0.051520	-0.119116	0.991543	-0.685568	0.726176	0.051616	-0.726183	-0.677111	-0.119075
09364	9.135387	2.067212	-2.194123	0.380262	-0.195989	-0.085669	-0.052384	-0.121093	0.991258	-0.688371	0.723492	0.052005	-0.723465	-0.679629	-0.121256
09365	9.048890	2.400327	-1.220422	0.111407	-0.175880	-0.084366	-0.053163	-0.122863	0.990999	-0.689043	0.722805	0.052648	-0.722768	-0.680042	-0.123084
09366	9.932001	2.580449	-0.646538	-0.225102	-0.162237	-0.102572	-0.053663	-0.124733	0.990738	-0.687471	0.724206	0.053940	-0.724226	-0.678209	-0.124613
09367	10.392747	1.952080	-0.330744	-0.589905	-0.138010	-0.145452	-0.053742	-0.126708	0.990483	-0.683160	0.728113	0.056077	-0.728289	-0.673645	-0.125692
09368	10.681398	0.770500	-0.210060	-0.814409	-0.093384	-0.220219	-0.052959	-0.128969	0.990234	-0.677326	0.733291	0.059280	-0.733775	-0.667571	-0.126188
09369	10.629497	-0.735776	-0.225749	-0.855716	-0.014961	-0.278519	-0.051278	-0.131102	0.990042	-0.671056	0.738719	0.063065	-0.739631	-0.661140	-0.125857
09370	10.221841	-2.181717	-0.254782	-0.703019	0.056540	-0.277199	-0.049039	-0.132808	0.989928	-0.665981	0.742982	0.066687	-0.744355	-0.656003	-0.124882
09371	9.850065	-3.175316	-0.703092	-0.370578	0.084239	-0.244781	-0.046832	-0.134071	0.989865	-0.663277	0.745136	0.069543	-0.746907	-0.653298	-0.123822
09372	9.760887	-3.224045	-1.229762	0.061855	0.055290	-0.187988	-0.045204	-0.135134	0.989796	-0.663827	0.744477	0.071324	-0.746518	-0.653829	-0.123359
09373	9.563621	-2.147177	-1.838192	0.524029	0.019476	-0.177191	-0.043982	-0.136283	0.989693	-0.667811	0.740808	0.072334	-0.743031	-0.657746	-0.123594
09374	9.440240	-0.584418	-2.288884	0.821419	-0.050020	-0.184388	-0.043148	-0.137999	0.989492	-0.673974	0.735126	0.073135	-0.737494	-0.663736	-0.124727
09375	9.576041	1.090775	-2.117827	0.925311	-0.097856	-0.195800	-0.042663	-0.140044	0.989226	-0.680872	0.728676	0.073794	-0.731159	-0.670387	-0.126440
09376	8.876285	2.294271	-2.196872	0.861247	-0.137636	-0.212067	-0.042247	-0.142535	0.988888	-0.687235	0.722575	0.074790	-0.725205	-0.676439	-0.128482
09377	9.306315	2.848167	-1.609515	0.690723	-0.212298	-0.196697	-0.042544	-0.145357	0.988464	-0.692331	0.717595	0.075726	-0.720325	-0.681123	-0.131165
09378	9.512296	2.907455	-1.000169	0.447805	-0.170813	-0.157757	-0.042709	-0.147678	0.988113	-0.695619	0.714306	0.076689	-0.717140	-0.684075	-0.133235
09379	9.326161	2.671177	-0.462939	0.175266	-0.187302	-0.128828	-0.043281	-0.149852	0.987761	-0.697008	0.712852	0.077605	-0.715756	-0.685118	-0.135301
09380	9.888629	2.476497	0.281078	-0.079235	-0.171925	-0.116285	-0.043734	-0.151884	0.987430	-0.696494	0.713217	0.078857	-0.716229	-0.684290	-0.136978
09381	9.998314	1.960951	0.401920	-0.288740	-0.120146	-0.106348	-0.043939	-0.153456	0.987178	-0.694608	0.714902	0.080214	-0.718045	-0.682178	-0.138004
09382	10.141057	1.249399	0.478073	-0.404849	-0.091927	-0.103387	-0.043916	-0.154847	0.986962	-0.691744	0.717496	0.081790	-0.720806	-0.679133	-0.138624
09383	10.281622	0.757251	0.720971	-0.393163	-0.046477	-0.093191	-0.043699	-0.155806	0.986821	-0.689004	0.719971	0.083163	-0.723439	-0.676289	-0.138813
09384	10.036070	0.637018	0.746351	-0.295662	-0.015251	-0.088428	-0.043234	-0.156572	0.986720	-0.686903	0.721827	0.084441	-0.725462	-0.674130	-0.138757
09385	9.884951	0.726665	0.855937	-0.123064	0.013937	-0.093978	-0.042534	-0.157147	0.986659	-0.686212	0.722363	0.085470	-0.726157	-0.673422	-0.138561
09386	9.325120	0.843094	0.070716	0.072337	0.007162	-0.108744	-0.041769	-0.157909	0.986570	-0.686786	0.721702	0.086438	-0.725658	-0.673952	-0.138594
09387	9.142972	1.011028	-0.565086	0.243073	-0.075314	-0.088214	-0.041799	-0.159012	0.986391	-0.688702	0.719823	0.086856	-0.723838	-0.675700	-0.139600
09388	9.024498	1.405772	-1.081480	0.331116	-0.157678	-0.057612	-0.042574	-0.160518	0.986114	-0.691123	0.717488	0.086954	-0.721482	-0.677824	-0.141484
09389	9.555011	1.836632	-1.445133	0.329057	-0.207283	-0.004224	-0.044114	-0.161916	0.985818	-0.693566	0.715190	0.086431	-0.719042	-0.679917	-0.143850
09390	9.749783	2.105767	-1.385456	0.269015	-0.214302	0.047224	-0.046014	-0.163063	0.985542	-0.695479	0.713433	0.085570	-0.717071	-0.681487	-0.146235
09391	9.637156	2.106893	-1.153332	0.162452	-0.213885	0.060261	-0.048084	-0.164032	0.985282	-0.696738	0.712321	0.084587	-0.715713	-0.682416	-0.148538
09392	9.604955	2.020996	-0.928405	0.045640	-0.236572	0.052117	-0.050173	-0.165300	0.984966	-0.697043	0.712093	0.083999	-0.715272	-0.682349	-0.150949
09393	9.801817	1.915909	-0.464837	-0.061413	-0.218774	0.037289	-0.052080	-0.166491	0.984667	-0.696761	0.712414	0.083605	-0.715410	-0.681723	-0.153107
09394	9.806402	1.677428	-0.237159	-0.129552	-0.196485	0.027235	-0.053709	-0.167660	0.984381	-0.695823	0.713339	0.083531	-0.716202	-0.680469	-0.154974
09395	9.650223	1.393390	-0.295845	-0.155795	-0.198484	0.026734	-0.055409	-0.168771	0.984097	-0.694868	0.714288	0.083375	-0.717000	-0.679197	-0.156851
09396	9.454411	1.263369	-0.491688	-0.144448	-0.199827	0.039341	-0.057149	-0.169870	0.983808	-0.693814	0.715331	0.083210	-0.717884	-0.677824	-0.158739
09397	9.232524	1.222833	-1.200063	-0.112288	-0.243728	0.047432	-0.059286	-0.171151	0.983459	-0.693102	0.716065	0.082834	-0.718398	-0.676727	-0.161078
09398	9.156293	1.387644	-1.964424	-0.040105	-0.320951	0.071149	-0.062118	-0.172836	0.982990	-0.692775	0.716454	0.082193	-0.718473	-0.675885	-0.164242
09399	8.989347	1.673956	-2.508726	0.036088	-0.400155	0.094836	-0.065683	-0.174851	0.982402	-0.693052	0.716305	0.081152	-0.717889	-0.675525	-0.168230
09400	9.045873	1.902116	-2.815031	0.077297	-0.485238	0.100653	-0.069896	-0.177431	0.981648	-0.693543	0.715956	0.080026	-0.717016	-0.675222	-0.173099
09401	8.867896	1.933268	-3.076420	0.048077	-0.554211	0.101896	-0.074605	-0.180443	0.980752	-0.693848	0.715785	0.078913	-0.716247	-0.674605	-0.178601
09402	9.128278	1.866462	-2.786296	-0.014203	-0.615631	0.123355	-0.079902	-0.183734	0.979723	-0.693656	0.716101	0.077723	-0.715861	-0.673380	-0.184666
09403	9.488767	1.589821	-2.211529	-0.094701	-0.633073	0.157585	-0.085558	-0.186872	0.978652	-0.692871	0.717009	0.076338	-0.715967	-0.671548	-0.190824
09404	10.082302	1.183965	-1.431415	-0.206624	-0.574982	0.180672	-0.090961	-0.189453	0.977667	-0.691236	0.718730	0.074964	-0.716881	-0.668980	-0.196333
09405	10.196048	0.644893	-0.591867	-0.317744	-0.490981	0.194573	-0.095857	-0.191342	0.976832	-0.688794	0.721204	0.073678	-0.718592	-0.665773	-0.200927
09406	10.638574	0.135015	0.197476	-0.360091	-0.388284	0.188177	-0.099978	-0.192584	0.976174	-0.686023	0.723953	0.072564	-0.720678	-0.662423	-0.204497
09407	10.528598	-0.301516	0.666335	-0.316913	-0.287226	0.155858	-0.103144	-0.193359	0.975691	-0.683605	0.726324	0.071674	-0.722527	-0.659595	-0.207097
09408	10.403753	-0.326600	0.675603	-0.193334	-0.214208	0.129161	-0.105608	-0.193855	0.975329	-0.682078	0.727844	0.070810	-0.723614	-0.657772	-0.209090
09409	10.390301	-0.318704	0.383387	-0.053500	-0.171829	0.118797	-0.107682	-0.194115	0.975051	-0.681607	0.728388	0.069734	-0.723752	-0.657092	-0.210744
09410	10.226320	-0.242632	0.035805	0.109404	-0.156644	0.139059	-0.109797	-0.194155	0.974807	-0.682252	0.727935	0.068140	-0.722826	-0.657582	-0.212388
09411	9.985859	0.191791	-0.409534	0.255241	-0.155690	0.187054	-0.112214	-0.193806	0.974601	-0.683943	0.726568	0.065735	-0.720853	-0.659195	-0.214084
09412	9.900184	0.509556	-0.534291	0.342605	-0.173133	0.256506	-0.115251	-0.193111	0.974385	-0.686122	0.724798	0.062491	-0.718300	-0.661344	-0.216031
09413	9.904933	0.536290	-0.639579	0.388377	-0.178605	0.324287	-0.118772	-0.191929	0.974195	-0.688590	0.722792	0.058448	-0.715358	-0.663879	-0.218008
09414	9.820398	0.356326	-0.619752	0.433539	-0.172862	0.371748	-0.122604	-0.190420	0.974017	-0.691240	0.720614	0.053870	-0.712148	-0.666675	-0.219976
09415	9.971966	-0.082425	-0.464548	0.485217	-0.175541	0.397908	-0.126617	-0.188709	0.973836	-0.694259	0.718063	0.048879	-0.708500	-0.669906	-0.221932
09416	10.149504	-0.278475	-0.474053	0.543541	-0.149047	0.413966	-0.130584	-0.186768	0.973687	-0.697572	0.715185	0.043630	-0.704515	-0.673519	-0.223676
09417	9.988620	-0.413594	-0.565626	0.611014	-0.112700	0.405053	-0.134215	-0.184613	0.973604	-0.701404	0.711736	0.038267	-0.700014	-0.677753	-0.225014
09418	9.739864	-0.152088	-0.314043	0.647679	-0.114591	0.384260	-0.137750	-0.182688	0.973473	-0.705405	0.708034	0.033056	-0.695291	-0.682139	-0.226401
09419	9.991859	0.423656	0.122014	0.586130	-0.158618	0.329940	-0.141186	-0.181411	0.973220	-0.709093	0.704541	0.028459	-0.690836	-0.686085	-0.228109
09420	10.545439	0.712240	1.071401	0.482579	-0.172046	0.260141	-0.144253	-0.180789	0.972886	-0.712051	0.701689	0.024815	-0.687149	-0.689165	-0.229952
09421	11.383996	0.487596	3.030907	0.384799	-0.101061	0.215676	-0.146482	-0.179939	0.972710	-0.714469	0.699328	0.021774	-0.684162	-0.691782	-0.230999
09422	12.576627	0.313524	4.998407	0.298072	0.131639	0.211127	-0.147125	-0.177576	0.973047	-0.716200	0.697635	0.019025	-0.682211	-0.694098	-0.229820
09423	13.213543	0.310807	6.274814	0.199878	0.523210	0.238727	-0.145254	-0.172220	0.974290	-0.717328	0.696548	0.016181	-0.681427	-0.696535	-0.224715
09424	12.320506	-0.065678	6.679792	0.189095	0.852021	0.299274	-0.141629	-0.164215	0.976204	-0.718192	0.695727	0.012838	-0.681279	-0.699284	-0.216473
09425	12.353412	-0.977213	6.603849	0.363848	1.104759	0.393317	-0.136909	-0.153653	0.978594	-0.720265	0.693652	0.008145	-0.680055	-0.703732	-0.205638
09426	12.863318	-2.177950	5.600369	0.663196	1.280868	0.551317	-0.132231	-0.140809	0.981167	-0.724028	0.689769	0.001413	-0.676977	-0.710205	-0.193159
09427	12.991586	-2.746914	4.141260	0.876266	1.401316	0.756720	-0.128239	-0.125491	0.983772	-0.729135	0.684326	-0.007753	-0.672248	-0.718297	-0.179257
09428	13.440827	-2.530603	3.317531	0.945972	1.509193	0.950562	-0.125118	-0.108136	0.986231	-0.734272	0.678596	-0.018749	-0.667225	-0.726508	-0.164306
09429	13.084703	-1.963583	3.199523	0.890151	1.650048	1.103983	-0.122246	-0.088488	0.988547	-0.739037	0.672944	-0.031154	-0.662480	-0.734382	-0.147661
09430	13.030259	-1.284334	4.262101	0.728372	1.770150	1.217672	-0.119599	-0.067290	0.990539	-0.742385	0.668513	-0.044223	-0.659213	-0.740650	-0.129909
09431	11.841022	-0.736244	5.090530	0.515033	2.004017	1.278221	-0.115880	-0.043718	0.992301	-0.744507	0.665121	-0.057640	-0.657480	-0.745454	-0.109623
09432	12.076891	-0.113171	6.329309	0.195266	2.236998	1.324302	-0.111050	-0.018243	0.993647	-0.744296	0.664066	-0.070990	-0.658552	-0.747451	-0.087323
09433	10.120273	-0.279394	7.333225	-0.317416	2.331494	1.345562	-0.105612	0.008293	0.994373	-0.741005	0.666192	-0.084258	-0.663142	-0.745734	-0.064213
09434	9.915256	-0.728825	7.750857	-1.003400	2.421180	1.350976	-0.099424	0.035286	0.994419	-0.732923	0.673336	-0.097172	-0.673007	-0.738494	-0.041084
09435	8.318063	-0.823492	4.490808	-1.602575	2.149820	1.256123	-0.093939	0.059773	0.993782	-0.721109	0.684144	-0.109313	-0.686424	-0.726894	-0.021165
09436	10.404212	-0.893085	0.570145	-1.928013	1.928019	1.082378	-0.088315	0.081100	0.992786	-0.706746	0.697246	-0.119827	-0.701934	-0.712229	-0.004260
09437	12.606875	-1.832933	-1.118588	-1.731403	1.926574	0.942188	-0.081275	0.101530	0.991507	-0.693987	0.708262	-0.129413	-0.715386	-0.698611	0.012896
09438	14.954232	-3.188385	-2.905797	-1.162384	2.012409	0.760895	-0.072062	0.120878	0.990048	-0.685041	0.715466	-0.137215	-0.724932	-0.688112	0.031248
09439	17.072323	-4.648333	-4.479753	-0.491914	2.105501	0.523891	-0.060366	0.139277	0.988412	-0.681429	0.717824	-0.142767	-0.729390	-0.682151	0.051575
09440	17.116672	-4.768173	-5.756609	0.367266	2.316510	0.306785	-0.045613	0.157247	0.986505	-0.683953	0.714855	-0.145570	-0.728099	-0.681363	0.074943
09441	17.259841	-3.045822	-6.063150	1.030262	2.581769	0.156183	-0.028032	0.176210	0.983953	-0.691665	0.707233	-0.146359	-0.721674	-0.684669	0.102054
09442	15.824612	-1.255783	-5.010209	1.455552	2.835958	0.141234	-0.008718	0.196669	0.980431	-0.702085	0.696956	-0.146048	-0.712040	-0.689619	0.132002
09443	14.126406	0.871336	-3.233706	1.601409	2.867994	0.264620	0.009589	0.218558	0.975777	-0.713662	0.685016	-0.146419	-0.700424	-0.694971	0.162545
09444	11.837805	1.815978	-2.331934	1.540743	2.857739	0.420674	0.026383	0.241311	0.970089	-0.724452	0.673298	-0.147781	-0.688820	-0.698884	0.192582
09445	9.791812	2.281053	-2.582679	1.317951	2.710811	0.473128	0.041384	0.263628	0.963736	-0.733843	0.662609	-0.149744	-0.678057	-0.701034	0.220883
09446	8.679134	1.833893	-2.118059	1.106626	2.495395	0.400856	0.055199	0.283745	0.957310	-0.741500	0.653738	-0.151012	-0.668679	-0.701509	0.246483
09447	9.298853	1.789487	-1.940271	0.913439	2.253858	0.330506	0.067643	0.301854	0.950951	-0.747956	0.646134	-0.151895	-0.660292	-0.700996	0.269480
09448	9.396389	1.755949	-2.084953	0.666370	2.169517	0.257374	0.079934	0.318671	0.944489	-0.752536	0.640658	-0.152470	-0.653682	-0.698574	0.291021
09449	9.066803	1.863640	-1.843669	0.356001	2.105985	0.172393	0.092290	0.334564	0.937843	-0.755152	0.637425	-0.153082	-0.649021	-0.694086	0.311475
09450	8.550563	1.809796	-1.416999	0.008807	2.091034	0.074559	0.105245	0.349458	0.931022	-0.755294	0.637095	-0.153753	-0.646880	-0.687014	0.330994
09451	8.051522	1.403131	-1.148342	-0.334147	2.053237	-0.014936	0.118592	0.363471	0.924026	-0.753234	0.639279	-0.154792	-0.646974	-0.677651	0.349592
09452	7.767897	0.748324	-1.122246	-0.607442	1.977517	-0.048803	0.131742	0.376428	0.917031	-0.749248	0.643528	-0.156521	-0.649054	-0.666463	0.366818
09453	7.514300	0.014165	-1.059828	-0.760585	1.877165	-0.026260	0.144113	0.388732	0.910010	-0.744358	0.648537	-0.159158	-0.652045	-0.654437	0.382818
09454	7.347555	-0.620587	-0.858193	-0.742568	1.753476	0.004390	0.155508	0.400114	0.903176	-0.739524	0.653322	-0.162096	-0.654921	-0.642713	0.397491
09455	7.150541	-1.036848	-0.618507	-0.589780	1.647668	-0.000301	0.166283	0.410673	0.896492	-0.735734	0.656991	-0.164495	-0.656541	-0.632227	0.411392
09456	6.851948	-1.062296	-0.491668	-0.343003	1.559932	-0.048061	0.176845	0.420133	0.890064	-0.733412	0.659330	-0.165500	-0.656378	-0.623516	0.424730
09457	6.441984	-0.696185	-0.277357	-0.078974	1.464973	-0.135859	0.187412	0.428367	0.883956	-0.732713	0.660321	-0.164647	-0.654224	-0.616829	0.437622
09458	6.138594	-0.398576	0.001481	0.129695	1.342555	-0.251145	0.197980	0.434939	0.878426	-0.733088	0.660594	-0.161858	-0.650681	-0.611919	0.449633
09459	5.949442	-0.157917	0.327145	0.262645	1.207296	-0.361771	0.208439	0.439947	0.873499	-0.734108	0.660514	-0.157498	-0.646249	-0.608414	0.460646
09460	5.630230	-0.246344	0.923200	0.326988	1.063953	-0.471788	0.218725	0.443273	0.869292	-0.735219	0.660598	-0.151864	-0.641570	-0.605904	0.470392
09461	5.510871	-0.329989	1.797719	0.414562	0.918925	-0.590519	0.228925	0.444953	0.865800	-0.736587	0.660667	-0.144771	-0.636422	-0.604596	0.478990
09462	5.420646	-0.187731	2.424676	0.556453	0.788326	-0.742002	0.239360	0.444801	0.863052	-0.738388	0.660589	-0.135669	-0.630468	-0.604793	0.486554
09463	4.867970	0.206667	2.572399	0.685301	0.685263	-0.903977	0.250328	0.442993	0.860868	-0.740506	0.660415	-0.124513	-0.623688	-0.606308	0.493359
09464	3.660903	0.860159	2.555801	0.726482	0.509592	-1.063695	0.261346	0.439045	0.859615	-0.742304	0.660677	-0.111758	-0.616995	-0.608888	0.498570
09465	2.742134	1.518278	2.233010	0.654375	0.226884	-1.214833	0.271755	0.432404	0.859753	-0.743113	0.661946	-0.098032	-0.611500	-0.612253	0.501213
09466	2.678056	1.601912	1.585509	0.568800	-0.135082	-1.331976	0.280799	0.422725	0.861659	-0.742913	0.664132	-0.083717	-0.607644	-0.616630	0.500535
09467	3.187473	1.327766	1.544682	0.562899	-0.541662	-1.406595	0.287963	0.410008	0.865431	-0.742344	0.666483	-0.068747	-0.604982	-0.622651	0.496290
09468	4.645073	0.358054	2.970858	0.572489	-0.962146	-1.428478	0.292719	0.394426	0.871059	-0.741669	0.668627	-0.053524	-0.603525	-0.630370	0.488253
09469	6.533251	-0.584860	5.268011	0.593162	-1.233518	-1.410022	0.295742	0.377147	0.877665	-0.741108	0.670292	-0.038308	-0.602740	-0.639116	0.477740
09470	7.268207	-1.088140	6.726415	0.516625	-1.330373	-1.354412	0.297725	0.359480	0.884384	-0.740216	0.671943	-0.023936	-0.602860	-0.647509	0.466147
09471	7.422975	-0.693649	7.391270	0.300794	-1.344877	-1.336174	0.299486	0.341732	0.890802	-0.738062	0.674649	-0.010676	-0.604626	-0.654269	0.454267
09472	7.550206	-0.487721	8.473719	-0.021475	-1.276999	-1.371731	0.301805	0.324044	0.896610	-0.733821	0.679342	0.001488	-0.608622	-0.658400	0.442819
09473	6.903960	-0.274765	8.739768	-0.328727	-1.138642	-1.393167	0.305021	0.307052	0.901488	-0.727618	0.685867	0.012582	-0.614438	-0.659777	0.432621
09474	5.185768	0.135515	8.245069	-0.562879	-1.180746	-1.401471	0.307834	0.289576	0.906302	-0.719856	0.693747	0.022844	-0.622129	-0.659440	0.422012
09475	5.106894	0.588760	7.715861	-0.457977	-1.483276	-1.373291	0.308383	0.270260	0.912063	-0.712812	0.700559	0.033425	-0.629920	-0.660437	0.408685
09476	6.443064	1.606743	6.054326	-0.196550	-1.730349	-1.229778	0.306130	0.250142	0.918539	-0.707802	0.705046	0.043893	-0.636632	-0.663581	0.392887
09477	7.681836	2.590726	3.417664	-0.296447	-1.905079	-0.991096	0.300920	0.230527	0.925367	-0.702957	0.709337	0.051885	-0.644436	-0.666107	0.375504
09478	7.994588	3.111012	-1.354148	-0.604084	-2.067113	-0.775375	0.292887	0.211212	0.932527	-0.696745	0.715061	0.056875	-0.654801	-0.666391	0.356593
09479	11.398790	2.359315	-2.122986	-1.030500	-2.274546	-0.720835	0.282841	0.190937	0.939970	-0.687892	0.723324	0.060060	-0.668436	-0.663585	0.335929
09480	19.965361	0.051138	3.908482	-1.808973	-2.252550	-0.638614	0.271891	0.171410	0.946939	-0.673874	0.736390	0.060189	-0.687000	-0.654483	0.315727
09481	29.560863	-2.679972	11.886699	-2.920119	-1.752260	-0.221677	0.261125	0.158468	0.952209	-0.652894	0.755571	0.053300	-0.711015	-0.635610	0.300761
09482	27.380558	-5.560185	16.000701	-4.183577	-0.749035	0.324641	0.253586	0.156300	0.954602	-0.623396	0.780995	0.037728	-0.739643	-0.604662	0.295486
09483	16.139948	-9.450396	8.640322	-4.806639	0.015018	0.259723	0.252122	0.158523	0.954623	-0.587881	0.808675	0.020976	-0.768655	-0.566493	0.297078
09484	6.738375	-13.683207	-2.739185	-4.871954	0.098263	-0.272105	0.254404	0.156809	0.954301	-0.549083	0.835719	0.009055	-0.796107	-0.526294	0.298711
09485	5.168819	-17.768124	-6.352981	-3.273274	-0.428666	-0.444351	0.253291	0.151005	0.955532	-0.521772	0.853078	0.003497	-0.814615	-0.499456	0.294867
09486	5.456039	-17.148043	-7.177533	-0.643744	-0.487904	-0.314470	0.250901	0.145880	0.956957	-0.515738	0.856734	0.004618	-0.819184	-0.494698	0.290191
09487	4.730100	-13.472236	-4.957803	1.670118	-0.479203	-0.127692	0.247567	0.142623	0.958316	-0.529340	0.848345	0.010491	-0.811486	-0.509872	0.285519
09488	4.185441	-5.733902	-2.628197	3.609483	-0.736030	-0.170427	0.242551	0.137312	0.960372	-0.557912	0.829601	0.022291	-0.793665	-0.541209	0.277828
09489	5.760867	2.930992	-3.366396	4.825232	-1.202182	-0.379124	0.235226	0.127740	0.963510	-0.595053	0.802747	0.038846	-0.768492	-0.582477	0.264839
09490	9.787661	8.319890	-4.379325	4.975225	-1.581369	-0.507630	0.226363	0.114185	0.967327	-0.631472	0.773338	0.056484	-0.741621	-0.623626	0.247160
09491	15.127639	11.589677	-3.681634	4.590651	-1.689152	-0.328723	0.216087	0.101059	0.971130	-0.664467	0.743992	0.070429	-0.715396	-0.660502	0.227917
09492	15.823307	14.349787	-2.451868	3.315760	-1.411810	-0.178706	0.207298	0.090223	0.974108	-0.687506	0.721820	0.079451	-0.695962	-0.686175	0.211661
09493	11.682448	12.701860	-0.829674	1.359003	-1.257499	-0.263230	0.200345	0.079753	0.976474	-0.696539	0.712500	0.084717	-0.688982	-0.697125	0.198297
09494	9.981877	9.130731	-1.360052	0.086617	-1.317095	-0.250868	0.192972	0.068754	0.978792	-0.696659	0.712067	0.087330	-0.690962	-0.698737	0.185307
09495	10.147363	4.861524	-1.954677	-0.632019	-1.225151	-0.100778	0.185123	0.059541	0.980910	-0.692164	0.716460	0.087140	-0.697595	-0.695082	0.173845
09496	9.913028	0.997099	-1.947159	-1.065169	-1.117853	0.013788	0.177144	0.051891	0.982816	-0.684725	0.723804	0.085201	-0.706945	-0.688051	0.163749
09497	9.582361	-1.926403	-2.207723	-1.154332	-1.123696	0.023900	0.168942	0.044396	0.984626	-0.676608	0.731639	0.083103	-0.716701	-0.680245	0.153643
09498	9.810824	-3.497270	-2.205880	-0.884258	-1.183472	-0.024972	0.160548	0.036179	0.986365	-0.670211	0.737623	0.082033	-0.724598	-0.674242	0.142671
09499	11.634835	-2.511516	-1.093398	-0.391677	-1.262155	-0.045480	0.151627	0.027371	0.988059	-0.667362	0.740216	0.081908	-0.729135	-0.671812	0.130503
09500	10.465937	-0.419620	-0.625770	-0.032558	-1.139483	-0.143966	0.144234	0.018632	0.989368	-0.666928	0.740453	0.083284	-0.731029	-0.671849	0.119225
09501	7.777892	0.903271	-0.839932	0.211163	-1.133541	-0.316413	0.138003	0.008691	0.990394	-0.668102	0.739012	0.086610	-0.731160	-0.673636	0.107792
09502	9.627384	2.615849	0.077928	0.354193	-1.224851	-0.363155	0.131448	-0.002274	0.991320	-0.670218	0.736619	0.090560	-0.730431	-0.676304	0.095303
09503	10.614843	3.927992	0.163317	0.331534	-1.113626	-0.328805	0.125471	-0.012223	0.992022	-0.672280	0.734294	0.094078	-0.729586	-0.678721	0.083915
09504	10.177159	4.036482	0.844367	0.146966	-1.038550	-0.267076	0.119655	-0.021255	0.992588	-0.673042	0.733238	0.096836	-0.729861	-0.679640	0.073430
09505	8.854901	3.530338	1.770719	-0.103497	-1.079513	-0.224556	0.113226	-0.030236	0.993109	-0.672068	0.733846	0.098967	-0.731782	-0.678642	0.062770
09506	8.723408	2.415072	2.363233	-0.446509	-1.186619	-0.197348	0.105806	-0.039737	0.993592	-0.668591	0.736785	0.100664	-0.736064	-0.674958	0.051389
09507	9.849781	0.690812	2.808033	-0.729068	-1.235581	-0.186945	0.097874	-0.049429	0.993970	-0.663048	0.741572	0.102167	-0.742151	-0.669049	0.039807
09508	10.760096	-0.974386	2.794030	-0.846193	-1.057155	-0.182758	0.091166	-0.057844	0.994154	-0.656584	0.747094	0.103679	-0.748724	-0.662197	0.030130
09509	9.537788	-2.116395	2.794244	-0.790182	-0.825505	-0.161703	0.085975	-0.064491	0.994208	-0.650552	0.752161	0.105047	-0.754579	-0.655816	0.022713
09510	10.502839	-2.722068	2.907336	-0.669140	-0.709822	-0.088990	0.081144	-0.069814	0.994254	-0.645429	0.756458	0.105792	-0.759498	-0.650305	0.016322
09511	10.532337	-2.540806	2.083792	-0.401625	-0.556142	-0.048741	0.077184	-0.073761	0.994285	-0.642418	0.758964	0.106174	-0.762458	-0.646941	0.011194
09512	9.726130	-2.274247	1.225690	0.074115	-0.579120	-0.067459	0.073168	-0.078037	0.994262	-0.642949	0.758420	0.106841	-0.762406	-0.647077	0.005318
09513	9.226389	-1.040450	0.043209	0.578525	-0.696949	-0.091159	0.068413	-0.083201	0.994182	-0.647398	0.754506	0.107693	-0.759076	-0.650998	-0.002246
09514	8.967175	0.748735	-0.978185	0.905581	-0.788930	-0.103287	0.063083	-0.089155	0.994018	-0.654196	0.748480	0.108649	-0.753689	-0.657137	-0.011108
09515	9.359958	2.558768	-1.066339	0.965359	-0.814372	-0.058380	0.057313	-0.094918	0.993834	-0.661524	0.741959	0.109011	-0.747731	-0.663692	-0.020267
09516	9.470296	3.835589	-1.183094	0.774577	-0.777467	0.000737	0.051479	-0.100109	0.993644	-0.667314	0.736786	0.108803	-0.742995	-0.668674	-0.028876
09517	9.931980	4.197104	-0.877413	0.465612	-0.785647	0.056798	0.045233	-0.104921	0.993451	-0.670890	0.733646	0.108028	-0.740176	-0.671383	-0.037205
09518	9.615630	3.955759	-0.337523	0.138125	-0.760923	0.079716	0.039034	-0.109463	0.993224	-0.671962	0.732790	0.107169	-0.739556	-0.671592	-0.044951
09519	9.917228	2.983649	0.055341	-0.172094	-0.787765	0.082696	0.032611	-0.114118	0.992932	-0.670793	0.733975	0.106387	-0.740927	-0.669521	-0.052614
09520	9.869047	1.677197	0.421646	-0.421200	-0.715767	0.077981	0.026740	-0.118341	0.992613	-0.667705	0.736864	0.105837	-0.743945	-0.665603	-0.059313
09521	9.848588	0.384183	0.366952	-0.497715	-0.682861	0.049798	0.021283	-0.122486	0.992242	-0.664075	0.740169	0.105613	-0.747363	-0.661171	-0.065587
09522	9.569038	-0.368838	0.484739	-0.390493	-0.623253	0.026819	0.016404	-0.126413	0.991842	-0.661173	0.742764	0.105603	-0.750054	-0.657512	-0.071397
09523	8.827923	-0.432399	0.770572	-0.207458	-0.631479	-0.022127	0.011777	-0.130700	0.991352	-0.659692	0.744033	0.105930	-0.751444	-0.655234	-0.077459
09524	9.148503	0.074626	0.957166	0.017667	-0.650033	-0.060835	0.007260	-0.135426	0.990761	-0.659835	0.743824	0.106507	-0.751375	-0.654512	-0.083959
09525	9.194394	0.893828	0.974048	0.158103	-0.631064	-0.082582	0.003038	-0.140140	0.990127	-0.661110	0.742601	0.107135	-0.750283	-0.654908	-0.090392
09526	9.291042	1.238024	0.795732	0.204895	-0.610319	-0.106686	-0.000865	-0.144948	0.989439	-0.662661	0.741093	0.107987	-0.748919	-0.655569	-0.096692
09527	9.604612	1.119907	0.362898	0.214375	-0.610565	-0.118011	-0.004676	-0.149792	0.988706	-0.664364	0.739435	0.108885	-0.747394	-0.656352	-0.102974
09528	9.685938	0.419289	-0.227936	0.221359	-0.645326	-0.102037	-0.008849	-0.154801	0.987906	-0.666040	0.737813	0.109646	-0.745863	-0.657015	-0.109633
09529	9.753860	-0.573352	-1.004645	0.242663	-0.677875	-0.052501	-0.013572	-0.159608	0.987087	-0.667954	0.736053	0.109833	-0.744079	-0.657838	-0.116600
09530	9.764856	-1.562184	-1.703482	0.367724	-0.727968	0.019780	-0.019146	-0.164274	0.986229	-0.670698	0.733650	0.109182	-0.741483	-0.659372	-0.124224
09531	9.285068	-1.530718	-1.679966	0.562285	-0.782306	0.085467	-0.025528	-0.168777	0.985324	-0.674947	0.729985	0.107553	-0.737424	-0.662296	-0.132550
09532	9.299351	-0.822787	-0.735311	0.782937	-0.851444	0.130821	-0.032703	-0.173499	0.984291	-0.680677	0.724994	0.105178	-0.731853	-0.666545	-0.141807
09533	9.943533	0.726577	0.294671	0.943904	-0.838432	0.160223	-0.039928	-0.177908	0.983237	-0.687618	0.718852	0.102147	-0.724974	-0.672012	-0.151035
09534	9.793206	1.936129	0.936776	1.000682	-0.825923	0.151277	-0.046965	-0.182417	0.982099	-0.694786	0.712358	0.099089	-0.717681	-0.677695	-0.160196
09535	10.491520	2.513774	1.557860	0.960171	-0.743855	0.148880	-0.053331	-0.186376	0.981030	-0.701693	0.705986	0.095977	-0.710481	-0.683263	-0.168430
09536	10.102368	2.530405	1.280082	0.890341	-0.654661	0.165113	-0.059158	-0.189723	0.980054	-0.707911	0.700177	0.092812	-0.703819	-0.688301	-0.175728
09537	9.763868	1.798562	0.750193	0.923293	-0.584987	0.167689	-0.064454	-0.192548	0.979168	-0.714397	0.694001	0.089446	-0.696766	-0.693749	-0.182287
09538	10.212396	0.950115	0.171779	1.041450	-0.569342	0.193715	-0.069823	-0.195196	0.978276	-0.721498	0.687105	0.085603	-0.688888	-0.699846	-0.188809
09539	10.207662	0.539336	-0.577321	1.158641	-0.560712	0.249103	-0.075469	-0.197389	0.977416	-0.729371	0.679321	0.080872	-0.679943	-0.706796	-0.195238
09540	10.394837	0.425223	-0.847590	1.226362	-0.588830	0.318051	-0.081810	-0.199443	0.976488	-0.737417	0.671226	0.075314	-0.670465	-0.713918	-0.201986
09541	10.743447	0.205516	-0.878483	1.185994	-0.600143	0.400042	-0.088770	-0.201029	0.975555	-0.745099	0.663386	0.068902	-0.661020	-0.720768	-0.208675
09542	11.226605	-0.009198	-0.195928	1.088702	-0.544922	0.485047	-0.096011	-0.201791	0.974711	-0.751815	0.656467	0.061851	-0.652347	-0.726864	-0.214738
09543	11.277966	-0.026219	0.741719	0.990358	-0.463813	0.544821	-0.103125	-0.201564	0.974031	-0.757826	0.650192	0.054315	-0.644255	-0.732545	-0.219801
09544	11.378641	0.252147	1.929698	0.994130	-0.319344	0.548818	-0.109376	-0.200381	0.973594	-0.763623	0.643968	0.046752	-0.636331	-0.738345	-0.223450
09545	11.746085	0.643185	2.941168	1.004670	-0.194350	0.503507	-0.114452	-0.198537	0.973388	-0.769557	0.637354	0.039512	-0.628237	-0.744556	-0.225732
09546	11.989191	0.720556	3.404791	0.921253	-0.057793	0.441858	-0.118256	-0.196186	0.973410	-0.774812	0.631324	0.033111	-0.621033	-0.750294	-0.226665
09547	11.909349	0.677170	3.171025	0.788249	0.029497	0.446910	-0.121524	-0.193084	0.973628	-0.779308	0.626063	0.026887	-0.614744	-0.755489	-0.226553
09548	12.162979	0.386304	2.891188	0.658009	0.116799	0.490419	-0.124670	-0.189159	0.974000	-0.782747	0.621999	0.020608	-0.609725	-0.759827	-0.225608
09549	12.131736	-0.472554	2.752882	0.629978	0.195975	0.543965	-0.127715	-0.184211	0.974554	-0.786065	0.617990	0.013800	-0.604807	-0.764300	-0.223728
09550	12.290410	-1.423975	3.216536	0.715985	0.234203	0.624018	-0.131251	-0.178594	0.975129	-0.789581	0.613615	0.006106	-0.599445	-0.769143	-0.221552
09551	12.724022	-1.744022	4.785949	0.809500	0.372828	0.732925	-0.134791	-0.171142	0.975982	-0.793634	0.608388	-0.002924	-0.593275	-0.774967	-0.217830
09552	13.212229	-1.332429	6.190808	0.897353	0.667514	0.848629	-0.137635	-0.160829	0.977339	-0.797788	0.602795	-0.013155	-0.587019	-0.781519	-0.211273
09553	14.189477	-0.622033	6.877018	1.000075	1.058241	0.925231	-0.138818	-0.146855	0.979369	-0.802578	0.596049	-0.024382	-0.580171	-0.789404	-0.200605
09554	14.574445	-0.233800	6.743349	1.111603	1.473130	0.963757	-0.138112	-0.129475	0.981917	-0.807667	0.588538	-0.035998	-0.573235	-0.798034	-0.185857
09555	14.234750	-0.111647	6.024640	1.114089	1.856833	1.022419	-0.135770	-0.108457	0.984786	-0.812877	0.580443	-0.048143	-0.566390	-0.807046	-0.166969
09556	13.088499	-0.583076	5.494077	0.914741	2.120281	1.139817	-0.133125	-0.084709	0.987473	-0.816518	0.574107	-0.060829	-0.561762	-0.814387	-0.145594
09557	11.467797	-1.042739	5.443407	0.488685	2.397045	1.310867	-0.130351	-0.057464	0.989801	-0.817816	0.570627	-0.074573	-0.560523	-0.819196	-0.121377
09558	11.848282	-0.925050	5.726318	-0.075282	2.577469	1.446330	-0.127695	-0.028099	0.991415	-0.815540	0.571841	-0.088835	-0.564436	-0.819883	-0.095937
09559	9.769928	-0.040192	5.436547	-0.576271	2.777652	1.425902	-0.123491	0.003008	0.992341	-0.810784	0.576276	-0.102645	-0.572171	-0.817250	-0.068726
09560	8.890346	1.213514	5.980616	-0.917857	2.777335	1.204478	-0.117206	0.032591	0.992573	-0.804047	0.583514	-0.114104	-0.582898	-0.811449	-0.042187
09561	8.266497	2.245181	3.627324	-1.180456	2.457405	0.807057	-0.109207	0.057384	0.992361	-0.796517	0.592200	-0.121900	-0.594671	-0.803745	-0.018965
09562	11.172952	2.786563	-2.145633	-1.474911	2.232342	0.403469	-0.099001	0.077605	0.992057	-0.787239	0.603683	-0.125786	-0.608649	-0.793438	0.001328
09563	14.978634	2.024408	-4.573288	-1.363379	2.224137	0.168488	-0.086672	0.096374	0.991564	-0.779033	0.613830	-0.127755	-0.620964	-0.783534	0.021877
09564	15.095343	1.341029	-4.889550	-0.935120	2.292721	0.034125	-0.072627	0.114437	0.990772	-0.773174	0.621058	-0.128410	-0.630022	-0.775365	0.043374
09565	16.436979	1.251922	-4.980778	-0.391681	2.272790	-0.063524	-0.057805	0.131802	0.989589	-0.771043	0.623762	-0.128117	-0.634155	-0.770421	0.065569
09566	14.416561	1.269256	-5.151161	0.020643	2.229857	-0.179845	-0.042298	0.147809	0.988111	-0.771282	0.623830	-0.126333	-0.635087	-0.767456	0.087616
09567	14.147631	2.216592	-3.291247	0.212928	2.118048	-0.240837	-0.027038	0.162723	0.986301	-0.772982	0.622223	-0.123847	-0.633852	-0.765741	0.108958
09568	12.376214	2.084764	-1.852686	-0.004539	2.039134	-0.286764	-0.011924	0.176500	0.984228	-0.773028	0.622718	-0.121036	-0.634260	-0.762279	0.129014
09569	11.381772	2.170580	-1.237261	-0.267291	1.845845	-0.269904	0.001849	0.189005	0.981974	-0.771576	0.624940	-0.118832	-0.636135	-0.757448	0.146987
09570	12.246866	1.252955	-0.693941	-0.623295	1.753513	-0.218578	0.014695	0.200834	0.979515	-0.767598	0.630038	-0.117664	-0.640763	-0.750145	0.163418
09571	13.667758	0.350209	-1.067885	-0.970237	1.826633	-0.166748	0.027702	0.213542	0.976541	-0.761523	0.637349	-0.117767	-0.647545	-0.740396	0.180273
09572	14.500788	-0.071925	-2.226139	-1.127269	2.095989	-0.034586	0.041587	0.228698	0.972609	-0.754188	0.645679	-0.119577	-0.655340	-0.728557	0.199334
09573	13.077884	-0.787738	-2.799806	-1.041692	2.344162	0.101298	0.056230	0.246430	0.967528	-0.747567	0.652734	-0.122805	-0.661801	-0.716387	0.220926
09574	11.328347	-1.468008	-2.758679	-0.848539	2.515093	0.166196	0.071665	0.265372	0.961479	-0.742060	0.658311	-0.126386	-0.666492	-0.704418	0.244100
09575	9.254987	-2.089794	-2.613955	-0.749467	2.549729	0.168507	0.087416	0.284419	0.954707	-0.737357	0.662883	-0.129966	-0.669823	-0.692599	0.267664
09576	8.135707	-2.740537	-2.804298	-0.729304	2.494576	0.169519	0.102884	0.302659	0.947530	-0.732645	0.667366	-0.133617	-0.672790	-0.680456	0.290403
09577	7.601236	-3.221162	-2.926077	-0.726469	2.390074	0.165179	0.117740	0.319999	0.940074	-0.728091	0.671566	-0.137410	-0.675293	-0.668281	0.312058
09578	7.501762	-3.178418	-2.949212	-0.647225	2.265939	0.147995	0.131956	0.335992	0.932575	-0.723923	0.675342	-0.140883	-0.677143	-0.656523	0.332348
09579	7.568990	-2.540417	-2.860298	-0.498981	2.115390	0.107408	0.145450	0.350606	0.925159	-0.720846	0.678049	-0.143631	-0.677662	-0.646006	0.351355
09580	7.530012	-1.568230	-2.728881	-0.355021	2.000687	0.044607	0.158649	0.363727	0.917896	-0.718533	0.680141	-0.145322	-0.677156	-0.636484	0.369254
09581	7.401729	-0.558146	-2.645672	-0.226286	1.864761	-0.015506	0.171310	0.375512	0.910848	-0.717118	0.681472	-0.146075	-0.675570	-0.628161	0.386029
09582	7.119773	0.274645	-2.405894	-0.126129	1.739272	-0.084803	0.183616	0.385783	0.904133	-0.716141	0.682557	-0.145801	-0.673370	-0.620716	0.401603
09583	6.489193	0.784950	-1.882384	-0.107592	1.632056	-0.164477	0.195705	0.394812	0.897677	-0.715223	0.683734	-0.144788	-0.670936	-0.613704	0.416189
09584	5.865707	0.952736	-1.317398	-0.134110	1.494680	-0.261475	0.207554	0.402132	0.891746	-0.713823	0.685568	-0.143014	-0.668863	-0.606865	0.429344
09585	5.499950	1.235043	-0.734719	-0.153113	1.360454	-0.359753	0.219159	0.407933	0.886318	-0.712127	0.687849	-0.140499	-0.666967	-0.600379	0.441248
09586	5.200986	1.554887	-0.349302	-0.170192	1.210244	-0.460936	0.230467	0.411974	0.881568	-0.709982	0.690729	-0.137182	-0.665440	-0.594282	0.451685
09587	5.059816	1.651086	-0.014473	-0.210124	1.031651	-0.552000	0.241204	0.414293	0.877600	-0.707356	0.694177	-0.133290	-0.664431	-0.588625	0.460491
09588	5.118526	1.446709	0.064060	-0.301986	0.810282	-0.619345	0.250927	0.414718	0.874668	-0.703851	0.698488	-0.129261	-0.664552	-0.583201	0.467169
09589	5.862405	0.099115	0.089079	-0.382984	0.638370	-0.623485	0.259526	0.414075	0.872461	-0.699766	0.703243	-0.125608	-0.665563	-0.577919	0.472265
09590	6.069560	-1.551727	0.002981	-0.456688	0.517310	-0.559457	0.266844	0.413094	0.870717	-0.695275	0.708159	-0.122894	-0.667373	-0.572594	0.476182
09591	5.104027	-3.653409	-0.510634	-0.482962	0.351714	-0.482300	0.272519	0.411684	0.869626	-0.690789	0.712861	-0.120994	-0.669734	-0.567755	0.478655
09592	3.417029	-5.013044	-0.820972	-0.348961	0.092125	-0.470644	0.276348	0.408832	0.869763	-0.687183	0.716743	-0.118568	-0.671872	-0.564921	0.479013
09593	2.056530	-5.104759	-1.202626	-0.025928	-0.290887	-0.590511	0.278411	0.402969	0.871839	-0.685426	0.719234	-0.113552	-0.672814	-0.565967	0.476448
09594	2.070893	-4.229269	-1.377413	0.428058	-0.844303	-0.789971	0.278118	0.392470	0.876708	-0.686133	0.719914	-0.104617	-0.672214	-0.572443	0.469508
09595	3.439851	-2.942433	-0.772381	0.900043	-1.332942	-1.025925	0.276181	0.377419	0.883900	-0.689401	0.718588	-0.091424	-0.669665	-0.584112	0.458653
09596	5.551078	-2.273220	1.147223	1.327436	-1.677432	-1.244927	0.273571	0.358553	0.892524	-0.694864	0.715286	-0.074366	-0.665073	-0.599839	0.444827
09597	8.235320	-1.963985	4.499021	1.641008	-1.783793	-1.379597	0.271347	0.337899	0.901218	-0.702042	0.710021	-0.054835	-0.658413	-0.617814	0.429882
09598	10.530143	-1.427763	7.890176	1.843142	-1.622292	-1.481976	0.271168	0.317243	0.908749	-0.710104	0.703293	-0.033625	-0.649785	-0.636188	0.415986
09599	11.781515	-0.187690	10.083563	1.959261	-1.381061	-1.625302	0.273817	0.297013	0.914772	-0.718392	0.695554	-0.010801	-0.639481	-0.654207	0.403827
09600	13.094075	1.097186	11.828622	1.851185	-1.154062	-1.786258	0.279359	0.276996	0.919365	-0.725221	0.688394	0.012960	-0.629296	-0.670363	0.393192
09601	13.525950	1.850595	12.263980	1.431939	-1.073480	-1.808768	0.285744	0.257391	0.923093	-0.729167	0.683432	0.035150	-0.621824	-0.683133	0.382968
09602	12.430916	2.254663	13.400499	0.726636	-1.168342	-1.522991	0.289567	0.238950	0.926852	-0.729323	0.682193	0.051980	-0.619871	-0.691025	0.371812
09603	9.918186	2.588025	14.017352	0.051030	-1.307883	-0.968170	0.288442	0.223364	0.931080	-0.726956	0.683958	0.061125	-0.623166	-0.694485	0.359658
09604	5.881665	4.066643	9.775777	-0.560698	-1.364818	-0.469927	0.283256	0.210652	0.935624	-0.722122	0.688843	0.063529	-0.631115	-0.693629	0.347236
09605	3.093786	5.760820	-1.437190	-1.004670	-1.746319	-0.281633	0.274118	0.196725	0.941360	-0.715067	0.696236	0.062724	-0.643069	-0.690329	0.331523
09606	7.878893	3.300787	-8.857101	-1.891760	-2.347008	-0.202135	0.260195	0.179192	0.948783	-0.702201	0.709566	0.058560	-0.662731	-0.681473	0.310454
09607	19.242923	-1.744550	-2.228962	-3.067399	-2.255850	0.033276	0.244690	0.164318	0.955576	-0.681630	0.730054	0.049003	-0.689571	-0.663340	0.290641
09608	23.075786	-5.443020	10.800600	-4.038357	-0.983326	0.348980	0.235400	0.160516	0.958552	-0.654052	0.755682	0.034077	-0.718890	-0.634965	0.282873
09609	13.754621	-8.294743	11.142089	-4.142368	-0.192092	0.169740	0.232876	0.160703	0.959137	-0.624224	0.780971	0.020708	-0.745730	-0.603538	0.282184
09610	11.320296	-12.942466	2.398257	-3.704155	-0.670038	-0.154522	0.228707	0.155521	0.960992	-0.595823	0.803028	0.011843	-0.769862	-0.575290	0.276321
09611	13.086916	-16.499789	-1.763716	-2.570297	-0.858487	-0.167545	0.222948	0.149449	0.963306	-0.575643	0.817676	0.006372	-0.786721	-0.555941	0.268329
09612	10.185586	-13.354477	-1.754135	-0.463358	-0.658683	-0.364103	0.219807	0.142807	0.965034	-0.571213	0.820757	0.008649	-0.790823	-0.553141	0.261981
09613	6.807321	-6.608860	-2.873390	1.661996	-0.574169	-0.588233	0.218592	0.134992	0.966434	-0.583289	0.812054	0.018503	-0.782299	-0.567754	0.256248
09614	5.555717	1.324100	-2.484608	3.005806	-0.592641	-0.632537	0.217730	0.126461	0.967782	-0.605206	0.795417	0.032220	-0.765715	-0.592723	0.249721
09615	6.387269	7.343850	-1.392824	3.181369	-0.683017	-0.624381	0.216316	0.117619	0.969213	-0.628208	0.776687	0.045953	-0.747370	-0.618807	0.241899
09616	9.283016	10.961146	-1.209906	2.695621	-0.861523	-0.505081	0.213131	0.108302	0.971003	-0.647093	0.760259	0.057237	-0.732015	-0.640528	0.232116
09617	12.404320	12.427915	-2.035287	1.736207	-0.970287	-0.310685	0.208030	0.099817	0.973016	-0.659275	0.749165	0.064099	-0.722551	-0.654820	0.221655
09618	12.617094	10.834764	-2.592364	0.446395	-0.961552	-0.242848	0.202658	0.091673	0.974949	-0.662029	0.746439	0.067426	-0.721559	-0.659109	0.211962
09619	10.712320	7.102459	-3.164220	-0.595436	-0.987411	-0.296120	0.197406	0.083035	0.976799	-0.657245	0.750509	0.069027	-0.727365	-0.655623	0.202730
09620	9.919180	3.186386	-3.741539	-1.174050	-1.079326	-0.335198	0.191657	0.073463	0.978709	-0.648026	0.758397	0.069975	-0.737109	-0.647640	0.192958
09621	10.210879	0.258640	-3.835271	-1.413562	-1.130916	-0.308736	0.185196	0.063867	0.980624	-0.637023	0.767631	0.070310	-0.748267	-0.637701	0.182847
09622	10.537373	-2.041262	-3.601034	-1.338930	-1.192845	-0.267155	0.177861	0.054246	0.982559	-0.626478	0.776240	0.070549	-0.758875	-0.628100	0.172047
09623	10.798566	-3.623371	-2.855480	-1.057723	-1.244659	-0.246280	0.169841	0.044573	0.984463	-0.618047	0.782912	0.071179	-0.767575	-0.620534	0.160519
09624	10.767791	-4.428357	-2.006332	-0.625396	-1.291533	-0.236957	0.161313	0.034719	0.986292	-0.612866	0.786850	0.072540	-0.773546	-0.616167	0.148207
09625	11.310678	-3.705341	-0.649119	-0.083561	-1.379625	-0.210506	0.151849	0.024590	0.988098	-0.611978	0.787363	0.074453	-0.776161	-0.615999	0.134609
09626	7.889889	-2.908229	-0.787917	0.365673	-1.251503	-0.272001	0.143772	0.014713	0.989502	-0.614443	0.785135	0.077602	-0.775751	-0.619150	0.121921
09627	7.983314	-1.400049	-0.142588	0.885607	-1.389536	-0.284549	0.134706	0.003873	0.990878	-0.621008	0.779568	0.081377	-0.772142	-0.626305	0.107417
09628	10.137168	0.583490	0.078211	1.217258	-1.292001	-0.272087	0.126435	-0.006400	0.991954	-0.630046	0.771860	0.085287	-0.766196	-0.635760	0.093558
09629	10.757252	1.850171	0.194940	1.312482	-1.151091	-0.276058	0.119339	-0.015858	0.992727	-0.639826	0.763337	0.089109	-0.759198	-0.645806	0.080950
09630	10.138259	2.319100	0.945615	1.330385	-1.025374	-0.288983	0.113421	-0.024734	0.993239	-0.649570	0.754596	0.092967	-0.751794	-0.655723	0.069521
09631	8.303975	2.732005	1.403335	1.289149	-1.029122	-0.252450	0.107307	-0.033395	0.993665	-0.659033	0.745931	0.096239	-0.744419	-0.665185	0.058035
09632	8.171920	2.501305	1.756631	1.128784	-1.203728	-0.195435	0.099645	-0.042911	0.994097	-0.667228	0.738279	0.098750	-0.738158	-0.673129	0.044934
09633	10.083048	1.719061	1.904871	0.956911	-1.226702	-0.167094	0.091682	-0.052414	0.994408	-0.674194	0.731654	0.100723	-0.732841	-0.679659	0.031742
09634	10.296873	1.139532	1.256097	0.866876	-1.055432	-0.159626	0.085021	-0.060792	0.994523	-0.680413	0.725622	0.102522	-0.727880	-0.685403	0.020329
09635	9.440063	0.906307	0.909086	0.799914	-0.960095	-0.163196	0.079112	-0.068554	0.994506	-0.686170	0.719938	0.104211	-0.723126	-0.690645	0.009916
09636	9.299315	1.707484	1.013228	0.771894	-0.976564	-0.112806	0.072816	-0.076143	0.994435	-0.691677	0.714482	0.105354	-0.718527	-0.695499	-0.000641
09637	9.419429	3.189680	1.258382	0.662048	-0.997808	-0.022990	0.065771	-0.083243	0.994356	-0.696492	0.709769	0.105487	-0.714544	-0.699499	-0.011296
09638	9.220681	3.806839	1.151556	0.410032	-1.073612	0.026375	0.057893	-0.090589	0.994204	-0.699461	0.706895	0.105141	-0.712322	-0.701494	-0.022439
09639	9.502091	3.544338	0.840585	0.133992	-1.067820	0.001456	0.050229	-0.098054	0.993913	-0.700493	0.705887	0.105039	-0.711890	-0.701505	-0.033230
09640	10.360452	3.141558	0.870823	-0.108273	-0.946422	-0.023580	0.043617	-0.104863	0.993530	-0.699737	0.706597	0.105298	-0.713067	-0.699803	-0.042557
09641	9.408057	2.997096	0.850889	-0.318486	-0.840008	-0.011927	0.037654	-0.110802	0.993129	-0.697526	0.708748	0.105521	-0.715570	-0.696706	-0.050600
09642	9.286568	2.625684	1.092562	-0.491688	-0.797680	-0.014745	0.032000	-0.116459	0.992680	-0.694020	0.712122	0.105917	-0.719244	-0.692329	-0.058037
09643	9.264949	1.884393	0.934655	-0.599043	-0.772598	-0.050195	0.026732	-0.122138	0.992153	-0.689747	0.716139	0.106744	-0.723557	-0.687188	-0.065101
09644	9.400996	0.715915	0.454049	-0.613319	-0.783082	-0.100781	0.021707	-0.128234	0.991506	-0.685299	0.720187	0.108147	-0.727938	-0.681826	-0.072245
09645	9.588638	-0.062555	0.009653	-0.517042	-0.762407	-0.110371	0.016859	-0.134201	0.990811	-0.681571	0.723499	0.109591	-0.731558	-0.677155	-0.079270
09646	8.771496	-0.485842	-0.968982	-0.345884	-0.782846	-0.085050	0.011667	-0.140115	0.990066	-0.679052	0.725695	0.110703	-0.733998	-0.673598	-0.086679
09647	8.879980	-0.884786	-1.632897	-0.116258	-0.888418	-0.049319	0.005438	-0.146434	0.989206	-0.678268	0.726344	0.111251	-0.734795	-0.671551	-0.095371
09648	9.400979	-1.010368	-1.913529	0.139326	-0.973785	-0.016953	-0.001632	-0.153105	0.988209	-0.679318	0.725361	0.111260	-0.733842	-0.671127	-0.105191
09649	9.126649	-0.689477	-2.247907	0.399486	-1.034793	0.012736	-0.009337	-0.159947	0.987081	-0.682325	0.722628	0.110640	-0.730989	-0.672477	-0.115883
09650	9.544228	0.064924	-2.242139	0.617649	-1.136913	0.050012	-0.017999	-0.167258	0.985749	-0.686847	0.718525	0.109375	-0.726579	-0.675090	-0.127814
09651	9.606430	0.713564	-1.877805	0.749071	-1.197474	0.092315	-0.027345	-0.174685	0.984245	-0.692331	0.713542	0.107405	-0.721062	-0.678486	-0.140451
09652	10.535277	0.908810	-0.955283	0.818215	-1.181268	0.139326	-0.036829	-0.181742	0.982656	-0.698188	0.708200	0.104814	-0.714967	-0.682219	-0.152973
09653	10.319368	1.095893	-0.032241	0.858061	-1.092763	0.194331	-0.046009	-0.187833	0.981123	-0.704297	0.702614	0.101486	-0.708413	-0.686333	-0.164617
09654	10.362729	1.114423	0.738927	0.878266	-0.971034	0.227434	-0.054497	-0.192939	0.979696	-0.710401	0.696977	0.097744	-0.701684	-0.690650	-0.175048
09655	11.004496	0.803593	1.369963	0.925426	-0.840634	0.257803	-0.062240	-0.196958	0.978434	-0.716798	0.690984	0.093498	-0.694497	-0.695521	-0.184186
09656	10.585291	0.680421	1.247801	0.967255	-0.698691	0.264502	-0.069005	-0.200029	0.977357	-0.723331	0.684732	0.089070	-0.687044	-0.700807	-0.191937
09657	10.729822	0.553140	0.990773	0.991339	-0.619698	0.261109	-0.075163	-0.202586	0.976376	-0.730013	0.678187	0.084518	-0.679288	-0.706414	-0.198865
09658	11.131079	0.243706	0.577604	1.024789	-0.524655	0.300548	-0.080943	-0.204292	0.975558	-0.736723	0.671505	0.079494	-0.671332	-0.712282	-0.204860
09659	11.311667	-0.364388	0.146140	1.049914	-0.410444	0.367297	-0.086420	-0.204745	0.974993	-0.743528	0.664634	0.073667	-0.663097	-0.718569	-0.209672
09660	10.844635	-1.373917	-0.229217	1.173234	-0.372893	0.419001	-0.092040	-0.204682	0.974492	-0.750904	0.656996	0.067073	-0.653966	-0.725577	-0.214166
09661	10.996386	-2.026167	-0.148097	1.347634	-0.374736	0.437093	-0.097786	-0.204528	0.973964	-0.759350	0.647927	0.059823	-0.643293	-0.733730	-0.218667
09662	10.902433	-1.505069	0.022885	1.504158	-0.391361	0.463345	-0.103853	-0.204453	0.973352	-0.768492	0.637745	0.051963	-0.631375	-0.742617	-0.223352
09663	10.630834	-0.537749	0.415911	1.547574	-0.411143	0.488500	-0.110210	-0.204393	0.972665	-0.777777	0.627025	0.043633	-0.618803	-0.751707	-0.228076
09664	10.650190	0.334217	1.274672	1.462021	-0.437243	0.474068	-0.116629	-0.204764	0.971838	-0.786220	0.616918	0.035630	-0.606840	-0.759924	-0.232940
09665	11.480070	1.091070	2.391974	1.217617	-0.454630	0.411866	-0.122621	-0.205663	0.970910	-0.793195	0.608292	0.028675	-0.596495	-0.766605	-0.237720
09666	12.304765	1.117178	3.715611	0.867060	-0.321581	0.308141	-0.127010	-0.206286	0.970214	-0.797972	0.602233	0.023584	-0.589160	-0.771208	-0.241100
09667	12.915881	0.074879	4.800211	0.601458	-0.043176	0.235087	-0.129135	-0.205153	0.970173	-0.801354	0.597864	0.019761	-0.584086	-0.774900	-0.241606
09668	13.555922	-1.452719	5.913728	0.470563	0.312863	0.275519	-0.129555	-0.201096	0.970966	-0.803758	0.594743	0.015932	-0.580679	-0.778358	-0.238685
09669	13.428586	-3.102609	7.424439	0.514836	0.697959	0.418306	-0.128860	-0.193092	0.972682	-0.806384	0.591298	0.010553	-0.577183	-0.782995	-0.231901
09670	12.625922	-4.540273	8.485785	0.820519	1.059037	0.658258	-0.128127	-0.180904	0.975119	-0.810273	0.586048	0.002257	-0.571875	-0.789823	-0.221670
09671	12.646089	-4.689512	8.992443	1.241484	1.352757	0.944183	-0.128095	-0.164555	0.978015	-0.816343	0.577485	-0.009756	-0.563183	-0.799646	-0.208306
09672	13.201681	-3.683226	8.914830	1.586778	1.633001	1.170420	-0.128616	-0.144722	0.981078	-0.823711	0.566484	-0.024422	-0.552230	-0.811265	-0.192068
09673	14.928885	-2.292758	8.265140	1.803412	1.974192	1.300597	-0.128574	-0.121159	0.984271	-0.832161	0.553044	-0.040627	-0.539423	-0.824295	-0.171931
09674	14.757853	-0.871491	6.181396	1.851328	2.372509	1.400069	-0.127662	-0.093821	0.987370	-0.840258	0.539139	-0.057412	-0.526943	-0.836975	-0.147662
09675	12.997108	0.556487	3.726606	1.631945	2.697329	1.476729	-0.126034	-0.063065	0.990019	-0.847196	0.526053	-0.074342	-0.516114	-0.848110	-0.119729
09676	11.062570	1.556943	2.429884	1.072624	2.833693	1.440157	-0.123746	-0.031434	0.991816	-0.850923	0.517564	-0.089764	-0.510507	-0.855067	-0.090795
09677	9.767874	1.647803	2.640063	0.425909	3.004901	1.274470	-0.119270	0.001049	0.992861	-0.851846	0.513590	-0.102873	-0.510032	-0.858035	-0.060362
09678	8.504555	1.763051	3.359048	-0.131261	2.852766	0.991045	-0.113120	0.030589	0.993110	-0.850042	0.514523	-0.112672	-0.514425	-0.856931	-0.032201
09679	8.691372	2.390081	-0.247541	-0.554746	2.651758	0.634032	-0.104796	0.056722	0.992875	-0.846781	0.518462	-0.118995	-0.521517	-0.853217	-0.006302
09680	11.344176	2.552172	-4.373127	-0.882705	2.469773	0.313039	-0.094466	0.079335	0.992362	-0.841842	0.525716	-0.122167	-0.531393	-0.846952	0.017125
09681	13.647957	2.564359	-4.624159	-0.687487	2.347733	0.030187	-0.082206	0.099494	0.991637	-0.838426	0.531004	-0.122783	-0.538779	-0.841508	0.039767
09682	17.439768	2.958792	-3.970174	-0.134889	2.225700	-0.252961	-0.068094	0.116828	0.990815	-0.837910	0.532373	-0.120358	-0.541544	-0.838409	0.061640
09683	17.483377	4.017701	-4.491283	0.448869	2.161528	-0.511593	-0.052179	0.132404	0.989821	-0.840900	0.528816	-0.115066	-0.538669	-0.838345	0.083745
09684	16.341419	5.496564	-4.320873	0.667526	2.178862	-0.703476	-0.034595	0.146956	0.988538	-0.844808	0.524162	-0.107487	-0.533950	-0.838843	0.106016
09685	15.122482	6.120490	-2.475940	0.352128	2.046768	-0.779824	-0.017145	0.160183	0.986938	-0.847098	0.522049	-0.099446	-0.531160	-0.837739	0.126740
09686	12.986017	5.082741	-0.798321	-0.275789	1.943539	-0.720899	-0.000727	0.172627	0.984987	-0.845718	0.525513	-0.092724	-0.533630	-0.833088	0.145612
09687	12.112133	4.380343	0.015070	-0.976026	1.844243	-0.536945	0.013678	0.185200	0.982606	-0.840618	0.534267	-0.088996	-0.541456	-0.824778	0.162990
09688	13.766869	2.336760	-0.252683	-1.662383	1.748882	-0.297835	0.025725	0.197889	0.979887	-0.831470	0.548408	-0.088923	-0.554974	-0.812459	0.178647
09689	15.993159	-0.379578	-1.835597	-1.971250	1.929304	-0.093807	0.037326	0.213018	0.976335	-0.820515	0.564217	-0.091732	-0.570406	-0.797673	0.195845
09690	14.786296	-2.869998	-3.410925	-1.842849	2.268473	0.045659	0.050022	0.231185	0.971623	-0.809919	0.578635	-0.095982	-0.584404	-0.782135	0.216185
09691	12.032713	-4.648170	-3.992789	-1.459601	2.460918	0.122147	0.063509	0.251075	0.965882	-0.801539	0.589434	-0.100517	-0.594561	-0.767808	0.238681
09692	8.838647	-5.762704	-3.810016	-1.030660	2.450451	0.095674	0.077362	0.270293	0.959665	-0.795472	0.596995	-0.104020	-0.601031	-0.755340	0.261196
09693	7.688530	-5.392824	-3.453054	-0.604412	2.312445	0.029702	0.091004	0.287924	0.953320	-0.792006	0.601243	-0.105984	-0.603692	-0.745390	0.282753
09694	7.095595	-4.167732	-3.091373	-0.416599	2.179334	-0.030162	0.104379	0.303878	0.946976	-0.789488	0.604381	-0.106921	-0.604825	-0.736466	0.302993
09695	6.843217	-2.762074	-2.901823	-0.403810	2.036752	-0.078652	0.117259	0.318412	0.940672	-0.787104	0.607385	-0.107480	-0.605573	-0.727804	0.321844
09696	6.988993	-1.761027	-3.024653	-0.512702	1.896722	-0.095048	0.129475	0.331538	0.934515	-0.783907	0.611363	-0.108285	-0.607228	-0.718552	0.339052
09697	7.264572	-1.075079	-3.255100	-0.626134	1.810416	-0.104450	0.141235	0.343906	0.928322	-0.780091	0.616006	-0.109523	-0.609517	-0.708707	0.355279
09698	7.267207	-0.401527	-3.331880	-0.675651	1.790393	-0.123423	0.153099	0.355728	0.921964	-0.775812	0.621153	-0.110835	-0.612108	-0.698303	0.371076
09699	7.200955	0.261541	-3.014124	-0.655264	1.791097	-0.155366	0.165215	0.367244	0.915334	-0.771662	0.626109	-0.111920	-0.614200	-0.687837	0.386830
09700	7.001832	0.735322	-2.396944	-0.566633	1.762381	-0.197501	0.177540	0.378027	0.908612	-0.767870	0.630676	-0.112353	-0.615512	-0.677749	0.402246
09701	6.732806	1.267589	-1.664488	-0.429570	1.681379	-0.269177	0.189894	0.387693	0.902017	-0.764822	0.634485	-0.111694	-0.615619	-0.668673	0.417001
09702	6.528871	1.532146	-0.966575	-0.324221	1.538798	-0.364337	0.202112	0.395594	0.895911	-0.762145	0.638030	-0.109789	-0.615050	-0.660624	0.430453
09703	6.184407	1.587800	-0.608808	-0.236350	1.352009	-0.441733	0.213736	0.401681	0.890488	-0.759842	0.641262	-0.106882	-0.613968	-0.653785	0.442275
09704	6.118536	1.162025	-0.390943	-0.223671	1.128797	-0.477283	0.224251	0.405951	0.885954	-0.757456	0.644608	-0.103638	-0.613165	-0.647831	0.452044
09705	5.895291	0.350413	-0.448309	-0.216969	0.886484	-0.462363	0.233148	0.408693	0.882390	-0.755117	0.647836	-0.100536	-0.612732	-0.642868	0.459652
09706	6.052873	-0.704404	-0.815851	-0.224057	0.644136	-0.420965	0.240238	0.410079	0.879841	-0.752779	0.650959	-0.097857	-0.612869	-0.638818	0.465084
09707	5.444502	-2.150445	-1.416779	-0.314811	0.469818	-0.309548	0.245419	0.411046	0.877959	-0.750130	0.654197	-0.096598	-0.614064	-0.634877	0.468890
09708	4.186707	-3.568029	-1.908097	-0.353104	0.309626	-0.219040	0.248931	0.411562	0.876727	-0.747450	0.657297	-0.096330	-0.615915	-0.631330	0.471244
09709	1.796134	-4.725935	-1.723490	-0.256732	0.214742	-0.201327	0.251726	0.411580	0.875920	-0.745394	0.659709	-0.095772	-0.617270	-0.628797	0.472855
09710	3.355721	-5.418358	0.257146	0.306835	-0.180510	-0.369808	0.253340	0.407997	0.877130	-0.746384	0.659255	-0.091075	-0.615411	-0.631603	0.471538
09711	2.083634	-4.090751	1.387547	0.944886	-0.416276	-0.660145	0.255682	0.401014	0.879667	-0.750535	0.655868	-0.080842	-0.609364	-0.639551	0.468668
09712	2.175700	-1.346843	2.870567	1.603245	-0.695811	-1.044667	0.259324	0.389691	0.883681	-0.757564	0.649601	-0.064151	-0.599039	-0.652809	0.463673
09713	3.671753	1.383425	5.291762	2.018989	-0.994353	-1.497569	0.264778	0.373461	0.889055	-0.765663	0.641894	-0.041608	-0.586219	-0.669700	0.455905
09714	5.859683	3.382432	7.740689	2.149690	-1.120993	-1.956250	0.273301	0.353360	0.894675	-0.772888	0.634377	-0.014455	-0.572669	-0.687533	0.446484
09715	7.358066	4.552958	8.269083	2.069313	-1.127886	-2.319880	0.284856	0.330887	0.899650	-0.778190	0.627838	0.015482	-0.559712	-0.704509	0.436336
09716	8.678097	5.302862	9.472369	1.649417	-1.286754	-2.399302	0.296381	0.306702	0.904484	-0.780405	0.623708	0.044229	-0.550569	-0.718973	0.424207
09717	11.164742	4.727932	12.206379	0.719207	-1.644932	-2.083092	0.303527	0.281815	0.910193	-0.778169	0.624565	0.066122	-0.549840	-0.728354	0.408872
09718	13.713552	5.473497	13.709487	-0.470827	-2.033568	-1.355924	0.302722	0.258449	0.917368	-0.771478	0.631625	0.076632	-0.559627	-0.730927	0.390594
09719	15.774748	3.559179	14.115023	-1.478516	-1.856193	-0.188608	0.293597	0.243755	0.924329	-0.762581	0.642793	0.072710	-0.576429	-0.726223	0.374605
09720	14.690614	0.002539	14.588732	-2.417288	-1.069688	0.834431	0.280971	0.241474	0.928841	-0.750818	0.658129	0.056023	-0.597769	-0.713131	0.366218
09721	8.652194	-0.490631	8.475474	-3.151172	-0.543503	0.940480	0.270641	0.243997	0.931246	-0.734278	0.677905	0.035778	-0.622566	-0.693477	0.362631
09722	4.463905	0.124826	-5.229005	-3.268870	-1.087202	0.264214	0.261781	0.238377	0.935226	-0.714229	0.699579	0.021608	-0.649113	-0.673622	0.353392
09723	10.569028	-4.528464	-13.287792	-3.278742	-1.869575	-0.340145	0.251746	0.223602	0.941608	-0.691716	0.722043	0.013473	-0.676869	-0.654718	0.336441
09724	21.459481	-10.365499	-3.563089	-2.908486	-1.708065	-0.407785	0.242724	0.209577	0.947187	-0.670707	0.741682	0.007767	-0.700884	-0.637170	0.320588
09725	18.516766	-12.892665	9.091131	-2.137038	-0.373244	-0.280047	0.241886	0.205178	0.948363	-0.654986	0.755633	0.003577	-0.715881	-0.622030	0.317165
09726	9.658387	-12.461102	7.783295	-1.433368	0.062571	-0.359018	0.244635	0.202829	0.948164	-0.643823	0.765170	0.002428	-0.725014	-0.611044	0.317773
09727	6.890273	-10.716319	1.616641	-1.023104	-0.575422	-0.512248	0.243633	0.195517	0.949956	-0.635300	0.772255	0.003991	-0.732828	-0.604480	0.312359
09728	10.236469	-8.987587	-0.127858	-0.247186	-1.042405	-0.436636	0.238707	0.185834	0.953145	-0.632469	0.774550	0.007383	-0.736886	-0.604597	0.302425
09729	10.905130	-4.489295	-2.426879	1.289331	-1.064582	-0.222003	0.232201	0.177784	0.956282	-0.641646	0.766887	0.013229	-0.731008	-0.616666	0.292147
09730	9.527930	1.712064	-3.636768	2.514150	-0.922246	-0.183194	0.226683	0.170606	0.958910	-0.659464	0.751408	0.022208	-0.716744	-0.637401	0.282840
09731	8.430834	6.436311	-2.183487	2.723614	-0.854444	-0.391526	0.223139	0.162302	0.961180	-0.678097	0.734211	0.033444	-0.700281	-0.659236	0.273887
09732	9.186835	10.324843	-1.676956	2.358224	-0.987884	-0.559225	0.220092	0.151625	0.963623	-0.693244	0.719287	0.045158	-0.686275	-0.677965	0.263422
09733	11.327922	12.984499	-2.929820	1.720471	-1.222738	-0.511630	0.215247	0.139685	0.966518	-0.704004	0.708106	0.054446	-0.676792	-0.692151	0.250756
09734	12.508112	11.843897	-3.358418	0.656264	-1.250039	-0.318671	0.209016	0.128735	0.969402	-0.707799	0.703935	0.059129	-0.674784	-0.698500	0.238252
09735	11.579697	8.010193	-3.862186	-0.387602	-1.234078	-0.120093	0.201445	0.119286	0.972209	-0.704989	0.706730	0.059363	-0.680008	-0.697355	0.226463
09736	10.107310	3.996070	-4.994153	-1.071404	-1.260231	-0.036268	0.193034	0.110271	0.974976	-0.697614	0.714175	0.057345	-0.689980	-0.691226	0.214787
09737	9.363205	0.242448	-4.843706	-1.539035	-1.349065	-0.083781	0.184165	0.100372	0.977757	-0.686744	0.724820	0.054945	-0.703183	-0.681587	0.202416
09738	9.946165	-3.102106	-4.922653	-1.536896	-1.434987	-0.168604	0.175095	0.089424	0.980482	-0.675570	0.735347	0.053577	-0.716203	-0.671765	0.189168
09739	10.636573	-5.605646	-4.253241	-1.132185	-1.413835	-0.229658	0.166379	0.078230	0.982954	-0.667006	0.743110	0.053759	-0.726237	-0.664581	0.175817
09740	11.273725	-6.846997	-2.143579	-0.549458	-1.467013	-0.283686	0.157532	0.066382	0.985280	-0.662577	0.746926	0.055613	-0.732240	-0.661585	0.161649
09741	10.788399	-5.933204	-0.943000	0.164435	-1.363161	-0.375050	0.149950	0.054514	0.987190	-0.663219	0.746053	0.059542	-0.733250	-0.663651	0.148026
09742	7.247411	-3.832830	-0.863038	0.881589	-1.317679	-0.425625	0.143116	0.042552	0.988791	-0.669079	0.740345	0.064981	-0.729281	-0.670879	0.134426
09743	9.639710	-0.671334	0.111355	1.477002	-1.454397	-0.347357	0.134817	0.030136	0.990412	-0.679346	0.730448	0.070248	-0.721328	-0.682303	0.118950
09744	11.171348	2.529967	-0.282838	1.658698	-1.272882	-0.279682	0.127579	0.019338	0.991640	-0.690899	0.719064	0.074865	-0.711605	-0.694674	0.105098
09745	10.979800	4.643092	-0.041813	1.489524	-1.102713	-0.239554	0.121356	0.009881	0.992560	-0.701163	0.708647	0.078674	-0.702597	-0.705494	0.092927
09746	7.988468	4.953258	0.331771	1.105260	-1.125384	-0.282476	0.115443	-0.000102	0.993314	-0.708593	0.700786	0.082425	-0.696109	-0.713371	0.080829
09747	7.564185	4.380764	0.775353	0.737553	-1.445972	-0.332718	0.107680	-0.012821	0.994103	-0.713349	0.695483	0.086239	-0.692487	-0.718428	0.065744
09748	10.137653	3.299210	1.160946	0.518148	-1.590945	-0.350176	0.099150	-0.026715	0.994714	-0.716604	0.691649	0.090004	-0.690397	-0.721740	0.049433
09749	11.525339	2.567855	1.193383	0.456693	-1.421024	-0.332647	0.091655	-0.039339	0.995013	-0.719427	0.688248	0.093481	-0.688494	-0.724408	0.034780
09750	9.512670	2.050878	1.024584	0.368293	-1.268155	-0.250340	0.084704	-0.050267	0.995137	-0.721773	0.685431	0.096059	-0.686927	-0.726400	0.021777
09751	9.159015	1.681096	1.566048	0.155168	-1.240202	-0.130908	0.077047	-0.060230	0.995207	-0.722722	0.684246	0.097362	-0.686831	-0.726759	0.009189
09752	10.857562	2.011195	2.098586	-0.090927	-1.101001	0.011104	0.069363	-0.068158	0.995260	-0.722139	0.684881	0.097230	-0.688262	-0.725460	-0.001714
09753	9.053685	1.339948	2.196522	-0.367126	-1.086044	0.041607	0.061488	-0.075784	0.995227	-0.719624	0.687581	0.096818	-0.691636	-0.722142	-0.012258
09754	10.059348	-0.138866	2.507678	-0.514436	-1.164147	-0.010581	0.053453	-0.084247	0.995010	-0.716082	0.691244	0.096996	-0.695966	-0.717694	-0.023379
09755	10.534790	-0.477708	2.252866	-0.469354	-0.951359	-0.032277	0.046965	-0.091320	0.994713	-0.712792	0.694576	0.097420	-0.699801	-0.713599	-0.032471
09756	10.259058	0.208183	2.247688	-0.277474	-0.823823	0.013125	0.041063	-0.097105	0.994427	-0.710887	0.696534	0.097371	-0.702107	-0.710923	-0.040429
09757	9.689113	0.933177	2.301546	-0.159146	-0.754958	0.004449	0.035650	-0.102463	0.994098	-0.709787	0.697655	0.097362	-0.703514	-0.709069	-0.047856
09758	9.844931	1.437106	2.184820	-0.114390	-0.715677	-0.072565	0.031092	-0.108047	0.993659	-0.708991	0.698358	0.098122	-0.704532	-0.707546	-0.054891
09759	9.154007	1.440086	1.463667	-0.030544	-0.717380	-0.189602	0.027310	-0.114465	0.993052	-0.708746	0.698342	0.099986	-0.704935	-0.706552	-0.062055
09760	8.931369	1.425688	0.701593	0.121543	-0.733790	-0.223030	0.023687	-0.121214	0.992344	-0.709579	0.697190	0.102099	-0.704227	-0.706565	-0.069497
09761	8.973856	1.556369	0.265986	0.217220	-0.732647	-0.144480	0.019492	-0.127417	0.991658	-0.711106	0.695450	0.103335	-0.702815	-0.707187	-0.077052
09762	8.783622	1.068598	-0.319486	0.227938	-0.744650	-0.043308	0.014538	-0.132995	0.991010	-0.712731	0.693750	0.103558	-0.701286	-0.707830	-0.084704
09763	8.884735	0.186967	-0.601086	0.253236	-0.763314	0.047690	0.008785	-0.138088	0.990381	-0.714540	0.691997	0.102823	-0.699539	-0.708570	-0.092590
09764	9.034300	-0.770581	-0.148942	0.313272	-0.796317	0.096946	0.002496	-0.143074	0.989709	-0.716766	0.689881	0.101538	-0.697309	-0.709643	-0.100829
09765	9.289493	-1.273336	0.259459	0.440562	-0.775005	0.142581	-0.003985	-0.147612	0.989037	-0.719867	0.686926	0.099622	-0.694101	-0.711578	-0.108999
09766	9.732500	-1.291671	0.532160	0.597921	-0.763294	0.193802	-0.010700	-0.151737	0.988363	-0.724022	0.682922	0.097006	-0.689694	-0.714559	-0.117168
09767	9.692024	-0.835332	0.595321	0.789117	-0.728497	0.203830	-0.017247	-0.155575	0.987674	-0.729464	0.677531	0.093984	-0.683801	-0.718852	-0.125172
09768	9.165474	-0.066310	0.063511	0.975615	-0.753197	0.163613	-0.023603	-0.159916	0.986848	-0.736098	0.670719	0.091083	-0.676463	-0.724267	-0.133545
09769	9.304332	0.820908	-0.510992	1.084564	-0.809799	0.123335	-0.030019	-0.164980	0.985840	-0.743418	0.662971	0.088310	-0.668153	-0.730240	-0.142551
09770	9.553087	1.592225	-0.945210	1.114968	-0.903882	0.103140	-0.036824	-0.170937	0.984594	-0.750816	0.654938	0.085625	-0.659484	-0.736095	-0.152460
09771	9.562689	1.869075	-1.226418	1.090577	-0.932754	0.120360	-0.043900	-0.177043	0.983224	-0.757972	0.647028	0.082663	-0.650808	-0.741627	-0.162598
09772	9.969672	1.784714	-1.012542	1.078995	-0.979598	0.175352	-0.051601	-0.183216	0.981717	-0.764893	0.639282	0.079103	-0.642087	-0.746827	-0.173129
09773	10.859110	1.330190	-0.246639	1.031469	-0.941900	0.268408	-0.059726	-0.188568	0.980242	-0.771378	0.631992	0.074575	-0.633568	-0.751684	-0.183204
09774	10.530413	1.034451	0.101511	0.959776	-0.818352	0.364157	-0.067731	-0.192459	0.978965	-0.777217	0.625418	0.069181	-0.625576	-0.756183	-0.191943
09775	10.533064	0.965679	0.737345	0.892039	-0.719101	0.437712	-0.075666	-0.195185	0.977843	-0.782509	0.619435	0.063093	-0.618025	-0.760397	-0.199605
09776	10.155133	0.571544	1.320138	0.801770	-0.629008	0.472761	-0.083276	-0.197075	0.976845	-0.787088	0.614218	0.056818	-0.611193	-0.764132	-0.206265
09777	10.440772	-0.188533	1.681401	0.754210	-0.590982	0.468048	-0.090605	-0.198730	0.975857	-0.791334	0.609286	0.050607	-0.604633	-0.767644	-0.212466
09778	10.969285	-1.399076	1.641449	0.783401	-0.592917	0.436480	-0.097666	-0.200656	0.974781	-0.795660	0.604097	0.044633	-0.597818	-0.771235	-0.218654
09779	10.964748	-2.260418	1.613341	0.846843	-0.561293	0.458869	-0.104696	-0.202219	0.973728	-0.800312	0.598365	0.038216	-0.590373	-0.775285	-0.224485
09780	11.153248	-2.588943	1.735834	0.877760	-0.479360	0.521413	-0.111725	-0.202854	0.972814	-0.804922	0.592564	0.031120	-0.582768	-0.779563	-0.229486
09781	11.659255	-2.717267	1.601184	1.031108	-0.350144	0.559516	-0.118294	-0.202267	0.972160	-0.810349	0.585487	0.023211	-0.573882	-0.785043	-0.233167
09782	12.140696	-2.113517	1.234040	1.259032	-0.214677	0.631692	-0.124686	-0.200301	0.971768	-0.816766	0.576798	0.014092	-0.563336	-0.791949	-0.235518
09783	12.753882	-0.846556	1.160552	1.377286	-0.097603	0.695847	-0.130955	-0.197058	0.971606	-0.823683	0.567037	0.003986	-0.551722	-0.799773	-0.236569
09784	13.087217	-0.014541	1.508584	1.377558	0.023468	0.722118	-0.136831	-0.192823	0.971646	-0.830261	0.557339	-0.006317	-0.540318	-0.807585	-0.236354
09785	13.377876	-0.148244	2.237327	1.329628	0.157811	0.718450	-0.141984	-0.187525	0.971944	-0.836510	0.547703	-0.016527	-0.529238	-0.815387	-0.234631
09786	13.112229	-0.823889	3.235076	1.229554	0.342304	0.760302	-0.146601	-0.180604	0.972569	-0.841881	0.538996	-0.026811	-0.519369	-0.822718	-0.231065
09787	13.277380	-1.799966	4.866423	1.042955	0.568243	0.875779	-0.151065	-0.171164	0.973592	-0.846107	0.531670	-0.037813	-0.511157	-0.829476	-0.225140
09788	13.588786	-3.425566	7.157291	0.840301	0.895803	1.031016	-0.155281	-0.158267	0.975110	-0.848820	0.526336	-0.049742	-0.505363	-0.835417	-0.216071
09789	13.364938	-4.864844	9.250900	0.812363	1.344141	1.200991	-0.158724	-0.140629	0.977257	-0.851208	0.520999	-0.063279	-0.500251	-0.841893	-0.202399
09790	13.505726	-5.277545	9.876543	1.046707	1.783427	1.411553	-0.161924	-0.118255	0.979692	-0.854170	0.513935	-0.079143	-0.494139	-0.849639	-0.184228
09791	13.049901	-4.375880	8.818698	1.462928	2.200012	1.601000	-0.164863	-0.091207	0.982090	-0.858952	0.502687	-0.097507	-0.484791	-0.859643	-0.161217
09792	12.758209	-2.215306	7.319493	1.802933	2.535904	1.684482	-0.167262	-0.060936	0.984028	-0.864813	0.488330	-0.116759	-0.473415	-0.870529	-0.134377
09793	12.154878	0.807018	5.341254	1.862684	2.806534	1.594674	-0.167996	-0.028569	0.985374	-0.871109	0.472220	-0.134824	-0.461461	-0.881018	-0.104217
09794	10.811657	3.581691	3.113095	1.637197	2.984894	1.304250	-0.165788	0.003900	0.986154	-0.876431	0.457846	-0.149152	-0.452088	-0.889023	-0.072487
09795	9.831396	5.150493	1.255254	1.218518	2.933720	0.886828	-0.160442	0.034204	0.986452	-0.880710	0.446273	-0.158718	-0.445656	-0.894243	-0.041477
09796	11.648951	6.036490	0.093040	0.626186	2.781730	0.459454	-0.152143	0.061121	0.986467	-0.882798	0.440404	-0.163441	-0.444433	-0.895717	-0.013047
09797	13.236115	5.840170	-1.201786	-0.171548	2.706281	0.094617	-0.140927	0.085881	0.986288	-0.882131	0.441354	-0.164476	-0.449427	-0.893214	0.013560
09798	16.035309	5.262507	-2.807514	-0.908719	2.700726	-0.133346	-0.127489	0.109305	0.985799	-0.878193	0.449524	-0.163416	-0.461003	-0.886555	0.038682
09799	16.231778	4.515179	-3.984511	-1.391190	2.660670	-0.271501	-0.112696	0.131665	0.984868	-0.872224	0.461665	-0.161525	-0.475946	-0.877229	0.062814
09800	17.433937	3.932897	-3.945052	-1.456042	2.495192	-0.364039	-0.097497	0.151706	0.983606	-0.865588	0.474832	-0.159034	-0.491174	-0.866903	0.085020
09801	15.356591	3.695450	-3.882618	-1.281069	2.371212	-0.403541	-0.082262	0.170327	0.981948	-0.859777	0.486144	-0.156353	-0.504000	-0.857119	0.106452
09802	13.776731	2.458270	-3.009142	-1.037717	2.241983	-0.360993	-0.067781	0.187655	0.979893	-0.854788	0.495591	-0.154035	-0.514532	-0.848042	0.126814
09803	13.711141	1.724412	-2.343474	-0.845660	2.029090	-0.230399	-0.055333	0.203736	0.977461	-0.850722	0.502864	-0.152972	-0.522696	-0.840011	0.145498
09804	13.640487	0.856215	-2.016981	-1.074747	2.032631	-0.182288	-0.043092	0.219773	0.974599	-0.845165	0.512179	-0.152866	-0.532765	-0.830284	0.163674
09805	13.936336	-0.399634	-1.660380	-1.366359	1.986995	-0.157180	-0.031101	0.235436	0.971392	-0.838022	0.523536	-0.153720	-0.544750	-0.818828	0.181018
09806	14.655007	-1.169169	-2.104200	-1.478936	1.864080	-0.131391	-0.019763	0.249877	0.968076	-0.829932	0.535827	-0.155249	-0.557515	-0.806505	0.196791
09807	15.843321	-1.507258	-2.956890	-1.324974	1.941667	-0.068404	-0.008302	0.265130	0.964177	-0.822626	0.546383	-0.157328	-0.568522	-0.794463	0.213567
09808	15.578612	-1.731814	-3.652719	-1.134261	2.338467	-0.088599	0.005795	0.283062	0.959084	-0.816156	0.555519	-0.159024	-0.577803	-0.781840	0.234242
09809	12.819845	-1.484583	-3.394354	-0.978101	2.672673	-0.176975	0.022743	0.302855	0.952765	-0.810564	0.563441	-0.159752	-0.585209	-0.768643	0.258298
09810	9.760184	-1.373279	-2.761602	-0.848369	2.799316	-0.260996	0.041285	0.322694	0.945603	-0.805521	0.570676	-0.159578	-0.591127	-0.755115	0.283497
09811	8.131486	-1.197532	-2.242603	-0.733274	2.573042	-0.348572	0.059321	0.340008	0.938550	-0.801095	0.577181	-0.158462	-0.595591	-0.742467	0.306618
09812	7.982470	-0.923995	-2.332274	-0.759672	2.365449	-0.426029	0.076832	0.354939	0.931727	-0.796295	0.584208	-0.156889	-0.600009	-0.729876	0.327523
09813	8.284520	-0.783381	-2.586664	-0.873812	2.224450	-0.470995	0.093943	0.368294	0.924951	-0.790712	0.592121	-0.155459	-0.604938	-0.716765	0.346840
09814	8.292992	-0.808917	-2.799674	-1.039156	2.142080	-0.471650	0.110647	0.380674	0.918066	-0.783946	0.601218	-0.154811	-0.610890	-0.702584	0.364950
09815	8.015019	-1.020505	-3.079345	-1.175012	2.092574	-0.425115	0.126794	0.392658	0.910902	-0.776286	0.610951	-0.155303	-0.617498	-0.687429	0.382280
09816	7.413987	-1.336677	-3.259127	-1.297329	2.038032	-0.350681	0.142128	0.404338	0.903499	-0.767791	0.621119	-0.157186	-0.624737	-0.671358	0.398725
09817	6.644477	-1.781327	-3.068231	-1.370097	1.943668	-0.274625	0.156426	0.415504	0.896040	-0.758811	0.631285	-0.160265	-0.632248	-0.654855	0.414039
09818	5.942438	-1.867685	-2.689837	-1.381782	1.788898	-0.235458	0.169546	0.425570	0.888900	-0.749675	0.641170	-0.163976	-0.639720	-0.638585	0.427748
09819	5.674840	-1.676862	-2.223498	-1.384943	1.575765	-0.253592	0.181565	0.433855	0.882499	-0.740342	0.650973	-0.167714	-0.647246	-0.622900	0.439395
09820	5.438613	-1.292097	-2.124925	-1.390217	1.384730	-0.297708	0.192737	0.440419	0.876860	-0.730772	0.660788	-0.171266	-0.654848	-0.607775	0.449204
09821	5.168139	-0.924500	-2.209907	-1.357860	1.210103	-0.345681	0.203209	0.445356	0.871989	-0.721155	0.670470	-0.174375	-0.662301	-0.593404	0.457416
09822	5.170884	-1.025752	-2.043558	-1.242532	1.051822	-0.380500	0.212904	0.448958	0.867818	-0.712131	0.679424	-0.176785	-0.668986	-0.580362	0.464369
09823	5.021671	-1.185912	-1.748383	-1.015561	0.954869	-0.427761	0.222344	0.451480	0.864135	-0.704374	0.687200	-0.177801	-0.674107	-0.569141	0.470805
09824	4.957096	-1.329530	-1.172229	-0.759794	0.871994	-0.480011	0.231569	0.453087	0.860865	-0.698190	0.693623	-0.177254	-0.677427	-0.560000	0.476962
09825	4.933798	-1.362664	-0.529995	-0.540200	0.753013	-0.528876	0.240358	0.453539	0.858213	-0.693258	0.699052	-0.175268	-0.679427	-0.552836	0.482443
09826	5.110061	-1.325633	-0.109386	-0.445827	0.605841	-0.571666	0.248396	0.452859	0.856281	-0.688869	0.704057	-0.172520	-0.680998	-0.547012	0.486846
09827	5.348855	-1.819393	-0.224572	-0.431896	0.451825	-0.615420	0.255704	0.450908	0.855159	-0.684345	0.709224	-0.169331	-0.682852	-0.541926	0.489928
09828	5.789029	-2.644679	-0.029452	-0.334013	0.299565	-0.640354	0.262089	0.447968	0.854771	-0.680445	0.713869	-0.165487	-0.684328	-0.538252	0.491915
09829	6.547253	-3.964802	0.240497	-0.115218	0.161513	-0.645488	0.267576	0.444150	0.855064	-0.677914	0.717405	-0.160505	-0.684715	-0.536713	0.493056
09830	6.270520	-5.065109	0.190480	0.228977	0.059291	-0.646045	0.272328	0.439828	0.855797	-0.677777	0.718993	-0.153840	-0.682976	-0.538145	0.493907
09831	5.338685	-4.737368	0.842656	0.639605	-0.135033	-0.709342	0.276209	0.433936	0.857559	-0.680160	0.718664	-0.144582	-0.679037	-0.543342	0.493647
09832	4.551395	-3.607090	1.424042	0.910684	-0.428405	-0.840349	0.279010	0.425555	0.860846	-0.684028	0.717252	-0.132869	-0.673987	-0.551771	0.491213
09833	4.415227	-2.759552	1.234469	1.138022	-0.803131	-0.983574	0.280342	0.413980	0.866042	-0.688900	0.715054	-0.118805	-0.668450	-0.563311	0.485650
09834	5.080818	-2.222412	1.163117	1.370262	-1.165053	-1.102621	0.280187	0.399464	0.872883	-0.694967	0.711682	-0.102615	-0.662206	-0.577873	0.477018
09835	6.042907	-2.039782	1.850766	1.609407	-1.453045	-1.158258	0.278670	0.382676	0.880853	-0.702320	0.706785	-0.084866	-0.655050	-0.594991	0.465721
09836	7.763214	-1.960965	4.139698	1.746148	-1.578213	-1.154569	0.276518	0.365014	0.888990	-0.710523	0.700514	-0.066620	-0.647067	-0.613226	0.453055
09837	9.756433	-1.271527	6.113842	1.771845	-1.453086	-1.121813	0.275150	0.348107	0.896166	-0.718812	0.693498	-0.048686	-0.638437	-0.630779	0.441039
09838	10.891392	0.480398	7.162921	1.664429	-1.239692	-1.152074	0.275580	0.332234	0.902040	-0.726232	0.686747	-0.031069	-0.629795	-0.646529	0.430533
09839	11.306825	2.258870	8.385619	1.409591	-1.101733	-1.293744	0.278062	0.316140	0.907048	-0.731479	0.681733	-0.013369	-0.622592	-0.659769	0.420814
09840	11.281825	3.163617	9.034653	1.113642	-0.968689	-1.467036	0.282777	0.299712	0.911159	-0.734306	0.678803	0.004609	-0.617116	-0.670372	0.412030
09841	10.897637	3.384835	9.849687	0.781982	-0.947135	-1.533332	0.288167	0.282876	0.914845	-0.734744	0.677994	0.021797	-0.614094	-0.678458	0.403217
09842	11.730270	2.470360	11.923051	0.506267	-1.028587	-1.348997	0.291729	0.266711	0.918564	-0.733977	0.678210	0.036183	-0.613329	-0.684760	0.393613
09843	10.995320	2.213300	12.414595	0.237134	-1.080030	-0.921668	0.291818	0.253003	0.922405	-0.732756	0.678962	0.045590	-0.614744	-0.689202	0.383523
09844	9.504873	1.597069	12.363785	-0.229248	-1.112848	-0.470899	0.288362	0.242116	0.926406	-0.730013	0.681669	0.049077	-0.619620	-0.690440	0.373315
09845	7.457661	1.987227	8.703189	-0.784439	-1.231739	-0.232232	0.282326	0.232029	0.930836	-0.724490	0.687587	0.048346	-0.628813	-0.688031	0.362226
09846	7.504549	1.790099	2.079615	-1.379179	-1.570205	-0.239321	0.274030	0.219608	0.936312	-0.715092	0.697537	0.045681	-0.643080	-0.682067	0.348186
09847	11.496500	-0.567193	-3.760984	-1.833960	-1.952430	-0.250177	0.263036	0.204611	0.942839	-0.702499	0.710456	0.041805	-0.661292	-0.673340	0.330615
09848	17.709055	-3.300800	-2.233502	-2.469521	-1.837788	-0.041044	0.250933	0.192065	0.948759	-0.685831	0.726955	0.034229	-0.683131	-0.659278	0.314141
09849	15.714069	-5.010071	3.780858	-3.208189	-0.987538	0.164681	0.242914	0.186854	0.951881	-0.663957	0.747426	0.022718	-0.707216	-0.637527	0.305623
09850	8.846222	-5.464939	5.526545	-2.995233	-0.573771	0.007825	0.238711	0.183314	0.953631	-0.642519	0.766149	0.013560	-0.728138	-0.615964	0.300671
09851	6.964425	-6.443712	2.071828	-2.298262	-0.745708	-0.262993	0.234831	0.176756	0.955830	-0.625031	0.780545	0.009218	-0.744440	-0.599588	0.293774
09852	9.330357	-9.305412	-1.429652	-1.712514	-0.983550	-0.275145	0.229113	0.168753	0.958660	-0.611577	0.791155	0.006896	-0.757285	-0.587875	0.284469
09853	11.603581	-11.370557	-1.166501	-0.901074	-1.066103	-0.265583	0.222535	0.160444	0.961632	-0.604214	0.796792	0.006882	-0.765117	-0.582563	0.274257
09854	12.477137	-9.155562	-0.233592	0.557668	-1.114619	-0.296597	0.215776	0.151556	0.964610	-0.607872	0.793956	0.011233	-0.764155	-0.588783	0.263443
09855	12.151597	-2.660975	-0.569278	2.137726	-1.019111	-0.430281	0.210589	0.142145	0.967185	-0.623313	0.781695	0.020833	-0.753082	-0.607246	0.253217
09856	10.536815	4.506249	-0.187536	2.721408	-0.912240	-0.667649	0.207980	0.131335	0.969276	-0.642246	0.765742	0.034052	-0.737743	-0.629595	0.243608
09857	9.202992	9.968423	0.140124	2.372384	-0.892943	-0.816606	0.206660	0.119488	0.971089	-0.658014	0.751502	0.047565	-0.724092	-0.648820	0.233930
09858	9.079012	12.228949	-0.124991	1.408200	-0.952043	-0.665045	0.204173	0.108282	0.972928	-0.666834	0.743004	0.057245	-0.716691	-0.660469	0.223908
09859	9.568903	10.640947	-0.426004	0.184517	-0.984182	-0.353765	0.199396	0.099144	0.974891	-0.667497	0.742105	0.061054	-0.717418	-0.662910	0.214151
09860	9.817193	6.949350	-0.896404	-0.939035	-1.023859	-0.187925	0.193223	0.090982	0.976927	-0.660394	0.748445	0.060913	-0.725634	-0.656926	0.204701
09861	10.274328	3.598590	-1.613019	-1.535574	-1.071421	-0.159888	0.186363	0.082752	0.978990	-0.648854	0.758591	0.059395	-0.737738	-0.646290	0.195068
09862	10.383309	0.841639	-2.202953	-1.701550	-1.053427	-0.186979	0.179691	0.074576	0.980892	-0.635891	0.769598	0.057978	-0.750569	-0.634159	0.185712
09863	9.984672	-1.571408	-2.673406	-1.576759	-1.031269	-0.196857	0.173060	0.066509	0.982663	-0.623591	0.779666	0.057053	-0.762354	-0.622654	0.176403
09864	9.855640	-3.780823	-2.820233	-1.337234	-1.024322	-0.190264	0.166342	0.058688	0.984320	-0.613050	0.788013	0.056617	-0.772334	-0.612855	0.167058
09865	9.738665	-5.548674	-2.423920	-0.864621	-1.041291	-0.192466	0.159354	0.050757	0.985916	-0.606005	0.793409	0.057102	-0.779336	-0.606569	0.157192
09866	9.740511	-5.760376	-2.007251	-0.078823	-1.090405	-0.220402	0.152144	0.042393	0.987449	-0.605090	0.793958	0.059145	-0.781485	-0.606493	0.146448
09867	9.744711	-4.262838	-1.649401	0.786323	-1.149978	-0.248548	0.144587	0.033370	0.988929	-0.610853	0.789259	0.062678	-0.778430	-0.613153	0.134501
09868	10.206932	-1.228510	-1.201755	1.455095	-1.198122	-0.261217	0.136880	0.023901	0.990299	-0.621802	0.780293	0.067114	-0.771120	-0.624957	0.121668
09869	8.885666	1.255112	-1.407519	1.740511	-1.175662	-0.304988	0.129676	0.014072	0.991457	-0.634745	0.769350	0.072101	-0.761763	-0.638672	0.108699
09870	8.569759	2.582534	-1.088703	1.752979	-1.232608	-0.337397	0.122475	0.003536	0.992465	-0.647630	0.758032	0.077220	-0.752047	-0.652208	0.095130
09871	10.307455	3.348426	-0.406488	1.675860	-1.263077	-0.300127	0.114886	-0.007089	0.993353	-0.659793	0.746999	0.081639	-0.742613	-0.664787	0.081143
09872	10.679265	3.544969	0.151534	1.480807	-1.209335	-0.271929	0.107731	-0.017216	0.994031	-0.670464	0.737007	0.085428	-0.734079	-0.675666	0.067855
09873	10.062669	3.393851	0.474535	1.190081	-1.194702	-0.260401	0.100647	-0.027309	0.994547	-0.678868	0.728882	0.088714	-0.727330	-0.684095	0.054820
09874	8.702853	3.339781	0.653857	0.915391	-1.269844	-0.179780	0.092634	-0.037346	0.995000	-0.685368	0.722498	0.090925	-0.722281	-0.690364	0.041332
09875	8.827821	2.885643	1.222855	0.579911	-1.353883	-0.097326	0.083433	-0.047487	0.995381	-0.689430	0.718478	0.092065	-0.719531	-0.693927	0.027206
09876	10.127122	1.768817	1.043382	0.222580	-1.230599	-0.075148	0.075066	-0.056577	0.995572	-0.691010	0.716859	0.092840	-0.718937	-0.694919	0.014716
09877	9.868771	1.132028	0.575555	-0.074056	-1.047593	-0.076923	0.067951	-0.064471	0.995603	-0.690385	0.717365	0.093573	-0.720244	-0.693708	0.004236
09878	10.308505	0.930556	1.655655	-0.248224	-0.949336	-0.071549	0.061561	-0.071565	0.995534	-0.688586	0.719001	0.094267	-0.722537	-0.691315	-0.005016
09879	10.330873	1.800058	2.471325	-0.265419	-0.778909	-0.040466	0.056095	-0.077295	0.995429	-0.686609	0.720837	0.094665	-0.724859	-0.688781	-0.012636
09880	8.833050	2.636308	1.645127	-0.250329	-0.752662	-0.042900	0.050891	-0.082786	0.995267	-0.684807	0.722491	0.095112	-0.726945	-0.686406	-0.019924
09881	8.762249	2.417646	0.478985	-0.234956	-0.851155	-0.120608	0.045417	-0.089550	0.994946	-0.683008	0.724029	0.096344	-0.728997	-0.683932	-0.028280
09882	8.969946	1.802797	-0.860343	-0.146612	-0.904936	-0.186313	0.040050	-0.097086	0.994470	-0.681897	0.724823	0.098223	-0.730351	-0.682060	-0.037173
09883	8.937521	1.614543	-1.966156	-0.029214	-1.031345	-0.142763	0.033385	-0.105210	0.993889	-0.681595	0.724915	0.099632	-0.730968	-0.680756	-0.047510
09884	9.461008	1.841223	-2.239337	0.042597	-1.148243	-0.033880	0.025187	-0.113273	0.993245	-0.681934	0.724556	0.099924	-0.730980	-0.679844	-0.058995
09885	8.917254	1.700954	-2.303461	0.081057	-1.290688	0.065003	0.015203	-0.121637	0.992458	-0.682494	0.724128	0.099205	-0.730733	-0.678855	-0.072007
09886	9.400388	0.860540	-1.977918	0.085525	-1.414515	0.131457	0.003938	-0.130285	0.991469	-0.683168	0.723681	0.097810	-0.730250	-0.677725	-0.086157
09887	9.474279	-0.101313	-1.129118	0.116790	-1.453669	0.176869	-0.007993	-0.138917	0.990272	-0.683963	0.723182	0.095928	-0.729472	-0.676543	-0.100795
09888	9.733164	-0.392502	-0.077567	0.211707	-1.406376	0.230575	-0.019855	-0.146768	0.988972	-0.685511	0.722048	0.093393	-0.727792	-0.676096	-0.114947
09889	10.786245	-0.418168	1.308194	0.326585	-1.317513	0.267839	-0.031379	-0.153807	0.987603	-0.687768	0.720289	0.090323	-0.725252	-0.676407	-0.128386
09890	11.406961	-0.420836	2.584010	0.401147	-1.149511	0.250003	-0.041456	-0.159796	0.986279	-0.690616	0.717935	0.087291	-0.722033	-0.677521	-0.140120
09891	11.776638	-0.195913	3.923633	0.472178	-0.875170	0.223930	-0.049416	-0.164176	0.985193	-0.693888	0.715123	0.084366	-0.718385	-0.679445	-0.149258
09892	10.808441	0.074017	5.041383	0.583749	-0.649001	0.189588	-0.055418	-0.167249	0.984356	-0.698005	0.711431	0.081581	-0.713946	-0.682564	-0.156167
09893	9.795189	0.116902	5.084954	0.756946	-0.525316	0.132169	-0.060172	-0.169938	0.983616	-0.703313	0.706474	0.079032	-0.708329	-0.687034	-0.162029
09894	8.990932	-0.221634	3.234594	0.959499	-0.566517	0.057536	-0.064606	-0.173449	0.982722	-0.710073	0.699921	0.076854	-0.701158	-0.692839	-0.168380
09895	8.943963	-0.705094	0.731965	1.150555	-0.702699	0.019810	-0.069721	-0.178217	0.981518	-0.718104	0.691924	0.074625	-0.692435	-0.699629	-0.176220
09896	9.832755	-1.097275	-0.933344	1.329079	-0.885932	0.062738	-0.076299	-0.184025	0.979956	-0.727226	0.682656	0.071574	-0.682144	-0.707188	-0.185913
09897	10.629062	-1.042566	-1.242907	1.422608	-0.949027	0.162344	-0.083982	-0.189681	0.978247	-0.736759	0.672807	0.067207	-0.670920	-0.715088	-0.196253
09898	11.806568	-0.715621	-0.140777	1.389678	-0.916098	0.269785	-0.092112	-0.194473	0.976574	-0.745799	0.663303	0.061744	-0.659772	-0.722641	-0.206135
09899	12.552315	-0.355128	1.459101	1.313104	-0.760364	0.348629	-0.099773	-0.197700	0.975172	-0.754108	0.654400	0.055514	-0.649128	-0.729846	-0.214378
09900	13.176177	-0.196091	3.029244	1.244899	-0.571031	0.409305	-0.106587	-0.199235	0.974138	-0.761734	0.646050	0.048786	-0.639062	-0.736834	-0.220624
09901	12.477048	-0.108853	4.253669	1.142782	-0.329094	0.503795	-0.112587	-0.198425	0.973628	-0.768502	0.638515	0.041262	-0.629864	-0.743590	-0.224379
09902	11.586534	-0.286930	5.558131	0.980081	-0.111717	0.581217	-0.117803	-0.195576	0.973587	-0.773997	0.632309	0.033366	-0.622134	-0.749623	-0.225863
09903	11.262120	-0.780801	5.846587	0.897296	0.087420	0.603759	-0.121989	-0.191092	0.973962	-0.778923	0.626606	0.025380	-0.615140	-0.755545	-0.225285
09904	10.813493	-1.398811	4.823239	0.897124	0.264848	0.587996	-0.124997	-0.185425	0.974676	-0.783714	0.620872	0.017610	-0.608415	-0.761666	-0.222927
09905	11.104171	-2.392909	3.779117	0.971265	0.403601	0.593630	-0.127246	-0.178629	0.975654	-0.788969	0.614358	0.009582	-0.601112	-0.768542	-0.219107
09906	11.617000	-3.334403	3.471701	1.105680	0.546044	0.647951	-0.129150	-0.170465	0.976863	-0.794768	0.606913	0.000832	-0.593013	-0.776272	-0.213863
09907	11.927503	-3.896614	3.717183	1.237845	0.744251	0.742473	-0.130709	-0.160122	0.978405	-0.801247	0.598264	-0.009132	-0.583882	-0.785138	-0.206495
09908	12.727826	-3.806747	4.626796	1.365550	0.986535	0.860889	-0.131957	-0.147230	0.980261	-0.808050	0.588762	-0.020346	-0.574145	-0.794784	-0.196660
09909	12.864122	-3.163793	5.467006	1.443316	1.293668	1.016999	-0.132858	-0.130868	0.982457	-0.815107	0.578360	-0.033187	-0.563871	-0.805217	-0.183511
09910	11.966027	-2.482457	6.184700	1.455145	1.587606	1.161745	-0.133525	-0.111355	0.984770	-0.821719	0.567935	-0.047197	-0.554030	-0.815506	-0.167336
09911	11.458189	-1.960945	6.925942	1.405691	1.843402	1.310457	-0.134216	-0.088757	0.986969	-0.827906	0.557378	-0.062460	-0.544571	-0.825501	-0.148292
09912	11.453666	-1.270404	7.486375	1.251273	2.106057	1.467140	-0.135041	-0.063184	0.988823	-0.832723	0.548068	-0.078702	-0.536970	-0.834044	-0.126627
09913	11.452447	-0.607644	7.228698	1.035922	2.368350	1.544074	-0.135293	-0.034829	0.990193	-0.836415	0.539749	-0.095296	-0.531137	-0.841105	-0.102156
09914	11.615589	0.203367	4.335537	0.890394	2.674853	1.507980	-0.133804	-0.004186	0.990999	-0.839123	0.532486	-0.111048	-0.527229	-0.846428	-0.074761
09915	11.120592	1.357507	1.024561	0.711910	2.829230	1.299825	-0.129876	0.026827	0.991167	-0.841416	0.525855	-0.124486	-0.524549	-0.850151	-0.045723
09916	10.239790	2.100688	-0.939117	0.625018	2.858181	1.003910	-0.123397	0.056394	0.990754	-0.843442	0.520071	-0.134652	-0.522856	-0.852259	-0.016610
09917	11.652456	2.943100	-2.250768	0.647156	2.769014	0.662702	-0.114601	0.083577	0.989890	-0.846280	0.513646	-0.141342	-0.520266	-0.853922	0.011865
09918	14.300726	3.711926	-2.869970	0.549025	2.711385	0.279226	-0.102917	0.108148	0.988793	-0.848853	0.508643	-0.143983	-0.518514	-0.854159	0.039454
09919	16.212566	4.087600	-2.981794	0.395750	2.693079	-0.126660	-0.087948	0.130623	0.987524	-0.851247	0.505015	-0.142611	-0.517342	-0.853169	0.066777
09920	17.261171	5.003019	-2.986030	0.236531	2.446470	-0.490959	-0.071141	0.148979	0.986278	-0.852887	0.503638	-0.137595	-0.517225	-0.850973	0.091233
09921	18.553874	6.159298	-2.603552	-0.008839	2.272273	-0.713682	-0.053338	0.164793	0.984885	-0.853477	0.504491	-0.130634	-0.518393	-0.847545	0.113739
09922	16.609781	6.745030	-1.950738	-0.440579	2.040348	-0.816943	-0.035781	0.177873	0.983403	-0.851574	0.509564	-0.123152	-0.523012	-0.841847	0.133239
09923	14.526752	5.508590	-1.443371	-0.766915	1.842457	-0.796925	-0.019346	0.189320	0.981725	-0.847916	0.517184	-0.116445	-0.529778	-0.834673	0.150522
09924	13.769592	4.421909	-1.017849	-1.119683	1.804675	-0.662413	-0.004134	0.200826	0.979618	-0.842036	0.527722	-0.111739	-0.539406	-0.825336	0.166921
09925	14.543501	3.111956	-0.750491	-1.491394	1.851197	-0.556840	0.010610	0.213098	0.976973	-0.834018	0.540880	-0.108920	-0.551635	-0.813658	0.183466
09926	14.804027	1.347830	-1.087889	-1.735506	1.939635	-0.461734	0.025241	0.226204	0.973753	-0.824270	0.555849	-0.107758	-0.565634	-0.799915	0.200483
09927	15.641081	-0.612005	-2.241745	-1.699345	1.991808	-0.350181	0.039494	0.240086	0.969948	-0.814551	0.569966	-0.107914	-0.578746	-0.785810	0.218072
09928	16.289937	-2.642239	-3.754233	-1.467911	2.221146	-0.205219	0.054098	0.256195	0.965110	-0.805912	0.581862	-0.109284	-0.589559	-0.771882	0.237948
09929	14.313072	-3.926750	-4.218275	-1.196026	2.530749	-0.136205	0.070197	0.274801	0.958935	-0.798825	0.591242	-0.110956	-0.597454	-0.758233	0.261021
09930	11.371725	-4.756165	-3.747738	-0.963774	2.736756	-0.139373	0.087699	0.294531	0.951609	-0.792964	0.598836	-0.112266	-0.602924	-0.744747	0.286069
09931	9.074425	-5.417714	-3.223900	-0.680000	2.707275	-0.170848	0.105385	0.313529	0.943713	-0.788768	0.604275	-0.112676	-0.605589	-0.732496	0.310983
09932	8.050282	-5.571956	-3.194333	-0.373246	2.534281	-0.183227	0.122143	0.330844	0.935747	-0.786335	0.607534	-0.112161	-0.605606	-0.722111	0.334360
09933	7.848043	-5.108008	-3.313937	-0.142371	2.368895	-0.176916	0.137818	0.346793	0.927761	-0.785314	0.609064	-0.111009	-0.603563	-0.713285	0.356281
09934	7.627130	-4.288341	-3.386749	0.007133	2.202935	-0.183142	0.152482	0.361299	0.919898	-0.785126	0.609616	-0.109290	-0.600271	-0.705571	0.376621
09935	7.258862	-3.266427	-3.477569	0.080047	2.025335	-0.210079	0.166203	0.374254	0.912311	-0.785329	0.609750	-0.107066	-0.596352	-0.698669	0.395254
09936	6.878306	-2.308967	-3.431338	0.066274	1.830264	-0.255309	0.179056	0.385418	0.905203	-0.785318	0.610214	-0.104476	-0.592634	-0.692165	0.411938
09937	6.666655	-1.415286	-3.110325	-0.035054	1.648119	-0.304173	0.191139	0.394912	0.898616	-0.784588	0.611588	-0.101888	-0.589820	-0.685569	0.426742
09938	6.256811	-0.274755	-2.957337	-0.180537	1.516675	-0.362333	0.202879	0.403029	0.892417	-0.782847	0.614220	-0.099421	-0.588210	-0.678455	0.440123
09939	5.754735	0.667387	-2.687205	-0.315940	1.392559	-0.447440	0.214523	0.409646	0.886662	-0.780075	0.618145	-0.096854	-0.587761	-0.670886	0.452161
09940	5.349216	1.509439	-2.423889	-0.418546	1.262204	-0.549443	0.226187	0.414649	0.881422	-0.776439	0.623156	-0.093905	-0.588201	-0.663131	0.462900
09941	4.932276	2.189645	-2.389403	-0.538174	1.129064	-0.659970	0.237918	0.417911	0.876781	-0.771733	0.629458	-0.090614	-0.589765	-0.655082	0.472275
09942	4.788157	2.320166	-2.332058	-0.679258	1.000124	-0.735572	0.249453	0.419758	0.872683	-0.765962	0.636916	-0.087408	-0.592516	-0.646639	0.480399
09943	4.737328	2.293459	-2.307520	-0.774087	0.876516	-0.773550	0.260550	0.420356	0.869146	-0.759357	0.645178	-0.084397	-0.596230	-0.638002	0.487301
09944	4.904523	1.949322	-2.215530	-0.797667	0.759883	-0.767160	0.270863	0.420187	0.866070	-0.752584	0.653415	-0.081644	-0.600208	-0.629676	0.493212
09945	5.045428	1.395320	-1.984554	-0.746630	0.651000	-0.776254	0.280602	0.419056	0.863513	-0.745889	0.661416	-0.078600	-0.604079	-0.622030	0.498164
09946	5.486980	0.155308	-1.089087	-0.636042	0.523150	-0.821298	0.289839	0.416827	0.861538	-0.739733	0.668743	-0.074689	-0.607280	-0.615661	0.502168
09947	5.290566	-1.375649	-0.133335	-0.427963	0.417680	-0.852016	0.298671	0.413541	0.860104	-0.734542	0.674997	-0.069471	-0.609297	-0.611034	0.505365
09948	4.190411	-2.415698	0.651314	-0.127539	0.267122	-0.873328	0.306666	0.409253	0.859341	-0.731161	0.679327	-0.062600	-0.609393	-0.609119	0.507557
09949	3.583553	-2.653280	2.485229	0.106224	-0.102278	-0.891409	0.312557	0.402433	0.860440	-0.728965	0.682389	-0.054359	-0.609031	-0.610240	0.506645
09950	2.266984	-2.978825	3.878784	0.305167	-0.539536	-1.010011	0.316596	0.392223	0.863672	-0.727685	0.684492	-0.044104	-0.608475	-0.614517	0.502122
09951	2.514313	-2.248532	4.571868	0.603830	-1.011011	-1.222551	0.319335	0.377482	0.869214	-0.727402	0.685534	-0.030478	-0.607381	-0.622535	0.493496
09952	4.070067	-1.930166	5.346324	0.759792	-1.423302	-1.491736	0.321514	0.358311	0.876494	-0.727272	0.686211	-0.013746	-0.606386	-0.633030	0.481216
09953	6.509047	-2.417108	6.112547	0.752124	-1.697447	-1.613779	0.322927	0.336296	0.884660	-0.726588	0.687061	0.004045	-0.606455	-0.644090	0.466219
09954	8.710501	-2.807347	8.157806	0.573219	-1.857772	-1.560754	0.322939	0.313498	0.892989	-0.725069	0.688370	0.020549	-0.608265	-0.654114	0.449609
09955	11.071004	-2.373668	10.794235	0.396383	-1.845769	-1.337192	0.321325	0.292062	0.900805	-0.723157	0.689831	0.034297	-0.611387	-0.662444	0.432867
09956	13.053297	-1.364165	12.909798	0.145547	-1.604557	-0.945550	0.318277	0.274852	0.907279	-0.721065	0.691502	0.043468	-0.615438	-0.668043	0.418276
09957	13.779334	-1.258957	13.636230	-0.152609	-1.273734	-0.455662	0.313633	0.263136	0.912356	-0.718695	0.693737	0.046976	-0.620574	-0.670439	0.406693
09958	12.017504	-1.753679	13.881232	-0.402461	-0.930147	-0.032308	0.308033	0.256672	0.916098	-0.716125	0.696477	0.045654	-0.626323	-0.670103	0.398347
09959	8.839397	-2.023777	12.623748	-0.568183	-0.792765	0.089363	0.302342	0.251998	0.919286	-0.712873	0.700000	0.042569	-0.632773	-0.668204	0.391282
09960	5.975231	-1.224664	7.367978	-0.578950	-0.860383	-0.106117	0.297590	0.245508	0.922587	-0.708912	0.704087	0.041304	-0.639441	-0.666324	0.383573
09961	4.695201	-0.192613	-2.968828	-0.455662	-1.245528	-0.353876	0.292019	0.234753	0.927155	-0.705026	0.707887	0.042821	-0.646269	-0.666173	0.372223
09962	7.456753	-1.482423	-9.227814	-0.471316	-1.896038	-0.392656	0.282409	0.219321	0.933886	-0.700872	0.711881	0.044762	-0.654999	-0.667176	0.354757
09963	14.703260	-3.139711	-2.687686	-0.663370	-2.079605	-0.219575	0.270143	0.203893	0.940984	-0.695946	0.716714	0.044498	-0.665344	-0.666895	0.335513
09964	18.434450	-2.270950	9.855094	-1.061597	-1.325539	-0.030536	0.261429	0.194862	0.945349	-0.688785	0.723789	0.041286	-0.676188	-0.661935	0.323437
09965	14.090537	0.780580	12.909283	-1.338074	-0.609997	-0.101450	0.257885	0.190129	0.947284	-0.679469	0.732724	0.037911	-0.686890	-0.653426	0.318146
09966	12.918733	0.783388	8.584553	-1.781165	-0.775820	-0.247953	0.254136	0.183270	0.949646	-0.666517	0.744684	0.034653	-0.700835	-0.641762	0.311404
09967	15.925138	-2.890083	5.021222	-2.100433	-0.827434	-0.239264	0.249772	0.176262	0.952127	-0.651119	0.758366	0.030416	-0.716700	-0.627545	0.304186
09968	13.732009	-5.054799	2.422577	-1.736595	-0.649343	-0.195002	0.246299	0.170735	0.954037	-0.638121	0.769461	0.027038	-0.729478	-0.615451	0.298467
09969	10.609731	-4.700924	-1.287382	-0.625856	-0.523837	-0.162035	0.243407	0.166328	0.955556	-0.633254	0.773484	0.026672	-0.734671	-0.611602	0.293600
09970	7.174241	-2.737406	-4.674597	0.516565	-0.404784	-0.323565	0.242458	0.161344	0.956652	-0.636302	0.770807	0.031267	-0.732349	-0.616300	0.289551
09971	4.878838	-0.164241	-4.882149	1.181425	-0.500399	-0.511960	0.241985	0.154360	0.957923	-0.643787	0.764185	0.039488	-0.725935	-0.626254	0.284297
09972	6.004951	3.635699	-4.343845	1.594528	-0.829181	-0.514371	0.239304	0.145203	0.960026	-0.654101	0.754826	0.048880	-0.717555	-0.639651	0.275610
09973	9.874197	7.167292	-4.258751	1.779165	-1.122308	-0.310524	0.233249	0.135638	0.962911	-0.666133	0.743682	0.056603	-0.708422	-0.654630	0.263816
09974	12.645603	9.352447	-4.740904	1.332816	-1.207564	-0.164085	0.225798	0.126447	0.965933	-0.675200	0.735057	0.061612	-0.702225	-0.666110	0.251351
09975	13.311269	8.580074	-5.034232	0.461388	-1.227275	-0.170398	0.218241	0.116956	0.968861	-0.678078	0.732167	0.064357	-0.701841	-0.671009	0.239095
09976	12.526056	5.151557	-4.620451	-0.408487	-1.210272	-0.189756	0.210964	0.107449	0.971570	-0.674835	0.735079	0.065237	-0.707172	-0.669412	0.227586
09977	11.116744	1.277342	-4.874914	-1.008273	-1.200103	-0.192923	0.203625	0.097942	0.974138	-0.667223	0.742028	0.064865	-0.716485	-0.663175	0.216445
09978	10.042896	-1.598606	-4.554901	-1.215999	-1.214188	-0.203513	0.196176	0.088416	0.976574	-0.658083	0.750197	0.064276	-0.726940	-0.655276	0.205356
09979	9.427038	-3.082753	-3.266026	-1.020276	-1.239112	-0.208960	0.188374	0.078655	0.978943	-0.650144	0.757088	0.064275	-0.736090	-0.648561	0.193753
09980	9.258788	-2.768731	-2.435887	-0.576761	-1.335412	-0.221806	0.179905	0.068330	0.981308	-0.645515	0.760946	0.065357	-0.742256	-0.645207	0.181006
09981	9.328619	-1.075158	-1.523239	-0.165296	-1.433585	-0.280545	0.170928	0.056842	0.983643	-0.643721	0.762250	0.067811	-0.745927	-0.644782	0.166880
09982	8.212852	-0.368656	-1.151407	0.100076	-1.430016	-0.460615	0.163178	0.044098	0.985611	-0.643742	0.761801	0.072494	-0.747642	-0.646308	0.152697
09983	9.275258	1.374064	-0.063195	0.331603	-1.549781	-0.517135	0.154792	0.030017	0.987491	-0.645321	0.759913	0.078057	-0.748064	-0.649331	0.136999
09984	11.023959	3.118904	0.012398	0.337738	-1.545604	-0.489329	0.146356	0.016242	0.989099	-0.647154	0.757793	0.083315	-0.748179	-0.652293	0.121418
09985	11.925278	3.400972	0.523998	0.170363	-1.435873	-0.445522	0.138356	0.003379	0.990377	-0.647706	0.756802	0.087903	-0.749222	-0.653635	0.106897
09986	10.492255	3.107941	1.221521	-0.009337	-1.327441	-0.426751	0.131126	-0.008530	0.991329	-0.647104	0.756818	0.092106	-0.751041	-0.653570	0.093718
09987	7.466833	2.807614	1.844442	-0.192046	-1.420250	-0.353550	0.122585	-0.020597	0.992244	-0.645110	0.758107	0.095436	-0.754193	-0.651805	0.079645
09988	8.025070	2.079209	2.939457	-0.316569	-1.615897	-0.222365	0.111762	-0.032798	0.993194	-0.642498	0.760073	0.097399	-0.758094	-0.649010	0.063875
09989	9.605212	0.407972	2.831683	-0.500980	-1.642562	-0.205771	0.100451	-0.045103	0.993919	-0.638368	0.763318	0.099156	-0.763149	-0.644446	0.047884
09990	10.831247	-1.887884	2.148805	-0.580190	-1.355390	-0.245976	0.091603	-0.055688	0.994237	-0.633732	0.766886	0.101342	-0.768110	-0.639363	0.034958
09991	10.402288	-3.552789	2.270041	-0.337340	-1.086897	-0.228660	0.084546	-0.064473	0.994331	-0.630849	0.768971	0.103501	-0.771285	-0.636024	0.024341
09992	9.955684	-2.756779	2.588296	0.115515	-0.965787	-0.146392	0.077986	-0.071744	0.994370	-0.631664	0.768105	0.104959	-0.771310	-0.636292	0.014583
09993	9.704019	-0.461965	2.424072	0.467450	-0.946204	-0.032700	0.070767	-0.078103	0.994430	-0.635186	0.765148	0.105298	-0.769110	-0.639100	0.004537
09994	9.610087	1.244249	1.780420	0.589502	-0.975246	-0.035914	0.063475	-0.084631	0.994388	-0.639728	0.761308	0.105630	-0.765976	-0.642843	-0.005817
09995	9.317472	1.891853	0.608808	0.583235	-0.952794	-0.181580	0.057223	-0.092216	0.994093	-0.644036	0.757428	0.107335	-0.762852	-0.646374	-0.016049
09996	9.918817	2.351069	-0.482078	0.570266	-0.949012	-0.283950	0.051797	-0.100515	0.993586	-0.648263	0.753427	0.110014	-0.759653	-0.649804	-0.026135
09997	9.586351	3.026268	-1.054935	0.534723	-0.926452	-0.268049	0.046381	-0.108629	0.993000	-0.652141	0.749708	0.112475	-0.756677	-0.652793	-0.036069
09998	8.992779	3.173028	-1.584960	0.431414	-0.988932	-0.193260	0.040138	-0.116545	0.992374	-0.655357	0.746637	0.114192	-0.754252	-0.654943	-0.046411
09999	8.804344	2.405860	-2.195848	0.315796	-1.069947	-0.109867	0.032661	-0.124450	0.991688	-0.657639	0.744490	0.115087	-0.752625	-0.655932	-0.057528
10000	9.392595	1.301792	-2.760697	0.241524	-1.142110	-0.012775	0.024120	-0.132042	0.990951	-0.659492	0.742858	0.115037	-0.751325	-0.656298	-0.069163
10001	9.086326	0.317453	-3.151777	0.248480	-1.210173	0.089677	0.014301	-0.139397	0.990133	-0.661307	0.741413	0.113932	-0.749979	-0.656411	-0.081581
10002	9.371795	-0.233862	-2.497787	0.308391	-1.264049	0.173773	0.003646	-0.146415	0.989217	-0.663671	0.739605	0.111916	-0.748016	-0.656922	-0.094475
10003	9.760237	-0.344395	-1.306480	0.390148	-1.251322	0.208285	-0.007234	-0.153178	0.988172	-0.666510	0.737421	0.109430	-0.745461	-0.657835	-0.107429
10004	10.402870	-0.006345	-0.138898	0.458486	-1.126490	0.196092	-0.016960	-0.159159	0.987107	-0.669935	0.734676	0.106947	-0.742226	-0.659484	-0.119086
10005	11.008989	0.780993	1.014376	0.431229	-1.008000	0.181931	-0.025798	-0.164547	0.986032	-0.673028	0.732186	0.104577	-0.739167	-0.660929	-0.129634
10006	11.746780	1.197966	2.377483	0.401557	-0.794160	0.158945	-0.032765	-0.168645	0.985132	-0.675981	0.729763	0.102445	-0.736190	-0.662574	-0.137911
10007	10.947188	1.055766	3.197677	0.484821	-0.577006	0.120439	-0.037962	-0.171655	0.984425	-0.679450	0.726802	0.100532	-0.732739	-0.665052	-0.144222
10008	9.970082	0.890001	3.254654	0.625177	-0.462825	0.054669	-0.041752	-0.174350	0.983798	-0.684032	0.722696	0.099047	-0.728256	-0.668814	-0.149435
10009	9.486824	0.830760	2.715772	0.808411	-0.467256	-0.014023	-0.045175	-0.177633	0.983059	-0.689873	0.717280	0.097906	-0.722520	-0.673763	-0.154947
10010	8.957617	0.695010	1.680774	1.029881	-0.553354	-0.038406	-0.048922	-0.181658	0.982144	-0.697330	0.710208	0.096626	-0.715079	-0.680151	-0.161420
10011	9.077936	0.174885	0.361311	1.242788	-0.669392	-0.010859	-0.053722	-0.186349	0.981014	-0.706151	0.701710	0.094624	-0.706020	-0.687661	-0.169288
10012	8.869076	-0.439516	-1.384555	1.411041	-0.814641	0.049521	-0.059819	-0.191646	0.979639	-0.716046	0.692010	0.091654	-0.695485	-0.695984	-0.178623
10013	9.010153	-0.895358	-2.643042	1.417247	-0.971422	0.125262	-0.067543	-0.197616	0.977950	-0.725740	0.682349	0.087760	-0.684646	-0.703809	-0.189505
10014	10.366045	-1.185182	-2.513313	1.278159	-1.064063	0.190510	-0.076200	-0.203855	0.976031	-0.734322	0.673661	0.083372	-0.674510	-0.710369	-0.201029
10015	11.299601	-1.363444	-1.477967	1.074046	-1.031439	0.249338	-0.085072	-0.209566	0.974087	-0.741316	0.666531	0.078655	-0.665742	-0.715415	-0.212058
10016	12.522758	-1.570156	0.319902	0.871822	-0.838923	0.304653	-0.092929	-0.213570	0.972498	-0.746850	0.660888	0.073770	-0.658468	-0.719454	-0.220921
10017	12.177226	-1.393957	1.795360	0.809567	-0.521016	0.340301	-0.099009	-0.215108	0.971559	-0.751840	0.655770	0.068573	-0.651870	-0.723667	-0.226653
10018	11.206317	-0.120818	2.700904	0.830402	-0.236882	0.339057	-0.103138	-0.214621	0.971236	-0.756914	0.650436	0.063353	-0.645324	-0.728609	-0.229535
10019	10.927887	0.939120	2.799751	0.874794	-0.021804	0.324719	-0.105846	-0.212683	0.971371	-0.762227	0.644697	0.058101	-0.638597	-0.734256	-0.230352
10020	10.894320	1.434920	2.082539	0.947591	0.073098	0.327529	-0.107923	-0.210052	0.971715	-0.767924	0.638369	0.052704	-0.631383	-0.740516	-0.230199
10021	11.055754	1.532492	1.322531	1.007624	0.084191	0.334745	-0.110063	-0.207297	0.972067	-0.773934	0.631517	0.047044	-0.623629	-0.747137	-0.229940
10022	11.170225	1.072392	0.787631	1.064093	0.073608	0.358353	-0.112426	-0.204504	0.972388	-0.780157	0.624234	0.041082	-0.615399	-0.753996	-0.229725
10023	11.233527	-0.008460	0.851974	1.147752	0.067560	0.402794	-0.115245	-0.201485	0.972688	-0.786770	0.616285	0.034441	-0.606392	-0.761313	-0.229546
10024	11.275136	-1.089052	1.827116	1.176377	0.109183	0.464636	-0.118294	-0.197815	0.973075	-0.793335	0.608177	0.027192	-0.597181	-0.768758	-0.228877
10025	11.656153	-2.064157	3.470917	1.093382	0.225924	0.532991	-0.121265	-0.192831	0.973710	-0.799255	0.600679	0.019418	-0.588631	-0.775887	-0.226963
10026	12.409197	-2.943399	5.663172	0.973420	0.497391	0.598179	-0.123186	-0.185392	0.974913	-0.804246	0.594188	0.011371	-0.581390	-0.782669	-0.222296
10027	12.487543	-3.902940	7.495064	0.914753	0.851877	0.720030	-0.124119	-0.174402	0.976821	-0.808751	0.588146	0.002244	-0.574905	-0.789726	-0.214048
10028	12.319484	-4.596735	9.609565	0.873442	1.203725	0.918071	-0.124710	-0.159489	0.979291	-0.812633	0.582712	-0.008585	-0.569276	-0.796875	-0.202276
10029	12.021372	-4.942577	11.876892	1.077157	1.585574	1.151211	-0.125156	-0.140050	0.982203	-0.817446	0.575581	-0.022092	-0.562243	-0.805663	-0.186521
10030	12.823865	-3.694718	12.747703	1.550263	1.988010	1.408838	-0.125680	-0.115898	0.985278	-0.824343	0.564766	-0.038719	-0.551963	-0.817073	-0.166519
10031	14.134624	-1.753314	10.991235	1.949857	2.440232	1.614424	-0.125776	-0.086688	0.988264	-0.833159	0.550006	-0.057791	-0.538541	-0.830649	-0.141403
10032	14.781166	0.144258	7.054932	2.050864	2.914507	1.715971	-0.124684	-0.052996	0.990780	-0.841942	0.533990	-0.077391	-0.524965	-0.843829	-0.111199
10033	13.685837	1.783875	3.105452	1.744852	3.280303	1.669603	-0.121790	-0.016215	0.992423	-0.849188	0.519342	-0.095726	-0.513855	-0.854413	-0.077020
10034	11.709934	2.465694	1.024617	1.168800	3.399994	1.488172	-0.117121	0.020580	0.992904	-0.853406	0.509242	-0.111221	-0.507917	-0.860377	-0.042080
10035	11.104967	2.283330	0.027926	0.518025	3.221303	1.216572	-0.111215	0.054621	0.992294	-0.854880	0.503900	-0.123551	-0.506765	-0.862033	-0.009347
10036	11.873385	1.703611	-0.016700	-0.240799	3.045881	0.898045	-0.103399	0.085346	0.990972	-0.852714	0.505296	-0.132491	-0.512042	-0.858715	0.020529
10037	13.919989	0.902252	-0.951903	-0.906147	2.711692	0.546284	-0.094085	0.111450	0.989306	-0.847718	0.512098	-0.138310	-0.522036	-0.851666	0.046297
10038	15.933339	0.152399	-4.155907	-1.156072	2.461348	0.234075	-0.083100	0.133499	0.987559	-0.841433	0.521558	-0.141309	-0.533934	-0.842707	0.068989
10039	18.439416	0.474583	-4.830676	-0.762513	2.179080	-0.046146	-0.071067	0.151674	0.985873	-0.837585	0.527649	-0.141555	-0.541665	-0.835812	0.089541
10040	18.706407	1.919057	-4.569311	-0.064551	2.160747	-0.324846	-0.056656	0.167965	0.984164	-0.837470	0.528659	-0.138436	-0.543539	-0.832051	0.110714
10041	16.518289	3.678838	-4.904866	0.526013	2.121858	-0.602517	-0.040181	0.182549	0.982375	-0.840797	0.525022	-0.131952	-0.539857	-0.831281	0.132391
10042	14.904037	5.428954	-3.975776	0.826070	2.056984	-0.727892	-0.023037	0.195839	0.980365	-0.845489	0.519482	-0.123640	-0.533495	-0.831737	0.153612
10043	13.352958	5.220884	-1.725596	0.533101	2.093740	-0.652987	-0.006446	0.209946	0.977692	-0.848564	0.516125	-0.116426	-0.529054	-0.830384	0.174825
10044	13.085496	4.644453	-0.142220	-0.111724	2.096794	-0.492676	0.008802	0.224744	0.974378	-0.847995	0.518071	-0.111835	-0.529931	-0.825283	0.195142
10045	14.971183	3.567738	-0.455017	-0.873491	2.013155	-0.399729	0.022870	0.239249	0.970689	-0.843395	0.525963	-0.109765	-0.536808	-0.816163	0.213811
10046	17.044286	2.157159	-1.970477	-1.304047	2.171889	-0.314066	0.037245	0.255162	0.966181	-0.836263	0.537254	-0.109649	-0.547063	-0.803897	0.233392
10047	16.149185	0.552381	-3.327141	-1.394832	2.452158	-0.168660	0.052152	0.273837	0.960361	-0.828584	0.548661	-0.111449	-0.557431	-0.789927	0.255511
10048	12.807789	-0.910642	-3.813883	-1.364110	2.760975	-0.113262	0.068575	0.294798	0.953096	-0.820877	0.559605	-0.114027	-0.566973	-0.774555	0.280368
10049	8.708400	-2.142340	-3.819662	-1.336267	2.809945	-0.167131	0.085960	0.315418	0.945051	-0.813186	0.570254	-0.116361	-0.575621	-0.758500	0.305513
10050	6.757386	-3.015122	-3.782303	-1.229424	2.607547	-0.250601	0.103062	0.333545	0.937084	-0.805859	0.580250	-0.117904	-0.583069	-0.743006	0.328592
10051	6.185902	-2.939704	-3.734981	-1.149198	2.356052	-0.329655	0.119484	0.348959	0.929490	-0.798809	0.589753	-0.118727	-0.589600	-0.728298	0.349218
10052	6.280253	-2.266666	-3.603157	-1.082740	2.114866	-0.364530	0.134880	0.362041	0.922352	-0.791964	0.598813	-0.119233	-0.595483	-0.714388	0.367492
10053	6.419846	-1.258707	-3.471653	-1.060190	1.925014	-0.378901	0.149345	0.373375	0.915580	-0.785121	0.607658	-0.119738	-0.601067	-0.700959	0.383895
10054	6.495348	-0.450470	-3.461817	-1.118022	1.791396	-0.389799	0.163177	0.383417	0.909046	-0.777795	0.616848	-0.120557	-0.606967	-0.687379	0.398875
10055	6.283305	0.032351	-3.711481	-1.175578	1.701728	-0.408835	0.176688	0.392432	0.902651	-0.769944	0.626413	-0.121625	-0.613162	-0.673501	0.412830
10056	5.999835	0.465198	-3.879757	-1.188505	1.603792	-0.424480	0.189788	0.400438	0.896454	-0.761880	0.635974	-0.122787	-0.619290	-0.659687	0.425786
10057	5.654931	0.791423	-3.901589	-1.177591	1.504756	-0.447030	0.202514	0.407350	0.890536	-0.753664	0.645482	-0.123868	-0.625282	-0.646080	0.437724
10058	5.206441	0.733409	-3.731069	-1.119283	1.379457	-0.460752	0.214597	0.413175	0.885006	-0.745713	0.654488	-0.124734	-0.630762	-0.633192	0.448561
10059	4.776146	0.692888	-3.283331	-0.997493	1.212953	-0.473980	0.225781	0.417588	0.880138	-0.738315	0.662762	-0.125054	-0.635543	-0.621584	0.457950
10060	4.480543	0.964759	-2.690478	-0.821935	0.994643	-0.511273	0.235844	0.420313	0.876193	-0.731935	0.669931	-0.124354	-0.639256	-0.611988	0.465641
10061	4.375975	1.213419	-2.189692	-0.617649	0.797236	-0.572225	0.245121	0.421213	0.873210	-0.726539	0.676169	-0.122217	-0.641917	-0.604463	0.471770
10062	4.360110	1.232554	-1.990329	-0.451354	0.573734	-0.687292	0.253752	0.419996	0.871328	-0.721963	0.681734	-0.118355	-0.643723	-0.599035	0.476213
10063	4.575558	0.607900	-1.993009	-0.417660	0.379707	-0.844610	0.262283	0.416359	0.870548	-0.717006	0.687854	-0.112958	-0.645841	-0.594561	0.478944
10064	4.759043	-0.569437	-2.243385	-0.489549	0.223140	-0.966597	0.270595	0.410996	0.870552	-0.711302	0.694712	-0.106885	-0.648712	-0.590303	0.480328
10065	4.923393	-1.981742	-1.928555	-0.550814	0.062804	-0.972989	0.277902	0.404432	0.871324	-0.704946	0.702031	-0.101016	-0.652550	-0.586163	0.480198
10066	4.418143	-3.489777	-1.115375	-0.433365	-0.132730	-0.942826	0.283620	0.397005	0.872896	-0.699505	0.708304	-0.094865	-0.655937	-0.583689	0.478596
