// General information: 
//  MT Manager version: 2022.2.0 
//  XDA version: 2022.2.0 build 7381 rev 124627 built on 2023-07-19
// Device information: 
//  DeviceId: 00B4CB9F
//  ProductCode: MTW2-3A7G6
//  Firmware Version: 4.6.0
//  Hardware Version: 2.0.0
// Device settings: 
//  Filter Profile: human(46.1)
//  Option Flags: Orientation Smoother Disabled, Position/Velocity Smoother Disabled, Continuous Zero Rotation Update Disabled, AHS Disabled, ICC Disabled
// Coordinate system: ENU
PacketCounter	Acc_X	Acc_Y	Acc_Z	Gyr_X	Gyr_Y	Gyr_Z	Mat[1][1]	Mat[2][1]	Mat[3][1]	Mat[1][2]	Mat[2][2]	Mat[3][2]	Mat[1][3]	Mat[2][3]	Mat[3][3]
36654	9.752946	-1.316154	-0.377381	0.023067	-0.021335	0.028075	0.019394	-0.091898	0.995580	0.385458	-0.918102	-0.092255	0.922521	0.385543	0.017617
36655	9.736064	-1.184733	-0.326051	0.055861	-0.059899	0.039807	0.020201	-0.092050	0.995549	0.386073	-0.917799	-0.092695	0.922247	0.386227	0.016997
36656	9.680178	-1.033621	-0.341155	0.074976	-0.089635	0.054495	0.021176	-0.092156	0.995519	0.386703	-0.917487	-0.093159	0.921961	0.386943	0.016208
36657	9.611406	-0.843831	-0.395140	0.071172	-0.127503	0.054334	0.022663	-0.092178	0.995485	0.387454	-0.917111	-0.093741	0.921610	0.387829	0.014930
36658	9.658160	-0.706362	-0.418588	0.067323	-0.152102	0.041208	0.024238	-0.091953	0.995468	0.388014	-0.916833	-0.094137	0.921335	0.388537	0.013457
36659	9.734973	-0.812103	-0.222938	0.094345	-0.166697	0.023690	0.025966	-0.091538	0.995463	0.388984	-0.916394	-0.094414	0.920878	0.389671	0.011812
36660	9.806901	-1.005305	-0.005879	0.144387	-0.157367	0.022791	0.027543	-0.091127	0.995458	0.390265	-0.915826	-0.094635	0.920290	0.391099	0.010339
36661	9.969052	-1.136066	0.216082	0.221049	-0.135151	0.032706	0.029015	-0.090913	0.995436	0.392396	-0.914878	-0.094993	0.919339	0.393361	0.009128
36662	9.913458	-1.140623	0.326095	0.283918	-0.107706	0.052601	0.030265	-0.090967	0.995394	0.394907	-0.913743	-0.095512	0.918222	0.395979	0.008269
36663	9.821804	-0.940509	0.442017	0.306164	-0.110266	0.064257	0.031633	-0.091131	0.995336	0.397802	-0.912416	-0.096181	0.916926	0.398990	0.007390
36664	9.741134	-0.756675	0.601474	0.301366	-0.114560	0.069433	0.032905	-0.091258	0.995283	0.400508	-0.911167	-0.096787	0.915702	0.401803	0.006568
36665	9.760633	-0.637581	0.685572	0.288092	-0.121821	0.064986	0.034382	-0.091374	0.995223	0.403228	-0.909894	-0.097470	0.914454	0.404653	0.005561
36666	9.709430	-0.530335	0.780960	0.229789	-0.116731	0.060705	0.035636	-0.091415	0.995175	0.405145	-0.908984	-0.098006	0.913557	0.406683	0.004644
36667	9.752105	-0.517924	0.739990	0.160124	-0.115319	0.050332	0.036994	-0.091417	0.995125	0.406695	-0.908233	-0.098554	0.912815	0.408358	0.003580
36668	9.728543	-0.562580	0.693904	0.085214	-0.113673	0.031752	0.038277	-0.091240	0.995093	0.407479	-0.907842	-0.098914	0.912412	0.409265	0.002428
36669	9.664809	-0.682387	0.630175	0.013732	-0.112596	0.013871	0.039462	-0.090919	0.995076	0.407704	-0.907720	-0.099106	0.912261	0.409607	0.001248
36670	9.617792	-0.805595	0.374041	-0.036394	-0.128670	0.009545	0.040651	-0.090462	0.995070	0.407235	-0.907923	-0.099176	0.912418	0.409259	-0.000069
36671	9.634551	-0.906315	0.214442	-0.057207	-0.148023	-0.001692	0.042095	-0.089855	0.995065	0.406819	-0.908105	-0.099213	0.912539	0.408987	-0.001672
36672	9.646949	-0.923203	0.109897	-0.058963	-0.166055	-0.009158	0.043498	-0.089056	0.995076	0.406076	-0.908455	-0.099055	0.912803	0.408385	-0.003352
36673	9.736999	-1.053091	0.184435	-0.032111	-0.165470	-0.005263	0.045087	-0.088347	0.995069	0.405890	-0.908538	-0.099056	0.912809	0.408355	-0.005104
36674	9.799796	-1.104277	0.321575	0.021265	-0.145715	-0.009603	0.046399	-0.087644	0.995071	0.406219	-0.908402	-0.098952	0.912597	0.408808	-0.006547
36675	9.810882	-1.118461	0.488176	0.094159	-0.109861	0.003387	0.047516	-0.087239	0.995054	0.407181	-0.907961	-0.099047	0.912111	0.409873	-0.007620
36676	9.817404	-1.087514	0.676398	0.175396	-0.075527	0.010731	0.048211	-0.086975	0.995043	0.408842	-0.907208	-0.099107	0.911331	0.411594	-0.008178
36677	9.770897	-0.960519	0.809111	0.227175	-0.044495	0.019489	0.048796	-0.086982	0.995014	0.411006	-0.906200	-0.099374	0.910326	0.413806	-0.008469
36678	9.730826	-0.803626	1.006544	0.239004	-0.014891	0.025633	0.049017	-0.087114	0.994992	0.413231	-0.905162	-0.099606	0.909306	0.416043	-0.008370
36679	9.724834	-0.793635	1.119094	0.207715	0.004487	0.024675	0.049178	-0.087369	0.994961	0.415210	-0.904221	-0.099924	0.908395	0.418032	-0.008192
36680	9.685110	-0.832641	1.144679	0.161407	0.019068	0.024491	0.049154	-0.087690	0.994934	0.416517	-0.903587	-0.100217	0.907798	0.419333	-0.007890
36681	9.653412	-0.809303	1.004840	0.124702	0.026392	0.016481	0.049083	-0.087963	0.994914	0.417744	-0.902995	-0.100445	0.907238	0.420549	-0.007576
36682	9.673704	-0.727803	0.792690	0.063606	0.032415	0.006462	0.048738	-0.088097	0.994919	0.418331	-0.902726	-0.100426	0.906986	0.421100	-0.007143
36683	9.752662	-0.653935	0.615718	-0.008565	0.021479	0.005737	0.048667	-0.088252	0.994909	0.418354	-0.902703	-0.100537	0.906979	0.421117	-0.007011
36684	9.810445	-0.606914	0.433307	-0.084833	0.010529	-0.002283	0.048587	-0.088245	0.994913	0.417853	-0.902940	-0.100493	0.907214	0.420610	-0.006997
36685	9.836777	-0.628622	0.286826	-0.134281	0.005542	-0.003344	0.048622	-0.088251	0.994911	0.416740	-0.903453	-0.100504	0.907725	0.419506	-0.007150
36686	9.763889	-0.716264	0.221304	-0.164864	0.011298	-0.006785	0.048458	-0.088202	0.994923	0.415293	-0.904133	-0.100380	0.908396	0.418049	-0.007182
36687	9.760125	-0.866411	0.063464	-0.178104	0.014439	-0.014758	0.048365	-0.088142	0.994933	0.413785	-0.904835	-0.100275	0.909089	0.416538	-0.007290
36688	9.693458	-0.961875	-0.114007	-0.183600	0.008171	-0.028528	0.048242	-0.087945	0.994956	0.412175	-0.905597	-0.100031	0.909827	0.414921	-0.007439
36689	9.723402	-0.964424	-0.231731	-0.171381	-0.014149	-0.031583	0.048340	-0.087614	0.994981	0.410733	-0.906282	-0.099758	0.910473	0.413494	-0.007824
36690	9.699078	-1.002529	-0.270737	-0.148221	-0.031987	-0.032827	0.048471	-0.087192	0.995012	0.409118	-0.907050	-0.099413	0.911193	0.411896	-0.008294
36691	9.766056	-1.038875	-0.359799	-0.118593	-0.043122	-0.031378	0.048836	-0.086743	0.995033	0.408156	-0.907512	-0.099145	0.911605	0.410970	-0.008914
36692	9.822351	-1.020905	-0.320381	-0.075782	-0.041329	-0.022420	0.049135	-0.086389	0.995049	0.407119	-0.908001	-0.098935	0.912053	0.409964	-0.009444
36693	9.899649	-0.976065	-0.141956	-0.008800	-0.032683	-0.010430	0.049490	-0.086174	0.995050	0.407147	-0.907994	-0.098885	0.912021	0.410025	-0.009851
36694	9.943442	-0.980846	-0.049820	0.049172	-0.003518	0.002888	0.049371	-0.086105	0.995062	0.407406	-0.907890	-0.098776	0.911912	0.410271	-0.009744
36695	9.963291	-0.894806	0.004084	0.091138	0.015560	0.015018	0.049389	-0.086319	0.995043	0.408332	-0.907450	-0.098988	0.911496	0.411197	-0.009572
36696	9.924279	-0.800643	0.157299	0.112809	0.022946	0.026141	0.049241	-0.086556	0.995029	0.409764	-0.906786	-0.099158	0.910862	0.412610	-0.009183
36697	9.886543	-0.767029	0.263140	0.112128	0.036475	0.028617	0.049125	-0.086979	0.994998	0.410874	-0.906246	-0.099507	0.910368	0.413707	-0.008782
36698	9.715025	-0.790934	0.276476	0.079836	0.041236	0.039566	0.048927	-0.087499	0.994962	0.411574	-0.905884	-0.099904	0.910062	0.414389	-0.008310
36699	9.574056	-0.783096	0.212728	0.040394	0.024840	0.032073	0.048932	-0.087906	0.994926	0.412029	-0.905636	-0.100281	0.909856	0.414845	-0.008095
36700	9.550591	-0.791392	0.084262	-0.008508	-0.010838	0.016668	0.049110	-0.087974	0.994911	0.412115	-0.905581	-0.100417	0.909807	0.414950	-0.008218
36701	9.613622	-0.749339	0.054765	-0.055177	-0.032527	0.000181	0.049505	-0.087853	0.994903	0.411716	-0.905757	-0.100468	0.909966	0.414591	-0.008669
36702	9.657686	-0.659311	-0.035501	-0.103107	-0.048564	-0.014066	0.049805	-0.087489	0.994920	0.410694	-0.906245	-0.100250	0.910412	0.413600	-0.009204
36703	9.693640	-0.631745	0.038902	-0.139368	-0.050736	-0.023800	0.050268	-0.087076	0.994933	0.409539	-0.906789	-0.100054	0.910907	0.412493	-0.009921
36704	9.768182	-0.698405	0.097192	-0.154338	-0.032329	-0.027743	0.050396	-0.086696	0.994959	0.407818	-0.907599	-0.099741	0.911671	0.410789	-0.010383
36705	9.835060	-0.830058	0.188655	-0.156592	-0.015792	-0.037803	0.050485	-0.086302	0.994989	0.406511	-0.908222	-0.099402	0.912250	0.409493	-0.010769
36706	9.889793	-0.982984	0.197245	-0.135497	0.008642	-0.031280	0.050232	-0.085983	0.995029	0.405549	-0.908697	-0.098996	0.912692	0.408506	-0.010775
36707	9.862396	-1.132334	0.176333	-0.101549	0.023956	-0.034407	0.049972	-0.085782	0.995060	0.404742	-0.909089	-0.098696	0.913065	0.407674	-0.010710
36708	9.769506	-1.206060	0.147331	-0.063736	0.034156	-0.025602	0.049534	-0.085653	0.995093	0.404233	-0.909348	-0.098394	0.913314	0.407123	-0.010420
36709	9.646141	-1.217497	0.015750	-0.030051	0.024745	-0.016581	0.049339	-0.085616	0.995106	0.404069	-0.909433	-0.098280	0.913397	0.406941	-0.010276
36710	9.658741	-1.100158	-0.210825	-0.002463	0.006183	-0.008560	0.049188	-0.085536	0.995120	0.403843	-0.909549	-0.098142	0.913505	0.406699	-0.010196
36711	9.705790	-0.995142	-0.265438	0.017357	-0.022359	0.002910	0.049501	-0.085485	0.995109	0.404102	-0.909424	-0.098226	0.913373	0.406988	-0.010473
36712	9.760159	-0.824764	-0.219480	0.048590	-0.031116	0.010105	0.049810	-0.085442	0.995097	0.404466	-0.909253	-0.098317	0.913196	0.407380	-0.010731
36713	9.893697	-0.769412	-0.128284	0.070394	-0.025504	0.010972	0.050185	-0.085452	0.995078	0.405206	-0.908905	-0.098487	0.912847	0.408154	-0.010988
36714	9.919405	-0.788138	-0.008975	0.089095	-0.011028	0.009352	0.050278	-0.085509	0.995068	0.405552	-0.908741	-0.098582	0.912688	0.408508	-0.011011
36715	9.939714	-0.895292	0.135569	0.110268	0.016698	0.018689	0.050299	-0.085760	0.995045	0.406650	-0.908222	-0.098833	0.912198	0.409607	-0.010808
36716	9.841437	-0.927135	0.259557	0.122547	0.033117	0.020308	0.050131	-0.086115	0.995023	0.407746	-0.907702	-0.099101	0.911718	0.410684	-0.010391
36717	9.700275	-0.915858	0.330221	0.112039	0.029851	0.013119	0.050011	-0.086370	0.995007	0.408862	-0.907178	-0.099296	0.911225	0.411786	-0.010055
36718	9.684417	-0.951033	0.351688	0.074932	0.020299	0.001055	0.049838	-0.086431	0.995010	0.409674	-0.906812	-0.099289	0.910870	0.412578	-0.009786
36719	9.557135	-0.881674	0.276962	0.039933	0.012476	-0.010924	0.049777	-0.086396	0.995017	0.410145	-0.906605	-0.099238	0.910661	0.413041	-0.009694
36720	9.571863	-0.786731	0.173975	0.003650	-0.003897	-0.019867	0.049753	-0.086179	0.995037	0.410220	-0.906594	-0.099030	0.910629	0.413111	-0.009753
36721	9.616820	-0.657402	0.126418	-0.010875	-0.028760	-0.027145	0.050001	-0.085827	0.995055	0.410236	-0.906611	-0.098812	0.910608	0.413148	-0.010122
36722	9.703675	-0.607281	0.090744	-0.031976	-0.053145	-0.033626	0.050295	-0.085287	0.995086	0.409840	-0.906830	-0.098437	0.910770	0.412777	-0.010655
36723	9.776096	-0.650254	0.156960	-0.048167	-0.059404	-0.034094	0.050794	-0.084746	0.995107	0.409520	-0.907006	-0.098146	0.910886	0.412501	-0.011365
36724	9.643857	-0.761874	0.277707	-0.031611	-0.041618	-0.022777	0.051049	-0.084294	0.995132	0.409549	-0.907027	-0.097840	0.910859	0.412550	-0.011780
36725	9.664780	-0.865498	0.417665	-0.010187	-0.033774	-0.013765	0.051397	-0.084042	0.995136	0.409564	-0.907029	-0.097755	0.910832	0.412596	-0.012198
36726	9.759872	-0.942440	0.577385	0.028929	-0.000853	-0.008834	0.051362	-0.083956	0.995145	0.409758	-0.906951	-0.097665	0.910747	0.412784	-0.012181
36727	9.810767	-1.014879	0.647477	0.062475	0.041339	0.001669	0.051090	-0.084155	0.995142	0.410427	-0.906640	-0.097742	0.910461	0.413426	-0.011780
36728	9.854175	-1.019912	0.747737	0.078600	0.077610	0.010795	0.050353	-0.084538	0.995147	0.411125	-0.906318	-0.097794	0.910187	0.414054	-0.010880
36729	9.827699	-1.003088	0.636357	0.067574	0.094703	0.001770	0.049595	-0.084959	0.995149	0.411840	-0.905985	-0.097872	0.909906	0.414696	-0.009943
36730	9.807442	-0.995305	0.414185	0.055850	0.091719	-0.006333	0.048692	-0.085226	0.995171	0.412402	-0.905743	-0.097745	0.909700	0.415170	-0.008955
36731	9.810028	-0.828189	0.054351	0.011236	0.062943	-0.018779	0.048139	-0.085330	0.995189	0.412614	-0.905661	-0.097612	0.909633	0.415328	-0.008389
36732	9.759669	-0.794591	-0.316300	-0.028292	0.028777	-0.018375	0.047826	-0.085269	0.995209	0.412427	-0.905766	-0.097426	0.909734	0.415111	-0.008152
36733	9.719988	-0.774975	-0.512304	-0.062721	-0.010535	-0.015022	0.047957	-0.085102	0.995217	0.411964	-0.905988	-0.097323	0.909937	0.414661	-0.008389
36734	9.789838	-0.701757	-0.613958	-0.074571	-0.039909	-0.021175	0.048187	-0.084642	0.995246	0.411756	-0.906117	-0.096998	0.910019	0.414472	-0.008811
36735	9.821400	-0.725161	-0.609332	-0.078646	-0.045119	-0.031609	0.048564	-0.084182	0.995266	0.411156	-0.906418	-0.096729	0.910270	0.413907	-0.009408
36736	9.740399	-0.776590	-0.561375	-0.078198	-0.063332	-0.039326	0.048996	-0.083565	0.995297	0.410399	-0.906803	-0.096338	0.910589	0.413190	-0.010135
36737	9.833124	-0.923733	-0.352946	-0.068952	-0.073519	-0.042150	0.049589	-0.082892	0.995324	0.409893	-0.907071	-0.095964	0.910785	0.412735	-0.011004
36738	9.779053	-1.089572	-0.274005	-0.027638	-0.065357	-0.042962	0.049941	-0.082101	0.995372	0.410234	-0.906978	-0.095393	0.910612	0.413099	-0.011615
36739	9.729305	-1.203834	-0.123371	0.018447	-0.065445	-0.035838	0.050486	-0.081518	0.995392	0.410521	-0.906880	-0.095090	0.910453	0.413430	-0.012320
36740	9.696121	-1.246620	0.049496	0.074791	-0.066948	-0.026790	0.050977	-0.080958	0.995413	0.411355	-0.906532	-0.094796	0.910049	0.414300	-0.012909
36741	9.718579	-1.178508	0.222092	0.119343	-0.060881	-0.019540	0.051546	-0.080541	0.995418	0.412551	-0.906002	-0.094670	0.909475	0.415541	-0.013474
36742	9.789092	-1.066160	0.293004	0.164086	-0.044474	-0.013809	0.051912	-0.080311	0.995417	0.413585	-0.905535	-0.094628	0.908984	0.416602	-0.013793
36743	9.844104	-0.855472	0.378417	0.196971	-0.009956	-0.003589	0.052084	-0.080249	0.995413	0.415476	-0.904664	-0.094672	0.908112	0.418502	-0.013777
36744	9.761270	-0.620348	0.430561	0.221539	0.020894	0.009067	0.051868	-0.080353	0.995416	0.417583	-0.903690	-0.094708	0.907157	0.420581	-0.013319
36745	9.728688	-0.495968	0.512921	0.209553	0.041034	0.013899	0.051650	-0.080663	0.995402	0.419575	-0.902743	-0.094926	0.906250	0.422549	-0.012783
36746	9.727684	-0.400078	0.471703	0.152391	0.049176	0.001719	0.051141	-0.080858	0.995413	0.420860	-0.902147	-0.094905	0.905683	0.423783	-0.012107
36747	9.746963	-0.451040	0.268138	0.068385	0.042225	-0.003510	0.050840	-0.081017	0.995415	0.421581	-0.901808	-0.094930	0.905365	0.424474	-0.011693
36748	9.782823	-0.429187	0.084289	-0.009463	0.033815	-0.014092	0.050482	-0.081051	0.995431	0.421485	-0.901866	-0.094807	0.905429	0.424345	-0.011366
36749	9.737435	-0.502011	-0.219145	-0.073910	0.024059	-0.024178	0.050258	-0.080946	0.995451	0.420927	-0.902147	-0.094610	0.905701	0.423767	-0.011267
36750	9.736112	-0.577189	-0.431025	-0.120757	-0.002845	-0.035864	0.050090	-0.080628	0.995485	0.419615	-0.902797	-0.094234	0.906319	0.422441	-0.011388
36751	9.806311	-0.731747	-0.478841	-0.143969	-0.018498	-0.036053	0.050202	-0.080235	0.995511	0.418427	-0.903382	-0.093911	0.906862	0.421263	-0.011779
36752	9.824414	-0.848983	-0.502450	-0.139977	-0.030408	-0.037473	0.050339	-0.079791	0.995540	0.417057	-0.904053	-0.093547	0.907485	0.419906	-0.012232
36753	9.804257	-0.967776	-0.464679	-0.108173	-0.036253	-0.033156	0.050625	-0.079351	0.995560	0.416190	-0.904483	-0.093255	0.907867	0.419064	-0.012765
36754	9.794808	-1.140277	-0.422085	-0.065933	-0.041879	-0.034370	0.050853	-0.078842	0.995589	0.415661	-0.904765	-0.092881	0.908097	0.418551	-0.013238
36755	9.817174	-1.204107	-0.242809	-0.004367	-0.041380	-0.026698	0.051213	-0.078439	0.995603	0.415733	-0.904753	-0.092667	0.908044	0.418651	-0.013725
36756	9.846819	-1.203605	-0.094298	0.069909	-0.028793	-0.016101	0.051462	-0.078211	0.995608	0.416324	-0.904491	-0.092573	0.907759	0.419260	-0.013986
36757	9.811127	-1.091310	0.086023	0.146591	-0.011507	-0.000546	0.051659	-0.078170	0.995601	0.417753	-0.903825	-0.092640	0.907091	0.420701	-0.014035
36758	9.759714	-0.880868	0.280339	0.211122	0.010515	0.008315	0.051615	-0.078281	0.995594	0.419691	-0.902916	-0.092752	0.906198	0.422629	-0.013750
36759	9.740640	-0.661370	0.391255	0.228013	0.029736	0.014193	0.051500	-0.078546	0.995579	0.421846	-0.901887	-0.092976	0.905203	0.424770	-0.013313
36760	9.778555	-0.524029	0.460196	0.212789	0.046664	0.007741	0.051200	-0.078884	0.995568	0.423605	-0.901042	-0.093179	0.904399	0.426498	-0.012718
36761	9.796188	-0.512125	0.438719	0.162079	0.047131	0.008984	0.050908	-0.079177	0.995560	0.425163	-0.900291	-0.093341	0.903684	0.428027	-0.012168
36762	9.732430	-0.463223	0.290821	0.084581	0.041455	0.003293	0.050553	-0.079328	0.995566	0.426265	-0.899770	-0.093340	0.903184	0.429094	-0.011672
36763	9.722820	-0.515762	-0.065771	-0.001801	0.020681	-0.002899	0.050449	-0.079401	0.995565	0.426348	-0.899728	-0.093363	0.903151	0.429167	-0.011538
36764	9.699343	-0.522596	-0.194329	-0.055156	-0.006012	-0.013732	0.050445	-0.079278	0.995575	0.425666	-0.900064	-0.093240	0.903473	0.428486	-0.011658
36765	9.709404	-0.615279	-0.362786	-0.090793	-0.014846	-0.022367	0.050579	-0.079024	0.995589	0.424954	-0.900419	-0.093059	0.903801	0.427786	-0.011961
36766	9.801656	-0.706116	-0.367540	-0.097457	-0.026408	-0.030240	0.050678	-0.078593	0.995618	0.424197	-0.900812	-0.092702	0.904151	0.427036	-0.012313
36767	9.864662	-0.789848	-0.256808	-0.077579	-0.017342	-0.034185	0.050785	-0.078222	0.995642	0.423610	-0.901119	-0.092403	0.904420	0.426457	-0.012628
36768	9.872353	-0.852014	-0.149960	-0.034517	-0.006821	-0.027182	0.050759	-0.077940	0.995665	0.423379	-0.901255	-0.092134	0.904529	0.426221	-0.012749
36769	9.821405	-0.905210	0.056020	0.016446	0.001034	-0.020403	0.050758	-0.077772	0.995678	0.423635	-0.901150	-0.091984	0.904410	0.426473	-0.012794
36770	9.814379	-0.965676	0.223648	0.064809	0.016731	-0.011989	0.050616	-0.077762	0.995686	0.424180	-0.900900	-0.091923	0.904162	0.427003	-0.012615
36771	9.769649	-0.992895	0.361422	0.097472	0.035836	-0.003474	0.050372	-0.077895	0.995688	0.425160	-0.900435	-0.091952	0.903716	0.427958	-0.012239
36772	9.753108	-0.931322	0.338027	0.106766	0.043205	-0.004342	0.049985	-0.077997	0.995700	0.426341	-0.899883	-0.091893	0.903180	0.429101	-0.011727
36773	9.738073	-0.796999	0.259352	0.096712	0.040742	-0.006975	0.049682	-0.078119	0.995705	0.427315	-0.899421	-0.091887	0.902737	0.430045	-0.011303
36774	9.702891	-0.655083	0.081319	0.063803	0.030775	-0.011689	0.049421	-0.078196	0.995712	0.427777	-0.899206	-0.091849	0.902532	0.430482	-0.010990
36775	9.696477	-0.554440	-0.119815	0.026447	0.008843	-0.014636	0.049374	-0.078113	0.995721	0.428119	-0.899052	-0.091758	0.902373	0.430817	-0.010948
36776	9.743149	-0.582482	-0.168146	-0.017468	-0.012705	-0.016797	0.049425	-0.077896	0.995736	0.428009	-0.899123	-0.091583	0.902422	0.430710	-0.011099
36777	9.774414	-0.645066	-0.199492	-0.049673	-0.022235	-0.014889	0.049657	-0.077677	0.995741	0.427664	-0.899297	-0.091480	0.902573	0.430385	-0.011436
36778	9.691608	-0.679328	-0.272896	-0.055564	-0.029997	-0.013357	0.049923	-0.077450	0.995745	0.427103	-0.899573	-0.091384	0.902824	0.429848	-0.011830
36779	9.798442	-0.767716	-0.069097	-0.048753	-0.039518	-0.017936	0.050298	-0.077130	0.995752	0.426768	-0.899746	-0.091251	0.902961	0.429545	-0.012339
36780	9.839745	-0.914328	0.132489	-0.007926	-0.014477	-0.021467	0.050347	-0.076853	0.995770	0.426793	-0.899757	-0.091021	0.902947	0.429570	-0.012500
36781	9.783026	-0.959964	0.315700	0.029513	-0.003304	-0.014851	0.050408	-0.076715	0.995778	0.427163	-0.899591	-0.090929	0.902768	0.429943	-0.012577
36782	9.789374	-0.924695	0.512289	0.076041	0.019066	-0.008436	0.050230	-0.076676	0.995790	0.428192	-0.899111	-0.090831	0.902290	0.430952	-0.012330
36783	9.777745	-0.904829	0.604482	0.101519	0.036255	-0.006112	0.049972	-0.076788	0.995794	0.429207	-0.898627	-0.090834	0.901823	0.431941	-0.011948
36784	9.682549	-0.959062	0.588226	0.097189	0.039931	-0.002809	0.049651	-0.076935	0.995799	0.430148	-0.898176	-0.090840	0.901392	0.432851	-0.011502
36785	9.712436	-0.927384	0.516321	0.079941	0.040542	0.001390	0.049386	-0.077133	0.995797	0.430963	-0.897778	-0.090914	0.901017	0.433642	-0.011096
36786	9.608155	-0.860649	0.304606	0.050908	0.039860	-0.002167	0.049066	-0.077299	0.995800	0.431421	-0.897557	-0.090930	0.900816	0.434070	-0.010691
36787	9.665313	-0.813533	0.123950	0.039679	0.023506	-0.004796	0.048928	-0.077368	0.995801	0.431876	-0.897337	-0.090938	0.900605	0.434512	-0.010492
36788	9.725361	-0.746768	0.106539	0.037379	0.016901	-0.010069	0.048825	-0.077410	0.995803	0.432071	-0.897243	-0.090933	0.900517	0.434698	-0.010361
36789	9.723781	-0.688560	0.021550	0.024247	0.009016	-0.014373	0.048777	-0.077331	0.995812	0.432392	-0.897098	-0.090844	0.900365	0.435012	-0.010320
36790	9.798339	-0.620476	0.078399	0.013200	0.002921	-0.018602	0.048799	-0.077325	0.995811	0.431946	-0.897313	-0.090843	0.900578	0.434569	-0.010388
36791	9.812905	-0.617975	0.154944	0.008943	0.010090	-0.022452	0.048706	-0.077177	0.995827	0.432132	-0.897240	-0.090672	0.900494	0.434745	-0.010350
36792	9.796759	-0.684465	0.269858	-0.000387	0.016864	-0.022505	0.048541	-0.077024	0.995847	0.432458	-0.897104	-0.090466	0.900346	0.435053	-0.010236
36793	9.698849	-0.753488	0.219882	-0.010639	0.017999	-0.014577	0.048410	-0.076982	0.995857	0.432465	-0.897111	-0.090371	0.900350	0.435048	-0.010138
36794	9.683125	-0.782553	0.373870	-0.010428	0.014150	-0.015246	0.048270	-0.076935	0.995867	0.432301	-0.897200	-0.090266	0.900437	0.434871	-0.010049
36795	9.663294	-0.861303	0.592514	0.018705	0.030480	-0.010165	0.048047	-0.076986	0.995874	0.432569	-0.897076	-0.090218	0.900320	0.435119	-0.009800
36796	9.679114	-0.916923	0.758684	0.041746	0.042874	-0.002874	0.047759	-0.077266	0.995866	0.432560	-0.897067	-0.090344	0.900339	0.435087	-0.009421
36797	9.704300	-0.930845	0.885495	0.070442	0.066947	0.003552	0.047266	-0.077599	0.995864	0.433288	-0.896707	-0.090438	0.900015	0.435770	-0.008761
36798	9.694955	-0.938897	0.839853	0.084928	0.076053	0.011220	0.046715	-0.078101	0.995850	0.433821	-0.896427	-0.090654	0.899787	0.436255	-0.007995
36799	9.687154	-0.875092	0.739004	0.091262	0.079583	0.011119	0.046142	-0.078558	0.995841	0.434731	-0.895969	-0.090823	0.899378	0.437114	-0.007190
36800	9.691677	-0.830427	0.549183	0.071268	0.069176	0.002715	0.045545	-0.078876	0.995843	0.435521	-0.895582	-0.090854	0.899026	0.437848	-0.006437
36801	9.748096	-0.727767	0.285003	0.027592	0.057718	-0.001119	0.045116	-0.079129	0.995843	0.435863	-0.895411	-0.090896	0.898881	0.438152	-0.005908
36802	9.788221	-0.602336	-0.048957	-0.027559	0.035734	-0.016503	0.044787	-0.079182	0.995854	0.435544	-0.895577	-0.090796	0.899052	0.437805	-0.005623
36803	9.747540	-0.568855	-0.370384	-0.091124	-0.005832	-0.021012	0.044843	-0.078978	0.995867	0.434828	-0.895941	-0.090633	0.899396	0.437096	-0.005835
36804	9.715154	-0.526306	-0.643094	-0.134019	-0.053766	-0.022190	0.045333	-0.078635	0.995872	0.433378	-0.896654	-0.090528	0.900071	0.435693	-0.006569
36805	9.767359	-0.559846	-0.675855	-0.144791	-0.086490	-0.032016	0.046068	-0.077981	0.995890	0.432183	-0.897258	-0.090250	0.900608	0.434565	-0.007632
36806	9.848955	-0.686850	-0.512305	-0.123838	-0.110658	-0.038325	0.047027	-0.077260	0.995901	0.430789	-0.897953	-0.090003	0.901227	0.433256	-0.008945
36807	9.901041	-0.807213	-0.233850	-0.088179	-0.094611	-0.033970	0.047828	-0.076556	0.995918	0.430104	-0.898311	-0.089708	0.901512	0.432639	-0.010038
36808	9.727352	-0.930130	0.050147	-0.033782	-0.071291	-0.024909	0.048474	-0.076083	0.995922	0.429738	-0.898502	-0.089557	0.901652	0.432327	-0.010858
36809	9.582905	-1.095855	0.315121	0.018540	-0.067496	-0.007895	0.049144	-0.075731	0.995917	0.430002	-0.898377	-0.089533	0.901489	0.432646	-0.011585
36810	9.597195	-1.132855	0.346469	0.061967	-0.055597	-0.006217	0.049696	-0.075473	0.995909	0.430524	-0.898126	-0.089545	0.901210	0.433213	-0.012140
36811	9.667539	-0.989788	0.186425	0.090180	-0.053549	0.000966	0.050277	-0.075260	0.995896	0.431430	-0.897684	-0.089618	0.900745	0.434165	-0.012664
36812	9.758631	-0.820167	0.030160	0.095556	-0.050212	0.002036	0.050870	-0.075164	0.995873	0.431999	-0.897393	-0.089798	0.900438	0.434784	-0.013179
36813	9.782573	-0.614508	-0.177112	0.077619	-0.058959	0.003644	0.051512	-0.074951	0.995856	0.432789	-0.897002	-0.089897	0.900022	0.435626	-0.013768
36814	9.803584	-0.596133	-0.447201	0.059896	-0.080219	-0.001267	0.052336	-0.074670	0.995834	0.433123	-0.896829	-0.090009	0.899814	0.436029	-0.014595
36815	9.901650	-0.705287	-0.701311	0.042119	-0.087363	-0.007113	0.053187	-0.074236	0.995821	0.433599	-0.896601	-0.089997	0.899535	0.436573	-0.015499
36816	9.865826	-0.900279	-0.686640	0.053304	-0.114711	-0.004095	0.054295	-0.073750	0.995798	0.433990	-0.896406	-0.090052	0.899280	0.437056	-0.016663
36817	9.780141	-1.081223	-0.656769	0.099292	-0.145428	-0.007743	0.055664	-0.073055	0.995773	0.434980	-0.895927	-0.090045	0.898718	0.438153	-0.018093
36818	9.794934	-1.008214	-0.652275	0.148815	-0.192461	-0.010114	0.057534	-0.072312	0.995721	0.435695	-0.895562	-0.090214	0.898254	0.439021	-0.020019
36819	9.840544	-0.894873	-0.462064	0.177394	-0.237922	-0.010977	0.059718	-0.071178	0.995674	0.437386	-0.894739	-0.090195	0.897289	0.440880	-0.022300
36820	9.774860	-0.776477	-0.323710	0.175641	-0.255811	-0.008237	0.062134	-0.070205	0.995596	0.438029	-0.894403	-0.090406	0.896811	0.441717	-0.024821
36821	9.745276	-0.562449	-0.298470	0.147345	-0.271643	-0.014195	0.064602	-0.068886	0.995531	0.439449	-0.893711	-0.090358	0.895941	0.443323	-0.027464
36822	9.798692	-0.520639	-0.274026	0.100480	-0.289956	-0.029356	0.067159	-0.067402	0.995463	0.440173	-0.893373	-0.090186	0.895398	0.444232	-0.030330
36823	9.801647	-0.573715	-0.214720	0.067463	-0.285823	-0.034711	0.069660	-0.065831	0.995396	0.440891	-0.893046	-0.089916	0.894854	0.445124	-0.033186
36824	9.601263	-0.633640	-0.048848	0.058110	-0.298087	-0.036712	0.072307	-0.064347	0.995305	0.440830	-0.893091	-0.089764	0.894673	0.445251	-0.036211
36825	9.567322	-0.724738	0.033982	0.039373	-0.315752	-0.037324	0.075062	-0.062617	0.995211	0.441299	-0.892889	-0.089463	0.894215	0.445901	-0.039390
36826	9.711821	-0.689066	0.105685	0.050267	-0.323066	-0.042107	0.077878	-0.060837	0.995105	0.441779	-0.892683	-0.089150	0.893737	0.446560	-0.042643
36827	9.742867	-0.597104	0.281375	0.076440	-0.289424	-0.042186	0.080373	-0.059177	0.995007	0.442585	-0.892317	-0.088820	0.893118	0.447514	-0.045527
36828	9.723771	-0.519466	0.337318	0.089449	-0.258545	-0.043290	0.082601	-0.057745	0.994908	0.443064	-0.892105	-0.088563	0.892676	0.448124	-0.048104
36829	9.656967	-0.378974	0.350248	0.063149	-0.229118	-0.041810	0.084556	-0.056355	0.994824	0.443751	-0.891796	-0.088235	0.892152	0.448915	-0.050399
36830	9.687731	-0.257094	0.224317	0.019931	-0.212085	-0.050045	0.086355	-0.055073	0.994741	0.443621	-0.891895	-0.087891	0.892045	0.448877	-0.052588
36831	9.660215	-0.152013	0.058316	-0.044841	-0.191046	-0.060289	0.087888	-0.053688	0.994683	0.443361	-0.892079	-0.087324	0.892024	0.448678	-0.054599
36832	9.583058	-0.203722	-0.114141	-0.097901	-0.168504	-0.072871	0.089201	-0.052452	0.994632	0.441966	-0.892830	-0.086720	0.892586	0.447329	-0.056459
36833	9.623707	-0.413487	-0.237702	-0.141774	-0.149068	-0.092649	0.090219	-0.050969	0.994617	0.440871	-0.893463	-0.085775	0.893025	0.446236	-0.058137
36834	9.637780	-0.764571	-0.477856	-0.158803	-0.128484	-0.109153	0.090999	-0.049547	0.994618	0.439126	-0.894421	-0.084732	0.893805	0.444473	-0.059634
36835	9.800418	-1.104713	-0.625512	-0.090814	-0.106383	-0.109154	0.091567	-0.048109	0.994636	0.438501	-0.894829	-0.083650	0.894054	0.443808	-0.060841
36836	9.920296	-1.315940	-0.635848	0.037229	-0.085128	-0.090876	0.092050	-0.047043	0.994642	0.438515	-0.894892	-0.082908	0.893998	0.443797	-0.061746
36837	9.959766	-1.280329	-0.564681	0.179947	-0.068320	-0.056582	0.092508	-0.046244	0.994637	0.440262	-0.894070	-0.082515	0.893091	0.445534	-0.062350
36838	9.919641	-1.024398	-0.636090	0.289370	-0.067808	-0.023833	0.093056	-0.045760	0.994609	0.442789	-0.892822	-0.082505	0.891784	0.448080	-0.062821
36839	9.868518	-0.667007	-0.565875	0.334778	-0.082063	0.001916	0.093892	-0.045418	0.994546	0.445856	-0.891267	-0.082794	0.890166	0.451198	-0.063433
36840	9.904991	-0.329543	-0.264621	0.335004	-0.076863	0.007093	0.094727	-0.045255	0.994474	0.448444	-0.889929	-0.083213	0.888777	0.453849	-0.064006
36841	9.842322	-0.207254	0.185713	0.311762	-0.071791	0.002202	0.095471	-0.044957	0.994417	0.451296	-0.888460	-0.083494	0.887253	0.456748	-0.064533
36842	9.839455	-0.250328	0.539576	0.233314	-0.070277	-0.004467	0.096239	-0.044833	0.994348	0.452531	-0.887800	-0.083828	0.886540	0.458041	-0.065153
36843	9.733848	-0.520613	0.616597	0.110120	-0.082533	-0.014779	0.097000	-0.044333	0.994297	0.453606	-0.887253	-0.083812	0.885908	0.459148	-0.065954
36844	9.655063	-0.933329	0.586424	-0.026878	-0.126291	-0.037927	0.098157	-0.043694	0.994211	0.452448	-0.887855	-0.083689	0.886372	0.458043	-0.067380
36845	9.514187	-1.394220	0.369355	-0.118602	-0.172580	-0.054439	0.099537	-0.042431	0.994129	0.451534	-0.888373	-0.083127	0.886684	0.457158	-0.069267
36846	9.470194	-1.723491	0.021639	-0.144025	-0.226534	-0.074770	0.101305	-0.040879	0.994015	0.449815	-0.889311	-0.082416	0.887358	0.455473	-0.071703
36847	9.477288	-1.765356	-0.314808	-0.104404	-0.275612	-0.093609	0.103427	-0.038802	0.993880	0.449068	-0.889775	-0.081470	0.887491	0.454746	-0.074602
36848	9.511456	-1.645747	-0.428679	-0.025401	-0.326266	-0.108462	0.106019	-0.036615	0.993690	0.448080	-0.890351	-0.080614	0.887685	0.453799	-0.077987
36849	9.688625	-1.429805	-0.322521	0.060757	-0.354106	-0.123133	0.108705	-0.033921	0.993495	0.448834	-0.890072	-0.079500	0.886979	0.454557	-0.081531
36850	9.734775	-1.246931	-0.157991	0.144273	-0.354893	-0.126696	0.111397	-0.031341	0.993282	0.449730	-0.889707	-0.078510	0.886191	0.455454	-0.085016
36851	9.739070	-1.168422	0.149891	0.220980	-0.361133	-0.119204	0.114154	-0.028642	0.993050	0.451903	-0.888687	-0.077580	0.884733	0.457619	-0.088504
36852	9.885505	-1.233625	0.394119	0.250921	-0.350776	-0.119960	0.116898	-0.026262	0.992797	0.453285	-0.888046	-0.076864	0.883667	0.459005	-0.091906
36853	9.980015	-1.276234	0.558456	0.284481	-0.306047	-0.101646	0.119234	-0.023961	0.992577	0.455997	-0.886715	-0.076183	0.881958	0.461696	-0.094800
36854	9.818196	-1.025731	0.850165	0.344211	-0.242299	-0.062432	0.121318	-0.022662	0.992355	0.457871	-0.885747	-0.076203	0.880702	0.463616	-0.097081
36855	9.878612	-0.559416	1.347257	0.401549	-0.177262	-0.038344	0.122798	-0.021507	0.992199	0.461530	-0.883839	-0.076279	0.878584	0.467296	-0.098608
36856	10.339342	-0.285197	2.108503	0.390479	-0.073888	-0.051150	0.123333	-0.020814	0.992147	0.464772	-0.882138	-0.076282	0.876799	0.470530	-0.099123
36857	10.525158	-0.359047	2.769197	0.277925	0.071619	-0.063016	0.122509	-0.020606	0.992253	0.467364	-0.880793	-0.075994	0.875536	0.473053	-0.098275
36858	10.251358	-0.713130	3.204903	0.163324	0.212574	-0.062165	0.120555	-0.021406	0.992476	0.467755	-0.880601	-0.075811	0.875598	0.473375	-0.096148
36859	9.884971	-1.070473	3.710218	0.104818	0.339601	-0.055731	0.117418	-0.022533	0.992827	0.468818	-0.880069	-0.075420	0.875456	0.474311	-0.092772
36860	9.582229	-1.201586	4.185370	0.119887	0.497556	-0.050881	0.112998	-0.024763	0.993287	0.468905	-0.880035	-0.075283	0.875991	0.474264	-0.087831
36861	9.490251	-1.174557	4.748609	0.152131	0.673596	-0.060585	0.106911	-0.027438	0.993890	0.470383	-0.879280	-0.074872	0.875962	0.475514	-0.081099
36862	9.258888	-0.942068	5.210627	0.144918	0.862651	-0.089277	0.099026	-0.030947	0.994604	0.471175	-0.878908	-0.074259	0.876463	0.475986	-0.072453
36863	8.939153	-0.617911	5.281338	0.111355	1.020422	-0.139888	0.089519	-0.034587	0.995384	0.472363	-0.878376	-0.073003	0.876846	0.476718	-0.062293
36864	8.852883	-0.471773	4.944818	0.028909	1.089017	-0.219700	0.079021	-0.038049	0.996147	0.472167	-0.878644	-0.071016	0.877960	0.475959	-0.051465
36865	9.327967	-0.509009	4.530179	-0.058246	1.116642	-0.303957	0.067875	-0.040697	0.996863	0.471959	-0.878993	-0.068020	0.879004	0.475096	-0.040454
36866	10.078711	-0.676966	3.939504	-0.121184	1.148159	-0.371448	0.056082	-0.043025	0.997499	0.470709	-0.879934	-0.064418	0.880504	0.473145	-0.029096
36867	10.845824	-0.863949	3.465575	-0.116145	1.175790	-0.383218	0.044019	-0.045216	0.998007	0.469959	-0.880604	-0.060625	0.881590	0.471691	-0.017513
36868	11.705434	-1.230341	3.334002	-0.020210	1.201213	-0.353095	0.031867	-0.047925	0.998342	0.469452	-0.881098	-0.057281	0.882383	0.470500	-0.005580
36869	12.172013	-1.638660	2.824445	0.180515	1.261359	-0.258969	0.019621	-0.051595	0.998475	0.471194	-0.880329	-0.054749	0.881811	0.471550	0.007038
36870	12.130546	-1.952139	2.667243	0.445075	1.306853	-0.126398	0.007577	-0.056782	0.998358	0.474874	-0.878422	-0.053565	0.880021	0.474500	0.020308
36871	11.747453	-2.109332	2.638490	0.761089	1.324554	-0.009028	-0.004000	-0.063036	0.998003	0.481641	-0.874745	-0.053321	0.876359	0.480466	0.033859
36872	11.467838	-1.989334	2.681958	1.130735	1.330682	0.050748	-0.015329	-0.070047	0.997426	0.491264	-0.869366	-0.053503	0.870876	0.489179	0.047738
36873	11.552856	-1.763783	2.780191	1.480859	1.366056	0.058323	-0.026784	-0.077323	0.996646	0.504200	-0.861939	-0.053322	0.863172	0.501080	0.062073
36874	11.823767	-1.143736	3.008880	1.613423	1.458260	0.023281	-0.039167	-0.085020	0.995609	0.517799	-0.853887	-0.052547	0.854605	0.513467	0.077467
36875	12.183849	-0.898736	2.748915	1.548216	1.549425	-0.013888	-0.052314	-0.092954	0.994295	0.531038	-0.845804	-0.051132	0.845731	0.525334	0.093609
36876	12.228766	-0.642245	1.851798	1.454667	1.612422	-0.066160	-0.066199	-0.101049	0.992677	0.542939	-0.838334	-0.049131	0.837159	0.535710	0.110361
36877	12.272326	-0.475239	0.995660	1.309064	1.583218	-0.110292	-0.079893	-0.108686	0.990860	0.553845	-0.831318	-0.046530	0.828778	0.545066	0.126612
36878	12.510654	-0.329236	0.315273	1.181240	1.570158	-0.132881	-0.093548	-0.116284	0.988801	0.563024	-0.825280	-0.043787	0.821129	0.552622	0.142674
36879	12.519687	-0.265443	-0.246659	1.090303	1.580646	-0.141933	-0.107172	-0.123909	0.986489	0.571874	-0.819327	-0.040784	0.813311	0.559777	0.158669
36880	12.196150	-0.214776	-0.410345	1.048907	1.588581	-0.118861	-0.120693	-0.131928	0.983884	0.579961	-0.813759	-0.037972	0.805654	0.566032	0.174728
36881	11.713217	-0.176002	-0.426070	1.036297	1.603105	-0.091164	-0.133978	-0.140312	0.981001	0.588234	-0.807923	-0.035220	0.797515	0.572339	0.190780
36882	11.127758	-0.072775	-0.151146	0.995580	1.592046	-0.070958	-0.146993	-0.148931	0.977861	0.595716	-0.802530	-0.032679	0.789630	0.577724	0.206687
36883	10.491228	-0.241861	-0.021367	0.932448	1.544774	-0.052368	-0.159345	-0.157475	0.974582	0.603044	-0.797136	-0.030204	0.781631	0.582903	0.221984
36884	9.956961	-0.185875	-0.291769	0.788454	1.429732	-0.017707	-0.170555	-0.165689	0.971318	0.608785	-0.792829	-0.028345	0.774785	0.586489	0.236090
36885	9.766415	0.163397	-0.370823	0.631622	1.345017	0.025554	-0.180680	-0.173795	0.968065	0.613785	-0.789008	-0.027092	0.768520	0.589289	0.249231
36886	9.656624	0.241011	-0.360882	0.445499	1.290509	0.075723	-0.190061	-0.181995	0.964756	0.616974	-0.786526	-0.026827	0.763689	0.590131	0.261774
36887	9.702490	-0.206553	-0.315168	0.342204	1.250653	0.133023	-0.198663	-0.190419	0.961391	0.619919	-0.784193	-0.027221	0.759100	0.590577	0.273835
36888	9.718231	-0.766184	-0.250783	0.351945	1.238858	0.185166	-0.206856	-0.199169	0.957884	0.622644	-0.781999	-0.028138	0.754669	0.590600	0.285773
36889	9.494061	-1.157410	-0.135022	0.469998	1.234733	0.245667	-0.214508	-0.208382	0.954234	0.626777	-0.778654	-0.029142	0.749091	0.591840	0.297636
36890	9.239143	-1.434641	0.033134	0.650046	1.222558	0.280301	-0.221838	-0.217755	0.950458	0.631949	-0.774431	-0.029928	0.742582	0.594002	0.309409
36891	9.005901	-1.456193	0.188846	0.862229	1.213930	0.281353	-0.228918	-0.227156	0.946571	0.639032	-0.768599	-0.029904	0.734326	0.598043	0.321106
36892	8.820250	-1.313649	0.277855	1.081023	1.212251	0.264345	-0.236038	-0.236417	0.942546	0.647371	-0.761626	-0.028919	0.724704	0.603351	0.332822
36893	8.687731	-1.107750	0.466056	1.292194	1.202051	0.245749	-0.242982	-0.245566	0.938433	0.657331	-0.753122	-0.026877	0.713355	0.610331	0.344413
36894	8.570425	-0.666739	0.773061	1.463862	1.188522	0.224976	-0.249857	-0.254533	0.934229	0.668273	-0.743533	-0.023849	0.700701	0.618362	0.355875
36895	8.419517	-0.017739	1.205733	1.559191	1.159468	0.202879	-0.256441	-0.263241	0.930023	0.679685	-0.733228	-0.020125	0.687216	0.626962	0.366951
36896	8.284937	0.596287	1.517678	1.575167	1.123516	0.162428	-0.262940	-0.271456	0.925837	0.690711	-0.722958	-0.015808	0.673633	0.635329	0.377592
36897	8.131007	1.101671	1.906166	1.523223	1.092588	0.112241	-0.269351	-0.279236	0.921671	0.701244	-0.712836	-0.011033	0.660081	0.643345	0.387815
36898	7.943297	1.616831	2.295237	1.391871	1.056377	0.058744	-0.275811	-0.286397	0.917554	0.710379	-0.703793	-0.006140	0.647526	0.650117	0.397564
36899	7.822958	1.971181	2.566550	1.168375	1.020360	0.003418	-0.282243	-0.293068	0.913482	0.717963	-0.696080	-0.001487	0.636292	0.655427	0.406876
36900	7.781771	2.131183	2.710125	0.917852	0.970628	-0.037727	-0.288604	-0.299110	0.909528	0.723640	-0.690172	0.002648	0.626939	0.658935	0.415634
36901	7.700148	2.188584	2.902355	0.695308	0.907747	-0.061178	-0.294612	-0.304665	0.905750	0.727868	-0.685690	0.006109	0.619203	0.661066	0.423768
36902	7.784557	2.134705	2.985557	0.491016	0.842406	-0.068099	-0.300252	-0.309701	0.902183	0.730681	-0.682662	0.008832	0.613151	0.661860	0.431263
36903	7.768429	1.935915	3.088537	0.352477	0.803523	-0.071859	-0.305593	-0.314514	0.898718	0.732689	-0.680475	0.011000	0.608096	0.661842	0.438389
36904	7.589523	1.943601	3.286895	0.265330	0.763272	-0.076294	-0.310721	-0.318970	0.895383	0.734076	-0.678946	0.012876	0.603809	0.661280	0.445111
36905	7.484205	1.858784	3.456123	0.172804	0.702793	-0.073718	-0.315402	-0.323098	0.892261	0.734958	-0.677962	0.014300	0.600299	0.660284	0.451294
36906	7.408063	1.773501	3.602551	0.076895	0.636380	-0.075697	-0.319694	-0.326775	0.889389	0.735287	-0.677582	0.015348	0.597619	0.658864	0.456893
36907	7.193191	1.670566	3.815434	-0.034956	0.586956	-0.097080	-0.323820	-0.329963	0.886716	0.734839	-0.678052	0.016041	0.595946	0.656788	0.462036
36908	6.790031	1.605824	4.025319	-0.184951	0.535883	-0.137178	-0.327941	-0.332541	0.884235	0.733434	-0.679562	0.016444	0.595424	0.653920	0.466753
36909	6.583970	1.416853	4.035878	-0.393721	0.432014	-0.162709	-0.331617	-0.334235	0.882223	0.730623	-0.682593	0.016029	0.596842	0.649888	0.470559
36910	6.634504	1.030502	3.790305	-0.580908	0.294954	-0.148370	-0.334381	-0.335144	0.880834	0.726825	-0.686667	0.014651	0.599929	0.645110	0.473199
36911	6.748468	0.500144	3.534049	-0.660637	0.158182	-0.100083	-0.335969	-0.335457	0.880110	0.722586	-0.691170	0.012394	0.604148	0.640119	0.474608
36912	6.846842	-0.001586	3.330684	-0.644122	0.035627	-0.045847	-0.336431	-0.335376	0.879964	0.718689	-0.695262	0.009790	0.608522	0.635714	0.474940
36913	7.017710	-0.361872	3.347888	-0.545691	-0.060904	0.014473	-0.335865	-0.335079	0.880294	0.715481	-0.698596	0.007066	0.612602	0.632207	0.474377
36914	7.057106	-0.288481	3.644433	-0.434042	-0.144641	0.044952	-0.334576	-0.334488	0.881009	0.713149	-0.700996	0.004686	0.616017	0.629859	0.473076
36915	7.305797	-0.011387	3.645556	-0.421254	-0.241711	0.035464	-0.332739	-0.333205	0.882190	0.710740	-0.703451	0.002378	0.619785	0.627799	0.470888
36916	7.516157	0.413770	3.470666	-0.492207	-0.330391	0.033923	-0.330359	-0.331383	0.883769	0.707956	-0.706256	-0.000183	0.624228	0.625610	0.467923
36917	7.595506	0.623019	3.396312	-0.642645	-0.454284	0.040579	-0.327131	-0.328824	0.885923	0.704135	-0.710057	-0.003544	0.630221	0.622650	0.463819
36918	7.597344	0.698781	3.451699	-0.837891	-0.615179	0.069301	-0.322662	-0.325513	0.888780	0.699227	-0.714855	-0.007967	0.637943	0.618889	0.458264
36919	7.574918	0.571895	3.349299	-1.073968	-0.738235	0.100441	-0.317125	-0.321675	0.892164	0.692721	-0.721074	-0.013756	0.647741	0.613659	0.451502
36920	7.238270	0.277951	2.846426	-1.360252	-0.849017	0.133057	-0.310578	-0.317459	0.895969	0.684438	-0.728770	-0.020964	0.659611	0.606724	0.443621
36921	6.702217	-0.149046	2.294277	-1.655970	-0.993522	0.172728	-0.302688	-0.312734	0.900321	0.674004	-0.738126	-0.029794	0.673868	0.597802	0.434206
36922	6.712298	-0.612896	2.662243	-1.779585	-1.160218	0.253707	-0.293000	-0.307737	0.905234	0.662821	-0.747727	-0.039655	0.689072	0.588389	0.423059
36923	7.962609	-1.133052	4.779056	-1.605166	-1.222698	0.341690	-0.282147	-0.303157	0.910214	0.652710	-0.755992	-0.049466	0.703110	0.580149	0.411174
36924	8.925833	-2.278960	9.052369	-1.649374	-1.176102	0.399219	-0.271130	-0.299431	0.914784	0.642302	-0.764119	-0.059745	0.716893	0.571369	0.399501
36925	10.857888	-3.908319	11.666444	-1.587062	-1.091297	0.435715	-0.260364	-0.296587	0.918829	0.632061	-0.771750	-0.070007	0.729870	0.562528	0.388397
36926	14.216024	-3.994576	10.483556	-0.890051	-0.905837	0.320824	-0.251628	-0.294016	0.922084	0.626534	-0.775646	-0.076347	0.737658	0.558505	0.379385
36927	18.032699	-2.150608	12.161356	0.362405	-0.558051	0.172896	-0.246332	-0.292223	0.924081	0.629717	-0.773039	-0.076595	0.736734	0.563042	0.374442
36928	14.957093	0.409025	11.181419	1.211660	0.003654	0.064933	-0.245882	-0.292779	0.924025	0.638925	-0.765832	-0.072638	0.728915	0.572523	0.375368
36929	8.100129	4.147973	6.257239	1.246073	0.131344	0.021742	-0.246599	-0.293698	0.923542	0.648090	-0.758507	-0.068166	0.720534	0.581729	0.377390
36930	5.659324	7.961294	1.500833	0.629436	-0.367195	0.077140	-0.243391	-0.292159	0.924880	0.652965	-0.754464	-0.066493	0.717215	0.587731	0.374400
36931	6.245217	8.514147	-0.319377	-0.328215	-0.762374	0.148978	-0.236842	-0.288799	0.927632	0.651041	-0.755890	-0.069108	0.721146	0.587559	0.367046
36932	6.212327	6.139192	-0.640966	-1.736007	-0.869433	0.121115	-0.229664	-0.284663	0.930710	0.638905	-0.765475	-0.076467	0.734203	0.577074	0.357675
36933	7.869465	2.369062	-0.043138	-2.943789	-0.925240	0.083849	-0.222153	-0.280062	0.933924	0.617258	-0.781864	-0.087636	0.754745	0.557004	0.346564
36934	10.364551	-1.651834	0.059955	-3.357542	-0.924055	0.092594	-0.214445	-0.275746	0.937004	0.592001	-0.799727	-0.099860	0.776884	0.533293	0.334740
36935	12.181554	-4.847710	0.145669	-3.117080	-0.955501	0.142985	-0.206000	-0.271915	0.940014	0.567855	-0.815546	-0.111468	0.796935	0.510829	0.322410
36936	12.480029	-7.069435	-0.281388	-2.407938	-0.990940	0.232286	-0.196654	-0.268853	0.942892	0.549203	-0.826850	-0.121221	0.812221	0.494000	0.310258
36937	11.188787	-7.314984	-0.891224	-1.468911	-1.021817	0.227295	-0.186971	-0.265746	0.945738	0.537721	-0.833371	-0.127865	0.822130	0.484636	0.298713
36938	10.179405	-5.695873	-0.892474	-0.539213	-1.016594	0.162924	-0.177651	-0.262198	0.948521	0.533824	-0.835395	-0.130945	0.826724	0.483081	0.288377
36939	10.036416	-3.182628	-0.257488	0.057613	-0.996978	0.113733	-0.168697	-0.258323	0.951215	0.534583	-0.834761	-0.131889	0.828107	0.486254	0.278917
36940	9.997599	-1.426429	0.503934	0.182501	-1.000723	0.078420	-0.159925	-0.254094	0.953866	0.536468	-0.833519	-0.132091	0.828629	0.490594	0.269614
36941	10.191511	-0.817518	0.878049	0.071179	-1.014928	0.038592	-0.151204	-0.249426	0.956516	0.537203	-0.833012	-0.132301	0.829789	0.493839	0.259948
36942	10.175248	-0.675227	1.323233	-0.003758	-1.022714	0.038878	-0.142443	-0.244676	0.959085	0.537494	-0.832773	-0.132624	0.831150	0.496611	0.250135
36943	9.346158	-0.971141	1.539819	-0.015112	-1.037817	0.031488	-0.133542	-0.239777	0.961599	0.537496	-0.832713	-0.132994	0.832625	0.499095	0.240082
36944	8.780028	-1.488240	1.533176	0.008989	-1.094118	-0.005212	-0.124379	-0.234255	0.964186	0.537807	-0.832528	-0.132892	0.833843	0.502017	0.229533
36945	9.006573	-1.871200	1.761555	0.069491	-1.128446	-0.042928	-0.115097	-0.228220	0.966783	0.538419	-0.832218	-0.132355	0.834780	0.505301	0.218663
36946	9.291273	-2.258271	1.934802	0.116902	-1.093418	-0.081084	-0.106326	-0.221979	0.969237	0.539522	-0.831673	-0.131288	0.835231	0.508966	0.208192
36947	9.324858	-2.345587	1.968928	0.203169	-1.057035	-0.089019	-0.097881	-0.215843	0.971510	0.541211	-0.830770	-0.130047	0.835171	0.513063	0.198133
36948	9.436529	-2.233323	2.340738	0.337355	-1.021219	-0.073924	-0.089691	-0.209948	0.973590	0.544186	-0.829043	-0.128645	0.834157	0.518275	0.188608
36949	9.478461	-1.736305	2.364225	0.434436	-1.000329	-0.065931	-0.081616	-0.204192	0.975523	0.547831	-0.826856	-0.127240	0.832598	0.524037	0.179348
36950	9.623288	-1.060217	2.436460	0.439479	-0.984246	-0.064937	-0.073715	-0.198447	0.977336	0.551642	-0.824538	-0.125814	0.830817	0.529865	0.170253
36951	9.653535	-0.430532	2.550678	0.388609	-0.958375	-0.065147	-0.066022	-0.192810	0.979012	0.554902	-0.822536	-0.124572	0.829291	0.535032	0.161297
36952	9.426137	-0.406318	2.380235	0.270070	-0.939135	-0.056258	-0.058490	-0.187275	0.980565	0.557335	-0.821042	-0.123563	0.828225	0.539276	0.152398
36953	9.316451	-0.605280	2.118758	0.137835	-0.951717	-0.062071	-0.050857	-0.181621	0.982053	0.558522	-0.820351	-0.122792	0.827929	0.542253	0.143160
36954	9.388234	-1.070992	1.924242	0.084064	-0.934680	-0.069790	-0.043437	-0.175950	0.983440	0.559380	-0.819887	-0.121981	0.827772	0.544819	0.134036
36955	9.557835	-1.390895	1.670499	0.110260	-0.918043	-0.059967	-0.036076	-0.170446	0.984706	0.560347	-0.819329	-0.121291	0.827472	0.547402	0.125067
36956	9.664800	-1.363198	1.529356	0.182868	-0.898105	-0.053211	-0.028875	-0.165073	0.985859	0.562043	-0.818276	-0.120551	0.826604	0.550614	0.116406
36957	9.580199	-1.283065	1.543384	0.217692	-0.886840	-0.053202	-0.021750	-0.159741	0.986919	0.563906	-0.817100	-0.119827	0.825553	0.553923	0.107851
36958	9.520830	-1.344525	1.383869	0.164470	-0.895871	-0.056683	-0.014620	-0.154271	0.987920	0.565469	-0.816128	-0.119076	0.824640	0.556898	0.099167
36959	9.597922	-1.286955	1.049081	0.090618	-0.917255	-0.071643	-0.007365	-0.148568	0.988875	0.566285	-0.815671	-0.118328	0.824177	0.559114	0.090139
36960	9.730861	-1.342234	0.683907	0.043045	-0.932097	-0.092860	-0.000156	-0.142557	0.989787	0.566849	-0.815421	-0.117354	0.823822	0.561041	0.080935
36961	9.882831	-1.323147	0.197340	0.013524	-0.941154	-0.113557	0.007052	-0.136343	0.990637	0.567040	-0.815443	-0.116267	0.823660	0.562550	0.071562
36962	9.919685	-1.268774	0.029578	0.037640	-0.959285	-0.149711	0.014159	-0.129677	0.991455	0.567558	-0.815299	-0.114742	0.823212	0.564333	0.062056
36963	9.698558	-1.471581	-0.085002	0.117149	-0.962060	-0.186945	0.021111	-0.122713	0.992218	0.568630	-0.814813	-0.112870	0.822322	0.566588	0.052577
36964	9.559311	-1.651438	0.020300	0.239191	-0.970677	-0.199257	0.027993	-0.115524	0.992910	0.570884	-0.813527	-0.110748	0.820553	0.569937	0.043178
36965	9.729244	-1.586760	0.208449	0.409776	-0.978668	-0.203404	0.034944	-0.108271	0.993507	0.574379	-0.811351	-0.108622	0.817843	0.574445	0.033836
36966	9.805455	-1.440499	0.604424	0.572449	-0.944957	-0.183732	0.041670	-0.101326	0.993980	0.579283	-0.808117	-0.106664	0.814061	0.580241	0.025022
36967	9.759850	-1.256034	1.011141	0.694981	-0.888169	-0.149448	0.048109	-0.094936	0.994320	0.585065	-0.804149	-0.105086	0.809558	0.586798	0.016857
36968	9.636458	-1.047328	1.394399	0.777651	-0.826107	-0.120128	0.054116	-0.089053	0.994556	0.591608	-0.799518	-0.103780	0.804407	0.594004	0.009418
36969	9.679962	-0.885442	1.917095	0.819335	-0.745932	-0.108593	0.059548	-0.083725	0.994708	0.598310	-0.794655	-0.102705	0.799049	0.601260	0.002774
36970	9.471372	-0.813281	2.242076	0.796786	-0.676010	-0.112773	0.064287	-0.078688	0.994824	0.604948	-0.789761	-0.101561	0.793665	0.608346	-0.003169
36971	9.331708	-0.711611	2.433909	0.683429	-0.638192	-0.118347	0.068717	-0.073849	0.994899	0.610505	-0.785613	-0.100481	0.789026	0.614296	-0.008900
36972	9.354843	-0.654015	2.532053	0.517914	-0.628663	-0.146272	0.072815	-0.068788	0.994970	0.614855	-0.782391	-0.099088	0.785272	0.618977	-0.014675
36973	9.359450	-0.682464	2.499064	0.329070	-0.632938	-0.166074	0.076851	-0.063556	0.995015	0.617628	-0.780397	-0.097551	0.782707	0.622046	-0.020721
36974	9.331302	-0.899323	2.531788	0.180949	-0.655301	-0.165143	0.080994	-0.058148	0.995017	0.619331	-0.779244	-0.095952	0.780941	0.624017	-0.027102
36975	9.523660	-1.183036	2.878692	0.099749	-0.670287	-0.157765	0.085344	-0.052725	0.994955	0.620309	-0.778648	-0.094470	0.779701	0.625242	-0.033748
36976	9.721920	-1.455487	3.326449	0.077084	-0.646992	-0.143840	0.089534	-0.047536	0.994849	0.621202	-0.778102	-0.093086	0.778519	0.626336	-0.040137
36977	9.853354	-1.735482	3.974534	0.105232	-0.595555	-0.121069	0.093511	-0.042853	0.994696	0.622198	-0.777437	-0.091986	0.777255	0.627500	-0.046036
36978	9.788296	-1.947080	4.488888	0.120298	-0.533558	-0.093814	0.097096	-0.038742	0.994521	0.623367	-0.776603	-0.091113	0.775878	0.628798	-0.051255
36979	9.713208	-1.891808	4.833423	0.152583	-0.471486	-0.069044	0.100418	-0.035230	0.994321	0.624684	-0.775607	-0.090568	0.774394	0.630232	-0.055877
36980	9.498240	-1.781842	5.437342	0.199438	-0.406412	-0.056168	0.103267	-0.032251	0.994131	0.626332	-0.774323	-0.090181	0.772686	0.631969	-0.059762
36981	9.338463	-1.703452	5.952077	0.126692	-0.354804	-0.059372	0.105731	-0.029539	0.993956	0.627438	-0.773479	-0.089730	0.771455	0.633133	-0.063247
36982	9.091941	-1.384364	6.210044	0.018606	-0.315541	-0.099401	0.107551	-0.026776	0.993839	0.627858	-0.773248	-0.088778	0.770861	0.633538	-0.066352
36983	8.780064	-1.014058	6.367447	-0.095206	-0.292116	-0.154513	0.108931	-0.023722	0.993766	0.627357	-0.773830	-0.087239	0.771076	0.632949	-0.069411
36984	8.891510	-0.798951	6.739182	-0.286410	-0.303029	-0.235586	0.109822	-0.020032	0.993749	0.625510	-0.775598	-0.084761	0.772448	0.630909	-0.072648
36985	9.528029	-0.944636	7.040186	-0.580637	-0.272072	-0.340166	0.109904	-0.015669	0.993819	0.621455	-0.779250	-0.081011	0.775703	0.626517	-0.075905
36986	10.546689	-1.273609	6.735466	-0.899482	-0.165516	-0.425628	0.108589	-0.011381	0.994022	0.614985	-0.784851	-0.076169	0.781026	0.619580	-0.078227
36987	11.932745	-1.136914	5.971073	-1.038617	0.001828	-0.472508	0.105784	-0.007663	0.994360	0.607414	-0.791232	-0.070717	0.787311	0.611469	-0.079045
36988	12.987226	-0.790330	5.562931	-0.957484	0.211753	-0.467906	0.101271	-0.005293	0.994845	0.600438	-0.796996	-0.065362	0.793233	0.603962	-0.077535
36989	13.731834	-0.429715	5.166350	-0.774327	0.527902	-0.455431	0.094446	-0.004820	0.995518	0.594790	-0.801616	-0.060310	0.798314	0.597820	-0.072842
36990	13.388993	-0.272118	5.273744	-0.523079	0.939055	-0.442813	0.084289	-0.006938	0.996417	0.591112	-0.804671	-0.055606	0.802173	0.593681	-0.063724
36991	12.552287	-0.334338	5.338785	-0.231886	1.310411	-0.447048	0.071220	-0.011101	0.997399	0.589666	-0.806030	-0.051077	0.804501	0.591770	-0.050859
36992	12.526326	-0.814171	4.722104	0.070538	1.570813	-0.499844	0.055577	-0.016448	0.998319	0.590768	-0.805520	-0.046160	0.804925	0.592340	-0.035051
36993	13.129265	-1.279864	4.023957	0.379567	1.807418	-0.544884	0.037911	-0.022793	0.999021	0.594146	-0.803318	-0.040875	0.803463	0.595115	-0.016912
36994	13.423245	-1.227951	3.501565	0.634713	2.040402	-0.560197	0.018184	-0.030611	0.999366	0.599533	-0.799567	-0.035399	0.800144	0.599796	0.003813
36995	13.413529	-0.823856	3.657004	0.747686	2.156300	-0.530929	-0.002125	-0.039364	0.999223	0.605615	-0.795191	-0.030038	0.795755	0.605080	0.025529
36996	13.367486	-0.160300	3.148702	0.905521	2.200328	-0.498285	-0.022667	-0.048890	0.998547	0.612848	-0.789813	-0.024759	0.789876	0.611396	0.047865
36997	12.673241	0.461149	1.750336	0.949049	2.079024	-0.462510	-0.041775	-0.058023	0.997441	0.620238	-0.784168	-0.019640	0.783300	0.617830	0.068747
36998	12.571408	0.751212	0.039680	0.640024	1.898283	-0.406507	-0.059161	-0.066709	0.996017	0.625065	-0.780426	-0.015143	0.778328	0.621679	0.087868
36999	12.824710	1.409844	-1.332064	0.233505	1.849121	-0.323048	-0.075453	-0.075685	0.994273	0.626737	-0.779142	-0.011748	0.775569	0.622261	0.106223
37000	13.042605	1.920764	-1.954838	-0.071597	1.825877	-0.272469	-0.091338	-0.085017	0.992184	0.626058	-0.779722	-0.009179	0.774408	0.620327	0.124444
37001	13.145603	2.092404	-2.201606	-0.297428	1.862426	-0.219125	-0.107033	-0.094818	0.989724	0.623614	-0.781697	-0.007448	0.774370	0.616409	0.142797
37002	13.065186	2.201886	-2.250196	-0.579872	1.870273	-0.129630	-0.122382	-0.105352	0.986876	0.619098	-0.785282	-0.007057	0.775720	0.610109	0.161328
37003	12.822323	2.221087	-2.582118	-0.744270	1.916025	-0.060975	-0.137545	-0.116482	0.983623	0.613315	-0.789800	-0.007766	0.777770	0.602203	0.180073
37004	12.001840	1.310101	-2.472396	-0.988069	1.962567	0.001450	-0.152850	-0.128295	0.979886	0.605746	-0.795599	-0.009678	0.780838	0.592083	0.199322
37005	11.407274	0.397546	-2.615509	-1.066121	1.900983	-0.008420	-0.167680	-0.139377	0.975939	0.597470	-0.801803	-0.011854	0.784164	0.581107	0.217720
37006	11.585296	-0.137402	-2.507280	-0.828277	1.862383	-0.055653	-0.182683	-0.149714	0.971706	0.591014	-0.806554	-0.013156	0.785703	0.571888	0.235826
37007	11.686855	-0.248763	-2.333206	-0.603076	1.832530	-0.029282	-0.197158	-0.159887	0.967246	0.586302	-0.809965	-0.014380	0.785734	0.564263	0.253434
37008	11.355064	-0.338226	-2.239975	-0.463533	1.811292	0.054174	-0.211107	-0.170534	0.962472	0.582947	-0.812351	-0.016073	0.784606	0.557677	0.270905
37009	10.767666	-0.564697	-2.037970	-0.323588	1.837690	0.133086	-0.224636	-0.181813	0.957331	0.580785	-0.813852	-0.018284	0.782450	0.551896	0.288415
37010	10.243293	-0.758077	-1.871467	-0.097646	1.856032	0.185181	-0.238063	-0.193559	0.951767	0.580574	-0.813954	-0.020315	0.778627	0.547735	0.306147
37011	9.590581	-0.702418	-1.798450	0.165106	1.872449	0.211409	-0.251266	-0.205515	0.945848	0.582456	-0.812569	-0.021825	0.773052	0.545431	0.323875
37012	9.035387	-0.861157	-1.938415	0.501510	1.838117	0.207141	-0.264205	-0.217246	0.939681	0.586978	-0.809302	-0.022066	0.765279	0.545742	0.341340
37013	9.174770	-0.869889	-2.023795	0.861730	1.822283	0.208279	-0.276736	-0.228900	0.933286	0.594177	-0.804059	-0.021021	0.755229	0.548720	0.358519
37014	8.473645	-0.650169	-1.897351	1.148701	1.764232	0.189015	-0.288849	-0.240145	0.926767	0.603472	-0.797170	-0.018477	0.743228	0.553941	0.375183
37015	7.872187	-0.403552	-1.838695	1.345168	1.656944	0.148128	-0.300062	-0.250554	0.920427	0.613902	-0.789245	-0.014711	0.730128	0.560638	0.390638
37016	7.387932	-0.081811	-1.714783	1.423736	1.564071	0.121850	-0.310610	-0.260387	0.914177	0.624795	-0.780724	-0.010089	0.716347	0.568039	0.405189
37017	6.916647	0.048690	-1.732614	1.446910	1.451137	0.099020	-0.320190	-0.269452	0.908226	0.635455	-0.772121	-0.005046	0.702620	0.575521	0.418450
37018	6.576993	0.184186	-1.675939	1.420644	1.323428	0.089803	-0.328803	-0.277752	0.902631	0.645672	-0.763615	0.000225	0.689200	0.582877	0.430416
37019	6.456874	0.196844	-1.698606	1.362945	1.194988	0.081696	-0.336340	-0.285377	0.897461	0.655330	-0.755323	0.005418	0.676326	0.589955	0.441062
37020	6.290766	0.323459	-1.766177	1.276460	1.058963	0.076852	-0.342926	-0.292122	0.892786	0.664167	-0.747510	0.010524	0.664292	0.596568	0.450358
37021	6.137091	0.550641	-1.895559	1.141979	0.920810	0.083838	-0.348343	-0.298260	0.888650	0.672061	-0.740345	0.014958	0.653446	0.602437	0.458343
37022	5.915001	0.771464	-1.857069	0.994707	0.776450	0.084598	-0.352785	-0.303512	0.885112	0.678907	-0.733981	0.018908	0.643917	0.607579	0.464993
37023	5.684036	1.086838	-1.585248	0.837035	0.624663	0.069521	-0.356219	-0.307821	0.882244	0.684588	-0.728592	0.022202	0.635962	0.611882	0.470269
37024	5.582091	1.358590	-1.091830	0.599983	0.454030	0.058736	-0.358655	-0.310918	0.880169	0.688644	-0.724682	0.024618	0.630188	0.614952	0.474022
37025	5.606893	1.510754	-0.395083	0.303542	0.265975	0.065386	-0.359787	-0.313020	0.878960	0.690864	-0.722536	0.025480	0.627104	0.616410	0.476214
37026	5.670969	1.446406	-0.067813	-0.027381	0.044864	0.079647	-0.359455	-0.313797	0.878819	0.691058	-0.722376	0.024720	0.627081	0.616201	0.476514
37027	5.768593	1.308798	-0.117543	-0.336481	-0.213326	0.093208	-0.357382	-0.313150	0.879895	0.689354	-0.724081	0.022295	0.630134	0.614527	0.474645
37028	5.996624	1.211941	-0.022152	-0.574111	-0.511216	0.114250	-0.353301	-0.310720	0.882401	0.686152	-0.727219	0.018650	0.635904	0.612051	0.470128
37029	6.508440	0.973082	0.403221	-0.702711	-0.810415	0.139400	-0.347074	-0.306778	0.886243	0.682223	-0.731008	0.014132	0.643515	0.609520	0.463005
37030	7.245776	0.618886	1.177904	-0.752938	-1.095761	0.190180	-0.338593	-0.301337	0.891376	0.677944	-0.735058	0.009028	0.652493	0.607360	0.453175
37031	7.937273	0.307410	2.474785	-0.855610	-1.310709	0.247885	-0.328210	-0.295211	0.897290	0.673223	-0.739434	0.002975	0.662608	0.605052	0.441432
37032	8.496718	0.331966	4.727748	-1.102795	-1.419664	0.322972	-0.316465	-0.288938	0.903529	0.666936	-0.745100	-0.004677	0.674571	0.601116	0.428501
37033	9.207706	-0.282980	6.642983	-1.483818	-1.402088	0.404063	-0.304139	-0.283579	0.909441	0.658155	-0.752741	-0.014614	0.688718	0.594108	0.415576
37034	10.199497	-1.288694	7.761993	-1.751185	-1.321325	0.465736	-0.291828	-0.279193	0.914816	0.647441	-0.761674	-0.025921	0.704029	0.584725	0.403039
37035	10.572126	-1.901724	7.924680	-1.867288	-1.293098	0.521618	-0.279184	-0.275694	0.919809	0.635718	-0.770979	-0.038130	0.719665	0.574094	0.390509
37036	10.921740	-2.057348	7.946862	-1.757854	-1.244300	0.553458	-0.266576	-0.272849	0.924387	0.624586	-0.779359	-0.049922	0.734050	0.564051	0.378176
37037	10.781598	-1.618906	8.595980	-1.531691	-1.152160	0.586489	-0.254319	-0.270991	0.928378	0.614857	-0.786270	-0.061077	0.746507	0.555286	0.366584
37038	10.637617	-1.428407	9.179322	-1.281634	-1.030073	0.618288	-0.242707	-0.270197	0.931712	0.606900	-0.791559	-0.071458	0.756813	0.548113	0.356099
37039	10.408312	-1.711161	9.404267	-1.041207	-0.883161	0.625742	-0.232114	-0.270348	0.934364	0.600545	-0.795480	-0.080976	0.765160	0.542331	0.346998
37040	10.177936	-1.847398	10.138799	-0.793902	-0.698430	0.639163	-0.222838	-0.271702	0.936227	0.596037	-0.797931	-0.089700	0.771416	0.538038	0.339753
37041	10.431909	-1.686556	11.560504	-0.549268	-0.533458	0.646141	-0.214774	-0.274000	0.937441	0.593284	-0.799051	-0.097625	0.775813	0.535202	0.334175
37042	10.638436	-1.382055	12.425316	-0.317377	-0.300979	0.610886	-0.208762	-0.277269	0.937838	0.592269	-0.798952	-0.104369	0.778226	0.533664	0.331009
37043	9.987407	-0.868165	11.914169	-0.156759	-0.047989	0.502301	-0.205319	-0.281027	0.937480	0.592171	-0.798322	-0.109619	0.779216	0.532641	0.330326
37044	8.556660	-0.518933	9.829706	-0.114069	0.113106	0.360619	-0.204033	-0.284550	0.936697	0.592270	-0.797730	-0.113325	0.779479	0.531656	0.331294
37045	7.430998	-0.430380	7.202274	-0.141658	0.126959	0.243631	-0.203486	-0.287169	0.936017	0.591744	-0.797722	-0.116098	0.780021	0.530258	0.332256
37046	6.600301	-0.571362	4.892212	-0.221151	0.059292	0.179121	-0.202858	-0.288926	0.935613	0.590575	-0.798241	-0.118457	0.781070	0.528519	0.332561
37047	5.766189	-0.880505	2.820419	-0.314558	-0.075408	0.147341	-0.201305	-0.289707	0.935706	0.588495	-0.799410	-0.120901	0.783039	0.526320	0.331416
37048	5.056091	-1.756302	-0.621295	-0.404020	-0.291878	0.117811	-0.198310	-0.289117	0.936528	0.585796	-0.801033	-0.123246	0.785822	0.524173	0.328216
37049	5.892959	-0.907094	-6.594971	-0.483091	-0.756132	-0.096603	-0.192821	-0.284388	0.939119	0.581883	-0.803775	-0.123929	0.790084	0.522561	0.320465
37050	7.933287	2.120945	-9.651910	-0.342054	-1.345656	-0.278307	-0.183732	-0.275090	0.943699	0.578773	-0.806259	-0.122343	0.794522	0.523709	0.307350
37051	10.377403	3.070276	-1.271447	0.490470	-1.673595	-0.018612	-0.170447	-0.266106	0.948755	0.582719	-0.803657	-0.120722	0.794598	0.532281	0.292046
37052	11.925067	-0.122894	8.770297	1.634310	-1.464495	0.426836	-0.156307	-0.261580	0.952441	0.596572	-0.793533	-0.120032	0.787191	0.549438	0.280086
37053	11.851508	-5.700398	9.997454	1.760763	-0.975484	0.356311	-0.146426	-0.258947	0.954728	0.610971	-0.782720	-0.118590	0.777993	0.565947	0.272820
37054	11.017947	-8.215556	1.736106	1.999111	-0.595711	0.069304	-0.141360	-0.256063	0.956268	0.626698	-0.770910	-0.113788	0.766333	0.583207	0.269450
37055	11.714475	-3.371337	-1.223943	2.561197	-0.709924	-0.114325	-0.136606	-0.250969	0.958308	0.646048	-0.755919	-0.105872	0.750973	0.604650	0.265401
37056	13.302132	3.236310	1.641510	2.658297	-0.869337	0.001423	-0.130096	-0.245614	0.960598	0.665924	-0.739438	-0.098878	0.734589	0.626822	0.259758
37057	13.927227	7.744896	5.253514	2.235312	-0.824742	0.151818	-0.122977	-0.241470	0.962585	0.682453	-0.724778	-0.094626	0.720510	0.645282	0.253923
37058	13.834497	8.935025	6.765022	1.140172	-0.625009	0.124043	-0.117576	-0.238280	0.964053	0.690880	-0.716969	-0.092950	0.713345	0.655116	0.248921
37059	13.021832	7.459828	5.006857	-0.074338	-0.555118	0.077079	-0.112986	-0.235182	0.965362	0.690510	-0.717201	-0.093907	0.714444	0.655982	0.243429
37060	11.632780	5.218184	2.834441	-0.854203	-0.650283	-0.000926	-0.108288	-0.230895	0.966934	0.684613	-0.722574	-0.095874	0.720818	0.651594	0.236320
37061	10.820640	3.274553	1.772890	-1.428879	-0.728477	-0.158144	-0.103979	-0.225019	0.968791	0.674143	-0.732111	-0.097691	0.731245	0.642946	0.227819
37062	10.350350	0.894447	1.201569	-1.971888	-0.660880	-0.286594	-0.100975	-0.218619	0.970572	0.659498	-0.745128	-0.099226	0.744893	0.630071	0.219418
37063	9.715204	-2.081565	0.647737	-2.228868	-0.537523	-0.298845	-0.098781	-0.213017	0.972042	0.642504	-0.759576	-0.101164	0.759889	0.614548	0.211896
37064	9.011919	-4.656287	-0.302426	-2.012406	-0.492070	-0.219159	-0.096340	-0.208315	0.973305	0.627060	-0.772106	-0.103185	0.772990	0.600380	0.205011
37065	8.495287	-6.157560	-0.736824	-1.436732	-0.545629	-0.054773	-0.092341	-0.204637	0.974473	0.615912	-0.780708	-0.105583	0.782385	0.590439	0.198130
37066	8.203321	-6.076346	-0.984842	-0.669870	-0.718186	0.169239	-0.085621	-0.201687	0.975700	0.611009	-0.784156	-0.108475	0.786979	0.586874	0.190373
37067	8.410871	-3.848308	-0.138392	0.011769	-0.885775	0.377815	-0.076243	-0.199438	0.976940	0.611484	-0.783264	-0.112178	0.787575	0.588831	0.181671
37068	8.923425	-0.712330	1.372403	0.292822	-0.925845	0.407749	-0.066430	-0.197164	0.978117	0.614376	-0.780499	-0.115603	0.786212	0.593252	0.172981
37069	9.275096	1.272691	2.209633	0.184644	-0.812641	0.247490	-0.058425	-0.194255	0.979210	0.616057	-0.778851	-0.117751	0.785532	0.596369	0.165177
37070	9.263931	1.324842	2.197950	-0.086899	-0.677222	0.034987	-0.052865	-0.190462	0.980270	0.615673	-0.779091	-0.118171	0.786227	0.597279	0.158449
37071	9.132723	0.447331	1.685559	-0.227555	-0.586449	-0.104018	-0.048793	-0.186145	0.981310	0.613904	-0.780580	-0.117544	0.787871	0.596695	0.152362
37072	9.103455	-0.464223	1.238684	-0.184307	-0.540125	-0.184162	-0.045585	-0.181530	0.982328	0.612570	-0.781850	-0.116057	0.789101	0.596454	0.146840
37073	9.176044	-0.968182	0.852047	-0.115284	-0.559435	-0.220434	-0.042421	-0.176464	0.983393	0.611637	-0.782868	-0.114097	0.790000	0.596640	0.141142
37074	9.604859	-1.336471	0.517627	-0.107333	-0.613346	-0.206734	-0.038782	-0.171159	0.984480	0.610922	-0.783702	-0.112186	0.790740	0.597090	0.134958
37075	9.948387	-1.558295	0.294949	-0.152672	-0.679246	-0.139540	-0.034163	-0.166005	0.985533	0.609738	-0.784785	-0.111054	0.791867	0.597123	0.128030
37076	10.125920	-1.554067	0.228963	-0.225434	-0.710648	-0.062385	-0.028833	-0.161302	0.986484	0.608138	-0.786067	-0.110757	0.793308	0.596724	0.120759
37077	9.883949	-1.485790	0.014441	-0.266480	-0.717136	-0.019726	-0.023162	-0.156867	0.987348	0.606090	-0.787624	-0.110918	0.795059	0.595853	0.113318
37078	9.557207	-1.362009	0.042419	-0.236603	-0.727311	-0.016716	-0.017449	-0.152372	0.988169	0.604472	-0.788860	-0.110965	0.796435	0.595384	0.105869
37079	9.687342	-1.331525	0.055469	-0.189494	-0.746192	-0.044668	-0.011675	-0.147574	0.988982	0.603029	-0.789992	-0.110762	0.797634	0.595092	0.098215
37080	10.010221	-1.255714	0.269732	-0.138335	-0.746354	-0.075076	-0.006102	-0.142552	0.989768	0.602141	-0.790751	-0.110177	0.798366	0.595308	0.090661
37081	10.266291	-1.253468	0.431534	-0.114369	-0.724581	-0.083999	-0.000724	-0.137570	0.990492	0.601298	-0.791487	-0.109491	0.799024	0.595502	0.083294
37082	10.070649	-1.271117	0.706679	-0.164231	-0.696972	-0.055009	0.004591	-0.133000	0.991105	0.600180	-0.792388	-0.109113	0.799852	0.595343	0.076186
37083	9.853824	-1.318021	0.961817	-0.271786	-0.674117	-0.017686	0.009977	-0.128847	0.991614	0.598079	-0.793965	-0.109183	0.801375	0.594153	0.069139
37084	9.735310	-1.291346	1.090676	-0.373838	-0.661959	0.025383	0.015511	-0.125141	0.992018	0.595287	-0.795986	-0.109720	0.803363	0.592237	0.062148
37085	9.699063	-1.354413	1.021223	-0.423742	-0.649918	0.066920	0.021233	-0.121831	0.992324	0.591939	-0.798347	-0.110681	0.805703	0.589745	0.055165
37086	9.541515	-1.501077	0.913703	-0.392733	-0.605656	0.082803	0.026662	-0.118924	0.992545	0.588991	-0.800380	-0.111721	0.807700	0.587579	0.048706
37087	9.276637	-1.717524	0.871881	-0.310843	-0.541142	0.069932	0.031544	-0.116307	0.992712	0.586530	-0.802061	-0.112607	0.809313	0.585808	0.042918
37088	9.046549	-1.804163	0.850134	-0.218589	-0.509821	0.027344	0.035887	-0.113537	0.992885	0.584985	-0.803136	-0.112982	0.810250	0.584877	0.037595
37089	9.117678	-1.792813	0.764828	-0.155607	-0.505787	-0.019382	0.039969	-0.110422	0.993081	0.583803	-0.804008	-0.112895	0.810911	0.584276	0.032330
37090	9.298730	-1.753881	0.610840	-0.105141	-0.523678	-0.049495	0.043984	-0.106973	0.993289	0.583175	-0.804524	-0.112468	0.811155	0.584207	0.026998
37091	9.285330	-1.559488	0.466708	-0.048613	-0.546159	-0.075265	0.048071	-0.103175	0.993501	0.582887	-0.804827	-0.111784	0.811130	0.584472	0.021450
37092	9.207797	-1.421701	0.477276	-0.001633	-0.563216	-0.094392	0.052170	-0.099144	0.993705	0.583064	-0.804820	-0.110910	0.810749	0.585179	0.015820
37093	9.338214	-1.423086	0.420517	0.008485	-0.590739	-0.117402	0.056369	-0.094738	0.993905	0.583268	-0.804825	-0.109795	0.810321	0.585902	0.009891
37094	9.566401	-1.390483	0.243258	0.029359	-0.589940	-0.145757	0.060361	-0.090120	0.994100	0.583778	-0.804646	-0.108391	0.809666	0.586876	0.004041
37095	9.603995	-1.166458	0.010159	0.048795	-0.574791	-0.147758	0.064245	-0.085553	0.994260	0.584336	-0.804430	-0.106976	0.808965	0.587855	-0.001689
37096	9.249987	-0.901999	-0.126351	0.052659	-0.598132	-0.124038	0.068400	-0.081024	0.994362	0.585050	-0.804071	-0.105763	0.808108	0.588986	-0.007596
37097	8.998553	-0.652303	-0.137858	0.029313	-0.668284	-0.096797	0.073327	-0.076305	0.994385	0.585426	-0.803916	-0.104859	0.807403	0.589827	-0.014278
37098	9.077115	-0.670346	0.130437	-0.019500	-0.756006	-0.092035	0.078940	-0.071091	0.994341	0.585546	-0.803945	-0.103965	0.806787	0.590439	-0.021837
37099	9.448418	-0.745797	0.181138	-0.018902	-0.798193	-0.079414	0.085008	-0.065735	0.994209	0.585528	-0.804053	-0.103227	0.806183	0.590913	-0.029861
37100	9.820115	-0.940534	0.460807	0.029944	-0.815514	-0.053202	0.091300	-0.060450	0.993987	0.586020	-0.803761	-0.102709	0.805136	0.591874	-0.037958
37101	10.032445	-1.155800	0.880271	0.070966	-0.787575	-0.015839	0.097639	-0.055655	0.993665	0.586675	-0.803291	-0.102639	0.803915	0.592980	-0.045781
37102	9.949908	-1.342002	1.236397	0.082182	-0.751451	0.005206	0.103770	-0.051238	0.993281	0.587510	-0.802663	-0.102783	0.802536	0.594228	-0.053189
37103	9.780981	-1.466324	1.478787	0.060504	-0.732927	0.000753	0.109747	-0.046883	0.992853	0.588062	-0.802245	-0.102885	0.801336	0.595151	-0.060474
37104	9.832664	-1.600253	1.760549	0.022793	-0.743683	-0.013682	0.115675	-0.042341	0.992384	0.588424	-0.801990	-0.102806	0.800236	0.595834	-0.067855
37105	9.806260	-1.811988	2.157302	-0.002598	-0.743972	-0.036544	0.121504	-0.037611	0.991878	0.588513	-0.801963	-0.102502	0.799305	0.596188	-0.075308
37106	9.732058	-1.988463	2.473317	-0.036960	-0.736730	-0.042029	0.127195	-0.032886	0.991332	0.588459	-0.802053	-0.102111	0.798459	0.596347	-0.082665
37107	9.498209	-1.994181	2.584846	-0.092544	-0.727910	-0.041867	0.132853	-0.028208	0.990734	0.587841	-0.802561	-0.101678	0.797993	0.595903	-0.090041
37108	9.204959	-1.827662	2.667967	-0.165049	-0.743631	-0.039877	0.138600	-0.023471	0.990070	0.586762	-0.803412	-0.101187	0.797810	0.594960	-0.097581
37109	9.137112	-1.638938	2.732159	-0.285069	-0.781494	-0.061707	0.144570	-0.018331	0.989325	0.584640	-0.805063	-0.100350	0.798308	0.592907	-0.105671
37110	9.171393	-1.344177	2.671196	-0.446565	-0.815614	-0.099236	0.150551	-0.012726	0.988520	0.581384	-0.807591	-0.098941	0.799579	0.589606	-0.114184
37111	9.139828	-1.083291	2.862004	-0.601408	-0.849785	-0.114310	0.156787	-0.006809	0.987609	0.576810	-0.811079	-0.097163	0.801691	0.584897	-0.123239
37112	9.279213	-0.955825	3.021844	-0.694019	-0.860148	-0.128499	0.162989	-0.000777	0.986628	0.571626	-0.814987	-0.095073	0.804163	0.579478	-0.132390
37113	9.554781	-0.844643	3.181107	-0.751475	-0.838913	-0.143263	0.169026	0.005230	0.985598	0.565876	-0.819263	-0.092698	0.806979	0.573394	-0.141437
37114	9.768053	-0.886054	3.311892	-0.772467	-0.762779	-0.143255	0.174397	0.010745	0.984617	0.560034	-0.823544	-0.090207	0.809906	0.567151	-0.149641
37115	9.928149	-0.929018	3.524083	-0.819888	-0.626003	-0.120585	0.178900	0.015269	0.983749	0.553658	-0.828099	-0.087833	0.813300	0.560374	-0.156601
37116	10.073263	-1.402758	3.718629	-0.875219	-0.481487	-0.101472	0.182265	0.018776	0.983070	0.546892	-0.832827	-0.085489	0.817122	0.553215	-0.162064
37117	10.529673	-2.125442	3.791860	-0.902924	-0.292612	-0.089447	0.184270	0.021129	0.982649	0.539724	-0.837721	-0.083199	0.821427	0.545690	-0.165770
37118	10.939077	-2.528963	3.503582	-0.818331	-0.050124	-0.049291	0.184412	0.021783	0.982608	0.533243	-0.842036	-0.081410	0.825618	0.538981	-0.166897
37119	10.807363	-2.280739	3.286174	-0.644831	0.204939	0.032066	0.182980	0.020409	0.982905	0.527914	-0.845453	-0.080723	0.829352	0.533660	-0.165475
37120	10.703604	-1.682684	3.601732	-0.450609	0.417320	0.078626	0.179927	0.017469	0.983525	0.524171	-0.847768	-0.080835	0.832388	0.530080	-0.161693
37121	11.328172	-1.140027	4.495130	-0.298471	0.569857	0.014272	0.175345	0.014329	0.984403	0.521725	-0.849301	-0.080569	0.834900	0.527715	-0.156396
37122	12.316929	-1.063152	5.340231	-0.250470	0.755406	-0.121448	0.168390	0.011313	0.985656	0.519970	-0.850517	-0.079070	0.837422	0.525826	-0.149101
37123	13.342338	-0.862129	6.147260	-0.122214	0.945607	-0.252915	0.159240	0.008491	0.987203	0.519428	-0.851086	-0.076466	0.839546	0.524958	-0.139938
37124	13.088875	-0.346005	6.717423	0.229365	1.208041	-0.366957	0.147173	0.005175	0.989097	0.522063	-0.849757	-0.073235	0.840113	0.527149	-0.127763
37125	14.028681	0.061568	9.700497	0.697710	1.855862	-0.470242	0.129215	-0.000683	0.991616	0.528640	-0.845999	-0.069469	0.838954	0.533185	-0.108955
37126	11.872903	-0.785825	7.234559	0.753959	2.691595	-0.409561	0.104434	-0.011760	0.994462	0.535601	-0.841872	-0.066202	0.837989	0.539548	-0.081621
37127	11.169064	-1.330254	3.972210	0.511904	2.038235	-0.420652	0.085193	-0.019267	0.996178	0.540359	-0.839115	-0.062441	0.837111	0.543613	-0.061076
37128	13.517236	-1.714877	4.286413	0.638533	1.929456	-0.461018	0.066521	-0.026057	0.997445	0.546198	-0.835628	-0.058257	0.835010	0.548678	-0.041354
37129	13.656375	-1.627733	4.446618	0.924078	2.318125	-0.443986	0.044860	-0.035163	0.998374	0.554218	-0.830608	-0.054157	0.831162	0.555746	-0.017773
37130	13.283151	-1.331877	3.918312	0.879922	2.463937	-0.358888	0.022403	-0.046089	0.998686	0.561759	-0.825745	-0.050709	0.826997	0.562157	0.007391
37131	13.439365	-0.623495	2.307113	0.957880	2.442332	-0.301216	0.000658	-0.057423	0.998350	0.569766	-0.820429	-0.047565	0.821807	0.568857	0.032178
37132	13.195253	0.821403	-0.232155	1.178015	2.311929	-0.278777	-0.019895	-0.068526	0.997451	0.579516	-0.813753	-0.044347	0.814718	0.577157	0.055902
37133	13.135907	1.925647	-2.583220	0.763311	2.106262	-0.292521	-0.038612	-0.078358	0.996177	0.585706	-0.809487	-0.040971	0.809603	0.581885	0.077151
37134	14.005884	2.521919	-3.679394	0.159254	2.066727	-0.306267	-0.057150	-0.088025	0.994478	0.586991	-0.808708	-0.037849	0.807573	0.581587	0.097887
37135	14.439311	2.802014	-3.740858	-0.317138	2.170409	-0.304301	-0.076370	-0.098135	0.992239	0.584304	-0.810771	-0.035215	0.807934	0.577080	0.119259
37136	14.192720	2.298221	-3.606129	-0.717091	2.229192	-0.254136	-0.095905	-0.108950	0.989410	0.578444	-0.815027	-0.033678	0.810065	0.569088	0.141186
37137	13.687278	1.877224	-3.418720	-0.765878	2.266612	-0.171670	-0.115182	-0.120348	0.986027	0.572130	-0.819491	-0.033189	0.812034	0.560313	0.163246
37138	12.525884	0.732172	-2.914104	-0.775960	2.259824	-0.081378	-0.134029	-0.132335	0.982102	0.565902	-0.823780	-0.033772	0.813505	0.551247	0.185299
37139	12.329070	-0.324893	-2.830304	-0.822604	2.159618	-0.062782	-0.151874	-0.143620	0.977910	0.559196	-0.828304	-0.034802	0.815005	0.541558	0.206110
37140	12.724374	-1.007075	-2.702801	-0.576718	2.072304	-0.125426	-0.169471	-0.153812	0.973458	0.554491	-0.831460	-0.034844	0.814751	0.533869	0.226196
37141	13.151987	-1.239529	-2.767175	-0.331492	1.998979	-0.157915	-0.186521	-0.163117	0.968815	0.551596	-0.833413	-0.034124	0.812990	0.528029	0.245423
37142	12.991955	-1.457825	-3.005293	-0.199079	1.970917	-0.102739	-0.203081	-0.172706	0.963810	0.549974	-0.834504	-0.033653	0.810115	0.523236	0.264456
37143	11.979263	-1.419325	-2.936919	-0.049323	2.014240	-0.001164	-0.219273	-0.183203	0.958309	0.549658	-0.834706	-0.033805	0.806099	0.519330	0.283727
37144	10.621383	-1.457722	-3.059968	0.151241	2.056744	0.116692	-0.235141	-0.194915	0.952217	0.551334	-0.833572	-0.034482	0.800462	0.516881	0.303470
37145	9.301991	-1.434942	-3.190090	0.448193	2.106585	0.182593	-0.250822	-0.207325	0.945571	0.555434	-0.830831	-0.034833	0.792831	0.516465	0.323546
37146	8.302941	-1.251241	-3.157799	0.778553	2.100271	0.187252	-0.266302	-0.219822	0.938489	0.562243	-0.826273	-0.033998	0.782921	0.518605	0.343632
37147	7.618138	-1.028763	-3.124113	1.079910	2.017853	0.171887	-0.280918	-0.231753	0.931330	0.571191	-0.820200	-0.031810	0.771249	0.523032	0.362785
37148	7.223588	-0.888508	-2.948500	1.335171	1.903258	0.156139	-0.294540	-0.243113	0.924198	0.582037	-0.812671	-0.028281	0.757944	0.529587	0.380865
37149	6.824798	-0.562263	-2.898293	1.487808	1.784350	0.137669	-0.307040	-0.253748	0.917245	0.593708	-0.804330	-0.023773	0.743800	0.537276	0.397614
37150	6.415780	-0.260455	-2.936172	1.507557	1.647642	0.131035	-0.318351	-0.263775	0.910536	0.605404	-0.795695	-0.018840	0.729479	0.545244	0.413001
37151	6.132301	-0.034620	-2.915805	1.405989	1.488618	0.133493	-0.328206	-0.273004	0.904295	0.616081	-0.787555	-0.014160	0.716048	0.552472	0.426673
37152	5.869353	0.099790	-2.925844	1.242863	1.320483	0.142072	-0.336651	-0.281504	0.898566	0.625558	-0.780113	-0.010028	0.703806	0.558729	0.438723
37153	5.608082	0.015761	-3.075809	1.052378	1.136702	0.178434	-0.343380	-0.289270	0.893540	0.633598	-0.773631	-0.006965	0.693284	0.563754	0.448930
37154	5.372776	-0.082712	-3.437181	0.877783	0.942988	0.219258	-0.348422	-0.296339	0.889261	0.640585	-0.767872	-0.004899	0.684290	0.567940	0.457374
37155	5.165931	-0.027459	-3.568393	0.700283	0.745350	0.259209	-0.351741	-0.302567	0.885851	0.646340	-0.763039	-0.003981	0.677143	0.571161	0.463953
37156	4.997131	0.192250	-3.239384	0.522466	0.562745	0.276913	-0.353676	-0.307930	0.883228	0.651024	-0.759047	-0.003942	0.671626	0.573608	0.468927
37157	4.997954	0.214802	-2.535540	0.370253	0.394107	0.260127	-0.354530	-0.312163	0.881398	0.654505	-0.756044	-0.004501	0.667781	0.575284	0.472353
37158	5.165608	0.238826	-1.718355	0.256759	0.238174	0.253191	-0.354387	-0.315471	0.880277	0.657300	-0.753610	-0.005457	0.665107	0.576672	0.474428
37159	5.261584	0.321868	-1.377987	0.172596	0.080031	0.282078	-0.352974	-0.318053	0.879916	0.659524	-0.751650	-0.007125	0.663654	0.577810	0.475077
37160	5.345776	0.197290	-1.312464	0.125738	-0.143433	0.373541	-0.349480	-0.320045	0.880588	0.661859	-0.749565	-0.009753	0.663179	0.579417	0.473782
37161	5.490001	-0.442795	-1.165892	0.179561	-0.456129	0.480925	-0.343177	-0.320991	0.882720	0.664795	-0.746910	-0.013151	0.663534	0.582315	0.469715
37162	5.762131	-1.097233	-0.270298	0.283371	-0.789650	0.520098	-0.334388	-0.320258	0.886352	0.668629	-0.743416	-0.016363	0.664169	0.587169	0.462723
37163	6.560885	-1.077314	1.436233	0.236061	-1.092078	0.484513	-0.323788	-0.317407	0.891299	0.671872	-0.740408	-0.019596	0.666145	0.592494	0.452992
37164	7.664978	-0.722482	3.529401	0.008624	-1.326561	0.435733	-0.311913	-0.312742	0.897164	0.673501	-0.738816	-0.023390	0.670154	0.596945	0.441078
37165	9.336930	-0.305834	5.990375	-0.362101	-1.439581	0.438175	-0.299179	-0.307368	0.903336	0.672479	-0.739551	-0.028918	0.676952	0.598823	0.427957
37166	11.026448	-0.854877	7.978638	-0.688286	-1.454599	0.504862	-0.285802	-0.302399	0.909325	0.669451	-0.741967	-0.036334	0.685676	0.598364	0.414498
37167	11.931887	-1.323485	8.741436	-0.774795	-1.428278	0.570396	-0.272046	-0.298098	0.914947	0.665773	-0.744814	-0.044709	0.694793	0.596984	0.401089
37168	12.169044	-0.539545	8.903483	-0.558642	-1.388771	0.591679	-0.258340	-0.294218	0.920161	0.663622	-0.746238	-0.052292	0.702045	0.597130	0.388032
37169	12.312763	1.069313	10.936762	-0.196439	-1.300593	0.583865	-0.245214	-0.290786	0.924832	0.663786	-0.745635	-0.058444	0.706582	0.599559	0.375860
37170	12.337333	2.072948	14.314901	0.175137	-1.064999	0.597376	-0.233639	-0.288825	0.928436	0.666636	-0.742692	-0.063284	0.707820	0.604143	0.366063
37171	12.233650	1.745110	16.325476	0.358617	-0.676364	0.594959	-0.224786	-0.289124	0.930526	0.670614	-0.738726	-0.067530	0.706929	0.608844	0.359946
37172	11.758973	0.704487	17.258242	0.322641	-0.150723	0.529785	-0.220101	-0.292122	0.930709	0.674254	-0.735054	-0.071259	0.704938	0.611850	0.358751
37173	10.735578	0.352295	16.672349	0.229929	0.353798	0.402141	-0.219784	-0.297232	0.929165	0.676833	-0.732389	-0.074188	0.702562	0.612584	0.362144
37174	9.915189	1.031267	14.577123	0.069952	0.686905	0.262062	-0.222779	-0.303387	0.926459	0.678083	-0.731011	-0.076330	0.700409	0.611211	0.368576
37175	9.255206	1.018154	11.584150	-0.181886	0.884563	0.178637	-0.227670	-0.310076	0.923049	0.677288	-0.731499	-0.078676	0.699605	0.607258	0.376551
37176	8.256583	-0.146614	8.539829	-0.371617	1.000859	0.203032	-0.233259	-0.317661	0.919066	0.675337	-0.732944	-0.081930	0.699650	0.601569	0.385494
37177	6.494741	-1.495172	4.285990	-0.416187	1.007210	0.261934	-0.238452	-0.325605	0.914944	0.673119	-0.734520	-0.085969	0.700037	0.595367	0.394319
37178	5.669111	-0.902584	-0.939056	-0.343500	0.732377	0.154690	-0.242500	-0.331142	0.911887	0.671266	-0.735888	-0.088719	0.700425	0.590605	0.400738
37179	7.201886	1.921712	-3.369020	-0.166595	0.262347	-0.045331	-0.244552	-0.332351	0.910899	0.670065	-0.736949	-0.088988	0.700861	0.588600	0.402919
37180	9.775978	3.532102	1.652014	0.022107	-0.053696	0.002124	-0.244116	-0.332098	0.911109	0.670413	-0.736645	-0.088881	0.700681	0.589122	0.402469
37181	9.171942	2.132537	5.292885	0.068616	0.016135	0.264257	-0.242366	-0.334133	0.910832	0.671614	-0.735289	-0.091025	0.700139	0.589666	0.402617
37182	6.299041	-0.869499	4.364058	-0.009772	0.151064	0.408250	-0.240629	-0.338063	0.909841	0.672733	-0.733796	-0.094731	0.699663	0.589285	0.403999
37183	5.956712	-1.654318	0.288773	0.083508	-0.017179	0.358477	-0.238005	-0.340585	0.909591	0.674252	-0.732015	-0.097668	0.699098	0.590048	0.403863
37184	9.094852	0.564894	-1.418307	0.374566	-0.385669	0.157656	-0.234196	-0.339492	0.910987	0.677438	-0.729083	-0.097548	0.697302	0.594292	0.400733
37185	13.537833	2.501445	1.374320	0.842335	-0.635254	-0.003217	-0.229712	-0.335661	0.913545	0.683362	-0.723980	-0.094178	0.693000	0.602648	0.395685
37186	16.071070	3.597298	5.921524	1.316759	-0.341630	-0.112094	-0.228074	-0.332802	0.915000	0.692383	-0.716157	-0.087894	0.684535	0.613484	0.393763
37187	14.605407	6.206738	8.099790	1.262745	0.134294	-0.295900	-0.230959	-0.331514	0.914744	0.700365	-0.709264	-0.080215	0.675387	0.622128	0.395992
37188	11.720569	7.996717	7.013980	0.268598	0.070961	-0.336026	-0.233736	-0.329591	0.914733	0.701621	-0.708486	-0.075997	0.673124	0.624033	0.396847
37189	10.397150	7.592711	4.846503	-1.080503	-0.212813	-0.173448	-0.233416	-0.327027	0.915735	0.693974	-0.715687	-0.078696	0.681115	0.617127	0.394001
37190	9.551232	4.273848	2.741752	-2.570776	-0.398216	0.060143	-0.230198	-0.325048	0.917253	0.676629	-0.730901	-0.089201	0.699415	0.600106	0.388189
37191	8.528419	-0.555552	-0.450549	-3.621705	-0.563730	0.247315	-0.224450	-0.323564	0.919200	0.651477	-0.751312	-0.105389	0.724706	0.575183	0.379427
37192	7.636273	-2.984432	-3.023760	-3.869504	-0.672318	0.318825	-0.217396	-0.322221	0.921365	0.623924	-0.771793	-0.122697	0.750638	0.548188	0.368826
37193	7.763574	-3.857977	-2.570943	-3.504660	-0.713690	0.200731	-0.210639	-0.319966	0.923717	0.597724	-0.789858	-0.137297	0.773536	0.523207	0.357627
37194	8.410847	-4.903337	-0.814890	-2.957300	-0.729482	0.007140	-0.204822	-0.316284	0.926290	0.574882	-0.804799	-0.147682	0.792186	0.502259	0.346666
37195	8.982364	-5.829016	-0.416873	-2.451030	-0.816392	-0.129265	-0.198930	-0.311212	0.929287	0.555098	-0.817242	-0.154860	0.807647	0.485039	0.335327
37196	9.657110	-6.254835	-0.810466	-1.901986	-0.961217	-0.156164	-0.191899	-0.305327	0.932711	0.539603	-0.826656	-0.159590	0.819758	0.472669	0.323390
37197	9.979213	-5.564307	-0.958045	-1.178566	-1.039852	-0.113488	-0.183847	-0.299514	0.936211	0.529766	-0.832472	-0.162294	0.827979	0.466135	0.311720
37198	9.950379	-4.873976	0.017303	-0.450524	-1.020914	-0.075810	-0.175711	-0.294127	0.939476	0.526160	-0.834638	-0.162897	0.832034	0.465692	0.301413
37199	9.728509	-3.945416	0.162428	0.053023	-1.008761	-0.060032	-0.167535	-0.288921	0.942580	0.526584	-0.834506	-0.162199	0.833451	0.469174	0.291950
37200	9.765313	-2.728319	0.422062	0.332695	-1.014518	-0.057824	-0.159323	-0.283647	0.945601	0.529518	-0.832950	-0.160638	0.833203	0.475119	0.282904
37201	9.847417	-1.527119	0.779050	0.361108	-0.994471	-0.052224	-0.151224	-0.278467	0.948466	0.532530	-0.831311	-0.159164	0.832792	0.481017	0.274007
37202	9.679400	-0.521412	1.189049	0.252000	-0.965386	-0.049603	-0.143387	-0.273379	0.951159	0.534806	-0.830080	-0.157957	0.832720	0.486037	0.265227
37203	9.331304	-0.065084	1.582667	0.034052	-0.967885	-0.054318	-0.135520	-0.268217	0.953779	0.535098	-0.830001	-0.157378	0.833849	0.489037	0.256004
37204	9.151226	-0.160881	1.933980	-0.167174	-1.004558	-0.077652	-0.127486	-0.262636	0.956436	0.533854	-0.830874	-0.156998	0.835911	0.490582	0.246134
37205	9.177129	-0.604824	1.709047	-0.428493	-1.006166	-0.130389	-0.119659	-0.256627	0.959075	0.530187	-0.833254	-0.156811	0.839394	0.489725	0.235767
37206	9.320141	-1.052713	1.986521	-0.477916	-0.961349	-0.156002	-0.112337	-0.250600	0.961551	0.526245	-0.835834	-0.156356	0.842880	0.488447	0.225772
37207	9.303349	-1.766360	1.713354	-0.528088	-0.908309	-0.173742	-0.105482	-0.244727	0.963837	0.521678	-0.838781	-0.155882	0.846596	0.486370	0.216145
37208	9.307575	-2.647595	1.316854	-0.504992	-0.908206	-0.162813	-0.098565	-0.238924	0.966023	0.517487	-0.841477	-0.155320	0.849995	0.484595	0.206581
37209	9.306258	-3.073898	0.930407	-0.390158	-0.913846	-0.134312	-0.091385	-0.233378	0.968082	0.514121	-0.843625	-0.154843	0.852836	0.483561	0.197079
37210	9.419152	-3.323310	0.893256	-0.218482	-0.919748	-0.097293	-0.083976	-0.228081	0.970014	0.512422	-0.844763	-0.154269	0.854618	0.484102	0.187813
37211	9.361901	-3.386037	0.937432	-0.010143	-0.914543	-0.059547	-0.076369	-0.223150	0.971788	0.512371	-0.844890	-0.153745	0.855362	0.486174	0.178859
37212	9.462207	-2.875353	0.807915	0.185738	-0.937082	-0.033976	-0.068475	-0.218263	0.973485	0.514176	-0.843919	-0.153047	0.854947	0.490062	0.170013
37213	9.611219	-1.952236	0.582063	0.315211	-0.945154	-0.039615	-0.060511	-0.213283	0.975115	0.516926	-0.842396	-0.152176	0.853889	0.494853	0.161226
37214	9.494788	-1.089546	0.470984	0.349098	-0.961818	-0.052293	-0.052521	-0.208030	0.976711	0.520109	-0.840632	-0.151079	0.852484	0.500062	0.152349
37215	9.373658	-0.619803	0.405519	0.254618	-0.988056	-0.079292	-0.044423	-0.202410	0.978293	0.522321	-0.839458	-0.149967	0.851591	0.504321	0.143014
37216	9.194830	-0.564148	0.159149	0.100515	-1.027166	-0.118029	-0.036240	-0.196188	0.979896	0.523364	-0.839046	-0.148632	0.851338	0.507456	0.133085
37217	9.384013	-0.667545	0.095103	-0.020666	-1.069950	-0.146466	-0.027803	-0.189526	0.981482	0.523221	-0.839377	-0.147263	0.851743	0.509438	0.122501
37218	9.750746	-0.892888	0.280696	-0.055039	-1.068240	-0.171572	-0.019547	-0.182592	0.982994	0.522948	-0.839837	-0.145602	0.852141	0.511208	0.111902
37219	9.837429	-1.329696	0.585749	0.019445	-1.040089	-0.187575	-0.011572	-0.175695	0.984377	0.523163	-0.840016	-0.143779	0.852154	0.513326	0.101638
37220	9.720623	-1.617841	0.927843	0.138877	-1.024336	-0.187914	-0.003781	-0.168796	0.985644	0.524567	-0.839485	-0.141753	0.851361	0.516500	0.091719
37221	9.516660	-1.569889	1.220585	0.248454	-0.997471	-0.177173	0.003865	-0.162144	0.986759	0.526759	-0.838434	-0.139835	0.850006	0.520325	0.082170
37222	9.595196	-1.478721	1.368399	0.322241	-0.977779	-0.171415	0.011310	-0.155550	0.987763	0.529740	-0.836882	-0.137856	0.848085	0.524817	0.072936
37223	9.639473	-1.561257	1.200932	0.362970	-0.948280	-0.162853	0.018569	-0.149196	0.988633	0.532916	-0.835160	-0.136044	0.845964	0.529385	0.064000
37224	9.514833	-1.587754	0.947447	0.408222	-0.948613	-0.161771	0.025763	-0.142750	0.989423	0.536628	-0.833084	-0.134167	0.843426	0.534409	0.055141
37225	9.465843	-1.516584	0.834638	0.462957	-0.959791	-0.158540	0.033083	-0.136281	0.990118	0.540649	-0.830762	-0.132412	0.840597	0.539687	0.046196
37226	9.300844	-1.378645	0.503741	0.514264	-0.963224	-0.136937	0.040464	-0.129867	0.990705	0.545237	-0.828013	-0.130810	0.837305	0.545463	0.037304
37227	9.317680	-1.081832	0.404986	0.538182	-1.000994	-0.128332	0.048217	-0.123320	0.991195	0.549866	-0.825166	-0.129412	0.833860	0.551265	0.028022
37228	9.481107	-0.909685	0.347078	0.556666	-1.010723	-0.113927	0.056038	-0.116725	0.991582	0.554777	-0.822075	-0.128124	0.830110	0.557287	0.018689
37229	9.618969	-0.854748	0.340087	0.546328	-1.012687	-0.100486	0.063958	-0.110230	0.991846	0.559436	-0.819070	-0.127103	0.826402	0.563004	0.009280
37230	9.474534	-0.788092	0.162839	0.541789	-1.018960	-0.086914	0.071909	-0.103694	0.992006	0.564180	-0.815952	-0.126188	0.822515	0.568744	-0.000173
37231	9.531061	-0.583001	0.223756	0.527929	-1.060140	-0.088105	0.080202	-0.096918	0.992056	0.568651	-0.812965	-0.125394	0.818660	0.574190	-0.010089
37232	9.539886	-0.383859	0.518909	0.514708	-1.072976	-0.078593	0.088552	-0.090027	0.991995	0.573137	-0.809921	-0.124665	0.814661	0.579588	-0.020122
37233	9.613784	-0.362070	0.734257	0.399584	-1.118846	-0.068559	0.097345	-0.082963	0.991787	0.576520	-0.807598	-0.124142	0.811264	0.583869	-0.030786
37234	9.824880	-0.597352	1.143432	0.251586	-1.137656	-0.046797	0.106320	-0.075857	0.991434	0.578822	-0.806011	-0.123742	0.808493	0.587020	-0.041787
37235	9.828189	-1.213452	1.482585	0.101243	-1.144150	-0.030276	0.115476	-0.068886	0.990919	0.579742	-0.805379	-0.123547	0.806576	0.588744	-0.053066
37236	9.761993	-1.750009	1.755732	0.006223	-1.152620	-0.001628	0.124782	-0.062012	0.990244	0.580009	-0.805192	-0.123511	0.804996	0.589763	-0.064506
37237	9.851158	-2.117203	2.095269	-0.047553	-1.163735	0.006391	0.134271	-0.055197	0.989406	0.579686	-0.805411	-0.123600	0.803701	0.590141	-0.076147
37238	10.003749	-2.454764	2.188058	-0.055579	-1.140623	0.017173	0.143553	-0.048538	0.988452	0.579426	-0.805582	-0.123708	0.802283	0.590493	-0.087519
37239	9.795249	-2.399084	2.186152	-0.056989	-1.101642	0.033064	0.152666	-0.042297	0.987372	0.578987	-0.805846	-0.124043	0.800917	0.590612	-0.098536
37240	9.580092	-2.192802	2.065460	-0.136809	-1.096637	0.026793	0.161618	-0.035983	0.986197	0.578052	-0.806499	-0.124157	0.799835	0.590139	-0.109545
37241	9.411968	-1.864214	1.745383	-0.274131	-1.106119	0.007686	0.170598	-0.029526	0.984898	0.575912	-0.808056	-0.123980	0.799513	0.588366	-0.120849
37242	9.250127	-1.464665	1.568904	-0.439851	-1.125192	-0.037892	0.179395	-0.022567	0.983518	0.572658	-0.810507	-0.123051	0.799925	0.585294	-0.132477
37243	9.201665	-1.140453	1.549266	-0.580384	-1.135790	-0.091574	0.188055	-0.015200	0.982041	0.568245	-0.813853	-0.121413	0.801083	0.580872	-0.144412
37244	9.496718	-0.919800	1.645134	-0.642794	-1.134305	-0.145967	0.196334	-0.007405	0.980509	0.563567	-0.817451	-0.119020	0.802400	0.575950	-0.156320
37245	9.837876	-0.863710	2.222479	-0.633255	-1.072603	-0.162088	0.204128	0.000073	0.978944	0.558870	-0.821035	-0.116474	0.803739	0.570878	-0.167637
37246	9.983905	-1.062427	2.641046	-0.582619	-0.965542	-0.152734	0.211048	0.006858	0.977452	0.554696	-0.824208	-0.113985	0.804842	0.566245	-0.177752
37247	10.131019	-1.341431	3.160475	-0.514341	-0.830138	-0.125458	0.217130	0.012576	0.976062	0.550886	-0.827046	-0.111892	0.805840	0.561994	-0.186504
37248	10.278147	-1.458265	3.815095	-0.488447	-0.664181	-0.098101	0.221946	0.017139	0.974908	0.547357	-0.829635	-0.110026	0.806933	0.558043	-0.193515
37249	10.436167	-1.505100	4.473792	-0.523432	-0.465877	-0.072953	0.225401	0.020332	0.974054	0.543355	-0.832480	-0.108358	0.808678	0.553681	-0.198690
37250	10.508856	-1.732307	5.008081	-0.626147	-0.256495	-0.060914	0.227141	0.022272	0.973607	0.538614	-0.835790	-0.106539	0.811358	0.548597	-0.201838
37251	11.158602	-2.112555	5.095830	-0.733547	-0.067124	-0.059795	0.227456	0.023135	0.973513	0.532848	-0.839729	-0.104541	0.815069	0.542513	-0.203329
37252	12.086791	-2.065074	4.909061	-0.764123	0.137123	-0.052718	0.226041	0.022841	0.973850	0.526913	-0.843714	-0.102514	0.819309	0.536307	-0.202749
37253	11.983817	-1.772276	4.501194	-0.729081	0.333940	-0.013645	0.223316	0.021170	0.974516	0.521019	-0.847551	-0.100982	0.823814	0.530292	-0.200301
37254	11.620262	-1.400759	4.579371	-0.649741	0.414832	-0.030464	0.219710	0.019224	0.975376	0.515909	-0.850852	-0.099442	0.827989	0.525054	-0.196859
37255	12.096692	-1.133963	4.872312	-0.585153	0.463827	-0.136521	0.215249	0.017958	0.976394	0.511415	-0.853837	-0.097039	0.831939	0.520230	-0.192971
37256	12.779465	-0.975450	5.057064	-0.503518	0.607871	-0.268262	0.208785	0.017071	0.977813	0.507976	-0.856280	-0.093515	0.835685	0.516230	-0.187450
37257	13.145427	-1.102508	5.287572	-0.349290	0.809617	-0.379251	0.200172	0.016147	0.979628	0.505894	-0.857968	-0.089230	0.839048	0.513449	-0.179910
37258	13.446620	-1.382159	5.606092	-0.124240	1.037704	-0.445501	0.189161	0.014602	0.981837	0.505911	-0.858417	-0.084703	0.841589	0.512745	-0.169766
37259	12.707299	-1.766608	5.446053	0.142132	1.321360	-0.454446	0.175816	0.011709	0.984353	0.508006	-0.857580	-0.080535	0.843219	0.514217	-0.156724
37260	11.461819	-1.731956	4.665514	0.349855	1.468737	-0.446851	0.161104	0.007898	0.986906	0.511904	-0.855610	-0.076716	0.843801	0.517560	-0.141885
37261	11.234727	-1.498771	4.760271	0.411512	1.513374	-0.464012	0.146038	0.003996	0.989271	0.516160	-0.853397	-0.072749	0.843950	0.521246	-0.126691
37262	11.717418	-1.760047	6.207105	0.262941	1.640640	-0.465711	0.129724	-0.000682	0.991550	0.519214	-0.851894	-0.068515	0.844742	0.523714	-0.110157
37263	12.569650	-2.055432	6.127732	0.177711	1.808914	-0.391287	0.112487	-0.006844	0.993630	0.521262	-0.850928	-0.064873	0.845951	0.525238	-0.092150
37264	13.217677	-1.569049	3.232689	0.207706	1.999991	-0.269104	0.094098	-0.015175	0.995447	0.523487	-0.849743	-0.062438	0.846822	0.526979	-0.072015
37265	13.471393	-0.819183	-2.202143	0.066667	2.057197	-0.162180	0.075904	-0.024647	0.996810	0.524264	-0.849374	-0.060923	0.848166	0.527216	-0.051549
37266	14.216190	-0.299918	-4.406287	-0.120124	2.136546	-0.043864	0.057477	-0.035628	0.997711	0.523462	-0.849898	-0.060505	0.850108	0.525741	-0.030200
37267	14.134825	0.327023	-2.880348	-0.228833	2.263716	0.048535	0.038552	-0.047917	0.998107	0.521567	-0.851027	-0.061001	0.852339	0.522931	-0.007817
37268	14.004151	0.238924	-1.570541	-0.336287	2.431659	0.088542	0.018210	-0.061439	0.997945	0.518867	-0.852607	-0.061959	0.854661	0.518929	0.016353
37269	13.261768	-0.465881	-2.557363	-0.461724	2.525069	0.155813	-0.002508	-0.075810	0.997119	0.514981	-0.854832	-0.063697	0.857198	0.513338	0.041185
37270	13.141265	-0.607005	-2.693954	-0.300946	2.417278	0.185844	-0.022330	-0.089856	0.995704	0.512624	-0.856091	-0.065761	0.858323	0.508954	0.065179
37271	12.822824	-0.885287	-2.703641	-0.183318	2.295398	0.205849	-0.040889	-0.103268	0.993813	0.511197	-0.856770	-0.067995	0.858490	0.505254	0.087823
37272	12.395059	-0.577753	-2.627914	-0.062800	2.126527	0.231940	-0.057984	-0.116070	0.991547	0.510976	-0.856707	-0.070404	0.857637	0.502575	0.108984
37273	11.932731	-0.105640	-3.103892	-0.026114	1.936045	0.215635	-0.073385	-0.127631	0.989103	0.510977	-0.856522	-0.072612	0.856456	0.500080	0.128073
37274	12.344444	-0.155376	-2.817536	0.138603	1.785285	0.131159	-0.088008	-0.137767	0.986547	0.512475	-0.855529	-0.073754	0.854180	0.499090	0.145896
37275	13.369407	-0.055018	-2.327607	0.294291	1.789984	0.031177	-0.103019	-0.146976	0.983761	0.515097	-0.853962	-0.073644	0.850918	0.499146	0.163681
37276	13.715911	-0.215602	-2.433346	0.349992	1.960085	-0.013757	-0.119745	-0.156732	0.980355	0.518263	-0.852107	-0.072926	0.846797	0.499349	0.183264
37277	13.011208	-0.511642	-2.732432	0.378532	2.133087	0.045409	-0.137431	-0.167777	0.976198	0.521602	-0.850088	-0.072671	0.842047	0.499200	0.204342
37278	11.779014	-1.072137	-3.022412	0.508341	2.272724	0.175599	-0.155586	-0.180701	0.971154	0.526335	-0.847112	-0.073298	0.835921	0.499749	0.226908
37279	10.452567	-1.394740	-3.136633	0.738114	2.356925	0.294558	-0.173547	-0.195000	0.965327	0.533047	-0.842806	-0.074419	0.828096	0.501650	0.250210
37280	9.349645	-1.499108	-3.112689	1.016198	2.356266	0.375165	-0.190921	-0.210094	0.958858	0.542303	-0.836796	-0.075370	0.818204	0.505602	0.273696
37281	8.660168	-1.518974	-3.165518	1.344283	2.301773	0.402280	-0.207323	-0.225163	0.952008	0.554108	-0.829022	-0.075405	0.806214	0.511882	0.296640
37282	8.151022	-1.160655	-3.232055	1.678729	2.219470	0.391361	-0.222845	-0.239919	0.944870	0.568564	-0.819309	-0.073943	0.791881	0.520741	0.318988
37283	7.767313	-0.764236	-3.166732	1.952106	2.143623	0.333382	-0.237636	-0.253914	0.937580	0.584717	-0.808154	-0.070663	0.775652	0.531427	0.340514
37284	7.321430	-0.274097	-3.009307	2.089856	2.048810	0.256870	-0.251798	-0.267044	0.930207	0.601565	-0.796116	-0.065712	0.758101	0.543034	0.361105
37285	6.848806	0.066345	-2.877314	2.080146	1.944460	0.170511	-0.265240	-0.279062	0.922915	0.617675	-0.784172	-0.059595	0.740355	0.554255	0.380363
37286	6.391502	0.420269	-2.760299	1.880692	1.797273	0.101431	-0.277725	-0.289954	0.915858	0.631905	-0.773220	-0.053176	0.723578	0.563966	0.397965
37287	6.013535	0.416786	-2.857966	1.559672	1.624054	0.068073	-0.288838	-0.299695	0.909261	0.643351	-0.764098	-0.047481	0.708994	0.571260	0.413509
37288	5.656565	0.304178	-3.086085	1.242172	1.411643	0.068377	-0.298270	-0.308360	0.903299	0.652468	-0.756604	-0.042837	0.696649	0.576597	0.426868
37289	5.435314	0.220052	-3.276982	0.954395	1.195842	0.102520	-0.305784	-0.316047	0.898115	0.659459	-0.750694	-0.039641	0.686738	0.580149	0.437970
37290	5.215743	0.332909	-3.242475	0.734009	0.972297	0.126877	-0.311528	-0.322684	0.893770	0.665048	-0.745859	-0.037477	0.678720	0.582726	0.446956
37291	5.201562	0.566590	-2.940439	0.525728	0.744599	0.144201	-0.315513	-0.328099	0.890395	0.669132	-0.742251	-0.036402	0.672840	0.584307	0.453731
37292	5.382539	0.575510	-2.464731	0.329151	0.534298	0.122050	-0.318217	-0.332153	0.887926	0.671915	-0.739756	-0.035924	0.668781	0.585179	0.458582
37293	5.400086	0.311564	-1.976677	0.167861	0.358669	0.095211	-0.319886	-0.334952	0.886273	0.673418	-0.738385	-0.036001	0.666469	0.585316	0.461762
37294	5.354268	0.018768	-1.841312	0.072644	0.169040	0.084231	-0.320377	-0.336582	0.885478	0.674363	-0.737505	-0.036342	0.665277	0.585490	0.463258
37295	5.398121	-0.104144	-1.909221	0.105580	-0.033341	0.132205	-0.319178	-0.337357	0.885616	0.675566	-0.736369	-0.037029	0.664632	0.586473	0.462940
37296	5.584618	-0.127394	-1.946114	0.191867	-0.296009	0.211311	-0.315710	-0.337181	0.886925	0.677704	-0.734355	-0.037943	0.664112	0.589094	0.460352
37297	6.188979	-0.448536	-1.330330	0.330802	-0.605295	0.289806	-0.309638	-0.335721	0.889616	0.680884	-0.731351	-0.039009	0.663718	0.593647	0.455041
37298	6.844238	-0.640240	0.085600	0.419057	-0.875424	0.320823	-0.301562	-0.332838	0.893465	0.684837	-0.727603	-0.039904	0.663369	0.599844	0.447357
37299	7.416470	-0.747573	1.855925	0.249524	-1.055012	0.313411	-0.292321	-0.328751	0.898037	0.687502	-0.724989	-0.041613	0.664748	0.605238	0.437946
37300	8.254924	-0.740670	4.856941	-0.244996	-1.162757	0.281807	-0.282549	-0.323737	0.902973	0.686867	-0.725380	-0.045138	0.669611	0.607469	0.427320
37301	9.489025	-1.413858	7.817487	-0.786176	-1.164471	0.307781	-0.272509	-0.318907	0.907765	0.682500	-0.729086	-0.051250	0.678183	0.605584	0.416336
37302	10.722811	-2.023084	8.709154	-1.013236	-1.213694	0.429780	-0.261223	-0.314714	0.912534	0.676913	-0.733674	-0.059255	0.688151	0.602227	0.404686
37303	11.354116	-1.699619	8.906523	-0.870443	-1.269538	0.532585	-0.248749	-0.310995	0.917282	0.672319	-0.737168	-0.067609	0.697217	0.599888	0.392457
37304	11.865150	-0.683116	10.586418	-0.472083	-1.274113	0.542435	-0.236116	-0.307347	0.921839	0.670512	-0.738163	-0.074365	0.703323	0.600545	0.380372
37305	12.202269	0.252323	12.930689	0.123214	-1.065355	0.519601	-0.225038	-0.304750	0.925465	0.672655	-0.735758	-0.078716	0.704907	0.604804	0.370565
37306	11.944167	0.531108	15.163204	0.629259	-0.649648	0.429629	-0.217506	-0.303953	0.927526	0.678215	-0.730460	-0.080332	0.701937	0.611589	0.365025
37307	11.688413	-0.011629	16.763384	0.751092	-0.099795	0.319954	-0.214541	-0.305661	0.927655	0.684236	-0.724796	-0.080575	0.696989	0.617448	0.364643
37308	11.129403	-0.115148	16.222459	0.648239	0.400907	0.196873	-0.215923	-0.309586	0.926031	0.689341	-0.720009	-0.079976	0.691510	0.621083	0.368877
37309	10.723441	0.603768	14.214595	0.516819	0.743922	0.057058	-0.220566	-0.314614	0.923238	0.693101	-0.716543	-0.078593	0.686266	0.622562	0.376105
37310	9.903266	0.803139	11.050911	0.299309	0.957288	-0.045392	-0.227390	-0.320283	0.919626	0.695227	-0.714655	-0.076993	0.681875	0.621841	0.385175
37311	8.100881	0.034987	8.096738	0.040531	1.036948	-0.024286	-0.234529	-0.326535	0.915626	0.695522	-0.714408	-0.076624	0.679151	0.618867	0.394661
37312	5.741588	-0.477024	4.287812	-0.245179	0.989775	0.087021	-0.240606	-0.333306	0.911601	0.694245	-0.715461	-0.078354	0.678330	0.614022	0.403540
37313	4.699904	1.260449	0.211997	-0.430920	0.709195	0.091352	-0.244701	-0.338289	0.908670	0.691617	-0.717714	-0.080948	0.679549	0.608644	0.409592
37314	5.810388	3.458154	-1.374302	-0.688203	0.247490	0.008619	-0.246290	-0.339899	0.907640	0.687134	-0.721681	-0.083804	0.683512	0.603030	0.411299
37315	7.757904	4.159376	1.427149	-0.871994	-0.049648	0.045304	-0.245553	-0.339923	0.907830	0.681335	-0.726686	-0.087807	0.689555	0.596975	0.410042
37316	7.707500	2.008550	4.176944	-0.916593	-0.063340	0.119609	-0.244260	-0.340459	0.907978	0.675485	-0.731538	-0.092585	0.695742	0.590711	0.408660
37317	7.599747	-0.759353	3.439783	-0.687728	-0.093079	0.059935	-0.243120	-0.340347	0.908326	0.670907	-0.735308	-0.095945	0.700554	0.586077	0.407109
37318	10.114414	-1.982108	2.100819	-0.075820	-0.212770	-0.153435	-0.242614	-0.338010	0.909334	0.670216	-0.736087	-0.094796	0.701391	0.586451	0.405124
37319	14.946031	-0.954482	3.520572	0.700784	-0.158193	-0.315260	-0.243541	-0.334757	0.910289	0.674427	-0.732946	-0.089102	0.697020	0.592223	0.404271
37320	16.135611	0.712734	5.822618	1.451033	0.063358	-0.218607	-0.245419	-0.333576	0.910218	0.684141	-0.724819	-0.081168	0.686819	0.602797	0.406098
37321	15.110553	1.760195	7.530283	1.823226	0.308488	-0.149868	-0.248466	-0.334370	0.909099	0.696248	-0.714144	-0.072373	0.673427	0.614976	0.410245
37322	12.146064	3.364477	6.716110	1.398514	0.309890	-0.147104	-0.251521	-0.335274	0.907925	0.705434	-0.705771	-0.065198	0.662647	0.624082	0.414030
37323	9.713089	5.200792	4.170634	0.419432	-0.038313	0.013247	-0.251089	-0.335119	0.908102	0.708315	-0.703027	-0.063592	0.659731	0.627255	0.413892
37324	8.312337	5.730298	1.612447	-0.912950	-0.300930	0.246683	-0.247306	-0.335003	0.909182	0.703101	-0.707685	-0.069508	0.666700	0.622057	0.410556
37325	7.718840	3.232329	-0.289982	-2.337066	-0.470026	0.364422	-0.241510	-0.334710	0.910847	0.688282	-0.720753	-0.082359	0.684062	0.607029	0.404444
37326	7.274266	0.680342	-2.317833	-3.254706	-0.567946	0.364275	-0.235041	-0.333996	0.912799	0.666762	-0.738718	-0.098612	0.707237	0.585442	0.396325
37327	7.778698	-0.045854	-2.772785	-3.394903	-0.653501	0.235057	-0.228714	-0.332002	0.915131	0.642971	-0.757349	-0.114065	0.730943	0.562314	0.386684
37328	8.870184	-1.363758	-0.790678	-3.076000	-0.693978	0.068450	-0.223081	-0.328701	0.917709	0.620595	-0.773888	-0.126331	0.751729	0.541344	0.376630
37329	9.358354	-3.255947	-1.104208	-2.815870	-0.848066	-0.056538	-0.216882	-0.323752	0.920949	0.599116	-0.788981	-0.136269	0.770728	0.522201	0.365081
37330	9.979900	-4.191273	-1.918830	-2.520215	-1.052710	-0.133021	-0.209406	-0.317283	0.924922	0.579475	-0.802171	-0.143980	0.787628	0.505819	0.351837
37331	10.451007	-4.383077	-1.749362	-2.023291	-1.118586	-0.143784	-0.201251	-0.310541	0.929011	0.563188	-0.812665	-0.149647	0.801447	0.493092	0.338443
37332	10.559022	-4.236450	-0.785537	-1.366965	-1.095905	-0.132990	-0.193098	-0.304088	0.932868	0.552178	-0.819592	-0.152866	0.811056	0.485592	0.326173
37333	10.206800	-3.973835	0.008242	-0.743380	-1.038789	-0.105803	-0.185134	-0.298198	0.936378	0.546012	-0.823449	-0.154281	0.817066	0.482711	0.315268
37334	10.053724	-3.112503	0.482012	-0.290238	-1.003292	-0.092029	-0.177362	-0.292583	0.939648	0.543732	-0.824964	-0.154242	0.820304	0.483560	0.305404
37335	9.973855	-1.805833	1.049276	-0.075378	-0.934206	-0.083672	-0.170056	-0.287373	0.942602	0.543053	-0.825511	-0.153703	0.822298	0.485745	0.296442
37336	9.743753	-0.692465	1.489957	-0.087339	-0.876231	-0.080944	-0.163222	-0.282425	0.945301	0.542456	-0.826012	-0.153121	0.824075	0.487792	0.288027
37337	9.456058	-0.059434	1.889866	-0.197513	-0.857002	-0.091337	-0.156556	-0.277494	0.947886	0.540765	-0.827172	-0.152840	0.826477	0.488655	0.279557
37338	9.139809	-0.267625	1.449587	-0.568958	-0.851213	-0.139841	-0.150197	-0.272163	0.950457	0.536096	-0.830175	-0.153004	0.830687	0.486556	0.270595
37339	8.930117	-0.641719	2.037643	-0.775181	-0.875546	-0.168987	-0.143712	-0.266523	0.953054	0.529473	-0.834327	-0.153481	0.836065	0.482560	0.261019
37340	9.098093	-1.581363	1.250813	-0.991235	-0.854204	-0.225795	-0.137672	-0.260510	0.955605	0.521102	-0.839524	-0.153791	0.842318	0.476795	0.251331
37341	9.183164	-2.446294	0.657110	-1.090156	-0.862919	-0.256339	-0.131609	-0.254275	0.958135	0.511623	-0.845287	-0.154051	0.849071	0.469929	0.241341
37342	9.537678	-3.214429	0.513805	-0.971894	-0.856807	-0.283866	-0.125694	-0.247840	0.960613	0.503240	-0.850394	-0.153555	0.854957	0.464118	0.231612
37343	9.646834	-3.702110	0.611028	-0.727490	-0.833025	-0.284792	-0.119888	-0.241574	0.962948	0.496740	-0.854397	-0.152497	0.859579	0.460052	0.222431
37344	9.679369	-3.689517	0.633973	-0.447838	-0.835372	-0.255658	-0.113904	-0.235523	0.965171	0.492839	-0.856928	-0.150947	0.862633	0.458480	0.213682
37345	9.743484	-3.197807	0.791330	-0.173538	-0.869997	-0.216250	-0.107367	-0.229688	0.967324	0.491187	-0.858172	-0.149252	0.864412	0.459112	0.204959
37346	9.659305	-2.718769	1.000925	0.004091	-0.894968	-0.175952	-0.100436	-0.224032	0.969393	0.491283	-0.858423	-0.147485	0.865190	0.461433	0.196280
37347	9.617272	-2.288108	0.967921	0.069790	-0.925573	-0.155041	-0.093099	-0.218428	0.971402	0.491823	-0.858388	-0.145880	0.865704	0.464176	0.187343
37348	9.840548	-1.973708	0.765122	0.076946	-0.959266	-0.176901	-0.085610	-0.212415	0.973422	0.492567	-0.858284	-0.143970	0.866054	0.467150	0.178106
37349	9.615182	-2.003439	0.483349	0.105355	-0.952311	-0.223152	-0.078372	-0.206047	0.975399	0.493382	-0.858202	-0.141647	0.866275	0.470142	0.168919
37350	9.633934	-2.042184	0.271253	0.157913	-0.966906	-0.274046	-0.071297	-0.199101	0.977382	0.494775	-0.857887	-0.138666	0.866092	0.473697	0.159675
37351	9.574750	-2.062749	0.144590	0.248444	-0.962537	-0.305134	-0.064388	-0.191915	0.979297	0.496803	-0.857247	-0.135332	0.865471	0.477804	0.150540
37352	9.413369	-1.885407	0.087197	0.363399	-0.973648	-0.292362	-0.057372	-0.184699	0.981119	0.499992	-0.855927	-0.131894	0.864128	0.482985	0.141454
37353	9.483720	-1.596440	0.180044	0.471495	-0.989145	-0.253394	-0.050017	-0.177735	0.982806	0.504010	-0.854041	-0.128799	0.862249	0.488902	0.132296
37354	9.460685	-1.148555	0.375218	0.557334	-0.997582	-0.215611	-0.042466	-0.170948	0.984364	0.508927	-0.851549	-0.125927	0.859762	0.495622	0.123162
37355	9.427319	-0.781724	0.569201	0.585890	-1.010912	-0.171860	-0.034578	-0.164450	0.985779	0.513972	-0.848858	-0.123580	0.857109	0.502390	0.113875
37356	9.580908	-0.533063	0.630598	0.522598	-1.030338	-0.147784	-0.026471	-0.157946	0.987093	0.518616	-0.846329	-0.121514	0.854598	0.508705	0.104316
37357	9.832392	-0.632653	0.601340	0.397181	-1.062303	-0.145536	-0.018071	-0.151291	0.988324	0.522055	-0.844467	-0.119724	0.852720	0.513796	0.094242
37358	9.825337	-0.975527	0.580440	0.311285	-1.057553	-0.132640	-0.009706	-0.144666	0.989433	0.524903	-0.842929	-0.118097	0.851107	0.518210	0.084117
37359	9.449379	-1.386374	0.183724	0.286784	-1.056487	-0.102144	-0.001170	-0.138316	0.990387	0.527416	-0.841526	-0.116903	0.849606	0.522210	0.073935
37360	9.406559	-1.581196	0.065436	0.389173	-1.058308	-0.076927	0.007451	-0.132065	0.991213	0.530933	-0.839460	-0.115837	0.847381	0.527130	0.063863
37361	9.504340	-1.515040	0.255453	0.539850	-1.052805	-0.059774	0.016127	-0.125988	0.991901	0.535585	-0.836618	-0.114972	0.844328	0.533101	0.053985
37362	9.553751	-1.488341	0.572064	0.697413	-1.027070	-0.050018	0.024556	-0.120003	0.992470	0.541675	-0.832808	-0.114100	0.840229	0.540398	0.044552
37363	9.547086	-1.267847	0.821498	0.771631	-1.019880	-0.030992	0.033023	-0.114198	0.992909	0.548227	-0.828587	-0.113532	0.835677	0.548089	0.035245
37364	9.540449	-0.942261	0.967684	0.770434	-1.005108	-0.006610	0.041408	-0.108539	0.993229	0.554851	-0.824212	-0.113201	0.830918	0.555782	0.026094
37365	9.669335	-0.572374	1.196361	0.707621	-1.007888	-0.003301	0.049831	-0.102877	0.993445	0.560792	-0.820200	-0.113066	0.826456	0.562750	0.016821
37366	9.583381	-0.401341	1.415609	0.575908	-0.999045	0.006837	0.058150	-0.097222	0.993563	0.565736	-0.816802	-0.113036	0.822533	0.568667	0.007505
37367	9.520269	-0.437508	1.558484	0.411887	-1.004457	0.022345	0.066613	-0.091671	0.993559	0.569178	-0.814371	-0.113298	0.819512	0.573059	-0.002070
37368	9.518450	-0.556252	1.543134	0.280710	-1.008437	0.015969	0.074995	-0.085942	0.993474	0.571663	-0.812607	-0.113450	0.817054	0.576440	-0.011811
37369	9.516319	-0.705812	1.752459	0.150070	-1.002998	0.010226	0.083329	-0.080233	0.993287	0.572952	-0.811674	-0.113629	0.815342	0.578575	-0.021666
37370	9.734683	-0.936969	1.968595	0.006285	-0.997959	-0.015336	0.091408	-0.074267	0.993040	0.573216	-0.811512	-0.113455	0.814290	0.579597	-0.031608
37371	9.952266	-1.163733	2.157850	-0.132547	-0.967445	-0.030159	0.099201	-0.068416	0.992713	0.572237	-0.812243	-0.113162	0.814066	0.579293	-0.041425
37372	9.782479	-1.458019	2.252854	-0.241658	-0.926903	-0.019281	0.106668	-0.062835	0.992307	0.570488	-0.813518	-0.112838	0.814350	0.578136	-0.050930
37373	9.478746	-1.625556	2.184934	-0.300565	-0.914601	-0.006414	0.114172	-0.057503	0.991795	0.568117	-0.815199	-0.112664	0.814989	0.576319	-0.060404
37374	9.266631	-1.757759	2.207929	-0.324195	-0.915502	-0.007053	0.121622	-0.052123	0.991207	0.565679	-0.816934	-0.112368	0.815607	0.574371	-0.069872
37375	9.058210	-1.913636	2.226956	-0.345003	-0.929167	-0.024894	0.129152	-0.046594	0.990530	0.562965	-0.818867	-0.111922	0.816327	0.572089	-0.079528
37376	9.219132	-1.938977	2.165177	-0.392997	-0.956052	-0.069154	0.136595	-0.040521	0.989798	0.560040	-0.821010	-0.110898	0.817127	0.569474	-0.089452
37377	9.417040	-1.748644	1.980537	-0.434044	-0.964335	-0.108669	0.143961	-0.034152	0.988994	0.556713	-0.823460	-0.109472	0.818135	0.566346	-0.099533
37378	9.350265	-1.457735	2.009276	-0.445527	-0.953657	-0.132379	0.151051	-0.027632	0.988140	0.553451	-0.825890	-0.107698	0.819070	0.563154	-0.109459
37379	9.262743	-1.146878	2.240341	-0.433882	-0.952707	-0.152016	0.158108	-0.021027	0.987198	0.550199	-0.828309	-0.105762	0.819928	0.559877	-0.119393
37380	9.532558	-0.824728	2.623022	-0.431437	-0.924873	-0.170006	0.164776	-0.014417	0.986226	0.547123	-0.830622	-0.103554	0.820674	0.556650	-0.128979
37381	10.110579	-0.536956	3.291863	-0.439811	-0.845594	-0.186944	0.170787	-0.008172	0.985274	0.543894	-0.833031	-0.101187	0.821591	0.553166	-0.137826
37382	10.440318	-0.643913	4.089500	-0.499354	-0.696044	-0.178771	0.175548	-0.002812	0.984467	0.540287	-0.835669	-0.098730	0.822966	0.549227	-0.145181
37383	10.682407	-1.149035	4.881797	-0.609716	-0.503082	-0.166264	0.178887	0.001327	0.983869	0.535625	-0.838952	-0.096256	0.825291	0.544204	-0.150788
37384	11.045525	-1.851800	5.480948	-0.739194	-0.263796	-0.175033	0.180134	0.004249	0.983633	0.530020	-0.842824	-0.093422	0.828632	0.538173	-0.154073
37385	11.296943	-2.190884	5.213401	-0.833898	0.013328	-0.164422	0.179244	0.005562	0.983789	0.523456	-0.847224	-0.090582	0.832986	0.531206	-0.154772
37386	11.337819	-2.204694	4.950134	-0.801529	0.211274	-0.140269	0.176740	0.005645	0.984241	0.517204	-0.851327	-0.087992	0.837415	0.524605	-0.153383
37387	11.255635	-2.477008	4.998745	-0.731385	0.372349	-0.135359	0.173005	0.004852	0.984909	0.511370	-0.855086	-0.085613	0.841766	0.518464	-0.150415
37388	11.634397	-2.679479	4.766051	-0.694905	0.488206	-0.175630	0.167975	0.003829	0.985784	0.505996	-0.858544	-0.082886	0.846021	0.512725	-0.146152
37389	13.354741	-2.360014	4.502002	-0.619843	0.570904	-0.270687	0.161858	0.003237	0.986809	0.501257	-0.861649	-0.079390	0.850025	0.507495	-0.141088
37390	13.568840	-1.774423	4.731368	-0.365051	0.807140	-0.304270	0.153441	0.001750	0.988156	0.498818	-0.863375	-0.075928	0.853016	0.504560	-0.133350
37391	12.917833	-1.172794	5.120397	0.010969	1.015214	-0.312045	0.143304	-0.000687	0.989678	0.499447	-0.863270	-0.072919	0.854410	0.504742	-0.123367
37392	13.066760	-0.768770	5.524983	0.395308	1.267926	-0.371126	0.130582	-0.003951	0.991430	0.503523	-0.861161	-0.069751	0.854056	0.508316	-0.110463
37393	12.467732	-0.682265	5.592860	0.686766	1.537215	-0.438907	0.115329	-0.008045	0.993295	0.509997	-0.857628	-0.066161	0.852410	0.514208	-0.094806
37394	11.902425	-0.947075	5.842008	0.805974	1.699004	-0.465166	0.098439	-0.012914	0.995059	0.517550	-0.853384	-0.062275	0.849972	0.521123	-0.077323
37395	11.772955	-1.568018	6.575457	0.693488	1.844835	-0.419475	0.080681	-0.019014	0.996559	0.523888	-0.849767	-0.058627	0.847957	0.526816	-0.058598
37396	11.782830	-2.283744	5.895691	0.592685	1.983151	-0.324203	0.062130	-0.026828	0.997707	0.529336	-0.846580	-0.055727	0.846134	0.531585	-0.038397
37397	12.409403	-2.323142	4.624536	0.674887	2.049988	-0.218400	0.043736	-0.035938	0.998397	0.535230	-0.842992	-0.053790	0.843573	0.536725	-0.017634
37398	12.768951	-1.660613	2.080293	0.842614	2.151041	-0.142270	0.024817	-0.046441	0.998613	0.542562	-0.838376	-0.052473	0.839649	0.543111	0.004391
37399	12.881861	-0.678303	-1.236140	0.625954	2.093819	-0.099525	0.006815	-0.057029	0.998349	0.547902	-0.834960	-0.051435	0.836515	0.547348	0.025556
37400	13.488731	0.115683	-2.975815	0.346372	2.121065	-0.031350	-0.011123	-0.068486	0.997590	0.550984	-0.832954	-0.051040	0.834442	0.549088	0.047000
37401	13.571117	1.289779	-2.658179	0.130827	2.242999	0.015496	-0.029653	-0.080929	0.996279	0.552157	-0.832169	-0.051164	0.833213	0.548585	0.069362
37402	13.297085	1.585383	-1.972322	-0.238170	2.355809	0.057273	-0.049007	-0.094369	0.994330	0.550389	-0.833290	-0.051958	0.833469	0.544722	0.092776
37403	13.126002	1.074490	-1.648814	-0.519001	2.340145	0.101199	-0.067886	-0.107888	0.991843	0.546200	-0.835941	-0.053546	0.834899	0.538110	0.115677
37404	13.204273	0.351157	-1.619417	-0.424156	2.300535	0.132117	-0.086409	-0.121384	0.988837	0.542964	-0.837926	-0.055413	0.835298	0.532115	0.138312
37405	13.102948	-0.167392	-2.243383	-0.488689	2.208131	0.178626	-0.103806	-0.134563	0.985453	0.539134	-0.840225	-0.057941	0.835798	0.525276	0.159768
37406	13.277993	-0.551373	-2.696150	-0.488110	2.059121	0.180064	-0.120072	-0.146901	0.981836	0.535464	-0.842385	-0.060553	0.835979	0.518467	0.179807
37407	13.064751	-0.659746	-3.052343	-0.401424	1.986570	0.147054	-0.135803	-0.158385	0.977994	0.532382	-0.844172	-0.062787	0.835540	0.512140	0.198963
37408	13.050640	-0.688636	-2.773756	-0.235686	1.988562	0.112871	-0.151813	-0.169545	0.973759	0.530786	-0.845057	-0.064385	0.833798	0.507083	0.218283
37409	13.003307	-0.868971	-2.734065	-0.157355	2.049331	0.115231	-0.168177	-0.180869	0.969022	0.529747	-0.845593	-0.065892	0.831315	0.502254	0.238024
37410	12.330206	-1.076472	-2.863891	-0.093358	2.146415	0.177294	-0.185045	-0.193168	0.963558	0.529493	-0.845598	-0.067834	0.827886	0.497644	0.258755
37411	11.283479	-1.312602	-2.886899	0.041593	2.203712	0.279833	-0.201671	-0.206465	0.957445	0.530465	-0.844776	-0.070435	0.823369	0.493686	0.279889
37412	10.330455	-1.432726	-2.859252	0.301392	2.212435	0.374475	-0.217813	-0.220589	0.950736	0.533925	-0.842364	-0.073122	0.816995	0.491695	0.301256
37413	9.305114	-1.568056	-3.031032	0.620770	2.204281	0.435933	-0.233304	-0.235102	0.943555	0.540043	-0.838259	-0.075335	0.808655	0.491984	0.322534
37414	8.476780	-1.449023	-3.307371	0.981787	2.166080	0.452867	-0.248215	-0.249634	0.935987	0.549216	-0.832190	-0.076304	0.797967	0.495119	0.343665
37415	7.720107	-1.033489	-3.567007	1.319771	2.077440	0.437614	-0.262147	-0.263612	0.928325	0.560868	-0.824434	-0.075728	0.785306	0.500816	0.363975
37416	7.125636	-0.552149	-3.555529	1.567405	1.954305	0.385051	-0.275136	-0.276684	0.920731	0.574287	-0.815356	-0.073408	0.771034	0.508567	0.383230
37417	6.600951	-0.207886	-3.432093	1.681563	1.803122	0.290573	-0.287132	-0.288293	0.913478	0.588032	-0.805847	-0.069490	0.756157	0.517201	0.400910
37418	6.169361	0.196326	-3.372589	1.648905	1.651676	0.209431	-0.298210	-0.298626	0.906583	0.601172	-0.796503	-0.064617	0.741393	0.525743	0.417051
37419	5.681053	0.525883	-3.378879	1.422080	1.473345	0.158388	-0.307992	-0.307681	0.900263	0.612187	-0.788432	-0.060023	0.728264	0.532643	0.431189
37420	5.398940	0.503992	-3.354050	1.143700	1.248646	0.148868	-0.316046	-0.315566	0.894725	0.621095	-0.781709	-0.056315	0.717186	0.537911	0.443052
37421	5.363423	0.094193	-3.599823	0.929728	1.019845	0.201360	-0.321972	-0.322643	0.890076	0.628446	-0.775980	-0.053952	0.708088	0.541994	0.452608
37422	5.291106	-0.259096	-4.055082	0.847501	0.770349	0.285812	-0.325529	-0.329067	0.886423	0.635515	-0.770297	-0.052571	0.700108	0.546221	0.459881
37423	5.343859	-0.312314	-3.934724	0.936282	0.520656	0.367968	-0.326719	-0.334748	0.883854	0.643316	-0.763867	-0.051501	0.692387	0.551771	0.464918
37424	5.442847	-0.268956	-3.287518	1.152805	0.363784	0.418653	-0.326440	-0.339963	0.881965	0.652786	-0.755907	-0.049758	0.683599	0.559491	0.468681
37425	5.235134	-0.315569	-2.534686	1.394935	0.283052	0.405869	-0.325607	-0.344607	0.880469	0.663655	-0.746575	-0.046776	0.673456	0.569097	0.471790
37426	4.929053	0.055008	-1.573140	1.446603	0.151446	0.365630	-0.324098	-0.348191	0.879616	0.674677	-0.736854	-0.043092	0.663153	0.579491	0.473729
37427	4.794652	-0.079489	-0.677406	1.354730	-0.091265	0.321123	-0.321232	-0.350004	0.879947	0.684715	-0.727739	-0.039502	0.654198	0.589824	0.473426
37428	4.844150	-0.250170	0.607408	1.214320	-0.451339	0.254186	-0.316465	-0.349151	0.882011	0.693590	-0.719473	-0.035949	0.647135	0.600377	0.469855
37429	5.399477	0.060464	1.626472	0.991995	-0.780374	0.193622	-0.310001	-0.345807	0.885617	0.700670	-0.712720	-0.033034	0.642620	0.610285	0.463240
37430	6.340316	0.415747	3.264286	0.575382	-1.015269	0.139869	-0.302420	-0.340552	0.890262	0.704952	-0.708552	-0.031572	0.641548	0.618045	0.454353
37431	7.797580	0.780122	6.038950	0.084993	-1.196314	0.161096	-0.293509	-0.334262	0.895612	0.706055	-0.707405	-0.032632	0.644468	0.622774	0.443637
37432	9.593883	0.840493	8.868178	-0.370941	-1.342716	0.252736	-0.282953	-0.327660	0.901430	0.704542	-0.708725	-0.036463	0.650814	0.624778	0.431387
37433	11.501338	0.663938	10.192314	-0.680597	-1.405900	0.345223	-0.271234	-0.321322	0.907295	0.701115	-0.711781	-0.042483	0.659446	0.624596	0.418342
37434	12.599516	0.582767	10.529490	-0.662383	-1.344164	0.383834	-0.259560	-0.315652	0.912684	0.697904	-0.714537	-0.048645	0.667502	0.624339	0.405760
37435	12.561740	0.661028	12.343443	-0.335648	-1.130532	0.389284	-0.249186	-0.311362	0.917039	0.696721	-0.715340	-0.053560	0.672671	0.625574	0.395185
37436	11.754645	1.000511	14.489620	0.102073	-0.776622	0.354528	-0.241421	-0.309016	0.919905	0.698446	-0.713440	-0.056359	0.673713	0.628897	0.388071
37437	11.678656	0.922296	16.327740	0.269648	-0.312182	0.265944	-0.237375	-0.308934	0.920985	0.700973	-0.710844	-0.057775	0.672525	0.631871	0.385291
37438	11.064107	0.303118	16.353754	0.237225	0.202125	0.205766	-0.237234	-0.311679	0.920096	0.703224	-0.708541	-0.058699	0.670221	0.633108	0.387271
37439	9.714074	0.017199	14.767559	0.158751	0.608150	0.127051	-0.240324	-0.316418	0.917673	0.704665	-0.707062	-0.059257	0.667602	0.632411	0.392892
37440	8.495420	-0.109555	11.943298	0.011168	0.836206	0.049408	-0.245507	-0.322070	0.914329	0.705029	-0.706669	-0.059614	0.665328	0.629993	0.400560
37441	7.545378	-0.600090	8.844435	-0.111352	0.902188	0.064496	-0.250964	-0.328184	0.910666	0.704524	-0.707083	-0.060662	0.663824	0.626362	0.408666
37442	6.338144	-0.921481	5.376453	-0.161810	0.872597	0.158803	-0.255595	-0.334793	0.906964	0.704022	-0.707403	-0.062724	0.662589	0.622491	0.416511
37443	5.108535	-0.107090	1.744069	-0.184130	0.698288	0.160069	-0.259011	-0.340252	0.903959	0.703290	-0.707929	-0.064953	0.662040	0.618922	0.422657
37444	5.103233	2.506059	-1.117620	-0.321181	0.416634	-0.095681	-0.262405	-0.342185	0.902249	0.701081	-0.710076	-0.065404	0.663045	0.615388	0.426227
37445	5.330762	5.232371	-2.114507	-0.809770	-0.079164	-0.213806	-0.263287	-0.340169	0.902754	0.695203	-0.715691	-0.066926	0.668860	0.609976	0.424918
37446	8.556861	5.662563	1.114507	-0.859855	-0.512860	-0.135275	-0.260732	-0.336110	0.905013	0.689252	-0.721202	-0.069273	0.675981	0.605720	0.419705
37447	9.781243	3.018023	4.559914	-0.816250	-0.385402	-0.045936	-0.258346	-0.333446	0.906681	0.683666	-0.726208	-0.072273	0.682538	0.601195	0.415579
37448	10.406844	-0.661916	4.304969	-0.717592	-0.185591	-0.100508	-0.257716	-0.331627	0.907528	0.678695	-0.730656	-0.074261	0.687717	0.596797	0.413375
37449	12.491155	-2.075374	3.635789	-0.238411	-0.163432	-0.199639	-0.257859	-0.329186	0.908375	0.676617	-0.732664	-0.073440	0.689709	0.595685	0.411657
37450	15.074748	-0.713719	5.182745	0.578615	-0.170782	-0.192773	-0.257949	-0.326778	0.909219	0.680304	-0.729653	-0.069237	0.686039	0.600685	0.410521
37451	15.451683	1.399345	6.861094	1.293533	0.035631	-0.182062	-0.259354	-0.325666	0.909218	0.688726	-0.722342	-0.062271	0.677046	0.610052	0.411637
37452	13.683634	3.462448	7.753758	1.333683	0.227406	-0.295691	-0.262887	-0.324957	0.908456	0.697121	-0.714918	-0.053997	0.667018	0.619109	0.414477
37453	11.200139	5.560727	6.751581	0.523375	0.103973	-0.232404	-0.265119	-0.323937	0.908172	0.700064	-0.712347	-0.049721	0.663040	0.622597	0.415633
37454	10.459195	6.349955	5.135472	-0.821269	-0.044558	0.016023	-0.264669	-0.323792	0.908355	0.694856	-0.717179	-0.053184	0.668674	0.617100	0.414804
37455	8.790438	3.922777	1.015668	-2.558876	-0.167548	0.253375	-0.261711	-0.324602	0.908923	0.678259	-0.731847	-0.066069	0.686638	0.599195	0.411696
37456	7.231887	1.002597	-4.968916	-3.830722	-0.485535	0.382574	-0.255722	-0.324609	0.910624	0.652683	-0.752839	-0.085077	0.713170	0.572592	0.404384
37457	7.394811	-1.125792	-5.565352	-3.962848	-0.674165	0.321569	-0.248684	-0.323297	0.913036	0.624775	-0.773868	-0.103849	0.740143	0.544617	0.394436
37458	7.892917	-3.218159	-2.785853	-3.517518	-0.711687	0.170798	-0.242236	-0.320847	0.915630	0.599017	-0.791845	-0.118998	0.763217	0.519653	0.384006
37459	8.879097	-5.396236	-1.985154	-3.039406	-0.861242	-0.010093	-0.235551	-0.316388	0.918920	0.575577	-0.807282	-0.130410	0.783088	0.498191	0.372262
37460	10.530313	-6.122908	-2.344745	-2.397292	-1.034749	-0.179189	-0.228324	-0.309855	0.922961	0.556459	-0.819429	-0.137440	0.798888	0.482209	0.359517
