// General information: 
//  MT Manager version: 2022.2.0 
//  XDA version: 2022.2.0 build 7381 rev 124627 built on 2023-07-19
// Device information: 
//  DeviceId: 00B4CAF0
//  ProductCode: MTW2-3A7G6
//  Firmware Version: 4.6.0
//  Hardware Version: 2.0.0
// Device settings: 
//  Filter Profile: human(46.1)
//  Option Flags: Orientation Smoother Disabled, Position/Velocity Smoother Disabled, Continuous Zero Rotation Update Disabled, AHS Disabled, ICC Disabled
// Coordinate system: ENU
PacketCounter	Acc_X	Acc_Y	Acc_Z	Gyr_X	Gyr_Y	Gyr_Z	Mat[1][1]	Mat[2][1]	Mat[3][1]	Mat[1][2]	Mat[2][2]	Mat[3][2]	Mat[1][3]	Mat[2][3]	Mat[3][3]
62248	8.082481	1.064947	7.031048	-0.449984	1.710092	1.139470	-0.332675	-0.808013	0.486254	0.918105	-0.395295	-0.028736	0.215433	0.436873	0.873345
62249	8.508132	2.391536	6.836481	-0.441518	1.631250	1.211624	-0.325051	-0.819741	0.471558	0.921126	-0.387362	-0.038432	0.214168	0.421872	0.880997
62250	8.739600	3.632461	6.469124	-0.512504	1.533300	1.243439	-0.316892	-0.830872	0.457418	0.924008	-0.379253	-0.048751	0.213983	0.407209	0.887914
62251	8.552183	4.102478	5.971863	-0.600548	1.406245	1.170241	-0.309098	-0.840878	0.444277	0.926368	-0.371906	-0.059400	0.215178	0.393204	0.893918
62252	8.160130	3.789733	5.311871	-0.568005	1.235093	0.931624	-0.303158	-0.849100	0.432579	0.927981	-0.366261	-0.068582	0.216669	0.380634	0.898984
62253	7.638467	3.512864	4.685638	-0.395588	1.019924	0.554050	-0.300243	-0.854935	0.423014	0.928780	-0.363058	-0.074539	0.217304	0.370507	0.903052
62254	7.155876	3.169770	4.488105	-0.178107	0.761886	0.065586	-0.301320	-0.857969	0.416048	0.928580	-0.363179	-0.076426	0.216671	0.363305	0.906125
62255	7.272563	3.673263	4.914283	-0.023782	0.504739	-0.407782	-0.306209	-0.858287	0.411800	0.927275	-0.366795	-0.074977	0.215398	0.358893	0.908185
62256	7.914006	3.664935	5.464925	-0.099024	0.322867	-0.736036	-0.313755	-0.856713	0.409390	0.924768	-0.373491	-0.072852	0.215317	0.355734	0.909446
62257	8.147456	2.519592	5.594132	-0.226417	0.175821	-0.940734	-0.322833	-0.853765	0.408489	0.921270	-0.382371	-0.071088	0.216887	0.353380	0.909991
62258	8.335370	1.127329	5.463140	-0.297809	0.041386	-1.022828	-0.332361	-0.849943	0.408818	0.917257	-0.392166	-0.069612	0.219491	0.351855	0.909957
62259	5.030919	-7.172593	4.815646	-0.549272	-0.396163	-0.989668	-0.340549	-0.844598	0.413134	0.912689	-0.402518	-0.070560	0.225889	0.353034	0.907932
62260	8.935738	-5.059093	-1.537416	2.577705	-0.705961	-1.186776	-0.349903	-0.837258	0.420198	0.914128	-0.403220	-0.042226	0.204786	0.369340	0.906449
62261	2.626204	6.521633	13.355778	1.441744	-0.947092	-0.864057	-0.355923	-0.830186	0.429080	0.913946	-0.405031	-0.025536	0.194990	0.383067	0.902905
62262	6.426122	1.233685	10.112172	0.324286	-1.177985	-0.353648	-0.356884	-0.824163	0.439761	0.913305	-0.406730	-0.021075	0.196233	0.394115	0.897868
62263	0.070430	-1.209435	14.105533	0.254787	-1.019854	0.047847	-0.354454	-0.820272	0.448905	0.913962	-0.405353	-0.019028	0.197573	0.403538	0.893377
62264	5.585136	-0.377356	12.220808	0.406274	-1.216609	0.127222	-0.350919	-0.815797	0.459709	0.915200	-0.402683	-0.015982	0.198155	0.415117	0.887926
62265	2.588625	0.913401	10.191253	0.438761	-1.052841	0.024944	-0.348621	-0.811454	0.469048	0.916141	-0.400669	-0.012233	0.197860	0.425449	0.883088
62266	12.583500	-0.546362	12.313420	0.822708	-1.488644	-0.680060	-0.351957	-0.802266	0.482178	0.915362	-0.402628	-0.001756	0.195547	0.440749	0.876072
62267	19.089284	9.620315	18.909044	0.313408	-0.090306	0.120319	-0.350695	-0.802332	0.482987	0.916379	-0.400311	0.000388	0.193034	0.442735	0.875628
62268	-1.129211	-2.904467	2.168132	-0.568720	-0.060598	-0.073008	-0.351284	-0.801757	0.483514	0.914994	-0.403446	-0.004226	0.198460	0.440927	0.875327
62269	11.477885	4.377211	12.588595	0.142578	-0.252199	0.024297	-0.350577	-0.800721	0.485738	0.915347	-0.402654	-0.003117	0.198080	0.443526	0.874099
62270	1.249082	-3.189652	7.688201	-0.160249	0.146298	-0.028920	-0.351171	-0.801238	0.484456	0.914911	-0.403632	-0.004365	0.199039	0.441701	0.874805
62271	5.409506	1.537350	10.060847	0.070894	-0.016079	0.004769	-0.351111	-0.801167	0.484615	0.915054	-0.403313	-0.003788	0.198487	0.442119	0.874719
62272	4.448997	-0.139398	9.008137	0.039178	-0.082010	0.001150	-0.350976	-0.800796	0.485327	0.915120	-0.403167	-0.003439	0.198422	0.442925	0.874326
62273	5.137995	0.385112	8.883331	-0.012096	-0.012933	0.016749	-0.350812	-0.800787	0.485459	0.915140	-0.403119	-0.003647	0.198618	0.442983	0.874252
62274	4.898017	0.374229	9.123367	-0.027365	-0.050621	0.020474	-0.350563	-0.800632	0.485895	0.915141	-0.403113	-0.003974	0.199052	0.443270	0.874008
62275	4.858229	-0.257854	9.009027	-0.011133	-0.002611	0.018981	-0.350399	-0.800679	0.485936	0.915171	-0.403044	-0.004184	0.199203	0.443249	0.873984
62276	4.696935	0.129209	9.209586	-0.008852	-0.008284	0.009537	-0.350334	-0.800667	0.486003	0.915171	-0.403043	-0.004296	0.199320	0.443271	0.873947
62277	4.479027	0.042381	9.276478	0.005926	-0.024968	0.003106	-0.350271	-0.800550	0.486240	0.915179	-0.403025	-0.004279	0.199393	0.443498	0.873815
62278	4.689223	-0.076169	9.236171	0.023956	-0.057071	0.005820	-0.350142	-0.800307	0.486733	0.915231	-0.402908	-0.004087	0.199380	0.444042	0.873541
62279	4.845639	0.043733	9.135478	0.018967	-0.053115	0.004445	-0.350011	-0.800071	0.487216	0.915270	-0.402822	-0.003963	0.199432	0.444547	0.873273
62280	4.762283	0.284774	9.109564	0.025396	-0.046077	0.009357	-0.349872	-0.799890	0.487612	0.915337	-0.402670	-0.003776	0.199367	0.445009	0.873052
62281	4.846635	0.339569	9.144006	-0.015416	-0.060273	0.026808	-0.349522	-0.799711	0.488156	0.915386	-0.402557	-0.004061	0.199759	0.445432	0.872747
62282	4.861849	0.634400	9.237473	-0.045628	-0.050231	0.045040	-0.349047	-0.799655	0.488587	0.915436	-0.402437	-0.004668	0.200358	0.445641	0.872503
62283	4.895175	0.533573	9.133228	-0.098504	-0.046122	0.063355	-0.348390	-0.799686	0.489005	0.915444	-0.402402	-0.005857	0.201460	0.445616	0.872261
62284	4.721007	0.137947	9.149549	-0.123992	-0.045032	0.076174	-0.347641	-0.799779	0.489387	0.915443	-0.402382	-0.007299	0.202758	0.445468	0.872036
62285	4.583260	-0.312703	9.102036	-0.106286	-0.044174	0.075100	-0.346879	-0.799866	0.489785	0.915473	-0.402288	-0.008613	0.203924	0.445397	0.871800
62286	4.124847	-0.354951	9.305867	-0.083572	-0.087476	0.071426	-0.346084	-0.799750	0.490535	0.915533	-0.402126	-0.009680	0.204998	0.445752	0.871367
62287	4.625913	-0.412995	9.250134	-0.063625	-0.168389	0.074804	-0.345069	-0.799281	0.492014	0.915646	-0.401844	-0.010621	0.206202	0.446845	0.870523
62288	5.404724	-0.555027	8.786255	-0.039294	-0.135482	0.052711	-0.344344	-0.798874	0.493180	0.915731	-0.401635	-0.011211	0.207035	0.447760	0.869855
62289	5.068030	-0.166072	9.142816	-0.018778	-0.094647	0.041624	-0.343782	-0.798599	0.494018	0.915821	-0.401420	-0.011600	0.207573	0.448444	0.869374
62290	4.924586	-0.452742	9.014106	0.003877	-0.077424	0.021805	-0.343460	-0.798326	0.494682	0.915888	-0.401265	-0.011663	0.207810	0.449068	0.868996
62291	4.767865	-0.329650	9.056427	0.047588	-0.070050	0.004116	-0.343292	-0.798009	0.495310	0.915986	-0.401051	-0.011290	0.207654	0.449821	0.868643
62292	5.062248	-0.048306	8.972233	0.071587	-0.066594	-0.010196	-0.343285	-0.797656	0.495883	0.916084	-0.400847	-0.010607	0.207234	0.450629	0.868325
62293	4.918832	0.417895	9.211213	0.059911	-0.045514	-0.003311	-0.343237	-0.797419	0.496298	0.916182	-0.400636	-0.010090	0.206881	0.451236	0.868094
62294	5.035861	0.228386	9.120365	0.026427	-0.053754	0.008322	-0.343087	-0.797197	0.496757	0.916249	-0.400487	-0.009891	0.206830	0.451760	0.867833
62295	5.083554	0.092229	9.129788	0.011144	-0.035640	0.018188	-0.342862	-0.797090	0.497084	0.916320	-0.400325	-0.009905	0.206890	0.452092	0.867646
62296	4.977466	-0.014103	9.101431	0.007200	-0.021146	0.015335	-0.342716	-0.797044	0.497260	0.916372	-0.400206	-0.009908	0.206903	0.452279	0.867545
62297	4.925267	-0.102122	9.088786	0.001644	-0.017991	0.016463	-0.342543	-0.797010	0.497433	0.916417	-0.400101	-0.009995	0.206990	0.452433	0.867445
62298	4.882417	-0.153457	9.115440	0.001845	-0.024306	0.006367	-0.342472	-0.796913	0.497638	0.916427	-0.400078	-0.010000	0.207063	0.452624	0.867327
62299	4.755185	-0.170811	9.131080	0.014971	-0.018765	0.005214	-0.342401	-0.796830	0.497819	0.916461	-0.400002	-0.009916	0.207030	0.452836	0.867224
62300	5.052907	-0.281489	8.907443	0.011706	-0.023329	-0.007747	-0.342462	-0.796681	0.498016	0.916443	-0.400047	-0.009765	0.207009	0.453059	0.867113
62301	4.912958	-0.010492	9.127902	0.019283	-0.028055	-0.009100	-0.342502	-0.796499	0.498279	0.916437	-0.400065	-0.009572	0.206968	0.453363	0.866964
62302	4.894426	0.091210	9.039290	0.032353	-0.013671	-0.006862	-0.342575	-0.796397	0.498392	0.916464	-0.400009	-0.009247	0.206726	0.453590	0.866903
62303	4.904426	0.198942	9.074176	0.008079	-0.019687	-0.002215	-0.342570	-0.796280	0.498582	0.916459	-0.400024	-0.009186	0.206759	0.453783	0.866794
62304	4.910369	0.111370	9.048052	-0.003162	-0.018106	0.005894	-0.342516	-0.796209	0.498732	0.916457	-0.400027	-0.009232	0.206857	0.453904	0.866707
62305	4.899963	0.022908	9.040281	-0.020424	-0.016253	0.012975	-0.342379	-0.796169	0.498890	0.916444	-0.400050	-0.009494	0.207140	0.453955	0.866613
62306	4.880438	-0.137545	8.995055	-0.017388	-0.014101	0.012452	-0.342273	-0.796143	0.499005	0.916435	-0.400066	-0.009696	0.207354	0.453987	0.866545
62307	4.818181	-0.205183	9.070745	-0.008812	-0.024113	0.011169	-0.342136	-0.796059	0.499232	0.916440	-0.400050	-0.009848	0.207558	0.454147	0.866412
62308	4.833990	-0.256716	9.083584	0.005893	-0.027448	0.005917	-0.342063	-0.795946	0.499463	0.916457	-0.400013	-0.009816	0.207605	0.454378	0.866280
62309	4.753022	-0.257208	9.072879	0.016575	-0.041083	-0.000216	-0.341994	-0.795740	0.499838	0.916476	-0.399972	-0.009691	0.207633	0.454775	0.866065
62310	4.813586	-0.082277	9.047999	0.036870	-0.052011	-0.008311	-0.342000	-0.795458	0.500282	0.916508	-0.399907	-0.009321	0.207480	0.455325	0.865812
62311	4.846187	0.041833	9.032243	0.035225	-0.054519	-0.000932	-0.341911	-0.795188	0.500773	0.916564	-0.399787	-0.009031	0.207384	0.455903	0.865531
62312	4.828730	0.048511	9.107206	0.027149	-0.057269	0.000341	-0.341827	-0.794916	0.501262	0.916605	-0.399697	-0.008788	0.207338	0.456455	0.865251
62313	4.776897	0.016213	9.119725	0.020543	-0.073643	0.003379	-0.341658	-0.794574	0.501918	0.916645	-0.399609	-0.008647	0.207441	0.457126	0.864872
62314	4.897751	0.224321	9.077353	0.017935	-0.075291	0.008986	-0.341457	-0.794254	0.502561	0.916697	-0.399492	-0.008527	0.207542	0.457784	0.864500
62315	4.984318	0.066664	9.019541	-0.004388	-0.089836	0.018458	-0.341117	-0.793898	0.503355	0.916736	-0.399399	-0.008677	0.207928	0.458483	0.864036
62316	4.893203	-0.038308	9.030304	-0.000726	-0.086712	0.011686	-0.340867	-0.793535	0.504095	0.916759	-0.399346	-0.008733	0.208238	0.459157	0.863604
62317	4.934186	-0.108788	8.992830	0.014917	-0.093315	0.011080	-0.340586	-0.793132	0.504919	0.916813	-0.399223	-0.008679	0.208459	0.459960	0.863123
62318	4.818825	-0.349987	8.988421	0.035384	-0.090371	-0.007074	-0.340500	-0.792676	0.505692	0.916847	-0.399152	-0.008328	0.208450	0.460806	0.862674
62319	4.603011	-0.392074	9.114003	0.065852	-0.109054	-0.020176	-0.340473	-0.792074	0.506653	0.916901	-0.399041	-0.007678	0.208257	0.461937	0.862116
62320	4.921427	-0.069381	9.102413	0.092276	-0.138239	-0.030383	-0.340502	-0.791302	0.507839	0.916974	-0.398891	-0.006719	0.207889	0.463387	0.861426
62321	5.076896	0.352054	9.007368	0.091240	-0.128719	-0.025013	-0.340479	-0.790586	0.508968	0.917063	-0.398699	-0.005826	0.207531	0.464772	0.860766
62322	5.064609	0.313705	9.110958	0.053878	-0.133654	-0.016432	-0.340390	-0.789887	0.510111	0.917103	-0.398615	-0.005269	0.207500	0.466031	0.860093
62323	5.087873	0.090046	9.027664	0.049777	-0.130854	-0.008434	-0.340211	-0.789224	0.511255	0.917163	-0.398482	-0.004817	0.207528	0.467266	0.859415
62324	5.156109	0.198018	9.000655	0.045255	-0.123988	-0.007592	-0.340061	-0.788603	0.512313	0.917216	-0.398367	-0.004380	0.207542	0.468412	0.858788
62325	5.120553	-0.060706	8.934676	0.047362	-0.118642	-0.012852	-0.339948	-0.787976	0.513351	0.917256	-0.398280	-0.003926	0.207551	0.469539	0.858170
62326	4.968660	-0.352566	8.900879	0.064580	-0.107102	-0.018797	-0.339936	-0.787387	0.514262	0.917310	-0.398161	-0.003266	0.207331	0.470628	0.857627
62327	4.890078	-0.026449	9.029465	0.088496	-0.117404	-0.030936	-0.339992	-0.786691	0.515288	0.917373	-0.398021	-0.002367	0.206958	0.471907	0.857014
62328	5.034820	0.031117	8.942453	0.072430	-0.127383	-0.029935	-0.340041	-0.785959	0.516372	0.917406	-0.397951	-0.001583	0.206735	0.473184	0.856363
62329	4.822395	0.060611	9.065038	0.061381	-0.132331	-0.028034	-0.340040	-0.785202	0.517524	0.917422	-0.397914	-0.000932	0.206661	0.474471	0.855668
62330	5.079799	0.316278	9.124482	0.047338	-0.160046	-0.018064	-0.339913	-0.784359	0.518884	0.917443	-0.397867	-0.000424	0.206779	0.475903	0.854844
62331	4.993347	0.234596	9.162601	0.015010	-0.166890	-0.003351	-0.339613	-0.783531	0.520329	0.917448	-0.397855	-0.000297	0.207248	0.477274	0.853966
62332	4.785160	-0.014256	9.360323	0.005120	-0.188325	-0.005577	-0.339312	-0.782598	0.521928	0.917424	-0.397911	-0.000214	0.207849	0.478756	0.852990
62333	4.805557	-0.348684	9.240581	0.006455	-0.220643	-0.011904	-0.338977	-0.781473	0.523827	0.917382	-0.398007	-0.000116	0.208578	0.480510	0.851825
62334	3.443239	0.232041	10.175333	0.110184	-0.296526	-0.034408	-0.338712	-0.779897	0.526341	0.917480	-0.397782	0.001012	0.208580	0.483250	0.850273
62335	5.010401	0.234440	9.233795	-0.102124	-0.543516	-0.031439	-0.337874	-0.777115	0.530973	0.917144	-0.398556	0.000293	0.211395	0.487078	0.847389
62336	4.595664	0.649227	9.660216	-0.000808	-0.515330	-0.022974	-0.337030	-0.774494	0.535323	0.917049	-0.398775	0.000418	0.213149	0.491058	0.844648
62337	4.906180	0.298007	9.261616	-0.093061	-0.604204	0.006286	-0.335690	-0.771520	0.540435	0.916855	-0.399219	-0.000418	0.216074	0.495360	0.841386
62338	4.950125	0.641870	9.388219	-0.128332	-0.692692	0.033613	-0.333913	-0.768197	0.546238	0.916672	-0.399636	-0.001668	0.219578	0.500165	0.837628
62339	5.020966	0.487902	9.360845	-0.159727	-0.763219	0.071264	-0.331583	-0.764625	0.552632	0.916540	-0.399927	-0.003411	0.223621	0.505378	0.833419
62340	4.761745	0.020001	9.451066	-0.187352	-0.865394	0.083984	-0.328898	-0.760553	0.559808	0.916378	-0.400277	-0.005424	0.228203	0.511212	0.828605
62341	4.916767	-0.471407	9.323983	-0.183582	-0.992905	0.069660	-0.325984	-0.755702	0.568021	0.916168	-0.400728	-0.007349	0.233176	0.518007	0.822981
62342	4.987159	-0.310472	9.032187	-0.100675	-1.089255	0.052872	-0.322976	-0.750221	0.576935	0.916086	-0.400892	-0.008466	0.237640	0.525788	0.816746
62343	5.369658	-0.083249	8.864742	-0.146748	-1.212405	0.049967	-0.319620	-0.743975	0.586808	0.915879	-0.401332	-0.009966	0.242919	0.534260	0.809665
62344	5.165711	-0.705227	8.837512	-0.114351	-1.287864	0.035118	-0.316177	-0.737170	0.597170	0.915693	-0.401725	-0.011083	0.248068	0.543321	0.802038
62345	5.211340	-0.434260	8.853387	-0.058269	-1.423186	0.003608	-0.312592	-0.729359	0.608541	0.915543	-0.402054	-0.011584	0.253115	0.553524	0.793438
62346	5.305485	-0.609077	8.843637	-0.065434	-1.560214	-0.035842	-0.308970	-0.720485	0.620837	0.915248	-0.402717	-0.011867	0.258572	0.564553	0.783850
62347	5.342811	-0.444373	8.942732	0.049746	-1.706545	-0.076606	-0.305231	-0.710415	0.634149	0.915126	-0.403017	-0.011013	0.263396	0.576965	0.773133
62348	5.261423	-0.590035	8.957400	0.043339	-1.942165	-0.125935	-0.301257	-0.698561	0.649043	0.914843	-0.403689	-0.009859	0.268899	0.590803	0.760688
62349	4.972405	-0.372686	9.267366	0.190740	-2.254008	-0.158267	-0.296600	-0.684398	0.666053	0.914872	-0.403677	-0.007394	0.273931	0.607160	0.745868
62350	5.232697	-1.094676	8.970520	0.193649	-2.535933	-0.291452	-0.292290	-0.667591	0.684754	0.914532	-0.404493	-0.003983	0.279637	0.625066	0.728763
62351	4.644315	-1.253092	9.066460	0.405143	-2.819822	-0.429047	-0.288278	-0.647921	0.705049	0.914413	-0.404778	0.001902	0.284156	0.645254	0.709156
62352	5.126695	-1.486153	9.369662	0.447618	-3.061516	-0.621066	-0.285228	-0.625320	0.726374	0.913897	-0.405836	0.009488	0.288856	0.666538	0.687234
62353	5.512665	-1.780683	9.473893	0.527577	-3.268228	-0.857177	-0.283557	-0.599662	0.748332	0.912978	-0.407548	0.019364	0.293370	0.688702	0.663041
62354	6.304115	-2.027795	10.125976	0.576792	-3.442957	-1.082711	-0.283301	-0.571136	0.770418	0.911596	-0.409890	0.031351	0.297881	0.711192	0.636767
62355	8.319561	-2.237222	11.176376	0.695427	-3.568476	-1.294957	-0.284411	-0.540002	0.792155	0.909988	-0.412097	0.045796	0.301715	0.733876	0.608600
62356	8.712528	-0.900079	11.670562	0.609292	-3.683734	-1.482452	-0.286722	-0.506434	0.813212	0.907588	-0.415358	0.061330	0.306715	0.755647	0.578726
62357	10.029811	-1.828284	11.634920	0.294908	-3.797359	-1.645636	-0.289835	-0.470450	0.833470	0.903743	-0.421177	0.076539	0.315031	0.775427	0.547238
62358	10.288447	-3.697406	11.071080	0.272811	-3.881166	-1.842796	-0.294094	-0.432178	0.852485	0.899212	-0.427397	0.093540	0.323924	0.794074	0.514315
62359	10.511407	-6.289633	10.374563	0.542711	-3.925272	-2.103594	-0.300127	-0.391576	0.869823	0.894720	-0.431739	0.114357	0.330757	0.812570	0.479927
62360	11.628708	-6.083875	11.053484	1.160870	-3.815152	-2.351549	-0.308528	-0.350076	0.884453	0.891387	-0.430960	0.140368	0.332024	0.831697	0.445016
62361	9.793558	-6.462648	10.387948	1.848297	-3.557978	-2.528344	-0.319336	-0.309294	0.895746	0.889519	-0.423777	0.170788	0.326773	0.851322	0.410450
62362	6.135815	-7.279514	9.443374	2.561193	-3.512444	-2.772825	-0.332749	-0.267487	0.904283	0.888679	-0.409749	0.205804	0.315479	0.872099	0.374054
62363	-0.688504	-7.796303	7.155457	3.695478	-3.618647	-3.141775	-0.349650	-0.222979	0.909959	0.889222	-0.384819	0.247385	0.295007	0.895653	0.332830
62364	2.987268	-4.193750	9.579885	4.527726	-3.910061	-3.204199	-0.367181	-0.175724	0.913400	0.890477	-0.350142	0.290604	0.268754	0.920066	0.285043
62365	23.361892	9.393840	20.628177	3.743005	-2.710780	-2.001758	-0.378073	-0.143827	0.914535	0.892626	-0.318617	0.318908	0.245519	0.936908	0.248844
62366	13.660201	7.246382	21.022831	0.996094	-0.699901	-0.943281	-0.384826	-0.134334	0.913161	0.891419	-0.310637	0.329966	0.239336	0.940988	0.239289
62367	8.837260	2.790496	17.466145	-0.915859	0.843189	-0.121846	-0.387964	-0.141840	0.910695	0.888716	-0.319441	0.328848	0.244270	0.936931	0.249987
62368	2.025696	-4.440384	10.793606	-1.377233	1.629163	0.435633	-0.388163	-0.158526	0.907854	0.886975	-0.331710	0.321315	0.250207	0.929967	0.269367
62369	-0.149088	-5.864748	7.450763	-1.042820	1.810677	0.723427	-0.386311	-0.177709	0.905087	0.887138	-0.340194	0.311854	0.252486	0.923411	0.289074
62370	-0.018042	-4.789437	6.297652	-0.418096	1.814742	0.818630	-0.383629	-0.197287	0.902168	0.889217	-0.342578	0.303206	0.249244	0.918541	0.306854
62371	0.561401	-2.148272	6.579219	-0.027049	1.820020	0.795000	-0.381037	-0.216661	0.898815	0.892173	-0.341218	0.295970	0.242566	0.914674	0.323316
62372	0.903811	-0.029558	7.292765	0.030806	1.850316	0.769243	-0.378619	-0.236241	0.894896	0.895145	-0.339263	0.289164	0.235293	0.910544	0.339921
62373	1.616826	1.041673	7.962240	-0.092106	1.942514	0.745797	-0.376455	-0.256379	0.890253	0.897731	-0.338300	0.282192	0.228825	0.905441	0.357514
62374	2.715978	1.506722	8.463136	-0.283254	2.129070	0.726476	-0.374777	-0.278126	0.884414	0.899796	-0.338984	0.274694	0.223402	0.898741	0.377300
62375	3.911483	1.712846	8.656350	-0.501580	2.396749	0.702619	-0.373766	-0.301928	0.877006	0.901301	-0.341470	0.266562	0.218989	0.890077	0.399758
62376	4.756200	1.578263	8.505528	-0.690096	2.708324	0.703122	-0.373342	-0.328386	0.867628	0.902407	-0.345429	0.257567	0.215123	0.879114	0.425301
62377	4.804288	1.428284	8.130879	-0.824288	3.007577	0.713791	-0.373326	-0.357087	0.856222	0.903298	-0.350213	0.247796	0.211376	0.865933	0.453300
62378	4.524992	1.488521	7.550108	-0.925582	3.230043	0.741528	-0.373432	-0.387514	0.842841	0.904106	-0.355466	0.237143	0.207705	0.850574	0.483096
62379	4.795906	1.727321	7.325455	-1.031698	3.370411	0.788581	-0.373261	-0.418693	0.827872	0.904908	-0.361013	0.225413	0.204493	0.833286	0.513630
62380	5.534311	1.482295	7.076646	-1.146301	3.477884	0.830260	-0.372852	-0.450448	0.811220	0.905655	-0.366914	0.212519	0.201919	0.813923	0.544754
62381	6.122108	0.608503	6.842519	-1.177666	3.572530	0.847869	-0.372352	-0.482263	0.792954	0.906436	-0.372460	0.199116	0.199318	0.792904	0.575827
62382	6.262367	-0.190106	6.658128	-1.112304	3.630710	0.898671	-0.371415	-0.514098	0.773145	0.907560	-0.376743	0.185474	0.195925	0.770563	0.606503
62383	6.357241	-0.781339	6.487032	-1.034390	3.635322	1.025462	-0.369163	-0.545545	0.752396	0.909336	-0.379199	0.171218	0.191901	0.747388	0.636070
62384	6.528899	-1.208173	6.811651	-0.925827	3.585730	1.254116	-0.364574	-0.576756	0.731052	0.912164	-0.379031	0.155861	0.187198	0.723662	0.664281
62385	7.436024	-0.623963	7.770138	-0.849861	3.546842	1.570692	-0.356781	-0.607903	0.709339	0.916245	-0.375812	0.138779	0.182214	0.699442	0.691071
62386	9.181988	0.376271	9.293562	-0.863739	3.581038	1.962672	-0.345220	-0.639885	0.686564	0.921564	-0.369552	0.118958	0.177602	0.673780	0.717272
62387	11.690917	2.065988	10.951346	-0.938673	3.741112	2.355020	-0.330028	-0.673146	0.661783	0.927854	-0.360320	0.096210	0.173690	0.645790	0.743497
62388	14.357749	4.216406	11.476597	-1.054681	4.027117	2.682808	-0.312006	-0.708099	0.633442	0.934637	-0.348482	0.070808	0.170604	0.614131	0.770544
62389	16.355196	6.693766	9.975328	-1.236720	4.367576	2.904519	-0.292191	-0.744048	0.600847	0.941301	-0.334799	0.043162	0.169049	0.578189	0.798198
62390	17.082926	8.168349	6.979737	-1.429918	4.562826	2.994351	-0.271671	-0.779398	0.564565	0.947309	-0.320011	0.014066	0.169704	0.538639	0.825269
62391	16.882046	8.149794	3.555946	-1.338363	4.459852	2.811395	-0.252572	-0.811306	0.527247	0.952390	-0.304626	-0.012514	0.170766	0.498984	0.849620
62392	16.613539	6.901195	1.007646	-0.819633	4.050308	2.261844	-0.237888	-0.837561	0.491834	0.956536	-0.289951	-0.031114	0.168668	0.463056	0.870133
62393	16.575688	5.283110	-0.487625	0.043786	3.432329	1.264266	-0.231437	-0.856541	0.461275	0.959564	-0.279078	-0.036776	0.160232	0.434112	0.886495
62394	15.140872	4.344145	0.237580	0.667597	2.866809	0.057212	-0.235327	-0.868846	0.435578	0.960714	-0.275794	-0.031087	0.147139	0.411151	0.899614
62395	15.553000	0.807280	-15.051958	2.955172	-0.028381	-1.220821	-0.247043	-0.865356	0.436039	0.961690	-0.274139	0.000804	0.118839	0.419532	0.899928
62396	24.122812	25.539814	-5.788860	1.047651	-0.120175	-0.457037	-0.251334	-0.863617	0.437032	0.961735	-0.273710	0.012210	0.109075	0.423378	0.899363
62397	31.108211	-1.137927	-15.865049	-2.210877	-2.689641	0.419684	-0.244009	-0.853146	0.461088	0.960044	-0.279690	-0.009449	0.137023	0.440359	0.887304
62398	27.996580	-10.388735	-16.847174	1.754384	-1.972288	1.068891	-0.231175	-0.847152	0.478426	0.964871	-0.262724	0.001018	0.124832	0.461855	0.878127
62399	9.992380	14.228589	16.082359	3.402007	-0.842255	-0.010891	-0.230377	-0.843151	0.485821	0.968558	-0.246868	0.030848	0.093924	0.477652	0.873514
62400	51.422623	35.253819	38.043803	-0.089011	-1.177145	-0.716637	-0.236221	-0.835676	0.495828	0.966791	-0.253351	0.033595	0.097544	0.487297	0.867771
62401	-31.852043	-9.409263	-3.595702	-2.867544	2.840061	-0.175887	-0.241006	-0.848597	0.470956	0.963264	-0.268393	0.009332	0.118482	0.455905	0.882107
62402	20.539744	-14.239061	20.345358	-1.538303	-4.240397	-0.165601	-0.237088	-0.828139	0.507913	0.960843	-0.277075	-0.003253	0.143424	0.487253	0.861403
62403	9.757382	1.471355	-4.950283	2.758616	2.480730	-0.052853	-0.240770	-0.839905	0.486405	0.964216	-0.264290	0.020922	0.110979	0.474037	0.873483
62404	0.539183	14.486320	19.433965	0.932772	-0.481982	0.453072	-0.235919	-0.838774	0.490715	0.966284	-0.256073	0.026854	0.103135	0.480506	0.870906
62405	7.836480	-5.317088	4.922180	-3.379408	-0.917597	-0.084425	-0.235645	-0.834130	0.498697	0.962002	-0.273033	-0.002113	0.137923	0.479249	0.866774
62406	5.463258	-1.183288	8.657760	1.694728	0.434207	0.223990	-0.234088	-0.836804	0.494935	0.964709	-0.263069	0.011496	0.120582	0.480159	0.868854
62407	4.049115	1.974609	10.987692	-0.564161	-0.178698	0.082213	-0.233093	-0.836147	0.496513	0.964194	-0.265125	0.006169	0.126480	0.480173	0.868007
62408	6.052582	-1.780760	7.314102	-0.114380	0.002391	0.050144	-0.232653	-0.836283	0.496491	0.964155	-0.265293	0.004942	0.127582	0.479844	0.868028
62409	4.756026	1.305089	9.840373	0.054310	0.081725	0.047901	-0.232313	-0.836786	0.495802	0.964326	-0.264667	0.005156	0.126908	0.479313	0.868420
62410	4.846186	0.283466	8.912539	-0.091193	0.043062	0.056647	-0.231862	-0.837133	0.495427	0.964331	-0.264667	0.004098	0.127693	0.478706	0.868640
62411	4.616617	0.537342	9.246939	-0.079445	0.024242	0.061449	-0.231318	-0.837396	0.495238	0.964362	-0.264568	0.003083	0.128442	0.478302	0.868752
62412	4.676507	-0.021243	9.001838	-0.063301	0.002934	0.055958	-0.230823	-0.837549	0.495210	0.964400	-0.264439	0.002271	0.129051	0.478104	0.868771
62413	4.856862	-0.222297	9.008165	-0.028416	-0.013447	0.037020	-0.230466	-0.837566	0.495346	0.964439	-0.264300	0.001821	0.129395	0.478151	0.868694
62414	5.023671	-0.697151	8.901880	-0.016535	-0.010427	0.013054	-0.230367	-0.837543	0.495433	0.964437	-0.264307	0.001627	0.129584	0.478188	0.868645
62415	4.847717	-0.368222	9.098799	0.049851	0.007887	-0.009884	-0.230491	-0.837538	0.495383	0.964469	-0.264187	0.002089	0.129124	0.478263	0.868672
62416	4.753343	-0.099365	9.151417	0.054391	-0.008926	-0.019129	-0.230703	-0.837436	0.495456	0.964485	-0.264124	0.002669	0.128626	0.478475	0.868629
62417	4.730333	0.123326	9.176398	0.055781	-0.027952	-0.016515	-0.230845	-0.837243	0.495717	0.964509	-0.264030	0.003216	0.128192	0.478866	0.868478
62418	4.740993	-0.041227	9.089673	0.058579	-0.041145	-0.013608	-0.230963	-0.837002	0.496069	0.964542	-0.263901	0.003805	0.127728	0.479358	0.868275
62419	4.662323	-0.166643	9.209972	0.055779	-0.069369	-0.013875	-0.231026	-0.836616	0.496689	0.964572	-0.263785	0.004339	0.127389	0.480095	0.867917
62420	4.932830	0.035156	9.061014	0.064007	-0.086099	-0.015719	-0.231108	-0.836153	0.497431	0.964607	-0.263646	0.004985	0.126977	0.480977	0.867489
62421	5.122951	0.259059	9.002046	0.069782	-0.052332	-0.012134	-0.231177	-0.835853	0.497903	0.964658	-0.263447	0.005631	0.126464	0.481607	0.867215
62422	4.869155	0.220650	9.111902	0.017116	-0.063551	-0.004755	-0.231182	-0.835526	0.498448	0.964658	-0.263442	0.005816	0.126452	0.482177	0.866900
62423	4.852181	0.019075	9.006396	0.050990	-0.056942	-0.009905	-0.231224	-0.835209	0.498960	0.964690	-0.263313	0.006288	0.126131	0.482796	0.866602
62424	4.908484	0.305283	9.046092	0.051297	-0.069068	-0.008091	-0.231254	-0.834846	0.499553	0.964725	-0.263171	0.006786	0.125802	0.483501	0.866257
62425	4.903138	0.207698	9.057286	0.038794	-0.063975	-0.002379	-0.231215	-0.834514	0.500125	0.964759	-0.263038	0.007114	0.125615	0.484146	0.865924
62426	4.733794	-0.079487	8.970754	0.037556	-0.067611	-0.001913	-0.231188	-0.834174	0.500705	0.964792	-0.262909	0.007462	0.125415	0.484801	0.865586
62427	4.483975	-0.138644	9.185057	0.039270	-0.106923	-0.002891	-0.231100	-0.833631	0.501649	0.964825	-0.262778	0.007797	0.125323	0.485805	0.865036
62428	4.926360	0.001869	8.996221	0.052299	-0.130306	-0.004019	-0.231016	-0.832979	0.502769	0.964871	-0.262595	0.008282	0.125126	0.487021	0.864381
62429	4.984004	0.134229	8.934102	0.058294	-0.116676	-0.007873	-0.230964	-0.832374	0.503795	0.964916	-0.262411	0.008806	0.124872	0.488154	0.863778
62430	4.705309	-0.013534	9.107757	0.034325	-0.129592	-0.010200	-0.230940	-0.831706	0.504907	0.964925	-0.262366	0.009167	0.124846	0.489315	0.863125
62431	4.741676	-0.344584	8.974046	0.084524	-0.142119	-0.024026	-0.231013	-0.830930	0.506150	0.964965	-0.262187	0.009998	0.124398	0.490727	0.862388
62432	5.240287	0.356669	8.891257	0.124501	-0.144340	-0.041318	-0.231273	-0.830106	0.507383	0.965014	-0.261956	0.011293	0.123537	0.492244	0.861647
62433	5.308395	0.739685	8.941931	0.100483	-0.099461	-0.035494	-0.231511	-0.829506	0.508254	0.965046	-0.261791	0.012320	0.122837	0.493341	0.861119
62434	5.114071	0.306146	8.998598	0.064613	-0.125667	-0.019833	-0.231588	-0.828826	0.509327	0.965069	-0.261674	0.012990	0.122511	0.494544	0.860475
62435	4.835269	0.302084	9.172415	0.083749	-0.108437	-0.019077	-0.231658	-0.828223	0.510276	0.965118	-0.261453	0.013788	0.121993	0.495670	0.859900
62436	4.985192	0.148862	8.900153	0.063179	-0.125600	-0.019140	-0.231729	-0.827543	0.511346	0.965140	-0.261335	0.014443	0.121681	0.496867	0.859254
62437	4.981345	0.324682	9.067533	0.072904	-0.136594	-0.020745	-0.231782	-0.826792	0.512534	0.965171	-0.261180	0.015156	0.121333	0.498196	0.858533
62438	5.089160	0.306505	9.082136	0.044255	-0.143084	-0.016128	-0.231804	-0.826030	0.513753	0.965177	-0.261130	0.015632	0.121244	0.499486	0.857796
62439	5.163126	0.358304	9.081676	0.039715	-0.153291	-0.008960	-0.231723	-0.825223	0.515084	0.965195	-0.261041	0.015999	0.121255	0.500864	0.856990
62440	5.136980	0.256674	8.936042	0.025498	-0.141883	-0.005260	-0.231642	-0.824491	0.516292	0.965203	-0.260995	0.016258	0.121345	0.502092	0.856259
62441	5.084563	0.221732	8.980519	0.029120	-0.141541	-0.009162	-0.231577	-0.823739	0.517520	0.965208	-0.260959	0.016536	0.121430	0.503344	0.855511
62442	5.095236	0.104121	8.871406	0.031662	-0.140212	-0.018597	-0.231626	-0.822977	0.518708	0.965193	-0.260991	0.016917	0.121456	0.504572	0.854784
62443	5.080389	0.097694	9.005395	0.029639	-0.149043	-0.020837	-0.231665	-0.822153	0.519997	0.965171	-0.261048	0.017259	0.121555	0.505884	0.853994
62444	4.976005	0.061948	9.005751	0.018596	-0.152222	-0.024870	-0.231760	-0.821310	0.521284	0.965126	-0.261196	0.017561	0.121735	0.507175	0.853202
62445	4.921485	0.058526	9.135531	0.009455	-0.173593	-0.039918	-0.231952	-0.820307	0.522776	0.965036	-0.261512	0.017831	0.122085	0.508633	0.852284
62446	5.104177	0.261012	9.054547	0.010410	-0.189829	-0.030790	-0.232057	-0.819253	0.524379	0.964966	-0.261749	0.018094	0.122432	0.510207	0.851293
62447	4.919096	0.361705	9.206818	-0.014461	-0.210277	-0.036248	-0.232167	-0.818067	0.526180	0.964855	-0.262156	0.018143	0.123099	0.511899	0.850180
62448	4.653322	-0.247650	9.266409	-0.034024	-0.263779	-0.053021	-0.232393	-0.816569	0.528403	0.964679	-0.262802	0.018147	0.124047	0.513956	0.848800
62449	4.558874	0.105335	9.390560	0.026482	-0.311584	-0.088021	-0.232873	-0.814715	0.531046	0.964498	-0.263419	0.018819	0.124555	0.516576	0.847134
62450	4.018955	0.558430	9.852416	-0.029367	-0.475801	-0.087236	-0.233159	-0.812012	0.535045	0.964247	-0.264319	0.019049	0.125955	0.520357	0.844609
62451	5.000007	0.499632	9.385689	-0.085106	-0.516208	-0.074401	-0.233239	-0.809101	0.539402	0.963956	-0.265403	0.018713	0.128018	0.524325	0.841840
62452	4.895458	0.653947	9.384649	-0.105033	-0.629625	-0.056702	-0.233012	-0.805629	0.544671	0.963677	-0.266453	0.018152	0.130505	0.529117	0.838453
62453	4.843048	0.689635	9.471203	-0.180400	-0.728124	-0.020475	-0.232265	-0.801685	0.550776	0.963381	-0.267613	0.016737	0.133977	0.534495	0.834485
62454	4.940396	0.455414	9.409684	-0.199513	-0.804625	-0.002246	-0.231235	-0.797350	0.557461	0.963094	-0.268742	0.015104	0.137770	0.540380	0.830066
62455	4.784837	0.026083	9.525195	-0.217968	-0.983442	0.013357	-0.229748	-0.792019	0.565617	0.962810	-0.269858	0.013209	0.142175	0.547616	0.824562
62456	4.807361	0.032226	9.257786	-0.188847	-1.107801	0.025779	-0.227943	-0.785972	0.574708	0.962585	-0.270735	0.011526	0.146535	0.555833	0.818277
62457	4.968597	-0.022117	9.246285	-0.250913	-1.235945	0.021610	-0.225909	-0.779087	0.584797	0.962249	-0.272009	0.009340	0.151793	0.564831	0.811126
62458	5.034407	-0.677402	8.912562	-0.254305	-1.375325	0.008689	-0.223743	-0.771272	0.595885	0.961865	-0.273430	0.007252	0.157340	0.574784	0.803037
62459	4.760175	0.730698	9.706333	-0.121505	-1.511073	0.015119	-0.221202	-0.762524	0.607970	0.961694	-0.274056	0.006176	0.161909	0.586047	0.793936
62460	5.031967	-0.237614	8.973597	-0.295273	-1.830380	0.035610	-0.217878	-0.751773	0.622387	0.961272	-0.275576	0.003646	0.168774	0.599078	0.782701
62461	4.451888	-0.224138	9.883401	-0.143373	-2.076017	0.051779	-0.213832	-0.739303	0.638519	0.961127	-0.276097	0.002193	0.174672	0.614167	0.769603
62462	4.045728	-0.565174	10.040596	-0.038235	-2.562810	-0.048566	-0.209793	-0.723189	0.658015	0.960945	-0.276731	0.002234	0.180477	0.632785	0.753001
62463	3.932096	-0.360184	9.635948	0.148499	-3.083157	-0.169702	-0.205798	-0.702843	0.680925	0.960853	-0.277023	0.004462	0.185496	0.655187	0.732339
62464	3.747938	-0.712468	9.397672	0.365317	-3.576692	-0.301389	-0.202038	-0.678116	0.706640	0.960911	-0.276705	0.009203	0.189290	0.680877	0.707514
62465	3.578180	-1.603517	9.813039	0.526340	-4.011968	-0.499522	-0.199200	-0.648829	0.734398	0.960902	-0.276400	0.016442	0.192319	0.708960	0.678520
62466	5.467663	-2.123647	10.886269	0.709668	-4.299577	-0.774115	-0.198380	-0.615584	0.762694	0.960721	-0.276202	0.026960	0.194061	0.738085	0.646198
62467	6.730646	-3.389289	10.807812	0.695376	-4.424849	-1.071903	-0.200056	-0.579301	0.790182	0.959932	-0.277415	0.039653	0.196237	0.766454	0.611588
62468	9.959795	-2.345465	11.584695	0.909120	-4.447160	-1.304985	-0.203894	-0.540990	0.815939	0.959067	-0.277676	0.055553	0.196513	0.793867	0.575462
62469	10.775986	-0.582377	11.017940	0.823642	-4.345809	-1.382392	-0.208596	-0.502074	0.839291	0.957828	-0.278284	0.071584	0.197621	0.818828	0.538950
62470	10.758942	-0.308891	10.262802	0.513532	-4.345602	-1.429910	-0.213648	-0.462018	0.860752	0.955819	-0.280962	0.086435	0.201904	0.841190	0.501632
62471	10.959684	-2.538312	9.628191	0.320197	-4.335804	-1.501503	-0.219105	-0.420830	0.880281	0.953214	-0.284904	0.101056	0.208269	0.861238	0.463565
62472	12.696808	-4.645536	9.657883	0.569752	-4.274996	-1.715283	-0.226491	-0.378724	0.897369	0.950574	-0.286850	0.118858	0.212396	0.879935	0.424974
62473	13.028292	-5.406891	10.382575	1.035133	-3.995786	-1.912061	-0.236186	-0.337723	0.911131	0.948333	-0.284540	0.140361	0.211850	0.897207	0.387478
62474	7.642209	-6.504395	9.396683	1.572991	-3.659981	-2.105932	-0.248540	-0.298700	0.921415	0.946496	-0.277052	0.165492	0.205847	0.913247	0.351577
62475	3.546992	-8.069684	7.583127	2.369076	-3.750221	-2.453444	-0.264281	-0.257488	0.929438	0.944918	-0.262075	0.196078	0.193095	0.930063	0.312566
62476	-2.114829	-8.393028	4.042878	3.551403	-3.921881	-2.959254	-0.285135	-0.213316	0.934449	0.943224	-0.235739	0.233998	0.170370	0.948116	0.268422
62477	12.660350	2.502175	11.137306	4.139671	-4.244563	-3.297671	-0.309538	-0.165441	0.936384	0.939914	-0.202406	0.274944	0.144042	0.965226	0.218153
62478	22.074646	7.212766	19.940771	2.562419	-2.575025	-2.374197	-0.328336	-0.135961	0.934725	0.935812	-0.181197	0.302362	0.128260	0.974003	0.186727
62479	15.430285	4.534182	19.695026	1.186103	-0.750080	-1.748816	-0.343751	-0.125530	0.930633	0.931395	-0.171950	0.320839	0.119747	0.977075	0.176026
62480	9.830773	1.408930	15.761053	-0.273322	0.824057	-1.059356	-0.354618	-0.131793	0.925676	0.927350	-0.176053	0.330194	0.119451	0.975518	0.184650
62481	3.009136	-3.016456	10.549594	-0.810424	1.646103	-0.434671	-0.360641	-0.147012	0.921046	0.924808	-0.184587	0.332652	0.121110	0.971759	0.202527
62482	-0.383625	-5.208515	6.767924	-0.824239	1.814127	-0.005274	-0.362932	-0.164664	0.917151	0.923767	-0.192665	0.330959	0.122206	0.967350	0.222035
62483	-0.855694	-4.988806	5.162798	-0.457497	1.730689	0.240948	-0.362820	-0.181816	0.913950	0.924075	-0.196702	0.327709	0.120193	0.963458	0.239380
62484	0.044553	-3.547175	5.150047	-0.209570	1.635094	0.384906	-0.361225	-0.198379	0.911132	0.925203	-0.198067	0.323679	0.116254	0.959904	0.255088
62485	1.268122	-2.378944	5.958524	-0.065823	1.629457	0.469871	-0.358744	-0.214897	0.908362	0.926808	-0.197765	0.319242	0.111038	0.956404	0.270115
62486	2.821189	-0.557375	6.970212	-0.049050	1.754131	0.500936	-0.356022	-0.232712	0.905038	0.928530	-0.197194	0.314559	0.105266	0.952344	0.286285
62487	4.012093	0.873706	7.837583	-0.239987	1.999948	0.516447	-0.353298	-0.252702	0.900734	0.930103	-0.198258	0.309196	0.100444	0.947014	0.305083
62488	4.960852	1.321566	7.990009	-0.493071	2.332322	0.496037	-0.351011	-0.275788	0.894837	0.931348	-0.201683	0.303174	0.096862	0.939822	0.327647
62489	5.509074	1.325956	7.558721	-0.752893	2.672517	0.446985	-0.349422	-0.301672	0.887073	0.932182	-0.207473	0.296634	0.094558	0.930564	0.353709
62490	5.384606	0.862883	6.715205	-0.943907	2.938146	0.409971	-0.348386	-0.329808	0.877413	0.932711	-0.214995	0.289529	0.093150	0.919241	0.382517
62491	4.954574	0.011379	5.889570	-1.034228	3.079960	0.408229	-0.347449	-0.358794	0.866341	0.933163	-0.223070	0.281864	0.092124	0.906370	0.412319
62492	4.965957	-0.721077	5.548767	-1.017643	3.109256	0.462419	-0.346006	-0.387903	0.854290	0.933820	-0.230582	0.273519	0.090885	0.892392	0.442014
62493	5.435613	-0.807859	5.713125	-0.949596	3.092835	0.570075	-0.343482	-0.416587	0.841710	0.934920	-0.236733	0.264352	0.089135	0.877732	0.470789
62494	6.827699	-0.229024	6.403299	-0.914331	3.115848	0.717087	-0.339544	-0.445502	0.828395	0.936549	-0.241680	0.253902	0.087093	0.862043	0.499296
62495	8.271287	0.313383	6.961956	-0.995925	3.232740	0.870076	-0.334195	-0.475192	0.813945	0.938610	-0.246214	0.241638	0.085580	0.844732	0.528303
62496	8.824364	-0.214597	7.011603	-1.097425	3.416259	1.014166	-0.327597	-0.506329	0.797691	0.941019	-0.250481	0.227468	0.084633	0.825161	0.558522
62497	8.611722	-1.172469	6.897639	-1.097189	3.557344	1.173154	-0.319549	-0.538239	0.779863	0.943883	-0.253331	0.211914	0.083503	0.803817	0.588987
62498	8.449456	-1.847623	6.850192	-0.998006	3.620841	1.357635	-0.309722	-0.570468	0.760683	0.947320	-0.253791	0.195386	0.081593	0.781125	0.619021
62499	8.540734	-1.611783	7.123225	-0.896927	3.594860	1.579481	-0.297635	-0.602101	0.740869	0.951386	-0.251471	0.177838	0.079231	0.757784	0.647678
62500	9.342288	-0.990041	7.720333	-0.893912	3.528558	1.851929	-0.282759	-0.633117	0.720563	0.956050	-0.246771	0.158344	0.077563	0.733667	0.675068
62501	16.309645	3.234424	9.130741	-0.798220	3.355709	2.180111	-0.264452	-0.662612	0.700722	0.961394	-0.238447	0.137351	0.076074	0.709992	0.700088
62502	15.851284	6.095170	7.333092	-1.711129	3.806110	2.185421	-0.246438	-0.694327	0.676149	0.965608	-0.235575	0.110029	0.082888	0.680010	0.728502
62503	12.403828	4.672101	4.141666	-1.082470	3.607389	2.149203	-0.228682	-0.723314	0.651554	0.969798	-0.227588	0.087725	0.084833	0.651937	0.753513
62504	11.257549	2.528022	4.711380	-1.051584	3.398735	2.326388	-0.209023	-0.750249	0.627245	0.973974	-0.217213	0.064758	0.087661	0.624456	0.776125
62505	10.420054	2.105229	6.082116	-0.893966	2.968962	2.594872	-0.186355	-0.773862	0.605318	0.978300	-0.202947	0.041727	0.090557	0.599959	0.794889
62506	15.184731	4.242478	9.332884	-0.782907	2.838710	2.819859	-0.161340	-0.796091	0.583273	0.982475	-0.185462	0.018633	0.093341	0.576058	0.812062
62507	17.561764	6.585659	9.505455	-0.495029	3.015149	2.668536	-0.137912	-0.817767	0.558782	0.985999	-0.166752	-0.000687	0.093740	0.550864	0.829314
62508	19.509861	13.999960	7.119392	-0.632932	3.362922	2.217507	-0.119231	-0.839389	0.530293	0.988243	-0.151814	-0.018106	0.095704	0.521899	0.847621
62509	18.293946	19.417277	2.374568	-1.635859	3.514525	1.468823	-0.108311	-0.859352	0.499784	0.988243	-0.147647	-0.039703	0.107910	0.489607	0.865240
62510	11.437922	2.982346	-1.254344	-3.383568	2.374400	0.492886	-0.106411	-0.871463	0.478778	0.984592	-0.159548	-0.071576	0.138764	0.463785	0.875013
62511	13.391305	-5.158722	-27.911646	3.270257	0.116828	-1.398151	-0.120357	-0.869784	0.478529	0.987009	-0.156521	-0.036248	0.106427	0.467950	0.877323
62512	16.620751	22.885273	-7.213332	2.973895	-0.043948	-2.108784	-0.141163	-0.866253	0.479247	0.986975	-0.160873	-0.000067	0.077156	0.472996	0.877680
62513	33.600612	22.855914	0.555512	-0.288504	-2.125451	-0.883590	-0.148194	-0.854535	0.497804	0.985460	-0.169902	0.001712	0.083115	0.490819	0.867288
62514	54.541304	-0.291639	-5.267367	0.593383	-2.721436	-0.769775	-0.153580	-0.839536	0.521146	0.984779	-0.173478	0.010749	0.081383	0.514865	0.853400
62515	11.192611	19.612537	12.114415	1.723949	4.267209	-0.807351	-0.164519	-0.859391	0.484128	0.984688	-0.171782	0.029685	0.057653	0.481599	0.874493
62516	-10.924622	3.691089	16.536329	-1.681490	-0.283289	-0.248003	-0.166813	-0.857580	0.486549	0.983157	-0.182042	0.016212	0.074669	0.481058	0.873503
62517	6.852060	-7.710353	6.070361	-1.784814	-0.570773	0.711598	-0.159358	-0.856120	0.491594	0.982813	-0.184580	-0.002855	0.093183	0.482690	0.870820
62518	1.341060	-2.625817	12.662769	1.392485	-0.095667	0.032200	-0.159000	-0.855710	0.492422	0.984061	-0.177597	0.009126	0.079643	0.486024	0.870309
62519	8.039752	4.163685	9.055276	-0.045577	-0.316161	0.043457	-0.158339	-0.854232	0.495194	0.984087	-0.177483	0.008495	0.080632	0.488659	0.868741
62520	6.628921	-1.099892	7.570409	-0.280431	-0.215991	-0.003282	-0.158235	-0.853165	0.497062	0.983845	-0.178921	0.006095	0.083735	0.489996	0.867693
62521	5.977117	-0.420474	8.518312	0.075800	0.002960	-0.033544	-0.158587	-0.853105	0.497053	0.983848	-0.178871	0.006900	0.083022	0.490119	0.867693
62522	4.742965	-0.560317	8.715198	0.204111	0.096164	-0.079462	-0.159489	-0.853429	0.496207	0.983882	-0.178587	0.009083	0.080864	0.489658	0.868157
62523	4.943656	1.061183	9.257169	0.120370	0.013940	-0.058278	-0.160093	-0.853379	0.496099	0.983879	-0.178530	0.010398	0.079696	0.489766	0.868204
62524	5.151841	1.348752	9.310175	0.128986	0.065597	-0.033193	-0.160513	-0.853636	0.495520	0.983921	-0.178220	0.011700	0.078324	0.489431	0.868517
62525	5.040024	1.201006	9.038276	0.074492	0.005445	0.003430	-0.160503	-0.853655	0.495492	0.983979	-0.177861	0.012310	0.077621	0.489529	0.868525
62526	4.551652	1.273058	9.359082	0.044979	-0.008982	0.035096	-0.160193	-0.853668	0.495569	0.984063	-0.177379	0.012545	0.077194	0.489681	0.868478
62527	4.736933	0.342851	9.183004	-0.030411	-0.053914	0.054800	-0.159631	-0.853487	0.496063	0.984121	-0.177096	0.011990	0.077618	0.490099	0.868204
62528	4.871700	-0.284506	9.150066	-0.033226	-0.067115	0.058845	-0.159042	-0.853257	0.496646	0.984182	-0.176794	0.011429	0.078052	0.490608	0.867878
62529	5.159933	-0.842734	8.890082	-0.030476	-0.051418	0.040536	-0.158623	-0.853062	0.497115	0.984216	-0.176633	0.010943	0.078472	0.491005	0.867615
62530	5.195418	-0.654202	8.881663	0.042624	-0.010444	0.008890	-0.158569	-0.853022	0.497201	0.984256	-0.176385	0.011287	0.078071	0.491163	0.867562
62531	5.039286	-0.064648	8.968912	0.066922	0.011429	-0.010551	-0.158701	-0.853045	0.497119	0.984286	-0.176182	0.011900	0.077432	0.491196	0.867601
62532	4.824258	0.226838	9.115254	0.062100	0.009953	-0.009193	-0.158841	-0.853074	0.497026	0.984312	-0.175993	0.012503	0.076807	0.491215	0.867646
62533	4.583425	0.196178	9.153392	0.035769	-0.013646	-0.000954	-0.158860	-0.852991	0.497163	0.984332	-0.175861	0.012798	0.076515	0.491406	0.867563
62534	4.393436	0.055636	9.237907	0.013872	-0.050085	0.007381	-0.158791	-0.852753	0.497592	0.984347	-0.175767	0.012900	0.076460	0.491851	0.867315
62535	4.726449	-0.003603	9.070304	0.008686	-0.095297	0.007427	-0.158664	-0.852283	0.498438	0.984360	-0.175697	0.012918	0.076564	0.492691	0.866829
62536	5.151167	0.395542	9.044611	-0.002225	-0.105597	0.010594	-0.158521	-0.851777	0.499347	0.984368	-0.175655	0.012864	0.076756	0.493580	0.866307
62537	5.090620	0.199313	8.983685	-0.014438	-0.093809	0.016976	-0.158301	-0.851329	0.500180	0.984377	-0.175618	0.012634	0.077084	0.494366	0.865829
62538	5.118502	0.179337	8.903180	0.008848	-0.079540	0.009128	-0.158192	-0.850948	0.500863	0.984392	-0.175534	0.012683	0.077125	0.495052	0.865434
62539	5.199967	0.385147	8.922835	0.016717	-0.058956	0.008233	-0.158085	-0.850655	0.501393	0.984412	-0.175417	0.012767	0.077092	0.495595	0.865126
62540	5.143161	0.411865	8.991442	0.007940	-0.043133	0.010890	-0.157986	-0.850457	0.501760	0.984428	-0.175322	0.012799	0.077084	0.495969	0.864912
62541	5.010888	0.254983	9.063473	-0.006490	-0.034059	0.023522	-0.157748	-0.850315	0.502076	0.984454	-0.175190	0.012605	0.077240	0.496259	0.864731
62542	4.907359	0.037805	9.048348	-0.016635	-0.041423	0.024904	-0.157513	-0.850149	0.502431	0.984473	-0.175098	0.012355	0.077471	0.496576	0.864529
62543	4.878036	-0.019945	9.004341	-0.005054	-0.050164	0.021108	-0.157286	-0.849922	0.502885	0.984497	-0.174980	0.012186	0.077638	0.497005	0.864267
62544	5.074089	0.099069	8.888807	0.011514	-0.049052	0.009946	-0.157191	-0.849692	0.503303	0.984514	-0.174875	0.012253	0.077604	0.497435	0.864023
62545	5.020309	0.351689	9.011998	0.027746	-0.038981	0.009668	-0.157086	-0.849500	0.503660	0.984545	-0.174691	0.012425	0.077430	0.497827	0.863813
62546	4.871553	0.314288	9.027017	0.014419	-0.042036	0.012553	-0.156971	-0.849310	0.504017	0.984569	-0.174550	0.012504	0.077356	0.498202	0.863603
62547	4.830809	0.216205	9.021948	0.025597	-0.061400	0.014056	-0.156805	-0.849013	0.504567	0.984605	-0.174339	0.012635	0.077239	0.498781	0.863280
62548	4.820720	0.162902	9.089784	0.006460	-0.096824	0.020554	-0.156570	-0.848563	0.505398	0.984635	-0.174170	0.012605	0.077329	0.499606	0.862794
62549	4.984637	0.128617	9.062965	0.016779	-0.103132	0.018109	-0.156332	-0.848064	0.506308	0.984670	-0.173968	0.012639	0.077363	0.500523	0.862260
62550	4.891051	-0.098754	8.986914	0.003368	-0.106130	0.017276	-0.156121	-0.847559	0.507217	0.984693	-0.173842	0.012598	0.077498	0.501420	0.861726
62551	4.496184	-0.371983	9.103192	0.015753	-0.127941	0.013653	-0.155907	-0.846926	0.508340	0.984720	-0.173683	0.012646	0.077580	0.502544	0.861064
62552	4.924662	-0.231700	8.932590	0.052335	-0.165895	-0.002629	-0.155847	-0.846084	0.509759	0.984750	-0.173480	0.013127	0.077326	0.504031	0.860217
62553	5.080937	0.319897	9.010225	0.068007	-0.154147	-0.011015	-0.155856	-0.845272	0.511101	0.984779	-0.173266	0.013749	0.076935	0.505464	0.859411
62554	5.184094	0.225534	8.948119	0.041949	-0.157225	-0.014419	-0.155919	-0.844449	0.512441	0.984782	-0.173213	0.014201	0.076770	0.506857	0.858605
62555	5.109939	0.234546	8.963950	0.051529	-0.154303	-0.020970	-0.156027	-0.843614	0.513780	0.984783	-0.173164	0.014731	0.076541	0.508261	0.857795
62556	5.189226	0.305352	8.986724	0.043340	-0.153732	-0.018740	-0.156136	-0.842797	0.515087	0.984780	-0.173140	0.015217	0.076357	0.509623	0.857003
62557	5.341977	0.319531	8.893560	0.036375	-0.143402	-0.023762	-0.156280	-0.842009	0.516330	0.984764	-0.173190	0.015633	0.076261	0.510906	0.856247
62558	5.329053	0.346932	8.889629	0.029528	-0.131753	-0.014400	-0.156364	-0.841308	0.517447	0.984757	-0.173198	0.015978	0.076179	0.512058	0.855566
62559	5.182986	0.300708	8.935317	0.012607	-0.116675	-0.016345	-0.156456	-0.840667	0.518460	0.984735	-0.173307	0.016151	0.076275	0.513073	0.854949
62560	5.056584	0.257015	8.930892	0.007868	-0.124296	-0.011982	-0.156521	-0.840005	0.519511	0.984716	-0.173405	0.016299	0.076395	0.514122	0.854308
62561	5.032900	0.200886	9.046967	0.004230	-0.146520	-0.010575	-0.156533	-0.839218	0.520779	0.984696	-0.173509	0.016371	0.076621	0.515372	0.853535
62562	5.108730	0.160232	9.072014	-0.018608	-0.163823	-0.016251	-0.156610	-0.838342	0.522165	0.984650	-0.173779	0.016316	0.077063	0.516704	0.852689
62563	4.945203	0.122221	9.062165	0.002527	-0.169713	-0.026773	-0.156762	-0.837402	0.523625	0.984603	-0.174026	0.016459	0.077342	0.518143	0.851790
62564	4.806513	-0.178102	9.100624	-0.017443	-0.204850	-0.049906	-0.157137	-0.836250	0.525351	0.984505	-0.174573	0.016590	0.077838	0.519817	0.850724
62565	4.839847	-0.265534	9.099886	0.003275	-0.246281	-0.078936	-0.157741	-0.834814	0.527449	0.984377	-0.175251	0.017015	0.078232	0.521893	0.849416
62566	4.682409	0.025196	9.260627	0.014073	-0.292917	-0.109519	-0.158632	-0.833088	0.529906	0.984207	-0.176129	0.017731	0.078560	0.524350	0.847871
62567	3.829214	0.511894	9.824389	-0.010302	-0.389568	-0.109768	-0.159425	-0.830830	0.533203	0.984018	-0.177133	0.018209	0.079319	0.527584	0.845791
62568	5.020192	0.689752	9.427076	-0.068621	-0.510618	-0.088885	-0.159933	-0.827967	0.537487	0.983814	-0.178272	0.018123	0.080813	0.531686	0.843077
62569	4.625827	0.539669	9.516965	-0.106065	-0.629636	-0.065274	-0.160080	-0.824471	0.542791	0.983617	-0.179415	0.017566	0.082902	0.536710	0.839684
62570	4.785433	0.893336	9.593779	-0.159766	-0.724286	-0.034948	-0.159857	-0.820501	0.548839	0.983419	-0.180603	0.016437	0.085636	0.542366	0.835766
62571	4.864091	0.420614	9.431367	-0.193221	-0.839800	-0.009546	-0.159237	-0.815885	0.555855	0.983228	-0.181772	0.014862	0.088913	0.548899	0.831146
62572	4.990008	0.310990	9.417808	-0.220864	-0.963875	0.003331	-0.158374	-0.810566	0.563827	0.983026	-0.183005	0.013033	0.092619	0.556321	0.825790
62573	5.060734	0.302105	9.313910	-0.186914	-1.070994	0.024170	-0.157145	-0.804591	0.572659	0.982881	-0.183894	0.011341	0.096184	0.564638	0.819715
62574	4.992032	0.347842	9.264257	-0.230364	-1.215253	0.050060	-0.155504	-0.797767	0.582569	0.982725	-0.184844	0.009193	0.100351	0.573935	0.812729
62575	5.190155	-0.340235	9.008251	-0.299537	-1.357928	0.059439	-0.153542	-0.789997	0.593573	0.982502	-0.186144	0.006405	0.105430	0.584170	0.804754
62576	5.128451	0.127625	9.012306	-0.223952	-1.497397	0.054202	-0.151443	-0.781269	0.605544	0.982335	-0.187079	0.004309	0.109918	0.595500	0.795800
62577	5.188574	-0.157569	9.077711	-0.295435	-1.686659	0.045002	-0.149120	-0.771186	0.618898	0.982063	-0.188545	0.001683	0.115392	0.608048	0.785469
62578	4.961980	-0.487000	9.457022	-0.226353	-1.920491	0.048167	-0.146430	-0.759467	0.633852	0.981860	-0.189609	-0.000360	0.120458	0.622301	0.773454
62579	4.310424	-1.198915	9.758029	-0.162768	-2.282665	-0.052906	-0.144161	-0.744950	0.651358	0.981575	-0.191072	-0.001281	0.125410	0.639172	0.758769
62580	4.318092	-0.741447	9.698029	0.090159	-2.706540	-0.188386	-0.142624	-0.727024	0.671636	0.981411	-0.191914	0.000665	0.128413	0.659246	0.740881
62581	4.045555	-0.844871	9.285610	0.177724	-3.145177	-0.326294	-0.141762	-0.705281	0.694610	0.981171	-0.193098	0.004181	0.131179	0.682123	0.719374
62582	3.976937	-1.141846	9.088878	0.370154	-3.544024	-0.502823	-0.142071	-0.679693	0.719606	0.980937	-0.194051	0.010377	0.132587	0.707362	0.694305
62583	4.798179	-1.429026	9.639178	0.553772	-3.865972	-0.680892	-0.143640	-0.650482	0.745816	0.980691	-0.194628	0.019126	0.132716	0.734162	0.665878
62584	6.023258	-1.775249	10.391514	0.519035	-4.098557	-0.899849	-0.147057	-0.618089	0.772231	0.980064	-0.196499	0.029358	0.133597	0.761153	0.634664
62585	7.761003	-2.499141	10.564332	0.592612	-4.268609	-1.142253	-0.152549	-0.582742	0.798211	0.979139	-0.198808	0.041985	0.134224	0.787964	0.600913
62586	9.618872	-1.189740	10.854419	0.686621	-4.204033	-1.295485	-0.159640	-0.546515	0.822093	0.978027	-0.200673	0.056516	0.134085	0.813051	0.566542
62587	10.439405	0.262837	10.582198	0.425556	-4.240606	-1.362208	-0.167225	-0.508756	0.844513	0.976368	-0.204392	0.070204	0.136895	0.836296	0.530913
62588	10.555059	-0.762479	10.382530	0.116333	-4.296804	-1.394036	-0.174859	-0.469495	0.865447	0.974134	-0.210275	0.082747	0.143133	0.857531	0.494119
62589	10.004163	-2.416296	9.839642	0.111936	-4.313844	-1.474422	-0.182904	-0.428906	0.884639	0.971651	-0.215969	0.096185	0.149800	0.877153	0.456249
62590	11.880065	-3.729579	9.940916	0.424594	-4.280134	-1.647140	-0.192446	-0.387411	0.901597	0.969190	-0.218980	0.112779	0.153739	0.895522	0.417617
62591	12.822486	-4.441448	11.327764	0.882003	-4.094666	-1.782460	-0.203434	-0.346473	0.915735	0.967006	-0.217586	0.132499	0.153344	0.912476	0.379306
62592	8.481175	-5.532863	10.662902	1.572494	-3.811301	-1.941839	-0.216536	-0.307280	0.926656	0.965268	-0.209514	0.156083	0.146186	0.928269	0.341975
62593	4.829080	-7.478465	9.203117	2.379747	-3.802093	-2.198428	-0.232475	-0.267224	0.935172	0.963630	-0.193588	0.184232	0.131807	0.943989	0.302509
62594	-2.407568	-8.050649	5.472726	3.686242	-4.001968	-2.581067	-0.252609	-0.224528	0.941157	0.961738	-0.164887	0.218797	0.106058	0.960416	0.257589
62595	8.679594	2.440243	13.314649	4.346532	-4.257555	-2.723676	-0.274920	-0.179285	0.944604	0.958492	-0.128341	0.254603	0.075585	0.975390	0.207126
62596	24.042529	9.514209	24.354394	2.758974	-2.446627	-1.787871	-0.290455	-0.153309	0.944527	0.955240	-0.104370	0.276809	0.056143	0.982651	0.176762
62597	13.400542	7.093421	23.483273	0.914149	-0.520413	-1.136708	-0.301043	-0.147022	0.942209	0.952351	-0.097124	0.289128	0.049003	0.984353	0.169255
62598	6.386101	2.760038	17.972732	-0.632607	0.989500	-0.567922	-0.306988	-0.156265	0.938797	0.950288	-0.104288	0.293387	0.052059	0.982194	0.180512
62599	0.911425	-1.985326	12.487348	-1.068454	1.759639	-0.119222	-0.309098	-0.173359	0.935096	0.949331	-0.114995	0.292484	0.056827	0.978122	0.200120
62600	-1.276087	-3.795779	8.952963	-0.976621	1.980356	0.121921	-0.309141	-0.192929	0.931241	0.949120	-0.124392	0.289305	0.060023	0.973296	0.221567
62601	-0.781662	-3.428947	7.581814	-0.576669	2.071362	0.204168	-0.308456	-0.213275	0.927021	0.949398	-0.129614	0.286082	0.059141	0.968356	0.242463
62602	0.418501	-1.842571	7.684904	-0.294483	2.204882	0.205813	-0.307802	-0.234947	0.921986	0.949848	-0.132091	0.283444	0.055192	0.962991	0.263822
62603	1.459329	0.529563	7.878513	-0.230445	2.412496	0.166820	-0.307506	-0.258303	0.915816	0.950232	-0.133931	0.281287	0.049999	0.956735	0.286632
62604	1.723704	2.703184	8.006602	-0.521049	2.622652	0.143905	-0.307450	-0.283606	0.908318	0.950406	-0.138604	0.278419	0.046935	0.948871	0.312155
62605	2.069944	3.444309	7.675439	-1.001376	2.797160	0.118332	-0.307671	-0.310159	0.899522	0.950287	-0.147746	0.274091	0.047889	0.939134	0.340197
62606	3.203667	3.383221	7.431885	-1.468477	2.947914	0.061344	-0.308617	-0.337888	0.889150	0.949720	-0.161352	0.268325	0.052802	0.927253	0.370695
62607	4.978268	2.354988	7.333999	-1.796442	3.140045	-0.030844	-0.310703	-0.366710	0.876919	0.948601	-0.178033	0.261651	0.060171	0.913142	0.403176
62608	6.271990	1.262337	7.216506	-1.895446	3.403929	-0.138150	-0.314233	-0.397378	0.862177	0.946940	-0.195814	0.254876	0.067544	0.896520	0.437824
62609	6.297244	0.641178	6.789013	-1.835062	3.649095	-0.181189	-0.318538	-0.429359	0.845094	0.945064	-0.212884	0.248061	0.073400	0.877685	0.473584
62610	5.738691	1.081941	6.432351	-1.737101	3.771000	-0.115005	-0.322521	-0.461937	0.826193	0.943363	-0.228565	0.240467	0.077758	0.856955	0.509491
62611	6.054626	2.052426	6.459715	-1.748150	3.775966	0.051661	-0.325070	-0.493980	0.806420	0.942123	-0.243147	0.230831	0.082053	0.834783	0.544430
62612	7.020077	1.915909	6.202924	-1.862567	3.770843	0.286084	-0.325617	-0.525842	0.785789	0.941457	-0.257112	0.218066	0.087368	0.810792	0.578777
62613	7.078440	0.487197	6.006820	-1.839131	3.764422	0.539808	-0.323938	-0.557290	0.764521	0.941546	-0.268910	0.202927	0.092498	0.785567	0.611824
62614	7.295896	-0.858649	6.248639	-1.601049	3.708873	0.796685	-0.319968	-0.588236	0.742697	0.942585	-0.276811	0.186841	0.095680	0.759838	0.643033
62615	8.119426	-1.230262	6.911429	-1.239056	3.688856	1.045992	-0.313645	-0.618684	0.720317	0.944703	-0.279794	0.171032	0.095726	0.734129	0.672228
62616	8.990605	-0.420146	7.868425	-0.983053	3.739725	1.310543	-0.304824	-0.649407	0.696672	0.947808	-0.278656	0.154956	0.093503	0.707546	0.700454
62617	9.806009	0.251234	8.740526	-0.899025	3.810129	1.578683	-0.293356	-0.680185	0.671781	0.951692	-0.274435	0.137721	0.090685	0.679730	0.727834
62618	11.203439	1.106236	9.636863	-0.939696	3.921280	1.822222	-0.279526	-0.711294	0.644923	0.956055	-0.268082	0.118708	0.088456	0.649764	0.754972
62619	12.783663	1.843927	9.937834	-1.087676	4.039952	2.038512	-0.263570	-0.742264	0.616097	0.960623	-0.260195	0.097481	0.087948	0.617530	0.781615
62620	14.683490	3.356019	9.900116	-1.252148	4.159224	2.249863	-0.245632	-0.773061	0.584843	0.965227	-0.250730	0.073970	0.089455	0.582675	0.807767
62621	16.529015	5.268690	8.905633	-1.480520	4.264174	2.423514	-0.226108	-0.803049	0.551350	0.969579	-0.240017	0.048034	0.093760	0.545439	0.832890
62622	18.036906	6.649454	6.636615	-1.754000	4.316559	2.524021	-0.205839	-0.831731	0.515610	0.973307	-0.228662	0.019704	0.101512	0.505903	0.856597
62623	19.173783	7.564302	3.569876	-1.905539	4.240273	2.438920	-0.186605	-0.857763	0.478980	0.976052	-0.217350	-0.008976	0.111805	0.465835	0.877780
62624	19.212663	7.695403	0.492728	-1.884693	3.959069	2.129832	-0.170488	-0.880020	0.443281	0.977631	-0.207304	-0.035546	0.123175	0.427305	0.895677
62625	17.311459	6.995913	-2.134685	-1.568326	3.390031	1.560899	-0.159583	-0.897108	0.411983	0.978190	-0.199907	-0.056401	0.132956	0.393997	0.909444
62626	6.101186	-9.457780	-6.149888	-0.753347	1.591100	0.856071	-0.153401	-0.904976	0.396845	0.978501	-0.195138	-0.066759	0.137855	0.378072	0.915455
62627	22.954121	8.468192	-23.911279	4.259819	-0.720087	-1.171666	-0.164058	-0.899935	0.403982	0.981642	-0.189326	-0.023108	0.097280	0.392775	0.914475
62628	24.226377	25.957288	-8.109867	2.334577	-1.060662	-0.375535	-0.166863	-0.895020	0.413636	0.983037	-0.183406	-0.000290	0.076124	0.406572	0.910442
62629	31.366514	7.514889	-16.623387	-1.285514	-2.873806	1.446285	-0.150219	-0.885586	0.439512	0.984234	-0.175940	-0.018109	0.093364	0.429863	0.898054
62630	7.376273	-7.822444	-3.569748	1.503091	-2.268795	1.425443	-0.134216	-0.877957	0.459540	0.987572	-0.156776	-0.011087	0.081779	0.452341	0.888088
62631	25.683585	3.407070	33.151372	1.072870	-2.900548	-1.971583	-0.151409	-0.861219	0.485157	0.985593	-0.168959	0.007662	0.075373	0.479327	0.874394
62632	53.364805	34.939931	28.017104	2.623393	0.768214	-1.834902	-0.169995	-0.861766	0.477976	0.984260	-0.172259	0.039483	0.048310	0.477164	0.877485
62633	-45.408658	-11.467493	5.826411	-2.893947	1.336035	0.864790	-0.162325	-0.869533	0.466436	0.983913	-0.178377	0.009881	0.074610	0.460537	0.884500
62634	34.259052	-4.301779	4.226802	-1.353717	-5.288389	-0.197611	-0.159789	-0.843684	0.512508	0.982429	-0.186634	-0.000934	0.096439	0.503353	0.858682
62635	11.420193	4.871487	6.342562	2.318099	4.224659	0.274975	-0.160554	-0.864759	0.475830	0.984757	-0.173019	0.017835	0.066904	0.471440	0.879357
62636	-6.821067	3.002602	14.967789	0.108239	-0.610219	0.336986	-0.156867	-0.862437	0.481243	0.985358	-0.169631	0.017192	0.066807	0.476893	0.876419
62637	9.880372	-1.059369	7.132804	-1.902528	-0.925777	0.084007	-0.155347	-0.858133	0.489363	0.984019	-0.178062	0.000131	0.087025	0.481563	0.872080
62638	5.256378	-1.101073	7.868687	0.933111	0.280829	0.074673	-0.154884	-0.859612	0.486907	0.984896	-0.172966	0.007931	0.077401	0.480781	0.873418
62639	4.827562	2.277853	10.214479	0.045512	0.038017	0.040446	-0.154535	-0.859850	0.486597	0.984988	-0.172435	0.008111	0.076932	0.480546	0.873589
62640	5.291085	-0.585905	8.414085	-0.239431	-0.076062	0.050354	-0.154021	-0.859568	0.487258	0.984872	-0.173188	0.005796	0.079405	0.480779	0.873239
62641	5.117650	1.077931	9.156300	0.163400	0.101639	0.049834	-0.153630	-0.860128	0.486392	0.985071	-0.172010	0.006960	0.077677	0.480200	0.873713
62642	4.516492	0.625250	9.343629	-0.135457	0.007299	0.066877	-0.153018	-0.860275	0.486326	0.985061	-0.172120	0.005473	0.078998	0.479898	0.873761
62643	4.514014	-0.269237	9.133848	-0.028103	-0.002458	0.064284	-0.152403	-0.860360	0.486369	0.985131	-0.171737	0.004894	0.079317	0.479883	0.873740
62644	4.813596	-0.138015	9.141561	-0.041658	-0.028615	0.057586	-0.151854	-0.860318	0.486614	0.985179	-0.171477	0.004272	0.079768	0.480051	0.873606
62645	4.865610	-0.539161	9.095792	-0.022945	-0.036954	0.046210	-0.151389	-0.860205	0.486958	0.985224	-0.171225	0.003826	0.080088	0.480342	0.873417
62646	5.076906	-0.683119	8.959158	0.004018	-0.029891	0.023250	-0.151177	-0.860099	0.487212	0.985257	-0.171041	0.003769	0.080092	0.480599	0.873276
62647	5.022507	-0.318572	9.009062	0.052485	-0.003143	-0.003417	-0.151228	-0.860064	0.487258	0.985287	-0.170854	0.004224	0.079617	0.480728	0.873248
62648	4.922934	-0.218829	9.020678	0.047932	0.000101	-0.011918	-0.151387	-0.860041	0.487249	0.985301	-0.170761	0.004721	0.079143	0.480802	0.873250
62649	4.821178	-0.134073	9.137622	0.044178	0.000081	-0.015556	-0.151560	-0.860000	0.487267	0.985306	-0.170718	0.005162	0.078746	0.480889	0.873238
62650	4.888535	-0.049052	9.065318	0.057652	-0.000733	-0.018448	-0.151782	-0.859963	0.487264	0.985317	-0.170635	0.005775	0.078178	0.480987	0.873235
62651	4.811027	0.108492	9.209531	0.040967	-0.005412	-0.015015	-0.151945	-0.859897	0.487330	0.985321	-0.170602	0.006186	0.077820	0.481116	0.873196
62652	4.850099	0.013634	9.110989	0.035149	-0.015757	-0.012679	-0.152099	-0.859797	0.487458	0.985322	-0.170578	0.006574	0.077497	0.481303	0.873122
62653	4.956173	0.235417	9.052386	0.030295	-0.007327	-0.014157	-0.152252	-0.859723	0.487540	0.985318	-0.170589	0.006887	0.077248	0.481431	0.873073
62654	5.067792	0.490068	8.987790	0.031141	0.012761	-0.007333	-0.152375	-0.859769	0.487420	0.985325	-0.170537	0.007214	0.076921	0.481366	0.873138
62655	4.902079	0.456918	9.093491	0.005261	0.013330	0.004000	-0.152366	-0.859826	0.487323	0.985329	-0.170513	0.007221	0.076886	0.481273	0.873192
62656	4.890746	0.125082	9.042194	-0.007588	0.014761	0.008139	-0.152338	-0.859908	0.487186	0.985329	-0.170515	0.007135	0.076937	0.481126	0.873269
62657	4.812012	0.039145	9.074744	0.001582	0.013222	0.004099	-0.152328	-0.859965	0.487090	0.985331	-0.170508	0.007109	0.076940	0.481027	0.873323
62658	4.781901	-0.020992	9.105873	-0.006753	0.004105	0.005298	-0.152320	-0.859991	0.487046	0.985327	-0.170530	0.007044	0.076998	0.480973	0.873348
62659	4.748820	-0.053317	9.089656	0.012817	0.005966	0.003570	-0.152309	-0.860012	0.487013	0.985337	-0.170473	0.007118	0.076901	0.480956	0.873366
62660	4.756793	0.003464	9.108770	0.006561	-0.012566	0.004427	-0.152297	-0.859957	0.487114	0.985342	-0.170439	0.007173	0.076854	0.481067	0.873309
62661	4.869880	0.049785	9.088213	0.031358	-0.014558	-0.001926	-0.152324	-0.859869	0.487260	0.985357	-0.170340	0.007436	0.076605	0.481258	0.873225
62662	4.916208	0.105253	9.039054	0.020959	-0.017959	-0.004236	-0.152393	-0.859773	0.487408	0.985361	-0.170311	0.007660	0.076425	0.481440	0.873141
62663	4.890210	0.182145	9.019635	0.041783	-0.014867	-0.003472	-0.152436	-0.859682	0.487556	0.985381	-0.170175	0.008021	0.076074	0.481651	0.873055
62664	4.888256	0.332272	9.027512	0.041260	-0.019280	-0.004836	-0.152510	-0.859578	0.487715	0.985399	-0.170053	0.008425	0.075696	0.481879	0.872962
62665	4.788631	0.297321	9.086948	0.038123	-0.024849	-0.000549	-0.152516	-0.859443	0.487951	0.985421	-0.169910	0.008740	0.075396	0.482170	0.872827
62666	4.891340	0.205427	9.074132	0.028803	-0.039168	0.005525	-0.152473	-0.859262	0.488284	0.985445	-0.169759	0.008984	0.075171	0.482547	0.872639
62667	4.798232	0.275578	9.130708	0.034268	-0.033418	0.009281	-0.152376	-0.859102	0.488595	0.985479	-0.169549	0.009218	0.074922	0.482904	0.872462
62668	4.807386	-0.060957	9.059855	0.013835	-0.051670	0.008081	-0.152299	-0.858864	0.489037	0.985495	-0.169448	0.009319	0.074863	0.483363	0.872213
62669	4.602386	-0.082412	9.084531	0.026601	-0.055500	0.010722	-0.152172	-0.858600	0.489541	0.985525	-0.169263	0.009478	0.074723	0.483897	0.871929
62670	4.602843	-0.089858	9.113707	0.040171	-0.087208	0.001932	-0.152129	-0.858179	0.490291	0.985552	-0.169087	0.009839	0.074459	0.484704	0.871503
62671	4.243219	-0.165329	9.053534	0.032499	-0.099436	0.000558	-0.152069	-0.857683	0.491177	0.985571	-0.168960	0.010099	0.074328	0.485625	0.871002
62672	4.004024	-0.483724	9.322493	0.069540	-0.187323	-0.018021	-0.152149	-0.856740	0.492795	0.985589	-0.168812	0.010812	0.073926	0.487338	0.870078
62673	5.392129	-0.031513	8.819344	0.094682	-0.231612	-0.038129	-0.152374	-0.855530	0.494823	0.985595	-0.168712	0.011804	0.073384	0.489494	0.868914
62674	4.838427	0.506969	9.054976	0.115715	-0.132674	-0.036680	-0.152680	-0.854817	0.495960	0.985617	-0.168494	0.013010	0.072446	0.490813	0.868248
62675	4.621883	-0.207628	9.055662	0.043291	-0.219697	-0.035442	-0.152890	-0.853663	0.497880	0.985588	-0.168620	0.013542	0.072393	0.492775	0.867140
62676	4.995929	0.465452	9.129679	0.111181	-0.214475	-0.038215	-0.153154	-0.852539	0.499722	0.985603	-0.168433	0.014715	0.071625	0.494781	0.866061
62677	5.211729	0.622389	9.160504	0.030348	-0.251265	-0.013308	-0.153125	-0.851256	0.501913	0.985599	-0.168432	0.015024	0.071749	0.496985	0.864788
62678	5.185821	0.503128	9.120698	0.018104	-0.222050	-0.005867	-0.153065	-0.850139	0.503819	0.985596	-0.168428	0.015230	0.071910	0.498894	0.863675
62679	5.097891	0.156537	9.147768	-0.010462	-0.255763	-0.002575	-0.152925	-0.848842	0.506045	0.985579	-0.168538	0.015133	0.072442	0.501061	0.862374
62680	4.962266	-0.120660	9.206961	-0.012397	-0.235625	-0.018814	-0.152981	-0.847627	0.508061	0.985535	-0.168796	0.015141	0.072924	0.503028	0.861188
62681	5.062238	-0.323480	9.071781	-0.010343	-0.247874	-0.047912	-0.153292	-0.846282	0.510205	0.985448	-0.169290	0.015277	0.073444	0.505122	0.859917
62682	4.846900	-0.209341	9.182960	0.040765	-0.249995	-0.072515	-0.153865	-0.844893	0.512330	0.985360	-0.169733	0.016017	0.073426	0.507294	0.858639
62683	4.803331	-0.231687	9.223596	0.011303	-0.280951	-0.105774	-0.154720	-0.843269	0.514741	0.985199	-0.170604	0.016639	0.073786	0.509697	0.857184
62684	4.617309	-0.101093	9.414329	0.051474	-0.332826	-0.134464	-0.155841	-0.841338	0.517555	0.985022	-0.171510	0.017792	0.073797	0.512576	0.855465
62685	4.504908	0.290713	9.528227	0.057272	-0.412431	-0.142414	-0.156959	-0.838957	0.521071	0.984835	-0.172449	0.019002	0.073916	0.516151	0.853302
62686	3.413690	1.203078	10.441690	-0.020756	-0.516306	-0.143896	-0.158034	-0.836033	0.525428	0.984586	-0.173798	0.019597	0.074935	0.520426	0.850613
62687	5.316087	0.823431	9.300143	-0.166992	-0.745648	-0.086371	-0.158334	-0.831964	0.531757	0.984316	-0.175429	0.018618	0.077796	0.526365	0.846692
62688	4.170864	0.746281	10.065288	-0.168805	-0.857747	-0.063097	-0.158319	-0.827311	0.538973	0.984075	-0.176884	0.017551	0.080816	0.533169	0.842140
62689	4.305217	0.530212	10.224651	-0.226012	-1.038411	-0.015511	-0.157631	-0.821689	0.547704	0.983857	-0.178263	0.015720	0.084718	0.541341	0.836524
62690	4.232163	0.260754	10.022164	-0.164870	-1.285868	0.028360	-0.156285	-0.814716	0.558402	0.983752	-0.178970	0.014212	0.088359	0.551550	0.829449
62691	3.986138	0.397214	10.374452	-0.241305	-1.586238	0.070824	-0.154167	-0.805980	0.571515	0.983636	-0.179779	0.011804	0.093233	0.563982	0.820507
62692	4.375304	0.008981	9.644463	-0.261727	-1.873701	0.089490	-0.151536	-0.795443	0.586777	0.983515	-0.180596	0.009175	0.098671	0.578494	0.809697
62693	4.417729	0.106806	9.931140	-0.230676	-2.140194	0.093435	-0.148465	-0.783038	0.603995	0.983414	-0.181250	0.006750	0.104188	0.594979	0.796960
62694	4.242612	-0.680204	9.877776	-0.178853	-2.464345	0.074460	-0.145147	-0.768287	0.623432	0.983325	-0.181792	0.004906	0.109566	0.613748	0.781862
62695	4.307432	-0.724464	9.713655	-0.030112	-2.815362	-0.021848	-0.142235	-0.750649	0.645210	0.983253	-0.182185	0.004798	0.113946	0.635087	0.763990
62696	4.650892	-1.035648	9.856790	0.133618	-3.196071	-0.202733	-0.140585	-0.729610	0.669258	0.983113	-0.182861	0.007162	0.117156	0.658963	0.742996
62697	4.857610	-2.137061	9.413992	0.380132	-3.539033	-0.394406	-0.140312	-0.705084	0.695104	0.982999	-0.183175	0.012621	0.118427	0.685057	0.718799
62698	5.156140	-1.991544	10.178707	0.590747	-3.710804	-0.609447	-0.141971	-0.678063	0.721162	0.982829	-0.183307	0.021131	0.117866	0.711779	0.692444
62699	6.173799	-2.876545	10.035497	0.663534	-3.891170	-0.940050	-0.146657	-0.648087	0.747312	0.982244	-0.184768	0.032526	0.116999	0.738813	0.663677
62700	8.421070	-2.290003	10.891622	0.845956	-3.883326	-1.170979	-0.153712	-0.616737	0.772015	0.981455	-0.185858	0.046936	0.114538	0.764913	0.633868
62701	9.120049	-1.381939	11.201802	0.770174	-3.891599	-1.288839	-0.161943	-0.584055	0.795396	0.980290	-0.187650	0.061797	0.113164	0.789726	0.602931
62702	10.088624	-2.319145	10.718936	0.629528	-3.896763	-1.392503	-0.171219	-0.550217	0.817279	0.978673	-0.190552	0.076745	0.113508	0.812989	0.571108
62703	10.349879	-4.450327	9.915689	0.763623	-3.848949	-1.535754	-0.181899	-0.515534	0.837340	0.976817	-0.192485	0.093689	0.112875	0.834970	0.538595
62704	10.450459	-4.779579	9.313747	1.268798	-3.810701	-1.746532	-0.194790	-0.479991	0.855374	0.974914	-0.190501	0.115113	0.107696	0.856340	0.505058
62705	8.978383	-6.048441	8.571193	1.902715	-3.654924	-1.929227	-0.209868	-0.444687	0.870752	0.972946	-0.182971	0.141056	0.096597	0.876798	0.471057
62706	6.063227	-5.244425	7.402055	2.546107	-3.541221	-2.147072	-0.227656	-0.409538	0.883431	0.970480	-0.169624	0.171454	0.079635	0.896385	0.436065
62707	3.964973	-4.057334	6.319188	3.225532	-3.594246	-2.376231	-0.248245	-0.373148	0.893943	0.967020	-0.149736	0.206036	0.056974	0.915609	0.398013
62708	1.936224	-0.676553	7.481842	3.651796	-3.552822	-2.582505	-0.271631	-0.336793	0.901547	0.961901	-0.125206	0.243042	0.031024	0.933217	0.357971
62709	4.254989	5.180448	13.553685	3.336550	-3.027857	-2.574221	-0.295747	-0.305375	0.905141	0.955236	-0.102143	0.277654	0.007665	0.946738	0.321914
62710	18.682256	12.092780	22.489688	1.712525	-1.851898	-1.953813	-0.314349	-0.285940	0.905220	0.949303	-0.091721	0.300684	-0.002950	0.953848	0.300276
62711	9.404178	6.085207	19.135649	-0.774544	-0.240219	-1.245408	-0.326165	-0.282416	0.902141	0.945299	-0.102688	0.309622	0.005197	0.953780	0.300460
62712	3.934164	0.454956	13.811279	-1.832852	0.880270	-0.845155	-0.334295	-0.289917	0.896769	0.942264	-0.122634	0.311608	0.019634	0.949162	0.314175
62713	0.568204	-4.667038	9.006084	-1.802930	1.406424	-0.563227	-0.339978	-0.302454	0.890470	0.939892	-0.141397	0.310821	0.031901	0.942618	0.332346
62714	-0.818860	-5.494920	6.582141	-1.321910	1.472579	-0.398755	-0.344288	-0.315785	0.884163	0.938040	-0.155143	0.309857	0.039323	0.936061	0.349633
62715	0.475088	-3.165345	6.481232	-0.827250	1.466148	-0.325682	-0.347957	-0.328922	0.877916	0.936567	-0.163951	0.309777	0.042043	0.930016	0.365106
62716	2.366645	0.050088	7.539928	-0.801355	1.541203	-0.300407	-0.351470	-0.342796	0.871183	0.935155	-0.172487	0.309408	0.044204	0.923439	0.381191
62717	3.852979	1.736872	8.111866	-1.106738	1.719150	-0.266396	-0.354775	-0.358105	0.863652	0.933692	-0.183637	0.307404	0.048515	0.915444	0.399510
62718	4.935272	2.101672	8.231784	-1.494921	1.959887	-0.251339	-0.358177	-0.375570	0.854785	0.932001	-0.198273	0.303417	0.055526	0.905337	0.421048
62719	5.948962	1.440660	7.840191	-1.771744	2.236635	-0.264924	-0.361999	-0.395111	0.844301	0.929978	-0.215266	0.297995	0.064008	0.893055	0.445371
62720	6.270777	0.437823	6.989584	-1.882744	2.490879	-0.255053	-0.366107	-0.416710	0.832057	0.927746	-0.233087	0.291476	0.072481	0.878649	0.471935
62721	5.942315	-0.337694	6.102913	-1.825064	2.643360	-0.197700	-0.369969	-0.439228	0.818658	0.925619	-0.249866	0.284248	0.079706	0.862928	0.499001
62722	5.496312	-0.982547	5.397528	-1.699896	2.657901	-0.059455	-0.372752	-0.461897	0.804803	0.923974	-0.264770	0.275989	0.085609	0.846492	0.525474
62723	5.655539	-0.952619	5.430403	-1.512710	2.588495	0.171681	-0.373457	-0.484039	0.791351	0.923275	-0.276680	0.266480	0.089964	0.830153	0.550229
62724	6.572024	-0.319944	5.956960	-1.380349	2.525922	0.448092	-0.371668	-0.506163	0.778243	0.923660	-0.285910	0.255161	0.093354	0.813668	0.573786
62725	7.810231	0.494342	6.652607	-1.343563	2.543630	0.734159	-0.367312	-0.528745	0.765186	0.925087	-0.292969	0.241627	0.096416	0.796616	0.596746
62726	8.496449	0.765259	6.941230	-1.346025	2.641048	0.978977	-0.360862	-0.552536	0.751321	0.927315	-0.298375	0.225962	0.099323	0.778252	0.620047
62727	8.431962	0.427334	6.910464	-1.325517	2.751238	1.176226	-0.352722	-0.577189	0.736505	0.930168	-0.301957	0.208830	0.101858	0.758733	0.643389
62728	8.307523	-0.251805	6.740430	-1.206675	2.819388	1.323708	-0.343311	-0.602395	0.720596	0.933519	-0.303276	0.191224	0.103347	0.738339	0.666465
62729	8.070511	-0.313391	6.864287	-1.025148	2.832815	1.477732	-0.332432	-0.627470	0.704109	0.937441	-0.301692	0.173742	0.103406	0.717819	0.688508
62730	8.523494	-0.005799	7.259585	-0.908421	2.831907	1.645418	-0.319920	-0.652524	0.686924	0.941855	-0.297674	0.155881	0.102764	0.696852	0.709815
62731	9.204876	0.361643	7.745449	-0.848102	2.858486	1.858426	-0.305312	-0.677589	0.669072	0.946787	-0.291172	0.137161	0.101876	0.675346	0.730431
62732	9.822115	0.759520	8.117462	-0.817103	2.894722	2.064417	-0.288677	-0.702821	0.650160	0.952074	-0.282430	0.117424	0.101097	0.652898	0.750669
62733	10.072484	1.355474	8.368500	-0.807194	2.935589	2.218666	-0.270472	-0.727778	0.630226	0.957454	-0.271773	0.097066	0.100636	0.629666	0.770320
62734	10.760146	2.258248	8.662364	-0.811549	2.978575	2.303865	-0.251380	-0.752374	0.608885	0.962634	-0.259806	0.076395	0.100715	0.605338	0.789571
62735	11.156400	2.951359	8.662469	-0.854912	3.034271	2.334984	-0.231934	-0.776260	0.586198	0.967404	-0.247062	0.055594	0.101672	0.579984	0.808258
62736	11.511250	3.443793	8.577772	-0.824641	3.076189	2.304102	-0.212770	-0.799306	0.561996	0.971671	-0.233649	0.035563	0.102884	0.553641	0.826375
62737	11.644863	4.403682	8.411831	-0.749137	3.092403	2.203615	-0.194532	-0.820996	0.536771	0.975376	-0.219878	0.017181	0.103918	0.526896	0.843553
62738	12.032649	5.826331	8.156877	-0.675774	3.060695	2.019403	-0.178031	-0.841077	0.510778	0.978421	-0.206621	0.000794	0.104870	0.499897	0.859712
62739	13.526056	8.160843	7.434687	-0.713837	3.008276	1.730008	-0.164286	-0.859174	0.484593	0.980619	-0.195420	-0.014028	0.106752	0.472896	0.874627
62740	14.642793	9.603407	5.465808	-1.083237	2.922164	1.277123	-0.155000	-0.875096	0.458456	0.981459	-0.189368	-0.029641	0.112755	0.445361	0.888223
62741	14.410452	9.426547	2.325883	-1.375582	2.725909	0.686906	-0.151480	-0.888161	0.433847	0.980888	-0.189289	-0.045027	0.122114	0.418735	0.899861
62742	9.980358	3.201416	1.083488	-1.831830	2.233868	0.199711	-0.152451	-0.897670	0.413458	0.978812	-0.195002	-0.062463	0.136696	0.395175	0.908378
62743	11.561488	-9.697527	-16.922804	1.438046	-0.583916	-0.611991	-0.157703	-0.894133	0.419113	0.979726	-0.194777	-0.046887	0.123557	0.403221	0.906723
62744	16.618879	11.901716	-6.769925	3.199178	0.404347	-1.479295	-0.172673	-0.892909	0.415809	0.980714	-0.195097	-0.011691	0.091562	0.405772	0.909377
62745	24.506032	19.942335	-6.693099	1.495204	-1.663590	0.215934	-0.169147	-0.886411	0.430888	0.982358	-0.187010	0.000918	0.079767	0.423442	0.902405
62746	15.419836	-0.374757	-6.797073	-0.438876	-1.991298	1.895031	-0.148877	-0.881224	0.448641	0.984998	-0.172194	-0.011363	0.087266	0.440219	0.893640
62747	9.079331	8.796142	10.799406	2.776653	-0.648585	0.308737	-0.145371	-0.878831	0.454448	0.987503	-0.157144	0.011996	0.060872	0.450513	0.890692
62748	10.267740	20.963654	21.626437	1.136774	-0.492747	-1.094846	-0.155939	-0.874853	0.458601	0.986480	-0.161625	0.027109	0.050405	0.456628	0.888229
62749	22.004535	18.251828	26.338950	-0.699328	-1.245185	-0.135311	-0.156611	-0.868872	0.469612	0.985879	-0.166067	0.021524	0.059286	0.466351	0.882611
62750	-2.445648	-13.982978	4.366653	-4.366820	-0.392185	0.338777	-0.153003	-0.867641	0.473064	0.982857	-0.183433	-0.018547	0.102868	0.462116	0.880833
62751	9.290862	-15.102299	7.419684	2.030562	-1.205493	-0.096513	-0.152840	-0.861798	0.483677	0.984608	-0.174776	-0.000276	0.084773	0.476190	0.875246
62752	11.013323	14.070563	7.307520	2.745540	1.094412	-0.934453	-0.162852	-0.865373	0.473928	0.985060	-0.169872	0.028309	0.056009	0.471458	0.880108
62753	1.791775	4.272875	14.648678	-1.953515	-0.776177	0.368580	-0.158728	-0.862324	0.480835	0.984352	-0.175966	0.009368	0.076533	0.474797	0.876761
62754	7.109078	-5.075753	3.883443	-1.191122	-0.278130	0.511028	-0.153510	-0.861904	0.483276	0.984160	-0.177250	-0.003505	0.088682	0.475082	0.875461
62755	4.052167	1.727288	10.742562	1.375205	0.296242	-0.046916	-0.154234	-0.863216	0.480698	0.985205	-0.171158	0.008750	0.074723	0.474935	0.876843
62756	5.451743	1.416697	9.943007	-0.713870	-0.221254	0.096226	-0.153154	-0.862328	0.482634	0.984787	-0.173754	0.002054	0.082089	0.475606	0.875820
62757	5.991142	-1.673517	7.497245	-0.153844	-0.012792	0.069048	-0.152483	-0.862373	0.482765	0.984759	-0.173925	0.000353	0.083661	0.475461	0.875750
62758	4.798990	1.044712	9.787984	0.153578	0.126944	0.050690	-0.152129	-0.863060	0.481646	0.984957	-0.172791	0.001476	0.081950	0.474626	0.876364
62759	5.030248	0.281564	9.004024	-0.174773	0.042281	0.068762	-0.151506	-0.863366	0.481295	0.984911	-0.173062	-0.000407	0.083645	0.473971	0.876558
62760	4.775342	0.255431	9.231647	-0.072254	0.081334	0.068098	-0.150945	-0.863866	0.480574	0.984947	-0.172849	-0.001344	0.084228	0.473137	0.876953
62761	4.759215	-0.093634	9.049740	-0.089558	0.058806	0.065278	-0.150371	-0.864243	0.480076	0.984964	-0.172744	-0.002463	0.085059	0.472487	0.877223
62762	4.822448	-0.185643	9.075929	-0.069260	0.046422	0.053140	-0.149928	-0.864551	0.479660	0.984979	-0.172644	-0.003302	0.085665	0.471960	0.877448
62763	4.700671	-0.438648	9.066916	-0.036662	0.041779	0.036606	-0.149623	-0.864797	0.479311	0.984996	-0.172536	-0.003820	0.086002	0.471548	0.877637
62764	4.759305	-0.159443	9.117412	-0.019644	0.023961	0.024987	-0.149438	-0.864950	0.479092	0.985011	-0.172445	-0.004089	0.086154	0.471300	0.877755
62765	4.724368	-0.098505	9.132412	-0.017336	0.013084	0.021440	-0.149257	-0.865035	0.478995	0.985021	-0.172377	-0.004364	0.086343	0.471169	0.877807
62766	4.656069	-0.276247	9.172759	-0.013833	-0.006438	0.023176	-0.149064	-0.865042	0.479043	0.985038	-0.172274	-0.004574	0.086483	0.471194	0.877779
62767	4.805631	-0.281802	9.034005	0.002121	-0.019491	0.009874	-0.148969	-0.864953	0.479233	0.985049	-0.172214	-0.004623	0.086529	0.471379	0.877676
62768	4.807580	-0.163091	9.090313	0.012370	-0.015908	0.004766	-0.148948	-0.864884	0.479364	0.985061	-0.172147	-0.004515	0.086426	0.471531	0.877604
62769	4.921177	-0.022520	9.101768	0.011198	-0.020909	0.002127	-0.148929	-0.864775	0.479567	0.985067	-0.172111	-0.004447	0.086385	0.471743	0.877494
62770	4.905228	0.035532	9.097499	0.011324	-0.014823	-0.000784	-0.148964	-0.864701	0.479689	0.985070	-0.172098	-0.004322	0.086290	0.471883	0.877428
62771	4.814251	0.046773	9.044834	0.009800	-0.014569	-0.000115	-0.148972	-0.864619	0.479836	0.985072	-0.172088	-0.004256	0.086253	0.472039	0.877348
62772	4.798237	0.222298	9.097925	-0.001973	-0.010557	0.013402	-0.148871	-0.864589	0.479920	0.985085	-0.172014	-0.004315	0.086283	0.472119	0.877302
62773	4.902160	0.213967	9.189798	-0.050654	-0.023503	0.033465	-0.148540	-0.864522	0.480143	0.985085	-0.171999	-0.004940	0.086855	0.472248	0.877176
62774	4.838047	0.049518	9.124295	-0.018660	-0.000536	0.032235	-0.148262	-0.864573	0.480138	0.985111	-0.171841	-0.005236	0.087035	0.472213	0.877177
62775	4.798991	-0.234361	9.024568	-0.050020	-0.026573	0.030846	-0.147955	-0.864486	0.480389	0.985106	-0.171846	-0.005844	0.087605	0.472369	0.877036
62776	4.790260	-0.051960	9.045187	-0.001742	-0.014581	0.020732	-0.147778	-0.864451	0.480507	0.985130	-0.171708	-0.005936	0.087638	0.472485	0.876971
62777	4.918064	0.033994	8.986876	-0.011989	-0.025501	0.018107	-0.147597	-0.864347	0.480749	0.985140	-0.171643	-0.006149	0.087832	0.472697	0.876837
62778	4.817906	-0.006578	9.045313	-0.018508	-0.022782	0.016492	-0.147454	-0.864266	0.480939	0.985142	-0.171621	-0.006368	0.088043	0.472855	0.876731
62779	4.705249	-0.163987	9.137032	-0.016987	-0.026706	0.011952	-0.147332	-0.864146	0.481191	0.985139	-0.171633	-0.006595	0.088287	0.473069	0.876591
62780	4.612993	-0.193680	9.162518	-0.010217	-0.054439	0.015793	-0.147169	-0.863913	0.481659	0.985148	-0.171578	-0.006738	0.088463	0.473514	0.876333
62781	4.198910	-0.398920	9.305197	-0.001070	-0.096849	0.015934	-0.146945	-0.863467	0.482526	0.985164	-0.171481	-0.006845	0.088654	0.474361	0.875855
62782	4.497927	-0.337529	9.190762	0.029136	-0.168614	0.011374	-0.146724	-0.862684	0.483992	0.985201	-0.171277	-0.006623	0.088610	0.475857	0.875047
62783	5.105301	0.054895	8.777380	0.081648	-0.186783	-0.003753	-0.146615	-0.861773	0.485645	0.985261	-0.170956	-0.005911	0.088117	0.477620	0.874136
62784	4.950402	0.424392	9.056328	0.100125	-0.152947	-0.012437	-0.146644	-0.861019	0.486972	0.985325	-0.170617	-0.004954	0.087351	0.479100	0.873403
62785	4.976361	0.100575	9.016946	0.070452	-0.152207	-0.012200	-0.146651	-0.860254	0.488321	0.985362	-0.170419	-0.004299	0.086918	0.480542	0.872654
62786	4.834913	0.056274	9.129445	0.070708	-0.152504	-0.004735	-0.146606	-0.859510	0.489642	0.985411	-0.170153	-0.003637	0.086440	0.481965	0.871916
62787	4.822893	-0.120748	9.168294	0.055513	-0.167261	-0.002910	-0.146510	-0.858684	0.491118	0.985448	-0.169945	-0.003159	0.086176	0.483509	0.871087
62788	4.800892	-0.326328	9.140069	0.063616	-0.187615	-0.006956	-0.146458	-0.857762	0.492742	0.985487	-0.169730	-0.002549	0.085820	0.485218	0.870172
62789	4.885929	-0.408447	9.023105	0.091832	-0.181978	-0.017015	-0.146489	-0.856834	0.494344	0.985535	-0.169465	-0.001686	0.085219	0.486946	0.869265
62790	4.930978	-0.265135	8.988557	0.120392	-0.181644	-0.030405	-0.146675	-0.855895	0.495913	0.985586	-0.169172	-0.000468	0.084295	0.488696	0.868372
62791	5.099060	-0.054793	8.867703	0.142175	-0.173413	-0.038353	-0.146928	-0.854967	0.497436	0.985643	-0.168840	0.000937	0.083186	0.490432	0.867500
62792	5.165114	0.223009	8.970123	0.145833	-0.149825	-0.043979	-0.147278	-0.854156	0.498725	0.985693	-0.168533	0.002441	0.081966	0.491949	0.866757
62793	5.038051	0.060526	9.010676	0.111473	-0.144480	-0.041368	-0.147588	-0.853360	0.499994	0.985717	-0.168373	0.003594	0.081118	0.493383	0.866021
62794	4.906422	-0.018035	9.114452	0.104578	-0.159978	-0.041588	-0.147909	-0.852499	0.501367	0.985734	-0.168244	0.004729	0.080321	0.494914	0.865222
62795	5.108803	0.003063	8.994909	0.103740	-0.166627	-0.047367	-0.148262	-0.851579	0.502824	0.985741	-0.168169	0.005845	0.079583	0.496520	0.864369
62796	4.981216	-0.112006	9.014726	0.087629	-0.160715	-0.049090	-0.148660	-0.850696	0.504199	0.985731	-0.168185	0.006870	0.078954	0.498026	0.863560
62797	5.022535	0.259593	9.122665	0.100700	-0.176054	-0.050652	-0.149040	-0.849718	0.505733	0.985729	-0.168150	0.007976	0.078262	0.499705	0.862653
62798	5.193004	0.341781	9.015154	0.044870	-0.186646	-0.040036	-0.149330	-0.848716	0.507328	0.985699	-0.168299	0.008587	0.078095	0.501355	0.861710
62799	5.115098	0.511412	9.095868	0.031448	-0.176977	-0.022392	-0.149432	-0.847775	0.508869	0.985684	-0.168367	0.008952	0.078088	0.502921	0.860798
62800	5.161890	0.197259	9.066290	-0.005281	-0.203888	-0.016020	-0.149472	-0.846720	0.510610	0.985650	-0.168563	0.009010	0.078441	0.504630	0.859765
62801	5.043964	0.177959	9.082788	0.000274	-0.199565	-0.022997	-0.149561	-0.845658	0.512342	0.985609	-0.168793	0.009111	0.078775	0.506331	0.858733
62802	4.963582	-0.028312	9.102434	-0.017800	-0.214294	-0.043839	-0.149865	-0.844497	0.514165	0.985524	-0.169288	0.009205	0.079268	0.508102	0.857642
62803	5.043630	-0.076628	8.992268	0.015033	-0.275055	-0.051341	-0.150172	-0.842994	0.516536	0.985453	-0.169680	0.009579	0.079571	0.510460	0.856212
62804	4.375541	0.240881	9.444904	0.039709	-0.253713	-0.059984	-0.150603	-0.841594	0.518689	0.985388	-0.170017	0.010251	0.079558	0.512654	0.854902
62805	4.568464	0.711076	9.578142	-0.022074	-0.473115	-0.033814	-0.150577	-0.839087	0.522742	0.985313	-0.170451	0.010220	0.080526	0.516604	0.852429
62806	4.689533	0.226512	9.309901	-0.059021	-0.460217	-0.021673	-0.150460	-0.836664	0.526645	0.985226	-0.170973	0.009854	0.081798	0.520347	0.850028
62807	4.801624	0.805451	9.474993	-0.088296	-0.587913	0.004956	-0.149944	-0.833585	0.531651	0.985155	-0.171430	0.009060	0.083588	0.525117	0.846915
62808	4.805359	0.372835	9.362164	-0.158066	-0.685842	0.032156	-0.149089	-0.830021	0.537436	0.985062	-0.172032	0.007576	0.086168	0.530537	0.843271
62809	4.686306	0.177337	9.503722	-0.202504	-0.785637	0.042387	-0.148001	-0.825887	0.544065	0.984941	-0.172798	0.005626	0.089367	0.536705	0.839024
62810	4.602884	-0.069512	9.611027	-0.241292	-0.926112	0.040481	-0.146802	-0.820956	0.551798	0.984774	-0.173803	0.003410	0.093105	0.543897	0.833971
62811	4.380426	-0.342013	9.889156	-0.275147	-1.090675	0.026231	-0.145523	-0.815007	0.560880	0.984544	-0.175134	0.000960	0.097446	0.552350	0.827897
62812	4.449950	-0.417650	9.723690	-0.226527	-1.303320	0.008145	-0.144191	-0.807761	0.571604	0.984324	-0.176366	-0.000929	0.101562	0.562510	0.820529
62813	4.492111	-0.018912	9.695283	-0.218202	-1.524816	0.001685	-0.142612	-0.799080	0.584066	0.984093	-0.177631	-0.002735	0.105934	0.574386	0.811701
62814	4.190790	-0.214368	9.915236	-0.221258	-1.825234	0.019951	-0.140485	-0.788509	0.598763	0.983875	-0.178795	-0.004613	0.110693	0.588461	0.800913
62815	4.367667	-0.212810	9.834116	-0.204824	-2.248125	0.034005	-0.137623	-0.775130	0.616631	0.983684	-0.179790	-0.006461	0.115872	0.605681	0.787226
62816	4.186370	-0.456049	10.221921	-0.064822	-2.694821	0.000049	-0.134490	-0.758540	0.637597	0.983601	-0.180227	-0.006940	0.120176	0.626208	0.770339
62817	4.220910	-0.192101	9.601920	0.177555	-3.118297	-0.060087	-0.131314	-0.738516	0.661325	0.983729	-0.179582	-0.005212	0.122611	0.649880	0.750082
62818	4.638268	-0.662065	9.092694	0.247204	-3.527025	-0.143854	-0.128418	-0.714889	0.687344	0.983841	-0.179028	-0.002389	0.124762	0.675931	0.726328
62819	4.796074	-1.530852	9.206769	0.401915	-3.730123	-0.372382	-0.127431	-0.688486	0.713967	0.983861	-0.178910	0.003077	0.125617	0.702836	0.700173
62820	5.350955	-1.686230	9.622280	0.477512	-3.924946	-0.559825	-0.128055	-0.659377	0.740826	0.983738	-0.179303	0.010455	0.125939	0.730118	0.671615
62821	6.633692	-2.226304	9.762179	0.516477	-4.088549	-0.793721	-0.130727	-0.627516	0.767551	0.983355	-0.180609	0.019824	0.126186	0.757367	0.640682
62822	9.393327	-2.291729	10.622926	0.653727	-4.086011	-0.955647	-0.135042	-0.594327	0.792805	0.982898	-0.181455	0.031393	0.125200	0.783486	0.608667
62823	8.914448	-1.212166	10.348149	0.713724	-4.011833	-1.087318	-0.140751	-0.560401	0.816174	0.982280	-0.182094	0.044367	0.123757	0.807956	0.576101
62824	9.906109	-0.607221	10.431225	0.553100	-4.039919	-1.142219	-0.147013	-0.525234	0.838163	0.981311	-0.183810	0.056938	0.124157	0.830869	0.542440
62825	10.237774	-1.133045	10.291376	0.372943	-4.077084	-1.207924	-0.153765	-0.488657	0.858819	0.979955	-0.186836	0.069146	0.126669	0.852236	0.507590
62826	10.590401	-2.978055	9.634080	0.419291	-4.127886	-1.325768	-0.161524	-0.450599	0.877992	0.978389	-0.189497	0.082741	0.129094	0.872383	0.471469
62827	11.311762	-4.201844	9.465565	0.823816	-4.002995	-1.487063	-0.170942	-0.412459	0.894794	0.976966	-0.188690	0.099663	0.127732	0.891220	0.435214
62828	10.635024	-4.086143	9.569922	1.320778	-3.758369	-1.595982	-0.181893	-0.375713	0.908711	0.975784	-0.183149	0.119594	0.121497	0.908458	0.399928
62829	6.832528	-4.596202	8.710713	1.874343	-3.612439	-1.738880	-0.194689	-0.339482	0.920243	0.974671	-0.172226	0.142669	0.110056	0.924711	0.364414
62830	3.980152	-5.471511	6.750466	2.535389	-3.642876	-1.975708	-0.210284	-0.302325	0.929721	0.973228	-0.154980	0.169728	0.092775	0.940522	0.326821
62831	-0.751615	-2.308735	7.291980	3.426239	-3.589138	-2.261146	-0.229414	-0.265055	0.936544	0.970993	-0.128945	0.201360	0.067392	0.955573	0.286949
62832	14.919285	8.226037	16.248354	3.115580	-3.250077	-2.196713	-0.248922	-0.231305	0.940498	0.967477	-0.104511	0.230359	0.045009	0.967251	0.249797
62833	17.774652	9.402416	22.471733	1.047736	-1.153181	-1.448854	-0.262458	-0.218642	0.939847	0.964200	-0.097656	0.246540	0.037878	0.970906	0.236445
62834	8.657013	4.188615	18.639623	-0.286814	0.298951	-1.077186	-0.272992	-0.220553	0.936393	0.961189	-0.102889	0.255987	0.039886	0.969933	0.240081
62835	2.405432	-0.433334	13.179739	-1.040733	1.292166	-0.715861	-0.280441	-0.232258	0.931348	0.958752	-0.114623	0.260109	0.046341	0.965877	0.254823
62836	-1.128784	-3.097578	9.275342	-0.932650	1.614436	-0.415866	-0.285259	-0.247425	0.925963	0.957105	-0.124701	0.261532	0.050759	0.960849	0.272384
62837	-1.854887	-4.290628	7.079482	-0.606637	1.601651	-0.264915	-0.288636	-0.262414	0.920776	0.956026	-0.131229	0.262286	0.052005	0.955991	0.288752
62838	-0.812833	-3.317200	6.946681	-0.173153	1.581688	-0.197174	-0.291367	-0.277360	0.915520	0.955349	-0.133516	0.263593	0.049126	0.951444	0.303878
62839	1.243898	-1.417682	7.894041	0.038466	1.710306	-0.142141	-0.293539	-0.293379	0.909815	0.954943	-0.133596	0.265019	0.043797	0.946616	0.319376
62840	2.798235	0.431094	8.822306	-0.046551	1.999719	-0.054579	-0.294926	-0.312306	0.903041	0.954748	-0.134310	0.265363	0.038413	0.940439	0.337785
62841	3.795172	1.352115	9.031809	-0.337015	2.367271	0.048466	-0.295349	-0.334516	0.894912	0.954760	-0.137349	0.263759	0.034684	0.932327	0.359948
62842	4.385422	1.280730	8.460391	-0.637286	2.719261	0.111179	-0.295251	-0.360024	0.884991	0.954857	-0.142987	0.260391	0.032795	0.921921	0.385988
62843	4.821826	1.048197	7.680935	-0.883984	3.012766	0.139561	-0.294920	-0.387794	0.873291	0.954973	-0.150600	0.255629	0.032386	0.909360	0.414748
62844	5.491214	0.377121	7.052329	-1.041000	3.228047	0.157947	-0.294512	-0.417303	0.859721	0.955082	-0.159472	0.249774	0.032870	0.894666	0.445525
62845	5.843770	-0.614450	6.491340	-1.057974	3.416939	0.165136	-0.294080	-0.447842	0.844367	0.955212	-0.168177	0.243487	0.032959	0.878154	0.477241
62846	5.881848	-0.891773	6.159656	-0.928789	3.533098	0.195779	-0.293395	-0.479031	0.827314	0.955472	-0.175460	0.237250	0.031510	0.860083	0.509179
62847	6.103226	0.056903	6.114276	-0.841681	3.583720	0.264478	-0.291974	-0.509962	0.809129	0.955983	-0.181352	0.230667	0.029105	0.840863	0.540465
62848	6.689501	1.595964	6.123852	-0.951897	3.601435	0.371788	-0.289488	-0.540698	0.789837	0.956778	-0.187421	0.222372	0.027796	0.820073	0.571584
62849	7.044830	1.743359	6.039630	-1.230059	3.593689	0.476801	-0.285969	-0.570661	0.769784	0.957792	-0.194763	0.211429	0.029271	0.797755	0.602271
62850	7.351773	0.676615	5.973319	-1.409134	3.556093	0.557786	-0.281772	-0.599851	0.748855	0.958923	-0.202686	0.198459	0.032736	0.774014	0.632322
62851	7.797179	-0.608143	6.234865	-1.413702	3.486311	0.650141	-0.276762	-0.627734	0.727566	0.960241	-0.209506	0.184511	0.036606	0.749704	0.660760
62852	8.590760	-1.262609	6.972449	-1.278193	3.427769	0.785167	-0.270566	-0.654795	0.705717	0.961888	-0.214002	0.170219	0.039566	0.724877	0.687741
62853	9.668790	-1.087573	7.785717	-1.103350	3.392497	0.998890	-0.262336	-0.681089	0.683592	0.964097	-0.215230	0.155541	0.041192	0.699853	0.713098
62854	10.815917	-0.244722	8.800860	-1.029580	3.425329	1.292749	-0.251328	-0.707501	0.660513	0.966973	-0.213425	0.139329	0.042394	0.673715	0.737774
62855	16.817590	3.655280	10.943396	-0.934842	3.424633	1.704530	-0.236296	-0.733688	0.637076	0.970723	-0.207354	0.121249	0.043141	0.647075	0.761204
62856	12.053277	1.698513	7.250080	-1.484075	3.762625	1.923798	-0.219360	-0.761493	0.609926	0.974410	-0.202432	0.097711	0.049062	0.615751	0.786412
62857	10.096599	1.990144	8.202919	-1.039508	3.797439	1.955559	-0.202192	-0.788137	0.581342	0.978004	-0.193553	0.077748	0.051245	0.584275	0.809936
62858	14.064634	4.577023	10.879755	-0.717865	3.638920	2.037074	-0.184139	-0.812752	0.552745	0.981560	-0.181409	0.060250	0.051304	0.553647	0.831170
62859	17.084263	6.164487	9.804575	-1.228641	3.483886	2.018402	-0.166208	-0.835051	0.524465	0.984423	-0.171428	0.039027	0.057318	0.522783	0.850537
62860	18.441186	8.274895	7.316008	-1.414707	3.621739	1.696633	-0.151758	-0.856308	0.493665	0.986242	-0.164307	0.018176	0.065548	0.489632	0.869462
62861	17.192205	8.730074	4.280982	-1.845012	3.665158	1.165619	-0.142916	-0.875514	0.461574	0.986626	-0.162962	-0.003619	0.078387	0.454883	0.887094
62862	7.327193	-5.678318	-3.667458	-2.031653	1.258070	1.199356	-0.132230	-0.883145	0.450078	0.986488	-0.161562	-0.027195	0.096733	0.440400	0.892575
62863	19.181413	-2.001400	-19.073187	1.614242	0.404997	-0.402696	-0.136582	-0.884270	0.446555	0.987369	-0.158055	-0.010986	0.080295	0.439414	0.894689
62864	21.805220	16.087596	-8.874155	2.005487	-0.680116	-0.406941	-0.140157	-0.880657	0.452547	0.988220	-0.152794	0.008721	0.061467	0.448438	0.891698
62865	26.376407	3.971776	-9.631520	-1.003291	-1.981149	1.092577	-0.128033	-0.873245	0.470161	0.988999	-0.147827	-0.005242	0.074080	0.464318	0.882565
62866	28.839465	-8.529259	-9.408777	1.368973	-2.061004	0.984596	-0.116905	-0.864871	0.488192	0.991138	-0.132821	0.002040	0.063078	0.484104	0.872734
62867	35.136153	20.255868	4.069699	5.552182	-0.440416	-1.751515	-0.134130	-0.860480	0.491512	0.990926	-0.120783	0.058964	0.008629	0.494961	0.868873
62868	13.966384	46.480643	28.082862	0.512340	2.413244	-0.737819	-0.141575	-0.871268	0.469946	0.989928	-0.124724	0.066988	0.000249	0.474696	0.880150
62869	-13.627613	2.469928	4.392400	-3.560200	-0.617832	0.255034	-0.138958	-0.868656	0.475528	0.989629	-0.139455	0.034443	0.036395	0.475382	0.879026
62870	13.534609	-18.386492	12.954394	-3.456161	-1.875181	1.228877	-0.125816	-0.861384	0.492126	0.989360	-0.145480	-0.001701	0.073059	0.486676	0.870522
62871	0.829600	-10.337153	1.034739	3.088127	1.011995	0.979537	-0.116708	-0.867584	0.483402	0.992308	-0.122088	0.020458	0.041268	0.482072	0.875159
62872	7.710545	13.587259	14.488558	2.533452	-0.177740	-0.870177	-0.125327	-0.865678	0.484660	0.991981	-0.117392	0.046835	0.016351	0.486643	0.873448
62873	5.772347	2.201407	10.054636	-2.946247	-0.366722	0.187881	-0.123370	-0.864113	0.487943	0.991291	-0.130134	0.020177	0.046063	0.486183	0.872642
62874	6.206935	-5.935172	4.285644	-0.309408	-0.147979	-0.053787	-0.123873	-0.863319	0.489220	0.991072	-0.132136	0.017768	0.049304	0.487053	0.871979
62875	3.755836	3.147633	11.894005	1.747961	0.379553	0.040202	-0.123649	-0.865204	0.485936	0.991825	-0.123319	0.032806	0.031541	0.486020	0.873378
62876	4.986048	2.021484	10.069909	-0.858979	-0.326228	0.022644	-0.123346	-0.863640	0.488787	0.991539	-0.127338	0.025223	0.040457	0.487762	0.872039
62877	5.654641	-0.598855	8.076049	-0.184361	-0.121817	0.064812	-0.122674	-0.863114	0.489882	0.991538	-0.127714	0.023279	0.042473	0.488593	0.871478
62878	5.410769	0.970125	9.352158	0.001555	-0.050198	0.078570	-0.121913	-0.862965	0.490336	0.991630	-0.127060	0.022932	0.042513	0.489027	0.871232
62879	5.093264	-0.035324	8.842024	-0.173893	-0.048212	0.068442	-0.121234	-0.862803	0.490789	0.991633	-0.127356	0.021061	0.044333	0.489236	0.871024
62880	4.909885	0.566699	8.841849	-0.019513	-0.028248	0.047028	-0.120794	-0.862720	0.491043	0.991677	-0.127077	0.020685	0.044555	0.489454	0.870890
62881	4.886538	0.020940	8.926678	-0.090758	-0.049133	0.033435	-0.120461	-0.862509	0.491495	0.991672	-0.127269	0.019711	0.045551	0.489777	0.870657
62882	5.210075	-1.000145	8.675180	0.012687	-0.038194	-0.008969	-0.120572	-0.862306	0.491824	0.991663	-0.127315	0.019890	0.045465	0.490122	0.870467
62883	5.097639	-0.069818	8.973644	0.128892	0.004098	-0.033966	-0.120932	-0.862269	0.491800	0.991675	-0.127012	0.021159	0.044220	0.490264	0.870451
62884	4.915099	0.073463	9.029317	0.085535	0.005412	-0.033820	-0.121308	-0.862249	0.491743	0.991667	-0.126916	0.022093	0.043360	0.490326	0.870460
62885	4.931272	0.332981	9.099016	0.080798	-0.005861	-0.021951	-0.121544	-0.862179	0.491808	0.991671	-0.126745	0.022885	0.042604	0.490493	0.870403
62886	4.760333	0.527953	9.170200	0.047359	-0.021849	-0.007346	-0.121647	-0.862058	0.491994	0.991678	-0.126608	0.023356	0.042156	0.490741	0.870285
62887	4.686585	0.237567	9.166845	-0.011304	-0.062281	0.015920	-0.121483	-0.861759	0.492558	0.991688	-0.126562	0.023159	0.042381	0.491277	0.869972
62888	4.738132	-0.157976	8.940130	0.015717	-0.078470	0.013011	-0.121360	-0.861386	0.493241	0.991706	-0.126404	0.023255	0.042316	0.491972	0.869582
62889	4.996250	-0.039023	8.995491	0.034595	-0.096706	-0.001505	-0.121355	-0.860894	0.494099	0.991715	-0.126283	0.023544	0.042128	0.492863	0.869087
62890	5.092766	0.079307	8.946667	0.067354	-0.083696	-0.010558	-0.121463	-0.860464	0.494821	0.991726	-0.126074	0.024203	0.041558	0.493666	0.868658
62891	5.003296	0.296782	9.034750	0.056195	-0.079898	-0.010147	-0.121551	-0.860044	0.495530	0.991732	-0.125919	0.024722	0.041135	0.494439	0.868239
62892	5.000606	0.245594	9.013737	0.051355	-0.085002	-0.008785	-0.121643	-0.859608	0.496263	0.991738	-0.125773	0.025233	0.040725	0.495232	0.867805
62893	4.977765	0.316148	9.020641	0.055661	-0.094295	-0.004655	-0.121671	-0.859121	0.497098	0.991751	-0.125573	0.025720	0.040326	0.496127	0.867313
62894	4.999473	0.288866	8.973316	0.040602	-0.101805	-0.011679	-0.121785	-0.858598	0.497974	0.991748	-0.125504	0.026152	0.040044	0.497050	0.866797
62895	4.922131	0.018676	8.952928	0.056726	-0.104404	-0.013517	-0.121898	-0.858048	0.498894	0.991750	-0.125374	0.026691	0.039646	0.498032	0.866252
62896	5.179407	0.055786	8.873322	0.079818	-0.103086	-0.026799	-0.122162	-0.857497	0.499776	0.991744	-0.125238	0.027538	0.038977	0.499014	0.865717
62897	5.194068	0.259405	8.920124	0.090169	-0.082432	-0.035111	-0.122499	-0.857028	0.500497	0.991732	-0.125125	0.028475	0.038221	0.499847	0.865270
62898	5.188908	0.188390	8.874544	0.083589	-0.079576	-0.036717	-0.122872	-0.856580	0.501172	0.991714	-0.125053	0.029403	0.037487	0.500632	0.864848
62899	5.213004	0.409694	8.856170	0.092027	-0.059302	-0.038130	-0.123249	-0.856222	0.501691	0.991697	-0.124955	0.030370	0.036685	0.501269	0.864514
62900	5.045511	0.411517	8.947274	0.065949	-0.057736	-0.030286	-0.123567	-0.855891	0.502178	0.991679	-0.124916	0.031114	0.036100	0.501844	0.864205
62901	5.156810	0.499948	8.928725	0.083662	-0.064471	-0.032867	-0.123891	-0.855512	0.502742	0.991665	-0.124813	0.031982	0.035388	0.502514	0.863845
62902	5.226775	0.709588	8.987933	0.056044	-0.062575	-0.024324	-0.124149	-0.855164	0.503271	0.991649	-0.124772	0.032610	0.034907	0.503117	0.863513
62903	5.184452	0.641751	9.011678	0.040052	-0.060804	-0.004999	-0.124198	-0.854838	0.503813	0.991653	-0.124649	0.032962	0.034623	0.503701	0.863184
62904	5.188665	0.385212	8.923666	0.021540	-0.068385	-0.004325	-0.124257	-0.854484	0.504398	0.991650	-0.124610	0.033191	0.034492	0.504311	0.862833
62905	5.072564	0.365022	8.929413	0.034873	-0.064317	-0.004199	-0.124297	-0.854141	0.504969	0.991653	-0.124506	0.033494	0.034263	0.504918	0.862487
62906	5.079467	0.441156	8.926625	0.028668	-0.069128	0.001631	-0.124296	-0.853790	0.505562	0.991660	-0.124380	0.033755	0.034062	0.505542	0.862129
62907	5.092011	0.442274	8.995709	0.017154	-0.081210	0.004520	-0.124245	-0.853371	0.506282	0.991668	-0.124291	0.033861	0.034031	0.506270	0.861703
62908	5.004011	0.420128	9.023251	0.018967	-0.089216	0.007525	-0.124179	-0.852925	0.507049	0.991679	-0.124163	0.034008	0.033951	0.507053	0.861246
62909	5.081578	0.249342	8.986460	0.005160	-0.105403	0.006135	-0.124103	-0.852384	0.507977	0.991684	-0.124121	0.034002	0.034068	0.507972	0.860699
62910	4.975106	0.113693	8.981054	0.021484	-0.107313	-0.005766	-0.124163	-0.851828	0.508894	0.991680	-0.124093	0.034238	0.033986	0.508911	0.860148
62911	5.033051	0.189823	8.947485	0.036330	-0.124166	-0.020803	-0.124348	-0.851156	0.509972	0.991662	-0.124122	0.034637	0.033817	0.510027	0.859493
62912	5.104475	0.112699	8.894414	0.035697	-0.124094	-0.035739	-0.124699	-0.850474	0.511022	0.991625	-0.124276	0.035148	0.033616	0.511125	0.858849
62913	5.043119	0.232530	8.976833	0.047365	-0.131153	-0.042504	-0.125098	-0.849737	0.512151	0.991584	-0.124432	0.035753	0.033348	0.512313	0.858151
62914	5.162988	0.230579	8.894923	0.057079	-0.142385	-0.046089	-0.125547	-0.848946	0.513351	0.991540	-0.124563	0.036499	0.032959	0.513590	0.857402
62915	5.063352	0.238102	8.995159	0.045545	-0.158352	-0.046887	-0.125980	-0.848059	0.514708	0.991492	-0.124763	0.037112	0.032744	0.515004	0.856562
62916	4.870253	0.182503	9.045985	0.061545	-0.170201	-0.063237	-0.126591	-0.847100	0.516137	0.991427	-0.125015	0.037985	0.032348	0.516521	0.855664
62917	5.247424	0.407553	8.931062	0.055729	-0.209543	-0.064968	-0.127188	-0.845920	0.517921	0.991359	-0.125313	0.038779	0.032099	0.518378	0.854549
62918	5.024734	0.668753	9.107679	0.034607	-0.215979	-0.068985	-0.127842	-0.844709	0.519733	0.991277	-0.125750	0.039452	0.032031	0.520243	0.853417
62919	5.123076	0.534424	9.054313	-0.004271	-0.271375	-0.055422	-0.128325	-0.843211	0.522043	0.991201	-0.126277	0.039686	0.032458	0.522542	0.851995
62920	4.725753	0.613648	9.230073	0.010316	-0.281511	-0.064275	-0.128910	-0.841652	0.524408	0.991116	-0.126798	0.040131	0.032718	0.524922	0.850521
62921	5.018000	1.182947	9.230484	-0.018130	-0.430151	-0.026427	-0.129050	-0.839339	0.528068	0.991072	-0.127152	0.040097	0.033490	0.528528	0.848255
62922	4.922714	0.968048	9.263573	-0.078496	-0.430076	0.011702	-0.128828	-0.837072	0.531709	0.991055	-0.127504	0.039392	0.034821	0.532028	0.846011
62923	5.081079	0.787417	9.177734	-0.089976	-0.514603	0.043892	-0.128230	-0.834365	0.536090	0.991076	-0.127655	0.038380	0.036412	0.536227	0.843288
62924	5.018424	0.604268	9.236014	-0.128222	-0.599384	0.058901	-0.127463	-0.831210	0.541149	0.991098	-0.127889	0.037006	0.038447	0.541049	0.840112
62925	4.986715	0.498655	9.403824	-0.131034	-0.671170	0.071883	-0.126506	-0.827638	0.546819	0.991133	-0.128042	0.035499	0.040636	0.546461	0.836498
62926	4.852410	0.100015	9.481265	-0.158655	-0.762930	0.066971	-0.125564	-0.823532	0.553199	0.991146	-0.128396	0.033830	0.043168	0.552549	0.832362
62927	4.799732	0.148860	9.444005	-0.160898	-0.880764	0.037123	-0.124824	-0.818667	0.560538	0.991116	-0.129023	0.032271	0.045903	0.559587	0.827499
62928	5.121460	0.325265	9.292320	-0.180941	-1.007152	0.027780	-0.124114	-0.813028	0.568842	0.991060	-0.129851	0.030645	0.048950	0.567560	0.821875
62929	5.122349	0.183723	9.251660	-0.233464	-1.122310	0.018525	-0.123380	-0.806618	0.578053	0.990960	-0.131074	0.028611	0.052690	0.576357	0.815497
62930	5.052800	0.125572	9.113590	-0.204980	-1.249274	0.008865	-0.122656	-0.799370	0.588186	0.990854	-0.132230	0.026919	0.056258	0.586108	0.808277
62931	4.979319	0.211157	9.150602	-0.242892	-1.419833	0.003167	-0.121816	-0.790959	0.599621	0.990711	-0.133679	0.024931	0.060437	0.597088	0.799896
62932	4.947903	0.111895	9.205846	-0.307350	-1.684194	0.006615	-0.120734	-0.780807	0.612995	0.990520	-0.135519	0.022473	0.065525	0.609897	0.789767
62933	4.941718	0.021328	9.093248	-0.300311	-1.937358	0.009760	-0.119336	-0.768847	0.628199	0.990322	-0.137335	0.020044	0.070863	0.624511	0.777795
62934	4.555409	0.033763	9.439638	-0.227737	-2.261788	-0.000386	-0.117728	-0.754535	0.645613	0.990149	-0.138817	0.018317	0.075801	0.641410	0.763445
62935	4.273613	0.011540	9.597762	-0.084665	-2.726948	-0.037724	-0.115998	-0.736698	0.666199	0.990033	-0.139689	0.017913	0.079864	0.661637	0.745559
62936	3.964604	-0.167559	9.283096	0.079804	-3.222026	-0.092573	-0.114343	-0.714880	0.689835	0.989986	-0.139862	0.019154	0.082789	0.685116	0.723714
62937	3.823985	-0.434711	9.117248	0.361918	-3.643314	-0.237840	-0.113690	-0.689092	0.715701	0.990010	-0.139045	0.023389	0.083397	0.711210	0.698015
62938	4.363896	-0.902163	10.082580	0.398508	-4.017340	-0.355524	-0.113898	-0.659483	0.743040	0.989932	-0.138594	0.028734	0.084031	0.738832	0.668629
62939	5.660740	-1.786441	10.278289	0.504854	-4.359778	-0.506561	-0.115267	-0.625920	0.771322	0.989771	-0.138087	0.035856	0.084066	0.767565	0.635434
62940	7.932440	-2.568436	10.637440	0.543110	-4.482031	-0.775859	-0.119233	-0.589835	0.798673	0.989310	-0.138603	0.045332	0.083960	0.795540	0.600056
62941	10.319836	-2.207813	11.045259	0.778342	-4.415733	-0.962964	-0.125120	-0.552767	0.823889	0.988772	-0.137851	0.057673	0.081694	0.821855	0.563809
62942	10.378209	-0.885487	11.140080	0.730518	-4.383257	-1.050135	-0.132006	-0.514789	0.847093	0.988005	-0.137412	0.070458	0.080129	0.846233	0.526753
62943	10.314381	-0.755474	10.450466	0.597235	-4.392492	-1.120816	-0.139573	-0.475551	0.868545	0.986956	-0.137881	0.083108	0.080234	0.868815	0.488592
62944	10.540913	-1.580243	9.393635	0.487131	-4.442207	-1.196834	-0.147830	-0.434867	0.888277	0.985621	-0.139098	0.095933	0.081840	0.889686	0.449177
62945	12.404773	-2.821343	9.350224	0.582313	-4.414982	-1.314481	-0.157161	-0.393306	0.905876	0.984089	-0.139346	0.110230	0.082876	0.908787	0.408948
62946	13.036027	-3.433923	10.007966	0.994945	-4.148419	-1.442675	-0.168020	-0.353313	0.920293	0.982543	-0.135662	0.127303	0.079871	0.925616	0.369939
62947	9.525834	-4.619037	9.602518	1.444803	-3.823749	-1.565754	-0.180502	-0.315550	0.931583	0.980907	-0.127458	0.146886	0.072387	0.940310	0.332532
62948	5.564600	-5.963835	8.184116	2.159888	-3.697691	-1.770608	-0.195480	-0.278459	0.940345	0.978978	-0.112322	0.170250	0.058214	0.953858	0.294562
62949	0.333544	-7.175832	4.827416	3.117007	-3.797022	-2.112603	-0.214376	-0.239847	0.946845	0.976104	-0.087897	0.198735	0.035559	0.966823	0.252959
62950	0.102658	1.001172	8.890452	4.171923	-3.821876	-2.463953	-0.237654	-0.201003	0.950325	0.971343	-0.052821	0.231738	0.003617	0.978165	0.207796
62951	25.505516	12.237849	21.135132	2.956348	-2.897964	-2.112487	-0.258346	-0.171682	0.950675	0.965889	-0.027776	0.257464	-0.017796	0.984761	0.173002
62952	14.467203	7.975874	22.376303	0.610774	-0.518595	-1.455945	-0.272517	-0.166285	0.947673	0.961894	-0.024307	0.272342	-0.022252	0.985778	0.166572
62953	8.236299	4.088085	17.705571	-0.654130	1.027906	-1.131109	-0.283191	-0.176064	0.942764	0.958880	-0.032723	0.281920	-0.018786	0.983835	0.178091
62954	1.935054	-1.752973	11.701322	-1.380117	1.856886	-0.776411	-0.290392	-0.194104	0.937014	0.956846	-0.047817	0.286633	-0.010832	0.979815	0.199614
62955	-0.658174	-3.341381	8.526593	-1.036112	2.141381	-0.541137	-0.295394	-0.214723	0.930933	0.955349	-0.059089	0.289513	-0.007157	0.974886	0.222590
62956	-0.571455	-3.892479	6.667063	-0.809751	2.156801	-0.433266	-0.299426	-0.235552	0.924586	0.954102	-0.068053	0.291648	-0.005777	0.969476	0.245117
62957	0.505888	-2.624845	6.728070	-0.497839	2.225521	-0.385609	-0.302974	-0.256768	0.917756	0.952968	-0.073854	0.293936	-0.007693	0.963647	0.267067
62958	2.576095	-0.553056	7.357378	-0.420877	2.379078	-0.356517	-0.306180	-0.279486	0.910023	0.951912	-0.078976	0.296019	-0.010863	0.956896	0.290226
62959	4.029380	1.306348	8.031452	-0.676967	2.630510	-0.322895	-0.308967	-0.304261	0.901091	0.950991	-0.086409	0.296900	-0.012473	0.948662	0.316047
62960	5.215468	2.030236	8.057087	-1.065499	2.947502	-0.291217	-0.311415	-0.331953	0.890409	0.950205	-0.097520	0.295972	-0.011417	0.938241	0.345793
62961	5.845409	1.912081	7.574711	-1.488898	3.264319	-0.282983	-0.313816	-0.362054	0.877745	0.949455	-0.112417	0.293084	-0.007439	0.925354	0.379032
62962	6.024752	0.977490	6.488767	-1.794017	3.531578	-0.275854	-0.316311	-0.394280	0.862838	0.948654	-0.130058	0.288340	-0.001468	0.909741	0.415175
62963	5.471477	-0.217075	5.269233	-1.912237	3.670459	-0.201442	-0.318308	-0.427049	0.846350	0.947974	-0.148155	0.281773	0.005061	0.892009	0.451990
62964	5.088569	-1.146252	4.532208	-1.833741	3.628438	-0.046459	-0.319074	-0.459150	0.829080	0.947667	-0.164680	0.273511	0.010951	0.872961	0.487667
62965	5.338209	-1.214591	4.590264	-1.654352	3.504959	0.185503	-0.317799	-0.489706	0.811906	0.948031	-0.178124	0.263645	0.015511	0.853499	0.520864
62966	6.146563	-0.357723	5.097105	-1.501402	3.370863	0.448974	-0.314157	-0.519112	0.794876	0.949177	-0.188658	0.251934	0.019178	0.833625	0.551997
62967	6.968019	0.303085	5.509556	-1.475837	3.301928	0.712322	-0.308104	-0.547655	0.777911	0.951075	-0.197052	0.237963	0.022967	0.813170	0.581574
62968	7.390991	-0.174998	5.744855	-1.451417	3.280398	0.922569	-0.300168	-0.575967	0.760369	0.953507	-0.203643	0.222156	0.026890	0.791701	0.610316
62969	7.505159	-0.571507	6.031647	-1.353602	3.267449	1.114245	-0.290479	-0.603749	0.742367	0.956404	-0.207679	0.205329	0.030207	0.769647	0.637755
62970	7.596426	-0.670467	6.378975	-1.227990	3.247997	1.326813	-0.278820	-0.631275	0.723706	0.959783	-0.208918	0.187538	0.032807	0.746890	0.664138
62971	8.128719	-0.348976	6.836045	-1.145052	3.190905	1.570226	-0.264823	-0.657992	0.704922	0.963655	-0.207256	0.168564	0.035185	0.723942	0.688963
62972	9.630561	0.944188	7.815692	-1.118804	3.155606	1.878271	-0.247865	-0.684442	0.685640	0.968050	-0.202728	0.147585	0.037985	0.700315	0.712823
62973	11.659828	1.859056	8.648968	-1.204168	3.205601	2.174401	-0.228066	-0.710812	0.665381	0.972736	-0.195881	0.124159	0.042082	0.675556	0.736106
62974	12.996018	2.465552	8.714183	-1.205833	3.360838	2.386451	-0.206317	-0.737750	0.642774	0.977374	-0.186681	0.099452	0.046623	0.648749	0.759573
62975	13.648510	3.781510	8.318348	-1.176005	3.524903	2.492984	-0.183640	-0.764614	0.617771	0.981654	-0.175452	0.074653	0.051308	0.620146	0.782806
62976	14.681383	4.888041	7.816572	-1.187273	3.599165	2.526818	-0.160767	-0.790774	0.590618	0.985353	-0.163069	0.049882	0.056866	0.589987	0.805408
62977	16.401795	6.273391	6.987412	-1.120623	3.593809	2.489818	-0.138359	-0.815308	0.562255	0.988402	-0.149551	0.026366	0.062589	0.559382	0.826544
62978	18.396120	7.289673	5.034593	-1.081332	3.542554	2.292365	-0.118039	-0.837941	0.532843	0.990622	-0.136553	0.004708	0.068816	0.528402	0.846201
62979	18.605471	7.196848	2.010258	-0.874903	3.409679	1.852514	-0.102123	-0.857860	0.503633	0.992032	-0.125372	-0.012394	0.073774	0.498355	0.863829
62980	16.870418	6.431089	-0.405301	-0.474892	3.057787	1.275228	-0.091789	-0.874289	0.476648	0.992906	-0.116687	-0.022826	0.075575	0.471172	0.878798
62981	15.558409	5.772234	-1.953505	0.026583	2.429852	0.783426	-0.085835	-0.886354	0.454983	0.993617	-0.109703	-0.026261	0.073190	0.449825	0.890113
62982	14.146442	1.022353	-1.429678	0.139311	1.776393	0.454020	-0.082636	-0.894733	0.438889	0.994094	-0.105094	-0.027075	0.070349	0.434059	0.898133
62983	13.466465	-7.746077	-14.422129	2.659066	-1.116785	-0.326851	-0.085265	-0.889474	0.448961	0.995347	-0.096334	-0.001823	0.044871	0.446717	0.893550
62984	25.660648	17.985098	-8.252181	3.230775	-0.158427	-1.755196	-0.102717	-0.887089	0.450025	0.994627	-0.097472	0.034885	0.012919	0.451190	0.892334
62985	21.764152	7.281390	-5.791970	-1.150024	-2.335964	2.918530	-0.073212	-0.878854	0.471441	0.996965	-0.077037	0.011212	0.026464	0.470831	0.881826
62986	13.777313	-14.505367	-4.589060	1.006938	-1.546483	3.640246	-0.036568	-0.873605	0.485260	0.999182	-0.040361	0.002633	0.017285	0.484959	0.874366
62987	38.876634	25.726435	31.566876	5.106471	-0.722690	-3.028654	-0.066888	-0.868813	0.490602	0.997205	-0.041805	0.061926	-0.033292	0.493373	0.869181
62988	-1.938253	38.163492	6.761699	-0.316435	3.280575	-2.226013	-0.088019	-0.883352	0.460372	0.995583	-0.062857	0.069740	-0.032667	0.464477	0.884982
62989	-5.049199	-4.137221	25.097331	-4.242714	-3.054106	1.418673	-0.074216	-0.869732	0.487912	0.997168	-0.070674	0.025699	0.012131	0.488437	0.872515
62990	17.859375	-26.787133	-14.126587	-0.569291	-1.453987	3.811378	-0.035987	-0.864658	0.501070	0.999179	-0.040462	0.001941	0.018596	0.500729	0.865405
62991	0.408805	9.357563	20.459396	3.958980	2.495302	-0.684732	-0.042810	-0.876658	0.479205	0.998843	-0.027037	0.039770	-0.021909	0.480353	0.876802
62992	5.050841	6.466191	9.271431	-1.772719	-1.693399	-1.155448	-0.054600	-0.867977	0.493593	0.998503	-0.045788	0.029934	-0.003381	0.494488	0.869178
62993	10.376602	-2.712198	4.427021	-1.787428	0.197716	0.593035	-0.048710	-0.869224	0.492014	0.998709	-0.049489	0.011443	0.014403	0.491936	0.870512
62994	2.472608	-1.215809	11.111972	1.076903	0.524310	0.206083	-0.046734	-0.871878	0.487489	0.998902	-0.042447	0.019844	0.003391	0.487881	0.872904
62995	5.894067	1.062522	8.757025	-0.100858	-0.173615	-0.038596	-0.047134	-0.871001	0.489014	0.998878	-0.043313	0.019133	0.004516	0.489368	0.872066
62996	4.677848	-0.541124	8.996819	-0.069226	0.084952	0.023824	-0.046937	-0.871419	0.488289	0.998885	-0.043473	0.018434	0.005163	0.488609	0.872487
62997	5.078049	0.578096	8.903123	0.054915	0.022583	0.011305	-0.046846	-0.871523	0.488112	0.998891	-0.043142	0.018838	0.004640	0.488454	0.872578
62998	4.779480	0.380633	8.907654	0.025229	0.002671	0.007349	-0.046809	-0.871531	0.488101	0.998894	-0.042984	0.019044	0.004383	0.488453	0.872579
62999	4.837233	0.477073	8.902749	0.064929	-0.002112	-0.003134	-0.046862	-0.871508	0.488137	0.998894	-0.042730	0.019606	0.003771	0.488516	0.872547
63000	5.065585	0.176059	8.958278	0.058883	-0.015105	-0.002843	-0.046926	-0.871425	0.488279	0.998893	-0.042496	0.020155	0.003186	0.488685	0.872455
63001	4.992528	-0.129032	9.040106	0.050000	-0.010539	-0.001998	-0.046967	-0.871361	0.488389	0.998893	-0.042305	0.020581	0.002728	0.488815	0.872383
63002	5.044229	-0.236198	8.973224	0.065223	-0.009088	-0.005578	-0.047058	-0.871307	0.488478	0.998890	-0.042064	0.021199	0.002077	0.488933	0.872319
63003	5.066472	-0.124361	9.035393	0.064401	0.003376	-0.011288	-0.047193	-0.871307	0.488464	0.998885	-0.041884	0.021795	0.001468	0.488948	0.872312
63004	5.039713	0.039760	9.026417	0.061197	0.006517	-0.020583	-0.047434	-0.871322	0.488413	0.998874	-0.041793	0.022450	0.000851	0.488928	0.872324
63005	5.086137	0.106868	9.031000	0.052383	0.007231	-0.015963	-0.047615	-0.871340	0.488365	0.998866	-0.041712	0.022965	0.000361	0.488904	0.872337
63006	4.881841	0.165990	9.107810	0.046751	0.013273	-0.019604	-0.047846	-0.871388	0.488255	0.998855	-0.041684	0.023488	-0.000115	0.488820	0.872385
63007	5.112478	0.319997	9.042696	0.057768	0.005079	-0.019838	-0.048066	-0.871394	0.488224	0.998844	-0.041611	0.024069	-0.000658	0.488817	0.872386
63008	4.985083	0.461654	9.170017	0.014639	0.004659	-0.004846	-0.048149	-0.871406	0.488193	0.998840	-0.041611	0.024240	-0.000808	0.488794	0.872399
63009	4.995958	0.428399	9.129124	0.014764	-0.008386	-0.000338	-0.048175	-0.871354	0.488284	0.998839	-0.041578	0.024350	-0.000916	0.488890	0.872345
63010	5.064143	0.731929	9.077801	0.000397	-0.016954	0.012032	-0.048090	-0.871268	0.488445	0.998843	-0.041500	0.024314	-0.000914	0.489049	0.872256
63011	4.958288	0.394175	9.040926	-0.055851	-0.022416	0.031212	-0.047800	-0.871160	0.488667	0.998857	-0.041538	0.023655	-0.000309	0.489239	0.872150
63012	4.961314	0.034654	8.932294	-0.032529	-0.027631	0.018728	-0.047648	-0.871025	0.488922	0.998864	-0.041563	0.023299	0.000027	0.489477	0.872016
63013	5.042971	0.187215	8.906922	-0.013672	-0.030183	0.015078	-0.047519	-0.870872	0.489207	0.998870	-0.041535	0.023086	0.000214	0.489751	0.871862
63014	5.048450	0.168415	8.848660	0.010109	-0.022521	0.009298	-0.047462	-0.870758	0.489416	0.998873	-0.041434	0.023149	0.000121	0.489963	0.871743
63015	5.021642	0.387120	8.975735	0.006777	-0.020135	0.009996	-0.047384	-0.870652	0.489612	0.998877	-0.041350	0.023139	0.000099	0.490158	0.871633
63016	4.882689	0.180980	9.011669	0.013597	-0.015775	0.011617	-0.047303	-0.870572	0.489763	0.998881	-0.041211	0.023220	-0.000031	0.490313	0.871547
63017	4.570200	0.008506	9.089895	0.000384	-0.039162	0.013515	-0.047189	-0.870374	0.490125	0.998886	-0.041128	0.023137	0.000020	0.490671	0.871345
63018	4.235711	-0.317531	9.130482	0.016054	-0.086822	0.007318	-0.047152	-0.869943	0.490893	0.998888	-0.041015	0.023260	-0.000101	0.491444	0.870909
63019	4.956001	-0.058819	8.945718	0.068949	-0.140282	-0.003700	-0.047211	-0.869240	0.492132	0.998885	-0.040744	0.023859	-0.000687	0.492709	0.870194
63020	5.321511	0.131441	8.815151	0.061814	-0.114725	-0.018112	-0.047428	-0.868659	0.493134	0.998874	-0.040627	0.024504	-0.001251	0.493741	0.869608
63021	5.099842	0.189138	8.970438	0.074243	-0.090396	-0.018164	-0.047633	-0.868194	0.493934	0.998863	-0.040454	0.025219	-0.001913	0.494573	0.869134
63022	5.172237	0.074175	8.882671	0.075105	-0.081448	-0.030776	-0.047977	-0.867771	0.494643	0.998845	-0.040379	0.026042	-0.002625	0.495321	0.868706
63023	5.201435	0.765019	9.090313	0.080656	-0.079082	-0.017879	-0.048179	-0.867360	0.495343	0.998833	-0.040171	0.026811	-0.003356	0.496057	0.868284
63024	5.221976	0.561915	8.975462	0.034437	-0.074811	-0.005170	-0.048269	-0.866980	0.496001	0.998828	-0.040075	0.027153	-0.003664	0.496730	0.867898
63025	5.005357	0.333527	9.024536	0.018312	-0.079082	0.000419	-0.048289	-0.866575	0.496705	0.998826	-0.040017	0.027290	-0.003773	0.497440	0.867490
63026	5.085097	0.196798	8.953212	0.044178	-0.088096	-0.004080	-0.048369	-0.866128	0.497477	0.998821	-0.039862	0.027712	-0.004172	0.498231	0.867034
63027	5.140321	0.327874	8.983127	0.032934	-0.087505	-0.003701	-0.048431	-0.865678	0.498253	0.998817	-0.039766	0.027996	-0.004422	0.499019	0.866580
63028	5.125841	0.291308	8.948438	0.034391	-0.086364	-0.001268	-0.048483	-0.865239	0.499010	0.998813	-0.039636	0.028318	-0.004724	0.499790	0.866133
63029	5.182772	0.337289	8.890529	0.036871	-0.078587	-0.000837	-0.048517	-0.864834	0.499708	0.998810	-0.039495	0.028622	-0.005018	0.500502	0.865721
63030	4.896108	0.319679	8.932659	0.020370	-0.079679	0.007256	-0.048484	-0.864430	0.500409	0.998811	-0.039360	0.028780	-0.005182	0.501209	0.865311
63031	4.566727	0.192351	9.070180	-0.005390	-0.115946	0.024921	-0.048263	-0.863847	0.501437	0.998822	-0.039208	0.028589	-0.005036	0.502226	0.864722
63032	4.504995	-0.100442	9.206912	-0.011779	-0.177279	0.021030	-0.048097	-0.862956	0.502984	0.998831	-0.039116	0.028399	-0.004833	0.503762	0.863829
63033	4.965778	0.023920	9.038423	0.015689	-0.212173	0.007397	-0.048055	-0.861877	0.504836	0.998833	-0.039010	0.028478	-0.004851	0.505615	0.862746
63034	5.064745	0.091223	9.019792	0.017315	-0.217347	-0.006313	-0.048164	-0.860767	0.506716	0.998827	-0.039007	0.028676	-0.004918	0.507503	0.861636
63035	5.335201	0.082912	8.874142	0.039415	-0.221727	-0.024590	-0.048442	-0.859618	0.508636	0.998813	-0.039055	0.029121	-0.005168	0.509442	0.860489
63036	5.059110	0.152420	9.000431	0.029786	-0.189370	-0.033399	-0.048821	-0.858632	0.510262	0.998793	-0.039221	0.029564	-0.005372	0.511090	0.859511
63037	5.357351	0.103466	8.869481	0.048775	-0.216811	-0.055620	-0.049410	-0.857488	0.512126	0.998762	-0.039485	0.030248	-0.005716	0.512986	0.858378
63038	5.287678	0.453328	9.069059	0.047800	-0.214360	-0.054355	-0.050001	-0.856358	0.513955	0.998731	-0.039737	0.030953	-0.006084	0.514851	0.857258
63039	5.297629	0.187152	8.967650	0.020573	-0.212017	-0.055062	-0.050586	-0.855231	0.515772	0.998701	-0.040139	0.031394	-0.006147	0.516690	0.856150
63040	4.990460	0.048340	9.120573	0.026205	-0.236013	-0.067414	-0.051309	-0.853975	0.517777	0.998663	-0.040610	0.031983	-0.006285	0.518726	0.854917
63041	4.997481	0.310936	9.118681	0.050901	-0.271972	-0.082949	-0.052177	-0.852516	0.520091	0.998616	-0.041090	0.032829	-0.006617	0.521084	0.853480
63042	4.864881	0.649830	9.265481	0.027294	-0.316261	-0.094834	-0.053180	-0.850818	0.522763	0.998562	-0.041787	0.033572	-0.006719	0.523797	0.851817
63043	4.525736	0.946632	9.669181	-0.054706	-0.460242	-0.069708	-0.053927	-0.848356	0.526672	0.998528	-0.042704	0.033454	-0.005890	0.527700	0.849410
63044	4.914678	0.687251	9.316265	-0.089481	-0.466197	-0.044054	-0.054428	-0.845863	0.530616	0.998506	-0.043583	0.032945	-0.004741	0.531617	0.846972
63045	4.965113	0.660860	9.233361	-0.118610	-0.616107	-0.025685	-0.054730	-0.842548	0.535833	0.998496	-0.044471	0.032061	-0.003184	0.536782	0.843715
63046	4.849058	0.730156	9.457968	-0.163486	-0.701313	-0.001743	-0.054800	-0.838758	0.541740	0.998497	-0.045400	0.030711	-0.001164	0.542609	0.839985
63047	4.764323	0.462283	9.546407	-0.160721	-0.801620	0.026566	-0.054557	-0.834381	0.548482	0.998510	-0.046093	0.029202	0.000915	0.549258	0.835653
63048	4.777895	0.363492	9.532755	-0.135003	-0.945895	0.047749	-0.054101	-0.829167	0.556377	0.998532	-0.046476	0.027833	0.002780	0.557065	0.830464
63049	5.143197	0.335389	9.355374	-0.167881	-1.068321	0.050670	-0.053575	-0.823180	0.565248	0.998551	-0.047037	0.026142	0.005068	0.565829	0.824507
63050	5.123468	0.080362	9.271989	-0.206404	-1.181813	0.042800	-0.053110	-0.816454	0.574963	0.998558	-0.047898	0.024223	0.007763	0.575420	0.817821
63051	5.095542	0.180726	9.270812	-0.191859	-1.327532	0.033768	-0.052674	-0.808747	0.585794	0.998557	-0.048776	0.022449	0.010417	0.586131	0.810149
63052	5.021539	0.065010	9.303180	-0.258483	-1.515860	0.025319	-0.052277	-0.799782	0.598010	0.998537	-0.050138	0.020236	0.013798	0.598193	0.801233
63053	4.879870	-0.361756	9.399938	-0.256061	-1.748012	-0.011295	-0.052139	-0.789185	0.611938	0.998490	-0.051815	0.018251	0.017304	0.611966	0.790695
63054	4.101526	-0.065800	9.712207	-0.137414	-2.138011	0.033719	-0.051447	-0.775941	0.628704	0.998480	-0.052440	0.016985	0.019790	0.628622	0.777459
63055	4.553066	-0.383389	9.677497	-0.163325	-2.581891	-0.037542	-0.051293	-0.759420	0.648575	0.998424	-0.053810	0.015955	0.022783	0.648371	0.760983
63056	4.076674	-0.789611	9.763405	0.053913	-3.069182	-0.113027	-0.051749	-0.739110	0.671594	0.998376	-0.054339	0.017127	0.023835	0.671390	0.740721
63057	4.002158	-1.450744	9.108343	0.361831	-3.519700	-0.261593	-0.053573	-0.714865	0.697207	0.998319	-0.053804	0.021544	0.022112	0.697190	0.716546
63058	4.589442	-1.706725	9.284776	0.565316	-3.825693	-0.564704	-0.058475	-0.687377	0.723943	0.998115	-0.053786	0.029552	0.018625	0.724306	0.689227
63059	5.736271	-1.329579	9.782535	0.703127	-4.021885	-0.801579	-0.065838	-0.657241	0.750799	0.997730	-0.054026	0.040197	0.014144	0.751741	0.659306
