// General information: 
//  MT Manager version: 2022.2.0 
//  XDA version: 2022.2.0 build 7381 rev 124627 built on 2023-07-19
// Device information: 
//  DeviceId: 00B4CAF0
//  ProductCode: MTW2-3A7G6
//  Firmware Version: 4.6.0
//  Hardware Version: 2.0.0
// Device settings: 
//  Filter Profile: human(46.1)
//  Option Flags: Orientation Smoother Disabled, Position/Velocity Smoother Disabled, Continuous Zero Rotation Update Disabled, AHS Disabled, ICC Disabled
// Coordinate system: ENU
PacketCounter	Acc_X	Acc_Y	Acc_Z	Gyr_X	Gyr_Y	Gyr_Z	Mat[1][1]	Mat[2][1]	Mat[3][1]	Mat[1][2]	Mat[2][2]	Mat[3][2]	Mat[1][3]	Mat[2][3]	Mat[3][3]
39246	5.704490	-1.395551	8.600560	-0.239521	-0.775708	-0.147119	-0.603337	-0.542994	0.584074	0.600082	-0.791490	-0.115949	0.525249	0.280536	0.803376
39247	5.841368	-1.529523	8.502497	-0.252631	-0.787946	-0.191834	-0.600328	-0.539220	0.590633	0.597553	-0.793269	-0.116855	0.531542	0.282783	0.798434
39248	5.903073	-1.718429	8.360751	-0.248811	-0.768413	-0.244725	-0.597678	-0.535075	0.597056	0.594731	-0.795307	-0.117395	0.537658	0.284923	0.793563
39249	5.812023	-1.649436	8.393242	-0.270071	-0.716805	-0.304190	-0.595613	-0.530569	0.603110	0.591416	-0.797728	-0.117715	0.543574	0.286576	0.788924
39250	5.581211	-1.862128	8.511210	-0.333987	-0.618661	-0.359267	-0.594345	-0.525906	0.608421	0.587431	-0.800599	-0.118179	0.549252	0.287166	0.784766
39251	5.249323	-2.199232	8.667019	-0.340071	-0.513457	-0.403811	-0.593881	-0.521157	0.612944	0.583115	-0.803718	-0.118383	0.554331	0.287111	0.781207
39252	4.931736	-2.219701	8.983266	-0.300765	-0.402304	-0.422086	-0.594101	-0.516571	0.616602	0.578893	-0.806799	-0.118144	0.558504	0.286757	0.778360
39253	4.424572	-2.349038	9.227874	-0.283337	-0.295298	-0.416321	-0.594853	-0.512325	0.619413	0.574790	-0.809780	-0.117781	0.561931	0.285970	0.776180
39254	4.220608	-2.424325	9.516927	-0.204123	-0.201452	-0.388968	-0.595954	-0.508561	0.621454	0.571282	-0.812377	-0.116960	0.564336	0.285323	0.774671
39255	3.792389	-2.326652	9.840523	-0.163694	-0.098876	-0.332972	-0.597297	-0.505535	0.622632	0.568329	-0.814560	-0.116164	0.565896	0.284476	0.773844
39256	3.365499	-2.460600	9.966958	-0.130860	-0.008184	-0.249109	-0.598669	-0.503447	0.623005	0.566057	-0.816216	-0.115635	0.566723	0.283429	0.773623
39257	3.295631	-2.420286	10.221776	-0.085877	0.079787	-0.133715	-0.599882	-0.502545	0.622567	0.564727	-0.817159	-0.115474	0.566767	0.282310	0.774000
39258	3.235873	-2.588773	10.400940	-0.098043	0.170849	0.029691	-0.600688	-0.503237	0.621230	0.564308	-0.817313	-0.116428	0.566330	0.280628	0.774931
39259	3.287278	-2.927122	10.401239	-0.098575	0.252139	0.227851	-0.600833	-0.505767	0.619031	0.565078	-0.816467	-0.118613	0.565409	0.278534	0.776358
39260	3.860613	-3.182170	10.332864	-0.076494	0.305960	0.449497	-0.600022	-0.510250	0.616131	0.567303	-0.814423	-0.121995	0.564039	0.276334	0.778138
39261	6.064496	-3.715861	10.947531	-0.066576	0.420625	0.662395	-0.598625	-0.516756	0.612055	0.570857	-0.811232	-0.126589	0.561934	0.273617	0.780618
39262	6.164041	-3.898102	11.081651	0.112461	0.726951	0.796960	-0.598129	-0.525152	0.605358	0.576214	-0.806801	-0.130572	0.556973	0.270717	0.785171
39263	5.342394	-3.466971	10.654427	0.302612	0.923659	0.828234	-0.598445	-0.534267	0.597011	0.582803	-0.801627	-0.133175	0.549731	0.268242	0.791102
39264	4.739394	-2.507227	10.105428	0.450703	1.009258	0.806765	-0.599227	-0.543380	0.587933	0.590052	-0.796102	-0.134388	0.541079	0.266382	0.797668
39265	4.597091	-1.625974	9.784680	0.475104	1.030806	0.779468	-0.600137	-0.552266	0.578652	0.597235	-0.790600	-0.135139	0.532114	0.264490	0.804301
39266	4.766690	-1.374881	9.651977	0.386798	1.036769	0.761020	-0.601049	-0.560962	0.569265	0.603808	-0.785374	-0.136398	0.523600	0.261744	0.810761
39267	4.956262	-1.481815	9.560211	0.300560	1.034578	0.723249	-0.602043	-0.569280	0.559878	0.609680	-0.780534	-0.138046	0.515591	0.258237	0.816994
39268	5.178172	-1.618114	9.434002	0.251023	1.048812	0.668616	-0.603326	-0.577143	0.550367	0.614955	-0.776086	-0.139715	0.507768	0.254158	0.823150
39269	5.163339	-1.560641	9.319418	0.215568	1.069865	0.587347	-0.605099	-0.584351	0.540730	0.619551	-0.772161	-0.141149	0.500011	0.249600	0.829270
39270	4.988340	-1.413917	9.143819	0.164315	1.081016	0.499747	-0.607369	-0.590845	0.531042	0.623358	-0.768847	-0.142477	0.492472	0.244493	0.835281
39271	4.965441	-1.216822	9.041696	0.075501	1.077642	0.419868	-0.610023	-0.596638	0.521435	0.626244	-0.766201	-0.144066	0.485480	0.238662	0.841041
39272	5.144400	-1.073574	9.024674	-0.045639	1.083599	0.361123	-0.612996	-0.601923	0.511786	0.628194	-0.764171	-0.146335	0.479175	0.231798	0.846558
39273	5.179981	-1.238452	8.852641	-0.168271	1.100995	0.316755	-0.616257	-0.606817	0.501996	0.629301	-0.762670	-0.149383	0.473505	0.223848	0.851872
39274	5.036481	-1.378877	8.581282	-0.236240	1.106280	0.266483	-0.619800	-0.611251	0.492159	0.629798	-0.761592	-0.152745	0.468190	0.215289	0.857000
39275	4.945822	-1.420650	8.418630	-0.274924	1.094462	0.211610	-0.623573	-0.615138	0.482454	0.629795	-0.760903	-0.156154	0.463157	0.206474	0.861890
39276	5.126515	-1.260771	8.331654	-0.321398	1.089542	0.170707	-0.627530	-0.618610	0.472788	0.629345	-0.760526	-0.159767	0.458401	0.197288	0.866572
39277	5.157228	-1.224630	8.161797	-0.382302	1.103309	0.144218	-0.631665	-0.621798	0.462997	0.628470	-0.760395	-0.163779	0.453898	0.187526	0.871097
39278	5.080708	-1.193349	7.855202	-0.446394	1.106196	0.119983	-0.635922	-0.624702	0.453158	0.627177	-0.760488	-0.168248	0.449725	0.177218	0.875409
39279	4.960755	-1.205509	7.622555	-0.500881	1.094403	0.098409	-0.640216	-0.627300	0.443416	0.625523	-0.760761	-0.173100	0.445920	0.166546	0.879442
39280	5.009679	-1.148249	7.405994	-0.552080	1.079910	0.105680	-0.644364	-0.629818	0.433734	0.623713	-0.761011	-0.178451	0.442468	0.155538	0.883193
39281	5.037346	-1.293729	7.165204	-0.598096	1.062443	0.131582	-0.648239	-0.632382	0.424123	0.621888	-0.761104	-0.184326	0.439366	0.144270	0.886647
39282	5.051382	-1.560868	6.940957	-0.583236	1.028309	0.182211	-0.651621	-0.635169	0.414669	0.620481	-0.760784	-0.190293	0.436342	0.133295	0.889853
39283	5.060037	-1.722565	6.810068	-0.531019	0.974853	0.264097	-0.654231	-0.638397	0.405500	0.619858	-0.759809	-0.196128	0.433310	0.123039	0.892807
39284	5.138617	-1.794077	6.657396	-0.445183	0.898991	0.375479	-0.655796	-0.642286	0.396737	0.620357	-0.757957	-0.201638	0.430219	0.113885	0.895512
39285	5.231696	-1.809474	6.409912	-0.337405	0.808108	0.499140	-0.656169	-0.646922	0.388502	0.622147	-0.755137	-0.206643	0.427054	0.106113	0.897978
39286	3.805308	-1.993869	7.155737	-0.237383	0.701178	0.628982	-0.655241	-0.652356	0.380908	0.625223	-0.751320	-0.211221	0.423974	0.099752	0.900164
39287	3.953174	-5.118787	-1.963467	-0.278980	-0.543935	0.365875	-0.650641	-0.654526	0.385048	0.626384	-0.749236	-0.215149	0.429312	0.101203	0.897468
39288	6.210773	-1.113430	1.420554	2.046181	-1.211986	0.275743	-0.643740	-0.655192	0.395377	0.636862	-0.745148	-0.197890	0.424271	0.124411	0.896948
39289	16.496269	7.067434	3.266014	1.617583	-1.328564	0.214258	-0.636752	-0.654965	0.406900	0.645045	-0.741592	-0.184278	0.422449	0.145130	0.894692
39290	12.051254	2.656100	0.933433	-0.588794	-1.495730	0.219006	-0.628935	-0.654348	0.419844	0.643865	-0.741057	-0.190452	0.435750	0.150541	0.887389
39291	6.532757	0.062984	12.215543	0.421092	-1.445865	-0.373266	-0.625002	-0.649282	0.433367	0.643336	-0.742858	-0.185152	0.442145	0.163080	0.881993
39292	8.528172	0.667378	14.957328	0.372234	-0.917709	-0.670836	-0.625247	-0.642719	0.442694	0.640754	-0.746598	-0.178956	0.445533	0.171766	0.878633
39293	5.179775	-2.273077	9.212414	-0.272454	-0.945873	-0.555694	-0.624554	-0.636885	0.452006	0.636020	-0.750655	-0.178874	0.453223	0.175768	0.873896
39294	6.217120	-4.450852	10.004381	-0.144750	-1.171372	-0.295378	-0.621083	-0.632538	0.462766	0.633478	-0.752818	-0.178802	0.461477	0.182101	0.868261
39295	12.102132	-5.759867	9.846061	0.303162	-0.924374	-0.536836	-0.620204	-0.626737	0.471749	0.631513	-0.755662	-0.173683	0.465337	0.190197	0.864457
39296	5.394238	-0.985358	9.167595	1.216303	-0.373345	-0.428624	-0.621201	-0.622734	0.475723	0.634439	-0.755987	-0.161155	0.459997	0.201707	0.864706
39297	2.617758	-0.457939	8.846289	0.332510	-0.706768	-0.436189	-0.620716	-0.617950	0.482545	0.633225	-0.758040	-0.156210	0.462318	0.208598	0.861829
39298	6.868834	-1.384619	9.291057	0.446080	-0.836523	-0.433641	-0.619594	-0.612846	0.490431	0.632562	-0.759790	-0.150280	0.464723	0.217115	0.858425
39299	7.276866	0.105569	9.585860	0.467122	-0.600350	-0.334763	-0.618929	-0.608944	0.496100	0.632624	-0.760833	-0.144639	0.465526	0.224323	0.856134
39300	6.129133	-1.108502	8.984783	0.165543	-0.512798	-0.263094	-0.618210	-0.605746	0.500888	0.631728	-0.762087	-0.141929	0.467692	0.228683	0.853796
39301	6.164374	-1.676091	8.984134	0.230401	-0.459201	-0.206652	-0.617374	-0.603077	0.505121	0.631492	-0.762833	-0.138938	0.469114	0.233203	0.851791
39302	6.151331	-1.105295	9.088746	0.258106	-0.396090	-0.156685	-0.616514	-0.600916	0.508734	0.631696	-0.763200	-0.135964	0.469968	0.237542	0.850120
39303	6.258616	-0.849237	9.093426	0.182115	-0.325060	-0.112928	-0.615707	-0.599244	0.511675	0.631819	-0.763471	-0.133854	0.470860	0.240871	0.848688
39304	5.820732	-1.047358	8.909327	0.120686	-0.265430	-0.081637	-0.614983	-0.597944	0.514061	0.631844	-0.763699	-0.132428	0.471772	0.243366	0.847469
39305	5.735673	-1.132562	8.828326	0.113468	-0.246321	-0.053912	-0.614169	-0.596897	0.516246	0.632010	-0.763773	-0.131202	0.472609	0.245692	0.846331
39306	5.704676	-1.104296	8.839965	0.086543	-0.221524	-0.036944	-0.613365	-0.596035	0.518194	0.632152	-0.763811	-0.130294	0.473462	0.247659	0.845280
39307	5.495764	-1.377809	8.655542	0.047160	-0.201694	-0.022485	-0.612561	-0.595329	0.519954	0.632199	-0.763857	-0.129792	0.474440	0.249209	0.844276
39308	5.380521	-1.517125	8.631449	0.047586	-0.206139	-0.011887	-0.611667	-0.594689	0.521736	0.632312	-0.763840	-0.129344	0.475442	0.250784	0.843245
39309	5.706233	-1.484884	8.649521	0.063893	-0.194128	-0.007379	-0.610799	-0.594111	0.523408	0.632532	-0.763753	-0.128780	0.476264	0.252414	0.842294
39310	5.391795	-1.578638	8.541650	0.051274	-0.174798	-0.011950	-0.610052	-0.593543	0.524922	0.632663	-0.763726	-0.128300	0.477048	0.253829	0.841425
39311	5.572978	-1.532031	8.540646	0.077729	-0.178668	-0.014444	-0.609299	-0.592945	0.526470	0.632907	-0.763643	-0.127583	0.477685	0.255470	0.840566
39312	5.585854	-1.424529	8.582111	0.074433	-0.152228	-0.010730	-0.608650	-0.592439	0.527789	0.633156	-0.763548	-0.126916	0.478182	0.256925	0.839840
39313	5.630411	-1.430553	8.578244	0.076575	-0.142105	-0.009435	-0.608039	-0.591968	0.529021	0.633427	-0.763436	-0.126236	0.478601	0.258339	0.839167
39314	5.521513	-1.256068	8.590323	0.078541	-0.128440	-0.005902	-0.607472	-0.591556	0.530132	0.633726	-0.763300	-0.125561	0.478926	0.259684	0.838567
39315	5.505271	-1.269817	8.588457	0.067552	-0.133132	-0.005521	-0.606878	-0.591134	0.531282	0.633977	-0.763186	-0.124978	0.479345	0.260974	0.837926
39316	5.657202	-1.085304	8.657709	0.075535	-0.132077	-0.000745	-0.606259	-0.590748	0.532415	0.634294	-0.763025	-0.124355	0.479709	0.262316	0.837299
39317	5.700070	-1.093735	8.654209	0.036799	-0.124574	0.009213	-0.605612	-0.590458	0.533473	0.634488	-0.762904	-0.124109	0.480270	0.263321	0.836662
39318	5.624728	-1.229309	8.563339	0.024553	-0.116838	0.013131	-0.604978	-0.590215	0.534461	0.634644	-0.762793	-0.123988	0.480862	0.264183	0.836050
39319	5.844794	-1.190566	8.678719	0.027016	-0.132758	0.012409	-0.604269	-0.589925	0.535581	0.634811	-0.762679	-0.123841	0.481533	0.265160	0.835354
39320	5.568036	-1.182259	8.555189	0.012477	-0.069678	0.019750	-0.603818	-0.589856	0.536165	0.634949	-0.762561	-0.123857	0.481916	0.265651	0.834977
39321	5.505127	-1.262374	8.554044	0.000843	-0.114137	0.019634	-0.603152	-0.589669	0.537120	0.635033	-0.762473	-0.123967	0.482639	0.266318	0.834347
39322	5.483737	-1.341591	8.536755	-0.004891	-0.116667	0.020914	-0.602466	-0.589483	0.538094	0.635095	-0.762394	-0.124134	0.483415	0.266954	0.833694
39323	5.427200	-1.464997	8.500856	0.006412	-0.119167	0.015930	-0.601797	-0.589253	0.539094	0.635183	-0.762314	-0.124179	0.484131	0.267693	0.833041
39324	5.466673	-1.636041	8.432346	0.012004	-0.133132	0.005931	-0.601124	-0.588906	0.540221	0.635236	-0.762278	-0.124125	0.484897	0.268553	0.832319
39325	5.539580	-1.487292	8.406017	0.046674	-0.127350	-0.004741	-0.600546	-0.588494	0.541313	0.635395	-0.762211	-0.123723	0.485405	0.269647	0.831669
39326	5.585612	-1.438929	8.418071	0.036787	-0.123879	-0.006225	-0.599994	-0.588077	0.542377	0.635496	-0.762180	-0.123397	0.485956	0.270641	0.831024
39327	5.530199	-1.547824	8.423831	0.045762	-0.129067	-0.013847	-0.599463	-0.587588	0.543493	0.635596	-0.762168	-0.122954	0.486479	0.271736	0.830360
39328	5.745987	-1.399493	8.455263	0.070656	-0.120395	-0.016706	-0.598993	-0.587098	0.544539	0.635799	-0.762106	-0.122290	0.486792	0.272966	0.829773
39329	5.743101	-1.283266	8.467582	0.059701	-0.105991	-0.018632	-0.598605	-0.586633	0.545467	0.635940	-0.762082	-0.121705	0.487087	0.274031	0.829249
39330	5.890556	-1.247532	8.512223	0.059555	-0.089442	-0.013596	-0.598266	-0.586249	0.546251	0.636107	-0.762030	-0.121151	0.487285	0.274994	0.828814
39331	5.960257	-1.076338	8.569888	0.056937	-0.074014	-0.007160	-0.597959	-0.585957	0.546900	0.636303	-0.761946	-0.120651	0.487404	0.275849	0.828459
39332	5.948791	-0.919582	8.617952	0.040884	-0.046324	0.013862	-0.597655	-0.585900	0.547293	0.636544	-0.761784	-0.120402	0.487463	0.276417	0.828235
39333	5.762513	-1.133292	8.494510	-0.004238	-0.041343	0.024143	-0.597309	-0.585936	0.547632	0.636629	-0.761685	-0.120581	0.487776	0.276615	0.827985
39334	5.731214	-1.159911	8.556493	0.008278	-0.040325	0.029973	-0.596932	-0.586018	0.547956	0.636807	-0.761519	-0.120690	0.488006	0.276899	0.827755
39335	5.694565	-1.273798	8.479680	-0.014593	-0.040185	0.026625	-0.596575	-0.586075	0.548283	0.636856	-0.761433	-0.120968	0.488378	0.277011	0.827498
39336	5.619137	-1.279260	8.507901	-0.007803	-0.044606	0.022238	-0.596225	-0.586086	0.548652	0.636910	-0.761357	-0.121168	0.488735	0.277198	0.827224
39337	5.666436	-1.323423	8.455956	-0.030241	-0.059185	0.015673	-0.595845	-0.586008	0.549148	0.636817	-0.761379	-0.121516	0.489320	0.277302	0.826843
39338	5.695032	-1.364012	8.431670	-0.024838	-0.060620	0.014217	-0.595468	-0.585913	0.549658	0.636738	-0.761397	-0.121813	0.489880	0.277453	0.826461
39339	5.714929	-1.337607	8.391805	-0.028397	-0.059832	0.008826	-0.595127	-0.585781	0.550168	0.636613	-0.761455	-0.122108	0.490457	0.277575	0.826078
39340	5.719557	-1.239004	8.437156	-0.008909	-0.051722	0.009096	-0.594825	-0.585671	0.550611	0.636582	-0.761459	-0.122245	0.490862	0.277795	0.825763
39341	5.712407	-1.312895	8.436795	-0.018333	-0.047833	0.005562	-0.594564	-0.585547	0.551025	0.636487	-0.761507	-0.122438	0.491303	0.277923	0.825458
39342	5.715475	-1.324082	8.392832	-0.008274	-0.043912	0.009281	-0.594299	-0.585461	0.551403	0.636460	-0.761509	-0.122571	0.491658	0.278102	0.825186
39343	5.737268	-1.338334	8.321030	0.003170	-0.034887	0.003080	-0.594116	-0.585353	0.551713	0.636455	-0.761512	-0.122573	0.491884	0.278318	0.824978
39344	5.768598	-1.398948	8.347630	0.011681	-0.027348	0.000422	-0.593989	-0.585245	0.551964	0.636474	-0.761510	-0.122492	0.492014	0.278552	0.824822
39345	5.725974	-1.374690	8.313388	0.036117	-0.014929	-0.003862	-0.593949	-0.585141	0.552118	0.636590	-0.761462	-0.122184	0.491912	0.278902	0.824764
39346	5.724235	-1.318521	8.387736	0.044167	-0.011792	-0.000893	-0.593907	-0.585066	0.552243	0.636760	-0.761376	-0.121828	0.491743	0.279292	0.824733
39347	5.716851	-1.338530	8.364770	0.052041	-0.006017	-0.008991	-0.593943	-0.584947	0.552330	0.636924	-0.761314	-0.121361	0.491486	0.279711	0.824744
39348	5.734099	-1.375610	8.404076	0.065669	0.001145	-0.003402	-0.593981	-0.584889	0.552351	0.637185	-0.761183	-0.120814	0.491103	0.280189	0.824810
39349	5.737351	-1.220800	8.427723	0.071528	0.000053	-0.007014	-0.594034	-0.584802	0.552385	0.637456	-0.761053	-0.120196	0.490686	0.280721	0.824878
39350	5.733069	-1.181342	8.420698	0.065348	-0.000774	-0.005262	-0.594074	-0.584725	0.552424	0.637704	-0.760933	-0.119642	0.490316	0.281207	0.824932
39351	5.686423	-1.192213	8.455042	0.053767	-0.000165	-0.002048	-0.594095	-0.584675	0.552454	0.637917	-0.760824	-0.119198	0.490013	0.281605	0.824976
39352	5.698537	-1.206753	8.445206	0.044022	-0.006246	-0.000419	-0.594078	-0.584619	0.552533	0.638089	-0.760736	-0.118846	0.489811	0.281961	0.824975
39353	5.668551	-1.180173	8.483559	0.043067	-0.020015	0.001051	-0.593982	-0.584537	0.552723	0.638267	-0.760638	-0.118508	0.489694	0.282393	0.824896
39354	5.596288	-1.213013	8.521829	0.039500	-0.025287	0.000919	-0.593862	-0.584437	0.552957	0.638425	-0.760554	-0.118200	0.489634	0.282826	0.824783
39355	5.618349	-1.315906	8.443530	0.013339	-0.045598	0.000053	-0.593648	-0.584275	0.553359	0.638452	-0.760547	-0.118102	0.489859	0.283182	0.824528
39356	5.655169	-1.317067	8.484707	0.032469	-0.052477	-0.004395	-0.593429	-0.584057	0.553823	0.638543	-0.760513	-0.117823	0.490005	0.283720	0.824256
39357	5.672387	-1.232084	8.519698	0.023919	-0.067034	-0.009770	-0.593171	-0.583759	0.554413	0.638564	-0.760533	-0.117583	0.490289	0.284281	0.823894
39358	5.603906	-1.276273	8.513840	0.007499	-0.081292	-0.012270	-0.592861	-0.583399	0.555123	0.638487	-0.760616	-0.117467	0.490765	0.284797	0.823432
39359	5.646510	-1.239935	8.485307	0.008828	-0.097410	-0.018042	-0.592507	-0.582950	0.555972	0.638385	-0.760726	-0.117305	0.491325	0.285420	0.822882
39360	5.545518	-1.228374	8.508394	-0.000501	-0.116266	-0.021370	-0.592082	-0.582420	0.556980	0.638214	-0.760885	-0.117203	0.492059	0.286078	0.822215
39361	5.581640	-1.255467	8.521476	-0.016502	-0.149393	-0.023601	-0.591505	-0.581779	0.558261	0.637955	-0.761100	-0.117218	0.493088	0.286810	0.821343
39362	5.642293	-1.330489	8.471401	-0.022157	-0.160541	-0.034320	-0.590942	-0.581021	0.559645	0.637601	-0.761396	-0.117221	0.494220	0.287559	0.820400
39363	5.768036	-1.311783	8.323580	-0.013746	-0.183351	-0.039265	-0.590293	-0.580160	0.561220	0.637263	-0.761694	-0.117125	0.495429	0.288507	0.819337
39364	5.841488	-1.313113	8.268562	-0.016279	-0.172440	-0.048394	-0.589756	-0.579258	0.562715	0.636855	-0.762055	-0.116999	0.496592	0.289367	0.818329
39365	5.901033	-1.332804	8.291436	-0.005223	-0.165401	-0.056589	-0.589303	-0.578313	0.564160	0.636457	-0.762428	-0.116733	0.497640	0.290272	0.817372
39366	5.813102	-1.397052	8.286433	-0.028082	-0.156774	-0.072482	-0.588993	-0.577269	0.565551	0.635848	-0.762961	-0.116566	0.498783	0.290948	0.816434
39367	5.861065	-1.488513	8.313106	-0.023356	-0.149483	-0.093941	-0.588852	-0.576083	0.566906	0.635139	-0.763601	-0.116235	0.499851	0.291619	0.815541
39368	5.807619	-1.414687	8.333547	-0.005156	-0.144502	-0.110524	-0.588840	-0.574781	0.568238	0.634421	-0.764285	-0.115663	0.500777	0.292395	0.814695
39369	5.683477	-1.265581	8.483781	-0.006655	-0.161804	-0.118596	-0.588790	-0.573366	0.569718	0.633651	-0.765016	-0.115052	0.501811	0.293260	0.813747
39370	5.534723	-1.074533	8.754103	-0.013773	-0.204964	-0.119441	-0.588526	-0.571814	0.571547	0.632836	-0.765773	-0.114495	0.503146	0.294312	0.812542
39371	5.222060	-1.133588	8.985103	-0.038207	-0.326635	-0.115547	-0.587618	-0.569930	0.574356	0.631925	-0.766576	-0.114154	0.505347	0.295871	0.810607
39372	5.262706	-1.204069	9.039163	-0.080255	-0.441931	-0.123385	-0.586166	-0.567637	0.578099	0.630752	-0.767549	-0.114104	0.508489	0.297753	0.807949
39373	5.006641	-1.000511	9.324179	-0.116577	-0.603042	-0.134795	-0.583944	-0.564764	0.583139	0.629330	-0.768691	-0.114271	0.512790	0.300259	0.804295
39374	4.769631	-0.952930	9.580010	-0.213171	-0.829776	-0.143038	-0.580571	-0.561124	0.589981	0.627355	-0.770172	-0.115152	0.519002	0.303274	0.799163
39375	4.633477	-1.022947	9.702933	-0.332472	-1.086917	-0.161740	-0.575904	-0.556526	0.598843	0.624641	-0.772121	-0.116845	0.527407	0.306770	0.792297
39376	4.539519	-1.071495	9.879284	-0.454721	-1.371508	-0.184699	-0.569756	-0.550828	0.609891	0.621119	-0.774579	-0.119322	0.538135	0.310831	0.783451
39377	4.710112	-1.206238	9.765122	-0.555980	-1.669868	-0.219430	-0.562026	-0.543859	0.623173	0.616810	-0.777552	-0.122302	0.551064	0.315642	0.772462
39378	4.965171	-1.184993	9.489097	-0.594855	-1.938510	-0.251071	-0.552753	-0.535692	0.638356	0.612048	-0.780834	-0.125283	0.565563	0.321454	0.759478
39379	5.208297	-1.137471	9.237031	-0.571516	-2.169959	-0.310945	-0.542214	-0.526171	0.655094	0.607029	-0.784372	-0.127576	0.580964	0.328488	0.744699
39380	5.537450	-1.127781	8.720449	-0.505092	-2.359835	-0.398340	-0.530732	-0.515154	0.673008	0.601877	-0.788157	-0.128657	0.596715	0.336785	0.728359
39381	5.913965	-1.284128	8.301424	-0.432382	-2.505702	-0.495669	-0.518556	-0.502645	0.691699	0.596622	-0.792186	-0.128389	0.612489	0.346106	0.710682
39382	6.488565	-1.636548	8.170675	-0.406889	-2.644371	-0.582685	-0.505613	-0.488698	0.711006	0.591072	-0.796533	-0.127159	0.628482	0.355963	0.691593
39383	6.771606	-2.225668	8.065895	-0.333372	-2.778476	-0.688670	-0.491984	-0.473120	0.730828	0.585474	-0.801079	-0.124466	0.644339	0.366646	0.671117
39384	6.907465	-2.378789	7.631749	-0.192923	-2.923955	-0.797122	-0.477568	-0.455784	0.751126	0.580310	-0.805531	-0.119834	0.659673	0.378657	0.649192
39385	8.200313	-2.357802	7.483193	-0.149348	-3.017524	-0.873425	-0.462482	-0.437078	0.771410	0.575168	-0.810034	-0.114133	0.674754	0.390905	0.626019
39386	10.215826	-2.712904	8.172082	-0.208032	-2.974989	-0.896540	-0.447322	-0.417964	0.790702	0.569628	-0.814722	-0.108407	0.689512	0.401913	0.602527
39387	10.616254	-2.412814	8.060682	-0.153808	-2.783282	-0.863559	-0.432846	-0.399543	0.808090	0.564716	-0.818907	-0.102407	0.702667	0.412015	0.580089
39388	10.776123	-2.207738	7.686817	-0.310575	-2.642248	-0.822449	-0.418729	-0.381763	0.823968	0.558969	-0.823441	-0.097458	0.715695	0.419764	0.558193
39389	10.499645	-2.376661	6.840213	-0.367560	-2.511097	-0.830222	-0.405216	-0.364247	0.838525	0.552855	-0.828121	-0.092561	0.728115	0.426075	0.536943
39390	10.321279	-1.858844	7.035827	-0.415848	-2.348105	-0.825938	-0.392521	-0.347287	0.851656	0.546465	-0.832870	-0.087765	0.739799	0.430951	0.516700
39391	9.254849	-1.782296	6.699625	-0.547814	-2.223479	-0.854093	-0.380577	-0.330496	0.863675	0.539038	-0.838161	-0.083206	0.751398	0.433887	0.497135
39392	8.658443	-1.969152	6.133071	-0.637685	-2.126923	-0.924272	-0.369417	-0.313440	0.874807	0.530701	-0.843937	-0.078273	0.762815	0.435346	0.478108
39393	8.646683	-2.043579	6.058998	-0.667981	-2.032140	-1.006491	-0.359098	-0.296022	0.885110	0.521862	-0.849940	-0.072535	0.773763	0.435858	0.459695
39394	8.159219	-2.128060	6.086222	-0.667439	-1.861987	-1.108669	-0.350330	-0.278415	0.894290	0.512688	-0.856060	-0.065672	0.783849	0.435485	0.442644
39395	7.212413	-2.344303	6.212473	-0.661548	-1.587626	-1.219541	-0.344005	-0.260993	0.901966	0.503198	-0.862250	-0.057584	0.792750	0.434058	0.427950
39396	5.968059	-3.241219	6.324445	-0.539208	-1.228297	-1.314031	-0.340777	-0.244267	0.907857	0.494362	-0.867932	-0.047959	0.799673	0.432467	0.416528
39397	5.226131	-3.852233	7.734444	-0.367074	-0.886549	-1.237212	-0.339734	-0.229630	0.912059	0.487167	-0.872473	-0.038198	0.804518	0.431348	0.408277
39398	3.637428	-5.691733	8.649525	-0.256549	-0.487235	-0.939032	-0.340354	-0.219288	0.914370	0.481863	-0.875710	-0.030654	0.807445	0.430168	0.403718
39399	7.273437	-7.550742	8.857204	0.139311	-0.419019	-0.342362	-0.338614	-0.214441	0.916164	0.481784	-0.875875	-0.026944	0.808223	0.432270	0.399898
39400	6.486171	-7.209600	10.263422	0.598562	0.295579	0.320378	-0.339442	-0.218493	0.914899	0.487652	-0.872606	-0.027466	0.804347	0.436830	0.402748
39401	2.827551	-6.636453	8.817300	0.922589	0.517731	0.786415	-0.339711	-0.227570	0.912583	0.497674	-0.866814	-0.030897	0.798071	0.443673	0.407722
39402	2.192184	-4.418782	8.756413	1.261186	0.578826	1.111172	-0.338701	-0.239722	0.909843	0.511412	-0.858588	-0.035838	0.789772	0.453166	0.413401
39403	3.039363	-2.660167	9.287258	1.281683	0.635010	1.340385	-0.336733	-0.254035	0.906685	0.525965	-0.849436	-0.042658	0.781007	0.462520	0.419646
39404	3.902396	-1.709910	9.929309	1.158530	0.807893	1.478462	-0.335130	-0.270265	0.902577	0.539886	-0.840184	-0.051121	0.772147	0.470156	0.427484
39405	4.465897	-1.412077	10.135800	1.028401	1.046209	1.486926	-0.335036	-0.287599	0.897239	0.552723	-0.831199	-0.060039	0.763052	0.475809	0.437444
39406	4.652212	-1.251883	10.140088	0.993215	1.303259	1.397923	-0.337110	-0.305360	0.890568	0.564911	-0.822335	-0.068126	0.753148	0.480126	0.449719
39407	4.832573	-0.941123	10.029632	0.964708	1.538029	1.240442	-0.341533	-0.322875	0.882670	0.576295	-0.813820	-0.074703	0.742454	0.483165	0.464018
39408	5.074450	-0.805871	10.005277	0.907965	1.758539	1.065050	-0.348306	-0.339987	0.873551	0.586621	-0.805924	-0.079767	0.731135	0.484660	0.480152
39409	5.526948	-1.027509	9.851702	0.841947	1.976754	0.917377	-0.357218	-0.356887	0.863150	0.595925	-0.798677	-0.083603	0.719214	0.484507	0.497979
39410	5.833211	-1.628313	9.587600	0.714826	2.182957	0.833431	-0.367795	-0.374046	0.851362	0.604008	-0.792203	-0.087118	0.707037	0.482187	0.517295
39411	5.852156	-2.312314	9.263315	0.710168	2.357013	0.802889	-0.379427	-0.391666	0.838232	0.611944	-0.785747	-0.090145	0.693945	0.478747	0.537812
39412	6.101208	-2.713867	9.053282	0.712553	2.471241	0.838395	-0.391252	-0.409983	0.823915	0.620035	-0.779018	-0.093207	0.680057	0.474389	0.558997
39413	6.511853	-2.783551	8.980345	0.718428	2.581268	0.953279	-0.402669	-0.429514	0.808316	0.628614	-0.771659	-0.096886	0.665358	0.469107	0.580722
39414	7.143012	-3.031165	8.806472	0.676523	2.677858	1.126207	-0.413166	-0.450614	0.791353	0.637624	-0.763579	-0.101894	0.650176	0.462487	0.602808
39415	7.248183	-3.312331	8.586534	0.768911	2.751176	1.350457	-0.422152	-0.473453	0.773065	0.648164	-0.753842	-0.107733	0.633775	0.455593	0.625111
39416	7.713436	-3.964904	7.605708	0.844605	2.736632	1.551302	-0.429129	-0.497415	0.753940	0.660014	-0.742521	-0.114213	0.616627	0.448599	0.646938
39417	6.605137	-3.045748	7.710854	1.226708	2.665967	1.681152	-0.434094	-0.521644	0.734472	0.674678	-0.728512	-0.118657	0.596969	0.444024	0.668185
39418	6.709343	-1.255253	8.401858	1.303685	2.589653	1.694512	-0.437749	-0.545289	0.714867	0.689684	-0.713742	-0.122103	0.576812	0.439582	0.688517
39419	7.891096	-0.538530	9.500566	1.007046	2.621667	1.588737	-0.441580	-0.567916	0.694607	0.702349	-0.700544	-0.126268	0.558312	0.432099	0.708222
39420	7.901499	-1.413493	9.567156	0.700492	2.773060	1.421715	-0.446783	-0.589608	0.672865	0.712484	-0.689358	-0.130970	0.541065	0.420890	0.728079
39421	8.216975	-1.210285	9.709892	0.725296	2.906404	1.202016	-0.453635	-0.609851	0.649843	0.721719	-0.679176	-0.133570	0.522816	0.408412	0.748240
39422	8.022282	-1.167841	9.378840	0.479286	3.035117	1.011253	-0.461924	-0.628823	0.625466	0.728782	-0.671023	-0.136398	0.505472	0.392823	0.768237
39423	7.842810	-1.099602	9.220871	0.352582	3.117334	0.822439	-0.471411	-0.646255	0.600105	0.734338	-0.664461	-0.138702	0.488383	0.375294	0.787805
39424	7.941843	-1.265043	9.117920	0.146830	3.163994	0.649380	-0.481847	-0.662101	0.573974	0.738109	-0.659707	-0.141360	0.472249	0.355541	0.806580
39425	8.172814	-1.516666	9.192436	-0.042636	3.192754	0.487587	-0.493092	-0.676285	0.547265	0.740254	-0.656626	-0.144452	0.457039	0.333887	0.824400
39426	8.494480	-1.830725	9.110107	-0.202008	3.206511	0.356855	-0.504891	-0.688944	0.520040	0.741096	-0.654871	-0.148058	0.442563	0.310647	0.841212
39427	8.689072	-2.042933	8.924158	-0.339471	3.221137	0.257845	-0.517027	-0.700212	0.492328	0.740901	-0.654127	-0.152260	0.428659	0.286044	0.856989
39428	8.699773	-2.149495	8.678774	-0.465329	3.198552	0.198865	-0.529073	-0.710236	0.464378	0.739947	-0.654025	-0.157255	0.415403	0.260416	0.871564
39429	8.750429	-2.338628	8.356031	-0.589889	3.124788	0.198872	-0.540406	-0.719236	0.436647	0.738563	-0.654096	-0.163348	0.403095	0.234217	0.884679
39430	8.863135	-2.585652	8.048862	-0.695114	3.006487	0.241505	-0.550594	-0.727445	0.409477	0.737087	-0.653914	-0.170585	0.391854	0.207897	0.896231
39431	9.070974	-2.963646	7.691482	-0.743742	2.850168	0.316299	-0.559301	-0.735043	0.383266	0.735933	-0.653084	-0.178562	0.381556	0.182188	0.906213
39432	9.285281	-3.020577	7.126294	-0.699511	2.671965	0.417606	-0.566311	-0.742292	0.358182	0.735617	-0.651216	-0.186507	0.371697	0.157864	0.914834
39433	9.034039	-2.884333	6.288926	-0.612374	2.447781	0.527331	-0.571430	-0.749284	0.334726	0.736337	-0.648213	-0.193981	0.362321	0.135624	0.922133
39434	8.549735	-1.608531	5.324416	-0.406587	2.144524	0.642410	-0.574383	-0.756122	0.313630	0.738531	-0.643918	-0.199856	0.353067	0.116831	0.928275
39435	8.224324	0.192687	5.485044	-0.339686	1.759418	0.678710	-0.575523	-0.762370	0.295914	0.741214	-0.639165	-0.205110	0.345507	0.101290	0.932934
39436	9.144371	-0.456745	5.506215	-0.468759	1.417976	0.616151	-0.575837	-0.767613	0.281393	0.743120	-0.634921	-0.211300	0.340859	0.087435	0.936040
39437	8.861212	-2.835376	3.186755	-0.245336	0.883667	0.443826	-0.575549	-0.771136	0.272200	0.744810	-0.631741	-0.214852	0.337640	0.079079	0.937948
39438	10.225143	-1.956155	3.216565	0.436900	0.602099	0.320477	-0.575191	-0.773605	0.265878	0.748082	-0.628952	-0.211643	0.330953	0.077163	0.940487
39439	9.990243	-0.938039	2.272749	0.510789	0.328201	0.314045	-0.573930	-0.775807	0.262162	0.751530	-0.626153	-0.207689	0.325280	0.077824	0.942410
39440	8.670291	-0.480276	1.313410	0.505351	-0.086508	0.345830	-0.571067	-0.777875	0.262285	0.755111	-0.623094	-0.203864	0.322009	0.081634	0.943211
39441	8.407626	-0.124121	1.453712	0.443603	-0.567014	0.409796	-0.566157	-0.779914	0.266834	0.758838	-0.619554	-0.200791	0.321918	0.088805	0.942594
39442	9.238858	-0.411524	1.126959	0.460869	-0.993065	0.462530	-0.559453	-0.781812	0.275286	0.762895	-0.615541	-0.197736	0.324042	0.099390	0.940807
39443	9.420708	0.577494	1.048625	0.697228	-1.376488	0.450027	-0.551549	-0.783077	0.287372	0.767632	-0.611305	-0.192476	0.326396	0.114436	0.938280
39444	9.605406	1.451768	-0.020994	0.760714	-1.764509	0.387715	-0.542794	-0.783233	0.303185	0.772216	-0.607363	-0.186528	0.330238	0.132877	0.934498
39445	10.152371	2.362017	-1.099803	0.755793	-2.198898	0.309621	-0.533086	-0.781922	0.323137	0.776369	-0.603885	-0.180479	0.336258	0.154662	0.928983
39446	3.738622	4.471118	5.645159	0.758200	-2.437462	0.293800	-0.522540	-0.779607	0.345204	0.780461	-0.600367	-0.174471	0.343267	0.178250	0.922168
39447	5.231901	4.164919	13.569554	0.052802	-2.567981	0.143968	-0.512451	-0.775607	0.368549	0.781360	-0.599181	-0.174522	0.356188	0.198535	0.913079
39448	3.913200	-0.674771	10.798813	-0.200352	-2.561636	-0.698133	-0.508598	-0.766053	0.393052	0.777035	-0.605015	-0.173706	0.370871	0.217069	0.902960
39449	5.499381	2.009757	9.910362	0.713118	-2.551891	-0.932258	-0.506290	-0.754517	0.417581	0.774944	-0.610506	-0.163539	0.378329	0.240804	0.893801
39450	2.253852	-1.583657	8.585218	-0.845073	-2.959664	-0.890909	-0.501662	-0.741633	0.445326	0.767132	-0.619313	-0.167209	0.399804	0.257742	0.879617
39451	11.495563	-12.864315	16.574789	-1.419557	-3.645090	-0.941619	-0.493747	-0.726000	0.478683	0.756531	-0.630045	-0.175226	0.428806	0.275622	0.860324
39452	38.681045	-10.879701	9.690484	3.068449	-2.185954	-1.913422	-0.499036	-0.707459	0.500465	0.759965	-0.634803	-0.139563	0.416432	0.310689	0.854434
39453	6.054077	9.410843	12.287035	3.543989	0.512547	-0.223553	-0.502824	-0.707661	0.496371	0.773047	-0.625078	-0.108057	0.386738	0.329385	0.861359
39454	3.700700	3.490185	13.564312	-1.700466	-1.294869	-0.289796	-0.499936	-0.701550	0.507831	0.764815	-0.632748	-0.121195	0.406353	0.327807	0.852889
39455	9.009546	-5.425749	6.217993	-1.443424	-0.450639	0.098134	-0.497342	-0.700679	0.511567	0.759310	-0.636785	-0.133990	0.419641	0.321799	0.848732
39456	5.604496	-1.232178	8.364578	1.751705	-0.538354	-0.204002	-0.496684	-0.697579	0.516420	0.765518	-0.632484	-0.118095	0.409008	0.336673	0.848153
39457	6.320370	2.094159	10.967968	0.327872	-0.280076	-0.130759	-0.496557	-0.695772	0.518973	0.766176	-0.632321	-0.114653	0.407929	0.340693	0.847067
39458	6.480741	-2.071784	8.291153	-0.557402	-0.379725	-0.081248	-0.495634	-0.693932	0.522307	0.763446	-0.634822	-0.118960	0.414122	0.339793	0.844419
39459	6.273744	-0.953990	8.686897	0.452130	-0.220112	-0.029629	-0.494967	-0.692961	0.524226	0.765134	-0.633517	-0.115001	0.411798	0.344182	0.843778
39460	6.013441	-0.119332	9.259217	0.003097	-0.173808	-0.014140	-0.494375	-0.692239	0.525736	0.765042	-0.633645	-0.114916	0.412680	0.345398	0.842850
39461	5.668830	-1.503400	8.508691	-0.024272	-0.146280	-0.000085	-0.493787	-0.691701	0.526995	0.764909	-0.633766	-0.115133	0.413629	0.346252	0.842034
39462	5.337155	-1.417946	8.563999	0.030940	-0.135036	-0.006314	-0.493293	-0.691159	0.528167	0.764970	-0.633742	-0.114855	0.414105	0.347375	0.841337
39463	5.116711	-1.634582	8.436549	0.019491	-0.146684	-0.022275	-0.492871	-0.690477	0.529453	0.764909	-0.633865	-0.114586	0.414720	0.348507	0.840565
39464	5.131318	-1.842519	8.398127	0.038731	-0.167409	-0.040441	-0.492502	-0.689602	0.530934	0.764835	-0.634049	-0.114061	0.415295	0.349901	0.839702
39465	5.096827	-1.821420	8.373413	0.082671	-0.184504	-0.058387	-0.492197	-0.688554	0.532575	0.764858	-0.634198	-0.113070	0.415612	0.351692	0.838797
39466	5.192614	-1.661031	8.428171	0.118949	-0.209911	-0.068698	-0.491867	-0.687344	0.534439	0.764979	-0.634291	-0.111721	0.415781	0.353883	0.837790
39467	5.224530	-1.427963	8.520944	0.132836	-0.220444	-0.072191	-0.491518	-0.686072	0.536391	0.765144	-0.634352	-0.110235	0.415890	0.356234	0.836739
39468	5.108090	-1.528343	8.439647	0.100107	-0.244434	-0.083586	-0.491157	-0.684634	0.538554	0.765114	-0.634608	-0.108964	0.416372	0.358537	0.835515
39469	5.606637	-1.253626	8.559814	0.158203	-0.280989	-0.078404	-0.490602	-0.683094	0.541011	0.765356	-0.634611	-0.107232	0.416581	0.361458	0.834151
39470	5.755108	-0.934871	8.625408	0.145287	-0.263584	-0.069771	-0.490054	-0.681661	0.543310	0.765583	-0.634601	-0.105658	0.416808	0.364170	0.832857
39471	7.141314	-0.848152	8.804519	0.115624	-0.279554	-0.047434	-0.489267	-0.680306	0.545712	0.765801	-0.634539	-0.104450	0.417333	0.366803	0.831438
39472	5.321397	-0.977106	8.553837	0.069168	-0.105027	-0.025853	-0.489043	-0.679722	0.546639	0.765927	-0.634501	-0.103749	0.417364	0.367948	0.830916
39473	6.280754	-0.997999	8.548147	0.069951	-0.150523	-0.001338	-0.488440	-0.679127	0.547916	0.766180	-0.634289	-0.103172	0.417605	0.369409	0.830146
39474	5.711243	-0.934113	8.637220	0.047081	-0.130092	0.004468	-0.487879	-0.678640	0.549019	0.766363	-0.634126	-0.102821	0.417925	0.370584	0.829461
39475	5.843434	-1.082787	8.570414	0.022145	-0.126870	0.010564	-0.487283	-0.678204	0.550086	0.766475	-0.634009	-0.102707	0.418415	0.371580	0.828768
39476	5.700899	-1.205140	8.574516	0.008479	-0.123465	0.007984	-0.486721	-0.677761	0.551128	0.766513	-0.633964	-0.102695	0.418998	0.372463	0.828077
39477	5.727613	-1.377310	8.448106	-0.007101	-0.118636	0.002972	-0.486216	-0.677306	0.552132	0.766466	-0.634008	-0.102782	0.419671	0.373216	0.827397
39478	5.719449	-1.399360	8.480993	0.011252	-0.114621	-0.004327	-0.485785	-0.676816	0.553112	0.766456	-0.634036	-0.102679	0.420188	0.374056	0.826755
39479	5.705010	-1.416410	8.423174	0.012334	-0.112136	-0.010405	-0.485408	-0.676298	0.554075	0.766425	-0.634097	-0.102531	0.420679	0.374888	0.826128
39480	5.705760	-1.360220	8.413559	0.027158	-0.103762	-0.015312	-0.485105	-0.675777	0.554975	0.766429	-0.634140	-0.102237	0.421021	0.375754	0.825560
39481	5.696910	-1.346564	8.435962	0.026784	-0.099589	-0.025949	-0.484900	-0.675206	0.555849	0.766384	-0.634252	-0.101883	0.421340	0.376591	0.825016
39482	5.718452	-1.252143	8.426811	0.035866	-0.104507	-0.022580	-0.484649	-0.674635	0.556761	0.766389	-0.634311	-0.101476	0.421619	0.377516	0.824451
39483	5.891675	-1.197104	8.464181	0.025308	-0.091467	-0.015348	-0.484396	-0.674160	0.557556	0.766390	-0.634356	-0.101193	0.421909	0.378288	0.823948
39484	5.734401	-1.180334	8.393593	0.033415	-0.074460	-0.011951	-0.484190	-0.673767	0.558209	0.766436	-0.634351	-0.100866	0.422061	0.378994	0.823546
39485	5.770079	-1.259795	8.416997	0.010379	-0.070127	-0.014185	-0.484018	-0.673379	0.558826	0.766379	-0.634444	-0.100712	0.422362	0.379526	0.823147
39486	5.809463	-1.195149	8.432919	0.032089	-0.067555	-0.010757	-0.483831	-0.673020	0.559420	0.766426	-0.634437	-0.100403	0.422490	0.380177	0.822781
39487	5.811380	-1.174050	8.378300	0.026586	-0.054425	-0.010309	-0.483696	-0.672716	0.559904	0.766457	-0.634442	-0.100137	0.422591	0.380706	0.822484
39488	5.852724	-1.094638	8.434781	0.028449	-0.048490	-0.007414	-0.483564	-0.672449	0.560337	0.766505	-0.634425	-0.099877	0.422654	0.381205	0.822221
39489	5.831732	-1.143273	8.393159	0.020423	-0.036190	-0.005453	-0.483468	-0.672244	0.560666	0.766532	-0.634421	-0.099689	0.422714	0.381572	0.822019
39490	5.796345	-1.102452	8.395756	0.028191	-0.035771	-0.004672	-0.483369	-0.672043	0.560992	0.766592	-0.634387	-0.099446	0.422718	0.381983	0.821826
39491	5.837820	-1.106456	8.377726	0.014051	-0.032572	-0.005014	-0.483285	-0.671855	0.561290	0.766595	-0.634404	-0.099313	0.422809	0.382286	0.821639
39492	5.763528	-1.092627	8.408584	0.018962	-0.032892	-0.006218	-0.483210	-0.671655	0.561594	0.766609	-0.634415	-0.099137	0.422869	0.382619	0.821453
39493	5.733345	-1.088080	8.363515	0.015036	-0.039428	-0.009730	-0.483133	-0.671410	0.561952	0.766593	-0.634460	-0.098970	0.422986	0.382973	0.821227
39494	5.749640	-1.060696	8.380702	0.014829	-0.052437	-0.010358	-0.483007	-0.671109	0.562421	0.766570	-0.634514	-0.098805	0.423173	0.383411	0.820927
39495	5.759541	-1.192278	8.365520	0.004593	-0.062722	-0.013888	-0.482863	-0.670748	0.562974	0.766490	-0.634627	-0.098700	0.423482	0.383856	0.820560
39496	5.705546	-1.221147	8.378538	0.013473	-0.067164	-0.019655	-0.482746	-0.670331	0.563572	0.766415	-0.634749	-0.098493	0.423750	0.384383	0.820174
39497	5.750568	-1.191942	8.346246	0.021943	-0.080886	-0.027567	-0.482629	-0.669812	0.564288	0.766343	-0.634887	-0.098169	0.424013	0.385059	0.819721
39498	5.663811	-1.133828	8.390413	0.016143	-0.093412	-0.033979	-0.482510	-0.669202	0.565114	0.766211	-0.635094	-0.097859	0.424388	0.385778	0.819189
39499	5.664246	-1.304612	8.464043	-0.009572	-0.111972	-0.039499	-0.482352	-0.668486	0.566095	0.765948	-0.635432	-0.097725	0.425042	0.386461	0.818527
39500	5.641506	-1.364830	8.437970	-0.005923	-0.126707	-0.055645	-0.482255	-0.667607	0.567213	0.765617	-0.635869	-0.097473	0.425746	0.387261	0.817783
39501	5.649054	-1.292975	8.465877	0.001538	-0.149233	-0.078355	-0.482234	-0.666498	0.568534	0.765214	-0.636423	-0.097026	0.426495	0.388261	0.816918
39502	5.594666	-1.248195	8.568919	-0.026301	-0.173428	-0.095879	-0.482243	-0.665178	0.570070	0.764602	-0.637205	-0.096709	0.427580	0.389239	0.815885
39503	5.749300	-1.308459	8.432171	-0.035003	-0.200843	-0.119998	-0.482315	-0.663598	0.571848	0.763841	-0.638176	-0.096320	0.428858	0.390344	0.814685
39504	5.855395	-1.076740	8.433820	-0.009194	-0.211181	-0.131294	-0.482427	-0.661899	0.573720	0.763131	-0.639125	-0.095657	0.429994	0.391676	0.813446
39505	5.767542	-0.861822	8.490562	-0.017453	-0.247724	-0.126469	-0.482339	-0.660085	0.575879	0.762414	-0.640066	-0.095082	0.431363	0.393196	0.811987
39506	5.850091	-0.826665	8.457455	-0.053295	-0.279857	-0.118920	-0.482052	-0.658186	0.578289	0.761573	-0.641102	-0.094843	0.433166	0.394690	0.810301
39507	5.553323	-0.685330	8.679474	-0.022253	-0.339314	-0.095547	-0.481321	-0.656197	0.581150	0.760983	-0.641855	-0.094479	0.435011	0.396771	0.808294
39508	5.719906	-0.777287	8.601137	-0.086968	-0.432100	-0.071380	-0.479994	-0.653984	0.584731	0.760224	-0.642711	-0.094779	0.437797	0.399033	0.805672
39509	5.665220	-0.986460	8.569398	-0.087184	-0.491485	-0.062050	-0.478321	-0.651585	0.588767	0.759511	-0.643502	-0.095125	0.440855	0.401675	0.802686
39510	5.655098	-1.071113	8.679394	-0.132395	-0.562836	-0.058483	-0.476288	-0.648904	0.593357	0.758608	-0.644458	-0.095853	0.444593	0.404472	0.799212
39511	5.570429	-1.294283	8.618027	-0.155455	-0.641681	-0.073560	-0.473993	-0.645791	0.598568	0.757531	-0.645602	-0.096663	0.448861	0.407617	0.795218
39512	5.486438	-1.070592	8.829046	-0.171708	-0.750602	-0.095289	-0.471342	-0.642067	0.604638	0.756269	-0.646961	-0.097464	0.453755	0.411330	0.790515
39513	5.383313	-0.975299	9.099930	-0.234792	-0.894837	-0.104291	-0.468057	-0.637658	0.611813	0.754674	-0.648636	-0.098687	0.459772	0.415528	0.784822
39514	5.251189	-0.910715	9.304076	-0.317770	-1.082838	-0.115133	-0.463920	-0.632349	0.620413	0.752627	-0.650737	-0.100472	0.467259	0.420328	0.777813
39515	5.181447	-0.865413	9.362212	-0.409490	-1.298329	-0.134491	-0.458818	-0.625946	0.630617	0.750041	-0.653352	-0.102806	0.476366	0.425820	0.769255
39516	5.026485	-0.839937	9.661343	-0.503630	-1.539220	-0.151752	-0.452552	-0.618314	0.642561	0.746886	-0.656498	-0.105698	0.487195	0.432086	0.758909
39517	4.818213	-1.023889	9.811772	-0.589222	-1.824108	-0.195864	-0.445021	-0.609042	0.656524	0.743065	-0.660305	-0.108866	0.499810	0.439393	0.746407
39518	4.791179	-1.334901	9.723872	-0.618433	-2.119624	-0.287377	-0.436421	-0.597697	0.672529	0.738627	-0.664823	-0.111536	0.513777	0.448072	0.731618
39519	4.946465	-1.522516	9.442070	-0.560613	-2.414922	-0.416427	-0.426914	-0.583935	0.690482	0.733874	-0.669862	-0.112754	0.528369	0.458590	0.714508
39520	5.091565	-1.432665	9.231786	-0.476915	-2.697045	-0.567276	-0.416623	-0.567549	0.710150	0.728888	-0.675385	-0.112149	0.543275	0.470896	0.695061
39521	4.824800	-1.122186	9.585506	-0.408649	-3.086272	-0.717415	-0.404834	-0.547889	0.732071	0.723654	-0.681377	-0.109770	0.558958	0.485328	0.672326
39522	5.397539	-1.754100	10.369005	-0.460114	-3.630402	-0.866354	-0.390470	-0.524003	0.756937	0.717559	-0.688331	-0.106352	0.576752	0.501619	0.644776
39523	5.268108	-2.748945	9.676039	-0.310327	-4.113370	-1.058552	-0.373948	-0.495618	0.783917	0.711659	-0.695350	-0.100144	0.594730	0.520434	0.612735
39524	7.579405	-2.879826	9.993469	-0.174869	-4.662888	-1.210595	-0.354378	-0.462359	0.812798	0.706157	-0.702117	-0.091516	0.612992	0.541531	0.575313
39525	11.563117	-4.072277	10.317100	-0.200448	-4.815441	-1.301928	-0.333586	-0.426569	0.840690	0.700395	-0.709046	-0.081855	0.631005	0.561510	0.535294
39526	13.487889	-3.571008	10.816328	0.010643	-4.788824	-1.245942	-0.311705	-0.390302	0.866316	0.696405	-0.714112	-0.071160	0.646421	0.581126	0.494401
39527	13.443774	-3.321906	10.272650	-0.133279	-4.687026	-1.203283	-0.289409	-0.354007	0.889338	0.691882	-0.719411	-0.061214	0.661470	0.597601	0.453135
39528	13.665625	-2.008626	10.825811	-0.244972	-4.609905	-1.061676	-0.265905	-0.318437	0.909886	0.687257	-0.724499	-0.052712	0.675997	0.611309	0.411496
39529	11.818679	-2.320200	10.301163	-0.642653	-4.447637	-0.975645	-0.242162	-0.283905	0.927769	0.680349	-0.731428	-0.046242	0.691725	0.620009	0.370279
39530	9.099890	-1.463852	9.945147	-0.810719	-4.277599	-0.978004	-0.218862	-0.250039	0.943175	0.672386	-0.739124	-0.039919	0.707105	0.625441	0.329889
39531	6.682164	-2.024026	8.555527	-1.160227	-4.165639	-1.061834	-0.196148	-0.216016	0.956485	0.661848	-0.748893	-0.033406	0.723521	0.626495	0.289863
39532	5.496538	-2.088985	7.685805	-1.168442	-3.944067	-1.180003	-0.175065	-0.182397	0.967514	0.651078	-0.758592	-0.025202	0.738545	0.625516	0.251558
39533	2.681235	-1.675574	5.134605	-1.170950	-3.386813	-1.362063	-0.158621	-0.150823	0.975752	0.640046	-0.768196	-0.014693	0.751785	0.622195	0.218386
39534	7.746776	0.488022	9.693204	-1.036927	-2.673366	-1.567756	-0.148339	-0.122108	0.981369	0.629752	-0.776795	-0.001463	0.762501	0.617802	0.192127
39535	24.177388	-3.329012	17.819188	-1.892648	-0.403224	-1.223302	-0.152844	-0.110020	0.982107	0.613327	-0.789798	0.006974	0.774899	0.603419	0.188194
39536	4.377425	-8.925904	10.749926	-1.605305	1.498081	-0.882213	-0.169865	-0.111914	0.979092	0.599369	-0.800375	0.012500	0.782242	0.588961	0.203034
39537	-3.288291	-10.008450	5.811091	-0.258353	1.871334	-0.979335	-0.190338	-0.115001	0.974959	0.595552	-0.803028	0.021547	0.780442	0.584740	0.221336
39538	-5.892078	-5.953799	5.481492	0.939284	1.375758	-0.681997	-0.205109	-0.117608	0.971648	0.601457	-0.798329	0.030334	0.772127	0.590626	0.234480
39539	-1.750329	-2.442892	7.846217	1.041849	1.132756	-0.128001	-0.214581	-0.123276	0.968895	0.609152	-0.792320	0.034099	0.763472	0.597521	0.245111
39540	1.015179	-1.861975	9.399800	0.326558	1.340318	0.644949	-0.220851	-0.136377	0.965726	0.613003	-0.789560	0.028688	0.758586	0.598328	0.257975
39541	2.333346	-4.034209	9.455594	0.031784	1.802810	1.256443	-0.226769	-0.157008	0.961210	0.616020	-0.787554	0.016690	0.754384	0.595909	0.275313
39542	2.312920	-4.752805	8.983502	0.289671	2.220983	1.574433	-0.233717	-0.182582	0.955008	0.621783	-0.783186	0.002435	0.747504	0.594377	0.296570
39543	2.288202	-3.446821	8.846196	0.677380	2.525767	1.668937	-0.242019	-0.210568	0.947147	0.630747	-0.775906	-0.011327	0.737282	0.594669	0.320599
39544	3.295018	-1.475487	9.181596	0.873980	2.776822	1.682303	-0.251637	-0.240061	0.937576	0.641253	-0.766946	-0.024265	0.724895	0.595118	0.346932
39545	5.056790	-0.105585	9.729803	0.855923	3.093713	1.624121	-0.263361	-0.270793	0.925912	0.651548	-0.757739	-0.036286	0.711426	0.593719	0.375994
39546	6.265761	0.039483	9.773476	0.556606	3.471866	1.571090	-0.277556	-0.303149	0.911627	0.659686	-0.749972	-0.048543	0.698410	0.587914	0.408142
39547	6.769882	-1.018247	9.093610	0.485926	3.766059	1.480756	-0.293778	-0.336144	0.894819	0.667242	-0.742434	-0.059837	0.684458	0.579482	0.442400
39548	7.448661	-1.410738	8.944378	0.524665	3.983026	1.396860	-0.311380	-0.369340	0.875574	0.674987	-0.734521	-0.069795	0.668906	0.569268	0.478015
39549	8.237240	-1.804636	8.680915	0.592949	4.116034	1.376609	-0.329219	-0.402550	0.854148	0.683277	-0.725900	-0.078750	0.651726	0.557694	0.514033
39550	9.227984	-2.259390	8.662027	0.617203	4.218367	1.424979	-0.346548	-0.436078	0.830506	0.692026	-0.716552	-0.087479	0.633249	0.544416	0.550097
39551	10.137660	-2.800738	8.354272	0.707441	4.294220	1.562823	-0.362427	-0.470227	0.804694	0.701942	-0.705703	-0.096233	0.613127	0.529971	0.585838
39552	9.316627	-3.504126	8.088306	0.832888	4.318139	1.730099	-0.376215	-0.504887	0.776886	0.713317	-0.692946	-0.104904	0.591304	0.514699	0.620841
39553	9.814034	-3.173782	8.222587	1.036531	4.225014	1.799456	-0.387760	-0.538624	0.748015	0.726166	-0.678333	-0.112015	0.567737	0.499748	0.654161
39554	10.240290	-3.000268	8.541354	1.009018	4.180719	1.860899	-0.397392	-0.571659	0.717834	0.739050	-0.663072	-0.118911	0.543952	0.483261	0.685984
39555	10.538406	-3.001542	8.818398	0.979350	4.132103	1.923502	-0.405049	-0.603830	0.686531	0.751947	-0.647157	-0.125554	0.520106	0.465379	0.716178
39556	10.783668	-3.207212	8.928746	0.928907	4.082176	1.944526	-0.411080	-0.634861	0.654190	0.764575	-0.630910	-0.131825	0.496426	0.445987	0.744753
39557	11.069632	-3.050711	9.237552	0.911228	4.034119	1.924304	-0.415812	-0.664393	0.621033	0.776917	-0.614474	-0.137192	0.472759	0.425445	0.771684
39558	11.462644	-2.439956	9.518463	0.834802	4.014816	1.832724	-0.420009	-0.692145	0.586965	0.788397	-0.598616	-0.141738	0.449469	0.403231	0.797109
39559	11.323467	-1.729861	9.492229	0.699109	4.026405	1.644050	-0.424626	-0.717590	0.552049	0.798375	-0.584329	-0.145455	0.426955	0.378978	0.821027
39560	11.123858	-0.956677	9.493276	0.484838	3.993410	1.371621	-0.430281	-0.740130	0.516784	0.806229	-0.572590	-0.148777	0.406020	0.352631	0.843089
39561	11.399781	-0.290616	9.418197	0.152859	3.924037	1.049100	-0.437389	-0.759344	0.481754	0.811359	-0.564245	-0.152726	0.387799	0.324075	0.862895
39562	11.660087	-0.154765	8.926627	-0.266142	3.829089	0.738529	-0.445985	-0.775305	0.447214	0.813581	-0.559431	-0.158504	0.373074	0.293154	0.880271
39563	3.328571	-0.136518	10.189869	-0.368107	2.791855	0.523333	-0.452026	-0.786050	0.421660	0.814546	-0.556418	-0.164057	0.363577	0.269304	0.891789
39564	16.186591	-5.539276	-8.048469	-1.083355	1.158391	0.033163	-0.456015	-0.789258	0.411245	0.810711	-0.559022	-0.173902	0.367149	0.254098	0.894783
39565	18.968015	-1.698328	0.232243	0.774153	0.769334	0.129860	-0.457766	-0.791904	0.404152	0.814080	-0.556072	-0.167506	0.357386	0.252333	0.899224
39566	25.129924	2.244880	1.906604	-0.156579	0.882776	0.247877	-0.458916	-0.795460	0.395777	0.814628	-0.554528	-0.169940	0.354650	0.244423	0.902486
39567	19.018316	-1.635120	-4.665554	-0.404990	0.749440	0.327845	-0.458922	-0.799051	0.388470	0.814668	-0.552923	-0.174905	0.354552	0.236206	0.904710
39568	15.683838	2.522929	-4.456597	0.442375	0.307528	-0.032499	-0.460295	-0.799580	0.385747	0.816044	-0.552175	-0.170804	0.349571	0.236167	0.906656
39569	16.198706	3.577886	-3.811076	-0.100346	-0.335877	-0.191958	-0.460701	-0.797696	0.389148	0.814780	-0.553983	-0.170989	0.351978	0.238295	0.905167
39570	15.920764	1.880448	-4.267636	-0.034066	-0.783317	-0.315319	-0.460519	-0.794034	0.396779	0.813175	-0.556613	-0.170087	0.355907	0.244322	0.902018
39571	16.854110	1.309716	-5.898904	0.149287	-1.342136	-0.465817	-0.459511	-0.788051	0.409665	0.811538	-0.559961	-0.166885	0.360910	0.255773	0.896841
39572	17.238435	1.893398	-8.114531	0.517818	-2.029891	-0.620780	-0.457190	-0.779155	0.428829	0.810541	-0.563493	-0.159685	0.366062	0.274577	0.889160
39573	5.671147	5.951358	10.933937	0.921784	-2.261438	-0.478458	-0.452778	-0.769963	0.449610	0.811722	-0.564600	-0.149444	0.368916	0.297294	0.880635
39574	11.544288	-5.424608	20.282613	-2.293610	-2.399702	-0.322015	-0.446190	-0.760903	0.471107	0.801442	-0.573987	-0.168015	0.398252	0.302598	0.865927
39575	16.040996	-18.452796	4.553601	0.379625	-1.526328	-1.280011	-0.450330	-0.748749	0.486392	0.797194	-0.582512	-0.158628	0.402101	0.316314	0.859221
39576	2.008547	-2.931178	8.195650	3.271025	-1.377008	-0.739722	-0.450883	-0.739870	0.499296	0.806649	-0.577239	-0.126934	0.382128	0.345524	0.857083
39577	12.981349	6.451451	13.265296	2.072294	-1.861674	-0.996359	-0.451918	-0.727418	0.516365	0.809955	-0.577161	-0.104198	0.373822	0.371144	0.850006
39578	10.376288	6.610617	11.985225	0.316051	-0.613045	-0.281134	-0.451922	-0.723467	0.521883	0.809831	-0.578064	-0.100080	0.374086	0.377409	0.847126
39579	6.112202	-1.360062	9.017397	-0.749045	-0.765148	-0.002369	-0.449060	-0.720531	0.528375	0.806953	-0.580951	-0.106408	0.383630	0.378590	0.842317
39580	6.768931	-3.597952	7.766453	0.204239	-0.604078	-0.081437	-0.447415	-0.717721	0.533569	0.807338	-0.580803	-0.104278	0.384741	0.384115	0.839303
39581	7.308779	1.217739	9.757670	1.048338	-0.472314	-0.102246	-0.446458	-0.715262	0.537657	0.810852	-0.577498	-0.094952	0.378411	0.393568	0.837800
39582	6.533615	0.409794	9.507129	-0.153987	-0.358816	-0.014445	-0.445231	-0.713730	0.540703	0.810168	-0.578254	-0.096182	0.381311	0.395237	0.835697
39583	6.218067	-1.510554	8.347394	0.019247	-0.311970	0.020051	-0.443894	-0.712579	0.543313	0.810301	-0.578074	-0.096142	0.382584	0.397570	0.834007
39584	7.708806	0.027469	9.147004	0.181993	-0.222622	0.066524	-0.442522	-0.712041	0.545135	0.811257	-0.576919	-0.095006	0.382147	0.400202	0.832948
39585	5.231264	-0.886504	8.506359	-0.097463	-0.137529	0.068686	-0.441456	-0.711856	0.546239	0.811158	-0.576860	-0.096204	0.383587	0.400617	0.832086
39586	6.030356	-1.351480	8.482859	-0.013890	-0.152169	0.082882	-0.440217	-0.711690	0.547455	0.811436	-0.576371	-0.096791	0.384422	0.401615	0.831219
39587	5.691870	-1.516604	8.438593	-0.022813	-0.120694	0.066144	-0.439234	-0.711555	0.548419	0.811610	-0.576031	-0.097355	0.385180	0.402340	0.830517
39588	5.732183	-1.406014	8.442887	0.006424	-0.096402	0.055054	-0.438433	-0.711450	0.549195	0.811842	-0.575659	-0.097622	0.385602	0.403059	0.829973
39589	5.748485	-1.398698	8.417696	0.010484	-0.078586	0.048011	-0.437758	-0.711378	0.549826	0.812063	-0.575314	-0.097811	0.385903	0.403676	0.829533
39590	5.679969	-1.349006	8.431661	0.034004	-0.068650	0.039647	-0.437189	-0.711295	0.550386	0.812333	-0.574940	-0.097766	0.385980	0.404355	0.829166
39591	5.590699	-1.247234	8.519474	0.027100	-0.059173	0.035209	-0.436692	-0.711227	0.550868	0.812562	-0.574620	-0.097747	0.386060	0.404929	0.828849
39592	5.620729	-1.352225	8.449512	0.017091	-0.067084	0.033586	-0.436178	-0.711114	0.551421	0.812740	-0.574357	-0.097809	0.386266	0.405500	0.828474
39593	5.643714	-1.191190	8.470535	0.070276	-0.068363	0.030240	-0.435686	-0.710980	0.551983	0.813114	-0.573896	-0.097405	0.386034	0.406387	0.828147
39594	5.663264	-1.162531	8.485732	0.038180	-0.072365	0.024050	-0.435229	-0.710789	0.552589	0.813332	-0.573616	-0.097241	0.386092	0.407116	0.827762
39595	5.723582	-1.112353	8.471397	0.047286	-0.075708	0.025605	-0.434746	-0.710597	0.553216	0.813597	-0.573281	-0.097003	0.386078	0.407923	0.827371
39596	5.739374	-1.100383	8.447150	0.045485	-0.077967	0.024749	-0.434262	-0.710386	0.553866	0.813845	-0.572965	-0.096783	0.386099	0.408732	0.826961
39597	5.752779	-1.120334	8.436354	0.041794	-0.073348	0.023585	-0.433805	-0.710191	0.554475	0.814080	-0.572666	-0.096579	0.386119	0.409491	0.826577
39598	5.742045	-1.105336	8.459814	0.042338	-0.076875	0.023055	-0.433338	-0.709973	0.555118	0.814308	-0.572375	-0.096376	0.386160	0.410274	0.826169
39599	5.737074	-1.215522	8.457266	0.014425	-0.078230	0.021826	-0.432876	-0.709746	0.555769	0.814430	-0.572200	-0.096390	0.386423	0.410910	0.825730
39600	5.812034	-1.211867	8.428372	0.021845	-0.072719	0.021204	-0.432440	-0.709534	0.556378	0.814571	-0.572006	-0.096347	0.386613	0.411546	0.825325
39601	5.763170	-1.188651	8.467651	0.027209	-0.073073	0.017871	-0.432029	-0.709305	0.556989	0.814724	-0.571807	-0.096233	0.386749	0.412217	0.824926
39602	5.761638	-1.165719	8.470790	0.010266	-0.066062	0.014017	-0.431677	-0.709078	0.557550	0.814790	-0.571712	-0.096246	0.387004	0.412739	0.824545
39603	5.788728	-1.162448	8.478274	0.006731	-0.074281	0.013924	-0.431294	-0.708820	0.558175	0.814847	-0.571625	-0.096279	0.387311	0.413302	0.824119
39604	5.735588	-1.157090	8.478496	-0.004854	-0.075403	0.015512	-0.430893	-0.708563	0.558811	0.814860	-0.571581	-0.096425	0.387729	0.413804	0.823670
39605	5.744450	-1.244545	8.494156	-0.018111	-0.073041	0.012820	-0.430523	-0.708303	0.559425	0.814816	-0.571605	-0.096657	0.388233	0.414216	0.823226
39606	5.717398	-1.243799	8.446457	-0.015358	-0.075756	0.007293	-0.430187	-0.707997	0.560071	0.814753	-0.571663	-0.096844	0.388737	0.414659	0.822764
39607	5.766442	-1.238583	8.464672	-0.011273	-0.076466	0.004718	-0.429869	-0.707676	0.560721	0.814700	-0.571716	-0.096974	0.389199	0.415134	0.822307
39608	5.760812	-1.163926	8.460439	-0.021648	-0.078888	0.001830	-0.429564	-0.707324	0.561398	0.814589	-0.571840	-0.097182	0.389768	0.415562	0.821820
39609	5.734303	-1.163201	8.412363	-0.024455	-0.083257	0.001491	-0.429245	-0.706956	0.562105	0.814471	-0.571970	-0.097402	0.390367	0.416009	0.821310
39610	5.772131	-1.152999	8.398017	-0.034496	-0.085791	0.002068	-0.428911	-0.706576	0.562838	0.814310	-0.572146	-0.097717	0.391069	0.416412	0.820771
39611	5.696602	-1.114345	8.431922	-0.027869	-0.091191	-0.004194	-0.428605	-0.706141	0.563615	0.814154	-0.572331	-0.097932	0.391729	0.416895	0.820212
39612	5.724153	-1.145484	8.450670	-0.040569	-0.105578	-0.000771	-0.428215	-0.705662	0.564511	0.813956	-0.572553	-0.098280	0.392565	0.417402	0.819554
39613	5.730589	-1.133089	8.391736	-0.039031	-0.112418	-0.003961	-0.427823	-0.705139	0.565461	0.813757	-0.572783	-0.098589	0.393405	0.417969	0.818861
39614	5.799761	-1.072080	8.411869	-0.037418	-0.123014	-0.005573	-0.427401	-0.704558	0.566503	0.813550	-0.573026	-0.098883	0.394290	0.418616	0.818105
39615	5.782226	-1.056663	8.399666	-0.053808	-0.138182	-0.005411	-0.426917	-0.703917	0.567664	0.813285	-0.573329	-0.099303	0.395359	0.419279	0.817250
39616	5.777620	-1.258186	8.321124	-0.054624	-0.143781	-0.008926	-0.426438	-0.703228	0.568877	0.812996	-0.573667	-0.099718	0.396470	0.419971	0.816355
39617	5.807297	-1.321793	8.349973	-0.047106	-0.148760	-0.019472	-0.426023	-0.702460	0.570135	0.812697	-0.574042	-0.100002	0.397529	0.420744	0.815442
39618	5.763170	-1.286161	8.332555	-0.043026	-0.156238	-0.033546	-0.425690	-0.701575	0.571472	0.812347	-0.574505	-0.100181	0.398598	0.421587	0.814484
39619	5.753334	-1.322359	8.325206	-0.037872	-0.159951	-0.044408	-0.425430	-0.700614	0.572843	0.811978	-0.575016	-0.100245	0.399627	0.422489	0.813512
39620	5.843320	-1.271161	8.314460	-0.030480	-0.170706	-0.051564	-0.425182	-0.699561	0.574312	0.811601	-0.575553	-0.100217	0.400655	0.423502	0.812479
39621	5.806952	-1.146493	8.367539	-0.020834	-0.183097	-0.052871	-0.424894	-0.698449	0.575877	0.811263	-0.576050	-0.100092	0.401643	0.424659	0.811386
39622	5.763145	-1.101254	8.407652	-0.022403	-0.211717	-0.046207	-0.424434	-0.697247	0.577669	0.810941	-0.576515	-0.100027	0.402778	0.426001	0.810119
39623	5.680972	-1.110997	8.489652	-0.028860	-0.250694	-0.042617	-0.423785	-0.695901	0.579766	0.810615	-0.576974	-0.100024	0.404117	0.427578	0.808620
39624	5.805899	-1.100923	8.378231	-0.031067	-0.283008	-0.041358	-0.422991	-0.694415	0.582123	0.810278	-0.577442	-0.100054	0.405621	0.429359	0.806921
39625	5.700011	-1.124967	8.466033	-0.045856	-0.329581	-0.042222	-0.422010	-0.692721	0.584846	0.809884	-0.577972	-0.100187	0.407426	0.431377	0.804933
39626	5.735609	-1.180660	8.451399	-0.055440	-0.372841	-0.048112	-0.420893	-0.690796	0.587920	0.809419	-0.578591	-0.100370	0.409500	0.433629	0.802668
39627	5.609191	-1.149389	8.577389	-0.065412	-0.431191	-0.054732	-0.419582	-0.688572	0.591455	0.808890	-0.579293	-0.100580	0.411883	0.436221	0.800040
39628	5.515640	-1.199089	8.559454	-0.104278	-0.508126	-0.064408	-0.418018	-0.685940	0.595606	0.808154	-0.580238	-0.101050	0.414908	0.439101	0.796895
39629	5.570867	-1.080982	8.644881	-0.117356	-0.610526	-0.075765	-0.416103	-0.682777	0.600561	0.807319	-0.581314	-0.101538	0.418443	0.442594	0.793105
39630	5.593977	-0.977440	8.644188	-0.150084	-0.713438	-0.080192	-0.413765	-0.679104	0.606314	0.806319	-0.582574	-0.102260	0.422667	0.446571	0.788623
39631	5.692348	-0.981281	8.528921	-0.210834	-0.824559	-0.081941	-0.410935	-0.674894	0.612903	0.805055	-0.584114	-0.103425	0.427807	0.450920	0.783360
39632	5.801653	-1.068573	8.484541	-0.245806	-0.909067	-0.087966	-0.407743	-0.670224	0.620117	0.803600	-0.585867	-0.104819	0.433558	0.455587	0.777475
39633	5.880778	-1.187310	8.405565	-0.291534	-0.998713	-0.100604	-0.404204	-0.665027	0.627979	0.801888	-0.587913	-0.106455	0.439993	0.460540	0.770915
39634	5.879029	-1.304855	8.460249	-0.324175	-1.079536	-0.123672	-0.400422	-0.659264	0.636422	0.799917	-0.590280	-0.108177	0.446985	0.465769	0.763717
39635	5.925625	-1.304535	8.438165	-0.348364	-1.176141	-0.148460	-0.396322	-0.652842	0.645544	0.797725	-0.592926	-0.109878	0.454493	0.471420	0.755777
39636	5.895835	-1.243848	8.467489	-0.373659	-1.277716	-0.179189	-0.391904	-0.645680	0.655369	0.795269	-0.595909	-0.111536	0.462557	0.477483	0.747028
39637	5.908867	-1.230603	8.564931	-0.414818	-1.394264	-0.216046	-0.387123	-0.637653	0.665984	0.792460	-0.599329	-0.113192	0.471320	0.483946	0.737328
39638	5.943652	-1.240433	8.647081	-0.419790	-1.536032	-0.249014	-0.381795	-0.628633	0.677535	0.789468	-0.602998	-0.114606	0.480597	0.491136	0.726507
39639	5.858711	-1.149675	8.844073	-0.438752	-1.695543	-0.286386	-0.375832	-0.618471	0.690104	0.786221	-0.606996	-0.115811	0.490516	0.499049	0.714384
39640	5.542205	-1.411075	9.104146	-0.475398	-1.902001	-0.351843	-0.369171	-0.606718	0.703993	0.782516	-0.611590	-0.116734	0.501380	0.507791	0.700548
39641	5.427038	-1.601116	9.048746	-0.461769	-2.161157	-0.468594	-0.361881	-0.592721	0.719530	0.778430	-0.616808	-0.116598	0.512922	0.517909	0.684603
39642	5.398910	-1.399251	9.024416	-0.436219	-2.471641	-0.605964	-0.353766	-0.575986	0.736946	0.773960	-0.622678	-0.115142	0.525201	0.529634	0.666072
39643	5.101859	-1.395781	9.495494	-0.430031	-2.892300	-0.751803	-0.344193	-0.555726	0.756769	0.769017	-0.629279	-0.112342	0.538651	0.543301	0.643956
39644	5.783229	-2.264999	9.208559	-0.452238	-3.382092	-0.930961	-0.332864	-0.531160	0.779147	0.763358	-0.636875	-0.108052	0.553612	0.558802	0.617458
39645	6.496248	-2.847248	8.434045	-0.261037	-3.781119	-1.107882	-0.320098	-0.502557	0.803103	0.758244	-0.644123	-0.100853	0.567981	0.576665	0.587243
39646	7.130931	-2.843066	8.424459	-0.145288	-4.121443	-1.296040	-0.306202	-0.469966	0.827873	0.753312	-0.651320	-0.091116	0.582032	0.595747	0.553466
39647	10.244317	-3.291826	9.384618	-0.191915	-4.478785	-1.405700	-0.290360	-0.433605	0.853040	0.747955	-0.658872	-0.080317	0.596870	0.614715	0.515627
39648	12.515652	-3.450171	9.613328	-0.070136	-4.449628	-1.401897	-0.273969	-0.396534	0.876186	0.743538	-0.665171	-0.068544	0.609994	0.632699	0.477075
39649	14.536725	-2.581744	10.453772	-0.166349	-4.390416	-1.270043	-0.256325	-0.359884	0.897096	0.739113	-0.671078	-0.058029	0.622905	0.648180	0.438009
39650	14.021856	-2.568673	9.153476	-0.339465	-4.289853	-1.168348	-0.237930	-0.323902	0.915684	0.734050	-0.677336	-0.048857	0.636050	0.660533	0.398919
39651	14.445204	-1.745082	10.157559	-0.583253	-4.088753	-1.016140	-0.219078	-0.289755	0.931690	0.727946	-0.684367	-0.041668	0.649692	0.669092	0.360856
39652	11.720370	-1.678298	9.674470	-0.855049	-3.843865	-0.930506	-0.200571	-0.257510	0.945230	0.720339	-0.692695	-0.035861	0.663991	0.673693	0.324428
39653	8.563853	-1.111174	9.161616	-1.186642	-3.722132	-0.952683	-0.182385	-0.225727	0.956966	0.710510	-0.703030	-0.030415	0.679641	0.674386	0.288603
39654	6.379150	-2.173918	7.815101	-1.448135	-3.654413	-1.088221	-0.164914	-0.193387	0.967163	0.698620	-0.715095	-0.023861	0.696228	0.671744	0.253033
39655	4.764500	-1.863452	7.363945	-1.305112	-3.439096	-1.259705	-0.149454	-0.161218	0.975537	0.687426	-0.726106	-0.014682	0.710710	0.668415	0.219345
39656	1.892664	-1.159466	6.313875	-1.258702	-2.931911	-1.426569	-0.138160	-0.131238	0.981676	0.676310	-0.736610	-0.003293	0.723544	0.663463	0.190528
39657	11.618185	0.227181	10.667545	-1.233519	-2.283027	-1.598255	-0.132234	-0.104267	0.985719	0.665122	-0.746665	0.010246	0.734934	0.656978	0.168085
39658	22.611358	-4.228991	16.511596	-1.880043	0.197689	-1.153198	-0.141287	-0.096849	0.985220	0.649577	-0.760073	0.018437	0.747053	0.642581	0.170299
39659	4.630702	-8.263976	9.805801	-1.311560	1.590482	-0.822843	-0.158519	-0.100641	0.982213	0.638472	-0.769264	0.024221	0.753144	0.630955	0.186199
39660	-2.710271	-7.960336	4.764039	-0.090464	1.824063	-0.832083	-0.177547	-0.105714	0.978418	0.636355	-0.770724	0.032202	0.750686	0.628339	0.204111
39661	-4.975394	-4.269192	4.033549	0.945269	1.106334	-0.530810	-0.189204	-0.108579	0.975916	0.642406	-0.765351	0.039394	0.742641	0.634388	0.214559
39662	-0.225392	-1.154006	6.428250	1.079152	0.715106	-0.022143	-0.194638	-0.112973	0.974348	0.650293	-0.758524	0.041955	0.734326	0.641778	0.221103
39663	2.503908	-0.566959	7.979479	0.437055	0.872395	0.634437	-0.196887	-0.123339	0.972637	0.654701	-0.754992	0.036789	0.729796	0.644030	0.229399
39664	3.395879	-2.570653	8.157716	0.161105	1.277602	1.112841	-0.198898	-0.139957	0.969975	0.658038	-0.752524	0.026353	0.726241	0.643522	0.241772
39665	3.317863	-3.349669	8.102047	0.406670	1.654236	1.362623	-0.201861	-0.160787	0.966126	0.663676	-0.747885	0.014201	0.720268	0.644061	0.257679
39666	3.314278	-2.606972	8.355762	0.742665	1.937689	1.439239	-0.206137	-0.184010	0.961066	0.671891	-0.740647	0.002305	0.711386	0.646207	0.276310
39667	4.035645	-1.285762	8.882568	0.892700	2.207587	1.473474	-0.211760	-0.209109	0.954689	0.681240	-0.732002	-0.009226	0.700763	0.648419	0.297462
39668	5.013192	-0.403417	9.450252	0.870742	2.486479	1.463077	-0.219032	-0.235902	0.946771	0.690409	-0.723130	-0.020455	0.689464	0.649179	0.321257
39669	5.948626	-0.317716	9.741685	0.704709	2.816372	1.422151	-0.228424	-0.264344	0.936987	0.698378	-0.715037	-0.031473	0.678300	0.647182	0.347943
39670	6.531735	-0.896427	9.732135	0.615417	3.123747	1.378546	-0.239780	-0.294316	0.925140	0.705710	-0.707250	-0.042091	0.666693	0.642787	0.377286
39671	6.979186	-1.340590	9.644101	0.633587	3.383387	1.333798	-0.252666	-0.325303	0.911229	0.713145	-0.699097	-0.051832	0.653899	0.636742	0.408626
39672	7.583286	-1.600764	9.561131	0.707981	3.587522	1.268744	-0.266800	-0.356853	0.895250	0.720987	-0.690320	-0.060300	0.639527	0.629376	0.441464
39673	8.308033	-1.671037	9.455167	0.737712	3.750659	1.235443	-0.281547	-0.388727	0.877281	0.729003	-0.681139	-0.067856	0.623928	0.620436	0.475156
39674	9.106373	-1.519475	9.393168	0.810289	3.929124	1.236257	-0.296691	-0.421286	0.857025	0.737532	-0.671178	-0.074605	0.606647	0.609949	0.509845
39675	10.233965	-1.472255	9.078284	0.728328	4.095719	1.326690	-0.311345	-0.454803	0.834397	0.745888	-0.661008	-0.081975	0.588825	0.596845	0.545033
39676	11.001435	-2.600695	7.705562	0.660567	4.093183	1.446775	-0.324262	-0.488440	0.810111	0.754287	-0.650322	-0.090181	0.570881	0.581814	0.579299
39677	7.453472	-3.022452	7.557938	0.965325	4.076252	1.565412	-0.335233	-0.521906	0.784368	0.764829	-0.636903	-0.096903	0.550141	0.567422	0.612680
39678	9.083356	-1.838191	8.173009	1.175595	3.852803	1.481848	-0.344620	-0.552867	0.758666	0.776175	-0.622379	-0.100977	0.528005	0.554060	0.643606
39679	9.828896	-1.196113	9.309238	0.981708	3.834707	1.363928	-0.353825	-0.582181	0.732034	0.785989	-0.609314	-0.104679	0.506980	0.538333	0.673178
39680	10.448873	-0.696665	10.183101	0.794402	3.989452	1.269175	-0.363647	-0.610960	0.703199	0.794460	-0.597573	-0.108348	0.486409	0.519263	0.702689
39681	9.743476	-1.404859	9.635174	0.412653	4.052452	1.116251	-0.374104	-0.638130	0.672931	0.800518	-0.588545	-0.113074	0.468206	0.496392	0.731011
39682	9.680088	-1.035033	9.783819	0.257161	4.098620	0.925344	-0.385540	-0.663392	0.641304	0.805187	-0.581311	-0.117269	0.450592	0.471157	0.758273
39683	9.905891	-0.302367	10.051373	0.013586	4.155204	0.716300	-0.398163	-0.686506	0.608421	0.808025	-0.576453	-0.121648	0.434238	0.443183	0.784236
39684	10.211906	0.557190	10.492080	-0.334962	4.235595	0.463639	-0.412538	-0.707296	0.574060	0.808447	-0.574685	-0.127089	0.419793	0.411668	0.808890
39685	10.645712	1.164432	10.715360	-0.749185	4.335798	0.165452	-0.429160	-0.725303	0.538292	0.806013	-0.576491	-0.134168	0.407633	0.376291	0.832010
39686	10.688367	0.992317	10.516536	-1.201373	4.415920	-0.126290	-0.447996	-0.740330	0.501210	0.800594	-0.581729	-0.143671	0.397932	0.336901	0.853316
39687	10.943908	0.556737	10.032200	-1.515844	4.431273	-0.382194	-0.468513	-0.752065	0.463566	0.792840	-0.589409	-0.154924	0.389743	0.294950	0.872414
39688	11.516650	0.359748	9.452929	-1.744593	4.387921	-0.532910	-0.489689	-0.760891	0.425734	0.783524	-0.598231	-0.167959	0.382486	0.251325	0.889123
39689	11.877228	-0.210473	8.567471	-1.925539	4.273398	-0.557948	-0.510262	-0.767298	0.388441	0.773397	-0.606944	-0.182965	0.376150	0.207059	0.903127
39690	11.933722	-0.630887	6.971354	-1.884826	4.072627	-0.484772	-0.529201	-0.771896	0.352311	0.763823	-0.614194	-0.198343	0.369488	0.164140	0.914624
39691	6.435374	-3.525488	1.978207	-1.739957	2.317535	-0.541131	-0.541898	-0.772001	0.332205	0.754456	-0.621011	-0.212466	0.370327	0.135499	0.918966
39692	17.436126	-1.196007	1.480227	-0.059512	1.914976	-0.634985	-0.553697	-0.770486	0.315866	0.750732	-0.626003	-0.211001	0.360306	0.120300	0.925045
39693	21.683093	1.397130	0.555740	-0.263315	1.571399	-0.177175	-0.560651	-0.771133	0.301703	0.748773	-0.627698	-0.212919	0.353567	0.106534	0.929323
39694	18.145119	-1.706858	-3.923601	-0.234121	1.359671	0.252333	-0.563551	-0.774070	0.288490	0.749339	-0.626006	-0.215887	0.347708	0.094514	0.932827
39695	14.898056	-1.724573	-7.382416	0.480741	0.584751	0.342013	-0.563012	-0.776730	0.282327	0.752889	-0.622933	-0.212397	0.340846	0.092979	0.935510
39696	15.120265	-0.137310	-8.394591	0.727821	-0.385821	0.466360	-0.558203	-0.779235	0.284962	0.757937	-0.618628	-0.206955	0.337552	0.100460	0.935931
39697	16.476354	0.649395	-8.789442	0.634243	-1.301534	0.666942	-0.548736	-0.781918	0.295792	0.763745	-0.612771	-0.202988	0.339973	0.114523	0.933436
39698	16.613026	0.822065	-9.050808	0.547976	-2.169928	0.720613	-0.535774	-0.783584	0.314551	0.769498	-0.606481	-0.200133	0.347590	0.134821	0.927903
39699	12.838635	1.044514	-4.321322	0.479644	-2.796426	0.587965	-0.521376	-0.782993	0.339248	0.774269	-0.601201	-0.197647	0.358712	0.159621	0.919699
39700	2.937533	-1.060681	13.892076	0.420570	-3.035485	0.293782	-0.508039	-0.779485	0.366469	0.777275	-0.598219	-0.194879	0.371134	0.185842	0.909793
39701	9.365651	-3.949831	15.363250	0.516108	-2.531880	-0.746189	-0.504340	-0.769984	0.390854	0.775405	-0.603017	-0.187400	0.379986	0.208557	0.901174
39702	8.545284	0.295156	11.393357	1.801764	-2.233446	-1.024926	-0.503857	-0.758785	0.412762	0.777019	-0.606883	-0.167135	0.377318	0.236512	0.895373
39703	7.190428	2.734230	10.898297	0.457031	-2.311964	-0.360013	-0.497854	-0.750868	0.433980	0.776928	-0.608508	-0.161557	0.385389	0.256740	0.886318
39704	10.216668	-5.918184	13.807325	-0.995226	-2.624424	-0.289649	-0.489726	-0.742154	0.457575	0.771519	-0.613335	-0.169056	0.406112	0.270237	0.872952
39705	20.715433	-7.252921	8.900155	1.786383	-1.848556	-1.285856	-0.492205	-0.728987	0.475724	0.772387	-0.617782	-0.147527	0.401439	0.294829	0.867135
39706	5.857276	5.138678	10.968277	2.798278	-0.690624	-0.682215	-0.494806	-0.722638	0.482662	0.779956	-0.614218	-0.120022	0.383192	0.317067	0.867544
39707	8.395533	4.766946	12.953940	-0.203909	-1.542195	-0.367620	-0.491704	-0.715378	0.496449	0.777321	-0.617554	-0.119999	0.392429	0.326897	0.859732
39708	10.936528	-0.149063	9.328760	-0.099104	-0.744082	-0.184297	-0.490212	-0.711755	0.503088	0.775985	-0.619239	-0.119957	0.396912	0.331584	0.855870
39709	5.986358	-0.240229	9.562500	0.331703	-0.511443	-0.107228	-0.489031	-0.709350	0.507613	0.776745	-0.618929	-0.116594	0.396882	0.337268	0.853660
39710	6.259066	-1.586347	8.956275	-0.013791	-0.516015	-0.068022	-0.487518	-0.707144	0.512127	0.776319	-0.619502	-0.116392	0.399569	0.340830	0.850987
39711	6.578073	-0.752351	9.188644	0.309955	-0.410501	-0.040097	-0.486206	-0.705456	0.515689	0.777330	-0.618758	-0.113565	0.399202	0.345644	0.849216
39712	6.137802	-1.068792	9.040904	0.030768	-0.309471	-0.025858	-0.485182	-0.704187	0.518381	0.777288	-0.618878	-0.113198	0.400527	0.348010	0.847625
39713	5.711508	-1.719581	8.581904	0.076688	-0.266803	-0.013925	-0.484237	-0.703139	0.520683	0.777496	-0.618745	-0.112489	0.401265	0.350357	0.846307
39714	5.674107	-1.294632	8.734471	0.131003	-0.233967	-0.011097	-0.483397	-0.702211	0.522711	0.777929	-0.618407	-0.111350	0.401440	0.352805	0.845207
39715	5.373247	-1.401063	8.617815	0.060260	-0.206486	-0.010208	-0.482663	-0.701387	0.524493	0.778090	-0.618303	-0.110801	0.402010	0.354623	0.844175
39716	5.226528	-1.589229	8.508505	0.078575	-0.221043	-0.019975	-0.481942	-0.700441	0.526416	0.778270	-0.618209	-0.110060	0.402526	0.356652	0.843073
39717	5.468518	-1.287560	8.616885	0.114945	-0.234812	-0.020304	-0.481170	-0.699445	0.528443	0.778604	-0.617977	-0.108998	0.402804	0.359001	0.841943
39718	5.354449	-1.311065	8.550632	0.075207	-0.222317	-0.020012	-0.480442	-0.698484	0.530372	0.778771	-0.617891	-0.108287	0.403349	0.361013	0.840821
39719	5.180752	-1.497480	8.488883	0.090382	-0.245286	-0.026659	-0.479676	-0.697400	0.532488	0.778977	-0.617787	-0.107398	0.403864	0.363279	0.839596
39720	5.474297	-1.307066	8.497357	0.122015	-0.256764	-0.027862	-0.478868	-0.696256	0.534709	0.779297	-0.617582	-0.106253	0.404206	0.365815	0.838330
39721	5.397926	-1.284389	8.502428	0.113926	-0.255548	-0.028582	-0.478073	-0.695110	0.536906	0.779589	-0.617400	-0.105158	0.404582	0.368292	0.837063
39722	5.606917	-1.154696	8.673309	0.125517	-0.279956	-0.029613	-0.477183	-0.693856	0.539315	0.779916	-0.617187	-0.103977	0.405003	0.371004	0.835661
39723	7.116958	-0.836582	8.709029	0.127164	-0.160961	0.006780	-0.476494	-0.693268	0.540678	0.780432	-0.616704	-0.102964	0.404820	0.372901	0.834905
39724	4.848726	-1.278527	8.585253	0.016678	-0.178432	0.000609	-0.475778	-0.692569	0.542203	0.780463	-0.616683	-0.102855	0.405602	0.374233	0.833929
39725	6.409838	-0.932681	8.661823	0.143499	-0.192324	0.022551	-0.474838	-0.691955	0.543808	0.781121	-0.616026	-0.101793	0.405437	0.376445	0.833013
39726	5.671580	-0.661305	8.731922	0.062174	-0.073364	0.048437	-0.474174	-0.691939	0.544407	0.781563	-0.615502	-0.101566	0.405362	0.377328	0.832649
39727	5.780399	-1.341661	8.419784	-0.019579	-0.121886	0.054764	-0.473267	-0.691785	0.545391	0.781712	-0.615235	-0.102040	0.406134	0.378047	0.831947
39728	5.667943	-1.031893	8.576872	0.102820	-0.106626	0.055058	-0.472415	-0.691683	0.546259	0.782350	-0.614511	-0.101512	0.405896	0.379410	0.831442
39729	5.756645	-1.195916	8.583325	0.001303	-0.104881	0.048592	-0.471625	-0.691552	0.547107	0.782554	-0.614207	-0.101779	0.406423	0.380139	0.830852
39730	5.716005	-1.400996	8.478406	0.026217	-0.099815	0.046623	-0.470866	-0.691421	0.547926	0.782841	-0.613831	-0.101844	0.406750	0.380984	0.830304
39731	5.735136	-1.241467	8.502125	0.044264	-0.083462	0.038403	-0.470241	-0.691307	0.548605	0.783170	-0.613434	-0.101699	0.406838	0.381828	0.829874
39732	5.711263	-1.254822	8.505857	0.022430	-0.081860	0.033359	-0.469658	-0.691162	0.549287	0.783379	-0.613164	-0.101723	0.407110	0.382525	0.829419
39733	5.701498	-1.211250	8.516336	0.020546	-0.080433	0.030898	-0.469105	-0.691012	0.549948	0.783576	-0.612910	-0.101734	0.407368	0.383203	0.828980
39734	5.719241	-1.303279	8.470397	-0.006814	-0.074912	0.027602	-0.468594	-0.690857	0.550578	0.783639	-0.612791	-0.101970	0.407836	0.383672	0.828532
39735	5.691372	-1.249626	8.508497	0.008582	-0.072357	0.023890	-0.468128	-0.690694	0.551178	0.783754	-0.612631	-0.102042	0.408149	0.384220	0.828124
39736	5.680719	-1.291228	8.445952	0.000385	-0.068789	0.018045	-0.467716	-0.690503	0.551767	0.783801	-0.612551	-0.102166	0.408531	0.384690	0.827717
39737	5.777513	-1.249274	8.417679	0.011833	-0.065308	0.011268	-0.467377	-0.690290	0.552321	0.783871	-0.612465	-0.102142	0.408785	0.385209	0.827350
39738	5.729361	-1.165446	8.432118	0.011705	-0.061599	0.009707	-0.467060	-0.690075	0.552858	0.783924	-0.612399	-0.102127	0.409045	0.385699	0.826994
39739	5.766872	-1.167799	8.472536	0.007806	-0.054976	0.003257	-0.466825	-0.689851	0.553335	0.783940	-0.612385	-0.102092	0.409282	0.386122	0.826679
39740	5.726030	-1.190412	8.406396	-0.002205	-0.059373	-0.000072	-0.466594	-0.689584	0.553863	0.783891	-0.612440	-0.102138	0.409640	0.386511	0.826320
39741	5.767347	-1.096262	8.409143	0.017809	-0.052241	0.002808	-0.466373	-0.689368	0.554317	0.783946	-0.612389	-0.102018	0.409785	0.386976	0.826030
39742	5.710999	-1.124054	8.422656	-0.006453	-0.055094	0.000914	-0.466151	-0.689124	0.554808	0.783884	-0.612454	-0.102104	0.410157	0.387309	0.825689
39743	5.693424	-1.160101	8.420219	0.001604	-0.058238	-0.002344	-0.465946	-0.688852	0.555317	0.783849	-0.612502	-0.102089	0.410457	0.387716	0.825349
39744	5.664146	-1.136786	8.471586	0.004344	-0.072273	-0.001120	-0.465669	-0.688528	0.555952	0.783822	-0.612539	-0.102075	0.410824	0.388234	0.824923
39745	5.684390	-1.163275	8.400413	-0.000017	-0.082687	-0.000874	-0.465352	-0.688170	0.556660	0.783786	-0.612583	-0.102082	0.411250	0.388798	0.824445
39746	5.710000	-1.223835	8.432525	-0.006529	-0.084194	-0.006176	-0.465064	-0.687767	0.557397	0.783691	-0.612697	-0.102130	0.411757	0.389330	0.823940
39747	5.688313	-1.205450	8.423319	0.004191	-0.090305	-0.009413	-0.464781	-0.687326	0.558176	0.783633	-0.612784	-0.102054	0.412185	0.389973	0.823422
39748	5.708454	-1.210638	8.449668	0.010099	-0.102993	-0.017431	-0.464503	-0.686781	0.559079	0.783554	-0.612910	-0.101902	0.412649	0.390735	0.822829
39749	5.700912	-1.249789	8.385150	0.003350	-0.113864	-0.021270	-0.464216	-0.686173	0.560062	0.783438	-0.613081	-0.101766	0.413193	0.391533	0.822176
39750	5.706701	-1.211205	8.425376	0.001259	-0.116076	-0.025650	-0.463947	-0.685524	0.561080	0.783284	-0.613298	-0.101641	0.413786	0.392329	0.821498
39751	5.742679	-1.242558	8.383207	0.002226	-0.130004	-0.036252	-0.463708	-0.684760	0.562209	0.783094	-0.613576	-0.101430	0.414413	0.393229	0.820751
39752	5.718122	-1.168240	8.366546	0.002497	-0.133446	-0.040322	-0.463480	-0.683950	0.563382	0.782878	-0.613888	-0.101211	0.415077	0.394150	0.819974
39753	5.826741	-1.209587	8.350580	-0.005966	-0.139275	-0.044667	-0.463267	-0.683094	0.564594	0.782615	-0.614255	-0.101019	0.415810	0.395061	0.819164
39754	5.817882	-1.211150	8.330775	-0.010003	-0.141705	-0.055248	-0.463119	-0.682157	0.565847	0.782277	-0.614718	-0.100817	0.416609	0.395959	0.818323
39755	5.836168	-1.294208	8.340226	-0.001789	-0.137192	-0.063805	-0.463061	-0.681189	0.567058	0.781943	-0.615198	-0.100481	0.417300	0.396879	0.817526
39756	5.873387	-1.323154	8.297046	0.006881	-0.132429	-0.074487	-0.463100	-0.680167	0.568252	0.781587	-0.615724	-0.100031	0.417924	0.397814	0.816752
39757	5.860345	-1.232565	8.410960	0.007846	-0.124626	-0.078375	-0.463207	-0.679157	0.569373	0.781225	-0.616263	-0.099531	0.418481	0.398705	0.816032
39758	5.760112	-1.108327	8.414893	0.003471	-0.131065	-0.085285	-0.463333	-0.678070	0.570564	0.780804	-0.616875	-0.099046	0.419126	0.399608	0.815259
39759	5.814736	-1.127956	8.441965	-0.009837	-0.155047	-0.087613	-0.463382	-0.676878	0.571939	0.780326	-0.617546	-0.098636	0.419963	0.400592	0.814345
39760	5.660209	-1.082557	8.525966	-0.009163	-0.182923	-0.084093	-0.463278	-0.675587	0.573547	0.779857	-0.618197	-0.098258	0.420947	0.401764	0.813258
39761	5.622954	-0.906743	8.665759	-0.017662	-0.246855	-0.078725	-0.462866	-0.674074	0.575655	0.779387	-0.618838	-0.097959	0.422269	0.403316	0.811804
39762	5.570432	-0.942832	8.597236	-0.047646	-0.307809	-0.070861	-0.462124	-0.672354	0.578257	0.778817	-0.619553	-0.097965	0.424128	0.405084	0.809952
39763	5.567150	-0.921421	8.633502	-0.070436	-0.379662	-0.068182	-0.461056	-0.670358	0.581419	0.778172	-0.620335	-0.098150	0.426470	0.407192	0.807662
39764	5.507586	-1.080290	8.635445	-0.108135	-0.461651	-0.064177	-0.459587	-0.668037	0.585240	0.777373	-0.621252	-0.098675	0.429501	0.409600	0.804833
39765	5.444922	-1.183192	8.687430	-0.133661	-0.554498	-0.077967	-0.457817	-0.665241	0.589796	0.776407	-0.622359	-0.099300	0.433123	0.412461	0.801424
39766	5.449282	-1.190118	8.749811	-0.164888	-0.660531	-0.094737	-0.455684	-0.661878	0.595205	0.775216	-0.623717	-0.100084	0.437483	0.415806	0.797317
39767	5.281423	-1.181471	8.946070	-0.216585	-0.780465	-0.114460	-0.453150	-0.657871	0.601549	0.773711	-0.625415	-0.101130	0.442748	0.419598	0.792409
39768	5.311955	-1.098826	8.958720	-0.266679	-0.934588	-0.137835	-0.450055	-0.653028	0.609101	0.771859	-0.627489	-0.102428	0.449092	0.424042	0.786451
39769	5.191255	-0.945087	9.112577	-0.330238	-1.114777	-0.164212	-0.446287	-0.647207	0.618022	0.769595	-0.630003	-0.104013	0.456674	0.429207	0.779250
39770	5.009152	-0.788443	9.437746	-0.415882	-1.341379	-0.166946	-0.441388	-0.640319	0.628623	0.766895	-0.632921	-0.106221	0.465884	0.435204	0.770422
39771	5.001806	-0.814192	9.688174	-0.506236	-1.604793	-0.178154	-0.435201	-0.632115	0.641117	0.763696	-0.636313	-0.108969	0.476832	0.442195	0.759668
39772	4.868449	-0.957120	9.845305	-0.589509	-1.880701	-0.214347	-0.427753	-0.622320	0.655550	0.759882	-0.640332	-0.112043	0.489497	0.450214	0.746793
39773	4.925690	-1.283785	9.688013	-0.629674	-2.171450	-0.290362	-0.419184	-0.610542	0.671955	0.755493	-0.645025	-0.114775	0.503503	0.459546	0.731644
39774	5.220822	-1.426156	9.214718	-0.607246	-2.419811	-0.397497	-0.409821	-0.596684	0.689939	0.750703	-0.650291	-0.116480	0.518163	0.470203	0.714435
39775	5.466873	-1.132927	8.508276	-0.512411	-2.627182	-0.515179	-0.399883	-0.580771	0.709083	0.745891	-0.655802	-0.116491	0.532673	0.482316	0.695436
39776	5.926986	-0.997777	8.138892	-0.510251	-2.846745	-0.613302	-0.389067	-0.562783	0.729317	0.740674	-0.661846	-0.115593	0.547749	0.495213	0.674341
39777	6.257630	-1.550013	7.918323	-0.533098	-3.083859	-0.720722	-0.377258	-0.542471	0.750601	0.734916	-0.668543	-0.113791	0.563537	0.508700	0.650884
39778	6.874724	-2.149487	7.669892	-0.456827	-3.331703	-0.832899	-0.364319	-0.519649	0.772811	0.729176	-0.675366	-0.110376	0.579287	0.523304	0.624964
39779	6.978541	-2.236808	7.277590	-0.291125	-3.525096	-0.935329	-0.350443	-0.494535	0.795377	0.724091	-0.681693	-0.104816	0.594038	0.539194	0.596983
39780	7.716665	-2.311065	7.282597	-0.282384	-3.732618	-1.048771	-0.335556	-0.466892	0.818177	0.718754	-0.688322	-0.098010	0.608929	0.555180	0.566551
39781	10.000824	-2.796152	7.806304	-0.289432	-3.884538	-1.099805	-0.319495	-0.437374	0.840611	0.713333	-0.694961	-0.090472	0.623761	0.570730	0.534030
39782	11.746250	-2.924444	8.686574	-0.175501	-3.827221	-1.087328	-0.303097	-0.407625	0.861379	0.708801	-0.700611	-0.082137	0.636972	0.585651	0.501278
39783	12.486063	-2.147198	9.044568	-0.267827	-3.732529	-0.989219	-0.286074	-0.378526	0.880273	0.704129	-0.706121	-0.074808	0.649895	0.598425	0.468534
39784	12.063893	-2.618411	7.811576	-0.506830	-3.684799	-0.960032	-0.268598	-0.349453	0.897629	0.698096	-0.712713	-0.068572	0.663715	0.608213	0.435384
39785	13.209466	-2.095073	8.149750	-0.537100	-3.585842	-0.925865	-0.251003	-0.320824	0.913274	0.692056	-0.719139	-0.062423	0.676798	0.616369	0.402534
39786	11.684888	-1.869923	8.087353	-0.771264	-3.387929	-0.889910	-0.233962	-0.293399	0.926919	0.684585	-0.726684	-0.057224	0.690366	0.621166	0.370873
39787	10.810571	-1.277335	7.883723	-0.964766	-3.256804	-0.858670	-0.217095	-0.266815	0.938978	0.675886	-0.735125	-0.052622	0.704307	0.623218	0.339928
39788	9.409211	-1.185694	7.230239	-1.330229	-3.104162	-0.868663	-0.200807	-0.241044	0.949513	0.664558	-0.745645	-0.048747	0.719749	0.621218	0.309918
39789	7.346096	-1.707191	6.255201	-1.521253	-2.989179	-0.978820	-0.185499	-0.215143	0.958803	0.651563	-0.757324	-0.043877	0.735565	0.616582	0.280662
39790	6.419520	-1.780574	5.263817	-1.471516	-2.879220	-1.140552	-0.171459	-0.188746	0.966942	0.638555	-0.768695	-0.036819	0.750233	0.611133	0.252324
39791	4.882516	-1.717256	4.371213	-1.418320	-2.595240	-1.295363	-0.160005	-0.162896	0.973583	0.625638	-0.779624	-0.027622	0.763528	0.604691	0.226657
39792	4.116592	-1.857784	6.159823	-1.257732	-2.111939	-1.348991	-0.152116	-0.139598	0.978455	0.613820	-0.789259	-0.017178	0.774652	0.597982	0.205747
39793	11.053507	-1.836834	11.035558	-1.182318	-1.288405	-1.117404	-0.148874	-0.123033	0.981173	0.602891	-0.797778	-0.008559	0.783811	0.590265	0.192943
39794	17.697835	-6.445916	14.089991	-1.363808	0.557566	-0.587718	-0.156771	-0.121569	0.980124	0.591213	-0.806497	-0.005469	0.791132	0.578605	0.198309
39795	3.711109	-8.054090	9.196168	-0.406555	1.606628	-0.313556	-0.171327	-0.128247	0.976832	0.587448	-0.809255	-0.003213	0.790918	0.573287	0.213986
39796	-2.068687	-6.269463	6.020609	0.592991	1.669199	-0.232212	-0.185846	-0.135967	0.973126	0.591664	-0.806184	0.000353	0.784471	0.575830	0.230273
39797	-2.903116	-2.601454	5.848599	1.271202	1.142909	-0.008134	-0.194804	-0.142489	0.970437	0.601524	-0.798847	0.003455	0.774739	0.584414	0.241329
39798	0.903655	0.089735	7.854436	1.193738	0.873675	0.339417	-0.199481	-0.150343	0.968300	0.611348	-0.791356	0.003075	0.765807	0.592582	0.249772
39799	3.855463	0.369778	9.256483	0.516179	1.024026	0.819464	-0.202264	-0.162848	0.965696	0.616899	-0.787035	-0.003511	0.760608	0.595027	0.259650
39800	4.622758	-1.695249	9.162711	0.271803	1.405710	1.138577	-0.205889	-0.180170	0.961846	0.621246	-0.783495	-0.013781	0.756084	0.594706	0.273243
39801	4.425465	-2.411275	8.951131	0.496656	1.760700	1.251981	-0.211326	-0.200380	0.956655	0.627561	-0.778186	-0.024369	0.749339	0.595210	0.290202
39802	4.262030	-1.726037	8.829461	0.783445	2.030958	1.215340	-0.218791	-0.221927	0.950199	0.635973	-0.770978	-0.033630	0.740046	0.596943	0.309823
39803	4.675268	-0.469398	9.031996	0.897417	2.262854	1.157200	-0.228006	-0.244288	0.942516	0.645117	-0.762946	-0.041684	0.729272	0.598529	0.331551
39804	5.563955	0.169487	9.405563	0.823211	2.516097	1.107993	-0.239045	-0.267788	0.933353	0.653628	-0.755211	-0.049274	0.718073	0.598286	0.355563
39805	6.378201	-0.149594	9.623232	0.672206	2.798118	1.078354	-0.251897	-0.292556	0.922474	0.661030	-0.748208	-0.056784	0.706815	0.595479	0.381859
39806	6.890246	-0.953527	9.553867	0.592417	3.061808	1.066569	-0.266302	-0.318694	0.909680	0.667913	-0.741462	-0.064235	0.694964	0.590482	0.410313
39807	9.312709	-1.459454	7.935708	0.670936	3.139556	1.062313	-0.280787	-0.344945	0.895640	0.675404	-0.734026	-0.070960	0.681900	0.584995	0.439082
39808	16.278002	-1.516531	13.632467	0.652024	3.868903	0.945889	-0.300481	-0.374352	0.877253	0.682518	-0.726865	-0.076397	0.666243	0.575785	0.473911
39809	0.871882	-1.962319	4.875197	0.879156	4.069319	0.900993	-0.321034	-0.404064	0.856545	0.691060	-0.718371	-0.079872	0.647590	0.566282	0.509854
39810	10.051436	-0.817463	7.965604	1.019674	3.309682	0.828758	-0.336444	-0.428656	0.838487	0.700267	-0.709205	-0.081581	0.629629	0.559717	0.538781
39811	9.485812	-0.922012	8.093246	0.650465	3.574763	1.075121	-0.351090	-0.456008	0.817798	0.707970	-0.700879	-0.086874	0.612793	0.548475	0.568911
39812	6.274340	-2.927235	6.567342	0.575485	3.387901	1.406548	-0.361599	-0.484218	0.796730	0.716433	-0.691170	-0.094908	0.596632	0.536486	0.596836
39813	8.211358	-4.116156	7.398657	0.848870	2.961905	1.557222	-0.367790	-0.510609	0.777180	0.727072	-0.678943	-0.101990	0.579738	0.527555	0.620959
39814	9.555292	-2.781191	8.897058	1.216840	2.976234	1.576660	-0.373222	-0.536830	0.756650	0.739820	-0.664336	-0.106414	0.559796	0.520068	0.645102
39815	10.394120	-1.736766	10.067033	1.109520	3.207945	1.540749	-0.379376	-0.563440	0.733900	0.751684	-0.650184	-0.110599	0.539486	0.509702	0.670193
39816	9.739454	-1.492072	9.779463	1.008693	3.401973	1.394907	-0.386857	-0.589574	0.709045	0.762340	-0.637091	-0.113810	0.518826	0.496505	0.695919
39817	9.058682	-0.599597	9.616651	0.851545	3.558691	1.198833	-0.395777	-0.614495	0.682463	0.771331	-0.625752	-0.116118	0.498406	0.480448	0.721638
39818	9.072141	-0.283215	9.519866	0.543182	3.639462	0.981466	-0.406011	-0.637761	0.654535	0.777896	-0.617074	-0.118728	0.479617	0.460955	0.746651
39819	8.981148	-0.244560	9.380218	0.250061	3.724903	0.774744	-0.417527	-0.659237	0.625362	0.782233	-0.610964	-0.121795	0.462366	0.438327	0.770771
39820	8.810475	-0.095715	9.362657	0.022224	3.793783	0.550396	-0.430486	-0.678769	0.594941	0.784643	-0.607211	-0.125017	0.446113	0.412998	0.793987
39821	8.791726	0.163107	9.473096	-0.250390	3.863140	0.297047	-0.445118	-0.695954	0.563487	0.784814	-0.606207	-0.128764	0.431203	0.384918	0.816028
39822	8.991975	0.476063	9.501236	-0.539854	3.910778	0.029180	-0.461526	-0.710605	0.531068	0.782631	-0.608019	-0.133424	0.417711	0.354052	0.836758
39823	9.403121	0.653661	9.455003	-0.879693	3.957134	-0.240505	-0.479719	-0.722452	0.497929	0.777844	-0.612746	-0.139646	0.405992	0.320320	0.855901
39824	9.792063	0.238815	9.072688	-1.221503	3.986162	-0.476668	-0.499427	-0.731571	0.464087	0.770587	-0.619922	-0.147956	0.395938	0.283726	0.873345
39825	10.286230	-0.229659	8.663783	-1.489944	3.977879	-0.625890	-0.519816	-0.738156	0.430020	0.761531	-0.628498	-0.158305	0.387121	0.245184	0.888832
39826	10.791568	-0.935926	7.924574	-1.707096	3.918873	-0.667357	-0.539913	-0.742769	0.395966	0.751428	-0.637303	-0.170882	0.379276	0.205278	0.902225
39827	6.050785	-1.482703	8.562218	-1.801902	3.680491	-0.585851	-0.558140	-0.745824	0.363629	0.741404	-0.645045	-0.185034	0.372560	0.166322	0.912982
39828	10.930506	-4.240725	-5.459976	-1.631581	1.341369	-0.548307	-0.567233	-0.744366	0.352374	0.732178	-0.651690	-0.198028	0.377044	0.145672	0.914668
39829	15.806690	-1.815522	1.915135	-0.150040	1.212318	-0.416039	-0.574824	-0.743327	0.342116	0.729208	-0.655026	-0.197981	0.371259	0.135670	0.918564
39830	21.398971	1.079408	0.435130	-0.437940	0.929195	-0.148366	-0.579366	-0.743565	0.333835	0.726701	-0.656719	-0.201559	0.369108	0.125821	0.920830
39831	18.416661	-1.471930	-4.126175	-0.434704	0.693193	0.193718	-0.580530	-0.745655	0.327083	0.726188	-0.655836	-0.206228	0.368288	0.117802	0.922218
39832	15.641389	-1.956818	-7.352051	0.109971	0.035116	0.188356	-0.579309	-0.746919	0.326363	0.727650	-0.654323	-0.205881	0.367323	0.118210	0.922551
39833	14.965067	-1.072632	-8.483600	0.446670	-0.838369	0.237816	-0.574504	-0.747417	0.333636	0.730633	-0.652028	-0.202572	0.368945	0.127387	0.920680
39834	15.274822	-0.970522	-7.928801	0.395107	-1.688081	0.436858	-0.565035	-0.747960	0.348268	0.734553	-0.648257	-0.200487	0.375724	0.142540	0.915704
39835	15.495959	-2.676174	-7.730967	0.433554	-2.464478	0.537996	-0.551695	-0.747635	0.369696	0.739176	-0.643601	-0.198486	0.386332	0.163766	0.907705
39836	3.727850	-1.399925	6.172338	0.996318	-2.810584	0.328949	-0.538295	-0.744732	0.394478	0.744811	-0.639416	-0.190797	0.394328	0.191107	0.898879
39837	11.102137	0.507680	17.038111	0.996332	-3.011395	-0.393695	-0.529239	-0.735998	0.422152	0.746649	-0.640317	-0.180304	0.403015	0.219776	0.888413
39838	7.876677	1.198430	12.489615	0.937205	-2.310186	-0.747320	-0.525458	-0.725831	0.443919	0.746464	-0.643652	-0.168830	0.408271	0.242657	0.880018
39839	11.948328	-4.319483	13.736908	0.061067	-2.815422	-0.936163	-0.520742	-0.712622	0.470104	0.741787	-0.650265	-0.164034	0.422586	0.263298	0.867234
39840	22.479790	-2.214942	10.693712	1.970742	-1.621921	-1.057436	-0.521804	-0.701236	0.485787	0.744498	-0.652353	-0.141980	0.416466	0.287582	0.862469
39841	6.822806	3.711614	10.758621	1.425298	-0.761148	-0.594060	-0.523104	-0.695086	0.493171	0.747250	-0.652332	-0.126807	0.409853	0.302188	0.860641
39842	8.104780	2.649038	11.339554	0.182957	-1.048313	-0.386229	-0.521675	-0.689314	0.502694	0.745941	-0.654489	-0.123354	0.414038	0.310629	0.855618
39843	8.131777	0.480068	9.500464	0.301819	-0.731212	-0.220939	-0.520304	-0.685540	0.509234	0.746009	-0.655095	-0.119673	0.415637	0.317626	0.852267
39844	7.270197	-0.102022	9.647080	0.178110	-0.587364	-0.141601	-0.518919	-0.682692	0.514445	0.745971	-0.655536	-0.117468	0.417432	0.322805	0.849439
39845	6.672435	-1.162490	9.028934	0.074597	-0.442549	-0.083846	-0.517707	-0.680675	0.518324	0.745816	-0.655901	-0.116416	0.419211	0.326305	0.847223
39846	6.282509	-1.081314	9.008362	0.185580	-0.362509	-0.045162	-0.516528	-0.679150	0.521492	0.746317	-0.655643	-0.114645	0.419773	0.329981	0.845519
39847	6.192539	-1.012065	8.929515	0.093833	-0.287879	-0.022829	-0.515503	-0.678016	0.523977	0.746560	-0.655522	-0.113746	0.420600	0.332544	0.844103
39848	5.666938	-1.151446	8.671566	0.080130	-0.227140	-0.011635	-0.514638	-0.677142	0.525954	0.746794	-0.655378	-0.113042	0.421244	0.334603	0.842968
39849	5.226572	-1.429109	8.506266	0.039928	-0.237674	-0.010825	-0.513731	-0.676242	0.527994	0.746874	-0.655352	-0.112662	0.422209	0.336467	0.841742
39850	5.298433	-1.695075	8.453056	0.072881	-0.238495	-0.017400	-0.512856	-0.675283	0.530068	0.747049	-0.655268	-0.111990	0.422961	0.338552	0.840528
39851	5.107261	-1.776215	8.437314	0.101655	-0.243573	-0.036455	-0.512112	-0.674185	0.532180	0.747259	-0.655204	-0.110955	0.423491	0.340855	0.839329
39852	5.280109	-1.686194	8.392361	0.144933	-0.270528	-0.045175	-0.511307	-0.672923	0.534546	0.747599	-0.655056	-0.109533	0.423865	0.343621	0.838011
39853	5.577791	-1.294197	8.519325	0.182945	-0.269803	-0.054866	-0.510588	-0.671601	0.536891	0.748061	-0.654830	-0.107720	0.423917	0.346627	0.836746
39854	5.644534	-1.220985	8.559854	0.169787	-0.261294	-0.054116	-0.509888	-0.670297	0.539181	0.748461	-0.654646	-0.106043	0.424053	0.349486	0.835487
39855	7.269642	-0.856993	8.939591	0.184437	-0.263768	-0.033736	-0.509036	-0.669119	0.541444	0.749038	-0.654260	-0.104333	0.424057	0.352453	0.834238
39856	5.041587	-1.036807	8.443696	0.069763	-0.040148	-0.023476	-0.509044	-0.668783	0.541851	0.749171	-0.654216	-0.103658	0.423813	0.353173	0.834058
39857	6.183699	-1.171835	8.624500	0.120490	-0.178485	-0.002245	-0.508319	-0.668105	0.543367	0.749637	-0.653840	-0.102654	0.423859	0.355147	0.833195
39858	5.852499	-0.579302	8.696929	0.139186	-0.062024	0.020189	-0.507907	-0.667975	0.543911	0.750286	-0.653254	-0.101638	0.423204	0.356466	0.832965
39859	5.727628	-1.162428	8.538228	0.006020	-0.097258	0.031794	-0.507271	-0.667804	0.544714	0.750440	-0.653057	-0.101773	0.423694	0.357148	0.832423
39860	5.619980	-1.206785	8.452353	0.100813	-0.081503	0.029168	-0.506710	-0.667662	0.545411	0.750971	-0.652545	-0.101127	0.423424	0.358346	0.832046
39861	5.757187	-0.950852	8.530252	0.094747	-0.094659	0.033934	-0.506068	-0.667512	0.546189	0.751511	-0.652015	-0.100536	0.423232	0.359590	0.831607
39862	5.752373	-1.069789	8.541206	0.043476	-0.089848	0.033653	-0.505437	-0.667367	0.546950	0.751822	-0.651678	-0.100392	0.423434	0.360468	0.831124
39863	5.754040	-1.161988	8.481211	0.040991	-0.081431	0.033724	-0.504853	-0.667261	0.547619	0.752133	-0.651341	-0.100248	0.423578	0.361272	0.830701
39864	5.798395	-1.296360	8.509384	0.031433	-0.076890	0.032331	-0.504286	-0.667152	0.548273	0.752387	-0.651057	-0.100198	0.423804	0.361985	0.830275
39865	5.739372	-1.322484	8.429640	0.037688	-0.063459	0.021890	-0.503867	-0.667033	0.548803	0.752624	-0.650810	-0.100017	0.423881	0.362647	0.829947
39866	5.770435	-1.188643	8.482612	0.062966	-0.051859	0.014620	-0.503539	-0.666899	0.549267	0.752921	-0.650529	-0.099608	0.423743	0.363398	0.829689
39867	5.732762	-1.193856	8.456228	0.040004	-0.042343	0.017893	-0.503240	-0.666829	0.549626	0.753148	-0.650300	-0.099387	0.423696	0.363934	0.829478
39868	5.759965	-1.074670	8.470352	0.054249	-0.037859	0.013211	-0.502981	-0.666736	0.549975	0.753401	-0.650059	-0.099044	0.423552	0.364535	0.829288
39869	5.732558	-1.119998	8.488332	0.020258	-0.031383	0.011948	-0.502773	-0.666668	0.550249	0.753514	-0.649942	-0.098953	0.423599	0.364869	0.829117
39870	5.732079	-1.198731	8.471038	0.011232	-0.032234	0.011826	-0.502549	-0.666586	0.550552	0.753578	-0.649867	-0.098959	0.423751	0.365152	0.828914
39871	5.672578	-1.178360	8.421169	0.023763	-0.030054	0.006212	-0.502389	-0.666485	0.550821	0.753677	-0.649775	-0.098808	0.423764	0.365501	0.828754
39872	5.680447	-1.114822	8.486970	0.026001	-0.029136	0.001223	-0.502258	-0.666345	0.551109	0.753750	-0.649716	-0.098634	0.423789	0.365859	0.828583
39873	5.701546	-1.058328	8.434100	0.024733	-0.029556	0.001965	-0.502132	-0.666218	0.551377	0.753832	-0.649649	-0.098452	0.423792	0.366210	0.828426
39874	5.683163	-1.093328	8.432466	0.019217	-0.033114	0.003274	-0.501969	-0.666077	0.551697	0.753887	-0.649602	-0.098345	0.423889	0.366551	0.828226
39875	5.659346	-1.027834	8.453832	0.020084	-0.040276	0.004224	-0.501781	-0.665924	0.552051	0.753961	-0.649536	-0.098214	0.423981	0.366943	0.828006
39876	5.641903	-1.095861	8.463392	0.006740	-0.049516	-0.001073	-0.501580	-0.665695	0.552511	0.753941	-0.649563	-0.098187	0.424253	0.367312	0.827702
39877	5.643730	-1.141964	8.432818	0.015111	-0.061854	0.000597	-0.501327	-0.665439	0.553047	0.753975	-0.649540	-0.098077	0.424491	0.367815	0.827357
39878	5.717619	-1.163798	8.418250	0.011490	-0.062773	-0.002791	-0.501083	-0.665149	0.553617	0.753967	-0.649561	-0.098001	0.424794	0.368303	0.826985
39879	5.693223	-1.145104	8.410580	0.022600	-0.063004	-0.005857	-0.500874	-0.664847	0.554169	0.754001	-0.649553	-0.097793	0.424980	0.368862	0.826639
39880	5.683581	-1.117963	8.474125	0.017456	-0.069941	-0.008627	-0.500643	-0.664492	0.554804	0.753989	-0.649591	-0.097636	0.425274	0.369435	0.826232
39881	5.687095	-1.130851	8.430592	0.014668	-0.076390	-0.007272	-0.500387	-0.664130	0.555467	0.753982	-0.649621	-0.097486	0.425587	0.370032	0.825804
39882	5.732539	-1.135019	8.410790	0.015963	-0.077635	-0.011820	-0.500146	-0.663725	0.556168	0.753948	-0.649685	-0.097324	0.425930	0.370645	0.825352
39883	5.718539	-1.136990	8.394491	0.022035	-0.081181	-0.015704	-0.499933	-0.663290	0.556878	0.753930	-0.649744	-0.097066	0.426211	0.371321	0.824903
39884	5.758579	-1.071598	8.409612	0.023663	-0.084162	-0.020549	-0.499730	-0.662803	0.557640	0.753885	-0.649837	-0.096791	0.426529	0.372027	0.824420
39885	5.775133	-1.089996	8.396986	0.020738	-0.092605	-0.017364	-0.499480	-0.662313	0.558445	0.753854	-0.649912	-0.096535	0.426876	0.372769	0.823905
39886	5.728977	-1.056325	8.474921	0.015420	-0.084890	-0.019278	-0.499263	-0.661830	0.559211	0.753781	-0.650026	-0.096335	0.427259	0.373426	0.823409
39887	5.748599	-1.191758	8.399308	-0.005214	-0.096758	-0.016528	-0.498989	-0.661329	0.560049	0.753643	-0.650192	-0.096297	0.427823	0.374026	0.822844
39888	5.793134	-1.048116	8.428545	0.020501	-0.099945	-0.021344	-0.498722	-0.660775	0.560939	0.753581	-0.650301	-0.096044	0.428242	0.374814	0.822267
39889	5.775439	-1.014403	8.458021	-0.001257	-0.110265	-0.019657	-0.498412	-0.660201	0.561890	0.753445	-0.650472	-0.095955	0.428843	0.375528	0.821628
39890	5.648215	-1.064997	8.511265	-0.010334	-0.120484	-0.018335	-0.498033	-0.659588	0.562945	0.753266	-0.650676	-0.095972	0.429596	0.376250	0.820904
39891	5.698488	-1.168513	8.523794	-0.033676	-0.145454	-0.029362	-0.497643	-0.658817	0.564191	0.752942	-0.651033	-0.096093	0.430615	0.376983	0.820033
39892	5.655540	-1.088652	8.534191	-0.034422	-0.164041	-0.033605	-0.497188	-0.657938	0.565616	0.752584	-0.651429	-0.096221	0.431766	0.377833	0.819036
39893	5.667828	-1.170208	8.508258	-0.074170	-0.186083	-0.054759	-0.496810	-0.656845	0.567217	0.751958	-0.652106	-0.096528	0.433289	0.378567	0.817892
39894	5.632469	-1.077187	8.555453	-0.066722	-0.216719	-0.066599	-0.496369	-0.655548	0.569099	0.751294	-0.652840	-0.096730	0.434942	0.379547	0.816559
39895	5.611652	-1.023793	8.493676	-0.085632	-0.268570	-0.074447	-0.495772	-0.654009	0.571387	0.750518	-0.653690	-0.097015	0.436958	0.380739	0.814926
39896	5.597112	-1.003077	8.591635	-0.089470	-0.318267	-0.074888	-0.494938	-0.652264	0.574097	0.749712	-0.654565	-0.097349	0.439281	0.382226	0.812979
39897	5.317738	-0.761268	8.840413	-0.056008	-0.426200	-0.064678	-0.493559	-0.650174	0.577645	0.749113	-0.655237	-0.097441	0.441848	0.384628	0.810452
39898	5.342411	-0.983777	8.775022	-0.151728	-0.532242	-0.066860	-0.491697	-0.647641	0.582061	0.748067	-0.656300	-0.098315	0.445679	0.387079	0.807180
39899	5.267224	-0.984104	8.872211	-0.149066	-0.649760	-0.072060	-0.489339	-0.644610	0.587389	0.747012	-0.657382	-0.099103	0.450022	0.390291	0.803214
39900	5.060273	-1.162829	9.043166	-0.217925	-0.808080	-0.089004	-0.486343	-0.640815	0.593992	0.745548	-0.658852	-0.100356	0.455663	0.394042	0.798187
39901	4.887720	-1.374350	9.080233	-0.271782	-0.988313	-0.124950	-0.482749	-0.636041	0.602001	0.743661	-0.660764	-0.101778	0.462516	0.398551	0.791982
39902	4.841873	-1.223520	9.356825	-0.327160	-1.200039	-0.177955	-0.478469	-0.630009	0.611684	0.741236	-0.663247	-0.103309	0.470783	0.403972	0.784328
39903	4.667384	-1.070422	9.718673	-0.430106	-1.458244	-0.227155	-0.473222	-0.622528	0.623313	0.738075	-0.666457	-0.105268	0.480943	0.410237	0.774854
39904	4.548922	-1.000397	10.186675	-0.548560	-1.779773	-0.268834	-0.466528	-0.613327	0.637324	0.734096	-0.670431	-0.107822	0.493412	0.417555	0.763015
39905	4.653692	-1.040317	10.120257	-0.614044	-2.118672	-0.323898	-0.458304	-0.602174	0.653716	0.729490	-0.675027	-0.110378	0.507743	0.426292	0.748647
39906	5.008359	-0.777317	9.694878	-0.580746	-2.416640	-0.413323	-0.448851	-0.588909	0.672101	0.724578	-0.680037	-0.111965	0.522991	0.436734	0.731946
39907	5.467777	-0.819464	9.090292	-0.603999	-2.648258	-0.493008	-0.438356	-0.573791	0.691815	0.719149	-0.685611	-0.112971	0.539138	0.447996	0.713183
39908	5.800511	-1.226424	8.262712	-0.575249	-2.808124	-0.611715	-0.427363	-0.556796	0.712277	0.713309	-0.691722	-0.112745	0.555474	0.459891	0.692784
39909	6.024564	-1.435030	7.958613	-0.518343	-2.990871	-0.738722	-0.415761	-0.537679	0.733515	0.707238	-0.698218	-0.110938	0.571802	0.472646	0.670558
39910	6.590196	-2.060585	7.691924	-0.502047	-3.212801	-0.874687	-0.403272	-0.516105	0.755650	0.700699	-0.705273	-0.107752	0.588551	0.486030	0.646051
39911	7.236916	-2.491945	6.802099	-0.325252	-3.373422	-1.001806	-0.390150	-0.492322	0.778076	0.694749	-0.711965	-0.102124	0.604241	0.500724	0.619813
39912	8.050936	-2.058964	6.192101	-0.176996	-3.447504	-1.089880	-0.376602	-0.466969	0.800069	0.689445	-0.718132	-0.094616	0.618738	0.515971	0.592399
39913	8.757380	-1.834658	5.647875	-0.177252	-3.406040	-1.164675	-0.363295	-0.440712	0.820847	0.683990	-0.724381	-0.086195	0.632593	0.530137	0.564606
39914	10.315937	-1.915248	5.910593	-0.141858	-3.332763	-1.167271	-0.349938	-0.414299	0.840178	0.678877	-0.730172	-0.077298	0.645499	0.543328	0.536774
39915	11.321072	-1.802263	6.666450	-0.177259	-3.145879	-1.072214	-0.336700	-0.389129	0.857445	0.674005	-0.735487	-0.069114	0.657533	0.554651	0.509914
39916	11.846488	-1.848516	6.662490	-0.268065	-2.928781	-0.978620	-0.323829	-0.365495	0.872667	0.668951	-0.740716	-0.061996	0.669058	0.563696	0.484364
39917	11.277557	-2.031981	6.453273	-0.362699	-2.766741	-0.928430	-0.311352	-0.342857	0.886290	0.663519	-0.746096	-0.055530	0.680296	0.570781	0.459790
39918	11.231973	-1.736423	6.068918	-0.373648	-2.690717	-0.926919	-0.299009	-0.320444	0.898838	0.658085	-0.751351	-0.048943	0.691027	0.576877	0.435540
39919	11.529017	-1.433050	6.296094	-0.509354	-2.532190	-0.910308	-0.287340	-0.298877	0.910005	0.651833	-0.757151	-0.042854	0.701819	0.580857	0.412378
39920	10.689358	-1.165697	6.122742	-0.592593	-2.393613	-0.897698	-0.276215	-0.278090	0.919985	0.645069	-0.763226	-0.037031	0.712454	0.583225	0.390201
39921	10.370720	-1.064636	6.120348	-0.786582	-2.289408	-0.880835	-0.265423	-0.257940	0.928987	0.636999	-0.770206	-0.031855	0.723728	0.583309	0.368738
39922	9.565256	-1.035732	5.816753	-0.924024	-2.192751	-0.904754	-0.255127	-0.238137	0.937124	0.627860	-0.777867	-0.026736	0.735325	0.581561	0.347971
39923	8.665820	-0.974856	5.342334	-1.024392	-2.110136	-0.955723	-0.245441	-0.218382	0.944493	0.617839	-0.786019	-0.021185	0.747017	0.578345	0.327847
39924	7.509923	-1.116205	4.672313	-1.017941	-2.043734	-1.038496	-0.236402	-0.198371	0.951190	0.607633	-0.794084	-0.014590	0.758220	0.574525	0.308259
39925	7.411043	-0.877590	4.506793	-0.925805	-2.008510	-1.112550	-0.227776	-0.177948	0.957315	0.597947	-0.801508	-0.006716	0.768491	0.570894	0.288968
39926	7.641032	-0.669924	4.010006	-0.861158	-1.862386	-1.117425	-0.219985	-0.158335	0.962568	0.588744	-0.808318	0.001590	0.777809	0.567056	0.271037
39927	6.509978	-0.945881	5.197068	-0.772693	-1.598748	-0.982247	-0.213228	-0.141288	0.966732	0.580539	-0.814182	0.009054	0.785817	0.563156	0.255630
39928	6.511364	-3.941515	9.426289	-0.892610	-1.079106	-0.407773	-0.207039	-0.131893	0.969401	0.572593	-0.819769	0.010756	0.793267	0.557299	0.245245
39929	14.171241	-9.034492	10.242960	-0.482767	-0.442577	0.484537	-0.200751	-0.133368	0.970522	0.569706	-0.821834	0.004907	0.796953	0.553897	0.240964
39930	6.047052	-7.803438	9.361948	0.793061	0.570178	0.802174	-0.200660	-0.143110	0.969152	0.577572	-0.816339	-0.000960	0.791294	0.559562	0.246462
39931	1.623675	-4.711149	7.617852	1.361211	0.552497	0.950501	-0.199456	-0.153903	0.967745	0.590147	-0.807267	-0.006750	0.782268	0.569766	0.251840
39932	0.453154	-0.881658	7.465050	1.925165	0.427688	0.927025	-0.197215	-0.163808	0.966578	0.606887	-0.794714	-0.010856	0.769932	0.584462	0.256142
39933	3.102471	2.867654	9.640749	1.603697	0.408216	0.848683	-0.195127	-0.172874	0.965422	0.620779	-0.783844	-0.014890	0.759315	0.596409	0.260266
39934	4.901319	3.370864	10.468482	0.593040	0.660487	0.891795	-0.194562	-0.183809	0.963514	0.626967	-0.778736	-0.021956	0.754359	0.599820	0.266755
39935	5.171014	1.617420	10.345038	0.155706	1.039520	0.793616	-0.197403	-0.196169	0.960495	0.629660	-0.776324	-0.029145	0.751372	0.599032	0.276768
39936	4.997381	0.238965	10.146170	-0.068150	1.388809	0.589917	-0.204118	-0.209065	0.956362	0.630298	-0.775563	-0.035016	0.749040	0.595645	0.290080
39937	5.215941	-0.843518	9.834628	-0.012400	1.662419	0.375553	-0.214176	-0.221806	0.951279	0.630956	-0.774857	-0.038613	0.745670	0.591945	0.305905
39938	5.639122	-1.028565	10.021221	0.091148	1.912700	0.259206	-0.226778	-0.235130	0.945138	0.632171	-0.773753	-0.040809	0.740899	0.588234	0.324113
39939	6.230352	-1.405598	9.990927	0.083445	2.136960	0.267191	-0.240864	-0.249676	0.937895	0.633377	-0.772647	-0.043026	0.735404	0.583677	0.344242
39940	6.464996	-2.056815	9.819317	0.083215	2.332254	0.374166	-0.255599	-0.266153	0.929425	0.634882	-0.771223	-0.046252	0.729104	0.578254	0.366100
39941	6.453547	-2.719466	9.548270	0.150463	2.487140	0.543995	-0.270183	-0.284613	0.919781	0.637368	-0.768890	-0.050696	0.721639	0.572542	0.389144
39942	6.587649	-3.297084	9.235771	0.297267	2.576171	0.725239	-0.284056	-0.304903	0.909036	0.641478	-0.765082	-0.056169	0.712613	0.567172	0.412914
39943	13.565447	-2.547589	10.798222	0.437912	2.480569	0.872215	-0.295993	-0.325526	0.898009	0.647071	-0.759890	-0.062177	0.702629	0.562672	0.435561
39944	5.488510	-2.987895	7.728775	0.544888	3.453461	0.947541	-0.313893	-0.352051	0.881777	0.653721	-0.753657	-0.068189	0.688564	0.555032	0.466711
39945	6.046993	-2.745773	6.919886	0.916329	2.788225	0.958848	-0.326576	-0.374628	0.867757	0.662997	-0.745135	-0.072174	0.673634	0.551750	0.491720
39946	9.003202	-1.005665	8.947053	0.942566	2.800191	1.064621	-0.338151	-0.397964	0.852806	0.672782	-0.735862	-0.076623	0.658041	0.547843	0.516575
39947	7.381075	-2.378881	7.182923	0.643091	3.033648	1.332102	-0.348877	-0.424171	0.835682	0.681508	-0.726921	-0.084454	0.643298	0.540059	0.542682
39948	7.359611	-3.179667	6.503736	0.810768	2.652190	1.597749	-0.354808	-0.449999	0.819519	0.692257	-0.715604	-0.093229	0.628404	0.534240	0.565417
39949	6.888687	-3.212345	7.063948	1.240504	2.572911	1.704398	-0.358839	-0.475742	0.803059	0.705990	-0.701141	-0.099900	0.610584	0.531104	0.587465
39950	8.386086	-1.264754	8.936366	1.319035	2.660058	1.655645	-0.363066	-0.501360	0.785380	0.719868	-0.686093	-0.105197	0.591585	0.527176	0.610010
39951	8.413276	-1.151975	9.321233	1.079236	2.867073	1.517891	-0.368759	-0.526646	0.765938	0.731675	-0.672677	-0.110258	0.573296	0.519759	0.633389
39952	8.392893	-0.780946	9.418608	0.967346	3.108240	1.348777	-0.376391	-0.551687	0.744292	0.742131	-0.660447	-0.114241	0.554591	0.509363	0.658011
39953	7.777097	-1.501337	8.943161	0.737082	3.248960	1.141570	-0.385612	-0.575466	0.721209	0.750470	-0.650346	-0.117665	0.536747	0.495873	0.682651
39954	7.822299	-1.143339	9.181751	0.634826	3.377391	0.967201	-0.396188	-0.598249	0.696515	0.757578	-0.641591	-0.120152	0.518759	0.480062	0.707410
39955	8.016571	-1.476117	8.953166	0.382442	3.462615	0.835168	-0.407524	-0.619846	0.670608	0.762854	-0.634742	-0.123113	0.501974	0.461404	0.731525
39956	7.866075	-1.586219	8.821871	0.190248	3.538063	0.726140	-0.419489	-0.640436	0.643328	0.766773	-0.629327	-0.126514	0.485888	0.440215	0.755065
39957	7.870614	-1.511470	8.674558	0.027267	3.602406	0.614748	-0.432007	-0.659701	0.614952	0.769489	-0.625252	-0.130180	0.470379	0.416960	0.777745
39958	7.940000	-1.184613	8.757665	-0.180617	3.639223	0.496732	-0.445075	-0.677553	0.585517	0.770809	-0.622678	-0.134633	0.455809	0.391399	0.799402
39959	8.251765	-0.887911	8.839778	-0.397402	3.689835	0.380680	-0.458725	-0.693822	0.555142	0.770712	-0.621605	-0.140033	0.442237	0.363618	0.819883
39960	8.617488	-0.505935	9.044070	-0.627634	3.755830	0.262924	-0.473111	-0.708581	0.523526	0.769179	-0.621965	-0.146707	0.429569	0.333276	0.839284
39961	8.992583	-0.491636	9.074392	-0.882098	3.833019	0.144589	-0.488261	-0.721597	0.490814	0.766104	-0.623762	-0.154939	0.417955	0.300364	0.857377
39962	9.247670	-0.854101	8.886803	-1.066862	3.880648	0.045063	-0.503956	-0.732884	0.457065	0.761905	-0.626466	-0.164441	0.406852	0.265369	0.874100
39963	9.372199	-1.223940	8.649676	-1.181277	3.870256	-0.001520	-0.519523	-0.742422	0.422972	0.757122	-0.629435	-0.174867	0.396059	0.229394	0.889110
39964	9.683498	-1.276836	8.192569	-1.229606	3.780656	0.011599	-0.534239	-0.750505	0.389012	0.752356	-0.631958	-0.185983	0.385421	0.193316	0.902264
39965	0.335533	-1.044581	9.017685	-1.028036	2.705647	0.058212	-0.544154	-0.755714	0.364407	0.748710	-0.633401	-0.195542	0.378589	0.166430	0.910478
39966	14.364258	-0.637836	-8.933573	-0.361848	0.745028	-0.275817	-0.549058	-0.755187	0.358088	0.745813	-0.636081	-0.197899	0.377224	0.158409	0.912474
39967	16.992569	4.204711	3.931803	0.106310	0.750521	-0.420220	-0.555017	-0.753652	0.352087	0.743859	-0.639117	-0.195457	0.372331	0.153421	0.915331
39968	23.444017	3.038160	0.282872	-1.068795	0.450598	-0.185126	-0.558102	-0.753138	0.348289	0.738795	-0.642110	-0.204641	0.377762	0.143103	0.914777
39969	19.245763	-3.055074	-6.127315	-0.735169	0.322098	-0.224755	-0.560996	-0.752115	0.345841	0.734713	-0.644858	-0.210606	0.381419	0.135945	0.914352
39970	17.262683	-2.583279	-8.378986	0.327033	-0.288421	-0.557439	-0.564005	-0.748104	0.349627	0.732791	-0.648608	-0.205730	0.380678	0.140171	0.914022
39971	17.393330	-1.168862	-8.860191	0.359421	-1.147968	-0.452059	-0.562938	-0.743467	0.361051	0.731585	-0.651487	-0.200866	0.384557	0.151065	0.910657
39972	19.066130	-2.780397	-10.710532	0.396832	-2.005844	-0.228905	-0.556826	-0.738751	0.379725	0.731806	-0.652579	-0.196471	0.392944	0.168485	0.903996
39973	11.244362	-1.454964	-2.336247	0.946856	-2.624591	-0.195312	-0.547859	-0.732693	0.403746	0.734450	-0.652332	-0.187206	0.400541	0.193969	0.895513
39974	10.411848	1.176000	20.547888	0.806031	-3.053474	-0.258137	-0.537367	-0.724637	0.431437	0.736274	-0.652576	-0.179010	0.411263	0.221462	0.884205
39975	10.477369	-4.000006	12.448513	-0.216986	-1.978904	-0.813690	-0.535091	-0.714763	0.450324	0.730971	-0.658960	-0.177349	0.423508	0.234276	0.875075
39976	10.837471	-4.743605	11.641917	1.242114	-2.245639	-0.921690	-0.532287	-0.703109	0.471495	0.731285	-0.662474	-0.162331	0.426489	0.258390	0.866799
39977	14.289136	-1.375390	10.944254	1.446710	-1.605792	-0.842146	-0.531634	-0.693175	0.486696	0.732926	-0.664498	-0.145811	0.424481	0.279195	0.861316
39978	8.033441	1.542242	9.727364	1.134704	-1.167863	-0.651840	-0.531468	-0.685452	0.497693	0.734220	-0.665777	-0.132901	0.422450	0.294783	0.857111
39979	9.362938	3.598517	11.177111	0.773420	-1.091502	-0.441508	-0.530113	-0.679193	0.507618	0.735110	-0.666495	-0.124084	0.422602	0.307376	0.852600
39980	8.242704	1.304917	9.996235	0.150716	-0.824974	-0.248055	-0.528433	-0.674935	0.514996	0.734391	-0.667749	-0.121574	0.425943	0.313964	0.848528
39981	7.288507	-1.153263	9.156090	0.109441	-0.672881	-0.167828	-0.526804	-0.671652	0.520923	0.733940	-0.668567	-0.119792	0.428731	0.319219	0.845156
39982	6.848403	-0.955026	9.055290	0.332895	-0.530122	-0.108367	-0.525323	-0.669177	0.525583	0.734753	-0.668264	-0.116452	0.429156	0.324999	0.842734
39983	6.596185	-0.142428	9.376727	0.236743	-0.442473	-0.066649	-0.523926	-0.667253	0.529411	0.735386	-0.667970	-0.114121	0.429778	0.329530	0.840655
39984	6.153468	-1.061269	8.795109	0.076117	-0.356546	-0.045568	-0.522723	-0.665724	0.532515	0.735430	-0.668065	-0.113275	0.431165	0.332417	0.838806
39985	5.546919	-1.269090	8.606032	0.135212	-0.334066	-0.029662	-0.521513	-0.664378	0.535374	0.735825	-0.667846	-0.111996	0.431955	0.335535	0.837157
39986	6.077732	-1.200200	8.653481	0.115845	-0.332066	-0.014710	-0.520181	-0.663116	0.538227	0.736205	-0.667596	-0.110983	0.432913	0.338514	0.835461
39987	5.683622	-1.583317	8.507061	0.050157	-0.268222	-0.014857	-0.519142	-0.662075	0.540508	0.736312	-0.667560	-0.110497	0.433978	0.340619	0.834051
39988	5.324151	-1.987498	8.309866	0.069901	-0.279846	-0.030967	-0.518149	-0.660867	0.542933	0.736410	-0.667569	-0.109781	0.434996	0.342939	0.832569
39989	5.505481	-1.743615	8.387119	0.152213	-0.283631	-0.039748	-0.517221	-0.659593	0.545362	0.736833	-0.667343	-0.108311	0.435384	0.345820	0.831173
39990	7.148357	-0.929329	8.817881	0.187665	-0.262761	-0.024952	-0.516256	-0.658469	0.547630	0.737477	-0.666899	-0.106651	0.435440	0.348805	0.829896
39991	5.187644	-1.196152	8.440889	0.049072	-0.119884	-0.022891	-0.515916	-0.657865	0.548674	0.737538	-0.666913	-0.106131	0.435738	0.349914	0.829273
39992	6.291065	-0.975092	8.612798	0.132803	-0.194741	-0.001582	-0.515074	-0.657126	0.550349	0.738064	-0.666501	-0.105057	0.435844	0.352081	0.828299
39993	5.853611	-0.638846	8.708348	0.068221	-0.073039	0.036232	-0.514502	-0.657078	0.550941	0.738515	-0.666058	-0.104703	0.435757	0.353008	0.827950
39994	5.804104	-1.293483	8.355161	0.001877	-0.135982	0.037716	-0.513625	-0.656803	0.552086	0.738672	-0.665848	-0.104930	0.436524	0.353916	0.827158
39995	5.788033	-1.116105	8.377731	0.102499	-0.103236	0.037878	-0.512908	-0.656657	0.552926	0.739280	-0.665271	-0.104304	0.436337	0.355269	0.826676
39996	5.826855	-0.985170	8.520168	0.053248	-0.114331	0.030054	-0.512181	-0.656405	0.553898	0.739622	-0.664928	-0.104065	0.436611	0.356375	0.826055
39997	5.931985	-1.277384	8.358779	0.028759	-0.101740	0.032565	-0.511509	-0.656226	0.554730	0.739881	-0.664647	-0.104020	0.436960	0.357227	0.825503
39998	5.847702	-1.062792	8.433610	0.082264	-0.085158	0.028783	-0.510918	-0.656067	0.555462	0.740343	-0.664208	-0.103535	0.436868	0.358335	0.825071
39999	5.847893	-1.056295	8.488745	0.039554	-0.081590	0.027101	-0.510375	-0.655922	0.556132	0.740621	-0.663924	-0.103371	0.437033	0.359125	0.824640
40000	5.858530	-1.169776	8.420511	0.031843	-0.076856	0.032007	-0.509796	-0.655813	0.556792	0.740879	-0.663643	-0.103321	0.437271	0.359843	0.824201
40001	5.840767	-1.187540	8.364988	0.031343	-0.063768	0.025611	-0.509341	-0.655721	0.557317	0.741113	-0.663398	-0.103217	0.437405	0.360462	0.823859
40002	5.830137	-1.161562	8.429140	0.042245	-0.060207	0.021030	-0.508916	-0.655597	0.557850	0.741361	-0.663152	-0.103021	0.437480	0.361139	0.823523
40003	5.823399	-1.217539	8.417829	0.032261	-0.059219	0.014205	-0.508565	-0.655445	0.558348	0.741541	-0.662978	-0.102846	0.437583	0.361734	0.823207
40004	5.827570	-1.215928	8.415175	0.027109	-0.044294	0.016274	-0.508244	-0.655347	0.558756	0.741698	-0.662817	-0.102749	0.437689	0.362206	0.822943
40005	5.804198	-1.183084	8.448374	0.029919	-0.050431	0.008695	-0.507973	-0.655190	0.559187	0.741840	-0.662688	-0.102563	0.437764	0.362728	0.822673
40006	5.784574	-1.200019	8.394294	0.023001	-0.043070	0.004050	-0.507748	-0.655015	0.559596	0.741917	-0.662622	-0.102431	0.437895	0.363164	0.822411
40007	5.799894	-1.140020	8.400178	0.024642	-0.046014	-0.000803	-0.507566	-0.654810	0.560001	0.741987	-0.662573	-0.102235	0.437986	0.363622	0.822160
40008	5.812806	-1.126569	8.378032	0.026249	-0.047324	-0.001854	-0.507366	-0.654580	0.560451	0.742049	-0.662534	-0.102045	0.438114	0.364108	0.821877
40009	5.718347	-1.118232	8.394869	0.012171	-0.049934	0.001031	-0.507153	-0.654372	0.560885	0.742074	-0.662518	-0.101961	0.438318	0.364508	0.821591
40010	5.800554	-1.160787	8.372353	0.010494	-0.053900	-0.003706	-0.506938	-0.654106	0.561391	0.742057	-0.662548	-0.101890	0.438595	0.364932	0.821254
40011	5.793315	-1.152242	8.337680	0.023206	-0.055357	-0.007841	-0.506767	-0.653819	0.561879	0.742085	-0.662551	-0.101666	0.438744	0.365441	0.820949
40012	5.800796	-1.135511	8.374405	0.020809	-0.054232	-0.008174	-0.506583	-0.653521	0.562391	0.742091	-0.662572	-0.101485	0.438947	0.365935	0.820620
40013	5.805298	-1.067806	8.347836	0.032599	-0.057847	-0.011870	-0.506431	-0.653198	0.562903	0.742140	-0.662566	-0.101162	0.439039	0.366522	0.820309
40014	5.819595	-1.118645	8.348539	0.018209	-0.060372	-0.012466	-0.506252	-0.652849	0.563469	0.742113	-0.662625	-0.100977	0.439292	0.367038	0.819943
40015	5.804012	-1.087631	8.321425	0.034787	-0.066264	-0.015520	-0.506089	-0.652470	0.564053	0.742154	-0.662634	-0.100616	0.439410	0.367694	0.819585
40016	5.818476	-1.007971	8.424823	0.034555	-0.071896	-0.015684	-0.505883	-0.652056	0.564717	0.742183	-0.662653	-0.100279	0.439599	0.368394	0.819170
40017	5.798485	-1.038049	8.329458	0.023016	-0.084641	-0.016702	-0.505648	-0.651601	0.565452	0.742166	-0.662713	-0.100007	0.439897	0.369091	0.818696
40018	5.806184	-1.034791	8.324499	0.033502	-0.096392	-0.014506	-0.505325	-0.651103	0.566314	0.742196	-0.662728	-0.099686	0.440218	0.369942	0.818139
40019	5.832929	-1.074012	8.302954	0.022087	-0.107172	-0.017343	-0.504995	-0.650559	0.567233	0.742172	-0.662795	-0.099418	0.440636	0.370779	0.817535
40020	5.807214	-1.245644	8.273262	0.018103	-0.106412	-0.020430	-0.504671	-0.649983	0.568181	0.742105	-0.662904	-0.099189	0.441121	0.371592	0.816904
40021	5.793803	-1.390964	8.263249	0.025012	-0.114726	-0.034405	-0.504433	-0.649295	0.569177	0.742008	-0.663071	-0.098800	0.441555	0.372496	0.816257
40022	5.771249	-1.351358	8.352387	0.039670	-0.111580	-0.045150	-0.504268	-0.648534	0.570190	0.741912	-0.663259	-0.098254	0.441905	0.373484	0.815616
40023	5.784374	-1.265128	8.361911	0.051252	-0.125836	-0.060491	-0.504174	-0.647629	0.571301	0.741800	-0.663496	-0.097502	0.442201	0.374633	0.814929
40024	5.726973	-1.072315	8.458358	0.061547	-0.137238	-0.067486	-0.504060	-0.646621	0.572542	0.741688	-0.663745	-0.096650	0.442518	0.375930	0.814159
40025	5.720465	-1.101237	8.450128	0.033476	-0.177235	-0.072649	-0.503828	-0.645439	0.574079	0.741436	-0.664125	-0.095972	0.443204	0.377290	0.813156
40026	5.723315	-1.101589	8.519148	0.035664	-0.198471	-0.082603	-0.503552	-0.644094	0.575828	0.741135	-0.664566	-0.095243	0.444021	0.378807	0.812004
40027	5.602583	-1.144202	8.627452	0.004880	-0.251756	-0.101620	-0.503199	-0.642430	0.577992	0.740611	-0.665237	-0.094627	0.445293	0.380451	0.810538
40028	5.755789	-1.081426	8.458994	0.004590	-0.305463	-0.113662	-0.502670	-0.640464	0.580628	0.740017	-0.665992	-0.093967	0.446876	0.382440	0.808728
40029	5.458196	-0.678578	8.881289	0.020476	-0.364852	-0.102673	-0.501809	-0.638347	0.583696	0.739559	-0.666606	-0.093214	0.448598	0.384902	0.806604
40030	5.560906	-0.646571	8.780334	-0.053481	-0.508635	-0.086359	-0.500150	-0.635761	0.587927	0.738842	-0.667406	-0.093173	0.451622	0.387784	0.803530
40031	5.588390	-0.813854	8.646986	-0.062299	-0.598551	-0.082308	-0.498058	-0.632847	0.592827	0.738115	-0.668207	-0.093196	0.455110	0.391157	0.799919
40032	5.706300	-0.687359	8.706561	-0.101749	-0.698892	-0.072660	-0.495390	-0.629570	0.598524	0.737245	-0.669109	-0.093608	0.459411	0.394886	0.795617
40033	5.681513	-0.965926	8.682538	-0.154987	-0.798323	-0.069346	-0.492226	-0.625904	0.604945	0.736153	-0.670196	-0.094429	0.464535	0.398852	0.790648
40034	5.679638	-1.110282	8.675814	-0.182548	-0.899206	-0.079210	-0.488596	-0.621722	0.612157	0.734868	-0.671465	-0.095417	0.470365	0.403234	0.784958
40035	5.624112	-1.023544	8.858121	-0.216846	-1.014068	-0.097292	-0.484520	-0.616920	0.620201	0.733333	-0.672983	-0.096521	0.476931	0.408048	0.778482
40036	5.362571	-0.861675	9.233752	-0.284132	-1.187731	-0.124481	-0.479711	-0.611159	0.629573	0.731323	-0.674957	-0.097975	0.484813	0.413422	0.770739
40037	5.105064	-0.792806	9.579488	-0.377150	-1.423681	-0.151106	-0.473856	-0.604174	0.640652	0.728722	-0.677482	-0.099911	0.494394	0.419514	0.761303
40038	4.878163	-0.783226	9.833175	-0.458015	-1.698400	-0.199970	-0.466807	-0.595588	0.653733	0.725448	-0.680662	-0.102106	0.505784	0.426585	0.749805
40039	4.610055	-0.787402	10.083697	-0.541784	-2.016072	-0.277792	-0.458496	-0.584973	0.669020	0.721351	-0.684671	-0.104298	0.519070	0.434778	0.735890
40040	4.628616	-1.256519	10.107271	-0.591741	-2.353635	-0.400498	-0.448972	-0.571835	0.686607	0.716375	-0.689630	-0.105915	0.534070	0.444315	0.719272
40041	4.501536	-1.360059	9.987432	-0.549232	-2.692823	-0.564366	-0.438413	-0.555772	0.706337	0.710858	-0.695319	-0.105884	0.549977	0.455684	0.699912
40042	4.455707	-1.682438	10.343782	-0.566193	-3.141944	-0.748077	-0.426139	-0.535982	0.728786	0.704418	-0.702061	-0.104436	0.567628	0.468865	0.676730
40043	4.834286	-2.601290	10.188520	-0.507858	-3.715416	-0.981307	-0.411578	-0.511300	0.754437	0.697339	-0.709657	-0.100523	0.586789	0.484726	0.648629
40044	6.342574	-3.658473	10.050656	-0.295106	-4.238184	-1.239145	-0.394889	-0.481477	0.782459	0.690540	-0.717305	-0.092885	0.605984	0.503640	0.615735
40045	6.522653	-3.644900	10.086623	0.111259	-4.719710	-1.515925	-0.376308	-0.446202	0.811970	0.685341	-0.723800	-0.080128	0.623457	0.526324	0.578173
40046	11.349214	-4.544905	11.496806	0.116722	-5.123890	-1.676430	-0.355330	-0.406428	0.841758	0.679905	-0.730357	-0.065633	0.641460	0.548994	0.535850
40047	14.579217	-5.384192	11.808472	0.360601	-5.183752	-1.733450	-0.333432	-0.364632	0.869406	0.676239	-0.735055	-0.048935	0.656904	0.571610	0.491669
40048	13.711874	-3.609382	10.642019	0.652735	-5.010632	-1.693178	-0.311642	-0.322947	0.893635	0.675064	-0.737109	-0.030962	0.668706	0.593612	0.447724
40049	13.782919	-1.810150	10.808023	0.402699	-4.981689	-1.535308	-0.288373	-0.281541	0.915191	0.673140	-0.739356	-0.015345	0.680972	0.611627	0.402727
40050	12.274478	-2.348248	10.088249	-0.058013	-4.721619	-1.374251	-0.265104	-0.242173	0.933312	0.668898	-0.743348	-0.002884	0.694474	0.623527	0.359054
40051	8.827797	-2.254455	9.296973	-0.196067	-4.431638	-1.346719	-0.243024	-0.204266	0.948269	0.664067	-0.747617	0.009145	0.707074	0.631937	0.317335
