// General information: 
//  MT Manager version: 2022.2.0 
//  XDA version: 2022.2.0 build 7381 rev 124627 built on 2023-07-19
// Device information: 
//  DeviceId: 00B4CBA7
//  ProductCode: MTW2-3A7G6
//  Firmware Version: 4.6.0
//  Hardware Version: 2.0.0
// Device settings: 
//  Filter Profile: human(46.1)
//  Option Flags: Orientation Smoother Disabled, Position/Velocity Smoother Disabled, Continuous Zero Rotation Update Disabled, AHS Disabled, ICC Disabled
// Coordinate system: ENU
PacketCounter	Acc_X	Acc_Y	Acc_Z	Gyr_X	Gyr_Y	Gyr_Z	Mat[1][1]	Mat[2][1]	Mat[3][1]	Mat[1][2]	Mat[2][2]	Mat[3][2]	Mat[1][3]	Mat[2][3]	Mat[3][3]
09692	9.623688	0.960458	-0.931750	0.089766	-0.017160	0.024721	0.115036	-0.081863	0.989982	-0.917651	-0.390371	0.074351	0.380374	-0.917011	-0.120029
09693	9.613917	0.881118	-1.111046	0.083650	-0.028498	0.026134	0.114935	-0.082209	0.989966	-0.917359	-0.391117	0.074026	0.381106	-0.916662	-0.120368
09694	9.594635	0.899815	-1.380325	0.072388	-0.029837	0.037353	0.114767	-0.082692	0.989945	-0.917121	-0.391755	0.073600	0.381729	-0.916346	-0.120799
09695	9.612011	0.894517	-1.546316	0.040558	-0.025359	0.029822	0.114620	-0.083024	0.989934	-0.916998	-0.392102	0.073291	0.382070	-0.916168	-0.121075
09696	9.602207	0.880276	-1.692345	0.004720	-0.018696	0.036990	0.114415	-0.083404	0.989926	-0.917018	-0.392118	0.072951	0.382083	-0.916126	-0.121347
09697	9.607888	0.832844	-1.769516	-0.027006	-0.009688	0.033855	0.114171	-0.083607	0.989937	-0.917157	-0.391842	0.072683	0.381822	-0.916226	-0.121418
09698	9.583447	0.744006	-1.815567	-0.038994	0.000376	0.034374	0.113918	-0.083803	0.989949	-0.917340	-0.391462	0.072424	0.381458	-0.916370	-0.121471
09699	9.632269	0.738902	-1.809439	-0.039796	0.012893	0.028370	0.113638	-0.083778	0.989984	-0.917521	-0.391074	0.072226	0.381106	-0.916538	-0.121309
09700	9.645195	0.692632	-1.717862	-0.057151	0.023116	0.028606	0.113352	-0.083744	0.990019	-0.917766	-0.390531	0.072045	0.380600	-0.916773	-0.121125
09701	9.682339	0.623364	-1.633470	-0.058051	0.034341	0.023409	0.113037	-0.083503	0.990076	-0.918011	-0.389979	0.071919	0.380104	-0.917030	-0.120739
09702	9.759003	0.519142	-1.478159	-0.061509	0.035743	0.022418	0.112760	-0.083330	0.990122	-0.918265	-0.389401	0.071804	0.379571	-0.917291	-0.120428
09703	9.771724	0.429239	-1.406509	-0.012565	0.041605	0.022329	0.112427	-0.083018	0.990186	-0.918335	-0.389267	0.071632	0.379500	-0.917376	-0.120002
09704	9.751532	0.505062	-1.394061	0.034672	0.044785	0.014855	0.112184	-0.082733	0.990237	-0.918216	-0.389577	0.071476	0.379860	-0.917270	-0.119671
09705	9.743654	0.558127	-1.281334	0.056298	0.045445	0.015225	0.111901	-0.082358	0.990301	-0.918016	-0.390081	0.071292	0.380426	-0.917090	-0.119256
09706	9.771692	0.586794	-1.285499	0.083207	0.045454	0.017994	0.111626	-0.082079	0.990355	-0.917715	-0.390834	0.071047	0.381233	-0.916794	-0.118953
09707	9.784708	0.670752	-1.347043	0.095658	0.040563	0.014289	0.111370	-0.081746	0.990411	-0.917363	-0.391699	0.070826	0.382154	-0.916455	-0.118614
09708	9.785735	0.733914	-1.310805	0.089200	0.050163	0.011690	0.111133	-0.081401	0.990466	-0.917031	-0.392512	0.070636	0.383020	-0.916138	-0.118268
09709	9.771419	0.765074	-1.374594	0.096292	0.047849	0.011593	0.110874	-0.080990	0.990529	-0.916671	-0.393385	0.070442	0.383954	-0.915800	-0.117857
09710	9.708693	0.776543	-1.454513	0.092659	0.053128	0.022584	0.110525	-0.080660	0.990595	-0.916336	-0.394220	0.070140	0.384854	-0.915470	-0.117483
09711	9.591779	0.813202	-1.474259	0.079020	0.061323	0.016970	0.110164	-0.080148	0.990677	-0.916047	-0.394930	0.069914	0.385644	-0.915209	-0.116926
09712	9.553721	0.844948	-1.539742	0.082540	0.062352	0.021871	0.109785	-0.079732	0.990752	-0.915749	-0.395671	0.069632	0.386460	-0.914925	-0.116453
09713	9.536917	0.864468	-1.580477	0.055762	0.066073	0.022141	0.109357	-0.079197	0.990842	-0.915555	-0.396164	0.069383	0.387041	-0.914758	-0.115833
09714	9.559190	0.827430	-1.560467	0.043463	0.072278	0.025009	0.108913	-0.078703	0.990931	-0.915409	-0.396547	0.069117	0.387511	-0.914635	-0.115235
09715	9.606046	0.854792	-1.504689	0.015004	0.079783	0.028241	0.108375	-0.078068	0.991040	-0.915379	-0.396662	0.068855	0.387733	-0.914639	-0.114450
09716	9.618813	0.764288	-1.428496	-0.008315	0.081301	0.028193	0.107867	-0.077505	0.991140	-0.915438	-0.396567	0.068617	0.387736	-0.914728	-0.113727
09717	9.658840	0.683084	-1.370925	-0.013556	0.083570	0.028376	0.107313	-0.076835	0.991252	-0.915518	-0.396422	0.068386	0.387699	-0.914848	-0.112885
09718	9.619872	0.629192	-1.256844	-0.013420	0.083244	0.024981	0.106827	-0.076242	0.991350	-0.915592	-0.396284	0.068187	0.387658	-0.914957	-0.112140
09719	9.635464	0.571890	-1.191291	-0.009573	0.084100	0.020994	0.106339	-0.075537	0.991457	-0.915649	-0.396181	0.068024	0.387658	-0.915060	-0.111295
09720	9.696057	0.500963	-1.098213	-0.000690	0.083343	0.023630	0.105864	-0.074938	0.991553	-0.915673	-0.396160	0.067823	0.387731	-0.915118	-0.110558
09721	9.700485	0.553128	-1.090768	0.033433	0.079049	0.020483	0.105400	-0.074278	0.991652	-0.915562	-0.396451	0.067617	0.388119	-0.915046	-0.109792
09722	9.769903	0.698808	-1.165374	0.054762	0.075797	0.023389	0.104956	-0.073746	0.991739	-0.915370	-0.396939	0.067358	0.388692	-0.914878	-0.109166
09723	9.781142	0.815645	-1.180990	0.034785	0.072204	0.021209	0.104511	-0.073151	0.991830	-0.915255	-0.397241	0.067144	0.389084	-0.914794	-0.108468
09724	9.764846	0.902072	-1.188367	-0.004580	0.074729	0.018000	0.104120	-0.072607	0.991911	-0.915287	-0.397190	0.067003	0.389112	-0.914860	-0.107811
09725	9.665480	0.786271	-1.224730	-0.028278	0.070771	0.017685	0.103713	-0.072011	0.991997	-0.915413	-0.396918	0.066893	0.388925	-0.915025	-0.107086
09726	9.662904	0.686689	-1.238435	-0.044166	0.074676	0.016381	0.103338	-0.071461	0.992076	-0.915598	-0.396506	0.066811	0.388590	-0.915246	-0.106403
09727	9.612069	0.612093	-1.247171	-0.038624	0.078233	0.019806	0.102883	-0.070805	0.992170	-0.915766	-0.396139	0.066690	0.388315	-0.915457	-0.105597
09728	9.623291	0.598562	-1.326005	-0.022197	0.079500	0.017914	0.102475	-0.070216	0.992254	-0.915866	-0.395928	0.066569	0.388187	-0.915593	-0.104881
09729	9.655482	0.616843	-1.358540	-0.023843	0.080852	0.017001	0.102036	-0.069524	0.992348	-0.915973	-0.395697	0.066460	0.388049	-0.915746	-0.104058
09730	9.684289	0.602803	-1.379666	-0.034203	0.085887	0.015214	0.101629	-0.068865	0.992436	-0.916117	-0.395377	0.066378	0.387815	-0.915934	-0.103270
09731	9.688990	0.568499	-1.414142	-0.013928	0.090433	0.013265	0.101186	-0.068071	0.992536	-0.916182	-0.395240	0.066296	0.387777	-0.916052	-0.102359
09732	9.711078	0.555016	-1.380117	-0.000821	0.098448	0.016056	0.100723	-0.067302	0.992636	-0.916198	-0.395225	0.066170	0.387861	-0.916116	-0.101470
09733	9.664220	0.578721	-1.366029	0.003185	0.100596	0.011291	0.100259	-0.066407	0.992743	-0.916195	-0.395246	0.066089	0.387989	-0.916172	-0.100469
09734	9.641528	0.645031	-1.327267	0.008859	0.102203	0.008744	0.099847	-0.065576	0.992840	-0.916166	-0.395323	0.066025	0.388162	-0.916199	-0.099550
09735	9.628704	0.667330	-1.198539	0.010555	0.101664	0.010965	0.099381	-0.064670	0.992946	-0.916134	-0.395412	0.065941	0.388358	-0.916225	-0.098543
09736	9.671150	0.641925	-1.138721	0.003809	0.106589	0.009388	0.098947	-0.063800	0.993045	-0.916125	-0.395444	0.065876	0.388491	-0.916272	-0.097577
09737	9.696574	0.639434	-1.125089	0.009493	0.109005	0.008148	0.098479	-0.062816	0.993155	-0.916093	-0.395525	0.065821	0.388683	-0.916304	-0.096496
09738	9.725625	0.647543	-1.132967	0.016841	0.110070	0.007833	0.098044	-0.061908	0.993255	-0.916033	-0.395677	0.065759	0.388937	-0.916301	-0.095503
09739	9.726883	0.668648	-1.111552	0.008045	0.111656	0.006429	0.097581	-0.060892	0.993363	-0.916005	-0.395746	0.065723	0.389117	-0.916339	-0.094395
09740	9.683509	0.703666	-1.118461	0.004362	0.109671	0.005692	0.097168	-0.059977	0.993459	-0.915989	-0.395789	0.065696	0.389259	-0.916381	-0.093397
09741	9.668040	0.725905	-1.154620	0.002608	0.108921	0.004275	0.096734	-0.058978	0.993561	-0.915981	-0.395809	0.065686	0.389387	-0.916437	-0.092311
09742	9.633949	0.717281	-1.071583	-0.026196	0.110182	0.005685	0.096319	-0.058060	0.993656	-0.916084	-0.395570	0.065687	0.389246	-0.916599	-0.091289
09743	9.620299	0.630833	-0.995598	-0.035258	0.108372	0.004565	0.095886	-0.057067	0.993755	-0.916223	-0.395243	0.065708	0.389025	-0.916802	-0.090184
09744	9.606438	0.544721	-0.919969	-0.031617	0.104207	-0.001668	0.095561	-0.056173	0.993837	-0.916341	-0.394957	0.065786	0.388828	-0.916981	-0.089216
09745	9.616179	0.522882	-0.809311	-0.021381	0.097874	0.001002	0.095202	-0.055261	0.993923	-0.916423	-0.394760	0.065830	0.388723	-0.917121	-0.088224
09746	9.629718	0.467602	-0.742362	-0.021766	0.092373	0.000808	0.094901	-0.054486	0.993995	-0.916504	-0.394563	0.065874	0.388604	-0.917252	-0.087381
09747	9.669597	0.552398	-0.795326	0.013987	0.086675	-0.001005	0.094603	-0.053669	0.994067	-0.916447	-0.394691	0.065907	0.388813	-0.917245	-0.086523
09748	9.713511	0.625767	-0.881324	0.035252	0.080958	-0.001741	0.094368	-0.052987	0.994126	-0.916305	-0.395018	0.065926	0.389205	-0.917144	-0.085829
09749	9.749370	0.743791	-0.892053	0.011970	0.081718	-0.003435	0.094111	-0.052206	0.994192	-0.916253	-0.395129	0.065985	0.389389	-0.917141	-0.085020
09750	9.685692	0.748039	-0.948933	-0.015479	0.078227	-0.000903	0.093880	-0.051551	0.994248	-0.916308	-0.394992	0.066040	0.389316	-0.917237	-0.084319
09751	9.699234	0.649356	-0.905195	-0.017368	0.072941	-0.006726	0.093687	-0.050838	0.994303	-0.916367	-0.394835	0.066156	0.389223	-0.917344	-0.083577
09752	9.648390	0.555139	-0.926599	-0.008227	0.071515	-0.010756	0.093572	-0.050206	0.994346	-0.916385	-0.394768	0.066303	0.389208	-0.917408	-0.082947
09753	9.620932	0.547214	-0.901933	0.004063	0.066090	-0.012119	0.093455	-0.049533	0.994391	-0.916356	-0.394811	0.066455	0.389304	-0.917426	-0.082287
09754	9.617316	0.559548	-0.863377	0.007370	0.063387	-0.010252	0.093366	-0.048977	0.994427	-0.916314	-0.394886	0.066583	0.389424	-0.917424	-0.081747
09755	9.649992	0.558325	-0.907814	0.016366	0.060668	-0.013474	0.093283	-0.048349	0.994465	-0.916236	-0.395042	0.066739	0.389629	-0.917390	-0.081150
09756	9.662167	0.613266	-0.956264	0.021763	0.059685	-0.014367	0.093245	-0.047810	0.994495	-0.916134	-0.395251	0.066896	0.389877	-0.917328	-0.080656
09757	9.697986	0.667287	-0.835694	0.008795	0.055396	-0.014214	0.093189	-0.047228	0.994528	-0.916084	-0.395338	0.067065	0.390007	-0.917321	-0.080106
09758	9.662033	0.660512	-0.758623	-0.011180	0.051009	-0.018006	0.093218	-0.046754	0.994547	-0.916107	-0.395246	0.067285	0.389946	-0.917384	-0.079675
09759	9.650516	0.608550	-0.699689	-0.016983	0.046488	-0.017315	0.093225	-0.046241	0.994571	-0.916155	-0.395098	0.067506	0.389831	-0.917475	-0.079197
09760	9.662986	0.555258	-0.637744	-0.001081	0.037712	-0.023575	0.093356	-0.045865	0.994576	-0.916134	-0.395102	0.067773	0.389850	-0.917492	-0.078904
09761	9.671381	0.556622	-0.688149	0.016688	0.036659	-0.020106	0.093428	-0.045431	0.994589	-0.916048	-0.395263	0.067995	0.390035	-0.917444	-0.078546
09762	9.686530	0.688606	-0.728650	0.030615	0.029890	-0.020504	0.093561	-0.045139	0.994590	-0.915905	-0.395557	0.068207	0.390338	-0.917332	-0.078352
09763	9.702690	0.732793	-0.812552	0.015837	0.026460	-0.019209	0.093663	-0.044802	0.994595	-0.915823	-0.395710	0.068420	0.390506	-0.917282	-0.078094
09764	9.745762	0.808723	-0.738468	-0.011917	0.017918	-0.019081	0.093830	-0.044624	0.994588	-0.915848	-0.395613	0.068651	0.390408	-0.917333	-0.077989
09765	9.710110	0.736779	-0.697066	-0.037270	0.013685	-0.023312	0.094020	-0.044388	0.994580	-0.915969	-0.395280	0.068947	0.390077	-0.917488	-0.077823
09766	9.618028	0.733815	-0.743115	-0.030841	0.006988	-0.018765	0.094226	-0.044311	0.994564	-0.916068	-0.395009	0.069190	0.389795	-0.917608	-0.077812
09767	9.642597	0.690224	-0.760259	-0.017099	0.001362	-0.014465	0.094383	-0.044224	0.994553	-0.916119	-0.394857	0.069382	0.389638	-0.917678	-0.077782
09768	9.618094	0.715603	-0.753138	-0.031375	-0.002242	-0.022064	0.094655	-0.044217	0.994528	-0.916217	-0.394581	0.069658	0.389342	-0.917797	-0.077861
09769	9.666418	0.758189	-0.889983	-0.021068	-0.006461	-0.018840	0.094882	-0.044184	0.994507	-0.916279	-0.394395	0.069897	0.389141	-0.917878	-0.077906
09770	9.690596	0.736709	-0.897537	-0.017631	-0.007867	-0.017765	0.095137	-0.044246	0.994480	-0.916327	-0.394243	0.070120	0.388965	-0.917940	-0.078050
09771	9.710152	0.748426	-0.862071	-0.048535	-0.010000	-0.016419	0.095356	-0.044255	0.994459	-0.916498	-0.393804	0.070356	0.388508	-0.918129	-0.078111
09772	9.689573	0.784552	-0.877100	-0.039128	-0.006390	-0.018121	0.095608	-0.044301	0.994433	-0.916629	-0.393455	0.070600	0.388137	-0.918276	-0.078225
09773	9.764801	0.857851	-0.854965	-0.062844	0.002255	-0.001427	0.095642	-0.044257	0.994431	-0.916869	-0.392877	0.070698	0.387561	-0.918525	-0.078154
09774	9.829134	0.833070	-0.798161	-0.121584	0.031660	-0.005067	0.095628	-0.044005	0.994444	-0.917331	-0.391766	0.070877	0.386470	-0.919012	-0.077831
09775	9.630525	0.562230	-0.579287	-0.126469	0.036527	-0.006562	0.095577	-0.043625	0.994466	-0.917811	-0.390605	0.071075	0.385343	-0.919524	-0.077373
09776	9.490071	0.451235	-0.354101	-0.025089	0.018815	-0.007713	0.095637	-0.043479	0.994466	-0.917895	-0.390382	0.071205	0.385126	-0.919626	-0.077244
09777	9.387048	0.556390	-0.127752	0.035193	-0.018082	-0.010167	0.095830	-0.043588	0.994443	-0.917748	-0.390709	0.071314	0.385429	-0.919482	-0.077444
09778	9.376663	0.623165	0.120032	0.051245	-0.066934	-0.011376	0.096252	-0.044213	0.994375	-0.917535	-0.391188	0.071421	0.385829	-0.919248	-0.078220
09779	9.514063	0.823458	0.263408	0.058648	-0.110490	-0.010953	0.096809	-0.045168	0.994278	-0.917296	-0.391731	0.071518	0.386259	-0.918971	-0.079356
09780	9.674981	1.044250	0.583384	0.026443	-0.132058	-0.012019	0.097487	-0.046386	0.994155	-0.917180	-0.391979	0.071649	0.386365	-0.918804	-0.080757
09781	9.598263	1.038198	1.078315	-0.063987	-0.129010	-0.001010	0.098024	-0.047549	0.994047	-0.917423	-0.391391	0.071746	0.385650	-0.918995	-0.081989
09782	9.226613	1.004124	1.396595	-0.113538	-0.149955	0.020030	0.098474	-0.049050	0.993930	-0.917877	-0.390340	0.071676	0.384455	-0.919363	-0.083460
09783	8.981700	0.926924	1.686726	-0.169870	-0.224179	0.026927	0.099117	-0.051198	0.993758	-0.918552	-0.388763	0.071587	0.382671	-0.919914	-0.085561
09784	8.904211	0.783349	1.830155	-0.188131	-0.297761	0.033704	0.099997	-0.054104	0.993516	-0.919300	-0.387017	0.071452	0.380642	-0.920484	-0.088438
09785	9.008843	0.818750	0.955227	-0.117444	-0.370481	0.064354	0.100843	-0.057745	0.993225	-0.919808	-0.385899	0.070953	0.379188	-0.920732	-0.092030
09786	9.250125	1.042445	0.026066	-0.034469	-0.429784	0.088961	0.101704	-0.062071	0.992876	-0.920026	-0.385530	0.070139	0.378430	-0.920605	-0.096316
09787	9.482459	1.065612	-0.624098	-0.055736	-0.488740	0.118992	0.102486	-0.067010	0.992475	-0.920355	-0.384940	0.069048	0.377416	-0.920506	-0.101124
09788	9.909237	1.150853	-1.464612	-0.004255	-0.521903	0.138242	0.103233	-0.072368	0.992021	-0.920510	-0.384806	0.067719	0.376835	-0.920156	-0.106340
09789	10.252843	1.236951	-2.100750	0.054371	-0.517767	0.140039	0.103925	-0.077652	0.991549	-0.920448	-0.385201	0.066306	0.376797	-0.919560	-0.111506
09790	10.026222	1.632077	-2.367071	0.038957	-0.498629	0.131326	0.104648	-0.082765	0.991059	-0.920434	-0.385455	0.065000	0.376629	-0.919007	-0.116517
09791	9.779250	1.756790	-2.410148	-0.083070	-0.485389	0.124263	0.105359	-0.087686	0.990561	-0.920874	-0.384587	0.063903	0.375353	-0.918915	-0.121268
09792	9.836192	1.513347	-2.315124	-0.234159	-0.477046	0.117822	0.106116	-0.092549	0.990037	-0.921871	-0.382331	0.063070	0.372685	-0.919379	-0.125889
09793	9.706539	0.892698	-2.106911	-0.417247	-0.473837	0.099680	0.106982	-0.097269	0.989492	-0.923520	-0.378398	0.062652	0.368328	-0.920518	-0.130312
09794	9.682279	0.137137	-2.066292	-0.477456	-0.455490	0.099488	0.107792	-0.101868	0.988941	-0.925370	-0.373904	0.062348	0.363417	-0.921856	-0.134569
09795	9.697132	-0.387914	-2.264503	-0.394679	-0.414516	0.096354	0.108428	-0.106033	0.988433	-0.926897	-0.370164	0.061969	0.359312	-0.922895	-0.138417
09796	9.482056	-0.590567	-2.380860	-0.323921	-0.388645	0.087661	0.109064	-0.109977	0.987932	-0.928147	-0.367080	0.061600	0.355876	-0.923665	-0.142110
09797	9.349471	-0.393892	-2.524450	-0.211191	-0.372326	0.076498	0.109705	-0.113680	0.987442	-0.928977	-0.365045	0.061183	0.353505	-0.924023	-0.145653
09798	9.285206	-0.079691	-2.788089	-0.122008	-0.357233	0.063638	0.110431	-0.117252	0.986943	-0.929474	-0.363848	0.060775	0.351971	-0.924049	-0.149163
09799	9.338585	0.049250	-2.550350	-0.122277	-0.344129	0.046851	0.111235	-0.120585	0.986451	-0.929952	-0.362663	0.060531	0.350451	-0.924086	-0.152479
09800	9.474726	0.111761	-2.142382	-0.022754	-0.327909	0.045601	0.112016	-0.123821	0.985962	-0.930079	-0.362401	0.060155	0.349865	-0.923761	-0.155758
09801	9.788793	0.157500	-2.137096	0.129325	-0.299965	0.030587	0.112813	-0.126684	0.985507	-0.929657	-0.363559	0.059685	0.350729	-0.922917	-0.158787
09802	10.120251	0.279817	-2.281818	0.274565	-0.267039	0.022949	0.113595	-0.129276	0.985081	-0.928714	-0.366064	0.059055	0.352968	-0.921566	-0.161643
09803	10.313051	0.814554	-2.418983	0.412459	-0.240606	0.024305	0.114253	-0.131563	0.984702	-0.927275	-0.369832	0.058178	0.356520	-0.919737	-0.164250
09804	10.133806	1.319020	-2.530396	0.506282	-0.238501	0.039926	0.114797	-0.133948	0.984317	-0.925500	-0.374437	0.056983	0.360932	-0.917526	-0.166953
09805	9.927729	1.908467	-2.495453	0.477023	-0.262252	0.059727	0.115227	-0.136559	0.983908	-0.923834	-0.378730	0.055626	0.365039	-0.915377	-0.169798
09806	9.704062	2.170509	-2.193223	0.330970	-0.286738	0.075890	0.115637	-0.139516	0.983445	-0.922704	-0.381658	0.054351	0.367757	-0.913714	-0.172865
09807	9.488883	2.184239	-1.932525	0.187575	-0.290051	0.091821	0.115889	-0.142498	0.982987	-0.922116	-0.383244	0.053156	0.369149	-0.912589	-0.175813
09808	9.264191	2.014174	-1.732698	0.057551	-0.275166	0.132689	0.115749	-0.145560	0.982555	-0.922053	-0.383583	0.051796	0.369353	-0.911963	-0.178613
09809	9.272751	1.878904	-1.680357	-0.060387	-0.268918	0.166559	0.115235	-0.148633	0.982155	-0.922465	-0.382790	0.050303	0.368483	-0.911800	-0.181219
09810	9.506646	1.492853	-1.647332	-0.169819	-0.273454	0.198332	0.114480	-0.151924	0.981740	-0.923313	-0.380947	0.048715	0.366590	-0.912030	-0.183884
09811	9.672738	1.088468	-1.794005	-0.180179	-0.276035	0.225152	0.113440	-0.155280	0.981336	-0.924225	-0.378960	0.046874	0.364608	-0.912292	-0.186503
09812	9.790521	0.740925	-1.890519	-0.192428	-0.280560	0.237038	0.112342	-0.158774	0.980903	-0.925187	-0.376838	0.044964	0.362502	-0.912570	-0.189231
09813	9.724281	0.287911	-1.974521	-0.144806	-0.274226	0.248954	0.111060	-0.162196	0.980489	-0.925986	-0.375120	0.042833	0.360854	-0.912676	-0.191852
09814	9.709324	0.145594	-2.034174	-0.066753	-0.269104	0.264784	0.109650	-0.165683	0.980064	-0.926515	-0.374080	0.040420	0.359926	-0.912476	-0.194526
09815	9.596553	-0.010583	-2.162291	-0.028099	-0.260464	0.268007	0.108134	-0.169043	0.979659	-0.926905	-0.373378	0.037883	0.359380	-0.912147	-0.197062
09816	9.521359	-0.060637	-2.396688	0.021275	-0.251408	0.267150	0.106633	-0.172371	0.979243	-0.927111	-0.373122	0.035278	0.359296	-0.911629	-0.199595
09817	9.253451	-0.025635	-2.493449	0.030671	-0.248572	0.258117	0.105164	-0.175582	0.978832	-0.927272	-0.372956	0.032724	0.359315	-0.911084	-0.202034
09818	9.135441	0.050480	-2.529709	-0.008128	-0.241113	0.248907	0.103793	-0.178747	0.978405	-0.927557	-0.372446	0.030356	0.358977	-0.910677	-0.204455
09819	8.999647	-0.254707	-2.510793	0.010005	-0.213549	0.245970	0.102308	-0.181590	0.978038	-0.927772	-0.372098	0.027963	0.358848	-0.910257	-0.206542
09820	9.022783	-0.478234	-2.627101	0.084981	-0.193644	0.239256	0.100854	-0.184285	0.977685	-0.927707	-0.372437	0.025497	0.359428	-0.909576	-0.208524
09821	9.160709	-0.508328	-2.497831	0.137120	-0.165738	0.231616	0.099332	-0.186638	0.977394	-0.927443	-0.373258	0.022980	0.360532	-0.908760	-0.210173
09822	9.138155	-0.432782	-2.271331	0.212031	-0.145818	0.219241	0.097893	-0.188828	0.977119	-0.926891	-0.374775	0.020436	0.362341	-0.907683	-0.211710
09823	9.270996	-0.330936	-2.237972	0.264057	-0.147984	0.206638	0.096547	-0.190929	0.976844	-0.926129	-0.376782	0.017891	0.364641	-0.906411	-0.213202
09824	9.486050	-0.151069	-2.106243	0.316656	-0.144434	0.197601	0.095314	-0.193030	0.976552	-0.925156	-0.379276	0.015328	0.367425	-0.904925	-0.214733
09825	9.486813	0.089008	-1.881389	0.327957	-0.141046	0.189808	0.094109	-0.195010	0.976276	-0.924124	-0.381878	0.012802	0.370321	-0.903405	-0.216152
09826	9.487837	0.109676	-1.765091	0.325912	-0.153716	0.192436	0.092968	-0.197180	0.975949	-0.923091	-0.384446	0.010259	0.373176	-0.901843	-0.217756
09827	9.626587	0.047636	-1.680295	0.271072	-0.171520	0.192779	0.091861	-0.199452	0.975592	-0.922252	-0.386510	0.007820	0.375517	-0.900460	-0.219450
09828	9.642382	-0.392079	-1.569753	0.181167	-0.184218	0.165880	0.091088	-0.201795	0.975183	-0.921721	-0.387810	0.005844	0.377006	-0.899379	-0.221323
09829	9.666665	-1.153278	-1.692677	0.210303	-0.198994	0.139870	0.090581	-0.204110	0.974748	-0.921051	-0.389421	0.004048	0.378761	-0.898160	-0.223269
09830	9.860458	-1.352774	-1.835491	0.313450	-0.215557	0.110465	0.090443	-0.206516	0.974254	-0.919958	-0.392011	0.002306	0.381442	-0.896481	-0.225441
09831	9.936288	-1.126588	-1.869643	0.398755	-0.232349	0.081756	0.090612	-0.208901	0.973730	-0.918502	-0.395416	0.000641	0.384895	-0.894431	-0.227705
09832	9.898675	-0.640802	-1.904247	0.391299	-0.253226	0.048279	0.091202	-0.211395	0.973136	-0.917031	-0.398816	-0.000691	0.388248	-0.892333	-0.230229
09833	9.732643	-0.380897	-2.056822	0.319127	-0.270567	0.027856	0.092031	-0.213900	0.972511	-0.915811	-0.401606	-0.001667	0.390923	-0.890482	-0.232852
09834	9.721434	-0.430859	-2.343041	0.269377	-0.278024	0.011144	0.093070	-0.216458	0.971846	-0.914764	-0.403983	-0.002375	0.393123	-0.888788	-0.235606
09835	10.016740	-0.570097	-2.758843	0.260450	-0.269924	-0.008201	0.094239	-0.218803	0.971208	-0.913727	-0.406318	-0.002878	0.395249	-0.887148	-0.238217
09836	9.913942	-0.540248	-3.253897	0.321530	-0.253419	-0.021530	0.095490	-0.221001	0.970587	-0.912430	-0.409220	-0.003410	0.397937	-0.885267	-0.240725
09837	9.675768	-0.226678	-3.627010	0.388443	-0.237385	-0.029449	0.096737	-0.222961	0.970016	-0.910847	-0.412725	-0.004030	0.401248	-0.883146	-0.243009
09838	9.515130	-0.081130	-3.773453	0.418038	-0.207874	-0.037218	0.097963	-0.224682	0.969495	-0.909124	-0.416500	-0.004662	0.404842	-0.880935	-0.245066
09839	9.468334	-0.027453	-3.685000	0.447870	-0.177994	-0.041678	0.099095	-0.226055	0.969061	-0.907259	-0.420539	-0.005325	0.408732	-0.878661	-0.246764
09840	9.539876	-0.034184	-3.428410	0.463770	-0.144716	-0.036814	0.100074	-0.227216	0.968689	-0.905315	-0.424696	-0.006090	0.412782	-0.876360	-0.248203
09841	9.515412	-0.041576	-3.068808	0.455053	-0.121254	-0.035341	0.100926	-0.228107	0.968391	-0.903390	-0.428765	-0.006845	0.416774	-0.874144	-0.249344
09842	9.519504	-0.026244	-2.698847	0.423101	-0.119182	-0.029581	0.101744	-0.229068	0.968079	-0.901587	-0.432531	-0.007590	0.420462	-0.872035	-0.250532
09843	9.497296	0.155551	-2.263705	0.392365	-0.124815	-0.024243	0.102518	-0.230031	0.967768	-0.899904	-0.436010	-0.008307	0.423867	-0.870047	-0.251705
09844	9.430358	0.187805	-1.894930	0.325666	-0.140414	-0.023292	0.103377	-0.231196	0.967400	-0.898493	-0.438898	-0.008877	0.426642	-0.868284	-0.253100
09845	9.349730	0.120415	-1.596007	0.260513	-0.159924	-0.019735	0.104267	-0.232477	0.966997	-0.897356	-0.441209	-0.009313	0.428813	-0.866769	-0.254618
09846	9.395653	0.093691	-1.436890	0.212673	-0.195829	-0.016996	0.105312	-0.234140	0.966482	-0.896423	-0.443095	-0.009666	0.430507	-0.865358	-0.256552
09847	9.426005	0.129919	-1.230889	0.151870	-0.229220	-0.017050	0.106482	-0.236028	0.965895	-0.895747	-0.444454	-0.009858	0.431623	-0.864148	-0.258748
09848	9.403523	0.320467	-0.996555	0.099530	-0.283456	-0.008866	0.107836	-0.238474	0.965143	-0.895306	-0.445339	-0.010005	0.432202	-0.863020	-0.261531
09849	9.424541	0.295114	-0.903477	0.005230	-0.326529	-0.004017	0.109311	-0.241253	0.964286	-0.895277	-0.445400	-0.009945	0.431892	-0.862216	-0.264676
09850	9.410810	0.044881	-1.035268	-0.037091	-0.367453	0.000315	0.110943	-0.244453	0.963294	-0.895435	-0.445084	-0.009821	0.431147	-0.861477	-0.268271
09851	9.374618	-0.108016	-1.474103	-0.051438	-0.404271	0.002166	0.112693	-0.247925	0.962202	-0.895656	-0.444642	-0.009669	0.430232	-0.860713	-0.272163
09852	9.561305	-0.238500	-1.850956	-0.075012	-0.427893	-0.009906	0.114667	-0.251589	0.961018	-0.895965	-0.444026	-0.009339	0.429066	-0.859967	-0.276330
09853	9.452788	-0.502529	-2.315146	-0.063969	-0.437802	-0.042631	0.116954	-0.255143	0.959804	-0.896187	-0.443591	-0.008717	0.427984	-0.859144	-0.280536
09854	9.511342	-1.068037	-2.479244	-0.045173	-0.458693	-0.061030	0.119506	-0.258836	0.958500	-0.896306	-0.443365	-0.007976	0.427030	-0.858156	-0.284981
09855	9.401917	-1.481075	-2.428325	0.037015	-0.471121	-0.106047	0.122497	-0.262385	0.957156	-0.896016	-0.443966	-0.007032	0.426790	-0.856766	-0.289486
09856	9.358304	-1.625216	-2.271514	0.091155	-0.500366	-0.145290	0.125974	-0.266047	0.955693	-0.895444	-0.445136	-0.005885	0.426979	-0.855028	-0.294305
09857	9.695379	-1.530221	-2.051565	0.124098	-0.519320	-0.179042	0.129824	-0.269664	0.954163	-0.894681	-0.446682	-0.004510	0.427424	-0.853086	-0.299254
09858	9.919900	-1.219114	-1.726464	0.123635	-0.553562	-0.207433	0.134079	-0.273477	0.952488	-0.893876	-0.448305	-0.002888	0.427795	-0.851019	-0.304563
09859	10.172827	-0.335374	-1.316659	0.142793	-0.590586	-0.222408	0.138623	-0.277478	0.950679	-0.892958	-0.450139	-0.001177	0.428264	-0.848753	-0.310175
09860	9.928036	0.622532	-0.770619	0.046742	-0.651275	-0.234625	0.143534	-0.281961	0.948629	-0.892423	-0.451198	0.000920	0.427760	-0.846710	-0.316391
09861	9.621054	0.987363	-0.169833	-0.056149	-0.722668	-0.240567	0.148795	-0.286968	0.946314	-0.892308	-0.451415	0.003413	0.426201	-0.844911	-0.323232
09862	9.436299	1.078249	0.133072	-0.161195	-0.811583	-0.252589	0.154525	-0.292688	0.943640	-0.892605	-0.450794	0.006345	0.423530	-0.843278	-0.330914
09863	9.511568	0.996320	-0.044589	-0.181190	-0.907014	-0.254129	0.160650	-0.299164	0.940581	-0.892965	-0.450028	0.009380	0.420481	-0.841413	-0.339440
09864	9.488899	0.936464	-0.454292	-0.243933	-0.990831	-0.250531	0.167061	-0.306364	0.937140	-0.893571	-0.448745	0.012593	0.416679	-0.839505	-0.348726
09865	9.591534	1.169320	-1.265613	-0.243920	-1.070030	-0.240931	0.173681	-0.314236	0.933322	-0.894168	-0.447456	0.015743	0.412673	-0.837281	-0.358694
09866	9.831962	1.224833	-1.880475	-0.402848	-1.127216	-0.242037	0.180491	-0.322573	0.929177	-0.895385	-0.444866	0.019488	0.407073	-0.835489	-0.369121
09867	10.053363	1.047159	-2.019272	-0.536828	-1.163238	-0.264949	0.187590	-0.331090	0.924765	-0.897059	-0.441259	0.023987	0.400119	-0.834068	-0.379783
09868	10.351907	1.042046	-2.081445	-0.638919	-1.199438	-0.292448	0.194992	-0.339784	0.920068	-0.899025	-0.436925	0.029174	0.392087	-0.832853	-0.390671
09869	10.760001	0.977311	-1.902979	-0.725057	-1.240470	-0.318110	0.202693	-0.348708	0.915051	-0.901197	-0.431995	0.034999	0.383093	-0.831735	-0.401817
09870	11.027586	1.095896	-1.533457	-0.841431	-1.280842	-0.344109	0.210663	-0.357853	0.909704	-0.903660	-0.426225	0.041598	0.372853	-0.830827	-0.413168
09871	11.661776	0.827365	-0.970095	-1.005209	-1.338812	-0.352345	0.218794	-0.367465	0.903935	-0.906585	-0.419165	0.049038	0.360878	-0.830223	-0.424849
09872	12.492328	0.844569	-1.121518	-1.030238	-1.384336	-0.361978	0.227012	-0.377411	0.897790	-0.909426	-0.411974	0.056769	0.348440	-0.829360	-0.436750
09873	13.170061	1.395070	-1.024161	-1.092251	-1.420021	-0.351350	0.235096	-0.387730	0.891289	-0.912340	-0.404275	0.064781	0.335208	-0.828388	-0.448785
09874	13.535043	2.373298	-1.106617	-1.136227	-1.457568	-0.323784	0.242857	-0.398451	0.884453	-0.915290	-0.396151	0.072856	0.321348	-0.827225	-0.460906
09875	13.593185	3.169962	-1.621492	-1.216798	-1.500592	-0.269512	0.250069	-0.409782	0.877237	-0.918438	-0.387194	0.080945	0.306491	-0.825930	-0.473184
09876	13.331669	3.435104	-1.734770	-1.364312	-1.547509	-0.228375	0.256803	-0.421617	0.869650	-0.921922	-0.376891	0.089517	0.290021	-0.824738	-0.485484
09877	13.215151	3.371747	-1.280462	-1.517881	-1.587449	-0.204849	0.263186	-0.433923	0.861652	-0.925646	-0.365270	0.098785	0.271870	-0.823583	-0.497793
09878	12.753801	2.705036	-0.674927	-1.698951	-1.611348	-0.193522	0.269219	-0.446413	0.853368	-0.929572	-0.352143	0.109047	0.251827	-0.822624	-0.509777
09879	12.183490	1.455405	-0.188847	-1.901439	-1.644856	-0.192130	0.275000	-0.459259	0.844663	-0.933618	-0.337392	0.120515	0.229635	-0.821734	-0.521556
09880	11.365800	-0.561332	-1.115780	-1.850854	-1.651146	-0.194447	0.280445	-0.472078	0.835759	-0.937119	-0.323105	0.131952	0.207746	-0.820211	-0.533007
09881	10.348267	-2.387437	-3.219382	-1.522657	-1.633384	-0.214514	0.285729	-0.484756	0.826662	-0.939522	-0.311679	0.141969	0.188833	-0.817232	-0.544494
09882	9.280401	-3.357357	-4.800294	-1.098124	-1.673125	-0.229196	0.290921	-0.497585	0.817175	-0.940847	-0.303857	0.149928	0.173702	-0.812453	-0.556549
09883	9.040124	-3.593847	-5.839156	-0.647627	-1.703340	-0.209240	0.295786	-0.510722	0.807263	-0.941312	-0.299687	0.155304	0.162609	-0.805823	-0.569392
09884	9.034460	-3.144566	-5.992578	-0.408696	-1.723601	-0.180466	0.300203	-0.523912	0.797116	-0.941418	-0.297344	0.159116	0.153655	-0.798187	-0.582484
09885	9.265011	-2.726033	-5.719478	-0.299877	-1.714626	-0.154837	0.304258	-0.537055	0.786765	-0.941389	-0.295801	0.162138	0.145649	-0.789983	-0.595577
09886	9.345443	-2.570702	-5.681712	-0.185148	-1.670606	-0.171775	0.308233	-0.549585	0.776498	-0.941126	-0.295282	0.164589	0.138831	-0.781514	-0.608245
09887	8.731087	-2.477542	-6.300466	0.003853	-1.532903	-0.228694	0.312508	-0.560809	0.766702	-0.940401	-0.296599	0.166358	0.134108	-0.772996	-0.620075
09888	7.484902	-1.862055	-7.409098	0.400978	-1.333884	-0.291917	0.317009	-0.570104	0.757949	-0.938947	-0.301337	0.166055	0.133729	-0.764315	-0.630824
09889	6.009449	-0.665333	-8.179626	0.698648	-1.199287	-0.318514	0.321648	-0.578231	0.749794	-0.936976	-0.308492	0.164041	0.136452	-0.755302	-0.641014
09890	5.553309	0.684160	-8.336789	0.776096	-1.058252	-0.280388	0.325705	-0.585226	0.742581	-0.934997	-0.315959	0.161094	0.140349	-0.746780	-0.650094
09891	5.447643	1.692053	-7.615242	0.493755	-0.823338	-0.193469	0.328708	-0.590718	0.736888	-0.933655	-0.320786	0.159326	0.142267	-0.740370	-0.656972
09892	5.957096	1.542894	-6.595517	0.194393	-0.606277	-0.087194	0.330354	-0.594844	0.732821	-0.933093	-0.322748	0.158656	0.142141	-0.736203	-0.661665
09893	5.678639	2.754608	-9.578617	0.713007	-0.606773	-0.028642	0.331529	-0.599185	0.728743	-0.931957	-0.328166	0.154155	0.146781	-0.730264	-0.667211
09894	4.834618	2.958380	-8.723614	-0.245000	-0.639733	-0.203708	0.334327	-0.603115	0.724208	-0.931633	-0.327616	0.157248	0.142423	-0.727269	-0.671413
09895	4.925882	1.458410	-6.229186	-0.626255	-0.321126	-0.228479	0.336934	-0.604691	0.721682	-0.931726	-0.324460	0.163136	0.135510	-0.727375	-0.672727
09896	5.355568	0.631450	-4.713850	-0.576032	0.064048	-0.130849	0.338047	-0.603743	0.721954	-0.932050	-0.321065	0.167928	0.130409	-0.729665	-0.671254
09897	5.803291	-0.102329	-4.696391	-0.419117	0.419038	0.081301	0.336780	-0.600923	0.724894	-0.932854	-0.317528	0.170172	0.127914	-0.733531	-0.667511
09898	6.210318	-0.664471	-4.457239	-0.172859	0.768809	0.251676	0.333421	-0.596001	0.730489	-0.933921	-0.314760	0.169463	0.128929	-0.738721	-0.661565
09899	6.408085	-0.750701	-4.467411	0.218689	1.140928	0.390337	0.328301	-0.588751	0.738642	-0.934913	-0.314089	0.165185	0.134746	-0.744796	-0.653546
09900	6.508249	-0.315862	-4.495113	0.438620	1.450434	0.526733	0.321325	-0.579492	0.748959	-0.936015	-0.314306	0.158390	0.143616	-0.751932	-0.643407
09901	6.884179	0.421289	-4.383683	0.575090	1.738406	0.637829	0.312792	-0.568341	0.761019	-0.937170	-0.315011	0.149938	0.154513	-0.760103	-0.631165
09902	7.411325	1.143782	-4.314707	0.598567	2.014644	0.701090	0.302950	-0.555081	0.774666	-0.938369	-0.315662	0.140785	0.166386	-0.769573	-0.616501
09903	7.896702	1.785656	-4.517332	0.397395	2.269639	0.723388	0.292293	-0.539752	0.789451	-0.939831	-0.314799	0.132740	0.176872	-0.780749	-0.599289
09904	8.288841	1.882140	-4.869115	-0.021195	2.459349	0.728241	0.280969	-0.522599	0.804951	-0.941957	-0.310775	0.127026	0.183775	-0.793920	-0.579584
09905	8.522017	1.269481	-4.879097	-0.363859	2.608342	0.733587	0.269237	-0.503942	0.820703	-0.944642	-0.304110	0.123162	0.187517	-0.808431	-0.557922
09906	8.386529	0.849741	-4.768456	-0.603239	2.719368	0.783804	0.256662	-0.484027	0.836566	-0.947840	-0.295324	0.119930	0.189008	-0.823712	-0.534578
09907	8.394381	0.214514	-4.740066	-0.837444	2.774679	0.873737	0.243165	-0.463472	0.852094	-0.951594	-0.284234	0.116958	0.187988	-0.839288	-0.510153
09908	8.866691	-0.613062	-4.591965	-0.885927	2.812480	0.957228	0.228731	-0.442243	0.867239	-0.955512	-0.272404	0.113102	0.186221	-0.854528	-0.484876
09909	9.306642	-1.010012	-4.664798	-0.767223	2.841226	0.996852	0.213943	-0.420407	0.881752	-0.959137	-0.261505	0.108037	0.185163	-0.868835	-0.459175
09910	9.486744	-0.901264	-4.600912	-0.602969	2.848755	1.014887	0.198865	-0.397999	0.895572	-0.962351	-0.252081	0.101667	0.185293	-0.882073	-0.433145
09911	9.591660	-0.619223	-4.503885	-0.432970	2.848903	0.995006	0.184010	-0.375153	0.908516	-0.965055	-0.244399	0.094542	0.186573	-0.894164	-0.407015
09912	9.510601	-0.395109	-4.350331	-0.264927	2.826955	0.965328	0.169316	-0.351978	0.920567	-0.967260	-0.238514	0.086709	0.189048	-0.905109	-0.380839
09913	9.534737	-0.079937	-4.240006	-0.096307	2.800215	0.935438	0.154948	-0.328694	0.931639	-0.968956	-0.234463	0.078433	0.192654	-0.914870	-0.354820
09914	9.503622	0.264702	-4.074038	0.032867	2.800717	0.913498	0.140569	-0.305006	0.941919	-0.970244	-0.231878	0.069711	0.197148	-0.923691	-0.328525
09915	9.562899	0.631834	-3.840547	0.085404	2.794384	0.904155	0.126251	-0.281157	0.951321	-0.971276	-0.230027	0.060916	0.201703	-0.931686	-0.302122
09916	9.636977	0.710481	-3.632583	0.150911	2.785546	0.887578	0.111878	-0.257072	0.959895	-0.972026	-0.229057	0.051947	0.206517	-0.938854	-0.275507
09917	9.625539	0.893852	-3.384429	0.214831	2.757177	0.863520	0.097751	-0.233063	0.967536	-0.972479	-0.228971	0.043095	0.211493	-0.945121	-0.249031
09918	9.721952	0.973934	-3.062414	0.220462	2.716456	0.836548	0.083744	-0.209162	0.974289	-0.972767	-0.229217	0.034404	0.216127	-0.950637	-0.222662
09919	9.724561	0.985996	-2.710390	0.207878	2.674781	0.807887	0.070080	-0.185510	0.980140	-0.972933	-0.229608	0.026107	0.220205	-0.955440	-0.196580
09920	9.489614	0.976230	-2.412392	0.183744	2.624410	0.789465	0.056514	-0.162129	0.985150	-0.973025	-0.230001	0.017966	0.223672	-0.959591	-0.170753
09921	9.448631	0.846294	-2.160400	0.158762	2.558901	0.770261	0.043291	-0.139288	0.989305	-0.973051	-0.230369	0.010145	0.226492	-0.963083	-0.145507
09922	9.442029	0.811021	-1.966256	0.116741	2.509664	0.751366	0.030212	-0.116748	0.992702	-0.973060	-0.230538	0.002502	0.228563	-0.966034	-0.120568
09923	9.524098	0.834814	-1.871111	0.101532	2.432576	0.732725	0.017535	-0.094896	0.995333	-0.973002	-0.230745	-0.004857	0.230129	-0.968376	-0.096380
09924	9.617653	0.978935	-1.695205	0.058293	2.351309	0.705468	0.005197	-0.073670	0.997269	-0.972947	-0.230720	-0.011974	0.230972	-0.970227	-0.072876
09925	9.712055	1.210538	-1.433093	-0.005132	2.261296	0.681814	-0.006627	-0.053272	0.998558	-0.972954	-0.230236	-0.018740	0.230903	-0.971675	-0.050306
09926	9.686187	1.318202	-1.239368	-0.099642	2.158686	0.650842	-0.017980	-0.033719	0.999270	-0.973102	-0.228987	-0.025236	0.229671	-0.972845	-0.028695
09927	9.694697	1.263297	-1.038224	-0.201726	2.040579	0.615964	-0.028604	-0.015248	0.999475	-0.973421	-0.226871	-0.031320	0.227229	-0.973805	-0.008354
09928	9.713707	1.277791	-0.856944	-0.246941	1.928720	0.601713	-0.038858	0.002239	0.999242	-0.973774	-0.224428	-0.037364	0.224174	-0.974488	0.010901
09929	9.478707	1.193730	-0.698915	-0.308872	1.790333	0.587074	-0.048523	0.018394	0.998653	-0.974206	-0.221475	-0.043256	0.220381	-0.974993	0.028667
09930	9.217042	1.093113	-0.493743	-0.351802	1.610977	0.561997	-0.057550	0.032923	0.997800	-0.974675	-0.218189	-0.049017	0.216095	-0.975351	0.044646
09931	9.029802	1.072027	-0.255780	-0.357046	1.427764	0.545407	-0.065889	0.045682	0.996781	-0.975105	-0.214916	-0.054606	0.211730	-0.975563	0.058705
09932	9.743423	1.117736	0.036086	-0.396883	1.224611	0.538760	-0.073736	0.056534	0.995674	-0.975558	-0.211320	-0.060248	0.206999	-0.975781	0.070734
09933	9.670644	0.289222	0.646364	-0.535182	1.100993	0.539300	-0.081212	0.066165	0.994498	-0.976235	-0.206422	-0.065987	0.200920	-0.976223	0.081356
09934	8.574621	0.749607	0.354815	-0.288381	0.786982	0.501049	-0.087694	0.072870	0.993479	-0.976386	-0.203955	-0.071226	0.197435	-0.976264	0.089035
09935	8.225357	0.955671	0.224364	-0.321950	0.493054	0.473838	-0.093253	0.076736	0.992681	-0.976591	-0.201160	-0.076191	0.193841	-0.976548	0.093699
09936	8.069537	1.282098	0.153506	-0.361436	0.189980	0.432407	-0.097859	0.077779	0.992156	-0.976871	-0.197963	-0.080832	0.190124	-0.977119	0.095352
09937	8.334637	1.235264	-0.344639	-0.379750	-0.068202	0.420428	-0.101805	0.076298	0.991874	-0.977170	-0.194570	-0.085329	0.186478	-0.977917	0.094365
09938	8.446635	0.821852	-0.627144	-0.389403	-0.286346	0.397988	-0.105176	0.072777	0.991787	-0.977478	-0.191056	-0.089638	0.182963	-0.978877	0.091232
09939	8.248984	0.422123	-1.316674	-0.256849	-0.468076	0.375929	-0.107966	0.067490	0.991861	-0.977549	-0.188799	-0.093561	0.180948	-0.979694	0.086359
09940	7.907433	0.481992	-1.836734	-0.068640	-0.620882	0.359173	-0.110357	0.060771	0.992032	-0.977281	-0.188356	-0.097177	0.180950	-0.980219	0.080176
09941	7.499561	0.870601	-2.374591	0.040471	-0.723871	0.339690	-0.112329	0.053044	0.992254	-0.976834	-0.188942	-0.100482	0.182148	-0.980555	0.073039
09942	7.200121	1.347020	-3.420624	0.093867	-0.793837	0.303615	-0.113838	0.044718	0.992492	-0.976320	-0.190010	-0.103422	0.183958	-0.980763	0.065289
09943	7.128930	1.857170	-4.451836	0.086862	-0.798846	0.261402	-0.114880	0.036396	0.992712	-0.975865	-0.190964	-0.105929	0.185717	-0.980922	0.057455
09944	7.255514	2.124376	-5.464748	-0.035496	-0.713167	0.171558	-0.115215	0.029093	0.992914	-0.975736	-0.190670	-0.107635	0.186187	-0.981223	0.050355
09945	7.430345	1.651621	-6.353791	-0.194605	-0.542025	0.050309	-0.114667	0.023689	0.993121	-0.976043	-0.188769	-0.108193	0.184908	-0.981736	0.044767
09946	7.528412	1.044387	-6.792904	-0.279115	-0.285738	-0.087479	-0.113263	0.021049	0.993342	-0.976659	-0.186005	-0.107419	0.182505	-0.982323	0.041625
09947	6.885104	1.067004	-6.913717	-0.202257	-0.062684	-0.217916	-0.110987	0.020847	0.993603	-0.977275	-0.183968	-0.105303	0.180596	-0.982711	0.040792
09948	6.082370	0.941707	-6.430204	-0.198135	-0.009878	-0.320874	-0.107796	0.021318	0.993944	-0.977987	-0.181947	-0.102163	0.178667	-0.983077	0.040462
09949	8.317846	1.514206	-2.903806	-0.184214	-0.155101	-0.351529	-0.104048	0.020440	0.994362	-0.978691	-0.180058	-0.098707	0.177026	-0.983444	0.038739
09950	11.947483	-2.157994	6.749729	-1.569257	-0.484556	-0.331320	-0.099934	0.016205	0.994862	-0.981695	-0.164535	-0.095931	0.162135	-0.986238	0.032351
09951	16.963830	-10.252151	3.760869	0.236344	-1.227294	0.017384	-0.098060	0.004084	0.995172	-0.981295	-0.166864	-0.096007	0.165666	-0.985971	0.020370
09952	25.954544	-2.133163	-0.892757	1.952761	-1.603059	0.146480	-0.096646	-0.011974	0.995247	-0.977718	-0.186073	-0.097182	0.186352	-0.982463	0.006276
09953	23.366831	1.718297	1.451014	2.833663	-1.425140	-0.367701	-0.090165	-0.025187	0.995608	-0.972374	-0.213897	-0.093472	0.215312	-0.976531	-0.005205
09954	11.655746	6.056582	-2.628037	3.200664	-1.358090	-0.572363	-0.081442	-0.037101	0.995987	-0.965462	-0.245206	-0.088080	0.247490	-0.968761	-0.015849
09955	1.587017	6.343764	-4.456576	2.243505	-1.399739	-0.347243	-0.074444	-0.049715	0.995985	-0.959928	-0.267020	-0.085077	0.270177	-0.962408	-0.027844
09956	0.550577	5.260164	-4.826437	1.882790	-1.582637	-0.071647	-0.069274	-0.064721	0.995496	-0.954718	-0.285120	-0.084973	0.289335	-0.956304	-0.042039
09957	7.569756	6.927367	-4.105337	1.071951	-1.475922	0.175380	-0.066560	-0.079299	0.994626	-0.951440	-0.295222	-0.087208	0.300551	-0.952132	-0.055798
09958	11.344556	6.826887	-2.854113	-0.576467	-1.145993	0.270001	-0.065635	-0.091031	0.993683	-0.952989	-0.289496	-0.089467	0.295812	-0.952841	-0.067750
09959	10.837155	3.226953	-2.742722	-2.102940	-0.916975	0.178245	-0.064684	-0.100275	0.992855	-0.958891	-0.269235	-0.089663	0.276303	-0.957840	-0.078738
09960	10.369074	-1.677356	-2.848737	-2.823821	-0.836826	0.111056	-0.063452	-0.108630	0.992055	-0.966257	-0.241975	-0.088298	0.249644	-0.964182	-0.089610
09961	10.946664	-5.297377	-3.495891	-2.425959	-0.855377	0.073211	-0.062092	-0.117054	0.991183	-0.971991	-0.218445	-0.086687	0.226666	-0.968803	-0.100211
09962	11.098486	-6.162713	-3.733493	-1.524377	-0.871719	0.034203	-0.060418	-0.125618	0.990237	-0.975325	-0.203613	-0.085338	0.212346	-0.970959	-0.110217
09963	10.121810	-5.230988	-3.715667	-0.630894	-0.836306	-0.012316	-0.058513	-0.133703	0.989293	-0.976657	-0.197505	-0.084459	0.206682	-0.971141	-0.119025
09964	9.076589	-4.048994	-3.966768	0.120880	-0.782338	-0.055851	-0.056265	-0.141233	0.988376	-0.976445	-0.198750	-0.083986	0.208301	-0.969820	-0.126724
09965	9.149956	-2.920474	-4.323096	0.699364	-0.713422	-0.073844	-0.054000	-0.147983	0.987515	-0.975006	-0.205633	-0.084131	0.215515	-0.967376	-0.133180
09966	9.822059	-1.485327	-4.417976	0.967713	-0.618307	-0.066096	-0.051921	-0.153874	0.986725	-0.972915	-0.215075	-0.084734	0.225258	-0.964399	-0.138540
09967	10.221501	-0.615195	-3.808259	0.914283	-0.520854	-0.063657	-0.050072	-0.158738	0.986050	-0.970848	-0.223982	-0.085358	0.234407	-0.961579	-0.142895
09968	10.148960	-0.466365	-3.096041	0.792817	-0.460508	-0.085097	-0.048076	-0.163032	0.985449	-0.969006	-0.231727	-0.085611	0.242312	-0.959022	-0.146838
09969	9.858269	-0.376901	-2.720579	0.647068	-0.418356	-0.098042	-0.046067	-0.166796	0.984915	-0.967466	-0.238090	-0.085572	0.248771	-0.956814	-0.150402
09970	9.707227	-0.236196	-2.313477	0.468719	-0.392549	-0.101136	-0.044029	-0.170374	0.984395	-0.966341	-0.242736	-0.085232	0.253469	-0.955014	-0.153952
09971	9.772781	-0.177956	-2.061433	0.315710	-0.368666	-0.100671	-0.042083	-0.173633	0.983911	-0.965581	-0.245925	-0.084698	0.256675	-0.953610	-0.157307
09972	9.924945	-0.409921	-1.976346	0.184278	-0.361497	-0.102470	-0.040086	-0.176893	0.983413	-0.965155	-0.247856	-0.083925	0.258590	-0.952511	-0.160794
09973	9.967306	-0.821660	-2.117359	0.124793	-0.364875	-0.101481	-0.038129	-0.180102	0.982909	-0.964873	-0.249228	-0.083096	0.259935	-0.951551	-0.164273
09974	9.877793	-0.954664	-2.227374	0.149942	-0.350837	-0.101354	-0.036159	-0.183253	0.982401	-0.964526	-0.250834	-0.082291	0.261499	-0.950527	-0.167682
09975	9.704933	-0.973503	-2.076450	0.163323	-0.343778	-0.107451	-0.034189	-0.186235	0.981910	-0.964137	-0.252588	-0.081477	0.263192	-0.949482	-0.170921
09976	9.525063	-1.090856	-1.725534	0.102358	-0.338726	-0.123018	-0.032033	-0.189207	0.981415	-0.963914	-0.253785	-0.080389	0.264279	-0.948575	-0.174250
09977	9.418316	-1.312951	-1.281051	0.077957	-0.349192	-0.135304	-0.029772	-0.192161	0.980912	-0.963751	-0.254786	-0.079164	0.265135	-0.947712	-0.177610
09978	9.449615	-1.423056	-1.004874	0.055341	-0.361122	-0.143329	-0.027358	-0.195283	0.980365	-0.963651	-0.255584	-0.077802	0.265760	-0.946859	-0.181193
09979	9.497602	-1.375399	-0.747515	0.068042	-0.386239	-0.147634	-0.024875	-0.198547	0.979776	-0.963510	-0.256523	-0.076446	0.266513	-0.945925	-0.184921
09980	9.498947	-1.023266	-0.576052	0.109278	-0.419875	-0.157513	-0.022165	-0.202176	0.979098	-0.963260	-0.257869	-0.075054	0.267653	-0.944790	-0.189032
09981	9.386711	-0.621241	-0.399052	0.097455	-0.476209	-0.157321	-0.019341	-0.206252	0.978308	-0.963033	-0.259115	-0.073666	0.268688	-0.943568	-0.193616
09982	9.291534	-0.460475	-0.227111	0.144149	-0.531241	-0.153998	-0.016357	-0.210920	0.977367	-0.962677	-0.260793	-0.072391	0.270159	-0.942072	-0.198782
09983	9.271249	-0.537034	-0.452319	0.075154	-0.587467	-0.150322	-0.013288	-0.216044	0.976293	-0.962497	-0.261826	-0.071040	0.270967	-0.940623	-0.204462
09984	9.348308	-0.824355	-0.621411	0.050854	-0.623075	-0.149985	-0.010087	-0.221560	0.975095	-0.962381	-0.262631	-0.069630	0.271517	-0.939115	-0.210576
09985	9.476465	-0.999283	-1.035268	0.063657	-0.660853	-0.145415	-0.006859	-0.227365	0.973785	-0.962221	-0.263560	-0.068315	0.272183	-0.937465	-0.216968
09986	9.465570	-1.211582	-1.437111	0.053306	-0.683216	-0.149612	-0.003492	-0.233419	0.972370	-0.962087	-0.264403	-0.066925	0.272719	-0.935739	-0.223646
09987	9.419528	-1.230446	-1.900309	0.071653	-0.710139	-0.165502	0.000072	-0.239605	0.970870	-0.961895	-0.265470	-0.065445	0.273418	-0.933871	-0.230494
09988	9.353453	-1.207137	-2.284114	0.047866	-0.718020	-0.187223	0.003901	-0.245854	0.969299	-0.961764	-0.266372	-0.063692	0.273853	-0.931988	-0.237492
09989	9.412873	-1.273019	-2.622219	0.031209	-0.727954	-0.204746	0.007896	-0.252071	0.967676	-0.961667	-0.267178	-0.061750	0.274107	-0.930095	-0.244518
09990	9.494259	-1.383729	-2.615266	0.022746	-0.720677	-0.230713	0.012152	-0.258198	0.966016	-0.961584	-0.267979	-0.059529	0.274243	-0.928181	-0.251535
09991	9.817120	-1.211653	-2.588684	0.069862	-0.718357	-0.258420	0.016641	-0.264150	0.964338	-0.961355	-0.269309	-0.057179	0.274808	-0.926120	-0.258424
09992	9.882403	-0.858930	-2.510207	0.126987	-0.710531	-0.277880	0.021327	-0.270019	0.962619	-0.960955	-0.271228	-0.054790	0.275883	-0.923864	-0.265261
09993	9.722788	-0.610251	-2.456202	0.170064	-0.716852	-0.281306	0.026045	-0.275853	0.960847	-0.960417	-0.273571	-0.052508	0.277345	-0.921447	-0.272059
09994	9.588486	-0.401533	-2.252339	0.175400	-0.727564	-0.289556	0.030906	-0.281799	0.958976	-0.959849	-0.275996	-0.050169	0.278811	-0.918921	-0.279014
09995	9.503280	-0.437183	-2.049501	0.154975	-0.744828	-0.304072	0.035937	-0.287777	0.957023	-0.959314	-0.278291	-0.047659	0.280046	-0.916372	-0.286069
09996	9.452034	-0.636536	-1.971778	0.138184	-0.755282	-0.324489	0.041225	-0.293825	0.954970	-0.958802	-0.280503	-0.044915	0.281069	-0.913775	-0.293284
09997	9.558961	-0.851962	-1.785815	0.130579	-0.786575	-0.342748	0.046757	-0.300023	0.952785	-0.958283	-0.282720	-0.041999	0.281972	-0.911074	-0.300726
09998	9.712444	-0.912889	-1.485600	0.113064	-0.818059	-0.356307	0.052535	-0.306493	0.950422	-0.957787	-0.284834	-0.038912	0.282639	-0.908257	-0.308519
09999	9.677011	-0.914553	-1.248085	0.117964	-0.862353	-0.386013	0.058703	-0.313195	0.947873	-0.957237	-0.287108	-0.035583	0.283286	-0.905250	-0.316656
10000	9.771060	-0.499457	-1.082972	0.119326	-0.915887	-0.413555	0.065309	-0.320313	0.945058	-0.956642	-0.289502	-0.032013	0.283850	-0.901991	-0.325332
10001	9.918179	-0.081160	-0.898892	0.041131	-0.980449	-0.438276	0.072314	-0.327854	0.941957	-0.956222	-0.291301	-0.027980	0.283567	-0.898697	-0.334566
10002	10.057184	0.214416	-0.601164	-0.004913	-1.050992	-0.462906	0.079765	-0.335956	0.938494	-0.955883	-0.292801	-0.023572	0.282711	-0.895210	-0.344490
10003	10.308420	0.982006	-0.524033	-0.086422	-1.124917	-0.477614	0.087533	-0.344591	0.934663	-0.955725	-0.293663	-0.018763	0.280942	-0.891638	-0.355040
10004	10.599030	1.353164	-0.184756	-0.234810	-1.210430	-0.477055	0.095522	-0.353980	0.930362	-0.955942	-0.293249	-0.013426	0.277580	-0.888090	-0.366396
10005	10.590255	1.824634	0.161572	-0.365034	-1.303005	-0.466998	0.103605	-0.364149	0.925560	-0.956479	-0.291700	-0.007700	0.272790	-0.884481	-0.378522
10006	10.690466	2.064971	0.446705	-0.535445	-1.398822	-0.450942	0.111740	-0.375193	0.920187	-0.957434	-0.288650	-0.001430	0.266149	-0.880858	-0.391476
10007	10.563568	1.977284	0.693819	-0.690756	-1.495711	-0.442689	0.119932	-0.387058	0.914222	-0.958727	-0.284276	0.005415	0.257796	-0.877139	-0.405177
10008	10.526047	2.061289	0.691087	-0.841006	-1.601644	-0.438222	0.128236	-0.399833	0.907573	-0.960306	-0.278650	0.012927	0.247727	-0.873205	-0.419695
10009	10.805913	1.773607	0.757127	-1.023213	-1.707337	-0.440860	0.136633	-0.413481	0.900203	-0.962191	-0.271541	0.021317	0.235628	-0.869079	-0.434949
10010	11.592735	1.419754	1.003086	-1.202261	-1.804113	-0.442951	0.145075	-0.427914	0.892100	-0.964310	-0.262992	0.030668	0.221492	-0.864711	-0.450796
10011	12.493834	1.556761	1.218089	-1.381016	-1.891747	-0.440655	0.153399	-0.443079	0.883261	-0.966596	-0.253014	0.040950	0.205333	-0.860038	-0.467090
10012	13.223609	1.829234	1.406359	-1.589742	-1.992619	-0.428839	0.161507	-0.459067	0.873598	-0.969032	-0.241326	0.052336	0.186796	-0.854996	-0.483827
10013	13.691230	2.145981	0.685381	-1.689664	-2.083010	-0.415494	0.169255	-0.475829	0.863099	-0.971328	-0.228884	0.064295	0.166956	-0.849234	-0.500926
10014	14.323444	2.065340	0.114617	-1.915784	-2.168734	-0.393074	0.176505	-0.493251	0.851792	-0.973626	-0.214587	0.077489	0.144562	-0.843004	-0.518118
10015	15.309210	1.370063	-0.300119	-2.035874	-2.217743	-0.357676	0.182966	-0.511120	0.839809	-0.975678	-0.199305	0.091268	0.120729	-0.836082	-0.535155
10016	15.569387	0.746627	-0.219218	-2.136532	-2.195905	-0.347990	0.188787	-0.528662	0.827572	-0.977337	-0.183334	0.105836	0.095770	-0.828797	-0.551292
10017	14.801506	-1.061188	-1.084692	-2.044725	-2.158708	-0.371415	0.194260	-0.545805	0.815083	-0.978331	-0.168480	0.120348	0.071638	-0.820799	-0.566707
10018	13.355782	-3.673263	-3.731396	-1.605146	-2.095075	-0.429721	0.199796	-0.562120	0.802560	-0.978467	-0.157760	0.133092	0.051798	-0.811870	-0.581536
10019	11.289697	-5.416275	-5.912552	-0.967876	-2.088786	-0.521042	0.205866	-0.578151	0.789532	-0.977839	-0.152940	0.142972	0.038092	-0.801468	-0.596824
10020	10.092093	-5.449833	-7.266327	-0.381343	-2.125639	-0.566397	0.212147	-0.594106	0.775907	-0.976779	-0.153229	0.149743	0.029928	-0.789658	-0.612817
10021	9.835040	-4.985596	-7.200321	-0.120493	-2.127342	-0.573458	0.218355	-0.609876	0.761822	-0.975570	-0.155756	0.154929	0.024171	-0.777040	-0.628987
10022	10.484055	-3.908800	-6.897222	-0.015722	-2.041790	-0.547609	0.224148	-0.624667	0.748030	-0.974360	-0.159020	0.159174	0.019521	-0.764528	-0.644295
10023	10.369382	-3.689434	-5.853052	-0.144158	-1.862931	-0.582180	0.230162	-0.637861	0.734955	-0.973053	-0.161621	0.164457	0.013884	-0.753002	-0.657871
10024	9.846059	-3.599477	-6.995622	0.324186	-1.551121	-0.650149	0.236693	-0.648303	0.723657	-0.971492	-0.168231	0.167040	0.013449	-0.742564	-0.669640
10025	7.826922	-3.148737	-7.478182	0.666733	-1.356145	-0.795194	0.244648	-0.656918	0.713166	-0.969469	-0.178359	0.168279	0.016654	-0.732561	-0.680497
10026	6.930719	-2.241866	-7.019273	1.005779	-1.145128	-0.902605	0.253606	-0.663502	0.703881	-0.967020	-0.191646	0.167761	0.023586	-0.723213	-0.690222
10027	6.180453	-1.092887	-6.076162	1.226764	-0.869773	-0.881429	0.262398	-0.667992	0.696372	-0.964389	-0.206357	0.165441	0.033188	-0.714984	-0.698352
10028	6.707477	-0.039675	-6.617927	1.530446	-0.658607	-0.776754	0.270124	-0.670932	0.690568	-0.961715	-0.222451	0.160061	0.046227	-0.707366	-0.705334
10029	4.850255	2.986246	-10.070785	2.054489	-0.670408	-0.750869	0.277736	-0.673888	0.684644	-0.958515	-0.241959	0.150678	0.064116	-0.698091	-0.713133
10030	4.600113	2.454673	-7.989256	0.903633	-0.650168	-0.765794	0.285490	-0.676434	0.678921	-0.955749	-0.253419	0.149407	0.070988	-0.691532	-0.718849
10031	6.146590	2.052094	-4.758355	0.428811	-0.189066	-0.654993	0.291913	-0.676042	0.676575	-0.953536	-0.260830	0.150785	0.074534	-0.689155	-0.720771
10032	6.835690	1.504690	-3.990431	0.278825	0.236565	-0.515970	0.296635	-0.672977	0.677576	-0.951805	-0.266244	0.152253	0.077938	-0.690084	-0.719521
10033	7.001657	0.559153	-4.572450	0.227085	0.687843	-0.365045	0.299590	-0.667225	0.681951	-0.950525	-0.270283	0.153131	0.082147	-0.694088	-0.715188
10034	6.178537	-0.175343	-4.371718	0.302831	1.067599	-0.231888	0.300869	-0.659071	0.689277	-0.949571	-0.273942	0.152549	0.088281	-0.700415	-0.708255
10035	5.564476	-0.774498	-4.895328	0.552292	1.382776	-0.084297	0.300416	-0.649088	0.698881	-0.948794	-0.278403	0.149273	0.097680	-0.707938	-0.699487
10036	5.761988	-0.657703	-5.209811	0.769769	1.714332	0.056380	0.298080	-0.636952	0.710943	-0.948162	-0.283534	0.143515	0.110165	-0.716868	-0.688450
10037	5.988073	0.038257	-4.776763	0.812824	2.091624	0.162492	0.294123	-0.622295	0.725424	-0.947682	-0.288402	0.136835	0.124063	-0.727717	-0.674563
10038	6.201575	0.761472	-4.894649	0.742266	2.452897	0.162509	0.289341	-0.604674	0.742059	-0.947182	-0.292865	0.130678	0.138306	-0.740675	-0.657474
10039	6.678629	0.652725	-5.520260	0.528534	2.695233	0.132248	0.284221	-0.584890	0.759685	-0.946787	-0.296050	0.126289	0.151040	-0.755154	-0.637910
10040	7.414824	0.122166	-6.087106	0.354011	2.892754	0.141694	0.278316	-0.563152	0.778075	-0.946630	-0.297948	0.122960	0.162580	-0.770771	-0.616020
10041	7.505220	-0.414743	-6.520024	0.277669	3.045352	0.176110	0.271561	-0.539946	0.796689	-0.946638	-0.299156	0.119925	0.173581	-0.786743	-0.592372
10042	7.354345	-0.748822	-6.380105	0.163874	3.189620	0.198818	0.263948	-0.515094	0.815481	-0.946878	-0.299419	0.117351	0.183723	-0.803135	-0.566762
10043	7.282867	-1.274385	-6.034504	0.072599	3.345033	0.237047	0.255431	-0.488644	0.834255	-0.947348	-0.298833	0.115024	0.193097	-0.819711	-0.539248
10044	7.598715	-1.543781	-5.707128	0.077376	3.506894	0.292225	0.245682	-0.460391	0.853042	-0.947928	-0.298095	0.112126	0.202666	-0.836169	-0.509654
10045	8.105346	-1.465733	-5.596410	0.149377	3.630198	0.341114	0.234937	-0.430750	0.871355	-0.948429	-0.297849	0.108478	0.212805	-0.851904	-0.478512
10046	8.502109	-1.405337	-5.687361	0.294756	3.725039	0.390354	0.223047	-0.399818	0.889042	-0.948680	-0.298769	0.103647	0.224178	-0.866535	-0.445939
10047	8.728696	-1.126568	-5.882477	0.492174	3.803739	0.412472	0.210391	-0.367828	0.905780	-0.948432	-0.301494	0.097865	0.237090	-0.879661	-0.412291
10048	8.724046	-0.538831	-5.996137	0.642055	3.837326	0.406533	0.197115	-0.334997	0.921370	-0.947695	-0.305758	0.091578	0.251038	-0.891229	-0.377745
10049	8.887138	0.268738	-5.969664	0.743880	3.841362	0.410067	0.183342	-0.301817	0.935571	-0.946548	-0.311128	0.085123	0.265391	-0.901169	-0.342727
10050	9.110238	0.799257	-5.402362	0.760455	3.859112	0.416122	0.168834	-0.268097	0.948483	-0.945210	-0.316836	0.078695	0.279416	-0.909802	-0.306901
10051	9.266201	1.366449	-4.784666	0.750051	3.882231	0.450459	0.153502	-0.234054	0.960029	-0.943785	-0.322563	0.072264	0.292757	-0.917154	-0.270411
10052	9.509761	1.655249	-4.387405	0.640135	3.893832	0.506215	0.137040	-0.199784	0.970210	-0.942610	-0.327363	0.065731	0.304478	-0.923537	-0.233180
10053	9.704685	1.567517	-3.860019	0.532217	3.884064	0.571638	0.119663	-0.165671	0.978894	-0.941693	-0.331252	0.059053	0.314477	-0.928884	-0.195650
10054	10.059375	2.161328	-3.260414	0.422949	3.824600	0.640424	0.101392	-0.132119	0.986035	-0.941053	-0.334240	0.051982	0.322705	-0.933182	-0.158220
10055	10.425113	2.747045	-2.787127	0.104599	3.740285	0.727754	0.082418	-0.099554	0.991613	-0.941380	-0.334377	0.044673	0.327125	-0.937166	-0.121277
10056	10.778286	2.796781	-2.593393	-0.256594	3.647710	0.830580	0.062606	-0.067989	0.995720	-0.942822	-0.331273	0.036660	0.327363	-0.941082	-0.084841
10057	10.687236	2.367400	-1.977144	-0.667102	3.514492	0.936034	0.042370	-0.037894	0.998383	-0.945482	-0.324485	0.027809	0.322906	-0.945132	-0.049576
10058	10.449972	1.795839	-1.437778	-1.046499	3.304157	1.028257	0.022063	-0.009812	0.999708	-0.949147	-0.314326	0.017862	0.314060	-0.949264	-0.016248
10059	11.146243	1.126301	-0.819565	-1.346573	3.018311	1.091441	0.002418	0.015558	0.999876	-0.953427	-0.301544	0.006998	0.301615	-0.953325	0.014104
10060	11.559284	-1.109190	0.853402	-1.911851	2.803693	1.161236	-0.016921	0.039023	0.999095	-0.958933	-0.283586	-0.005164	0.283128	-0.958152	0.042218
10061	9.302593	0.255915	-0.361763	-1.289964	2.215985	1.117929	-0.033759	0.057194	0.997792	-0.962220	-0.271743	-0.016979	0.270172	-0.960669	0.064207
10062	8.636179	0.948419	0.093736	-1.604372	1.579913	1.015247	-0.047724	0.069775	0.996420	-0.966012	-0.256948	-0.028275	0.254055	-0.963903	0.079666
10063	7.605354	1.988387	0.659354	-1.638470	0.925999	0.880459	-0.058490	0.076535	0.995350	-0.969575	-0.241765	-0.038386	0.237703	-0.967312	0.088347
10064	7.415960	1.530368	0.853151	-1.864714	0.331193	0.785729	-0.066910	0.077974	0.994708	-0.973344	-0.224295	-0.047891	0.219374	-0.971397	0.090903
10065	7.413459	0.475446	-0.121065	-1.542610	-0.181265	0.707745	-0.073392	0.074686	0.994503	-0.976119	-0.209818	-0.056278	0.204461	-0.974884	0.088301
10066	7.292272	0.537026	-1.837053	-0.982746	-0.615335	0.645364	-0.078491	0.067413	0.994633	-0.977593	-0.200684	-0.063544	0.195323	-0.977334	0.081654
10067	6.958401	0.137900	-2.198990	-0.459809	-0.962035	0.599245	-0.082456	0.056825	0.994973	-0.978004	-0.196554	-0.069824	0.191599	-0.978845	0.071782
10068	6.613067	0.818819	-2.965501	0.147531	-1.189441	0.576698	-0.085821	0.044092	0.995334	-0.977233	-0.198291	-0.075476	0.194038	-0.979151	0.060106
10069	6.369543	1.388118	-3.894867	0.373576	-1.333902	0.543453	-0.088475	0.029956	0.995628	-0.976029	-0.202145	-0.080652	0.198846	-0.978897	0.047123
10070	7.098560	0.311201	-5.297422	0.474335	-1.337351	0.501332	-0.090680	0.015885	0.995753	-0.974622	-0.206903	-0.085455	0.204667	-0.978232	0.034243
10071	7.609114	-0.231282	-7.368578	0.710160	-1.141762	0.393642	-0.092098	0.003907	0.995742	-0.972784	-0.213882	-0.089135	0.212623	-0.976852	0.023499
10072	6.999958	-0.729147	-9.102370	0.992113	-0.835194	0.255276	-0.092766	-0.004778	0.995676	-0.970387	-0.223562	-0.091483	0.223032	-0.974678	0.016103
10073	6.307326	-0.082955	-9.414659	1.239697	-0.446935	0.099926	-0.092677	-0.009344	0.995652	-0.967456	-0.235618	-0.092264	0.235456	-0.971801	0.012796
10074	5.677718	-0.118034	-9.836784	1.382157	-0.019776	-0.064016	-0.092012	-0.009383	0.995714	-0.964169	-0.249031	-0.091443	0.248822	-0.968450	0.013867
10075	4.804143	-1.079179	-9.777461	1.415556	0.273677	-0.263104	-0.090146	-0.006051	0.995910	-0.960795	-0.262733	-0.088564	0.262194	-0.964850	0.017871
10076	4.733409	-1.900052	-9.436902	1.402520	0.338469	-0.422987	-0.086993	-0.001679	0.996207	-0.957402	-0.276251	-0.084070	0.275344	-0.961084	0.022425
10077	2.300076	-4.633234	-9.289004	0.578787	-0.101520	-0.413077	-0.082727	-0.001487	0.996571	-0.956146	-0.281813	-0.079792	0.280965	-0.959468	0.021892
10078	7.229105	-9.275438	-2.943573	0.841677	-1.018186	-0.039899	-0.079435	-0.011184	0.996777	-0.953777	-0.289875	-0.079261	0.289827	-0.956999	0.012359
10079	18.652882	8.758622	-1.442427	2.918539	-2.081072	0.276112	-0.075687	-0.031829	0.996623	-0.944679	-0.317611	-0.081886	0.319145	-0.947687	-0.006029
10080	38.035211	13.271244	4.018346	1.061345	-2.066579	0.047098	-0.069408	-0.051580	0.996254	-0.941197	-0.327622	-0.082535	0.330652	-0.943400	-0.025808
10081	34.621474	9.447630	0.520216	1.142221	-1.339811	-1.234098	-0.053273	-0.060060	0.996772	-0.938114	-0.339061	-0.070568	0.342204	-0.938845	-0.038281
10082	4.527694	0.893419	-4.832904	2.374690	-1.275177	-1.528723	-0.034437	-0.066649	0.997182	-0.930391	-0.362213	-0.056340	0.364948	-0.929709	-0.049536
10083	-0.801148	3.619430	-8.885185	3.832139	-1.636925	-0.573766	-0.022841	-0.079542	0.996570	-0.915883	-0.397964	-0.052756	0.400795	-0.913946	-0.063761
10084	-1.676878	8.449259	-6.726414	4.188658	-1.933453	-0.031442	-0.014379	-0.096947	0.995186	-0.898298	-0.435875	-0.055440	0.439151	-0.894771	-0.080819
10085	7.913885	11.863235	-5.600643	3.143083	-1.750578	0.359214	-0.009616	-0.114068	0.993426	-0.884009	-0.463372	-0.061763	0.467371	-0.878792	-0.096381
10086	13.336041	11.501920	-4.074361	0.093205	-1.174105	0.420298	-0.007752	-0.126370	0.991953	-0.883543	-0.463680	-0.065975	0.468286	-0.876944	-0.108059
10087	11.529457	4.231243	-2.240555	-2.423542	-0.797734	0.287795	-0.006632	-0.134689	0.990866	-0.894613	-0.441932	-0.066060	0.446793	-0.886879	-0.117564
10088	9.469742	-3.958467	-3.211798	-3.464534	-0.681291	0.127960	-0.004738	-0.141365	0.989946	-0.909554	-0.410781	-0.063013	0.415559	-0.900708	-0.126633
10089	10.244267	-8.535436	-5.233231	-3.381009	-0.714893	-0.015054	-0.001710	-0.147772	0.989020	-0.923084	-0.380140	-0.058394	0.384595	-0.913048	-0.135756
10090	11.715169	-11.379862	-6.516801	-2.395371	-0.708650	-0.125728	0.002202	-0.153861	0.988090	-0.932036	-0.358360	-0.053725	0.362358	-0.920818	-0.144193
10091	10.418288	-10.422272	-5.956794	-0.767659	-0.649801	-0.248849	0.006887	-0.158950	0.987263	-0.934780	-0.351677	-0.050099	0.355161	-0.922528	-0.151005
10092	9.168080	-6.750305	-5.417847	0.736340	-0.627700	-0.322309	0.012224	-0.163661	0.986441	-0.932113	-0.358973	-0.048007	0.361962	-0.918887	-0.156939
10093	9.147722	-2.246437	-4.732909	1.573379	-0.572532	-0.321231	0.017353	-0.167709	0.985684	-0.926256	-0.373913	-0.047313	0.376495	-0.912175	-0.161830
10094	9.690280	0.941457	-3.911600	1.771488	-0.466846	-0.305408	0.022037	-0.170871	0.985047	-0.919385	-0.390520	-0.047173	0.392741	-0.904598	-0.165702
10095	9.905656	2.535461	-2.937016	1.545829	-0.371398	-0.264151	0.025972	-0.173149	0.984553	-0.913142	-0.404909	-0.047122	0.406814	-0.897813	-0.168626
10096	9.986657	2.734926	-2.014388	1.144926	-0.312345	-0.239722	0.029518	-0.175050	0.984117	-0.908362	-0.415573	-0.046674	0.417142	-0.892556	-0.171276
10097	9.976851	2.478607	-1.297850	0.774552	-0.287333	-0.199987	0.032569	-0.176752	0.983716	-0.905042	-0.422827	-0.046008	0.424074	-0.888806	-0.173740
10098	9.715137	1.889101	-0.984169	0.434405	-0.297251	-0.154662	0.035317	-0.178817	0.983248	-0.903142	-0.426955	-0.045208	0.427886	-0.886417	-0.176576
10099	9.606697	1.350378	-0.513389	0.159139	-0.321151	-0.121883	0.037822	-0.181121	0.982733	-0.902416	-0.428587	-0.044259	0.429203	-0.885160	-0.179657
10100	9.444146	0.554602	-0.231576	-0.042918	-0.357530	-0.112036	0.040453	-0.183882	0.982116	-0.902559	-0.428409	-0.043035	0.428661	-0.884677	-0.183295
10101	9.389974	-0.230918	-0.014399	-0.150831	-0.408100	-0.113657	0.043255	-0.186987	0.981410	-0.903157	-0.427290	-0.041605	0.427126	-0.884567	-0.187361
10102	9.353767	-0.828611	0.062561	-0.190628	-0.464993	-0.105670	0.046276	-0.190720	0.980553	-0.903925	-0.425801	-0.040160	0.425180	-0.884488	-0.192101
10103	9.272733	-0.972590	0.154145	-0.203340	-0.522486	-0.122045	0.049625	-0.194804	0.979586	-0.904729	-0.424242	-0.038534	0.423088	-0.884347	-0.197298
10104	9.243621	-0.636435	0.417716	-0.248749	-0.581877	-0.132274	0.053357	-0.199456	0.978453	-0.905712	-0.422302	-0.036695	0.420522	-0.884239	-0.203183
10105	9.229762	-0.560149	0.464212	-0.334278	-0.643423	-0.143085	0.057379	-0.204525	0.977178	-0.907032	-0.419640	-0.034571	0.417134	-0.884348	-0.209589
10106	9.423657	-0.749206	0.359964	-0.356416	-0.705668	-0.142993	0.061684	-0.210228	0.975705	-0.908429	-0.416784	-0.032370	0.413464	-0.884361	-0.216686
10107	9.579195	-0.747078	-0.049270	-0.303286	-0.766017	-0.154831	0.066276	-0.216338	0.974066	-0.909578	-0.414438	-0.030158	0.410214	-0.883990	-0.224244
10108	9.431478	-0.606430	-0.724209	-0.220101	-0.821142	-0.166279	0.071220	-0.222960	0.972222	-0.910364	-0.412860	-0.027993	0.407633	-0.883083	-0.232379
10109	9.434582	-0.529876	-1.736781	-0.096650	-0.856110	-0.178709	0.076360	-0.229758	0.970248	-0.910624	-0.412417	-0.025994	0.406119	-0.881546	-0.240715
10110	9.294775	-0.471470	-2.659894	-0.005302	-0.863410	-0.184169	0.081611	-0.236652	0.968161	-0.910501	-0.412802	-0.024153	0.405374	-0.879540	-0.249161
10111	9.199943	-0.538294	-3.258641	0.034819	-0.863537	-0.198977	0.086950	-0.243397	0.966021	-0.910190	-0.413591	-0.022283	0.404961	-0.877326	-0.257500
10112	9.312594	-0.510942	-3.724773	0.083313	-0.835548	-0.198151	0.092207	-0.249949	0.963859	-0.909675	-0.414813	-0.020546	0.404956	-0.874903	-0.265621
10113	9.258149	-0.310531	-3.908162	0.100184	-0.808878	-0.200075	0.097332	-0.256166	0.961720	-0.909077	-0.416200	-0.018856	0.405099	-0.872443	-0.273385
10114	9.071491	-0.384662	-3.837408	0.081448	-0.787528	-0.205283	0.102458	-0.262226	0.959552	-0.908542	-0.417446	-0.017068	0.405037	-0.870044	-0.281014
10115	8.997530	-0.771433	-4.079598	0.091149	-0.767894	-0.218747	0.107585	-0.267965	0.957403	-0.907940	-0.418824	-0.015197	0.405056	-0.867630	-0.288355
10116	8.972159	-1.330461	-4.311346	0.132710	-0.744210	-0.248390	0.112924	-0.273426	0.955242	-0.907127	-0.420651	-0.013169	0.405424	-0.865038	-0.295534
10117	9.199036	-1.632581	-4.297945	0.223245	-0.723667	-0.281828	0.118447	-0.278467	0.953114	-0.905892	-0.423363	-0.011114	0.406608	-0.862102	-0.302407
10118	9.420332	-1.615250	-4.016832	0.332350	-0.702705	-0.313689	0.124218	-0.283240	0.950971	-0.904154	-0.427109	-0.009108	0.408748	-0.858693	-0.309147
10119	9.757584	-1.146015	-3.445635	0.418338	-0.685127	-0.336172	0.130094	-0.287648	0.948860	-0.902008	-0.431660	-0.007188	0.411653	-0.854943	-0.315617
10120	10.112796	-0.373426	-2.629308	0.397007	-0.693623	-0.352429	0.136198	-0.292097	0.946641	-0.899896	-0.436075	-0.005083	0.414291	-0.851186	-0.322249
10121	10.353489	0.487873	-1.631862	0.304589	-0.711051	-0.374783	0.142549	-0.296477	0.944342	-0.898106	-0.439773	-0.002498	0.416036	-0.847763	-0.328956
10122	10.122774	1.148269	-0.710086	0.159664	-0.766839	-0.390224	0.149305	-0.301302	0.941767	-0.896868	-0.442297	0.000681	0.416335	-0.844743	-0.336266
10123	10.091776	1.399898	0.163068	0.008785	-0.848909	-0.405375	0.156497	-0.306647	0.938870	-0.896208	-0.443611	0.004497	0.415114	-0.842126	-0.344244
10124	10.237803	1.233523	0.743482	-0.109208	-0.957648	-0.427351	0.164352	-0.312851	0.935475	-0.895970	-0.444024	0.008916	0.412584	-0.839623	-0.353281
10125	10.524229	1.149412	1.253484	-0.213574	-1.083322	-0.453635	0.172895	-0.319900	0.931542	-0.896078	-0.443678	0.013950	0.408842	-0.837146	-0.363365
10126	10.833040	1.069800	1.798028	-0.377668	-1.225458	-0.465950	0.182106	-0.328116	0.926918	-0.896779	-0.442039	0.019709	0.403267	-0.834830	-0.374746
10127	11.085019	1.358981	2.216750	-0.559269	-1.374948	-0.476452	0.191904	-0.337462	0.921571	-0.898117	-0.438970	0.026277	0.395675	-0.832721	-0.387321
10128	10.876206	2.079952	2.782499	-0.832612	-1.531100	-0.464154	0.202109	-0.348194	0.915376	-0.900448	-0.433645	0.033862	0.385157	-0.831092	-0.401174
10129	10.906727	2.537941	3.326686	-1.183409	-1.708704	-0.451393	0.212671	-0.360429	0.908219	-0.903979	-0.425424	0.042848	0.370935	-0.830124	-0.416296
10130	11.003668	2.571169	3.522927	-1.561878	-1.864869	-0.450039	0.223548	-0.374020	0.900075	-0.908642	-0.414123	0.053590	0.352698	-0.829826	-0.432426
10131	11.273768	2.966494	2.160393	-1.755040	-1.995892	-0.453651	0.234546	-0.388711	0.891006	-0.913606	-0.401304	0.065422	0.332134	-0.829373	-0.449253
10132	11.606855	3.745291	-0.057658	-1.962285	-2.090389	-0.444019	0.245365	-0.404276	0.881111	-0.918824	-0.386804	0.078391	0.309126	-0.828820	-0.466367
10133	12.014964	3.774318	-1.440419	-2.141832	-2.148839	-0.440918	0.255832	-0.420392	0.870529	-0.924063	-0.370889	0.092457	0.284001	-0.828077	-0.483354
10134	12.621361	3.835659	-1.721270	-2.149213	-2.171459	-0.450303	0.265943	-0.436695	0.859402	-0.928708	-0.355046	0.106977	0.258411	-0.826583	-0.499984
10135	13.391529	3.705025	-1.707738	-2.079779	-2.194540	-0.438553	0.275449	-0.453269	0.847747	-0.932624	-0.339845	0.121321	0.233111	-0.824047	-0.516339
10136	14.320832	2.456736	-1.198660	-2.057192	-2.204413	-0.438504	0.284455	-0.469902	0.835630	-0.935919	-0.324958	0.135861	0.207703	-0.820728	-0.532226
10137	15.087893	1.982409	-0.385320	-1.995139	-2.189311	-0.419555	0.292693	-0.486478	0.823207	-0.938593	-0.310644	0.150143	0.182683	-0.816603	-0.547528
10138	15.695748	1.250322	-0.005869	-2.031105	-2.182207	-0.353502	0.299769	-0.503124	0.810559	-0.940985	-0.295858	0.164362	0.157116	-0.811994	-0.562121
10139	15.434480	-0.998927	-1.186439	-2.044604	-2.140823	-0.271852	0.305450	-0.519657	0.797908	-0.943102	-0.280712	0.178212	0.131373	-0.806943	-0.575833
10140	13.364555	-4.329272	-4.105891	-1.617543	-2.111852	-0.258068	0.310466	-0.535853	0.785157	-0.944245	-0.269077	0.189733	0.109599	-0.800287	-0.589516
10141	11.615570	-6.240600	-7.486745	-0.835669	-2.175906	-0.269408	0.315268	-0.552432	0.771638	-0.944246	-0.263912	0.196850	0.094899	-0.790677	-0.604834
10142	11.119293	-6.049201	-8.508553	-0.213202	-2.252355	-0.274276	0.319911	-0.569317	0.757321	-0.943560	-0.263781	0.200285	0.085742	-0.778651	-0.621571
10143	11.231560	-3.918572	-8.400276	0.171509	-2.225588	-0.249648	0.324144	-0.585824	0.742792	-0.942603	-0.266565	0.201104	0.080191	-0.765345	-0.638605
10144	11.244193	-1.848109	-7.777634	0.136833	-2.061409	-0.226706	0.327884	-0.600805	0.729058	-0.941753	-0.268956	0.201899	0.074783	-0.752792	-0.653997
10145	10.454923	-1.654782	-6.709497	-0.274596	-1.842139	-0.303469	0.332071	-0.613748	0.716269	-0.940934	-0.268765	0.205932	0.066118	-0.742347	-0.666746
10146	8.962398	-2.320669	-6.768982	-0.162066	-1.540173	-0.404821	0.336845	-0.623962	0.705129	-0.939680	-0.270083	0.209897	0.059476	-0.733298	-0.677301
10147	7.156763	-2.232894	-6.462835	0.028652	-1.245948	-0.482281	0.342121	-0.631726	0.695611	-0.938015	-0.273340	0.213105	0.055514	-0.725402	-0.686084
10148	5.889436	-1.821630	-5.718468	0.158858	-0.958440	-0.453985	0.346892	-0.637340	0.688087	-0.936364	-0.277378	0.215138	0.053744	-0.718929	-0.693002
10149	5.402083	-1.060803	-5.937201	0.528336	-0.667357	-0.362770	0.350686	-0.641088	0.682660	-0.934796	-0.283500	0.213974	0.056358	-0.713186	-0.698706
10150	3.818252	1.033342	-9.018290	1.337223	-0.630491	-0.286294	0.353737	-0.644677	0.677689	-0.932966	-0.294836	0.206511	0.066674	-0.705311	-0.705756
10151	3.280546	2.716645	-9.768550	0.974095	-0.744800	-0.207963	0.356228	-0.649266	0.671979	-0.931535	-0.303035	0.201030	0.073111	-0.697584	-0.712763
10152	5.465710	2.026527	-6.248757	0.157198	-0.469717	-0.107331	0.357562	-0.652161	0.668458	-0.931036	-0.304841	0.200608	0.072945	-0.694088	-0.716185
10153	6.297417	2.551897	-4.564137	0.033663	0.038992	0.003355	0.357534	-0.651886	0.668740	-0.931011	-0.305074	0.200369	0.073397	-0.694244	-0.715988
10154	6.695469	1.916059	-4.931147	-0.323675	0.496119	0.082790	0.356395	-0.648634	0.672500	-0.931542	-0.302295	0.202108	0.072199	-0.698492	-0.711966
10155	5.969099	0.177675	-4.728031	-0.593343	0.866804	0.169117	0.354236	-0.643040	0.678982	-0.932552	-0.297057	0.205194	0.069748	-0.705873	-0.704897
10156	5.150528	-1.304214	-4.577002	-0.343823	1.154413	0.294119	0.350671	-0.635659	0.687726	-0.933830	-0.292748	0.205575	0.070655	-0.714308	-0.696256
10157	4.874622	-1.670637	-4.779667	0.120855	1.457375	0.438777	0.345528	-0.626451	0.698691	-0.935256	-0.290867	0.201724	0.076856	-0.723156	-0.686395
10158	4.943405	-1.239189	-4.852695	0.439356	1.703983	0.563707	0.338841	-0.615637	0.711461	-0.936826	-0.290578	0.194733	0.086850	-0.732499	-0.675205
10159	5.407655	-0.596262	-4.554619	0.605840	1.952479	0.652020	0.330945	-0.603119	0.725757	-0.938435	-0.291092	0.186022	0.099069	-0.742639	-0.662323
10160	6.268528	-0.108589	-4.495638	0.725014	2.231116	0.682219	0.322148	-0.588363	0.741653	-0.939895	-0.292467	0.176240	0.113216	-0.753851	-0.647217
10161	7.074087	-0.162950	-5.104015	0.698765	2.482408	0.679132	0.312802	-0.571473	0.758666	-0.941199	-0.293857	0.166711	0.127669	-0.766203	-0.629789
10162	7.805918	-0.433997	-5.454745	0.622870	2.633982	0.667481	0.302942	-0.553030	0.776134	-0.942416	-0.294931	0.157693	0.141697	-0.779213	-0.610532
10163	8.357464	-0.409102	-5.633849	0.645716	2.785662	0.663524	0.292569	-0.533086	0.793865	-0.943421	-0.296419	0.148638	0.156080	-0.792436	-0.589648
10164	8.372592	-0.131232	-5.610229	0.592820	2.941134	0.670264	0.281411	-0.511514	0.811887	-0.944378	-0.297670	0.139793	0.170169	-0.806068	-0.566830
10165	8.205841	0.089936	-5.485216	0.473709	3.090367	0.677057	0.269585	-0.488388	0.829941	-0.945398	-0.298152	0.131637	0.183158	-0.820112	-0.542098
10166	8.045027	0.243555	-5.230691	0.346599	3.259906	0.700699	0.256752	-0.463446	0.848113	-0.946587	-0.297698	0.123888	0.195066	-0.834622	-0.515126
10167	8.044649	0.377238	-5.045477	0.192812	3.396627	0.752517	0.242853	-0.437063	0.866024	-0.948073	-0.295946	0.116503	0.205377	-0.849348	-0.486239
10168	8.317342	0.261244	-5.116604	0.094415	3.521983	0.822467	0.227608	-0.409256	0.883575	-0.949811	-0.293287	0.108825	0.214604	-0.863998	-0.455470
10169	8.599361	0.172801	-5.315878	0.134576	3.635843	0.896607	0.211143	-0.380190	0.900485	-0.951476	-0.290931	0.100267	0.223858	-0.877961	-0.423170
10170	8.875150	0.489449	-5.452066	0.194061	3.724719	0.956946	0.193469	-0.349963	0.916567	-0.952969	-0.289165	0.090744	0.233282	-0.891016	-0.389448
10171	9.037701	0.975369	-5.203536	0.234873	3.804480	0.985978	0.175045	-0.318662	0.931565	-0.954221	-0.287984	0.080791	0.242531	-0.903061	-0.354484
10172	9.224851	1.414025	-4.975895	0.254375	3.849990	0.990564	0.156029	-0.286477	0.945297	-0.955233	-0.287309	0.070599	0.251367	-0.913994	-0.318481
10173	9.276695	1.716307	-4.532321	0.211959	3.893872	0.988713	0.136671	-0.253513	0.957628	-0.956135	-0.286594	0.060588	0.259090	-0.923902	-0.281562
10174	9.351719	1.966907	-4.239517	0.113761	3.917785	1.003917	0.116748	-0.219958	0.968498	-0.957108	-0.285282	0.050584	0.265168	-0.932863	-0.243830
10175	9.621785	2.019395	-3.943051	-0.046633	3.921092	1.043703	0.096311	-0.186166	0.977786	-0.958342	-0.282730	0.040565	0.268897	-0.940960	-0.205641
10176	10.072647	2.012571	-3.528586	-0.177482	3.925772	1.085686	0.075263	-0.152086	0.985497	-0.959751	-0.279223	0.030206	0.270580	-0.948106	-0.166980
10177	10.309233	1.886362	-3.330405	-0.360850	3.908453	1.146727	0.053720	-0.118062	0.991552	-0.961464	-0.274243	0.019436	0.269632	-0.954386	-0.128244
10178	10.562571	1.384466	-2.914728	-0.544764	3.848549	1.189096	0.031926	-0.084404	0.995920	-0.963431	-0.267830	0.008186	0.266046	-0.959762	-0.089868
10179	10.958526	0.861705	-2.495246	-0.614709	3.713086	1.195245	0.010645	-0.051833	0.998599	-0.965306	-0.261102	-0.003262	0.260905	-0.963919	-0.052814
10180	12.699111	0.869806	-0.872263	-0.779760	3.556062	1.205352	-0.010184	-0.020554	0.999737	-0.967313	-0.253139	-0.015058	0.253381	-0.967212	-0.017304
10181	12.283153	-2.364835	2.210630	-1.337417	3.473268	1.250279	-0.030830	0.010034	0.999474	-0.970356	-0.240110	-0.027521	0.239707	-0.970694	0.017139
10182	10.887125	0.456984	-0.074078	-0.210598	2.884522	1.149556	-0.048891	0.035323	0.998179	-0.970397	-0.238328	-0.039096	0.236513	-0.970542	0.045929
10183	9.988915	1.301375	0.047480	-0.645195	2.185731	0.977756	-0.063440	0.054254	0.996510	-0.971353	-0.232498	-0.049180	0.229018	-0.971083	0.067449
10184	8.632200	3.935149	0.756918	-0.459511	1.452582	0.768250	-0.074223	0.066628	0.995013	-0.971862	-0.228500	-0.057195	0.223550	-0.971261	0.081714
10185	7.430210	4.346593	1.678444	-0.976399	0.821480	0.649211	-0.082300	0.073172	0.993918	-0.973491	-0.219457	-0.064452	0.213406	-0.972874	0.089294
10186	6.298889	2.276167	1.621314	-1.021949	0.239765	0.589054	-0.088558	0.074284	0.993297	-0.975116	-0.209939	-0.071237	0.203240	-0.974889	0.091027
10187	5.825107	0.563580	0.258466	-0.676226	-0.395564	0.508053	-0.092690	0.069385	0.993274	-0.976012	-0.203700	-0.076850	0.196998	-0.976572	0.086602
10188	6.961539	0.993075	-2.818937	0.275076	-0.898860	0.463779	-0.095443	0.059698	0.993643	-0.975029	-0.206686	-0.081237	0.200523	-0.976584	0.077934
10189	7.733635	0.872506	-2.821457	0.677600	-1.235940	0.403147	-0.096811	0.046797	0.994202	-0.973260	-0.213511	-0.084722	0.208309	-0.975819	0.066216
10190	7.714323	1.790360	-3.608981	1.117520	-1.382187	0.364283	-0.097397	0.032560	0.994713	-0.970510	-0.224551	-0.087677	0.220509	-0.973918	0.053470
10191	7.009713	2.631755	-4.932128	1.181191	-1.424411	0.321625	-0.097248	0.017975	0.995098	-0.967520	-0.236119	-0.090288	0.233339	-0.971558	0.040354
10192	6.756408	2.238903	-6.517845	1.017100	-1.347763	0.272891	-0.096664	0.004264	0.995308	-0.964827	-0.246020	-0.092650	0.244470	-0.969255	0.027895
10193	6.910917	1.675036	-7.928513	0.919139	-1.135272	0.192474	-0.095655	-0.007195	0.995389	-0.962353	-0.254913	-0.094323	0.254416	-0.966937	0.017459
10194	6.776766	1.506308	-8.644811	0.822423	-0.804695	0.058101	-0.094119	-0.015108	0.995446	-0.960171	-0.262848	-0.094773	0.263083	-0.964719	0.010233
10195	5.911511	0.911234	-9.750832	0.862496	-0.432983	-0.070638	-0.092252	-0.019078	0.995553	-0.957935	-0.271169	-0.093962	0.271755	-0.962343	0.006741
10196	4.229696	0.408794	-9.793149	0.615797	-0.288650	-0.214240	-0.089385	-0.021277	0.995770	-0.956439	-0.277129	-0.091776	0.277910	-0.960597	0.004421
10197	3.153498	-4.421516	-6.980075	0.021340	-0.786682	-0.284472	-0.084443	-0.028030	0.996034	-0.956631	-0.277403	-0.088909	0.278794	-0.960345	-0.003390
10198	5.763005	1.127959	-10.952276	2.041103	-1.702625	-0.287159	-0.076755	-0.043534	0.996099	-0.950962	-0.297038	-0.086259	0.299634	-0.953873	-0.018600
10199	18.882487	5.304864	-4.244156	0.926565	-2.399439	-0.259458	-0.066943	-0.065577	0.995599	-0.948326	-0.305998	-0.083920	0.310155	-0.949771	-0.041704
10200	31.287391	3.122169	1.574876	1.235834	-2.036692	-0.377226	-0.056884	-0.083735	0.994863	-0.944650	-0.317980	-0.080776	0.323110	-0.944393	-0.061013
10201	20.332925	0.795956	-1.737816	2.394314	-1.694793	-0.897794	-0.042730	-0.096687	0.994397	-0.937083	-0.341291	-0.073452	0.346480	-0.934972	-0.076020
10202	7.392426	3.788578	-6.076620	3.074591	-1.740431	-0.745738	-0.029449	-0.110232	0.993470	-0.926252	-0.370613	-0.068578	0.375752	-0.922223	-0.091188
10203	5.247608	6.158434	-9.209340	3.083869	-1.867810	-0.341879	-0.018984	-0.125994	0.991849	-0.914303	-0.399244	-0.068215	0.404585	-0.908146	-0.107617
10204	4.146060	8.166278	-6.749885	3.000129	-1.839065	-0.071231	-0.010577	-0.142312	0.989765	-0.901767	-0.426361	-0.070940	0.432093	-0.893288	-0.123822
10205	7.030587	10.127992	-5.719039	1.863552	-1.765091	0.183742	-0.004422	-0.158764	0.987307	-0.893545	-0.442635	-0.075180	0.448952	-0.882535	-0.139906
10206	9.944334	8.677864	-4.500237	0.023457	-1.449647	0.301215	-0.000512	-0.172919	0.984936	-0.893440	-0.442337	-0.078122	0.449183	-0.880021	-0.154266
10207	10.322704	4.043458	-3.774135	-1.273505	-1.082571	0.312008	0.001522	-0.183808	0.982961	-0.899090	-0.430554	-0.079119	0.437760	-0.883650	-0.165915
10208	9.589072	-0.455643	-4.072307	-1.966253	-0.972549	0.254598	0.003502	-0.193550	0.981084	-0.907539	-0.412629	-0.078165	0.419952	-0.890099	-0.177100
10209	10.875548	-2.815875	-4.260241	-2.142762	-0.957711	0.194562	0.005686	-0.202873	0.979188	-0.916338	-0.393102	-0.076124	0.400364	-0.896835	-0.188136
10210	11.862509	-6.059370	-4.768382	-1.977617	-0.945926	0.133058	0.008272	-0.211945	0.977247	-0.924094	-0.375028	-0.073514	0.382076	-0.902459	-0.198959
10211	11.899447	-7.444793	-5.377154	-1.310971	-0.920865	0.027750	0.011507	-0.220354	0.975352	-0.929026	-0.363124	-0.071077	0.369835	-0.905310	-0.208893
10212	10.517130	-7.339781	-5.745411	-0.528784	-0.864739	-0.109727	0.015802	-0.227847	0.973569	-0.930960	-0.358578	-0.068809	0.364778	-0.905266	-0.217783
10213	9.158835	-5.495436	-6.122691	0.321568	-0.806434	-0.213019	0.020768	-0.234351	0.971930	-0.929744	-0.361982	-0.067415	0.367620	-0.902246	-0.225404
10214	8.795160	-2.776774	-6.370416	0.745057	-0.726313	-0.279456	0.026144	-0.239940	0.970436	-0.926920	-0.369347	-0.066349	0.374347	-0.897781	-0.232061
10215	9.093917	-1.136399	-6.170409	0.820510	-0.615390	-0.303041	0.031305	-0.244302	0.969194	-0.923731	-0.377434	-0.065302	0.381761	-0.893230	-0.237485
10216	9.632878	-0.236482	-6.093103	0.749961	-0.508536	-0.294573	0.036068	-0.247794	0.968141	-0.920748	-0.384839	-0.064196	0.388486	-0.889099	-0.242036
10217	9.948386	-0.073302	-5.493466	0.567099	-0.429106	-0.270084	0.040259	-0.250537	0.967270	-0.918428	-0.390551	-0.062932	0.393535	-0.885833	-0.245824
10218	9.966894	0.055530	-4.641812	0.487748	-0.352661	-0.256821	0.044102	-0.252734	0.966530	-0.916394	-0.395507	-0.061605	0.397840	-0.883006	-0.249047
10219	9.763149	-0.075242	-3.866203	0.473793	-0.310117	-0.246651	0.047630	-0.254469	0.965907	-0.914386	-0.400317	-0.060374	0.402032	-0.880336	-0.251750
10220	9.676139	-0.154108	-3.056453	0.527198	-0.265327	-0.243038	0.051015	-0.255911	0.965353	-0.912139	-0.405567	-0.059311	0.406694	-0.877511	-0.254117
10221	9.236686	0.079568	-2.030538	0.575192	-0.271492	-0.225854	0.054213	-0.257349	0.964797	-0.909666	-0.411192	-0.058565	0.411788	-0.874467	-0.256394
10222	9.221040	0.323883	-1.217164	0.604312	-0.283444	-0.186836	0.057179	-0.259137	0.964147	-0.907062	-0.416946	-0.058270	0.417097	-0.871209	-0.258894
10223	9.300252	0.429788	-0.620633	0.552865	-0.304434	-0.155870	0.059897	-0.261112	0.963448	-0.904650	-0.422166	-0.058173	0.421925	-0.868099	-0.261501
10224	9.538479	0.340476	-0.206094	0.461892	-0.342426	-0.136192	0.062673	-0.263583	0.962599	-0.902613	-0.426523	-0.058026	0.425865	-0.865218	-0.264645
10225	9.729132	0.190499	-0.270636	0.359019	-0.377211	-0.126800	0.065457	-0.266280	0.961670	-0.900997	-0.429968	-0.057728	0.428859	-0.862683	-0.268062
10226	9.760286	0.166746	-0.637814	0.234057	-0.422747	-0.124850	0.068490	-0.269459	0.960573	-0.899912	-0.432317	-0.057109	0.430660	-0.860520	-0.272099
10227	9.382300	0.059478	-0.795474	0.083753	-0.474115	-0.131459	0.071745	-0.272947	0.959350	-0.899457	-0.433400	-0.056042	0.431079	-0.858874	-0.276598
10228	8.932790	-0.367365	-1.187682	-0.080654	-0.532426	-0.146683	0.075446	-0.276950	0.957918	-0.899700	-0.433110	-0.054358	0.429938	-0.857738	-0.281849
10229	8.906051	-0.997213	-1.754753	-0.167342	-0.566260	-0.168085	0.079417	-0.281059	0.956399	-0.900287	-0.432152	-0.052239	0.427992	-0.856884	-0.287354
10230	8.977966	-1.231238	-2.221586	-0.199671	-0.587200	-0.174988	0.083588	-0.285398	0.954757	-0.900999	-0.430937	-0.049935	0.425692	-0.856061	-0.293165
10231	8.981719	-1.288629	-2.623648	-0.209338	-0.597102	-0.187625	0.087843	-0.289681	0.953084	-0.901725	-0.429693	-0.047492	0.423291	-0.855248	-0.298958
10232	9.089019	-1.071584	-2.891086	-0.231581	-0.603749	-0.199432	0.092275	-0.294052	0.951325	-0.902525	-0.428296	-0.044844	0.420635	-0.854457	-0.304910
10233	8.953620	-0.960777	-3.098515	-0.238570	-0.610479	-0.207021	0.096733	-0.298361	0.949538	-0.903328	-0.426879	-0.042108	0.417902	-0.853671	-0.310811
10234	8.955099	-0.983921	-3.439484	-0.233233	-0.614519	-0.223148	0.101393	-0.302718	0.947671	-0.904080	-0.425562	-0.039210	0.415162	-0.852795	-0.316830
10235	9.090335	-1.148162	-3.629555	-0.188760	-0.599864	-0.246509	0.106135	-0.306764	0.945849	-0.904603	-0.424712	-0.036239	0.412831	-0.851772	-0.322576
10236	9.232278	-1.634949	-3.952848	-0.064376	-0.591149	-0.277763	0.111166	-0.310680	0.943992	-0.904567	-0.425024	-0.033358	0.411583	-0.850196	-0.328279
10237	9.536635	-1.846533	-4.112706	0.098673	-0.564287	-0.318079	0.116394	-0.314098	0.942229	-0.903796	-0.426864	-0.030651	0.411831	-0.848015	-0.333565
10238	9.456288	-1.805846	-3.836819	0.279913	-0.550608	-0.355455	0.121956	-0.317303	0.940450	-0.902217	-0.430359	-0.028203	0.413680	-0.845050	-0.338761
10239	9.444420	-1.696462	-3.294096	0.421444	-0.553098	-0.398342	0.127871	-0.320224	0.938672	-0.899966	-0.435191	-0.025865	0.416785	-0.841466	-0.343839
10240	9.825085	-1.029684	-2.523211	0.508621	-0.568097	-0.430795	0.134196	-0.323173	0.936777	-0.897271	-0.440851	-0.023550	0.420590	-0.837383	-0.349134
10241	9.960863	-0.260516	-1.453060	0.482273	-0.599222	-0.447334	0.140764	-0.326175	0.934770	-0.894616	-0.446341	-0.021027	0.424085	-0.833300	-0.354630
10242	10.414430	0.885180	-0.328636	0.393886	-0.672280	-0.441094	0.147636	-0.329848	0.932418	-0.892303	-0.451067	-0.018283	0.426614	-0.829300	-0.360918
10243	10.903455	1.856744	0.831137	0.154704	-0.776982	-0.427272	0.154790	-0.334326	0.929659	-0.890992	-0.453776	-0.014835	0.426817	-0.826023	-0.368122
10244	11.045967	2.454243	1.752320	-0.145118	-0.906198	-0.422326	0.162479	-0.339935	0.926307	-0.890937	-0.454009	-0.010337	0.424065	-0.823602	-0.376628
10245	10.886658	2.724801	2.333552	-0.427846	-1.064085	-0.409875	0.170644	-0.346814	0.922280	-0.892052	-0.451906	-0.004883	0.418477	-0.821889	-0.386491
10246	10.654107	2.606446	2.825186	-0.733517	-1.232309	-0.412740	0.179503	-0.355116	0.917426	-0.894364	-0.447337	0.001836	0.409747	-0.820843	-0.397901
10247	10.664290	2.127821	2.983123	-0.928386	-1.405045	-0.425741	0.189027	-0.364732	0.911723	-0.897327	-0.441263	0.009516	0.398839	-0.819913	-0.410695
10248	10.805640	1.739371	3.010327	-1.122823	-1.554433	-0.426552	0.199026	-0.375624	0.905149	-0.900899	-0.433649	0.018133	0.385706	-0.819058	-0.424706
10249	10.974841	1.262633	2.542106	-1.161662	-1.703343	-0.428612	0.209375	-0.387702	0.897691	-0.904418	-0.425790	0.027051	0.371740	-0.817551	-0.439795
10250	11.213979	1.308137	1.471192	-1.176216	-1.839805	-0.422947	0.219974	-0.400942	0.889301	-0.907790	-0.417864	0.036153	0.357112	-0.815252	-0.455890
10251	11.716868	1.543510	0.996305	-1.249982	-1.958915	-0.424318	0.230704	-0.415112	0.880033	-0.911192	-0.409434	0.045743	0.341327	-0.812432	-0.472705
10252	12.229290	1.974321	0.245719	-1.306663	-2.064611	-0.415584	0.241429	-0.430157	0.869872	-0.914553	-0.400608	0.055727	0.324506	-0.808999	-0.490120
10253	12.699144	2.445370	-0.315148	-1.361826	-2.129767	-0.413566	0.251971	-0.445690	0.858994	-0.917824	-0.391441	0.066129	0.306772	-0.805068	-0.507697
10254	12.650620	2.795351	-0.396780	-1.449974	-2.189887	-0.422095	0.262417	-0.461619	0.847375	-0.921040	-0.381724	0.077280	0.287789	-0.800746	-0.525341
10255	12.748960	2.419015	-0.046804	-1.560781	-2.259372	-0.440792	0.272786	-0.477982	0.834937	-0.924184	-0.371347	0.089357	0.267341	-0.796011	-0.543042
10256	13.244296	1.013796	0.953512	-1.678711	-2.319544	-0.496689	0.283383	-0.494535	0.821663	-0.927096	-0.360452	0.102799	0.245332	-0.790892	-0.560627
10257	14.257559	-0.625790	2.238358	-1.768991	-2.373401	-0.531206	0.293893	-0.511339	0.807564	-0.929687	-0.349197	0.117229	0.222055	-0.785235	-0.578012
10258	15.561854	-2.328272	4.004978	-1.988289	-2.441522	-0.519482	0.303879	-0.528610	0.792609	-0.932282	-0.336352	0.133108	0.196233	-0.779383	-0.595024
10259	15.741810	-4.350379	1.001715	-1.537148	-2.412247	-0.520664	0.313240	-0.545575	0.777322	-0.933514	-0.327244	0.146500	0.174447	-0.771531	-0.611808
10260	12.843220	-8.207249	-3.821464	-0.899068	-2.400501	-0.663199	0.323452	-0.561748	0.761458	-0.932890	-0.324032	0.157226	0.158416	-0.761211	-0.628858
10261	11.711825	-8.181463	-8.934853	0.348886	-2.547478	-0.742659	0.334372	-0.578494	0.744003	-0.929892	-0.330913	0.160616	0.153285	-0.745548	-0.648585
10262	11.915677	-4.498272	-11.225809	1.068904	-2.458193	-0.743560	0.345069	-0.594033	0.726672	-0.925712	-0.343156	0.159066	0.154871	-0.727578	-0.668315
10263	11.398373	-2.305629	-10.152808	1.006670	-2.247358	-0.755936	0.355579	-0.607539	0.710253	-0.921485	-0.354955	0.157707	0.156295	-0.710565	-0.686053
10264	10.978018	-1.476319	-8.814592	0.701908	-2.035787	-0.747092	0.365625	-0.619108	0.694999	-0.917691	-0.364485	0.158094	0.155440	-0.695597	-0.701415
10265	10.891516	-1.027025	-8.580686	0.548839	-1.674501	-0.754813	0.375162	-0.627853	0.681949	-0.914033	-0.372995	0.159433	0.154263	-0.683137	-0.713812
10266	9.346966	-1.103589	-7.570929	0.429826	-1.437493	-0.838322	0.385013	-0.634378	0.670320	-0.910181	-0.381213	0.162010	0.152759	-0.672489	-0.724171
10267	8.875643	-0.646073	-7.151315	0.832607	-1.136236	-0.884994	0.394832	-0.638520	0.660606	-0.905432	-0.392422	0.161858	0.155887	-0.662040	-0.733077
10268	8.444797	-0.291290	-5.783571	0.861027	-0.681457	-0.802568	0.403154	-0.639755	0.654355	-0.900860	-0.403233	0.160792	0.160990	-0.654306	-0.738895
10269	7.859108	1.079366	-8.365020	1.893368	-0.366530	-0.637535	0.409528	-0.639495	0.650641	-0.895061	-0.419624	0.150935	0.176502	-0.644176	-0.744234
10270	3.397673	4.211926	-12.110658	2.014602	-0.482906	-0.625586	0.415990	-0.639841	0.646186	-0.888755	-0.436502	0.139931	0.192528	-0.632511	-0.750242
10271	4.469846	2.733108	-7.910315	0.798115	-0.357328	-0.520190	0.421331	-0.639780	0.642776	-0.885004	-0.444876	0.137307	0.198110	-0.626711	-0.753648
10272	5.793375	3.431882	-5.393656	0.654497	0.190087	-0.296561	0.423566	-0.637207	0.643862	-0.882425	-0.450882	0.134283	0.204740	-0.625038	-0.753266
10273	6.227936	4.350545	-4.833035	0.062687	0.684519	-0.070536	0.422804	-0.632578	0.648908	-0.881983	-0.451743	0.134293	0.208189	-0.629105	-0.748922
10274	6.645633	2.200675	-4.926670	-0.549166	1.130106	0.136951	0.419242	-0.625971	0.657568	-0.883694	-0.447415	0.137496	0.208137	-0.638733	-0.740742
10275	6.079283	-0.054599	-4.911920	-0.513862	1.534476	0.324910	0.413189	-0.617506	0.669300	-0.886107	-0.442102	0.139144	0.209976	-0.650564	-0.729847
10276	5.029898	-1.011080	-4.981728	-0.091184	1.847962	0.511471	0.404705	-0.607565	0.683432	-0.888385	-0.438384	0.136352	0.216763	-0.662333	-0.717167
10277	5.001457	-0.570253	-5.718989	0.333271	2.140024	0.703312	0.393717	-0.596326	0.699559	-0.890438	-0.436395	0.129148	0.228270	-0.673762	-0.702807
10278	5.109969	0.038275	-5.739741	0.501484	2.448012	0.841213	0.380451	-0.583283	0.717661	-0.892507	-0.434858	0.119708	0.242257	-0.686061	-0.686026
10279	5.314174	0.921979	-5.697470	0.517060	2.775111	0.892429	0.365575	-0.567908	0.737452	-0.894532	-0.433322	0.109745	0.257229	-0.699795	-0.666424
10280	6.040980	1.639430	-5.641850	0.320515	3.002090	0.875060	0.349800	-0.550385	0.758101	-0.896809	-0.430711	0.101104	0.270876	-0.715238	-0.644253
10281	6.807681	1.692076	-6.226816	-0.105038	3.193527	0.843411	0.333442	-0.530851	0.779111	-0.899969	-0.425407	0.095313	0.280842	-0.732957	-0.619598
10282	7.375030	0.829466	-6.551112	-0.577408	3.366075	0.833267	0.316363	-0.509285	0.800339	-0.904308	-0.416796	0.092238	0.286603	-0.752934	-0.592410
10283	7.128347	0.039381	-6.379127	-0.894324	3.552758	0.880961	0.298169	-0.485758	0.821666	-0.909581	-0.405598	0.090288	0.289408	-0.774293	-0.562773
10284	6.623561	-0.614147	-6.376338	-1.140657	3.700388	0.966227	0.278623	-0.460485	0.842807	-0.915666	-0.392079	0.088489	0.289699	-0.796384	-0.530892
10285	6.554531	-1.248316	-6.208103	-1.224394	3.822687	1.061456	0.257842	-0.433688	0.863384	-0.922046	-0.377460	0.085759	0.288701	-0.818192	-0.497205
10286	6.990865	-1.373765	-6.254688	-1.192393	3.906968	1.151325	0.235920	-0.405512	0.883121	-0.928319	-0.362758	0.081423	0.287341	-0.839027	-0.462026
10287	7.527618	-1.472628	-6.550699	-1.065524	3.954366	1.198838	0.213442	-0.376199	0.901619	-0.934063	-0.349039	0.075487	0.286302	-0.858281	-0.425893
10288	7.890742	-1.539426	-6.611160	-0.827812	3.969967	1.196897	0.190841	-0.345835	0.918683	-0.938851	-0.337551	0.067960	0.286600	-0.875475	-0.389106
10289	8.018420	-1.244647	-6.433795	-0.507606	3.982022	1.159139	0.168506	-0.314522	0.934174	-0.942389	-0.329250	0.059134	0.288978	-0.890320	-0.351883
10290	8.021853	-0.864802	-5.985031	-0.197338	3.987380	1.110166	0.146395	-0.282348	0.948076	-0.944709	-0.324177	0.049331	0.293416	-0.902878	-0.314195
10291	8.278920	-0.338085	-5.846207	0.041611	4.012163	1.073159	0.124389	-0.249357	0.960390	-0.946035	-0.321708	0.039001	0.299240	-0.913414	-0.275918
10292	8.533300	-0.286452	-5.226911	0.160229	4.036756	1.046212	0.102259	-0.215623	0.971107	-0.946734	-0.320755	0.028472	0.305348	-0.922292	-0.236938
10293	8.839164	0.009440	-4.755463	0.361740	4.044689	1.012585	0.080207	-0.181415	0.980130	-0.946538	-0.322098	0.017841	0.312462	-0.929162	-0.197550
10294	9.248129	0.869238	-4.498287	0.472812	4.018535	0.978160	0.058225	-0.147101	0.987406	-0.945718	-0.324904	0.007363	0.319729	-0.934237	-0.158034
10295	9.690636	1.587302	-4.186504	0.369640	3.980349	0.946179	0.036475	-0.112900	0.992937	-0.944974	-0.327137	-0.002483	0.325106	-0.938208	-0.118620
10296	10.245488	2.230793	-3.446054	0.188703	3.928592	0.919281	0.014942	-0.078960	0.996766	-0.944592	-0.328033	-0.011826	0.327905	-0.941361	-0.079487
10297	10.679413	2.610043	-2.585684	-0.171109	3.885516	0.906284	-0.006306	-0.045269	0.998955	-0.945192	-0.325856	-0.020733	0.326454	-0.944335	-0.040733
10298	10.768102	1.911811	-1.996603	-0.569986	3.763175	0.900408	-0.027009	-0.012557	0.999556	-0.946885	-0.320205	-0.029608	0.320435	-0.947265	-0.003242
10299	10.851694	0.764828	-1.437572	-0.818199	3.545912	0.891775	-0.046636	0.018274	0.998745	-0.949144	-0.312466	-0.038602	0.311369	-0.949753	0.031917
10300	10.805237	-0.156401	-0.818062	-0.885637	3.235330	0.869958	-0.064818	0.046369	0.996819	-0.951372	-0.304327	-0.047706	0.301147	-0.951438	0.063840
10301	10.641338	-0.278030	-0.010713	-0.809666	2.863798	0.820252	-0.081082	0.071177	0.994163	-0.953176	-0.297097	-0.056469	0.291344	-0.952191	0.091934
10302	11.924216	0.078193	1.558681	-0.900960	2.511715	0.762688	-0.095545	0.092884	0.991082	-0.955080	-0.289138	-0.064976	0.280524	-0.952770	0.116338
10303	8.115260	0.292907	1.474596	-0.506770	2.027908	0.670164	-0.107536	0.110291	0.988065	-0.955808	-0.284986	-0.072214	0.273620	-0.952165	0.136063
10304	6.952101	0.960435	2.005696	-0.553099	1.401676	0.569339	-0.116768	0.122046	0.985632	-0.956665	-0.280377	-0.078619	0.266753	-0.952100	0.149496
10305	6.083575	1.736831	2.629522	-0.362181	0.792694	0.522431	-0.123832	0.128150	0.983994	-0.957000	-0.277575	-0.084285	0.262331	-0.952119	0.157012
10306	6.598081	1.486830	2.441088	-0.358736	0.253349	0.513636	-0.129405	0.129166	0.983143	-0.957285	-0.274815	-0.089896	0.258571	-0.952782	0.159212
10307	7.451427	0.658237	1.930089	-0.233566	-0.211748	0.485152	-0.133472	0.125833	0.983032	-0.957255	-0.273200	-0.095001	0.256610	-0.953692	0.156918
10308	8.330195	-0.132541	1.060931	-0.091198	-0.621008	0.446141	-0.136142	0.118715	0.983551	-0.956890	-0.272871	-0.099516	0.256569	-0.954698	0.150746
10309	8.231732	-0.274931	-0.794667	0.257216	-0.971805	0.409182	-0.137511	0.108326	0.984559	-0.955670	-0.275786	-0.103133	0.260355	-0.955096	0.141448
10310	7.721382	-0.097652	-1.775082	0.425101	-1.319810	0.343017	-0.137303	0.094790	0.985983	-0.954082	-0.280191	-0.105924	0.266223	-0.955253	0.128908
10311	7.608139	0.176925	-3.044051	0.601895	-1.575623	0.273519	-0.135621	0.078980	0.987608	-0.952088	-0.286172	-0.107858	0.274107	-0.954918	0.114007
10312	7.702921	0.376070	-4.171920	0.683630	-1.700229	0.224270	-0.133006	0.062118	0.989167	-0.949886	-0.292852	-0.109333	0.282888	-0.954138	0.097956
10313	7.465480	0.212524	-5.545170	0.753268	-1.708894	0.183392	-0.129799	0.045295	0.990505	-0.947484	-0.300129	-0.110437	0.292277	-0.952823	0.081873
10314	6.994104	-0.143438	-8.076283	0.943510	-1.600917	0.147972	-0.126413	0.029614	0.991536	-0.944489	-0.309160	-0.111182	0.303250	-0.950549	0.067051
10315	6.587254	-0.758257	-9.331013	1.084165	-1.340969	0.088731	-0.123072	0.016624	0.992258	-0.941031	-0.319466	-0.111366	0.315141	-0.947452	0.054961
10316	5.965388	-0.258644	-9.557545	1.298235	-0.941087	0.000358	-0.120021	0.007711	0.992741	-0.936857	-0.331734	-0.110688	0.328472	-0.943342	0.047039
10317	5.379258	0.532614	-10.930022	1.438368	-0.478875	-0.066423	-0.117763	0.003447	0.993036	-0.932116	-0.345261	-0.109340	0.342480	-0.938500	0.043871
10318	6.492456	-0.126955	-9.180513	0.897273	0.092344	-0.154206	-0.116612	0.004815	0.993166	-0.929192	-0.353653	-0.107386	0.350720	-0.935364	0.045714
10319	4.122273	-1.095171	-7.447366	0.978101	0.511845	-0.275014	-0.115847	0.010595	0.993211	-0.926045	-0.362761	-0.104143	0.359195	-0.931822	0.051837
10320	5.623072	-0.957087	-6.938101	0.215088	0.623191	-0.340176	-0.114898	0.017583	0.993222	-0.925669	-0.364706	-0.100627	0.360464	-0.930957	0.058180
10321	4.210184	-2.371828	-5.391494	-0.349185	0.315600	-0.272793	-0.113472	0.021530	0.993308	-0.927238	-0.361396	-0.098091	0.356866	-0.932164	0.060972
10322	9.189377	-4.538878	6.384734	-2.037532	-0.509269	-0.043165	-0.111254	0.016847	0.993649	-0.934377	-0.342308	-0.098814	0.338469	-0.939437	0.053825
10323	20.509109	-7.160594	11.790322	0.029107	-1.344146	0.462338	-0.110981	0.002652	0.993819	-0.933770	-0.342624	-0.103360	0.340232	-0.939469	0.040501
10324	39.336811	-1.347165	3.432302	2.451756	-2.044485	0.674274	-0.110004	-0.018907	0.993751	-0.924380	-0.365487	-0.109279	0.365269	-0.930624	0.022728
10325	29.345730	6.445859	4.037518	3.707881	-2.074982	-1.052989	-0.092353	-0.034019	0.995145	-0.911234	-0.400003	-0.098240	0.401403	-0.915882	0.005942
10326	9.597718	14.812830	0.533084	3.699492	-2.021046	-1.758351	-0.067944	-0.045072	0.996671	-0.897147	-0.434280	-0.080798	0.436476	-0.899650	-0.010929
10327	-3.927373	7.543494	-6.068793	4.155295	-1.960178	-0.876297	-0.051202	-0.058525	0.996972	-0.878741	-0.471711	-0.072821	0.474544	-0.879809	-0.027275
10328	-4.887695	7.141464	-11.891882	5.051637	-2.440639	0.113442	-0.039988	-0.080269	0.995971	-0.853584	-0.515410	-0.075810	0.519418	-0.853176	-0.047906
10329	6.486568	11.045405	-8.343715	3.882888	-2.276578	0.796719	-0.034470	-0.103649	0.994017	-0.832466	-0.547370	-0.085943	0.553003	-0.830447	-0.067416
10330	14.168718	14.563709	-6.030605	1.431678	-1.611880	1.070964	-0.034234	-0.122913	0.991827	-0.824103	-0.557969	-0.097592	0.565404	-0.820709	-0.082191
10331	13.637729	8.504493	-4.595254	-2.341569	-1.064479	0.803824	-0.034967	-0.136091	0.990079	-0.836844	-0.537578	-0.103447	0.546323	-0.832159	-0.095089
10332	9.480544	-0.170737	-4.805817	-4.371375	-0.780938	0.425391	-0.034330	-0.144911	0.988849	-0.859794	-0.500116	-0.103139	0.509486	-0.853747	-0.107424
10333	9.374426	-4.949570	-6.221362	-5.258873	-0.849460	0.206479	-0.031969	-0.153231	0.987673	-0.885328	-0.454276	-0.099134	0.463867	-0.877584	-0.121137
10334	11.802434	-10.660427	-7.396503	-5.022822	-0.914112	0.107720	-0.028773	-0.161854	0.986395	-0.907490	-0.409499	-0.093665	0.419088	-0.897838	-0.135099
10335	12.035325	-15.574245	-7.611352	-3.182554	-0.833306	-0.025571	-0.025137	-0.169265	0.985250	-0.920378	-0.380790	-0.088901	0.390221	-0.909037	-0.146215
10336	10.468951	-13.532018	-6.711708	-0.655039	-0.776440	-0.234939	-0.019858	-0.175506	0.984278	-0.922978	-0.375227	-0.085528	0.384339	-0.910166	-0.154537
10337	9.790122	-7.172409	-5.692130	1.170598	-0.652080	-0.290620	-0.014611	-0.180298	0.983503	-0.918467	-0.386370	-0.084475	0.395227	-0.904550	-0.159953
10338	9.230493	-1.647730	-4.825688	1.957958	-0.555193	-0.251516	-0.009977	-0.184385	0.982803	-0.910592	-0.404445	-0.085122	0.413186	-0.895782	-0.163865
10339	9.425968	1.811101	-3.969796	1.947182	-0.467181	-0.193804	-0.006219	-0.187730	0.982201	-0.902391	-0.422166	-0.086403	0.430873	-0.886867	-0.166780
10340	9.747558	2.716571	-3.030540	1.630327	-0.406290	-0.155414	-0.002949	-0.190736	0.981637	-0.895263	-0.436847	-0.087571	0.445528	-0.879081	-0.169471
10341	10.509184	2.212570	-2.504194	1.238403	-0.387312	-0.131216	-0.000002	-0.193529	0.981095	-0.889680	-0.447952	-0.088364	0.456584	-0.872861	-0.172178
10342	10.562389	1.139785	-2.205714	0.905097	-0.377131	-0.124199	0.002937	-0.196334	0.980533	-0.885520	-0.456063	-0.088666	0.464593	-0.868020	-0.175197
10343	10.249556	0.172275	-2.009836	0.612554	-0.362286	-0.112867	0.005656	-0.198935	0.979996	-0.882653	-0.461597	-0.088608	0.469990	-0.864496	-0.178201
10344	9.907431	-0.362254	-1.785497	0.334334	-0.347465	-0.117092	0.008429	-0.201473	0.979458	-0.881079	-0.464709	-0.088008	0.472894	-0.862238	-0.181431
10345	9.589764	-0.702501	-1.643723	0.044807	-0.336960	-0.128918	0.011187	-0.203758	0.978957	-0.880856	-0.465361	-0.086793	0.473253	-0.861349	-0.184687
10346	9.461539	-1.233198	-1.569338	-0.205717	-0.340018	-0.149482	0.014212	-0.206072	0.978434	-0.881818	-0.463886	-0.084892	0.471376	-0.861594	-0.188311
10347	9.609272	-1.909036	-1.593160	-0.303591	-0.352470	-0.179336	0.017480	-0.208260	0.977917	-0.883217	-0.461646	-0.082526	0.468638	-0.862271	-0.192009
10348	9.532764	-2.477645	-1.641680	-0.211258	-0.371579	-0.216936	0.021234	-0.210544	0.977354	-0.884172	-0.460270	-0.079943	0.466678	-0.862451	-0.195931
10349	9.311495	-2.530128	-1.577902	0.003571	-0.388560	-0.241363	0.025210	-0.212762	0.976779	-0.884100	-0.460817	-0.077557	0.466617	-0.861615	-0.199720
10350	9.222806	-2.082806	-1.576906	0.249822	-0.420691	-0.240067	0.029394	-0.215352	0.976094	-0.882874	-0.463474	-0.075668	0.468689	-0.859544	-0.203752
10351	9.222339	-1.122898	-1.230673	0.415084	-0.460517	-0.242610	0.033728	-0.218154	0.975331	-0.880845	-0.467567	-0.074121	0.472202	-0.856616	-0.207930
10352	9.578907	-0.234363	-0.880968	0.458275	-0.501273	-0.221413	0.038144	-0.221478	0.974419	-0.878599	-0.471965	-0.072881	0.476034	-0.853344	-0.212594
10353	9.493272	0.289861	-0.687699	0.430872	-0.521238	-0.198001	0.042401	-0.224959	0.973445	-0.876461	-0.476083	-0.071844	0.479603	-0.850140	-0.217354
10354	9.416634	0.347908	-0.525760	0.337590	-0.559706	-0.170882	0.046680	-0.228967	0.972314	-0.874768	-0.479330	-0.070879	0.482289	-0.847241	-0.222668
10355	9.437345	0.134881	-0.318533	0.253361	-0.594819	-0.155825	0.050945	-0.233229	0.971086	-0.873467	-0.481840	-0.069902	0.484211	-0.844651	-0.228265
10356	9.406238	-0.491673	-0.099533	0.200103	-0.637070	-0.148527	0.055421	-0.237954	0.969694	-0.872424	-0.483873	-0.068876	0.485598	-0.842167	-0.234413
10357	9.382466	-0.716314	0.093955	0.204835	-0.691743	-0.165850	0.060259	-0.242945	0.968167	-0.871331	-0.486000	-0.067722	0.486982	-0.839513	-0.240971
10358	9.133077	-1.233208	0.275384	0.161803	-0.759190	-0.178357	0.065600	-0.248503	0.966407	-0.870436	-0.487791	-0.066346	0.487892	-0.836843	-0.248305
10359	9.702936	-1.776717	0.235943	0.163203	-0.834311	-0.203191	0.071469	-0.254459	0.964439	-0.869498	-0.489672	-0.064762	0.488738	-0.833950	-0.256248
10360	10.025009	-1.403158	0.410439	0.145073	-0.899327	-0.231974	0.077965	-0.260865	0.962222	-0.868620	-0.491475	-0.062862	0.489307	-0.830904	-0.264910
10361	10.073056	-0.918577	0.644716	0.017772	-0.983526	-0.263144	0.085087	-0.267708	0.959736	-0.868317	-0.492325	-0.060347	0.488657	-0.828220	-0.274346
10362	10.389460	-0.413362	0.496423	-0.094971	-1.067778	-0.289140	0.092883	-0.275167	0.956899	-0.868526	-0.492324	-0.057268	0.486863	-0.825773	-0.284718
10363	10.624977	0.257164	0.204353	-0.228138	-1.149659	-0.326003	0.101323	-0.283024	0.953746	-0.869315	-0.491360	-0.053458	0.483762	-0.823689	-0.295823
10364	10.527382	0.954875	0.267353	-0.373057	-1.236986	-0.357233	0.110460	-0.291494	0.950174	-0.870734	-0.489318	-0.048888	0.479187	-0.821949	-0.307863
10365	10.723272	1.169838	0.756865	-0.543700	-1.350408	-0.383476	0.120260	-0.300693	0.946108	-0.872877	-0.485996	-0.043508	0.472888	-0.820604	-0.320914
10366	10.809673	1.441651	1.126829	-0.575932	-1.455795	-0.415028	0.130793	-0.310651	0.941482	-0.875061	-0.482546	-0.037656	0.466007	-0.818929	-0.334952
10367	10.608978	2.195977	1.691753	-0.696197	-1.586452	-0.413625	0.141774	-0.321623	0.936194	-0.877709	-0.478167	-0.031354	0.457741	-0.817261	-0.350083
10368	10.002042	2.290478	2.477031	-0.825249	-1.715740	-0.385449	0.153002	-0.333819	0.930137	-0.880877	-0.472698	-0.024748	0.447935	-0.815550	-0.366377
10369	9.682083	2.252068	3.056604	-0.982515	-1.888634	-0.348947	0.164461	-0.347547	0.923127	-0.884663	-0.465892	-0.017795	0.436262	-0.813729	-0.384084
10370	9.952117	2.849214	3.090512	-1.165074	-2.041085	-0.321433	0.176143	-0.362660	0.915124	-0.889115	-0.457570	-0.010196	0.422431	-0.811854	-0.403044
10371	10.209778	3.460425	3.132226	-1.467576	-2.205658	-0.285664	0.187850	-0.379240	0.906030	-0.894664	-0.446736	-0.001499	0.405325	-0.810311	-0.423211
10372	11.058814	3.754071	3.148467	-1.750787	-2.373541	-0.237747	0.199430	-0.397400	0.895712	-0.901119	-0.433493	0.008307	0.384984	-0.808800	-0.444556
10373	12.074660	4.173767	2.755499	-1.969766	-2.514922	-0.199917	0.210662	-0.416849	0.884227	-0.908060	-0.418404	0.019093	0.362006	-0.806954	-0.466666
10374	13.003380	4.632903	3.065876	-2.180408	-2.665512	-0.125608	0.221182	-0.437786	0.871448	-0.915397	-0.401380	0.030696	0.336344	-0.804510	-0.489526
10375	14.817165	4.983945	2.447804	-2.155116	-2.830250	-0.006744	0.230423	-0.460454	0.857255	-0.922342	-0.384130	0.041592	0.310146	-0.800266	-0.513209
10376	16.184139	5.466779	3.048204	-2.293085	-2.911272	0.099215	0.238191	-0.484007	0.842023	-0.929357	-0.365376	0.052873	0.282064	-0.795134	-0.536844
10377	17.630212	5.377469	2.538755	-2.299196	-2.948402	0.189129	0.244355	-0.508015	0.825961	-0.935964	-0.346243	0.063938	0.253502	-0.788693	-0.560090
10378	16.586190	3.018036	0.862174	-2.476628	-2.912717	0.177990	0.249688	-0.531423	0.809472	-0.942295	-0.325874	0.076720	0.223015	-0.781918	-0.582124
10379	15.541335	-0.743922	-3.415379	-2.332334	-2.916816	0.055194	0.255275	-0.554270	0.792224	-0.947286	-0.307450	0.090136	0.193610	-0.773472	-0.603536
10380	14.347793	-5.230309	-7.721975	-1.951818	-2.737463	-0.113046	0.261356	-0.574898	0.775361	-0.950512	-0.293089	0.103081	0.167989	-0.763931	-0.623048
10381	11.864737	-7.592017	-11.184506	-1.108398	-2.564704	-0.289578	0.268229	-0.593489	0.758831	-0.951502	-0.286397	0.112340	0.150654	-0.752162	-0.641526
10382	10.092348	-8.793507	-14.388868	-0.231025	-2.516186	-0.442877	0.276162	-0.610892	0.741987	-0.950624	-0.287351	0.117234	0.141593	-0.737726	-0.660084
10383	10.899582	-7.642269	-13.991335	0.351704	-2.392050	-0.585916	0.285105	-0.626635	0.725288	-0.948478	-0.293562	0.119207	0.138218	-0.721907	-0.678046
10384	11.792466	-5.039035	-11.710230	0.667444	-2.088088	-0.742372	0.295054	-0.639279	0.710116	-0.945392	-0.303042	0.119999	0.138482	-0.706745	-0.693783
10385	11.049837	-2.705051	-9.987830	0.548269	-1.697433	-0.955850	0.306457	-0.648210	0.697071	-0.941748	-0.313056	0.122912	0.138549	-0.694132	-0.706389
10386	9.186981	-3.185444	-9.453240	0.407297	-1.281203	-1.141447	0.318978	-0.653356	0.686570	-0.937605	-0.323306	0.127943	0.138380	-0.684543	-0.715718
10387	7.391129	-4.269626	-9.022710	0.552966	-0.725759	-1.255285	0.331764	-0.654152	0.679719	-0.932737	-0.335301	0.132570	0.141189	-0.677981	-0.721393
10388	5.566255	-4.225856	-7.297993	0.688639	-0.202498	-1.272224	0.343903	-0.651122	0.676588	-0.927439	-0.348276	0.136241	0.146930	-0.674347	-0.723649
10389	3.499307	-3.154870	-10.044443	1.799980	0.028652	-1.212021	0.355088	-0.646572	0.675172	-0.920395	-0.368243	0.131412	0.163660	-0.668088	-0.725860
10390	0.365061	-0.624037	-11.669115	2.125785	-0.126278	-1.182285	0.366151	-0.642882	0.672783	-0.912441	-0.389992	0.123921	0.182713	-0.659249	-0.729388
10391	1.427700	0.321722	-7.772911	1.389933	-0.068250	-1.067469	0.376015	-0.639064	0.670976	-0.905842	-0.405977	0.120966	0.195096	-0.653284	-0.731545
10392	3.438417	2.112005	-5.760348	1.310819	0.384351	-0.904896	0.383420	-0.632783	0.672737	-0.899752	-0.420295	0.117471	0.208414	-0.650336	-0.730497
10393	5.198298	2.754429	-5.462949	0.813032	0.853172	-0.732837	0.388203	-0.624092	0.678090	-0.895174	-0.430216	0.116526	0.219002	-0.652245	-0.725682
10394	5.690768	2.034504	-5.457072	0.318809	1.275527	-0.517675	0.389999	-0.613452	0.686715	-0.892438	-0.435527	0.117771	0.226836	-0.658781	-0.717323
10395	5.414877	1.340606	-5.626713	0.179233	1.604395	-0.305747	0.389053	-0.601456	0.697774	-0.890821	-0.438592	0.118638	0.234683	-0.667748	-0.706425
10396	4.620327	1.129220	-5.676158	0.222784	1.851423	-0.107660	0.385594	-0.588487	0.710634	-0.889860	-0.440749	0.117852	0.243857	-0.677808	-0.693621
10397	4.471161	1.356891	-5.412180	0.153210	2.100305	0.077954	0.379709	-0.574454	0.725137	-0.889765	-0.441361	0.116268	0.253256	-0.689349	-0.678718
10398	5.072478	1.879081	-4.970966	0.129522	2.393066	0.185765	0.371886	-0.558582	0.741409	-0.890119	-0.441226	0.114055	0.263420	-0.702357	-0.661290
10399	5.473337	2.012738	-5.174061	-0.080426	2.691445	0.207649	0.362852	-0.540369	0.759170	-0.891085	-0.439531	0.113049	0.272591	-0.717505	-0.641000
10400	5.934569	1.785628	-5.360411	-0.435707	2.856181	0.240319	0.352845	-0.520641	0.777453	-0.893137	-0.435107	0.113968	0.278939	-0.734585	-0.618529
10401	6.202160	0.696767	-5.759601	-0.648940	2.956418	0.299923	0.341878	-0.499935	0.795729	-0.895992	-0.428766	0.115573	0.283403	-0.752479	-0.594524
10402	6.227771	-0.823153	-6.264619	-0.674959	2.996502	0.370436	0.330014	-0.478657	0.813620	-0.899154	-0.421828	0.116544	0.287423	-0.770031	-0.569596
10403	6.374263	-2.159784	-6.131423	-0.465471	2.989663	0.468647	0.317148	-0.457341	0.830817	-0.902011	-0.416027	0.115313	0.292905	-0.785977	-0.544469
10404	6.729000	-2.607033	-5.962345	-0.084195	2.981049	0.546873	0.303360	-0.435936	0.847309	-0.903950	-0.412929	0.111190	0.301407	-0.799656	-0.519331
10405	7.474940	-2.387220	-5.796172	0.296890	2.967918	0.604063	0.288810	-0.414507	0.863002	-0.904818	-0.412764	0.104550	0.312880	-0.811054	-0.494264
10406	8.086130	-1.623744	-5.608910	0.550377	2.961930	0.627128	0.273675	-0.392903	0.877912	-0.904816	-0.414736	0.096450	0.326206	-0.820745	-0.469007
10407	8.309021	-1.013507	-5.429447	0.630437	2.966856	0.629855	0.258126	-0.371024	0.892027	-0.904383	-0.417543	0.088031	0.339798	-0.829457	-0.443327
10408	8.123231	-0.614235	-5.487590	0.614289	2.968095	0.619943	0.242242	-0.348852	0.905329	-0.903801	-0.420443	0.079823	0.352793	-0.837574	-0.417142
10409	7.803193	-0.310192	-5.536092	0.543476	2.938670	0.620366	0.226124	-0.326722	0.917671	-0.903297	-0.422930	0.072005	0.364585	-0.845212	-0.390762
10410	7.849010	0.029490	-5.426288	0.481551	2.914371	0.645580	0.209510	-0.304696	0.929121	-0.902916	-0.424990	0.064230	0.375297	-0.852375	-0.364155
10411	7.965705	0.564521	-5.109664	0.380175	2.893318	0.690530	0.192312	-0.282853	0.939686	-0.902853	-0.426223	0.056477	0.384542	-0.859260	-0.337343
10412	8.134309	0.868569	-4.766370	0.264441	2.916324	0.743751	0.174266	-0.260845	0.949522	-0.903185	-0.426492	0.048599	0.392287	-0.866063	-0.309914
10413	8.106658	1.135418	-4.642229	0.148571	2.958314	0.783730	0.155516	-0.238443	0.958624	-0.903885	-0.425834	0.040716	0.398506	-0.872818	-0.281749
10414	7.883528	1.352530	-4.519761	-0.070423	3.002848	0.821662	0.136060	-0.215597	0.966957	-0.905361	-0.423359	0.032999	0.402255	-0.879935	-0.252796
10415	7.766229	1.374757	-4.334427	-0.261662	3.024438	0.865944	0.116051	-0.192502	0.974410	-0.907504	-0.419284	0.025250	0.403694	-0.887211	-0.223355
10416	7.731452	1.269803	-4.235798	-0.483232	3.033814	0.928541	0.095386	-0.169323	0.980934	-0.910431	-0.413304	0.017188	0.402514	-0.894712	-0.193580
10417	7.797778	1.238776	-4.019214	-0.694521	3.005939	0.991252	0.074329	-0.146352	0.986436	-0.914053	-0.405501	0.008712	0.398726	-0.902302	-0.163914
10418	7.991490	1.142005	-4.030499	-0.885903	2.981065	1.039134	0.053024	-0.123496	0.990927	-0.918218	-0.396075	-0.000228	0.392510	-0.909875	-0.134398
10419	7.974693	0.874879	-3.913079	-1.107243	2.930223	1.067420	0.031855	-0.100871	0.994389	-0.922968	-0.384761	-0.009463	0.383557	-0.917488	-0.105357
10420	7.963565	0.715488	-3.951375	-1.323259	2.864708	1.090380	0.010956	-0.078599	0.996846	-0.928199	-0.371593	-0.019098	0.371922	-0.925063	-0.077027
10421	8.008501	0.471537	-3.670708	-1.527428	2.807088	1.105135	-0.009545	-0.056532	0.998355	-0.933781	-0.356658	-0.029124	0.357717	-0.932523	-0.049384
10422	8.182453	0.189830	-3.407700	-1.688763	2.726470	1.128148	-0.029623	-0.034945	0.998950	-0.939465	-0.340331	-0.039764	0.341363	-0.939656	-0.022748
10423	8.330352	0.068901	-2.949844	-1.814666	2.628119	1.147246	-0.049137	-0.013949	0.998695	-0.945046	-0.322935	-0.051008	0.323225	-0.946318	0.002686
10424	8.493361	-0.158234	-2.540095	-1.910089	2.487545	1.147814	-0.067789	0.006054	0.997681	-0.950364	-0.304751	-0.062725	0.303665	-0.952413	0.026412
10425	8.751971	-0.497114	-2.005641	-1.961026	2.296402	1.132849	-0.085291	0.024657	0.996051	-0.955256	-0.286190	-0.074713	0.283217	-0.957856	0.047963
10426	9.191678	-0.722225	-1.187663	-1.993991	2.070068	1.089638	-0.101343	0.041501	0.993986	-0.959680	-0.267395	-0.086681	0.262189	-0.962693	0.066926
10427	9.315818	-0.985236	-0.428137	-1.958995	1.827441	1.026572	-0.115784	0.056496	0.991666	-0.963503	-0.248992	-0.098311	0.241363	-0.966856	0.083263
10428	9.140644	-1.030035	0.293284	-1.871616	1.535075	0.945902	-0.128437	0.069070	0.989309	-0.966683	-0.231448	-0.109341	0.221422	-0.970392	0.096496
10429	8.624090	-1.041161	1.196090	-1.783472	1.185469	0.844967	-0.139098	0.078720	0.987145	-0.969339	-0.214733	-0.119465	0.202568	-0.973495	0.106175
10430	8.264423	-1.123175	1.642191	-1.606823	0.793401	0.758694	-0.147972	0.084858	0.985344	-0.971375	-0.199679	-0.128677	0.185834	-0.976180	0.111976
10431	7.878701	-1.316809	1.845487	-1.375005	0.393934	0.684297	-0.155295	0.087397	0.983994	-0.972803	-0.186824	-0.136936	0.171866	-0.978498	0.114033
10432	7.595149	-1.760877	1.594399	-0.982934	0.016158	0.600190	-0.161135	0.086439	0.983140	-0.973501	-0.177709	-0.143930	0.162272	-0.980279	0.112783
10433	7.906348	-1.772503	0.727719	-0.405296	-0.345169	0.510960	-0.165521	0.082165	0.982778	-0.973323	-0.174159	-0.149368	0.158887	-0.981284	0.108800
10434	10.220146	-2.016791	1.206797	-0.149866	-0.549205	0.405432	-0.168568	0.076048	0.982752	-0.972889	-0.172999	-0.153489	0.158343	-0.981982	0.103148
10435	6.916743	-1.765014	-0.220188	0.809393	-0.849437	0.255562	-0.169635	0.067268	0.983209	-0.971144	-0.181122	-0.155161	0.167643	-0.981157	0.096051
10436	7.159693	-0.385337	-1.644074	1.272110	-1.138684	0.107255	-0.168659	0.055881	0.984089	-0.968744	-0.193650	-0.155033	0.181905	-0.979478	0.086795
10437	7.248776	0.907524	-3.231436	1.759116	-1.286689	-0.056180	-0.165619	0.043422	0.985233	-0.965475	-0.210823	-0.153006	0.201066	-0.976559	0.076839
10438	7.749685	1.376955	-4.637815	1.885049	-1.320003	-0.203231	-0.160842	0.030974	0.986494	-0.961831	-0.229112	-0.149628	0.221384	-0.972907	0.066642
10439	8.202497	0.905146	-5.940051	2.098151	-1.275509	-0.336702	-0.154614	0.019412	0.987784	-0.957491	-0.249389	-0.144971	0.243528	-0.968209	0.057146
10440	8.400082	0.786667	-7.247888	2.327770	-1.183410	-0.442532	-0.147326	0.009104	0.989046	-0.952217	-0.271786	-0.139338	0.267540	-0.962315	0.048710
10441	9.086389	0.753410	-6.565565	2.323604	-1.038864	-0.484855	-0.139789	0.000526	0.990181	-0.946428	-0.294045	-0.133456	0.291088	-0.955791	0.041602
10442	10.351266	-0.897482	-1.810201	1.874352	-0.814526	-0.432978	-0.133209	-0.005976	0.991070	-0.941395	-0.311907	-0.128413	0.309889	-0.950094	0.035923
10443	13.348233	-2.975983	6.205384	1.369832	-0.750611	-0.270895	-0.128255	-0.012213	0.991666	-0.937414	-0.324914	-0.125240	0.323736	-0.945665	0.030223
10444	15.473627	0.060666	0.262532	2.900887	-1.429724	-0.001285	-0.123364	-0.025704	0.992028	-0.927612	-0.352193	-0.124479	0.352585	-0.935574	0.019605
10445	23.889719	8.896043	-3.350331	2.743526	-2.065745	0.197702	-0.117587	-0.045626	0.992014	-0.917324	-0.377644	-0.126103	0.380382	-0.924826	0.002552
10446	25.138702	10.413831	-1.965220	1.611328	-1.862794	-0.254626	-0.107957	-0.061849	0.992230	-0.911355	-0.392616	-0.123631	0.397211	-0.917621	-0.013981
10447	13.126461	11.075840	-6.062298	0.999800	-1.540537	-0.550581	-0.096718	-0.073741	0.992576	-0.907899	-0.402138	-0.118342	0.407880	-0.912605	-0.028056
10448	4.609695	5.650127	-6.236284	0.029507	-1.551634	-0.272221	-0.087815	-0.086833	0.992345	-0.908042	-0.402616	-0.115585	0.409570	-0.911241	-0.043492
10449	1.518751	1.919972	-6.844032	0.795269	-1.549891	0.030184	-0.081645	-0.101025	0.991528	-0.904730	-0.409816	-0.116253	0.418089	-0.906556	-0.057940
10450	7.660741	3.061373	-5.288691	0.431939	-1.502286	0.234008	-0.077338	-0.115628	0.990277	-0.902742	-0.413460	-0.118779	0.423174	-0.903151	-0.072406
10451	11.393409	2.249378	-4.381875	-0.417769	-1.079642	0.288512	-0.075363	-0.126549	0.989093	-0.904287	-0.409338	-0.121274	0.420221	-0.903564	-0.083588
10452	10.861479	-1.989297	-4.541249	-1.441670	-0.837052	0.186350	-0.073474	-0.134934	0.988127	-0.910134	-0.396021	-0.121754	0.407748	-0.908273	-0.093710
10453	10.190737	-5.404557	-4.682450	-1.675951	-0.742805	0.036050	-0.070800	-0.141823	0.987357	-0.916821	-0.380705	-0.120426	0.392971	-0.913756	-0.103073
10454	11.107767	-6.249530	-5.082327	-1.239881	-0.717536	-0.033865	-0.067596	-0.148327	0.986626	-0.921665	-0.369390	-0.118679	0.382052	-0.917361	-0.111738
10455	11.408173	-5.809732	-5.181411	-0.713068	-0.673585	-0.085786	-0.064222	-0.154180	0.985953	-0.924427	-0.362975	-0.116975	0.375911	-0.918955	-0.119217
10456	10.197757	-4.442318	-5.023582	0.072036	-0.572014	-0.145197	-0.060622	-0.158978	0.985419	-0.924261	-0.363851	-0.115559	0.376917	-0.917790	-0.124880
10457	9.527252	-2.294719	-4.615968	0.673518	-0.517699	-0.158816	-0.057157	-0.163121	0.984949	-0.921797	-0.370280	-0.114816	0.383436	-0.914486	-0.129200
10458	9.849948	-0.297861	-3.605561	0.977909	-0.472956	-0.144920	-0.053886	-0.166973	0.984488	-0.918096	-0.379427	-0.114605	0.392678	-0.910030	-0.132852
10459	10.175935	0.982107	-2.323279	0.899771	-0.441861	-0.119158	-0.051011	-0.170511	0.984035	-0.914590	-0.387801	-0.114608	0.401152	-0.905835	-0.136165
10460	10.269804	0.931198	-1.287275	0.600424	-0.421338	-0.095739	-0.048328	-0.174028	0.983554	-0.912226	-0.393382	-0.114428	0.406827	-0.902754	-0.139742
10461	10.185965	0.180630	-0.804319	0.289189	-0.404037	-0.082616	-0.045896	-0.177328	0.983081	-0.911087	-0.396139	-0.113990	0.409651	-0.900904	-0.143380
10462	9.994574	-0.305100	-0.525857	-0.008656	-0.411733	-0.069976	-0.043463	-0.180837	0.982552	-0.911168	-0.396174	-0.113220	0.409736	-0.900191	-0.147554
10463	9.931351	-0.594882	-0.490085	-0.272096	-0.419593	-0.070897	-0.041072	-0.184317	0.982008	-0.912313	-0.393857	-0.112082	0.407430	-0.900502	-0.151978
10464	10.052734	-0.942433	-0.419266	-0.509573	-0.425978	-0.087890	-0.038435	-0.187886	0.981439	-0.914426	-0.389417	-0.110361	0.402924	-0.901695	-0.156840
10465	10.092844	-1.078474	-0.524240	-0.565335	-0.446957	-0.108200	-0.035625	-0.191483	0.980849	-0.916732	-0.384525	-0.108364	0.397911	-0.903036	-0.161840
10466	9.583882	-1.550370	-0.588847	-0.505081	-0.476992	-0.126036	-0.032474	-0.195383	0.980189	-0.918787	-0.380194	-0.106225	0.393417	-0.904034	-0.167169
10467	9.170010	-1.753252	-0.626842	-0.356048	-0.525900	-0.132640	-0.029164	-0.199618	0.979440	-0.920225	-0.377241	-0.104286	0.390302	-0.904346	-0.172692
10468	8.998861	-1.781736	-0.569614	-0.249109	-0.570818	-0.149256	-0.025464	-0.204288	0.978580	-0.921247	-0.375280	-0.102315	0.388143	-0.904119	-0.178644
10469	8.955984	-1.757848	-0.738023	-0.182206	-0.606494	-0.155339	-0.021652	-0.209171	0.977639	-0.921992	-0.373959	-0.100430	0.386604	-0.903550	-0.184757
10470	8.981185	-1.457479	-0.881218	-0.217467	-0.644536	-0.159879	-0.017591	-0.214464	0.976573	-0.922873	-0.372325	-0.098389	0.384703	-0.902984	-0.191374
10471	9.015282	-1.202975	-0.993626	-0.309893	-0.689856	-0.165437	-0.013389	-0.220061	0.975394	-0.924088	-0.369891	-0.096136	0.381946	-0.902637	-0.198404
10472	8.898523	-1.031983	-1.090124	-0.431212	-0.725225	-0.169724	-0.008964	-0.226049	0.974075	-0.925755	-0.366370	-0.093541	0.378017	-0.902594	-0.205981
10473	8.901835	-1.706916	-1.562416	-0.418549	-0.754332	-0.175327	-0.004472	-0.232200	0.972658	-0.927343	-0.363000	-0.090922	0.374187	-0.902394	-0.213706
10474	8.712452	-2.014385	-1.840719	-0.232503	-0.775016	-0.183633	0.000220	-0.238590	0.971120	-0.928223	-0.361329	-0.088563	0.372024	-0.901397	-0.221544
10475	8.657120	-1.771242	-1.947802	-0.035521	-0.795742	-0.187948	0.004954	-0.245059	0.969495	-0.928351	-0.361469	-0.086625	0.371671	-0.899603	-0.229292
10476	8.615541	-1.364331	-1.946197	0.072065	-0.819359	-0.195296	0.009908	-0.251779	0.967734	-0.928077	-0.362596	-0.084836	0.372257	-0.897291	-0.237263
10477	8.536621	-1.309275	-1.950939	0.108582	-0.846152	-0.204479	0.014989	-0.258601	0.965868	-0.927647	-0.364097	-0.083087	0.373156	-0.894740	-0.245348
10478	8.786568	-1.346830	-1.993458	0.136405	-0.849190	-0.200764	0.020116	-0.265518	0.963896	-0.927110	-0.365837	-0.081427	0.374250	-0.891999	-0.253524
10479	9.005279	-1.724936	-2.010863	0.241922	-0.855481	-0.199923	0.025209	-0.272385	0.961858	-0.926157	-0.368536	-0.080091	0.376295	-0.888813	-0.261561
10480	9.203265	-1.523370	-2.357605	0.293638	-0.860468	-0.215468	0.030541	-0.279283	0.959723	-0.924995	-0.371732	-0.078740	0.378750	-0.885334	-0.269688
10481	9.437823	-1.206559	-2.331086	0.269681	-0.863039	-0.225719	0.035936	-0.286049	0.957541	-0.923895	-0.374760	-0.077280	0.380954	-0.881890	-0.277747
10482	9.334561	-0.848895	-2.206241	0.257566	-0.872126	-0.238354	0.041554	-0.292890	0.955243	-0.922825	-0.377714	-0.075668	0.382971	-0.878378	-0.285982
10483	9.491408	-0.643253	-2.193496	0.208326	-0.889360	-0.249315	0.047297	-0.299725	0.952853	-0.921915	-0.380287	-0.073860	0.384495	-0.874955	-0.294307
10484	9.522078	-0.385337	-1.981457	0.192574	-0.902020	-0.259202	0.053245	-0.306672	0.950325	-0.921048	-0.382753	-0.071911	0.385793	-0.871466	-0.302839
10485	9.559467	-0.132990	-1.696670	0.140799	-0.934576	-0.265103	0.059325	-0.313766	0.947645	-0.920354	-0.384808	-0.069794	0.386561	-0.868029	-0.311604
10486	9.785082	-0.186126	-1.390112	0.087625	-0.971404	-0.266016	0.065612	-0.321211	0.944732	-0.919853	-0.386412	-0.067496	0.386736	-0.864586	-0.320820
10487	9.726173	-0.244442	-0.963459	0.110755	-1.015481	-0.270752	0.072061	-0.328906	0.941609	-0.919237	-0.388256	-0.065270	0.387053	-0.860859	-0.330320
10488	9.895101	-0.257811	-0.709852	0.119442	-1.081408	-0.279734	0.078901	-0.337154	0.938137	-0.918567	-0.390214	-0.062983	0.387309	-0.856773	-0.340487
