// General information: 
//  MT Manager version: 2022.2.0 
//  XDA version: 2022.2.0 build 7381 rev 124627 built on 2023-07-19
// Device information: 
//  DeviceId: 00B4CAF0
//  ProductCode: MTW2-3A7G6
//  Firmware Version: 4.6.0
//  Hardware Version: 2.0.0
// Device settings: 
//  Filter Profile: human(46.1)
//  Option Flags: Orientation Smoother Disabled, Position/Velocity Smoother Disabled, Continuous Zero Rotation Update Disabled, AHS Disabled, ICC Disabled
// Coordinate system: ENU
PacketCounter	Acc_X	Acc_Y	Acc_Z	Gyr_X	Gyr_Y	Gyr_Z	Mat[1][1]	Mat[2][1]	Mat[3][1]	Mat[1][2]	Mat[2][2]	Mat[3][2]	Mat[1][3]	Mat[2][3]	Mat[3][3]
25017	4.435569	-0.915174	9.222019	-0.001410	-0.001229	0.006960	-0.353817	-0.832596	0.426142	0.899478	-0.427802	-0.089020	0.256422	0.351808	0.900266
25018	4.417245	-0.930204	9.228693	0.002639	0.002961	0.003087	-0.353819	-0.832597	0.426139	0.899475	-0.427807	-0.089029	0.256430	0.351801	0.900266
25019	4.417660	-0.940771	9.207151	0.008018	0.007735	0.004390	-0.353826	-0.832618	0.426091	0.899488	-0.427786	-0.088996	0.256375	0.351775	0.900292
25020	4.414716	-0.918372	9.251373	0.010508	0.014017	0.006707	-0.353824	-0.832673	0.425986	0.899518	-0.427733	-0.088949	0.256273	0.351710	0.900347
25021	4.393084	-0.963191	9.274126	0.013920	0.016827	0.003067	-0.353870	-0.832720	0.425856	0.899539	-0.427707	-0.088857	0.256135	0.351630	0.900417
25022	4.407970	-0.925302	9.311944	0.016892	0.012764	0.006075	-0.353871	-0.832768	0.425762	0.899583	-0.427637	-0.088750	0.255980	0.351603	0.900472
25023	4.390051	-0.960499	9.275842	0.017940	0.021398	0.000820	-0.353936	-0.832826	0.425594	0.899613	-0.427603	-0.088613	0.255784	0.351507	0.900565
25024	4.386127	-0.937199	9.320584	0.017200	0.021169	0.005926	-0.353960	-0.832902	0.425425	0.899657	-0.427533	-0.088502	0.255597	0.351410	0.900656
25025	4.387186	-0.863021	9.312762	0.020124	0.019278	0.003293	-0.353982	-0.832970	0.425273	0.899709	-0.427454	-0.088356	0.255383	0.351345	0.900742
25026	4.351034	-0.860369	9.311599	0.016711	0.016471	0.006933	-0.353985	-0.833035	0.425145	0.899755	-0.427378	-0.088255	0.255217	0.351285	0.900812
25027	4.348464	-0.900988	9.305979	0.014644	0.015654	0.006860	-0.353985	-0.833096	0.425023	0.899796	-0.427309	-0.088173	0.255073	0.351223	0.900878
25028	4.326011	-0.934708	9.350481	0.014187	0.010572	0.006243	-0.353978	-0.833137	0.424949	0.899833	-0.427247	-0.088090	0.254950	0.351201	0.900921
25029	4.323327	-0.912165	9.394514	0.007459	0.003806	0.008649	-0.353949	-0.833157	0.424934	0.899853	-0.427207	-0.088080	0.254919	0.351203	0.900929
25030	4.290784	-0.879654	9.377115	0.008531	-0.002991	0.003467	-0.353933	-0.833138	0.424985	0.899866	-0.427188	-0.088037	0.254895	0.351270	0.900909
25031	4.324721	-0.922273	9.372589	0.001083	-0.008582	0.002086	-0.353918	-0.833093	0.425086	0.899854	-0.427211	-0.088057	0.254961	0.351350	0.900860
25032	4.289767	-0.899306	9.413435	-0.002473	-0.021711	-0.002239	-0.353906	-0.832984	0.425310	0.899819	-0.427278	-0.088089	0.255102	0.351527	0.900751
25033	4.294274	-0.921412	9.368612	-0.005455	-0.032693	-0.003547	-0.353881	-0.832829	0.425634	0.899769	-0.427372	-0.088143	0.255312	0.351780	0.900592
25034	4.274896	-0.935076	9.454301	-0.015393	-0.044566	-0.007236	-0.353854	-0.832618	0.426068	0.899683	-0.427526	-0.088270	0.255650	0.352092	0.900375
25035	4.277956	-0.967661	9.467219	-0.030069	-0.059833	-0.012455	-0.353817	-0.832340	0.426643	0.899551	-0.427756	-0.088509	0.256168	0.352471	0.900079
25036	4.244636	-1.061581	9.507824	-0.037960	-0.084142	-0.021620	-0.353818	-0.831927	0.427446	0.899356	-0.428109	-0.088777	0.256850	0.353015	0.899671
25037	4.213489	-1.092932	9.597167	-0.057335	-0.118223	-0.028258	-0.353780	-0.831370	0.428559	0.899093	-0.428576	-0.089193	0.257823	0.353760	0.899100
25038	4.132079	-1.117168	9.733149	-0.063496	-0.162968	-0.041089	-0.353750	-0.830594	0.430087	0.898762	-0.429182	-0.089606	0.259012	0.354848	0.898330
25039	4.168638	-1.095213	9.739650	-0.052815	-0.222456	-0.048458	-0.353635	-0.829570	0.432153	0.898430	-0.429817	-0.089892	0.260318	0.356470	0.897309
25040	4.122202	-1.063277	9.790575	-0.052852	-0.276427	-0.060038	-0.353475	-0.828300	0.434712	0.898059	-0.430543	-0.090124	0.261812	0.358540	0.896049
25041	4.198575	-1.059466	9.911991	-0.056481	-0.340923	-0.079832	-0.353305	-0.826712	0.437862	0.897614	-0.431434	-0.090302	0.263562	0.361126	0.894496
25042	4.039338	-1.259497	9.905454	-0.085092	-0.395701	-0.097801	-0.353157	-0.824831	0.441512	0.897022	-0.432590	-0.090651	0.265766	0.364032	0.892664
25043	4.113549	-1.135016	10.070344	-0.066449	-0.452947	-0.133479	-0.353144	-0.822584	0.445696	0.896364	-0.433947	-0.090672	0.267994	0.367485	0.890580
25044	3.980629	-1.409295	10.179675	-0.065050	-0.554606	-0.157363	-0.353082	-0.819826	0.450797	0.895612	-0.435520	-0.090564	0.270577	0.371763	0.888020
25045	3.898595	-1.427202	10.408803	0.028972	-0.665354	-0.187327	-0.352953	-0.816505	0.456885	0.895019	-0.436961	-0.089477	0.272700	0.377339	0.885014
25046	4.149955	-1.502753	10.290622	0.074987	-0.792209	-0.230430	-0.352868	-0.812456	0.464112	0.894390	-0.438593	-0.087771	0.274867	0.384125	0.881417
25047	4.417496	-2.096730	10.153764	0.119663	-0.869816	-0.299929	-0.353140	-0.807755	0.472043	0.893656	-0.440565	-0.085336	0.276896	0.391708	0.877436
25048	4.938123	-2.579712	9.990557	0.215467	-0.913184	-0.392333	-0.354132	-0.802382	0.480389	0.892845	-0.442911	-0.081598	0.278242	0.400017	0.873251
25049	4.629882	-2.378740	9.853931	0.368340	-0.947221	-0.523676	-0.356179	-0.796206	0.489073	0.891995	-0.445633	-0.075871	0.278356	0.409227	0.868937
25050	4.981132	-2.389664	9.822862	0.358226	-1.006565	-0.663805	-0.359312	-0.789043	0.498304	0.890596	-0.449452	-0.069505	0.278806	0.418813	0.864212
25051	5.107830	-2.446098	9.408321	0.416790	-1.052917	-0.806685	-0.363574	-0.780911	0.507929	0.888821	-0.454058	-0.061873	0.278947	0.428962	0.859174
25052	5.538556	-2.060112	9.332693	0.369576	-1.127700	-0.937190	-0.368763	-0.771707	0.518153	0.886400	-0.459770	-0.053915	0.279838	0.439409	0.853587
25053	5.864405	-2.591284	8.899998	0.228619	-1.117432	-1.051542	-0.374949	-0.761845	0.528210	0.883109	-0.466860	-0.046486	0.282015	0.449037	0.847841
25054	6.479409	-3.462829	9.314385	0.089753	-1.128697	-1.149168	-0.381892	-0.751286	0.538264	0.878992	-0.475188	-0.039613	0.285538	0.458002	0.841845
25055	6.763917	-5.701190	8.695849	0.088127	-0.993074	-1.264637	-0.390149	-0.740605	0.547072	0.874339	-0.484258	-0.032028	0.288644	0.465831	0.836473
25056	6.163852	-4.698984	8.363946	0.741957	-0.990849	-1.486992	-0.400295	-0.728651	0.555726	0.870571	-0.491726	-0.017654	0.286129	0.476732	0.831178
25057	5.813229	-2.253385	8.548101	0.936683	-0.982601	-1.637489	-0.411748	-0.715768	0.564039	0.866558	-0.499076	-0.000744	0.282030	0.488466	0.825748
25058	5.164762	-1.508960	8.675881	0.664534	-0.893505	-1.685174	-0.423817	-0.702847	0.571301	0.861361	-0.507792	0.014282	0.280065	0.498150	0.820616
25059	3.359081	-1.440638	9.080420	0.353950	-0.739950	-1.710338	-0.436442	-0.690334	0.577025	0.854970	-0.517975	0.026981	0.280258	0.505115	0.816281
25060	0.766008	-2.747333	10.161132	-0.058017	-0.444615	-1.446027	-0.447526	-0.680488	0.580222	0.848391	-0.528221	0.034865	0.282760	0.507857	0.813712
25061	-0.243237	-7.397172	9.434970	-0.545893	-0.318024	-0.750493	-0.452985	-0.674851	0.582564	0.843425	-0.536121	0.034772	0.288859	0.507100	0.812041
25062	4.244954	-9.559928	11.214168	-0.336379	-0.436980	0.166852	-0.450325	-0.673497	0.586182	0.843173	-0.536744	0.031059	0.293712	0.508240	0.809584
25063	2.068926	-8.820390	11.444031	-0.537521	0.583854	1.152143	-0.442329	-0.682572	0.581756	0.846704	-0.531690	0.019949	0.295698	0.501399	0.813118
25064	-0.994289	-9.342857	10.546491	-0.406937	0.900619	1.879778	-0.429028	-0.696913	0.574672	0.853667	-0.520788	0.005748	0.295276	0.493044	0.818364
25065	-2.951994	-7.343415	10.443542	-0.401816	1.084955	2.420805	-0.411470	-0.714610	0.565708	0.862629	-0.505709	-0.011381	0.294216	0.483313	0.824527
25066	-3.164453	-5.353512	10.500420	-0.471935	1.082111	2.832607	-0.390096	-0.733824	0.556172	0.872571	-0.487491	-0.031189	0.294016	0.473132	0.830482
25067	-2.613676	-3.930309	10.768278	-0.652158	1.122592	3.179308	-0.365521	-0.754224	0.545473	0.882635	-0.466928	-0.054166	0.295550	0.461655	0.836376
25068	-1.751890	-1.373023	10.968134	-0.582865	1.235666	3.429981	-0.338745	-0.775441	0.532863	0.892967	-0.443389	-0.077569	0.296415	0.449553	0.842639
25069	-1.406696	-0.132133	11.771660	-0.989814	1.341505	3.586535	-0.310587	-0.796833	0.518259	0.901631	-0.419611	-0.104821	0.300992	0.434722	0.848776
25070	-0.047216	-0.259049	12.292967	-1.055793	1.360267	3.524137	-0.282835	-0.816988	0.502529	0.908861	-0.395722	-0.131818	0.306555	0.419446	0.854452
25071	1.646783	0.556851	12.845397	-1.023929	1.497738	3.312009	-0.257287	-0.835859	0.484916	0.914618	-0.372601	-0.156981	0.311894	0.403123	0.860357
25072	2.698506	0.550896	13.004855	-0.936090	1.708522	2.966198	-0.235479	-0.853310	0.465201	0.918967	-0.351279	-0.179175	0.316307	0.385312	0.866882
25073	3.711289	0.557162	13.107198	-0.729879	1.908426	2.464748	-0.218867	-0.868903	0.443965	0.922228	-0.332836	-0.196764	0.318736	0.366372	0.874173
25074	4.257033	0.999074	12.935013	-0.479992	2.115210	1.813608	-0.208883	-0.882329	0.421738	0.924559	-0.318706	-0.208849	0.318684	0.346297	0.882337
25075	4.633679	1.734311	12.565444	-0.334250	2.260220	1.073838	-0.206154	-0.893285	0.399428	0.925705	-0.310332	-0.216251	0.317129	0.325171	0.890894
25076	4.966176	2.447160	12.016821	-0.334043	2.364642	0.290204	-0.210968	-0.901592	0.377657	0.925236	-0.308817	-0.220389	0.315328	0.302927	0.899335
25077	5.252383	2.893401	11.411971	-0.550364	2.401879	-0.428880	-0.222524	-0.907240	0.356930	0.922552	-0.314333	-0.223814	0.315248	0.279482	0.906922
25078	4.898135	1.891941	11.624410	-0.961918	2.446948	-0.977807	-0.239295	-0.910622	0.336905	0.917227	-0.325827	-0.229199	0.318486	0.254173	0.913216
25079	1.449949	-5.264873	7.026625	-0.809869	1.806187	-1.354168	-0.257474	-0.910521	0.323511	0.911252	-0.340172	-0.232170	0.321445	0.235022	0.917299
25080	8.659318	2.033787	6.641965	1.746431	0.010859	-2.417887	-0.279551	-0.902088	0.328767	0.910215	-0.357967	-0.208252	0.305549	0.241032	0.921164
25081	13.398253	2.826950	7.256228	0.061341	0.306543	-2.112632	-0.299673	-0.895050	0.330276	0.904263	-0.376837	-0.200755	0.304146	0.238496	0.922288
25082	13.097473	1.932831	8.248404	-0.332393	1.131841	-1.737683	-0.318792	-0.890976	0.323317	0.897858	-0.393166	-0.198171	0.303682	0.227117	0.925308
25083	10.615126	-0.432239	6.801735	-0.461266	1.044472	-1.370767	-0.334255	-0.887796	0.316373	0.891958	-0.406413	-0.198090	0.304442	0.215979	0.927722
25084	8.222886	-0.704747	5.730700	-0.084616	0.674825	-1.193268	-0.346943	-0.884300	0.312482	0.887615	-0.417202	-0.195148	0.302938	0.209659	0.929662
25085	8.351308	0.523860	6.104583	-0.028581	0.200160	-0.926626	-0.355778	-0.880798	0.312437	0.884250	-0.425473	-0.192549	0.302530	0.207768	0.930219
25086	8.301305	0.497993	6.695841	-0.305535	0.046940	-0.561967	-0.360902	-0.878469	0.313116	0.881285	-0.431084	-0.193657	0.305101	0.206053	0.929761
25087	8.229841	-0.494970	6.860587	-0.363366	-0.103537	-0.261089	-0.362902	-0.877111	0.314609	0.879202	-0.434157	-0.196244	0.308717	0.205387	0.928714
25088	7.810562	-1.116012	6.624192	-0.226674	-0.166370	-0.050383	-0.362849	-0.876530	0.316283	0.878293	-0.435101	-0.198213	0.311355	0.205868	0.927727
25089	6.928024	-1.572548	6.201832	0.013019	-0.225958	0.085889	-0.361410	-0.876420	0.318232	0.878621	-0.434356	-0.198394	0.312102	0.207903	0.927021
25090	5.747442	-1.163731	6.074036	0.393951	-0.353563	0.114816	-0.359321	-0.876154	0.321313	0.880237	-0.432557	-0.195134	0.309953	0.212716	0.926650
25091	5.435535	-0.364229	5.917048	0.624102	-0.581177	0.143478	-0.356285	-0.875497	0.326445	0.882650	-0.429984	-0.189846	0.306576	0.220497	0.925955
25092	5.161340	-0.293161	5.880536	0.678237	-0.711664	0.186547	-0.352487	-0.874674	0.332712	0.885357	-0.426862	-0.184208	0.303144	0.229638	0.924862
25093	5.191550	-0.398365	5.525200	0.828239	-0.867980	0.201500	-0.348108	-0.873471	0.340395	0.888532	-0.423190	-0.177260	0.298883	0.240746	0.923423
25094	5.242520	0.014938	4.581526	1.045725	-1.013092	0.174813	-0.343574	-0.871681	0.349469	0.892210	-0.419115	-0.168238	0.293117	0.253997	0.921720
25095	4.162245	0.989127	3.719949	1.224508	-1.219846	0.064200	-0.339487	-0.868736	0.360619	0.895955	-0.415388	-0.157221	0.286380	0.269724	0.919367
25096	5.391152	1.624660	4.285007	1.011995	-1.728047	0.062736	-0.334025	-0.864148	0.376398	0.899027	-0.412056	-0.148194	0.283158	0.288892	0.914529
25097	8.815122	-1.143770	6.971149	0.677893	-1.807138	0.124654	-0.327808	-0.859253	0.392716	0.901336	-0.409000	-0.142519	0.283081	0.307250	0.908550
25098	15.733987	-2.711788	19.598411	1.568267	-1.058942	-1.283794	-0.336461	-0.850606	0.404059	0.901408	-0.415075	-0.123192	0.272503	0.322773	0.906399
25099	22.662180	14.742904	20.028371	4.713840	-1.086566	-1.652612	-0.348685	-0.840074	0.415564	0.907655	-0.413195	-0.073703	0.233625	0.351490	0.906573
25100	-0.781431	6.479758	2.684431	-0.005572	2.794250	-0.814418	-0.362480	-0.846151	0.390687	0.904727	-0.420120	-0.070491	0.223781	0.327913	0.917821
25101	-3.436058	-6.710946	15.830005	-3.779661	-0.123780	0.506626	-0.357639	-0.847881	0.391398	0.897418	-0.427980	-0.107115	0.258331	0.312939	0.913966
25102	9.760273	-10.253782	6.688328	0.751021	-1.924460	0.787471	-0.345604	-0.844983	0.408119	0.902107	-0.418930	-0.103445	0.258383	0.332416	0.907049
25103	5.886110	4.519663	12.076961	2.669548	0.638405	-0.817598	-0.354584	-0.843684	0.403072	0.905770	-0.416924	-0.075869	0.232060	0.338189	0.912018
25104	4.103998	5.599746	10.836790	-0.032577	-0.205491	-0.130973	-0.355315	-0.842418	0.405071	0.905209	-0.418178	-0.075657	0.233127	0.339792	0.911150
25105	5.657885	0.075955	9.568689	-1.288328	-0.085531	0.494969	-0.350656	-0.844178	0.405468	0.903855	-0.418392	-0.089414	0.245125	0.335131	0.909726
25106	3.415468	-2.897910	9.121891	0.027814	0.018517	0.121996	-0.349622	-0.844727	0.405217	0.904330	-0.417308	-0.089675	0.244851	0.335097	0.909812
25107	4.651542	0.381787	9.503095	0.318388	-0.201894	0.027724	-0.348902	-0.844141	0.407055	0.905182	-0.416042	-0.086913	0.242719	0.338135	0.909259
25108	4.124544	-0.694780	9.555291	-0.034572	-0.097395	0.093464	-0.347842	-0.844177	0.407886	0.905404	-0.415410	-0.087628	0.243413	0.338821	0.908818
25109	4.461298	-1.174438	9.318818	0.052132	-0.153551	0.080303	-0.346764	-0.843967	0.409237	0.905789	-0.414595	-0.087503	0.243517	0.340340	0.908222
25110	4.394681	-1.250679	9.376542	0.046613	-0.112366	0.068416	-0.345893	-0.843845	0.410224	0.906120	-0.413898	-0.087380	0.243526	0.341488	0.907789
25111	4.472723	-1.369929	9.300770	0.039862	-0.096025	0.058599	-0.345151	-0.843736	0.411072	0.906399	-0.413308	-0.087279	0.243540	0.342470	0.907415
25112	4.282028	-1.211237	9.262630	0.082012	-0.066725	0.036845	-0.344678	-0.843637	0.411671	0.906705	-0.412756	-0.086707	0.243069	0.343379	0.907198
25113	4.447479	-1.060874	9.304524	0.081955	-0.063792	0.034460	-0.344234	-0.843537	0.412247	0.907003	-0.412224	-0.086126	0.242588	0.344262	0.906992
25114	4.381306	-0.975483	9.368871	0.087320	-0.034827	0.028480	-0.343914	-0.843513	0.412565	0.907292	-0.411722	-0.085471	0.241958	0.344922	0.906909
25115	4.373840	-0.890540	9.327637	0.100607	-0.032350	0.027990	-0.343605	-0.843493	0.412861	0.907611	-0.411179	-0.084695	0.241200	0.345616	0.906847
25116	4.281730	-0.761772	9.507652	0.095214	-0.020457	0.031418	-0.343294	-0.843529	0.413047	0.907929	-0.410625	-0.083981	0.240448	0.346187	0.906829
25117	4.254298	-0.892359	9.576970	0.061812	-0.029563	0.030793	-0.342966	-0.843531	0.413316	0.908163	-0.410192	-0.083568	0.240031	0.346697	0.906745
25118	4.269384	-0.841499	9.442281	0.050007	-0.028754	0.018663	-0.342751	-0.843485	0.413587	0.908327	-0.409901	-0.083212	0.239718	0.347152	0.906654
25119	4.254630	-0.863583	9.426354	0.041768	-0.032756	0.015047	-0.342559	-0.843410	0.413899	0.908458	-0.409669	-0.082916	0.239494	0.347606	0.906539
25120	4.243750	-0.802226	9.421757	0.042684	-0.038414	0.014781	-0.342356	-0.843315	0.414261	0.908591	-0.409436	-0.082610	0.239280	0.348112	0.906401
25121	4.276814	-0.926902	9.405568	0.026088	-0.045222	0.012432	-0.342158	-0.843186	0.414687	0.908676	-0.409281	-0.082446	0.239241	0.348607	0.906221
25122	4.294567	-0.983413	9.407519	0.014523	-0.034417	0.006610	-0.342039	-0.843070	0.415020	0.908713	-0.409215	-0.082361	0.239269	0.348964	0.906077
25123	4.250265	-0.934155	9.378538	0.005438	-0.033561	0.000011	-0.341982	-0.842931	0.415351	0.908706	-0.409236	-0.082332	0.239377	0.349276	0.905928
25124	4.237426	-0.853159	9.416837	-0.001424	-0.035621	-0.007328	-0.341986	-0.842754	0.415706	0.908658	-0.409343	-0.082335	0.239554	0.349577	0.905765
25125	4.352693	-0.767433	9.374965	-0.014478	-0.046829	0.000482	-0.341893	-0.842569	0.416156	0.908605	-0.409430	-0.082488	0.239889	0.349920	0.905544
25126	4.254082	-0.827835	9.316393	-0.011704	-0.045055	-0.001288	-0.341819	-0.842384	0.416592	0.908552	-0.409522	-0.082608	0.240191	0.350258	0.905333
25127	4.276215	-0.803026	9.329152	-0.005855	-0.053170	0.004866	-0.341671	-0.842195	0.417096	0.908535	-0.409542	-0.082702	0.240469	0.350689	0.905092
25128	4.299003	-0.842537	9.292730	-0.005084	-0.055111	0.005434	-0.341512	-0.842001	0.417616	0.908521	-0.409554	-0.082790	0.240746	0.351139	0.904844
25129	4.251299	-0.855637	9.294525	0.001349	-0.058938	0.008926	-0.341312	-0.841808	0.418169	0.908535	-0.409515	-0.082836	0.240978	0.351648	0.904585
25130	4.256035	-0.844639	9.313513	0.001544	-0.065167	0.012160	-0.341067	-0.841606	0.418774	0.908560	-0.409447	-0.082892	0.241229	0.352210	0.904299
25131	4.225507	-0.874386	9.323895	-0.009967	-0.078141	0.015448	-0.340762	-0.841371	0.419495	0.908569	-0.409393	-0.083067	0.241629	0.352834	0.903949
25132	4.263657	-0.961869	9.311265	-0.019670	-0.081166	0.013175	-0.340469	-0.841116	0.420244	0.908546	-0.409392	-0.083320	0.242126	0.353443	0.903578
25133	4.267038	-0.972598	9.366498	-0.028489	-0.089447	0.012271	-0.340164	-0.840827	0.421068	0.908499	-0.409430	-0.083649	0.242732	0.354085	0.903164
25134	4.202828	-1.045471	9.367411	-0.050313	-0.105495	0.004613	-0.339888	-0.840450	0.422043	0.908372	-0.409610	-0.084142	0.243590	0.354773	0.902663
25135	4.216848	-0.967255	9.373711	-0.065270	-0.117365	-0.001389	-0.339637	-0.840005	0.423130	0.908188	-0.409894	-0.084745	0.244625	0.355499	0.902097
25136	4.264086	-0.922510	9.397391	-0.076545	-0.134835	-0.002115	-0.339349	-0.839493	0.424374	0.907973	-0.410224	-0.085446	0.245820	0.356324	0.901447
25137	4.402723	-0.901652	9.352759	-0.088467	-0.151946	-0.009889	-0.339087	-0.838888	0.425778	0.907701	-0.410664	-0.086221	0.247182	0.357243	0.900710
25138	4.381450	-0.896330	9.365005	-0.087334	-0.142951	-0.013529	-0.338879	-0.838298	0.427103	0.907419	-0.411130	-0.086969	0.248501	0.358089	0.900011
25139	4.197244	-1.001975	9.401396	-0.103777	-0.153035	-0.014880	-0.338655	-0.837666	0.428519	0.907089	-0.411667	-0.087859	0.250004	0.358951	0.899251
25140	4.258001	-1.154833	9.386263	-0.113196	-0.180061	-0.023388	-0.338438	-0.836899	0.430185	0.906706	-0.412310	-0.088795	0.251682	0.360000	0.898363
25141	4.185687	-1.118064	9.488474	-0.086974	-0.201306	-0.033976	-0.338261	-0.836010	0.432049	0.906351	-0.412949	-0.089449	0.253195	0.361331	0.897403
25142	4.662345	-0.911445	9.244614	-0.092635	-0.215979	-0.041435	-0.338111	-0.835034	0.434050	0.905955	-0.413671	-0.090119	0.254806	0.362759	0.896370
25143	4.462906	-0.731984	9.298075	-0.080665	-0.197105	-0.040861	-0.338000	-0.834126	0.435879	0.905590	-0.414346	-0.090684	0.256246	0.364077	0.895425
25144	4.467559	-0.528882	9.428823	-0.061087	-0.194536	-0.021781	-0.337720	-0.833303	0.437666	0.905340	-0.414791	-0.091154	0.257499	0.365452	0.894505
25145	4.818780	-0.711199	9.160405	-0.080332	-0.204617	0.000780	-0.337207	-0.832534	0.439521	0.905114	-0.415119	-0.091895	0.258959	0.366829	0.893519
25146	4.466497	-1.038761	9.306431	-0.067512	-0.172865	0.013845	-0.336655	-0.831933	0.441079	0.904965	-0.415292	-0.092577	0.260195	0.367994	0.892681
25147	4.621438	-1.064196	9.281896	-0.075878	-0.190669	0.017147	-0.336025	-0.831278	0.442790	0.904804	-0.415470	-0.093349	0.261565	0.369271	0.891753
25148	4.566046	-1.055805	9.372057	-0.091564	-0.183567	0.017190	-0.335411	-0.830648	0.444437	0.904601	-0.415706	-0.094260	0.263052	0.370422	0.890837
25149	4.435837	-1.127125	9.527547	-0.117371	-0.204044	0.012276	-0.334784	-0.829919	0.446268	0.904312	-0.416081	-0.095378	0.264840	0.371634	0.889802
25150	4.443974	-1.029328	9.542319	-0.148427	-0.233319	0.003747	-0.334152	-0.829042	0.448365	0.903909	-0.416643	-0.096733	0.267004	0.372958	0.888601
25151	4.313275	-0.881462	9.719180	-0.186092	-0.255016	-0.007212	-0.333555	-0.828036	0.450663	0.903365	-0.417439	-0.098372	0.269580	0.374301	0.887257
25152	4.277156	-0.761438	9.744213	-0.226102	-0.302656	-0.008769	-0.332836	-0.826841	0.453381	0.902702	-0.418400	-0.100354	0.272672	0.375866	0.885649
25153	4.282477	-0.571527	9.840821	-0.240430	-0.359193	-0.013898	-0.331998	-0.825406	0.456599	0.901975	-0.419461	-0.102437	0.276078	0.377832	0.883756
25154	4.239682	-0.514004	9.782250	-0.257753	-0.422048	-0.000566	-0.330851	-0.823780	0.460351	0.901236	-0.420484	-0.104727	0.279842	0.380236	0.881538
25155	4.293389	-0.692433	9.727657	-0.279999	-0.468843	-0.001643	-0.329566	-0.821961	0.464506	0.900420	-0.421606	-0.107202	0.283954	0.382921	0.879057
25156	4.191487	-0.959703	9.821989	-0.269680	-0.571746	-0.011917	-0.328059	-0.819687	0.469563	0.899588	-0.422782	-0.109530	0.288303	0.386481	0.876079
25157	4.002016	-1.436484	9.987300	-0.317626	-0.645574	-0.046371	-0.326620	-0.816960	0.475285	0.898491	-0.424436	-0.112105	0.293313	0.390424	0.872661
25158	3.965922	-1.532019	9.962141	-0.300075	-0.759332	-0.090683	-0.325208	-0.813567	0.482026	0.897286	-0.426395	-0.114300	0.298524	0.395344	0.868670
25159	3.971145	-1.403452	9.960975	-0.323379	-0.891020	-0.128890	-0.323699	-0.809443	0.489919	0.895872	-0.428769	-0.116491	0.304355	0.401196	0.863950
25160	4.097094	-1.186922	9.991341	-0.342211	-0.994608	-0.170838	-0.322190	-0.804661	0.498712	0.894246	-0.431573	-0.118610	0.310672	0.407757	0.858614
25161	3.828513	-1.045394	10.395167	-0.338743	-1.150542	-0.198100	-0.320367	-0.799043	0.508817	0.892524	-0.434596	-0.120526	0.317435	0.415519	0.852396
25162	3.561946	-1.169504	10.844158	-0.299544	-1.369750	-0.218967	-0.317944	-0.792306	0.520734	0.890842	-0.437639	-0.121955	0.324519	0.425116	0.844964
25163	3.306291	-1.359230	10.815355	-0.217903	-1.632152	-0.246041	-0.314798	-0.784166	0.534777	0.889327	-0.440558	-0.122502	0.331662	0.437028	0.836066
25164	3.128437	-1.485497	10.917993	-0.227498	-1.921415	-0.310772	-0.311129	-0.774234	0.551145	0.887568	-0.444031	-0.122718	0.339738	0.450998	0.825336
25165	2.970255	-1.779234	11.020737	-0.152708	-2.290391	-0.389660	-0.306725	-0.761948	0.570399	0.885817	-0.447765	-0.121795	0.348206	0.467912	0.812288
25166	2.851080	-2.178144	11.043195	-0.082904	-2.680789	-0.498139	-0.301698	-0.746869	0.592592	0.883987	-0.451962	-0.119576	0.357136	0.487767	0.796578
25167	2.615345	-2.649531	11.189825	0.061965	-3.190434	-0.608203	-0.295549	-0.728140	0.618436	0.882372	-0.456178	-0.115415	0.366155	0.511580	0.777314
25168	2.693397	-3.170677	11.389575	0.157392	-3.713320	-0.757807	-0.288475	-0.705130	0.647745	0.880720	-0.460825	-0.109419	0.375652	0.538918	0.753958
25169	3.038797	-4.222398	10.895347	0.266635	-4.267204	-0.942685	-0.280546	-0.677081	0.680335	0.879031	-0.465902	-0.101193	0.385485	0.569646	0.725882
25170	3.867995	-3.590492	10.584674	0.669952	-4.842249	-1.181893	-0.272099	-0.643080	0.715828	0.878349	-0.469813	-0.088191	0.393019	0.604751	0.692685
25171	4.923828	-2.280931	10.923972	0.770119	-5.427355	-1.349335	-0.262420	-0.602843	0.753469	0.877778	-0.473459	-0.073094	0.400801	0.642197	0.653407
25172	7.373821	-1.342399	12.331055	0.635910	-5.996877	-1.400367	-0.250389	-0.556492	0.792226	0.876744	-0.477416	-0.058256	0.410640	0.679992	0.607441
25173	12.618541	-3.061866	12.760029	0.150960	-6.210885	-1.347915	-0.236267	-0.506693	0.829120	0.874072	-0.483571	-0.046444	0.424471	0.713737	0.557138
25174	18.326449	-5.565695	14.055309	0.019633	-5.694076	-1.393170	-0.223897	-0.458436	0.860062	0.870927	-0.490195	-0.034561	0.437443	0.741313	0.509017
25175	16.737127	-7.487016	13.585620	0.353736	-4.697573	-1.581630	-0.216951	-0.415269	0.883450	0.868979	-0.494483	-0.019036	0.444756	0.763570	0.468138
25176	12.606048	-7.239056	12.374806	1.003137	-4.378426	-1.831840	-0.213400	-0.372252	0.903266	0.869479	-0.493966	0.001845	0.445495	0.785765	0.429078
25177	9.684325	-5.581311	12.906546	1.350415	-4.242968	-1.924236	-0.211320	-0.328958	0.920397	0.871369	-0.489994	0.024935	0.442786	0.807275	0.390189
25178	6.521378	-4.633448	13.078654	1.348627	-4.088661	-1.910389	-0.209960	-0.286203	0.934882	0.873273	-0.484893	0.047680	0.439671	0.826418	0.351741
25179	2.463346	-2.633904	12.641020	1.201233	-4.170804	-1.903910	-0.208313	-0.242172	0.947607	0.874541	-0.479931	0.069599	0.437931	0.843219	0.311765
25180	0.421639	-0.648671	11.782757	0.579157	-4.389018	-1.795847	-0.204714	-0.196234	0.958950	0.873357	-0.478986	0.088425	0.441972	0.855608	0.269438
25181	-3.953301	-3.303354	7.581277	-0.141665	-4.075752	-1.553920	-0.200065	-0.153734	0.967647	0.869558	-0.482959	0.103055	0.451490	0.862042	0.230304
25182	8.854547	-5.019574	8.379066	0.195457	-4.773724	-0.830276	-0.185562	-0.108356	0.976640	0.868824	-0.482390	0.111556	0.459034	0.869229	0.183656
25183	32.930742	-5.461586	11.829976	0.919234	-1.585374	-0.461916	-0.182362	-0.092305	0.978889	0.872150	-0.474870	0.117699	0.453981	0.875202	0.167102
25184	12.297754	-3.885670	19.312960	-1.570324	3.702382	1.097185	-0.189773	-0.129738	0.973219	0.866985	-0.487341	0.104091	0.460785	0.863520	0.204965
25185	2.089966	-16.869555	6.327892	0.062895	3.526799	1.640789	-0.191659	-0.168074	0.966963	0.870382	-0.484391	0.088321	0.453544	0.858555	0.239127
25186	-2.681636	-7.161971	6.204902	1.950202	3.586719	1.108477	-0.197806	-0.204147	0.958748	0.881130	-0.465594	0.082652	0.429514	0.861131	0.271977
25187	-1.937932	-5.430945	5.105410	1.276237	3.440539	1.308539	-0.200705	-0.239747	0.949863	0.889084	-0.451748	0.073840	0.411396	0.859328	0.303823
25188	-1.473416	-3.288455	4.739825	1.608110	3.322698	1.185275	-0.203453	-0.273498	0.940109	0.897906	-0.434937	0.067787	0.390349	0.857921	0.334065
25189	-1.111550	-0.081682	4.649845	1.462910	3.221998	0.991299	-0.206789	-0.305329	0.929523	0.905487	-0.419579	0.063619	0.370583	0.854826	0.363236
25190	-1.326775	2.227515	4.908580	0.637637	3.139571	0.918683	-0.209913	-0.335834	0.918233	0.909705	-0.411247	0.057554	0.358292	0.847402	0.391836
25191	-1.250640	2.126735	4.961033	-0.655759	2.968481	1.078451	-0.210752	-0.365243	0.906742	0.909606	-0.413022	0.045049	0.358050	0.834272	0.419273
25192	0.034623	-0.892183	5.258064	-1.915656	2.761210	1.127481	-0.210589	-0.392714	0.895225	0.904991	-0.424597	0.026626	0.369654	0.815778	0.444818
25193	2.803411	-4.678906	6.058612	-2.075432	2.546801	1.013718	-0.211046	-0.417618	0.883773	0.899298	-0.437261	0.008130	0.383044	0.796491	0.467845
25194	6.047009	-5.857508	6.875600	-1.294671	2.589220	0.829442	-0.213617	-0.441644	0.871389	0.896039	-0.443943	-0.005344	0.389207	0.779657	0.490564
25195	7.133102	-6.038878	7.210294	-0.993379	2.877468	0.962977	-0.216251	-0.468124	0.856794	0.894209	-0.447260	-0.018674	0.391951	0.762115	0.515321
25196	7.274232	-6.820865	6.766556	-0.497848	3.071403	1.100833	-0.218429	-0.496153	0.840310	0.894634	-0.445747	-0.030638	0.389767	0.745078	0.541240
25197	7.454764	-5.524286	6.953623	-0.042152	3.225357	1.178923	-0.220346	-0.525145	0.821992	0.897038	-0.440076	-0.040688	0.383106	0.728392	0.568044
25198	7.471786	-4.092059	7.133653	0.104926	3.269378	1.272497	-0.221322	-0.554200	0.802420	0.900225	-0.432496	-0.050410	0.374981	0.711202	0.594626
25199	7.432408	-3.156410	7.289188	0.030814	3.254104	1.374928	-0.221019	-0.582944	0.781874	0.903361	-0.424501	-0.061137	0.367546	0.692802	0.620432
25200	7.638878	-3.415763	7.376328	-0.137206	3.247232	1.466472	-0.219610	-0.611257	0.760353	0.906071	-0.416725	-0.073313	0.361671	0.672834	0.645360
25201	8.260945	-4.172782	7.555995	-0.172282	3.269850	1.552060	-0.217276	-0.639322	0.737603	0.908824	-0.408200	-0.086097	0.356133	0.651645	0.669723
25202	8.531060	-4.892754	7.635001	-0.072033	3.357466	1.611047	-0.214475	-0.667297	0.713243	0.912028	-0.398179	-0.098278	0.349579	0.629419	0.693993
25203	8.281727	-4.657486	7.833283	0.110017	3.442589	1.652028	-0.211283	-0.695057	0.687208	0.915905	-0.386284	-0.109100	0.341288	0.606367	0.718222
25204	8.008775	-3.877381	8.018310	0.212934	3.480262	1.697437	-0.207438	-0.722165	0.659884	0.920157	-0.373033	-0.118984	0.332085	0.582515	0.741887
25205	7.787046	-2.886256	8.223148	0.186637	3.508129	1.728595	-0.203006	-0.748498	0.631300	0.924297	-0.359295	-0.128772	0.323208	0.557367	0.764773
25206	7.803975	-2.208115	8.332325	0.076450	3.511185	1.699506	-0.198500	-0.773575	0.601814	0.927935	-0.345988	-0.138667	0.315490	0.530919	0.786506
25207	7.862049	-1.775639	8.425950	-0.140257	3.540772	1.619310	-0.194540	-0.797385	0.571254	0.930660	-0.334029	-0.149320	0.309881	0.502594	0.807077
25208	7.600784	-1.868448	8.463851	-0.350848	3.563482	1.501866	-0.191550	-0.819680	0.539846	0.932461	-0.323639	-0.160542	0.306309	0.472634	0.826312
25209	7.525378	-1.710689	8.615081	-0.508288	3.535508	1.349436	-0.189772	-0.840156	0.508060	0.933463	-0.314799	-0.171897	0.304357	0.441634	0.843994
25210	7.810197	-1.791095	8.971780	-0.673787	3.485168	1.193492	-0.189255	-0.858690	0.476271	0.933658	-0.307572	-0.183529	0.304082	0.409940	0.859932
25211	8.473875	-1.879634	9.366792	-0.805260	3.444840	1.026116	-0.190189	-0.875386	0.444441	0.933132	-0.301879	-0.195277	0.305110	0.377583	0.874265
25212	8.925220	-1.692435	9.641839	-0.909428	3.448734	0.865210	-0.192698	-0.890411	0.412353	0.931988	-0.297564	-0.207013	0.307028	0.344417	0.887193
25213	9.229946	-1.370946	9.639150	-1.005009	3.453111	0.701772	-0.196832	-0.903798	0.380009	0.930235	-0.294591	-0.218812	0.309709	0.310429	0.898729
25214	9.457470	-0.963358	9.585610	-1.112876	3.402145	0.538126	-0.202453	-0.915342	0.348083	0.927825	-0.293001	-0.230851	0.313296	0.276223	0.908596
25215	9.798995	-0.527616	9.343862	-1.217366	3.291273	0.361676	-0.209509	-0.924935	0.317176	0.924707	-0.292859	-0.243210	0.317841	0.242340	0.916650
25216	10.360569	-0.188527	8.978307	-1.305803	3.111545	0.154992	-0.218076	-0.932407	0.288201	0.920833	-0.294409	-0.255714	0.323279	0.209620	0.922795
25217	10.852321	0.319099	8.505926	-1.339844	2.906932	-0.095191	-0.228454	-0.937763	0.261553	0.916227	-0.297926	-0.267894	0.329145	0.178440	0.927266
25218	11.356929	1.062146	8.140462	-1.354818	2.612211	-0.354083	-0.240390	-0.940972	0.238295	0.910875	-0.303513	-0.279618	0.335438	0.149839	0.930070
25219	12.209126	1.735575	7.537685	-1.326031	2.253463	-0.613043	-0.253609	-0.942174	0.219066	0.904846	-0.311130	-0.290606	0.341959	0.124521	0.931428
25220	13.171786	2.094436	6.623842	-1.300817	1.921997	-0.837725	-0.267819	-0.941695	0.203673	0.898148	-0.320532	-0.300980	0.348715	0.102321	0.931627
25221	13.773378	2.460549	5.898389	-1.237025	1.628393	-1.028680	-0.282774	-0.939844	0.191657	0.890936	-0.331381	-0.310515	0.355347	0.082949	0.931047
25222	14.103503	2.683604	5.236058	-1.097045	1.289573	-1.128045	-0.297425	-0.936996	0.183240	0.883710	-0.342823	-0.318637	0.361380	0.067160	0.929997
25223	14.001366	2.583904	4.590614	-0.861745	0.894558	-1.160768	-0.310919	-0.933492	0.178670	0.877017	-0.354235	-0.324591	0.366294	0.055775	0.928826
25224	13.521085	2.614726	3.984347	-0.485806	0.441302	-1.166346	-0.322757	-0.929515	0.178408	0.871511	-0.365389	-0.327047	0.369184	0.049928	0.928014
25225	12.920242	2.802646	3.718089	-0.091117	-0.043353	-1.106140	-0.332235	-0.925384	0.182439	0.867523	-0.375721	-0.325940	0.370166	0.049982	0.927620
25226	12.136462	2.980416	3.829028	0.234138	-0.474172	-0.926750	-0.338528	-0.921600	0.189875	0.865257	-0.384188	-0.322071	0.369768	0.055260	0.927479
25227	11.236377	3.101974	4.099883	0.527776	-0.829391	-0.670712	-0.341291	-0.918493	0.199730	0.864896	-0.390072	-0.315911	0.368071	0.064928	0.927528
25228	9.882011	2.900977	4.320494	0.750964	-1.071212	-0.350935	-0.340419	-0.916340	0.210796	0.866429	-0.392788	-0.308252	0.365262	0.077705	0.927656
25229	7.918397	2.558470	4.967410	0.963786	-1.208520	-0.024471	-0.336264	-0.915202	0.222110	0.869818	-0.392224	-0.299295	0.361032	0.092553	0.927949
25230	3.627261	-3.566508	4.744605	0.385568	-0.673129	0.961787	-0.325468	-0.918266	0.225517	0.874366	-0.383069	-0.297897	0.359937	0.100228	0.927577
25231	2.028652	-0.710177	0.416854	4.172913	-3.151850	-0.041448	-0.314928	-0.914228	0.254966	0.888673	-0.378366	-0.259035	0.333287	0.145004	0.931608
25232	2.951898	7.551213	4.084126	5.095546	-3.073281	-0.888433	-0.313211	-0.905667	0.285773	0.901932	-0.377893	-0.209081	0.297349	0.192261	0.935211
25233	4.076890	9.300912	10.351473	1.561971	-2.212530	0.266879	-0.304321	-0.902111	0.305915	0.907321	-0.372314	-0.195322	0.290098	0.218123	0.931808
25234	2.768630	0.175627	6.602508	-0.119451	-2.308574	1.134047	-0.287246	-0.900989	0.325129	0.910304	-0.362399	-0.200033	0.298054	0.238508	0.924272
25235	1.111826	-14.975263	7.953172	1.608906	-2.306453	-0.567383	-0.285660	-0.893105	0.347508	0.913388	-0.363477	-0.183319	0.290035	0.265043	0.919583
25236	15.345492	3.157824	31.503067	8.951687	-4.351598	-4.675533	-0.317507	-0.862640	0.393753	0.922149	-0.377652	-0.083781	0.220974	0.336498	0.915390
25237	56.584724	30.535805	22.745219	3.017257	-4.925418	-0.906619	-0.315325	-0.841318	0.439038	0.925745	-0.374461	-0.052683	0.208726	0.389825	0.896922
25238	-0.590481	6.246803	8.790531	-2.570244	6.464950	-0.180607	-0.330609	-0.863723	0.380368	0.919739	-0.385231	-0.075345	0.211606	0.324929	0.921761
25239	-10.902987	-0.986737	19.194227	-0.110980	-2.108711	-0.012293	-0.326200	-0.856614	0.399758	0.919441	-0.385748	-0.076334	0.219595	0.342653	0.913437
25240	14.366762	2.329732	5.632491	0.948882	-3.711756	0.803542	-0.310607	-0.846277	0.432826	0.924080	-0.375527	-0.071101	0.222709	0.377881	0.898669
25241	9.951007	1.624314	7.614024	-0.866242	1.739292	-0.060067	-0.315082	-0.852443	0.417210	0.921934	-0.379273	-0.078677	0.225304	0.359850	0.905398
25242	-0.688260	-0.732993	12.897642	-0.980711	1.380719	0.127171	-0.317078	-0.857767	0.404596	0.920084	-0.381680	-0.088123	0.230015	0.344320	0.910240
25243	5.212290	-1.471485	8.802589	0.446954	-1.519374	0.234600	-0.311441	-0.853292	0.418207	0.921833	-0.378141	-0.085050	0.230713	0.359029	0.904361
25244	6.799665	0.200030	8.627969	0.256272	0.049048	0.098636	-0.310667	-0.853819	0.417707	0.922709	-0.376419	-0.083164	0.228239	0.359586	0.904768
25245	3.047608	-1.150695	10.477419	-0.129441	0.132600	0.136274	-0.309737	-0.854784	0.416422	0.922818	-0.375760	-0.084920	0.229063	0.357979	0.905197
25246	4.931528	-1.444181	9.146638	0.146323	-0.296146	0.079772	-0.308347	-0.853997	0.419060	0.923381	-0.374593	-0.083949	0.228669	0.361066	0.904069
25247	4.287198	-1.192362	9.436189	0.052642	-0.047822	0.062670	-0.307683	-0.854036	0.419469	0.923676	-0.373908	-0.083753	0.228371	0.361684	0.903898
25248	4.500201	-1.194909	9.217518	0.063925	-0.123619	0.046623	-0.306994	-0.853741	0.420573	0.923947	-0.373319	-0.083391	0.228202	0.362987	0.903418
25249	4.338782	-1.087054	9.292600	0.053129	-0.067338	0.041497	-0.306481	-0.853628	0.421176	0.924178	-0.372813	-0.083103	0.227959	0.363772	0.903164
25250	4.498167	-0.963913	9.254282	0.057884	-0.095622	0.035335	-0.305960	-0.853390	0.422036	0.924400	-0.372342	-0.082749	0.227758	0.364812	0.902795
25251	4.521084	-1.011570	9.196822	0.069180	-0.054354	0.033364	-0.305552	-0.853292	0.422528	0.924641	-0.371845	-0.082282	0.227326	0.365546	0.902607
25252	4.385696	-0.899080	9.356926	0.078342	-0.052058	0.025268	-0.305224	-0.853174	0.423004	0.924878	-0.371384	-0.081701	0.226802	0.366289	0.902437
25253	4.439088	-0.728572	9.376497	0.076384	-0.060268	0.023632	-0.304893	-0.853018	0.423557	0.925105	-0.370943	-0.081129	0.226321	0.367099	0.902229
25254	4.360386	-0.700054	9.360567	0.068518	-0.053650	0.027924	-0.304538	-0.852903	0.424045	0.925327	-0.370494	-0.080649	0.225892	0.367819	0.902043
25255	4.261783	-0.638351	9.437014	0.062427	-0.068717	0.032752	-0.304104	-0.852748	0.424667	0.925549	-0.370026	-0.080242	0.225564	0.368648	0.901787
25256	4.295772	-0.710464	9.448181	0.030991	-0.085882	0.036567	-0.303595	-0.852545	0.425438	0.925712	-0.369641	-0.080138	0.225580	0.369504	0.901432
25257	4.365831	-0.812088	9.418083	0.011434	-0.096528	0.040276	-0.303029	-0.852313	0.426305	0.925842	-0.369297	-0.080223	0.225808	0.370381	0.901015
25258	4.353168	-0.916191	9.331021	-0.001121	-0.103959	0.042335	-0.302426	-0.852062	0.427233	0.925950	-0.368981	-0.080433	0.226175	0.371271	0.900557
25259	4.377672	-0.911273	9.378335	-0.006620	-0.111480	0.043593	-0.301794	-0.851786	0.428230	0.926049	-0.368676	-0.080696	0.226614	0.372208	0.900059
25260	4.426737	-0.958502	9.230841	-0.009462	-0.109006	0.047870	-0.301128	-0.851534	0.429198	0.926154	-0.368344	-0.081006	0.227072	0.373110	0.899570
25261	4.420850	-0.932875	9.237964	-0.006658	-0.106885	0.047715	-0.300467	-0.851288	0.430149	0.926264	-0.368004	-0.081288	0.227496	0.374008	0.899091
25262	4.441389	-0.958733	9.301863	-0.013738	-0.104326	0.044436	-0.299842	-0.851039	0.431077	0.926348	-0.367719	-0.081622	0.227978	0.374854	0.898616
25263	4.412296	-0.977154	9.333186	-0.019411	-0.101086	0.046409	-0.299205	-0.850807	0.431976	0.926425	-0.367438	-0.082013	0.228502	0.375654	0.898149
25264	4.269369	-1.111314	9.344666	-0.013595	-0.110912	0.046219	-0.298547	-0.850538	0.432960	0.926514	-0.367137	-0.082354	0.229001	0.376556	0.897643
25265	4.379764	-1.005495	9.306825	-0.006747	-0.142164	0.039472	-0.297880	-0.850124	0.434231	0.926598	-0.366868	-0.082603	0.229529	0.377752	0.897006
25266	4.377248	-0.956337	9.355269	-0.021554	-0.139991	0.040613	-0.297206	-0.849722	0.435479	0.926651	-0.366646	-0.082992	0.230187	0.378871	0.896365
25267	4.066718	-0.652429	9.793308	-0.024495	-0.137278	0.018612	-0.296741	-0.849246	0.436722	0.926632	-0.366622	-0.083310	0.230862	0.379959	0.895731
25268	4.141897	-0.738030	9.549003	-0.111473	-0.251659	0.009743	-0.296091	-0.848302	0.438992	0.926385	-0.367006	-0.084369	0.232683	0.381695	0.894521
25269	4.622095	-0.946390	9.392310	-0.131956	-0.244183	0.007245	-0.295477	-0.847372	0.441197	0.926080	-0.367490	-0.085597	0.234668	0.383291	0.893319
25270	4.514810	-0.897423	9.319014	-0.136151	-0.244456	-0.001738	-0.294941	-0.846404	0.443407	0.925736	-0.368069	-0.086823	0.236692	0.384869	0.892106
25271	4.631963	-0.879196	9.204543	-0.153609	-0.248911	-0.004199	-0.294412	-0.845406	0.445657	0.925340	-0.368739	-0.088191	0.238888	0.386420	0.890849
25272	4.726223	-0.881206	9.156730	-0.147370	-0.235441	-0.001526	-0.293885	-0.844467	0.447781	0.924964	-0.369364	-0.089514	0.240986	0.387874	0.889652
25273	4.687000	-0.964833	9.183815	-0.147488	-0.225914	-0.005571	-0.293413	-0.843545	0.449822	0.924572	-0.370025	-0.090817	0.243054	0.389246	0.888489
25274	4.635590	-0.990139	9.207477	-0.154666	-0.216697	-0.010342	-0.293003	-0.842640	0.451782	0.924146	-0.370757	-0.092162	0.245160	0.390509	0.887355
25275	4.633231	-1.059516	9.198219	-0.166476	-0.224786	-0.016377	-0.292625	-0.841677	0.453818	0.923670	-0.371588	-0.093580	0.247397	0.391794	0.886167
25276	4.722260	-1.092411	9.166570	-0.170679	-0.223775	-0.020402	-0.292280	-0.840701	0.455845	0.923167	-0.372471	-0.095016	0.249669	0.393050	0.884973
25277	4.629827	-1.003654	9.212408	-0.168610	-0.220916	-0.025953	-0.291989	-0.839711	0.457852	0.922650	-0.373394	-0.096405	0.251912	0.394288	0.883786
25278	4.678862	-0.886439	9.267751	-0.169183	-0.222226	-0.025492	-0.291685	-0.838716	0.459865	0.922129	-0.374318	-0.097800	0.254162	0.395528	0.882587
25279	4.685709	-0.872832	9.268349	-0.173598	-0.242782	-0.025715	-0.291326	-0.837634	0.462060	0.921592	-0.375263	-0.099228	0.256511	0.396923	0.881280
25280	4.515006	-0.704236	9.412824	-0.171197	-0.248180	-0.022127	-0.290913	-0.836541	0.464293	0.921067	-0.376170	-0.100651	0.258852	0.398365	0.879944
25281	4.462636	-0.804668	9.446408	-0.187471	-0.300068	-0.017240	-0.290314	-0.835255	0.466977	0.920511	-0.377105	-0.102234	0.261491	0.400177	0.878340
25282	4.436102	-0.858806	9.534807	-0.193430	-0.342379	-0.017145	-0.289595	-0.833794	0.470025	0.919934	-0.378065	-0.103868	0.264305	0.402312	0.876521
25283	4.267583	-0.797768	9.924383	-0.205218	-0.409167	-0.021712	-0.288730	-0.832036	0.473657	0.919306	-0.379116	-0.105578	0.267415	0.404952	0.874358
25284	3.835201	-0.906166	10.355239	-0.248599	-0.520591	-0.042030	-0.287736	-0.829737	0.478272	0.918497	-0.380518	-0.107564	0.271241	0.408341	0.871599
25285	3.760403	-1.109419	10.454580	-0.327887	-0.688517	-0.071549	-0.286531	-0.826613	0.484366	0.917374	-0.382498	-0.110086	0.276268	0.412802	0.867912
25286	3.458040	-1.208963	10.752591	-0.364254	-0.866027	-0.121590	-0.285250	-0.822524	0.492024	0.915990	-0.385057	-0.112662	0.282124	0.418552	0.863261
25287	3.251823	-1.127941	11.004331	-0.398834	-1.088970	-0.170887	-0.283727	-0.817241	0.501613	0.914346	-0.388184	-0.115258	0.288912	0.425947	0.857380
25288	2.978157	-1.427642	11.341432	-0.437646	-1.352898	-0.220469	-0.281801	-0.810532	0.513446	0.912421	-0.391905	-0.117890	0.296775	0.435258	0.849985
25289	2.490769	-1.765794	12.103370	-0.346504	-1.701821	-0.295551	-0.279398	-0.801831	0.528208	0.910530	-0.395858	-0.119292	0.304748	0.447620	0.840693
25290	2.010287	-1.154542	12.195983	-0.151796	-2.135938	-0.380900	-0.276297	-0.790555	0.546519	0.908984	-0.399625	-0.118526	0.312104	0.464029	0.829016
25291	1.776133	-1.446281	12.323043	-0.222671	-2.602056	-0.473893	-0.272380	-0.776297	0.568482	0.906959	-0.404434	-0.117724	0.321303	0.483524	0.814229
25292	1.087918	-2.266533	13.001733	-0.065736	-3.195097	-0.618517	-0.267590	-0.757916	0.594945	0.905054	-0.409548	-0.114666	0.330566	0.507774	0.795545
25293	0.464558	-3.478388	13.780554	0.053425	-4.033467	-0.790123	-0.261214	-0.733538	0.627447	0.903124	-0.415203	-0.109425	0.340785	0.538079	0.770932
25294	-0.088759	-5.156988	13.809913	0.198546	-4.903601	-1.053993	-0.253763	-0.701824	0.665618	0.901076	-0.421708	-0.101116	0.351662	0.574113	0.739411
25295	-0.014153	-6.033351	13.465494	0.588610	-6.012982	-1.434056	-0.245254	-0.659867	0.710230	0.899576	-0.428008	-0.087019	0.361405	0.617564	0.698571
25296	1.665345	-4.865665	13.828274	1.093531	-7.132327	-1.799284	-0.235413	-0.606245	0.759636	0.899223	-0.432418	-0.066430	0.368753	0.667444	0.646947
25297	6.852381	-2.946754	15.433244	1.204629	-8.256472	-2.042731	-0.223011	-0.540036	0.811558	0.899012	-0.435812	-0.042961	0.376887	0.720020	0.582690
25298	17.279389	-4.530388	17.591269	0.640819	-8.671732	-1.933421	-0.207141	-0.467026	0.859639	0.897288	-0.440832	-0.023283	0.389830	0.766521	0.510371
25299	27.100071	-9.347870	19.457206	0.462054	-7.645476	-1.767691	-0.192768	-0.399192	0.896374	0.895560	-0.444907	-0.005542	0.401015	0.801688	0.443264
25300	23.612937	-12.320313	18.820092	1.490537	-5.828373	-2.172451	-0.188952	-0.341968	0.920519	0.897354	-0.440838	0.020427	0.398814	0.829891	0.390164
25301	16.503700	-5.958249	19.165569	2.804538	-5.533726	-2.204672	-0.187170	-0.285655	0.939877	0.904168	-0.424103	0.051162	0.383990	0.859382	0.337659
25302	5.616179	-3.551666	17.369598	2.277519	-4.686593	-1.727089	-0.185134	-0.237628	0.953550	0.909544	-0.408838	0.074706	0.372095	0.881127	0.291823
25303	-8.247271	-0.821450	13.771451	1.973100	-4.800847	-1.508613	-0.181264	-0.188806	0.965140	0.914014	-0.394526	0.094483	0.362934	0.899278	0.244085
25304	-10.958424	-1.465318	6.014548	1.679505	-5.705172	-1.143427	-0.171200	-0.132565	0.976277	0.918033	-0.381163	0.109230	0.357640	0.914954	0.186955
25305	33.771287	-1.659045	18.254323	0.739053	-9.183738	0.771697	-0.130924	-0.050869	0.990087	0.921853	-0.373683	0.102701	0.364754	0.926161	0.095818
25306	28.424810	-6.663238	2.879925	1.083217	0.225750	0.558888	-0.126591	-0.054988	0.990430	0.926451	-0.363369	0.098239	0.354490	0.930021	0.096943
25307	7.377389	-8.550857	14.963556	-0.458867	2.012407	1.781163	-0.117258	-0.080169	0.989860	0.926976	-0.366463	0.080128	0.356323	0.926972	0.117286
25308	8.414622	-13.089735	7.645111	2.706295	2.364519	1.557013	-0.110854	-0.107641	0.987990	0.938003	-0.339849	0.068219	0.328424	0.934300	0.138641
25309	0.402228	-4.681246	5.628216	3.181400	3.464268	1.278876	-0.109598	-0.144264	0.983451	0.949311	-0.308453	0.060546	0.294613	0.940237	0.170757
25310	-3.658672	-3.173644	2.457686	2.873840	3.146731	1.132918	-0.107600	-0.177206	0.978274	0.958553	-0.279597	0.054784	0.263815	0.943623	0.199946
25311	-3.625475	-0.271185	1.689469	2.963089	2.598623	0.784284	-0.106520	-0.203849	0.973190	0.966736	-0.250137	0.053419	0.232541	0.946508	0.223713
25312	-2.643220	2.621656	2.266594	2.384647	2.253855	0.470722	-0.106936	-0.226283	0.968174	0.972468	-0.226583	0.054453	0.207050	0.947341	0.244283
25313	-1.228491	3.698775	2.310435	0.874493	2.099618	0.631803	-0.105042	-0.247549	0.963164	0.974892	-0.216857	0.050586	0.196347	0.944295	0.264113
25314	-0.969558	0.823034	1.671355	-1.021792	2.433360	0.992490	-0.100267	-0.272580	0.956894	0.973855	-0.223924	0.038257	0.203844	0.935713	0.287906
25315	-1.063587	-2.725576	1.827860	-1.852305	2.465134	1.069258	-0.095111	-0.297985	0.949820	0.970969	-0.238145	0.022516	0.219485	0.924387	0.311984
25316	1.122057	-5.596712	2.549399	-1.237647	2.093995	0.939119	-0.090728	-0.319489	0.943237	0.969051	-0.246672	0.009660	0.229584	0.914921	0.331981
25317	4.155820	-4.644676	2.896900	-0.224870	2.203626	0.857426	-0.087502	-0.341682	0.935733	0.969288	-0.245928	0.000840	0.229836	0.907068	0.352707
25318	5.162643	-4.301022	2.931120	-0.255687	2.693110	1.068553	-0.083361	-0.368564	0.925857	0.969601	-0.244484	-0.010024	0.230052	0.896877	0.377740
25319	4.273794	-4.508752	2.826290	0.065632	3.088963	1.225964	-0.078546	-0.399061	0.913554	0.970733	-0.239237	-0.021042	0.226953	0.885164	0.406173
25320	3.633154	-2.994084	2.815590	0.323418	3.211393	1.333044	-0.072819	-0.430392	0.899700	0.972457	-0.230911	-0.031754	0.221417	0.872607	0.435352
25321	3.560711	-2.070999	3.020200	0.246512	3.251530	1.429503	-0.066050	-0.461788	0.884528	0.973979	-0.222443	-0.043401	0.216799	0.858645	0.464465
25322	4.305997	-1.901924	3.283531	0.131642	3.291898	1.480560	-0.058729	-0.493007	0.868041	0.975176	-0.214300	-0.055736	0.213499	0.843220	0.493355
25323	4.818855	-2.137695	3.577570	0.063002	3.433615	1.490221	-0.051497	-0.524806	0.849663	0.976122	-0.206233	-0.068221	0.211032	0.825861	0.522895
25324	5.036696	-2.752776	3.763281	0.105996	3.608402	1.442200	-0.045004	-0.557147	0.829194	0.977031	-0.197613	-0.079751	0.208292	0.806559	0.553243
25325	5.020695	-2.705302	4.137822	0.247199	3.736884	1.359211	-0.039446	-0.589526	0.806785	0.978105	-0.187894	-0.089474	0.204338	0.785592	0.584030
25326	5.166994	-2.387018	4.406852	0.351976	3.827873	1.289613	-0.034579	-0.621500	0.782650	0.979285	-0.177407	-0.097611	0.199513	0.763062	0.614761
25327	5.361748	-1.791278	5.003653	0.383918	3.888581	1.226406	-0.030244	-0.652825	0.756905	0.980430	-0.166752	-0.104647	0.194531	0.738927	0.645092
25328	5.834532	-1.114427	5.748856	0.321124	3.915694	1.193704	-0.026095	-0.683167	0.729796	0.981376	-0.156493	-0.111403	0.190315	0.713297	0.674527
25329	6.519613	-0.688083	6.371043	0.182921	3.970667	1.142286	-0.022405	-0.712690	0.701121	0.981990	-0.147283	-0.118333	0.187598	0.685843	0.703155
25330	6.704391	-0.618539	6.884125	-0.011709	4.083065	1.055088	-0.019715	-0.741584	0.670571	0.982183	-0.139737	-0.125658	0.186889	0.656146	0.731126
25331	7.258267	-0.720627	7.476493	-0.102262	4.114731	0.877338	-0.018815	-0.769150	0.638792	0.982152	-0.133806	-0.132184	0.187143	0.624904	0.757940
25332	7.795348	-0.669348	8.169876	-0.179587	4.193426	0.614414	-0.020676	-0.795457	0.605658	0.981929	-0.130139	-0.137400	0.188116	0.591872	0.783773
25333	8.389629	-0.519211	8.674188	-0.249495	4.272707	0.305635	-0.025768	-0.820406	0.571201	0.981520	-0.129144	-0.141208	0.189615	0.557007	0.808573
25334	8.525261	0.320899	9.232722	-0.338462	4.348629	-0.050875	-0.034586	-0.843751	0.535619	0.980852	-0.131438	-0.143716	0.191661	0.520393	0.832140
25335	8.805740	1.419770	9.920522	-0.562698	4.346653	-0.382407	-0.046772	-0.865039	0.499520	0.979597	-0.137567	-0.146507	0.195452	0.482476	0.853824
25336	9.503200	2.256009	10.422777	-0.940506	4.314943	-0.667842	-0.061918	-0.884048	0.463276	0.977354	-0.147809	-0.151430	0.202348	0.443409	0.873180
25337	10.137152	1.971840	10.730468	-1.421151	4.304484	-0.873003	-0.079405	-0.900913	0.426673	0.973773	-0.161653	-0.160106	0.213214	0.402770	0.890121
25338	10.818865	1.190219	11.233555	-1.656018	4.192081	-1.051550	-0.098847	-0.915145	0.390819	0.969191	-0.177579	-0.170689	0.225606	0.361906	0.904503
25339	12.083661	1.382602	11.384754	-1.627098	4.036694	-1.163868	-0.119461	-0.926781	0.356099	0.964144	-0.193897	-0.181192	0.236972	0.321685	0.916713
25340	12.871148	1.495768	10.791704	-1.661380	3.897833	-1.166512	-0.140154	-0.936179	0.322374	0.958588	-0.209821	-0.192574	0.247925	0.282034	0.926817
25341	13.397006	1.397323	9.997858	-1.631207	3.592494	-1.106638	-0.159845	-0.943235	0.291132	0.952785	-0.224551	-0.204396	0.258168	0.244714	0.934593
25342	14.241266	1.587515	9.094067	-1.454776	3.040588	-1.010147	-0.177450	-0.947841	0.264781	0.947246	-0.237469	-0.215251	0.266901	0.212617	0.939978
25343	15.749594	1.541176	7.727404	-1.200085	2.349422	-0.883136	-0.192170	-0.950389	0.244604	0.942353	-0.248283	-0.224337	0.273938	0.187393	0.943314
25344	16.371151	1.205562	7.511989	-1.060160	1.786771	-0.675063	-0.203493	-0.951845	0.229307	0.938062	-0.256624	-0.232775	0.280411	0.167736	0.945111
25345	11.545884	-5.294887	3.926508	-1.369015	1.560194	0.239630	-0.205722	-0.954926	0.214000	0.934630	-0.256541	-0.246280	0.290079	0.149345	0.945278
25346	26.052042	-3.041297	-5.672018	2.810754	-3.477827	-1.077420	-0.206090	-0.946222	0.249383	0.940280	-0.262055	-0.217259	0.270927	0.189715	0.943720
25347	30.072996	6.385644	-1.353607	2.306585	-0.569661	-0.906369	-0.213169	-0.942703	0.256650	0.944375	-0.266144	-0.193193	0.250430	0.201191	0.946999
25348	26.410498	5.882812	-2.202044	1.284337	-1.872516	0.078671	-0.207836	-0.938933	0.274243	0.947689	-0.262723	-0.181282	0.242261	0.222220	0.944419
25349	22.375708	1.401846	-2.480381	1.453435	-2.027882	0.355754	-0.199666	-0.935103	0.292774	0.951848	-0.256034	-0.168617	0.232634	0.245010	0.941197
25350	9.033567	3.221156	7.424480	1.822679	-0.964517	0.232211	-0.195306	-0.933246	0.301510	0.956392	-0.249314	-0.152176	0.217188	0.258641	0.941241
25351	5.534057	2.339255	22.080781	-0.862522	-0.651321	1.254000	-0.181889	-0.934597	0.305686	0.956827	-0.239894	-0.164115	0.226714	0.262638	0.937882
25352	-4.726757	-3.908240	7.691192	0.905936	-1.465430	1.570819	-0.163569	-0.934252	0.316887	0.961552	-0.222804	-0.160547	0.220595	0.278443	0.934777
25353	-6.929930	4.853427	6.398056	2.763057	-2.510940	0.053473	-0.157823	-0.926990	0.340267	0.967408	-0.214249	-0.134975	0.198022	0.307875	0.930591
25354	2.748385	8.905932	17.402215	1.521729	-4.094564	-0.790830	-0.157567	-0.911824	0.379144	0.969100	-0.216565	-0.118086	0.189783	0.348822	0.917772
25355	44.813310	7.153115	26.700975	0.699079	-5.170088	-1.086194	-0.158269	-0.890129	0.427342	0.968704	-0.223790	-0.107377	0.191215	0.396974	0.897691
25356	14.543007	-2.831227	-3.403511	0.883467	2.250800	0.132469	-0.161178	-0.899136	0.406910	0.970540	-0.219221	-0.099973	0.179092	0.378809	0.907981
25357	-16.884762	-9.558589	12.373661	-0.335405	2.601281	-0.819848	-0.173800	-0.906819	0.384022	0.968555	-0.227900	-0.099810	0.178028	0.354599	0.917914
25358	15.585670	2.729464	20.941064	2.158483	-5.354568	-0.308132	-0.167597	-0.885699	0.432953	0.971734	-0.222478	-0.078968	0.166264	0.407480	0.897951
25359	12.288924	7.959131	0.085364	3.226694	0.024554	-1.097708	-0.178346	-0.883353	0.433451	0.974683	-0.218973	-0.045218	0.134857	0.414413	0.900042
25360	3.707997	3.497784	16.644997	-3.723895	2.303992	0.498808	-0.177001	-0.893672	0.412336	0.969936	-0.229482	-0.081006	0.167017	0.385602	0.907423
25361	1.093758	-7.239009	7.706837	-0.634621	-1.011600	0.829994	-0.167247	-0.891593	0.420821	0.970268	-0.224589	-0.090221	0.174953	0.393220	0.902646
25362	7.855102	-0.148584	9.830429	1.189830	-0.528614	0.038196	-0.166006	-0.889562	0.425584	0.972338	-0.219569	-0.079670	0.164316	0.400585	0.901405
25363	4.311098	0.567221	9.439281	-0.039102	0.391674	0.048479	-0.166206	-0.891206	0.422051	0.972343	-0.219339	-0.080243	0.164085	0.397042	0.903014
25364	3.957466	-0.869759	10.022269	0.057365	-0.243171	0.082799	-0.165029	-0.890402	0.424205	0.972563	-0.218416	-0.080095	0.163970	0.399348	0.902017
25365	4.778856	-0.481904	9.463859	0.105611	-0.100008	0.060161	-0.164309	-0.890109	0.425099	0.972824	-0.217503	-0.079413	0.163146	0.400498	0.901657
25366	4.445600	-0.631975	9.559331	0.038000	-0.177739	0.068977	-0.163375	-0.889528	0.426672	0.972987	-0.216781	-0.079383	0.163108	0.402177	0.900916
25367	4.362369	-1.033360	9.268152	0.022753	-0.095228	0.070084	-0.162566	-0.889272	0.427514	0.973128	-0.216111	-0.079492	0.163080	0.403103	0.900507
25368	4.575916	-0.859290	9.482479	0.034278	-0.081391	0.070835	-0.161771	-0.889079	0.428216	0.973287	-0.215386	-0.079506	0.162919	0.403916	0.900172
25369	4.346662	-1.405426	9.238624	-0.049936	-0.176825	0.057749	-0.160948	-0.888463	0.429801	0.973287	-0.215120	-0.080217	0.163729	0.405409	0.899353
25370	4.492559	-1.126171	9.327438	0.008618	-0.094156	0.042339	-0.160409	-0.888155	0.430640	0.973358	-0.214753	-0.080341	0.163836	0.406279	0.898941
25371	4.468291	-1.146831	9.220041	-0.045406	-0.115168	0.040509	-0.159854	-0.887749	0.431682	0.973338	-0.214623	-0.080938	0.164501	0.407234	0.898387
25372	4.412526	-0.891783	9.286138	-0.025298	-0.105849	0.025378	-0.159460	-0.887354	0.432638	0.973325	-0.214544	-0.081294	0.164956	0.408134	0.897895
25373	4.413652	-0.852772	9.311345	-0.064627	-0.111889	0.033495	-0.158977	-0.886944	0.433654	0.973260	-0.214557	-0.082033	0.165803	0.409017	0.897337
25374	4.343118	-0.789507	9.472057	-0.078745	-0.118820	0.026695	-0.158546	-0.886498	0.434724	0.973161	-0.214686	-0.082875	0.166797	0.409917	0.896742
25375	4.246324	-0.862710	9.547332	-0.091447	-0.145908	0.033924	-0.158000	-0.885947	0.436043	0.973050	-0.214806	-0.083856	0.167957	0.411043	0.896010
25376	4.347586	-1.051542	9.469620	-0.114684	-0.205411	0.035675	-0.157334	-0.885160	0.437879	0.972902	-0.215006	-0.085058	0.169437	0.412630	0.895001
25377	4.552461	-0.914568	9.314506	-0.117115	-0.192993	0.024207	-0.156798	-0.884390	0.439624	0.972729	-0.215322	-0.086226	0.170918	0.414115	0.894034
25378	4.539531	-0.905625	9.323126	-0.130103	-0.204794	0.015610	-0.156321	-0.883556	0.441466	0.972519	-0.215767	-0.087476	0.172544	0.415660	0.893004
25379	3.847518	-0.737602	9.830028	-0.119414	-0.167339	0.014146	-0.155921	-0.882865	0.442987	0.972322	-0.216185	-0.088618	0.174005	0.416909	0.892138
25380	4.911236	-0.690846	9.194949	-0.207514	-0.335745	0.023443	-0.155132	-0.881494	0.445984	0.971984	-0.216890	-0.090590	0.176584	0.419436	0.890444
25381	4.468708	-1.475093	9.052830	-0.172326	-0.222706	0.009838	-0.154668	-0.880555	0.447996	0.971681	-0.217573	-0.092181	0.178643	0.421052	0.889270
25382	4.718997	-1.191832	9.170135	-0.215510	-0.241961	0.004111	-0.154220	-0.879525	0.450169	0.971288	-0.218490	-0.094133	0.181150	0.422727	0.887968
25383	4.611694	-1.152167	9.192848	-0.212093	-0.231060	-0.018853	-0.154009	-0.878480	0.452276	0.970861	-0.219600	-0.095943	0.183604	0.424321	0.886702
25384	4.591911	-1.192481	9.197091	-0.256883	-0.225164	-0.028936	-0.153900	-0.877441	0.454326	0.970329	-0.220990	-0.098106	0.186484	0.425747	0.885417
25385	4.667213	-1.130470	9.268843	-0.260430	-0.233627	-0.039078	-0.153867	-0.876333	0.456471	0.969768	-0.222489	-0.100246	0.189408	0.427246	0.884073
25386	4.582784	-1.384214	9.150593	-0.295872	-0.245498	-0.042276	-0.153834	-0.875169	0.458708	0.969125	-0.224169	-0.102684	0.192694	0.428750	0.882634
25387	4.647896	-1.012777	9.204994	-0.223826	-0.260032	-0.057312	-0.153912	-0.873898	0.461100	0.968591	-0.225678	-0.104407	0.195302	0.430548	0.881184
25388	4.749526	-0.787107	9.175196	-0.217821	-0.251359	-0.048166	-0.153910	-0.872686	0.463391	0.968076	-0.227083	-0.106120	0.197837	0.432264	0.879777
25389	4.724976	-1.007276	9.089776	-0.222445	-0.255168	-0.039799	-0.153814	-0.871464	0.465715	0.967560	-0.228439	-0.107903	0.200421	0.434011	0.878331
25390	4.823211	-1.012115	9.057981	-0.186841	-0.265187	-0.031064	-0.153606	-0.870221	0.468103	0.967123	-0.229567	-0.109415	0.202676	0.435906	0.876874
25391	4.846251	-1.108708	8.949032	-0.178701	-0.261529	-0.016573	-0.153261	-0.869015	0.470452	0.966721	-0.230538	-0.110915	0.204844	0.437797	0.875427
25392	4.880251	-1.225546	8.909066	-0.153257	-0.255029	-0.014159	-0.152898	-0.867844	0.472725	0.966372	-0.231377	-0.112206	0.206755	0.439672	0.874037
25393	5.011293	-1.301932	8.803753	-0.132161	-0.233796	-0.013211	-0.152567	-0.866757	0.474821	0.966065	-0.232120	-0.113310	0.208428	0.441420	0.872758
25394	4.816673	-1.390601	9.012264	-0.119841	-0.221056	-0.008632	-0.152214	-0.865741	0.476785	0.965788	-0.232769	-0.114331	0.209962	0.443070	0.871553
25395	4.768422	-1.539408	9.149982	-0.128606	-0.234739	-0.015840	-0.151899	-0.864635	0.478887	0.965480	-0.233524	-0.115387	0.211599	0.444828	0.870261
25396	4.723188	-1.537060	9.196390	-0.117064	-0.251560	-0.025722	-0.151639	-0.863435	0.481130	0.965180	-0.234312	-0.116298	0.213150	0.446742	0.868901
25397	4.601357	-1.351386	9.402764	-0.135575	-0.275078	-0.046952	-0.151529	-0.862066	0.483612	0.964806	-0.235371	-0.117261	0.214914	0.448823	0.867392
25398	4.532665	-1.258304	9.482748	-0.163968	-0.335017	-0.062903	-0.151438	-0.860391	0.486615	0.964344	-0.236695	-0.118392	0.217043	0.451335	0.865557
25399	4.567223	-1.127839	9.493640	-0.171978	-0.389044	-0.064322	-0.151236	-0.858450	0.490094	0.963858	-0.238073	-0.119577	0.219328	0.454297	0.863429
25400	4.409535	-0.809683	9.794996	-0.174876	-0.455601	-0.079390	-0.151021	-0.856163	0.494144	0.963340	-0.239595	-0.120709	0.221741	0.457798	0.860960
25401	4.199263	-0.676977	10.013012	-0.204588	-0.560518	-0.067862	-0.150450	-0.853395	0.499081	0.962768	-0.241163	-0.122142	0.224595	0.462123	0.857904
25402	4.205551	-0.710764	9.974632	-0.237701	-0.697195	-0.071429	-0.149585	-0.849961	0.505163	0.962110	-0.242921	-0.123833	0.227968	0.467499	0.854093
25403	4.189207	-0.616500	10.061362	-0.251990	-0.814106	-0.077357	-0.148484	-0.845914	0.512232	0.961402	-0.244809	-0.125596	0.231642	0.473812	0.849614
25404	4.012713	-0.817469	10.146243	-0.292576	-0.973661	-0.086966	-0.147069	-0.841030	0.520614	0.960576	-0.246985	-0.127639	0.235932	0.481318	0.844197
25405	3.802402	-1.063574	10.375998	-0.322996	-1.163518	-0.106674	-0.145346	-0.835086	0.530572	0.959637	-0.249494	-0.129803	0.240771	0.490290	0.837642
25406	3.523765	-1.582133	10.604394	-0.373068	-1.414112	-0.153069	-0.143394	-0.827671	0.542586	0.958494	-0.252661	-0.132105	0.246430	0.501123	0.829547
25407	3.381205	-2.069894	10.474810	-0.297751	-1.670475	-0.214457	-0.141313	-0.818618	0.556682	0.957434	-0.255985	-0.133389	0.251697	0.514137	0.819946
25408	3.551375	-1.656194	10.567634	-0.194726	-1.983579	-0.289983	-0.139074	-0.807495	0.573246	0.956519	-0.259404	-0.133348	0.256380	0.529775	0.808460
25409	3.618722	-1.453172	10.523860	-0.161802	-2.264198	-0.365370	-0.136734	-0.794316	0.591917	0.955583	-0.263249	-0.132522	0.261085	0.547505	0.795030
25410	3.218037	-1.622967	10.544427	-0.093714	-2.661683	-0.423398	-0.133793	-0.778321	0.613446	0.954749	-0.267147	-0.130717	0.265620	0.568198	0.778844
25411	2.821832	-1.532858	11.179371	0.001564	-3.143007	-0.508176	-0.130254	-0.758686	0.638302	0.954069	-0.271090	-0.127527	0.269790	0.592373	0.759149
25412	2.440909	-1.938048	11.509463	0.046730	-3.740054	-0.591456	-0.125746	-0.734363	0.667007	0.953425	-0.275269	-0.123323	0.274170	0.620434	0.734774
25413	1.936003	-2.469734	11.768656	0.163784	-4.462810	-0.701166	-0.120131	-0.703971	0.699995	0.953001	-0.279315	-0.117351	0.278131	0.652999	0.704440
25414	2.513378	-3.628380	12.168103	0.116660	-5.288916	-0.804595	-0.112973	-0.666165	0.737198	0.952377	-0.284092	-0.110770	0.283223	0.689577	0.666535
25415	2.940757	-4.591746	12.371618	0.213238	-6.087447	-0.958775	-0.104744	-0.620190	0.777427	0.951929	-0.288793	-0.102129	0.287855	0.729358	0.620626
25416	5.748880	-4.117503	13.238517	0.409276	-7.025244	-1.156127	-0.095434	-0.564033	0.820219	0.951942	-0.292614	-0.090459	0.291029	0.772168	0.564853
25417	10.808066	-3.485135	12.146271	0.527422	-7.476339	-1.306040	-0.086065	-0.500863	0.861237	0.952284	-0.295432	-0.076648	0.292828	0.813546	0.502390
25418	20.253202	-3.048011	15.078373	0.216843	-7.548407	-1.155599	-0.074829	-0.434597	0.897511	0.951980	-0.299082	-0.065452	0.296874	0.849515	0.436108
25419	25.575599	-7.185538	13.790848	-0.078647	-6.107899	-1.122188	-0.067240	-0.378532	0.923143	0.950934	-0.304366	-0.055540	0.301997	0.874113	0.380425
25420	20.109986	-7.333195	14.951999	0.510025	-4.903171	-1.388455	-0.065701	-0.330936	0.941363	0.951535	-0.304829	-0.040752	0.300441	0.893062	0.334925
25421	14.167246	-5.874846	14.956026	0.876911	-4.560335	-1.537660	-0.066788	-0.285138	0.956157	0.953115	-0.301702	-0.023396	0.295146	0.909765	0.291919
25422	7.130053	-5.331791	14.269777	1.010194	-4.066411	-1.485022	-0.069117	-0.243382	0.967465	0.955040	-0.296408	-0.006337	0.288307	0.923530	0.252926
25423	-3.054408	-3.558152	12.192818	1.115266	-4.054244	-1.544241	-0.072373	-0.201149	0.976883	0.957108	-0.289512	0.011295	0.280547	0.935800	0.213474
25424	-7.947861	-2.498375	9.262518	1.015646	-4.855974	-1.549012	-0.073761	-0.150952	0.985785	0.958782	-0.282715	0.028449	0.274402	0.947252	0.165583
25425	-0.164348	0.966451	8.959957	0.958484	-5.741715	-2.002434	-0.077379	-0.090673	0.992870	0.959864	-0.276045	0.049597	0.269580	0.956858	0.108394
25426	28.795665	-1.383264	12.007096	0.463110	-6.793549	-1.720614	-0.075576	-0.020714	0.996925	0.959786	-0.272596	0.067097	0.270368	0.961906	0.040483
25427	18.444430	-0.510101	8.482735	0.296756	-0.059976	-1.744019	-0.092173	-0.015410	0.995624	0.959109	-0.270093	0.084612	0.267607	0.962711	0.039675
25428	13.747502	-3.217525	12.213815	-1.354163	0.936921	-0.809969	-0.102511	-0.022137	0.994485	0.954602	-0.283291	0.092094	0.279690	0.958778	0.050172
25429	12.096407	-6.685734	8.985611	0.063411	2.713090	-0.562339	-0.115444	-0.046561	0.992222	0.954152	-0.282915	0.097738	0.276164	0.958014	0.077087
25430	5.619291	-4.363623	6.979155	0.089924	3.825674	-0.304424	-0.128833	-0.082279	0.988247	0.954012	-0.282288	0.100868	0.270671	0.955795	0.114864
25431	1.156874	-5.849992	3.461814	-0.046838	4.137728	-0.004978	-0.139998	-0.121748	0.982638	0.953866	-0.282782	0.100863	0.265592	0.951426	0.155720
25432	-1.362570	-5.530196	1.816512	0.460263	3.633179	0.024975	-0.149260	-0.156287	0.976369	0.955089	-0.278415	0.101441	0.255982	0.947660	0.190824
25433	-0.896831	-3.904023	1.184281	0.613284	3.107180	0.122147	-0.155901	-0.186037	0.970096	0.956800	-0.272450	0.101516	0.245417	0.944013	0.220475
25434	-0.817652	-3.081888	1.181890	0.429217	2.778281	0.259872	-0.160138	-0.212874	0.963868	0.958232	-0.267930	0.100028	0.236956	0.939627	0.246888
25435	0.306151	-2.563758	1.413623	0.285619	2.491803	0.379710	-0.162335	-0.237262	0.957786	0.959498	-0.264445	0.097117	0.230239	0.934760	0.270582
25436	0.771150	-1.655816	1.953111	0.107626	2.336524	0.475172	-0.163122	-0.260259	0.951660	0.960503	-0.262302	0.092904	0.225443	0.929227	0.292766
25437	1.742587	-1.122259	2.788151	-0.285519	2.186907	0.635455	-0.161955	-0.282202	0.945586	0.960881	-0.263269	0.086004	0.224673	0.922524	0.313801
25438	3.447153	-1.492922	3.478253	-0.660973	2.107076	0.833689	-0.158735	-0.303736	0.939440	0.960710	-0.266942	0.076023	0.227685	0.914596	0.334175
25439	5.465537	-2.114189	3.933092	-0.837013	2.193711	1.006204	-0.154131	-0.326435	0.932568	0.960346	-0.271435	0.063709	0.232335	0.905408	0.355327
25440	6.992948	-2.926603	3.966222	-0.858873	2.521081	1.171026	-0.148825	-0.352294	0.923981	0.960091	-0.275235	0.049700	0.236803	0.894502	0.379196
25441	6.971323	-3.299706	3.830163	-0.654911	2.923023	1.261679	-0.143674	-0.381767	0.913023	0.960366	-0.276468	0.035523	0.238860	0.881941	0.406358
25442	5.919815	-3.058875	3.704056	-0.448710	3.138106	1.304488	-0.138660	-0.412798	0.900206	0.961123	-0.275257	0.021822	0.238780	0.868234	0.434917
25443	5.187828	-2.581887	3.719859	-0.287998	3.195988	1.299788	-0.133778	-0.443904	0.886032	0.962195	-0.272215	0.008898	0.237241	0.853726	0.463539
25444	4.950696	-1.907220	3.858608	-0.192553	3.172436	1.265394	-0.129110	-0.474139	0.870932	0.963391	-0.268081	-0.003128	0.234964	0.838644	0.491394
25445	5.071470	-1.522283	4.189750	-0.210518	3.148828	1.208269	-0.124842	-0.503540	0.854904	0.964420	-0.263969	-0.014643	0.233042	0.822659	0.518579
25446	5.458663	-1.350637	4.559989	-0.263967	3.155930	1.147300	-0.121132	-0.532214	0.837899	0.965205	-0.260223	-0.025751	0.231746	0.805625	0.545217
25447	5.898695	-1.588638	5.139404	-0.323901	3.197242	1.115247	-0.117774	-0.560592	0.819674	0.965775	-0.256753	-0.036833	0.231102	0.787283	0.571645
25448	6.159479	-1.896942	5.641166	-0.323513	3.256291	1.105311	-0.114636	-0.588702	0.800180	0.966301	-0.252963	-0.047673	0.230482	0.767750	0.597862
25449	6.323911	-1.931431	6.153762	-0.294974	3.321919	1.117079	-0.111491	-0.616692	0.779270	0.966872	-0.248508	-0.058330	0.229626	0.746951	0.623968
25450	6.547722	-1.919313	6.697315	-0.277515	3.378089	1.123996	-0.108386	-0.644294	0.757059	0.967460	-0.243510	-0.068731	0.228635	0.724974	0.649722
25451	7.113849	-1.690737	7.335500	-0.278338	3.428441	1.108203	-0.105495	-0.671450	0.733503	0.967997	-0.238247	-0.078872	0.227713	0.701708	0.675095
25452	7.614397	-1.551315	7.866444	-0.324399	3.512979	1.070837	-0.103143	-0.698166	0.708467	0.968364	-0.233197	-0.088826	0.227228	0.676892	0.700132
25453	7.884273	-1.591238	8.144871	-0.374696	3.640125	1.021141	-0.101536	-0.724704	0.681539	0.968544	-0.228458	-0.098634	0.227184	0.650085	0.725105
25454	7.640467	-1.983249	8.362204	-0.438047	3.751047	0.958109	-0.100812	-0.750700	0.652907	0.968506	-0.224222	-0.108263	0.227669	0.621430	0.749661
25455	7.492061	-2.327411	8.536878	-0.419579	3.792253	0.889620	-0.100849	-0.775701	0.622991	0.968433	-0.220016	-0.117178	0.227963	0.591508	0.773402
25456	7.364131	-2.368976	8.846144	-0.391616	3.775596	0.831066	-0.101433	-0.799248	0.592379	0.968369	-0.215774	-0.125312	0.227975	0.560931	0.795854
25457	7.444705	-2.178861	9.248663	-0.404498	3.739240	0.782740	-0.102395	-0.821336	0.561180	0.968230	-0.211674	-0.133136	0.228137	0.529719	0.816916
25458	7.783359	-1.751240	9.716487	-0.472259	3.694734	0.727260	-0.103824	-0.841830	0.529662	0.967889	-0.208098	-0.141021	0.228937	0.498013	0.836404
25459	8.174360	-1.471815	10.171358	-0.592333	3.676572	0.642390	-0.106076	-0.860890	0.497611	0.967186	-0.205517	-0.149379	0.230867	0.465437	0.854441
25460	8.464743	-1.062504	10.629894	-0.744913	3.656577	0.499056	-0.109780	-0.878307	0.465323	0.965980	-0.204565	-0.158225	0.234159	0.432123	0.870884
25461	8.786080	-0.834800	10.763590	-0.922665	3.635311	0.300232	-0.115500	-0.894026	0.432870	0.964119	-0.205767	-0.167731	0.239027	0.397966	0.885714
25462	8.927856	-0.584170	10.833493	-1.074609	3.599406	0.022448	-0.124022	-0.907759	0.400740	0.961532	-0.209699	-0.177434	0.245102	0.363318	0.898846
25463	9.107363	-0.329164	10.820645	-1.245033	3.536199	-0.298420	-0.135703	-0.919362	0.369267	0.958029	-0.216762	-0.187602	0.252517	0.328310	0.910191
25464	9.482851	-0.085070	10.814046	-1.367741	3.387056	-0.617172	-0.150321	-0.928518	0.339496	0.953622	-0.226762	-0.197951	0.260787	0.293995	0.919542
25465	10.558103	0.934803	10.826776	-1.442944	3.116885	-0.963456	-0.167768	-0.934934	0.312653	0.948243	-0.239777	-0.208187	0.269609	0.261544	0.926772
25466	11.746612	2.154393	10.368665	-1.614326	2.836749	-1.253647	-0.187433	-0.938801	0.289000	0.941565	-0.255538	-0.219444	0.279865	0.230981	0.931839
25467	9.486378	-1.754783	12.107020	-2.571350	3.325164	-1.074114	-0.207115	-0.943021	0.260413	0.932001	-0.271123	-0.240554	0.297451	0.192883	0.935050
25468	8.494342	-6.114368	2.346605	-0.189330	0.373270	-1.469685	-0.221920	-0.939630	0.260474	0.928266	-0.285357	-0.238523	0.298451	0.188856	0.935553
25469	25.680925	1.895239	0.556311	2.323549	-1.661291	-2.650683	-0.241742	-0.928473	0.281957	0.928828	-0.305498	-0.209642	0.280784	0.211210	0.936243
25470	22.027549	9.698761	5.189842	1.255444	0.982584	-2.148330	-0.264388	-0.923758	0.277075	0.926810	-0.322813	-0.191874	0.266689	0.206066	0.941496
25471	22.501462	8.237724	3.178318	-0.197212	-0.203131	-1.150210	-0.274503	-0.919552	0.281198	0.923159	-0.333856	-0.190571	0.269119	0.207278	0.940537
25472	18.584064	2.479698	0.481481	-0.125481	-0.251550	-0.671873	-0.280041	-0.916747	0.284871	0.920939	-0.340323	-0.189874	0.271015	0.209176	0.939572
25473	16.799541	2.540853	0.791247	0.779016	-1.007076	-0.448802	-0.281488	-0.913033	0.295188	0.921750	-0.342792	-0.181303	0.266724	0.221055	0.938079
25474	14.778511	3.903462	1.973850	0.944001	-1.425912	0.196777	-0.275924	-0.910419	0.308227	0.924775	-0.338872	-0.173079	0.262023	0.237284	0.935436
25475	12.028205	3.002010	2.646117	1.071053	-1.749819	0.929599	-0.262782	-0.909175	0.323028	0.930036	-0.327810	-0.166053	0.256863	0.256792	0.931708
25476	8.451136	2.241854	2.727183	1.502855	-1.855129	1.422977	-0.244839	-0.908737	0.338011	0.937421	-0.310892	-0.156805	0.247579	0.278467	0.927987
25477	5.037042	3.370248	2.310225	2.426650	-2.156711	1.518016	-0.225408	-0.906979	0.355781	0.946764	-0.290069	-0.139633	0.229846	0.305367	0.924079
25478	-4.411594	11.924909	5.642189	3.701282	-1.097823	0.327923	-0.219970	-0.904424	0.365555	0.955382	-0.275458	-0.106621	0.197125	0.325791	0.924663
25479	0.183806	11.811128	23.640413	0.084319	-2.722694	0.330344	-0.211398	-0.896097	0.390284	0.956247	-0.272244	-0.107122	0.202244	0.350562	0.914442
25480	45.959591	28.043283	32.113874	5.207362	-5.375332	-1.397953	-0.215003	-0.871815	0.440128	0.962786	-0.264782	-0.054166	0.163760	0.412103	0.896300
25481	8.537383	8.064682	-6.922059	0.183702	2.579190	0.379903	-0.215503	-0.883126	0.416709	0.963885	-0.260757	-0.054142	0.156474	0.389992	0.907426
25482	-11.885984	-36.973311	17.376688	-7.432824	1.225251	1.349918	-0.204927	-0.891329	0.404398	0.952519	-0.276671	-0.127123	0.225194	0.359146	0.905705
25483	14.517711	1.526279	10.658558	8.155900	-4.009968	-2.324438	-0.219592	-0.869429	0.442576	0.963106	-0.265537	-0.043777	0.155581	0.416635	0.895662
25484	13.000052	29.896298	12.469288	3.444408	1.329408	-1.982113	-0.240542	-0.869640	0.431123	0.963269	-0.268505	-0.004167	0.119383	0.414285	0.902284
25485	1.117655	-0.073307	9.130828	-8.345774	1.587491	1.906829	-0.224779	-0.881174	0.415941	0.954535	-0.284900	-0.087722	0.195800	0.377312	0.905151
25486	1.386008	-13.042206	6.800412	0.247279	-1.309046	0.946188	-0.213194	-0.878788	0.426943	0.957078	-0.275668	-0.089497	0.196344	0.389538	0.899839
25487	7.269976	1.211150	9.799858	2.312691	-0.235160	-0.223809	-0.214932	-0.877222	0.429286	0.960876	-0.268572	-0.067728	0.174706	0.397933	0.900626
25488	4.677557	3.921869	10.678006	-0.061245	0.445112	-0.024977	-0.215975	-0.878898	0.425315	0.960702	-0.269077	-0.068192	0.174377	0.393873	0.902473
25489	3.469368	-1.442433	10.342049	-0.775538	-0.276974	0.322372	-0.212414	-0.878643	0.427629	0.959995	-0.269345	-0.076566	0.182454	0.394258	0.900706
25490	5.061404	-1.851476	8.736462	0.118102	-0.294502	0.099179	-0.210951	-0.877725	0.430230	0.960407	-0.268050	-0.075947	0.181984	0.397174	0.899519
25491	4.315700	-0.617885	10.102836	-0.040165	-0.134457	0.080828	-0.209959	-0.877376	0.431426	0.960491	-0.267545	-0.076664	0.182689	0.398284	0.898885
25492	4.700758	-1.494324	9.403374	-0.100352	-0.247947	0.069688	-0.208861	-0.876554	0.433625	0.960439	-0.267378	-0.077886	0.184213	0.400203	0.897721
25493	4.447477	-1.019494	9.654237	-0.027367	-0.189411	0.059558	-0.207967	-0.875923	0.435326	0.960499	-0.267011	-0.078398	0.184907	0.401826	0.896853
25494	4.630283	-1.632089	9.319349	-0.116426	-0.212561	0.050055	-0.207118	-0.875182	0.437217	0.960373	-0.267085	-0.079679	0.186507	0.403389	0.895819
25495	4.646038	-1.210312	9.297454	-0.082769	-0.183033	0.011064	-0.206698	-0.874441	0.438895	0.960228	-0.267368	-0.080476	0.187718	0.404805	0.894927
25496	4.282521	-0.744610	9.566402	-0.111073	-0.151688	-0.001877	-0.206456	-0.873802	0.440279	0.960001	-0.267877	-0.081480	0.189138	0.405846	0.894156
25497	4.226127	0.069730	9.740342	-0.089329	-0.250274	0.003813	-0.205972	-0.872764	0.442559	0.959826	-0.268253	-0.082304	0.190549	0.407827	0.892955
25498	4.759431	-0.582690	9.339024	-0.203326	-0.243843	0.035245	-0.205192	-0.871843	0.444731	0.959495	-0.268820	-0.084293	0.193043	0.409421	0.891689
25499	4.647081	-0.551666	9.421062	-0.156605	-0.254145	0.036988	-0.204372	-0.870870	0.447010	0.959253	-0.269185	-0.085861	0.195102	0.411248	0.890399
25500	4.728154	-0.964031	9.101592	-0.163993	-0.247445	0.039745	-0.203531	-0.869938	0.449203	0.958999	-0.269558	-0.087516	0.197220	0.412973	0.889133
25501	4.741322	-1.022505	9.086087	-0.168928	-0.229818	0.041277	-0.202708	-0.869068	0.451254	0.958734	-0.269944	-0.089211	0.199344	0.414549	0.887925
25502	4.757153	-1.152517	9.057285	-0.161043	-0.223814	0.033356	-0.201965	-0.868209	0.453236	0.958465	-0.270366	-0.090809	0.201381	0.416071	0.886753
25503	4.672891	-1.160725	9.020960	-0.158524	-0.204916	0.022699	-0.201361	-0.867386	0.455077	0.958177	-0.270876	-0.092325	0.203350	0.417453	0.885653
25504	4.682250	-1.208307	9.087186	-0.162118	-0.205811	0.019150	-0.200782	-0.866558	0.456906	0.957870	-0.271431	-0.093865	0.205358	0.418810	0.884549
25505	4.666969	-1.216817	9.074553	-0.161021	-0.206427	0.007023	-0.200317	-0.865681	0.458769	0.957538	-0.272091	-0.095328	0.207351	0.420193	0.883427
25506	4.521487	-1.151016	9.201489	-0.163741	-0.196664	-0.001443	-0.199946	-0.864830	0.460533	0.957180	-0.272836	-0.096785	0.209353	0.421461	0.882350
25507	4.546504	-0.858731	9.319179	-0.160833	-0.227521	-0.015055	-0.199639	-0.863798	0.462598	0.956797	-0.273691	-0.098142	0.211384	0.423019	0.881120
25508	4.742384	-0.989912	9.215066	-0.212643	-0.265517	-0.006978	-0.199166	-0.862634	0.464968	0.956317	-0.274696	-0.099999	0.213987	0.424741	0.879662
25509	4.703466	-1.606586	9.048605	-0.250414	-0.267417	-0.015354	-0.198764	-0.861424	0.467378	0.955733	-0.275940	-0.102136	0.216951	0.426387	0.878138
25510	4.625229	-1.079611	9.146109	-0.179364	-0.295589	-0.029978	-0.198431	-0.860058	0.470028	0.955268	-0.277008	-0.103587	0.219292	0.428448	0.876552
25511	4.488665	-0.929232	9.447441	-0.213775	-0.301675	-0.022219	-0.198004	-0.858671	0.472736	0.954738	-0.278163	-0.105362	0.221969	0.430476	0.874883
25512	4.728955	-0.790535	9.286683	-0.198737	-0.365876	-0.029882	-0.197497	-0.856987	0.475991	0.954220	-0.279321	-0.106974	0.224630	0.433073	0.872920
25513	4.687958	-0.748551	9.240328	-0.225488	-0.381391	-0.021881	-0.196871	-0.855240	0.479382	0.953653	-0.280534	-0.108843	0.227570	0.435736	0.870831
25514	4.805311	-1.071414	9.017886	-0.235964	-0.411686	-0.022200	-0.196164	-0.853357	0.483013	0.953054	-0.281799	-0.110805	0.230669	0.438601	0.868574
25515	4.648077	-1.104568	9.282125	-0.228237	-0.418641	-0.026005	-0.195466	-0.851412	0.486715	0.952459	-0.283071	-0.112666	0.233700	0.441553	0.866265
25516	4.581256	-1.407431	9.264815	-0.260391	-0.474945	-0.038182	-0.194736	-0.849177	0.490892	0.951756	-0.284593	-0.114748	0.237146	0.444864	0.863630
25517	4.684778	-1.585101	9.235325	-0.268878	-0.511399	-0.055849	-0.194072	-0.846704	0.495407	0.950990	-0.286314	-0.116798	0.240735	0.448460	0.860773
25518	4.518892	-1.574807	9.499615	-0.272988	-0.557685	-0.080811	-0.193512	-0.843939	0.500320	0.950156	-0.288270	-0.118757	0.244451	0.452402	0.857658
25519	4.407616	-1.480564	9.510142	-0.285633	-0.640607	-0.105997	-0.192966	-0.840690	0.505970	0.949233	-0.290508	-0.120675	0.248439	0.456997	0.854068
25520	4.519991	-1.289262	9.574295	-0.282911	-0.742267	-0.131212	-0.192375	-0.836873	0.512479	0.948256	-0.292953	-0.122432	0.252593	0.462408	0.849927
25521	4.187561	-0.979208	9.977099	-0.253380	-0.840371	-0.151640	-0.191698	-0.832485	0.519827	0.947304	-0.295445	-0.123804	0.256645	0.468702	0.845253
25522	3.923499	-0.902203	10.447701	-0.261863	-1.035947	-0.171511	-0.190664	-0.827058	0.528793	0.946283	-0.298149	-0.125124	0.261145	0.476531	0.839477
25523	3.617058	-1.096970	10.572450	-0.214553	-1.250526	-0.200616	-0.189294	-0.820408	0.539536	0.945321	-0.300881	-0.125852	0.265586	0.486212	0.832504
25524	3.277235	-0.997228	10.971530	-0.169188	-1.534635	-0.240892	-0.187483	-0.812103	0.552575	0.944398	-0.303724	-0.125950	0.270115	0.498237	0.823892
25525	2.815980	-1.100594	11.295027	-0.140203	-1.877259	-0.298363	-0.185209	-0.801671	0.568350	0.943445	-0.306887	-0.125429	0.274972	0.512976	0.813170
25526	2.527405	-1.423796	11.583565	-0.128517	-2.313969	-0.368647	-0.182281	-0.788430	0.587496	0.942394	-0.310533	-0.124346	0.280475	0.530987	0.799617
25527	1.816036	-2.315787	12.061481	-0.123806	-2.872950	-0.479595	-0.178675	-0.771329	0.610841	0.941162	-0.314991	-0.122453	0.286861	0.553021	0.782226
25528	1.429534	-2.393795	12.751833	0.034891	-3.572083	-0.630750	-0.174276	-0.749059	0.639171	0.940134	-0.319634	-0.118250	0.292876	0.580298	0.759920
25529	0.775719	-2.710302	13.132949	0.050327	-4.364336	-0.786632	-0.168756	-0.720461	0.672650	0.938918	-0.325160	-0.112713	0.299924	0.612542	0.731326
25530	0.689259	-3.644065	13.027623	0.126921	-5.345685	-0.963220	-0.161577	-0.683505	0.711839	0.937696	-0.331167	-0.105142	0.307603	0.650500	0.694428
25531	0.999329	-3.350238	13.701133	0.381144	-6.390094	-1.185152	-0.152846	-0.636551	0.755937	0.937002	-0.336474	-0.093878	0.314111	0.693965	0.647878
25532	1.992958	-1.904406	14.215077	0.492350	-7.614908	-1.371778	-0.141540	-0.577174	0.804261	0.936529	-0.341312	-0.080123	0.320749	0.741873	0.588850
25533	7.019869	-0.824656	14.519101	0.331855	-8.699223	-1.367257	-0.126083	-0.505771	0.853404	0.935762	-0.346220	-0.066937	0.329320	0.790144	0.516934
25534	16.515382	-1.590602	16.407520	-0.144744	-9.171277	-1.049570	-0.105148	-0.427610	0.897827	0.934046	-0.352342	-0.058420	0.341323	0.832469	0.436456
25535	27.522349	-6.859830	16.652783	-0.418893	-8.290264	-0.784168	-0.083698	-0.354466	0.931315	0.931835	-0.359005	-0.052896	0.353097	0.863405	0.360352
25536	25.141811	-9.821938	17.214284	0.365524	-6.412727	-1.225785	-0.072443	-0.293928	0.953078	0.932157	-0.359826	-0.040117	0.354733	0.885512	0.300054
25537	17.336934	-7.652253	17.125489	1.320257	-5.705174	-1.501161	-0.066489	-0.237472	0.969116	0.935729	-0.352029	-0.022063	0.346396	0.905363	0.245615
25538	9.136625	-6.627355	17.602293	1.685518	-4.969119	-1.411644	-0.062852	-0.187147	0.980319	0.940535	-0.339665	-0.004543	0.333831	0.921739	0.197367
25539	-3.717185	-4.294521	16.037488	1.897360	-4.486919	-1.270411	-0.060221	-0.141259	0.988139	0.945932	-0.324168	0.011308	0.318726	0.935394	0.153143
25540	-16.071362	-1.896119	13.134752	2.008753	-5.270863	-1.219719	-0.055435	-0.087733	0.994600	0.951457	-0.306684	0.025978	0.302749	0.947759	0.100475
25541	-4.848319	-2.271667	8.108431	1.632117	-6.984804	-0.618809	-0.040640	-0.019369	0.998986	0.955991	-0.291506	0.033239	0.290566	0.956373	0.030363
25542	35.776640	-4.950038	9.988837	2.365532	-7.878866	0.226546	-0.016388	0.055629	0.998317	0.962680	-0.268884	0.030786	0.270144	0.961565	-0.049146
25543	18.835054	1.125707	11.399169	2.389578	1.924500	-0.805927	-0.029176	0.039101	0.998809	0.968662	-0.245472	0.037905	0.246662	0.968615	-0.030714
25544	15.373537	-0.256086	18.686834	-0.181928	2.470459	1.377786	-0.021963	0.011804	0.999689	0.968555	-0.247620	0.024203	0.247829	0.968785	-0.005995
25545	6.924379	-8.898151	7.622364	1.114730	4.950400	1.528814	-0.019143	-0.039955	0.999018	0.971558	-0.236626	0.009153	0.236028	0.970779	0.043349
25546	-5.456236	-5.334641	6.204520	2.137835	5.705334	0.413549	-0.027978	-0.096289	0.994960	0.976457	-0.215612	0.006591	0.213891	0.971720	0.100054
25547	-4.057827	-2.707988	4.269404	2.211309	4.269600	0.342881	-0.033297	-0.138522	0.989800	0.981031	-0.193761	0.005885	0.190969	0.971220	0.142346
25548	0.126526	-1.420674	3.034336	1.978266	4.352151	0.067662	-0.040514	-0.180820	0.982681	0.984619	-0.174509	0.008483	0.169953	0.967910	0.185109
25549	0.355680	0.080922	3.470120	1.526533	4.537314	-0.170091	-0.049547	-0.224358	0.973246	0.987000	-0.160167	0.013325	0.152892	0.961254	0.229377
25550	1.362406	0.269739	2.759948	0.916298	4.606117	-0.217237	-0.058500	-0.268045	0.961629	0.988224	-0.151980	0.017755	0.141390	0.951343	0.273780
25551	0.721455	-0.168703	1.463811	0.325497	4.966930	-0.236855	-0.067740	-0.314651	0.946787	0.988518	-0.149639	0.020995	0.135070	0.937338	0.321175
25552	-1.487028	-1.189010	0.992449	-0.350893	5.081575	-0.230411	-0.076907	-0.361464	0.929209	0.987870	-0.153722	0.021964	0.134901	0.919627	0.368902
25553	-1.950697	-2.638950	1.938862	-0.904625	4.476330	-0.209259	-0.085163	-0.401938	0.911698	0.986448	-0.162802	0.020371	0.140239	0.901078	0.410356
25554	1.477191	-3.699637	3.195781	-1.006568	3.694780	-0.072310	-0.091210	-0.434768	0.895911	0.984931	-0.172136	0.016738	0.146941	0.883938	0.443917
25555	5.280943	-4.486214	4.036415	-1.014823	3.489357	0.288549	-0.093643	-0.465864	0.879887	0.983664	-0.179764	0.009510	0.153742	0.866404	0.475087
25556	7.773153	-5.919383	4.262768	-0.831835	3.743409	0.744547	-0.092193	-0.499258	0.861534	0.983048	-0.183344	-0.001051	0.158482	0.846833	0.507698
25557	8.173916	-6.454364	4.584877	-0.261766	4.172806	1.120798	-0.087784	-0.536219	0.839502	0.983635	-0.179773	-0.011972	0.157340	0.824713	0.543225
25558	7.787824	-5.451969	5.059950	0.208287	4.402079	1.422658	-0.080607	-0.574463	0.814552	0.985147	-0.170226	-0.022564	0.151620	0.800634	0.579652
25559	7.148949	-4.060171	5.501089	0.447391	4.459198	1.613261	-0.071305	-0.612280	0.787419	0.987025	-0.157171	-0.032833	0.143862	0.774862	0.615543
25560	7.424343	-2.744786	6.159901	0.537143	4.384231	1.662998	-0.061030	-0.648139	0.759073	0.988870	-0.142646	-0.042294	0.135691	0.748043	0.649631
25561	8.343248	-2.328309	6.827747	0.404139	4.364805	1.658453	-0.050418	-0.682462	0.729180	0.990323	-0.128687	-0.051968	0.129303	0.719503	0.682346
25562	8.949919	-2.629081	7.415412	0.363240	4.475275	1.590857	-0.040342	-0.715895	0.697042	0.991498	-0.115053	-0.060780	0.123709	0.688664	0.714450
25563	9.060637	-2.852124	7.797201	0.410232	4.556627	1.481283	-0.031173	-0.748169	0.662775	0.992518	-0.101491	-0.067885	0.118055	0.655700	0.745735
25564	8.777859	-2.663572	8.134712	0.475561	4.589876	1.329189	-0.023285	-0.778719	0.626940	0.993422	-0.088353	-0.072846	0.112119	0.621120	0.775654
25565	8.599904	-2.072950	8.445363	0.459797	4.536043	1.148173	-0.016855	-0.807068	0.590217	0.994150	-0.076514	-0.076235	0.106686	0.585480	0.803636
25566	8.403311	-1.503847	8.910655	0.326192	4.411980	0.967275	-0.011887	-0.832787	0.553465	0.994626	-0.066777	-0.079115	0.102845	0.549551	0.829106
25567	8.429014	-1.396218	9.599969	0.071744	4.226520	0.797032	-0.008303	-0.855794	0.517250	0.994775	-0.059705	-0.082814	0.101754	0.513860	0.851818
25568	9.371305	-1.701342	10.617538	-0.165684	4.029081	0.583010	-0.006660	-0.876117	0.482052	0.994645	-0.055524	-0.087171	0.103137	0.478890	0.871795
25569	10.596286	-1.478950	11.684181	-0.407812	3.949784	0.316830	-0.007680	-0.894535	0.446931	0.994234	-0.054638	-0.092273	0.106961	0.443646	0.889797
25570	11.580800	-0.876780	12.373320	-0.695489	4.012719	-0.017748	-0.012310	-0.911582	0.410933	0.993461	-0.057801	-0.098463	0.113509	0.407034	0.906333
25571	11.862795	-0.307171	12.195859	-1.118774	4.166273	-0.377296	-0.021026	-0.927513	0.373200	0.992063	-0.065643	-0.107251	0.123974	0.367982	0.921531
25572	11.231836	-0.225707	11.650979	-1.567601	4.220757	-0.767652	-0.034200	-0.941627	0.334916	0.989788	-0.078313	-0.119107	0.138382	0.327423	0.934690
25573	10.823045	1.004702	11.090681	-1.817342	4.033450	-1.221202	-0.052204	-0.952981	0.298501	0.986589	-0.095506	-0.132368	0.154653	0.287587	0.945186
25574	11.148385	2.196368	10.422018	-2.146491	3.681241	-1.584925	-0.073876	-0.961188	0.265818	0.982059	-0.116490	-0.148292	0.173502	0.250094	0.952549
25575	12.188360	2.141151	9.509517	-2.587454	3.323559	-1.744919	-0.097125	-0.966685	0.236825	0.975774	-0.139357	-0.168658	0.196043	0.214706	0.956801
25576	10.188185	-2.281563	11.040209	-3.370627	3.629537	-1.492236	-0.119291	-0.971503	0.204821	0.967051	-0.160421	-0.197678	0.224903	0.174491	0.958630
25577	11.063178	-3.367770	3.063699	-0.549410	0.212404	-1.934585	-0.138469	-0.968576	0.206608	0.963294	-0.180166	-0.199011	0.229981	0.171468	0.957970
25578	23.791906	2.575682	2.296604	1.036135	-0.205571	-2.565883	-0.162730	-0.963290	0.213521	0.961749	-0.203192	-0.183715	0.220357	0.175458	0.959509
25579	20.844126	5.726851	3.561514	-0.363976	1.223873	-1.894386	-0.183640	-0.961328	0.205244	0.957648	-0.222070	-0.183292	0.221783	0.162892	0.961394
25580	19.417426	1.395379	0.377433	-0.528937	0.604573	-1.491689	-0.199273	-0.958854	0.202212	0.953594	-0.237272	-0.185368	0.225720	0.155889	0.961639
25581	16.903640	1.116440	-0.738673	0.498356	-0.108802	-1.602226	-0.214314	-0.954755	0.206186	0.951377	-0.251855	-0.177346	0.221251	0.158153	0.962307
25582	16.991762	2.563793	-0.221062	0.753383	-0.857634	-1.278441	-0.224619	-0.950052	0.216672	0.950203	-0.262838	-0.167423	0.216011	0.168275	0.961781
25583	16.816504	2.065786	1.594404	0.650963	-1.393329	-0.647994	-0.227810	-0.945870	0.231156	0.950116	-0.267876	-0.159759	0.213032	0.183230	0.959710
25584	14.536380	1.758514	3.402348	0.921729	-1.724009	-0.038563	-0.224571	-0.942432	0.247769	0.951955	-0.266502	-0.150860	0.208207	0.201986	0.957001
25585	12.146494	2.524030	4.552870	1.071394	-1.983606	0.627121	-0.214540	-0.939839	0.265849	0.955514	-0.258363	-0.142273	0.202399	0.223499	0.953458
25586	8.393236	2.283019	5.499814	0.948633	-1.957636	1.189466	-0.199261	-0.938239	0.282847	0.959858	-0.245013	-0.136536	0.197405	0.244286	0.949397
25587	3.595818	5.141875	8.023705	1.188478	-1.626021	1.093959	-0.185616	-0.936705	0.296867	0.964244	-0.231791	-0.128475	0.189154	0.262405	0.946237
25588	-1.754567	6.099154	7.739739	0.970958	-1.704413	1.148677	-0.171374	-0.934649	0.311547	0.968088	-0.218446	-0.122826	0.182855	0.280556	0.942259
25589	-7.502017	4.892532	5.535276	0.233824	-2.079583	1.102306	-0.156900	-0.930932	0.329770	0.970314	-0.207530	-0.124190	0.184049	0.300495	0.935857
25590	-6.303380	6.541516	7.025633	0.436471	-3.170538	0.518622	-0.146044	-0.921969	0.358669	0.971892	-0.201388	-0.121936	0.184653	0.330780	0.925466
25591	14.963557	0.825196	23.559208	-0.894667	-5.093078	0.168187	-0.134626	-0.904296	0.405123	0.970393	-0.203057	-0.130784	0.200531	0.375521	0.904860
25592	74.168393	2.797453	22.465743	3.760296	-5.120607	-0.662378	-0.131593	-0.882365	0.451791	0.976484	-0.193893	-0.094261	0.170772	0.428762	0.887130
25593	-2.464803	-5.820852	-5.941361	-0.449846	8.058194	-0.342014	-0.148453	-0.913274	0.379332	0.975240	-0.198780	-0.096915	0.163914	0.355553	0.920171
25594	-38.368285	-16.298364	15.297871	1.142920	-1.708647	-0.489631	-0.150531	-0.906056	0.395479	0.976322	-0.199111	-0.084554	0.155355	0.373387	0.914575
25595	38.695809	17.084399	24.339577	3.014350	-7.135953	-0.589123	-0.145904	-0.875733	0.460220	0.979839	-0.192100	-0.054900	0.136486	0.442932	0.886106
25596	9.195836	4.275428	-4.571245	-0.048054	4.532959	-0.932286	-0.161103	-0.893056	0.420115	0.978333	-0.200594	-0.051245	0.130037	0.402757	0.906023
25597	-8.321326	-1.763212	19.063706	-3.633646	0.803834	0.209241	-0.160274	-0.896632	0.412751	0.973312	-0.213139	-0.085065	0.164245	0.388102	0.906863
25598	8.012671	-2.712075	5.213731	0.944847	-2.550824	0.674783	-0.149601	-0.887804	0.435228	0.975874	-0.203377	-0.079424	0.159029	0.412846	0.896810
25599	8.816623	0.786525	9.321896	0.569362	0.218109	0.312746	-0.146916	-0.889298	0.433088	0.977216	-0.198297	-0.075681	0.153183	0.412102	0.898169
25600	2.303047	-0.220618	10.852370	-0.405631	0.732334	0.024155	-0.147840	-0.892320	0.426507	0.976614	-0.199783	-0.079453	0.156107	0.404786	0.900988
25601	4.378129	-1.233113	9.345484	0.068935	-0.671280	0.103821	-0.145806	-0.889755	0.432524	0.976863	-0.198624	-0.079288	0.156456	0.410956	0.898130
25602	5.019115	-0.969873	9.292958	0.030242	-0.029899	0.074971	-0.145055	-0.889764	0.432758	0.977009	-0.197876	-0.079360	0.156244	0.411297	0.898010
25603	4.165213	-0.533295	9.801027	0.028615	-0.231965	0.055122	-0.144183	-0.888882	0.434856	0.977123	-0.197316	-0.079351	0.156338	0.413467	0.896997
25604	4.751944	-1.057323	9.367173	-0.038042	-0.164616	0.061374	-0.143352	-0.888304	0.436309	0.977142	-0.196972	-0.079978	0.156986	0.414870	0.896236
25605	4.520942	-0.884414	9.503531	-0.047563	-0.193234	0.047624	-0.142612	-0.887562	0.438060	0.977124	-0.196794	-0.080622	0.157764	0.416541	0.895323
25606	4.755096	-1.399007	9.275241	-0.093853	-0.170913	0.049340	-0.141887	-0.886928	0.439575	0.977036	-0.196792	-0.081697	0.158964	0.417889	0.894483
25607	4.729481	-1.413732	9.304340	-0.077764	-0.135493	0.028436	-0.141422	-0.886384	0.440820	0.976941	-0.196913	-0.082527	0.159954	0.418984	0.893794
25608	4.569814	-1.402990	9.247596	-0.058412	-0.123378	0.004574	-0.141207	-0.885859	0.441945	0.976844	-0.197161	-0.083088	0.160738	0.419978	0.893186
25609	4.545936	-1.195588	9.310271	-0.046828	-0.141842	0.002962	-0.140978	-0.885235	0.443265	0.976762	-0.197380	-0.083529	0.161434	0.421189	0.892490
25610	4.665953	-0.937314	9.291473	-0.073253	-0.128810	-0.021190	-0.141004	-0.884633	0.444458	0.976603	-0.197920	-0.084107	0.162371	0.422199	0.891843
25611	4.548968	-0.738114	9.399342	-0.123026	-0.128114	-0.034700	-0.141162	-0.883990	0.445685	0.976343	-0.198795	-0.085060	0.163792	0.423134	0.891140
25612	4.399046	-0.725613	9.573274	-0.171328	-0.151975	-0.041571	-0.141345	-0.883246	0.447100	0.975991	-0.199932	-0.086419	0.165718	0.424151	0.890300
25613	3.979002	-0.503884	9.934684	-0.209225	-0.187573	-0.037630	-0.141427	-0.882341	0.448856	0.975578	-0.201200	-0.088122	0.168064	0.425432	0.889248
25614	4.647782	-0.322256	9.557695	-0.257389	-0.330612	-0.024739	-0.141135	-0.880863	0.451841	0.975096	-0.202561	-0.090315	0.171081	0.427842	0.887515
25615	4.508527	-0.938710	9.335246	-0.284250	-0.268368	-0.001821	-0.140718	-0.879677	0.454276	0.974592	-0.203843	-0.092837	0.174268	0.429670	0.886010
25616	4.710936	-0.788852	9.240414	-0.251033	-0.322215	-0.000104	-0.140179	-0.878271	0.457154	0.974140	-0.204970	-0.095077	0.177206	0.432004	0.884291
25617	4.717287	-1.048408	9.057885	-0.241091	-0.298111	0.006365	-0.139613	-0.876961	0.459834	0.973707	-0.206006	-0.097245	0.180009	0.434167	0.882664
25618	4.763776	-1.275905	8.936898	-0.230592	-0.303088	0.004022	-0.139051	-0.875632	0.462529	0.973283	-0.207018	-0.099315	0.182715	0.436362	0.881024
25619	4.686658	-1.342115	8.965426	-0.197884	-0.280290	-0.003408	-0.138597	-0.874367	0.465051	0.972903	-0.207962	-0.101050	0.185068	0.438445	0.879498
25620	4.717017	-1.344259	8.910154	-0.189412	-0.287048	-0.014709	-0.138232	-0.873057	0.467615	0.972519	-0.208967	-0.102663	0.187347	0.440573	0.877950
25621	4.788394	-1.386902	8.904778	-0.176905	-0.274230	-0.026564	-0.138001	-0.871758	0.470099	0.972138	-0.210028	-0.104100	0.189484	0.442635	0.876453
25622	4.860454	-1.356140	8.911839	-0.169542	-0.271639	-0.028229	-0.137784	-0.870476	0.472533	0.971764	-0.211070	-0.105469	0.191546	0.444659	0.874979
25623	4.858742	-1.191949	9.021976	-0.149384	-0.259354	-0.028211	-0.137587	-0.869228	0.474881	0.971426	-0.212029	-0.106651	0.193393	0.446638	0.873564
25624	4.816474	-1.247847	9.074586	-0.149402	-0.258158	-0.019152	-0.137297	-0.868014	0.477181	0.971098	-0.212909	-0.107881	0.195238	0.448578	0.872158
25625	4.779543	-1.219215	9.160262	-0.153088	-0.268898	-0.024883	-0.137039	-0.866720	0.479601	0.970752	-0.213861	-0.109106	0.197132	0.450622	0.870677
25626	4.782668	-1.114758	9.278925	-0.152308	-0.290663	-0.028383	-0.136764	-0.865328	0.482186	0.970400	-0.214839	-0.110310	0.199047	0.452827	0.869096
25627	4.758763	-1.056192	9.284897	-0.150615	-0.318960	-0.022265	-0.136370	-0.863800	0.485029	0.970056	-0.215764	-0.111520	0.200983	0.455297	0.867358
25628	4.703442	-0.860297	9.355090	-0.156278	-0.357905	-0.022405	-0.135890	-0.862098	0.488181	0.969698	-0.216715	-0.112781	0.203025	0.458062	0.865425
25629	4.806800	-0.686127	9.294263	-0.167986	-0.404285	-0.022331	-0.135308	-0.860160	0.491748	0.969313	-0.217728	-0.114133	0.205240	0.461215	0.863225
25630	4.861523	-0.774048	9.169461	-0.180276	-0.445972	-0.003520	-0.134448	-0.858069	0.495623	0.968924	-0.218637	-0.115685	0.207628	0.464667	0.860799
25631	4.745999	-0.862021	9.362558	-0.208887	-0.473445	0.002126	-0.133465	-0.855833	0.499736	0.968479	-0.219642	-0.117500	0.210323	0.468302	0.858171
25632	4.736769	-1.154944	9.253754	-0.213718	-0.540581	0.000916	-0.132337	-0.853273	0.504392	0.968016	-0.220684	-0.119350	0.213150	0.472465	0.855187
25633	4.668325	-1.311080	9.388967	-0.220734	-0.587251	-0.008803	-0.131189	-0.850435	0.509461	0.967518	-0.221855	-0.121198	0.216097	0.477013	0.851916
25634	4.410479	-1.475478	9.535302	-0.257194	-0.674758	-0.032400	-0.130058	-0.847107	0.515262	0.966904	-0.223408	-0.123233	0.219505	0.482181	0.848127
25635	4.355094	-1.588692	9.637666	-0.271999	-0.771015	-0.067529	-0.129031	-0.843184	0.521912	0.966202	-0.225347	-0.125191	0.223170	0.488119	0.843762
25636	4.284452	-1.346394	9.788059	-0.275673	-0.897133	-0.107844	-0.128078	-0.838509	0.529621	0.965430	-0.227654	-0.126957	0.227025	0.495052	0.838680
25637	3.918432	-1.230792	10.312527	-0.306996	-1.060215	-0.147404	-0.127098	-0.832848	0.538711	0.964526	-0.230466	-0.128742	0.231377	0.503239	0.832596
25638	3.573216	-1.368548	10.582450	-0.340296	-1.311906	-0.172176	-0.125714	-0.825760	0.549834	0.963500	-0.233669	-0.130638	0.236355	0.513342	0.824995
25639	3.427094	-1.514818	10.699937	-0.314515	-1.571202	-0.231102	-0.124213	-0.817023	0.563067	0.962448	-0.237249	-0.131938	0.241383	0.525534	0.815811
25640	3.484688	-1.463662	10.742322	-0.263920	-1.884894	-0.293248	-0.122463	-0.806256	0.578752	0.961429	-0.241082	-0.132413	0.246285	0.540214	0.804682
25641	3.446325	-1.683878	10.569040	-0.244225	-2.201096	-0.365790	-0.120528	-0.793257	0.596838	0.960365	-0.245395	-0.132216	0.251342	0.557247	0.791393
25642	3.181202	-1.553979	10.471783	-0.119377	-2.618614	-0.447006	-0.118205	-0.777270	0.617964	0.959515	-0.249629	-0.130445	0.255653	0.577527	0.775309
25643	2.884688	-0.849494	11.076436	-0.006648	-3.104279	-0.525852	-0.115281	-0.757617	0.642438	0.958871	-0.253752	-0.127183	0.259376	0.601354	0.755710
25644	2.309451	-0.900449	11.487473	0.008226	-3.712509	-0.575353	-0.111113	-0.733278	0.670788	0.958228	-0.258038	-0.123350	0.263538	0.629063	0.731319
25645	1.704576	-1.168186	12.071268	0.064389	-4.451274	-0.642942	-0.105474	-0.702855	0.703470	0.957691	-0.262287	-0.118467	0.267776	0.661211	0.700782
25646	1.352116	-1.490460	13.142481	0.077738	-5.402355	-0.722767	-0.097820	-0.664183	0.741142	0.957153	-0.266747	-0.112717	0.272562	0.698360	0.661818
25647	1.315644	-2.994496	13.434557	-0.100658	-6.420619	-0.758189	-0.087376	-0.615947	0.782927	0.956160	-0.272371	-0.107572	0.279505	0.739204	0.612743
25648	3.043897	-4.490560	12.406957	-0.009218	-7.478604	-0.872540	-0.074599	-0.556569	0.827445	0.955414	-0.277606	-0.100592	0.285690	0.783049	0.552463
25649	7.969868	-2.593422	12.234004	0.347563	-8.356775	-0.995300	-0.060158	-0.486433	0.871644	0.955729	-0.280044	-0.090321	0.288034	0.827622	0.481745
25650	16.035274	-0.634450	14.271236	0.212845	-8.771215	-0.812761	-0.042564	-0.409725	0.911216	0.955915	-0.281928	-0.082116	0.290542	0.867549	0.403662
25651	27.388263	-3.437786	13.887049	-0.227966	-8.096121	-0.409707	-0.022780	-0.337071	0.941204	0.955102	-0.285514	-0.079134	0.295400	0.897143	0.328441
25652	25.696009	-5.706021	13.568781	-0.268250	-5.909045	-0.480404	-0.009825	-0.282111	0.959332	0.954215	-0.289476	-0.075354	0.298961	0.914668	0.272038
25653	17.882431	-5.460855	15.363775	0.181026	-5.244908	-0.689903	-0.000795	-0.231748	0.972775	0.954708	-0.289619	-0.068217	0.297544	0.928662	0.221482
25654	10.827037	-6.395554	16.562984	0.486066	-4.603118	-0.798503	0.005142	-0.186404	0.982460	0.956149	-0.286789	-0.059417	0.292834	0.939684	0.176756
25655	0.414001	-6.332183	15.420361	0.997300	-4.386647	-0.878243	0.009333	-0.142472	0.989755	0.959075	-0.278847	-0.049183	0.282997	0.949708	0.134039
25656	-9.716272	-3.548007	13.467872	1.678346	-4.874307	-0.935013	0.013708	-0.093347	0.995539	0.963784	-0.263959	-0.038021	0.266331	0.960006	0.086348
25657	-7.245632	-1.610422	11.704416	1.359585	-5.989851	-0.857219	0.020933	-0.033413	0.999222	0.967450	-0.251431	-0.028675	0.252194	0.967298	0.027063
25658	12.980172	0.269359	10.981375	1.430019	-7.174745	-1.368533	0.025182	0.039518	0.998901	0.971255	-0.237563	-0.015087	0.236706	0.970568	-0.044364
25659	26.911963	-2.286829	10.616161	1.647033	-2.993638	-1.614941	0.016267	0.072281	0.997252	0.975345	-0.220687	0.000086	0.220086	0.972663	-0.074089
25660	14.137631	3.047302	17.930978	0.135007	1.405918	-1.540393	-0.001873	0.062011	0.998074	0.975744	-0.218372	0.015398	0.218906	0.973893	-0.060098
25661	14.074309	-4.840215	13.793131	-0.651028	3.212145	-0.563479	-0.014535	0.031930	0.999384	0.974245	-0.224482	0.021342	0.225025	0.973955	-0.027845
25662	3.772867	-6.129099	9.930025	0.005832	5.083522	-0.975239	-0.035472	-0.015381	0.999252	0.974005	-0.224380	0.031122	0.223733	0.974380	0.022940
25663	-1.832390	-6.601638	6.403213	0.082119	4.972432	-1.095273	-0.057226	-0.061397	0.996472	0.973670	-0.224039	0.042112	0.220663	0.972644	0.072601
25664	-0.390763	-6.066483	4.304028	0.520154	4.642139	-1.220201	-0.079191	-0.103753	0.991445	0.973954	-0.220031	0.054768	0.212467	0.969960	0.118475
25665	0.313077	-4.320462	3.582269	0.485256	4.708471	-1.257864	-0.101269	-0.146628	0.983994	0.973818	-0.216954	0.067892	0.203526	0.965107	0.164760
25666	0.930565	-3.353480	3.274670	0.189621	4.636550	-1.150595	-0.121773	-0.188684	0.974459	0.972903	-0.217100	0.079542	0.196547	0.957740	0.210008
25667	1.494469	-2.617854	3.061577	-0.126535	4.607352	-0.966731	-0.140146	-0.230536	0.962919	0.971380	-0.220381	0.088616	0.191780	0.947779	0.254823
25668	1.428032	-2.293976	2.589488	-0.556392	4.643975	-0.691268	-0.155756	-0.272678	0.949414	0.969282	-0.227401	0.093704	0.190347	0.934845	0.299721
25669	0.301874	-2.469558	2.110132	-0.982458	4.635283	-0.401435	-0.168539	-0.314777	0.934083	0.966739	-0.237739	0.094315	0.192380	0.918910	0.344376
25670	-0.557069	-2.578261	2.679574	-1.362898	4.282930	-0.127790	-0.178163	-0.353418	0.918343	0.963843	-0.250616	0.090542	0.198152	0.901270	0.385291
25671	1.732691	-2.808273	3.663189	-1.685976	3.707730	0.129456	-0.184464	-0.386898	0.903484	0.960644	-0.265233	0.082553	0.207694	0.883154	0.420597
25672	4.700311	-3.524289	4.741466	-1.932737	3.519186	0.461536	-0.187584	-0.418867	0.888461	0.957358	-0.280302	0.069982	0.219724	0.863702	0.453586
25673	6.844129	-5.240268	5.110404	-1.899714	3.595260	0.855160	-0.187533	-0.452054	0.872055	0.954665	-0.292837	0.053498	0.231186	0.842552	0.486476
25674	7.991088	-6.107575	5.785603	-1.373280	3.806824	1.181771	-0.185197	-0.487180	0.853439	0.953636	-0.298753	0.036398	0.237235	0.820611	0.519921
25675	8.041260	-5.993898	6.047397	-0.829024	4.018050	1.471783	-0.180713	-0.524149	0.832232	0.954346	-0.298067	0.019503	0.237838	0.797762	0.554084
25676	7.783253	-5.289911	6.418242	-0.381283	4.129259	1.669030	-0.174537	-0.561506	0.808856	0.956396	-0.292049	0.003634	0.234185	0.774221	0.587995
25677	7.468638	-4.230144	6.967893	-0.123838	4.149003	1.809063	-0.166813	-0.598380	0.783655	0.959185	-0.282544	-0.011567	0.228338	0.749740	0.621089
25678	7.519163	-3.484718	7.587338	-0.000017	4.103398	1.931989	-0.157509	-0.633948	0.757166	0.962304	-0.270685	-0.026452	0.221723	0.724458	0.652686
25679	7.869352	-3.166883	8.399369	0.053816	4.073082	2.054979	-0.146603	-0.668398	0.729213	0.965534	-0.256961	-0.041417	0.215063	0.698008	0.683032
25680	8.534818	-2.815074	9.248385	0.123583	4.107514	2.145321	-0.134569	-0.701824	0.699525	0.968800	-0.241462	-0.055886	0.208131	0.670179	0.712420
25681	9.207368	-2.424392	9.874012	0.139276	4.186736	2.170115	-0.122092	-0.734375	0.667672	0.971858	-0.225002	-0.069764	0.201461	0.640365	0.741179
25682	9.684394	-2.130118	10.188181	0.118519	4.317805	2.095924	-0.110285	-0.765858	0.633481	0.974517	-0.208584	-0.082514	0.195328	0.608238	0.769346
25683	9.277020	-2.008097	10.299738	0.053860	4.410864	1.924825	-0.100018	-0.795846	0.597182	0.976633	-0.193269	-0.093993	0.190221	0.573826	0.796580
25684	8.852263	-2.030474	10.521415	0.001763	4.393090	1.665245	-0.092031	-0.823364	0.560001	0.978226	-0.179822	-0.103627	0.186023	0.538271	0.821985
25685	8.959847	-1.698691	11.055610	-0.052746	4.310517	1.332216	-0.086951	-0.848152	0.522568	0.979309	-0.168994	-0.111336	0.182741	0.502074	0.845297
25686	9.521684	-1.116399	11.677195	-0.177032	4.213366	0.940565	-0.085425	-0.870079	0.485453	0.979788	-0.161814	-0.117608	0.180881	0.465594	0.866316
25687	10.749979	-0.395819	12.350424	-0.403764	4.170211	0.470428	-0.088382	-0.889506	0.448295	0.979453	-0.159511	-0.123401	0.181273	0.428178	0.885327
25688	12.051088	0.338326	12.661309	-0.803453	4.221933	-0.036179	-0.096502	-0.906684	0.410624	0.977937	-0.163163	-0.130447	0.185273	0.388976	0.902426
25689	12.474286	-0.380287	12.120737	-1.401067	4.368197	-0.530144	-0.109991	-0.921884	0.371527	0.974715	-0.173194	-0.141187	0.194504	0.346604	0.917624
25690	12.653938	-0.741618	11.343867	-1.704263	4.293196	-1.062029	-0.128944	-0.933910	0.333446	0.970022	-0.188634	-0.153214	0.205988	0.303693	0.930236
25691	10.042964	-2.217339	13.073302	-2.277762	4.389109	-1.386696	-0.151761	-0.943500	0.294579	0.963185	-0.208077	-0.170232	0.221909	0.257900	0.940343
25692	5.831744	-9.397844	5.883268	-1.193698	2.555740	-1.424839	-0.171242	-0.946655	0.272986	0.958177	-0.224503	-0.177470	0.229289	0.231178	0.945507
25693	25.902423	0.252752	-0.942137	2.265530	-1.174797	-2.851521	-0.196001	-0.937143	0.288697	0.957896	-0.245967	-0.148106	0.209807	0.247513	0.945896
25694	25.015446	9.698250	3.681026	0.333131	1.835861	-2.163076	-0.220494	-0.935991	0.274412	0.954064	-0.265469	-0.138881	0.202839	0.231185	0.951530
25695	25.848306	6.019797	0.575252	-1.316544	0.688071	-0.839493	-0.229936	-0.935273	0.269061	0.949411	-0.276332	-0.149194	0.213888	0.221144	0.951497
25696	21.901180	0.842589	-2.131229	-0.640884	0.731413	-0.402701	-0.235360	-0.935721	0.262739	0.947074	-0.281527	-0.154251	0.218304	0.212528	0.952457
25697	20.321433	1.973374	-2.885943	0.278773	-0.136489	-0.307342	-0.237992	-0.934552	0.264521	0.946931	-0.283841	-0.150848	0.216058	0.214583	0.952509
25698	18.872824	4.819027	-0.596269	0.481175	-0.768027	-0.000333	-0.236371	-0.932856	0.271862	0.947948	-0.282829	-0.146294	0.213362	0.223131	0.951152
25699	16.399391	5.348268	1.249492	0.339418	-1.092902	0.446342	-0.229825	-0.931593	0.281630	0.949691	-0.277932	-0.144362	0.212761	0.234284	0.948601
25700	12.790394	4.707653	2.506711	0.289753	-1.385181	0.842912	-0.218884	-0.930544	0.293559	0.952184	-0.269424	-0.144068	0.213154	0.247988	0.945022
25701	9.104177	2.610571	2.273186	0.359812	-1.555563	1.088806	-0.205202	-0.929420	0.306710	0.955241	-0.258421	-0.143992	0.213090	0.263434	0.940848
25702	4.735860	3.263373	2.022836	1.158431	-1.746005	0.870512	-0.193239	-0.926839	0.321914	0.959386	-0.247218	-0.135876	0.205518	0.282584	0.936968
25703	1.054446	5.660962	2.374622	1.599312	-2.078330	0.588672	-0.183444	-0.922127	0.340632	0.963673	-0.237116	-0.122923	0.194120	0.305708	0.932126
25704	1.646389	6.869187	2.345004	1.213171	-3.040342	1.267658	-0.165419	-0.915256	0.367345	0.968188	-0.221615	-0.116181	0.187744	0.336441	0.922800
25705	4.995854	7.902696	7.201100	1.436698	-3.895548	2.211301	-0.136801	-0.905994	0.400575	0.974157	-0.196410	-0.111543	0.179734	0.374964	0.909449
25706	51.585077	5.958288	21.534226	0.377256	-6.522029	1.083411	-0.114383	-0.881655	0.457822	0.976194	-0.185240	-0.112833	0.184287	0.434017	0.881855
25707	35.303842	37.253222	10.909862	8.640353	3.985810	-4.408294	-0.163164	-0.890321	0.425094	0.982099	-0.187675	-0.016109	0.094122	0.414856	0.905006
25708	-19.791954	-3.873552	23.274718	-7.408348	3.273023	-0.698292	-0.174195	-0.901726	0.395659	0.971453	-0.223079	-0.080710	0.161042	0.370305	0.914844
25709	12.519302	-25.392732	1.700222	-0.659608	-5.187430	0.854421	-0.157177	-0.883193	0.441889	0.971746	-0.218091	-0.090250	0.176080	0.415218	0.892519
25710	9.773349	13.125205	15.011562	6.863316	2.157436	-0.832018	-0.168368	-0.890357	0.422986	0.980052	-0.197173	-0.024931	0.105599	0.410351	0.905793
25711	-0.819192	9.312337	10.582040	-2.809159	0.013810	0.288924	-0.165587	-0.890954	0.422825	0.977171	-0.206094	-0.051592	0.133108	0.404630	0.904741
25712	6.309337	-3.569537	9.520368	-2.884185	-1.179630	1.057119	-0.153549	-0.888328	0.432776	0.974574	-0.208469	-0.082130	0.163179	0.409162	0.897752
25713	6.046786	-3.930472	6.915324	0.928131	-0.077449	0.158936	-0.151907	-0.888297	0.433420	0.976280	-0.203296	-0.074486	0.154279	0.411824	0.898109
25714	3.889481	1.786093	11.472058	0.564075	0.043552	-0.020098	-0.152197	-0.888419	0.433069	0.977093	-0.201193	-0.069351	0.148743	0.412594	0.898689
25715	5.077917	-0.278860	9.721661	-0.365362	-0.428592	0.115541	-0.150452	-0.886836	0.436905	0.976707	-0.201729	-0.073136	0.152996	0.415725	0.896529
25716	5.070732	-2.150913	9.097935	-0.046300	-0.188640	0.074456	-0.149463	-0.886183	0.438567	0.976737	-0.201306	-0.073896	0.153771	0.417320	0.895656
25717	4.714734	-0.407277	9.840265	-0.002665	-0.181714	0.055572	-0.148671	-0.885495	0.440223	0.976805	-0.200874	-0.074168	0.154104	0.418986	0.894820
25718	4.753719	-1.824659	9.215958	-0.079456	-0.186859	0.038405	-0.148034	-0.884770	0.441891	0.976729	-0.200911	-0.075066	0.155197	0.420496	0.893922
25719	4.711716	-1.351054	9.302807	-0.041321	-0.150123	0.010466	-0.147728	-0.884119	0.443295	0.976670	-0.201041	-0.075486	0.155859	0.421801	0.893192
25720	4.792364	-1.472147	9.129986	-0.031807	-0.128200	-0.006835	-0.147622	-0.883546	0.444470	0.976600	-0.201280	-0.075759	0.156399	0.422886	0.892584
25721	4.691384	-0.980700	9.307117	-0.027117	-0.106666	-0.017217	-0.147653	-0.883021	0.445503	0.976521	-0.201595	-0.075929	0.156859	0.423832	0.892055
25722	4.638794	-0.806890	9.338301	-0.048564	-0.103378	-0.022797	-0.147740	-0.882518	0.446468	0.976401	-0.202047	-0.076279	0.157525	0.424662	0.891542
25723	4.375777	-0.508814	9.607101	-0.047776	-0.140851	-0.011790	-0.147662	-0.881857	0.447800	0.976297	-0.202403	-0.076658	0.158237	0.425866	0.890842
25724	4.681997	-0.822441	9.295884	-0.121613	-0.145652	-0.006122	-0.147518	-0.881206	0.449127	0.976085	-0.203019	-0.077732	0.159679	0.426919	0.890080
25725	4.542164	-0.588390	9.380076	-0.090628	-0.173007	-0.011510	-0.147382	-0.880404	0.450741	0.975912	-0.203557	-0.078492	0.160856	0.428315	0.889197
25726	4.489824	-0.508161	9.438284	-0.124920	-0.176628	-0.005011	-0.147173	-0.879618	0.452341	0.975692	-0.204181	-0.079598	0.162375	0.429630	0.888286
25727	4.529408	-0.438441	9.430442	-0.129849	-0.205122	0.006061	-0.146809	-0.878709	0.454221	0.975478	-0.204735	-0.080784	0.163980	0.431223	0.887219
25728	4.528988	-0.665834	9.417797	-0.160735	-0.224761	0.014842	-0.146320	-0.877751	0.456228	0.975224	-0.205343	-0.082294	0.165917	0.432883	0.886050
25729	4.603339	-0.852272	9.217088	-0.165712	-0.256566	0.010481	-0.145819	-0.876622	0.458554	0.974952	-0.206019	-0.083815	0.167944	0.434846	0.884705
25730	4.655423	-1.048142	9.083370	-0.168999	-0.263143	0.007065	-0.145333	-0.875471	0.460900	0.974666	-0.206738	-0.085359	0.170014	0.436818	0.883338
25731	4.771499	-1.070230	8.942797	-0.156004	-0.273263	0.004832	-0.144848	-0.874247	0.463369	0.974395	-0.207427	-0.086764	0.171968	0.438937	0.881908
25732	4.862920	-1.173238	8.859884	-0.148725	-0.256264	-0.003532	-0.144466	-0.873094	0.465656	0.974122	-0.208156	-0.088075	0.173827	0.440882	0.880572
25733	4.895102	-1.216717	8.835861	-0.128327	-0.247923	-0.009441	-0.144154	-0.871942	0.467907	0.973873	-0.208854	-0.089166	0.175472	0.442829	0.879268
25734	4.890238	-1.263424	8.791039	-0.130380	-0.240767	-0.019234	-0.143943	-0.870815	0.470066	0.973605	-0.209645	-0.090239	0.177128	0.444669	0.878006
25735	4.899493	-1.253416	8.708518	-0.104966	-0.217792	-0.027817	-0.143855	-0.869749	0.472062	0.973367	-0.210404	-0.091035	0.178501	0.446394	0.876852
25736	5.008303	-1.256075	8.709342	-0.105290	-0.197134	-0.032817	-0.143848	-0.868780	0.473845	0.973120	-0.211204	-0.091819	0.179849	0.447900	0.875808
25737	4.968370	-1.266402	8.826867	-0.109348	-0.176881	-0.039924	-0.143946	-0.867865	0.475490	0.972854	-0.212090	-0.092593	0.181205	0.449254	0.874835
25738	4.735044	-1.247422	9.190973	-0.122883	-0.164722	-0.054473	-0.144203	-0.866989	0.477007	0.972540	-0.213160	-0.093425	0.182677	0.450436	0.873920
25739	4.677773	-1.062504	9.213419	-0.133363	-0.192703	-0.073571	-0.144592	-0.865926	0.478817	0.972178	-0.214448	-0.094245	0.184291	0.451868	0.872841
25740	4.696306	-0.870362	9.276462	-0.167449	-0.221204	-0.080020	-0.144987	-0.864733	0.480848	0.971740	-0.215943	-0.095338	0.186278	0.453437	0.871605
25741	4.692788	-0.499083	9.402331	-0.142939	-0.255674	-0.080522	-0.145318	-0.863361	0.483209	0.971344	-0.217337	-0.096202	0.188076	0.455382	0.870204
25742	4.684656	-0.441438	9.319777	-0.177585	-0.309677	-0.059858	-0.145340	-0.861797	0.485985	0.970910	-0.218708	-0.097472	0.190290	0.457681	0.868515
25743	4.714267	-0.528282	9.291685	-0.183457	-0.341837	-0.034509	-0.145049	-0.860117	0.489040	0.970497	-0.219896	-0.098902	0.192605	0.460267	0.866636
25744	4.924095	-0.758242	9.058685	-0.187516	-0.388059	-0.015219	-0.144471	-0.858272	0.492440	0.970100	-0.220937	-0.100466	0.195026	0.463202	0.864528
25745	4.821950	-1.034442	9.168999	-0.189694	-0.401052	-0.008671	-0.143796	-0.856353	0.495966	0.969703	-0.221942	-0.102066	0.197481	0.466263	0.862322
25746	4.693577	-1.292042	9.358454	-0.201372	-0.439661	-0.018125	-0.143123	-0.854236	0.499797	0.969265	-0.223084	-0.103726	0.200103	0.469590	0.859909
25747	4.483919	-1.615621	9.544017	-0.223481	-0.500082	-0.050270	-0.142630	-0.851729	0.504196	0.968731	-0.224615	-0.105397	0.203020	0.473397	0.857134
25748	4.155680	-1.438870	10.136468	-0.210146	-0.596304	-0.091022	-0.142319	-0.848668	0.509420	0.968159	-0.226434	-0.106749	0.205944	0.478007	0.853871
25749	3.781744	-1.504306	10.540417	-0.266121	-0.767191	-0.133410	-0.142043	-0.844639	0.516149	0.967405	-0.228892	-0.108337	0.209648	0.483936	0.849620
25750	3.478736	-1.614866	10.929452	-0.285330	-0.988809	-0.183951	-0.141754	-0.839371	0.524749	0.966527	-0.231878	-0.109810	0.213849	0.491618	0.844145
25751	2.971118	-1.486199	11.656015	-0.241184	-1.291132	-0.255834	-0.141464	-0.832325	0.535931	0.965632	-0.235263	-0.110485	0.218045	0.501882	0.837001
25752	2.693333	-1.054411	11.694035	-0.154344	-1.652882	-0.311197	-0.140858	-0.823161	0.550059	0.964840	-0.238669	-0.110094	0.221907	0.515211	0.827837
25753	2.448864	-1.025516	11.726508	-0.210649	-2.053468	-0.378257	-0.139925	-0.811469	0.567396	0.963824	-0.242912	-0.109715	0.226857	0.531518	0.816103
25754	2.410804	-1.349647	11.649865	-0.123943	-2.531621	-0.455898	-0.138539	-0.796619	0.588392	0.962892	-0.247294	-0.108094	0.231615	0.551583	0.801318
25755	1.645014	-1.785869	12.024489	-0.031259	-3.097460	-0.555004	-0.136663	-0.777738	0.613553	0.962043	-0.251888	-0.105006	0.236214	0.575914	0.782641
25756	1.263417	-2.084770	12.995964	0.092355	-3.873538	-0.666773	-0.133865	-0.753129	0.644109	0.961348	-0.256493	-0.100109	0.240604	0.605812	0.758354
25757	0.446233	-3.893795	13.689612	-0.033519	-4.706100	-0.864768	-0.130723	-0.721521	0.679940	0.960109	-0.263126	-0.094630	0.247188	0.640446	0.727136
25758	0.955296	-5.416760	13.461325	0.304652	-5.748225	-1.199146	-0.127915	-0.680293	0.721691	0.959305	-0.269566	-0.084072	0.251738	0.681568	0.687091
25759	2.147176	-3.460885	13.557945	0.805159	-6.758520	-1.564101	-0.125903	-0.628362	0.767665	0.959337	-0.274174	-0.067083	0.252626	0.728004	0.637331
25760	5.323297	-1.478061	14.403636	0.564374	-7.890559	-1.738399	-0.122488	-0.564116	0.816560	0.958603	-0.280344	-0.049879	0.257055	0.776647	0.575102
25761	14.236673	-2.522857	16.475445	-0.235714	-8.530410	-1.638071	-0.115734	-0.491229	0.863307	0.956016	-0.290922	-0.037375	0.269515	0.821010	0.503293
25762	25.493876	-7.577334	17.968147	-0.557025	-7.848756	-1.537008	-0.108713	-0.420819	0.900607	0.952735	-0.302652	-0.026412	0.283685	0.855169	0.433831
25763	25.526629	-10.473816	17.518360	0.161697	-6.113768	-1.914652	-0.109463	-0.361902	0.925767	0.951095	-0.308788	-0.008254	0.288853	0.879589	0.378004
25764	16.989445	-7.323375	16.928807	1.135382	-5.405345	-2.173523	-0.114682	-0.307044	0.944760	0.951898	-0.305991	0.016102	0.284144	0.901162	0.327366
25765	9.025515	-5.777504	17.774449	1.351468	-4.890940	-2.006892	-0.120096	-0.256441	0.959070	0.953321	-0.299387	0.039324	0.277049	0.919024	0.280426
25766	-3.585519	-3.534960	15.577947	1.379040	-4.537481	-1.931288	-0.126146	-0.208663	0.969818	0.954698	-0.291144	0.061538	0.269516	0.933646	0.235936
25767	-13.143736	-1.523571	11.864047	1.192140	-5.125842	-1.949827	-0.131094	-0.154878	0.979197	0.955362	-0.283523	0.083059	0.264761	0.946376	0.185133
25768	-2.137593	-0.132382	10.432377	0.418090	-6.354766	-1.390893	-0.127440	-0.090468	0.987712	0.954665	-0.281292	0.097411	0.269023	0.955348	0.122215
25769	35.461099	-3.653043	10.621438	0.714815	-6.289660	-0.370348	-0.114051	-0.029179	0.993046	0.956131	-0.274704	0.101739	0.269825	0.961086	0.059229
25770	14.185272	0.898900	12.402803	0.246166	2.004540	-0.622732	-0.125390	-0.046706	0.991007	0.956030	-0.272611	0.108116	0.265110	0.960990	0.078835
25771	12.441687	-5.149283	15.960063	-1.677706	2.322015	1.294159	-0.119367	-0.072619	0.990191	0.953042	-0.287955	0.093770	0.278321	0.954887	0.103582
25772	4.316723	-10.739416	7.596339	0.458247	4.785123	1.046820	-0.122477	-0.121194	0.985044	0.955547	-0.282610	0.084039	0.268198	0.951548	0.150420
25773	-6.007619	-6.085997	5.083228	1.312058	4.728409	0.778275	-0.127285	-0.168321	0.977480	0.959905	-0.269062	0.078665	0.249762	0.948300	0.195820
25774	-2.608469	-4.045300	3.480377	1.258572	3.913996	0.698711	-0.130031	-0.207165	0.969626	0.963827	-0.255880	0.074583	0.232657	0.944250	0.232944
25775	-0.809215	-1.315760	3.164125	1.479502	4.087016	0.485933	-0.134458	-0.246915	0.959663	0.967756	-0.240893	0.073612	0.213001	0.938618	0.271344
25776	-0.549225	0.757884	3.241007	1.143288	4.122903	0.364714	-0.139388	-0.286274	0.947955	0.970584	-0.229278	0.073475	0.196312	0.930311	0.309811
25777	-0.375015	1.598177	2.820831	0.340483	4.266396	0.367322	-0.144013	-0.326603	0.934126	0.971747	-0.225055	0.071126	0.187000	0.917976	0.349787
25778	-0.875811	0.850421	2.092220	-0.498818	4.419095	0.437214	-0.148021	-0.367772	0.918060	0.971444	-0.228120	0.065244	0.185433	0.901501	0.391037
25779	-2.115781	-0.838219	2.324699	-1.132597	4.296286	0.382336	-0.152393	-0.407044	0.900606	0.969882	-0.236791	0.057093	0.190016	0.882182	0.430870
25780	-0.402208	-2.095293	3.393121	-1.396550	3.778066	0.280064	-0.157032	-0.440660	0.883833	0.967595	-0.247836	0.048348	0.197741	0.862784	0.465298
25781	3.127787	-2.489594	4.545645	-1.385239	3.548003	0.254917	-0.161739	-0.471630	0.866837	0.965196	-0.258539	0.039425	0.205517	0.843044	0.497031
25782	5.684378	-3.065160	5.198501	-1.452042	3.666641	0.376280	-0.165820	-0.503110	0.848165	0.962757	-0.268836	0.028757	0.213550	0.821345	0.528951
25783	6.712986	-3.929301	5.232157	-1.241450	3.990561	0.549317	-0.169178	-0.536963	0.826468	0.960980	-0.276075	0.017345	0.218853	0.797153	0.562717
25784	6.654820	-3.985281	5.558435	-0.948327	4.201842	0.720561	-0.171520	-0.571892	0.802197	0.960109	-0.279563	0.005981	0.220845	0.771222	0.597029
25785	6.476884	-3.539692	5.810635	-0.735773	4.281414	0.855254	-0.172770	-0.606780	0.775866	0.959944	-0.280143	-0.005330	0.220587	0.743867	0.630875
25786	6.673596	-3.144930	6.127753	-0.631098	4.205951	0.941284	-0.173011	-0.640087	0.748569	0.960169	-0.278927	-0.016588	0.219414	0.715883	0.662849
25787	6.889147	-3.325265	6.640532	-0.612133	4.116526	0.976987	-0.172646	-0.671735	0.720393	0.960504	-0.276856	-0.027967	0.218232	0.687112	0.693003
25788	7.624682	-3.710991	7.194244	-0.562995	4.023383	1.026451	-0.171560	-0.701597	0.691614	0.961033	-0.273641	-0.039200	0.216756	0.657938	0.721203
25789	8.245653	-4.221650	7.820042	-0.464434	4.025165	1.129169	-0.169388	-0.730585	0.661478	0.961942	-0.268580	-0.050311	0.214417	0.627781	0.748275
25790	8.476526	-3.970607	8.380176	-0.256461	4.067086	1.249191	-0.166019	-0.758775	0.629840	0.963480	-0.260894	-0.060338	0.210104	0.596821	0.774378
25791	8.633419	-3.321002	8.834453	-0.206945	4.082896	1.357435	-0.161419	-0.786011	0.596767	0.965258	-0.251648	-0.070358	0.205477	0.564677	0.799324
25792	8.689997	-2.813250	9.217558	-0.252381	4.073309	1.415096	-0.156061	-0.811810	0.562681	0.966979	-0.241770	-0.080621	0.201489	0.531519	0.822733
25793	8.829018	-2.576054	9.650492	-0.376227	4.053593	1.398177	-0.150654	-0.836012	0.527625	0.968355	-0.232220	-0.091451	0.198979	0.497150	0.844541
25794	8.905524	-2.507882	10.214119	-0.495310	4.010571	1.333002	-0.145723	-0.858266	0.492081	0.969335	-0.223346	-0.102496	0.197874	0.462055	0.864495
25795	9.250484	-2.102409	10.962984	-0.640337	3.942778	1.210095	-0.141812	-0.878468	0.456270	0.969791	-0.215714	-0.113902	0.198483	0.426334	0.882521
25796	10.006357	-1.495594	11.821147	-0.819126	3.896653	1.039123	-0.139545	-0.896570	0.420345	0.969604	-0.209878	-0.125771	0.200984	0.390017	0.898606
25797	10.814194	-0.743380	12.360206	-1.084320	3.921994	0.804516	-0.139742	-0.912825	0.383697	0.968504	-0.206653	-0.138904	0.206087	0.352201	0.912953
25798	10.606189	-0.240379	12.302523	-1.428983	4.016137	0.500676	-0.143366	-0.927190	0.346069	0.966197	-0.206837	-0.153891	0.214266	0.312308	0.925502
25799	10.532885	-0.243378	11.852652	-1.752452	3.983184	0.100247	-0.151170	-0.939041	0.308786	0.962473	-0.211043	-0.170605	0.225372	0.271408	0.935706
25800	10.448223	0.693443	11.452667	-1.964929	3.822393	-0.369845	-0.163608	-0.947837	0.273563	0.957322	-0.219510	-0.188017	0.238259	0.231127	0.943299
25801	10.967758	1.615995	10.798175	-2.217903	3.559089	-0.836088	-0.180350	-0.953491	0.241514	0.950410	-0.232178	-0.206916	0.253366	0.192220	0.948081
25802	11.792107	2.300976	9.926673	-2.513766	3.252766	-1.272592	-0.200943	-0.956068	0.213438	0.941376	-0.248734	-0.227908	0.270985	0.155129	0.950001
25803	12.442527	2.406391	8.863605	-2.757071	2.981123	-1.649259	-0.224765	-0.955898	0.189048	0.930099	-0.268310	-0.250849	0.290509	0.119451	0.949387
25804	12.752760	2.113471	7.674145	-2.783210	2.665291	-1.975540	-0.251038	-0.953112	0.168990	0.917023	-0.290067	-0.273733	0.309916	0.086250	0.946844
25805	10.787325	-1.147381	7.532123	-2.919089	2.537916	-1.934876	-0.276781	-0.949068	0.150541	0.902549	-0.310529	-0.298289	0.329844	0.053310	0.942529
25806	13.581192	0.352165	2.705507	-0.624788	0.428535	-2.595497	-0.301527	-0.940888	0.154307	0.892948	-0.335404	-0.300248	0.334255	0.047255	0.941297
25807	17.629318	4.810211	5.243875	-0.247546	0.700519	-2.543468	-0.326485	-0.932350	0.155343	0.884102	-0.359359	-0.298706	0.334322	0.039816	0.941617
25808	15.504700	3.017438	3.441147	-1.030781	0.629007	-1.965547	-0.345908	-0.925310	0.155398	0.873988	-0.378008	-0.305377	0.341310	0.030183	0.939466
25809	13.613896	0.298005	2.893366	-0.476271	0.179789	-1.605246	-0.360512	-0.919161	0.158665	0.866651	-0.392977	-0.307385	0.344888	0.026691	0.938264
25810	12.267523	-0.598238	2.626553	0.178642	-0.583585	-1.300010	-0.369756	-0.913788	0.168146	0.862496	-0.404869	-0.303614	0.345516	0.032762	0.937841
25811	11.406086	1.149959	4.497414	0.723267	-1.163714	-0.749151	-0.372220	-0.910253	0.181359	0.862174	-0.411450	-0.295576	0.343669	0.046344	0.937947
25812	10.245262	1.460666	5.135137	0.838741	-1.533026	0.013991	-0.366861	-0.909452	0.195728	0.865077	-0.410893	-0.287765	0.342132	0.063750	0.937487
25813	8.325561	0.998938	5.497334	1.078375	-1.815575	0.726976	-0.354376	-0.911045	0.210749	0.871339	-0.403514	-0.279185	0.339390	0.084697	0.936825
25814	6.304410	0.558346	4.957943	1.629739	-2.081877	1.270616	-0.336268	-0.914045	0.226817	0.881178	-0.390363	-0.266724	0.332339	0.110175	0.936703
25815	4.078224	1.386126	4.431508	2.443523	-2.318947	1.619673	-0.314357	-0.917290	0.244456	0.894365	-0.372508	-0.247685	0.318261	0.140771	0.937493
25816	2.057077	4.265653	4.614611	3.318364	-2.595563	1.640453	-0.291604	-0.919100	0.264997	0.909513	-0.352211	-0.220757	0.296233	0.176644	0.938639
25817	1.105369	10.884831	6.105919	4.081624	-2.824320	1.270599	-0.272012	-0.917870	0.289005	0.924562	-0.332556	-0.185989	0.266824	0.216612	0.939087
25818	2.266568	13.764707	7.811898	2.056268	-2.910635	1.547691	-0.250051	-0.916064	0.313532	0.933954	-0.313603	-0.171417	0.255353	0.249961	0.933978
25819	2.953036	4.565381	5.858025	0.766017	-2.990533	1.411628	-0.229212	-0.912435	0.339004	0.939274	-0.298714	-0.168922	0.255396	0.279699	0.925495
25820	-0.730594	-1.535383	17.250733	1.400773	-1.570455	-0.627933	-0.231204	-0.905999	0.354557	0.941323	-0.300416	-0.153825	0.245880	0.298187	0.922295
25821	30.821940	9.409477	28.887873	6.933211	-6.183780	-4.118424	-0.256477	-0.872489	0.415911	0.946569	-0.313774	-0.074514	0.195515	0.374578	0.906347
25822	38.429171	11.667244	16.069016	1.159432	-2.217614	0.561847	-0.246898	-0.865645	0.435546	0.950204	-0.304458	-0.066466	0.190141	0.397447	0.897709
