// General information: 
//  MT Manager version: 2022.2.0 
//  XDA version: 2022.2.0 build 7381 rev 124627 built on 2023-07-19
// Device information: 
//  DeviceId: 00B4CBA7
//  ProductCode: MTW2-3A7G6
//  Firmware Version: 4.6.0
//  Hardware Version: 2.0.0
// Device settings: 
//  Filter Profile: human(46.1)
//  Option Flags: Orientation Smoother Disabled, Position/Velocity Smoother Disabled, Continuous Zero Rotation Update Disabled, AHS Disabled, ICC Disabled
// Coordinate system: ENU
PacketCounter	Acc_X	Acc_Y	Acc_Z	Gyr_X	Gyr_Y	Gyr_Z	Mat[1][1]	Mat[2][1]	Mat[3][1]	Mat[1][2]	Mat[2][2]	Mat[3][2]	Mat[1][3]	Mat[2][3]	Mat[3][3]
40126	9.346183	-1.121973	-2.582144	-0.001954	0.000598	0.001150	-0.262594	0.103183	0.959374	-0.016373	0.993646	-0.111350	-0.964768	-0.044948	-0.259236
40127	9.391145	-1.199016	-2.602671	0.005800	0.000377	0.003029	-0.262600	0.103156	0.959375	-0.016503	0.993643	-0.111358	-0.964764	-0.045076	-0.259229
40128	9.399807	-1.206477	-2.529719	0.024514	0.006817	0.006973	-0.262531	0.103187	0.959390	-0.016737	0.993629	-0.111449	-0.964778	-0.045316	-0.259132
40129	9.358184	-1.097561	-2.422960	0.020145	0.014109	0.009479	-0.262398	0.103230	0.959422	-0.016973	0.993614	-0.111551	-0.964811	-0.045555	-0.258970
40130	9.383692	-1.128096	-2.460178	0.008698	0.011414	0.011970	-0.262285	0.103313	0.959444	-0.017041	0.993602	-0.111649	-0.964840	-0.045634	-0.258846
40131	9.409182	-1.159087	-2.497258	0.011183	0.017812	0.021202	-0.262104	0.103516	0.959472	-0.017029	0.993579	-0.111847	-0.964889	-0.045654	-0.258658
40132	9.321451	-1.139424	-2.508067	0.013417	0.010925	0.015642	-0.261997	0.103634	0.959488	-0.017133	0.993561	-0.111993	-0.964917	-0.045781	-0.258534
40133	9.418234	-1.130650	-2.451286	0.017047	0.016010	0.017746	-0.261861	0.103730	0.959515	-0.017424	0.993537	-0.112163	-0.964948	-0.046090	-0.258361
40134	9.441562	-1.068925	-2.405464	0.011427	0.015823	0.018915	-0.261707	0.103884	0.959540	-0.017500	0.993516	-0.112335	-0.964989	-0.046191	-0.258192
40135	9.330728	-1.112709	-2.460515	-0.006243	0.014557	0.016453	-0.261589	0.103963	0.959564	-0.017584	0.993504	-0.112434	-0.965019	-0.046284	-0.258061
40136	9.342085	-1.115952	-2.543432	0.005312	0.004337	0.007579	-0.261544	0.103999	0.959572	-0.017631	0.993497	-0.112481	-0.965031	-0.046337	-0.258010
40137	9.387215	-1.154721	-2.592890	0.004230	0.003478	0.008227	-0.261521	0.104013	0.959577	-0.017763	0.993490	-0.112530	-0.965034	-0.046474	-0.257970
40138	9.627783	-1.305317	-2.583204	-0.002816	0.039013	0.033531	-0.261146	0.104323	0.959646	-0.017663	0.993460	-0.112806	-0.965138	-0.046409	-0.257595
40139	9.430928	-1.203509	-2.478402	0.023130	0.087997	0.056386	-0.260301	0.104891	0.959813	-0.017736	0.993394	-0.113370	-0.965365	-0.046533	-0.256721
40140	9.277267	-1.066180	-2.324503	0.003922	0.076700	0.037689	-0.259562	0.105259	0.959973	-0.017691	0.993357	-0.113703	-0.965564	-0.046496	-0.255976
40141	9.337508	-1.134443	-2.322916	-0.019720	0.055598	0.034639	-0.259032	0.105581	0.960081	-0.017455	0.993334	-0.113947	-0.965711	-0.046274	-0.255462
40142	9.289683	-1.170848	-2.324940	-0.022272	0.029699	0.017075	-0.258744	0.105722	0.960143	-0.017211	0.993330	-0.114014	-0.965793	-0.046026	-0.255198
40143	9.364270	-1.127379	-2.385464	-0.011313	0.008235	0.006565	-0.258634	0.105843	0.960159	-0.016817	0.993335	-0.114030	-0.965829	-0.045639	-0.255130
40144	9.365025	-1.049050	-2.444488	-0.010021	-0.010257	-0.009034	-0.258727	0.105707	0.960149	-0.016759	0.993353	-0.113879	-0.965805	-0.045555	-0.255236
40145	9.384676	-1.036477	-2.472593	-0.029718	-0.030406	-0.018715	-0.259015	0.105460	0.960099	-0.016556	0.993391	-0.113583	-0.965732	-0.045315	-0.255557
40146	9.400552	-1.114748	-2.542966	-0.032650	-0.037133	-0.025525	-0.259365	0.105148	0.960038	-0.016322	0.993436	-0.113215	-0.965642	-0.045034	-0.255946
40147	9.351666	-1.106973	-2.582154	-0.030032	-0.041517	-0.027032	-0.259760	0.104814	0.959968	-0.016141	0.993482	-0.112841	-0.965538	-0.044807	-0.256375
40148	9.418782	-1.116745	-2.563036	-0.036039	-0.050643	-0.027715	-0.260240	0.104474	0.959875	-0.015881	0.993531	-0.112443	-0.965413	-0.044506	-0.256898
40149	9.375149	-1.129347	-2.630324	-0.031534	-0.047033	-0.026121	-0.260699	0.104125	0.959788	-0.015756	0.993575	-0.112071	-0.965291	-0.044339	-0.257384
40150	9.414237	-1.084683	-2.701726	-0.020468	-0.046856	-0.032662	-0.261142	0.103738	0.959710	-0.015659	0.993622	-0.111665	-0.965173	-0.044189	-0.257852
40151	9.427707	-1.049349	-2.705330	-0.031643	-0.049407	-0.036825	-0.261609	0.103325	0.959627	-0.015430	0.993679	-0.111198	-0.965051	-0.043897	-0.258361
40152	9.383835	-1.099940	-2.743204	-0.030110	-0.048221	-0.039914	-0.262064	0.102865	0.959553	-0.015260	0.993737	-0.110698	-0.964930	-0.043652	-0.258853
40153	9.377180	-1.133400	-2.676903	-0.024247	-0.050025	-0.043379	-0.262514	0.102427	0.959477	-0.014974	0.993798	-0.110188	-0.964812	-0.043293	-0.259352
40154	9.393852	-1.044692	-2.610632	-0.020779	-0.058008	-0.041066	-0.263063	0.101952	0.959377	-0.014897	0.993853	-0.109701	-0.964664	-0.043150	-0.259927
40155	9.492787	-0.996071	-2.475941	-0.056641	-0.052341	-0.039338	-0.263564	0.101473	0.959290	-0.014543	0.993921	-0.109132	-0.964532	-0.042714	-0.260486
40156	9.434774	-1.096536	-2.500434	-0.064422	-0.039270	-0.045659	-0.263932	0.100961	0.959243	-0.014058	0.993998	-0.108487	-0.964439	-0.042118	-0.260928
40157	9.355010	-1.115594	-2.415161	-0.058253	-0.038545	-0.034246	-0.264307	0.100525	0.959185	-0.013726	0.994060	-0.107962	-0.964341	-0.041701	-0.261358
40158	9.386276	-1.034929	-2.317549	-0.066256	-0.044955	-0.027329	-0.264733	0.100193	0.959103	-0.013175	0.994119	-0.107487	-0.964232	-0.041091	-0.261856
40159	9.455814	-1.155879	-2.367826	-0.119236	-0.040124	-0.015478	-0.265103	0.100025	0.959018	-0.011951	0.994187	-0.106997	-0.964146	-0.039827	-0.262367
40160	9.488282	-1.274440	-2.535184	-0.102272	-0.000495	-0.002097	-0.265103	0.099963	0.959024	-0.010987	0.994234	-0.106670	-0.964157	-0.038815	-0.262476
40161	9.287249	-1.180168	-2.535275	-0.085921	0.010504	-0.003237	-0.264993	0.099921	0.959059	-0.010103	0.994274	-0.106382	-0.964198	-0.037880	-0.262466
40162	9.560262	-1.329676	-2.368581	-0.071731	0.024259	0.024958	-0.264757	0.100137	0.959102	-0.009361	0.994280	-0.106394	-0.964270	-0.037147	-0.262305
40163	9.448995	-1.116885	-2.197711	-0.058338	0.078304	0.044766	-0.264013	0.100531	0.959266	-0.008814	0.994260	-0.106625	-0.964479	-0.036606	-0.261611
40164	9.260162	-0.969123	-2.318777	-0.081397	0.059560	0.023905	-0.263436	0.100749	0.959401	-0.007982	0.994270	-0.106602	-0.964644	-0.035741	-0.261123
40165	9.197617	-1.041388	-2.578398	-0.076404	0.037591	0.005951	-0.263089	0.100733	0.959498	-0.007402	0.994294	-0.106415	-0.964743	-0.035099	-0.260842
40166	9.267677	-1.229454	-2.835586	-0.064841	0.005818	-0.017962	-0.263028	0.100514	0.959538	-0.006840	0.994339	-0.106035	-0.964764	-0.034453	-0.260851
40167	9.324380	-1.244884	-2.984319	0.009543	0.001072	-0.033646	-0.263003	0.100195	0.959578	-0.006881	0.994373	-0.105714	-0.964770	-0.034406	-0.260834
40168	9.274150	-1.145394	-2.935416	0.043760	-0.008022	-0.042946	-0.263074	0.099723	0.959608	-0.007432	0.994405	-0.105377	-0.964747	-0.034853	-0.260860
40169	9.385144	-1.140023	-2.850624	0.054708	-0.025124	-0.051474	-0.263304	0.099185	0.959601	-0.008044	0.994440	-0.104994	-0.964679	-0.035365	-0.261042
40170	9.397083	-1.111097	-2.694333	0.052127	-0.016480	-0.058657	-0.263454	0.098554	0.959624	-0.008717	0.994484	-0.104528	-0.964633	-0.035904	-0.261141
40171	9.357582	-1.129102	-2.643780	0.046591	-0.025307	-0.061844	-0.263685	0.097895	0.959628	-0.009328	0.994532	-0.104019	-0.964564	-0.036379	-0.261330
40172	9.417794	-1.024959	-2.511357	0.021533	-0.026130	-0.057878	-0.263928	0.097268	0.959625	-0.009704	0.994584	-0.103480	-0.964494	-0.036623	-0.261555
40173	9.560145	-1.085841	-2.478023	-0.033660	0.015680	-0.042864	-0.263753	0.096863	0.959714	-0.009335	0.994642	-0.102954	-0.964545	-0.036113	-0.261436
40174	9.291670	-0.996274	-2.484297	-0.054301	0.037828	-0.043806	-0.263380	0.096399	0.959864	-0.008942	0.994708	-0.102353	-0.964651	-0.035541	-0.261124
40175	9.377877	-1.024935	-2.569405	-0.076527	0.034940	-0.041512	-0.263035	0.095962	0.960002	-0.008320	0.994778	-0.101718	-0.964750	-0.034743	-0.260863
40176	9.322292	-1.085262	-2.616681	-0.083290	0.027202	-0.052637	-0.262765	0.095406	0.960131	-0.007671	0.994861	-0.100956	-0.964829	-0.033893	-0.260683
40177	9.394196	-1.084621	-2.747841	-0.068341	0.024147	-0.057138	-0.262541	0.094808	0.960252	-0.007204	0.994941	-0.100202	-0.964894	-0.033225	-0.260530
40178	9.358323	-1.054006	-2.879340	-0.052544	0.026097	-0.064318	-0.262281	0.094135	0.960389	-0.006881	0.995023	-0.099409	-0.964967	-0.032682	-0.260328
40179	9.362672	-1.157912	-2.947147	-0.037341	0.021094	-0.071098	-0.262075	0.093407	0.960516	-0.006700	0.995105	-0.098599	-0.965024	-0.032276	-0.260166
40180	9.398267	-1.167081	-2.926328	-0.004600	0.023940	-0.066619	-0.261836	0.092710	0.960649	-0.006845	0.995172	-0.097908	-0.965088	-0.032212	-0.259937
40181	9.394170	-1.140714	-2.896155	0.023009	0.031208	-0.072116	-0.261510	0.092022	0.960804	-0.007086	0.995235	-0.097249	-0.965175	-0.032239	-0.259612
40182	9.384486	-1.094257	-2.837871	0.031231	0.033519	-0.076997	-0.261177	0.091225	0.960971	-0.007604	0.995299	-0.096550	-0.965261	-0.032524	-0.259256
40183	9.377748	-1.054458	-2.665175	0.036674	0.033559	-0.082397	-0.260839	0.090406	0.961140	-0.008101	0.995365	-0.095824	-0.965348	-0.032781	-0.258898
40184	9.396568	-1.042037	-2.531661	0.018468	0.029428	-0.093325	-0.260543	0.089445	0.961310	-0.008538	0.995447	-0.094935	-0.965424	-0.032943	-0.258593
40185	9.361494	-1.043439	-2.377197	-0.004616	0.030038	-0.094935	-0.260240	0.088509	0.961479	-0.008650	0.995536	-0.093985	-0.965505	-0.032775	-0.258312
40186	9.374721	-1.048221	-2.187666	-0.029449	0.035670	-0.099899	-0.259883	0.087484	0.961669	-0.008640	0.995637	-0.092909	-0.965602	-0.032455	-0.257993
40187	9.392691	-0.954359	-2.112615	-0.052673	0.027493	-0.099205	-0.259598	0.086522	0.961833	-0.008242	0.995744	-0.091797	-0.965682	-0.031758	-0.257780
40188	9.332018	-0.970957	-2.147650	-0.062866	0.019049	-0.106186	-0.259402	0.085429	0.961984	-0.007926	0.995858	-0.090574	-0.965737	-0.031120	-0.257650
40189	9.412667	-0.932967	-2.235772	-0.065114	0.012778	-0.111372	-0.259273	0.084291	0.962119	-0.007596	0.995975	-0.089304	-0.965774	-0.030463	-0.257590
40190	9.414836	-0.965936	-2.462176	-0.067945	0.016882	-0.114152	-0.259098	0.083117	0.962268	-0.007251	0.996095	-0.087991	-0.965824	-0.029776	-0.257483
40191	9.337936	-1.025232	-2.599747	-0.049684	0.010099	-0.118386	-0.258966	0.081973	0.962402	-0.006856	0.996211	-0.086698	-0.965862	-0.029050	-0.257423
40192	9.413423	-1.025436	-2.617401	-0.025074	0.010746	-0.119906	-0.258850	0.080740	0.962537	-0.006940	0.996319	-0.085440	-0.965893	-0.028796	-0.257337
40193	9.451193	-0.977903	-2.526123	-0.006435	0.017406	-0.115796	-0.258677	0.079563	0.962681	-0.007176	0.996416	-0.084280	-0.965937	-0.028710	-0.257179
40194	9.419008	-0.971054	-2.528168	-0.023092	0.040674	-0.104125	-0.258273	0.078496	0.962878	-0.007237	0.996508	-0.083179	-0.966045	-0.028451	-0.256803
40195	9.626631	-1.036325	-2.424053	-0.029530	0.055052	-0.087512	-0.257723	0.077649	0.963094	-0.007044	0.996588	-0.082234	-0.966193	-0.027978	-0.256297
40196	9.962235	-1.043000	-2.395264	-0.043651	0.181108	-0.004662	-0.255968	0.077611	0.963565	-0.006649	0.996607	-0.082038	-0.966662	-0.027406	-0.254584
40197	9.200604	-0.481211	-2.129708	-0.059826	0.237052	-0.009050	-0.253683	0.077533	0.964175	-0.006164	0.996633	-0.081765	-0.967268	-0.026686	-0.252351
40198	9.101208	-0.500950	-2.226368	-0.191365	0.162843	-0.027004	-0.252103	0.077264	0.964611	-0.004396	0.996706	-0.080984	-0.967691	-0.024657	-0.250932
40199	9.242253	-0.892796	-2.479086	-0.195109	0.117923	-0.063574	-0.250944	0.076702	0.964958	-0.002431	0.996803	-0.079865	-0.967998	-0.022388	-0.249955
40200	9.298492	-0.937005	-2.548661	-0.144071	0.092449	-0.086618	-0.250044	0.075817	0.965262	-0.001268	0.996903	-0.078630	-0.968234	-0.020885	-0.249173
40201	9.251948	-0.801768	-2.663373	-0.101830	0.066277	-0.110949	-0.249394	0.074752	0.965513	-0.000379	0.997009	-0.077289	-0.968402	-0.019642	-0.248619
40202	9.396729	-0.701539	-2.623689	-0.071288	0.039379	-0.115411	-0.249009	0.073567	0.965703	0.000009	0.997111	-0.075958	-0.968501	-0.018906	-0.248290
40203	9.485698	-0.628508	-2.664544	-0.094539	0.037376	-0.117205	-0.248646	0.072392	0.965885	0.000681	0.997216	-0.074565	-0.968594	-0.017883	-0.248004
40204	9.378649	-0.769398	-2.749814	-0.086656	0.035113	-0.121840	-0.248304	0.071141	0.966066	0.001203	0.997321	-0.073133	-0.968681	-0.016997	-0.247724
40205	9.500260	-0.703055	-2.885519	-0.069145	0.040983	-0.116926	-0.247909	0.069994	0.966252	0.001704	0.997417	-0.071815	-0.968782	-0.016157	-0.247388
40206	9.433772	-0.567723	-2.876788	-0.069528	0.049297	-0.116892	-0.247430	0.068794	0.966460	0.002073	0.997511	-0.070474	-0.968904	-0.015434	-0.246957
40207	9.497525	-0.475836	-2.762748	-0.082260	0.053925	-0.109680	-0.246899	0.067769	0.966669	0.002883	0.997599	-0.069201	-0.969037	-0.014299	-0.246501
40208	9.581912	-0.482477	-2.702228	-0.122366	0.074847	-0.099938	-0.246173	0.066740	0.966925	0.003808	0.997685	-0.067894	-0.969218	-0.013032	-0.245857
40209	9.485135	-0.601816	-2.626243	-0.145863	0.081237	-0.097484	-0.245381	0.065821	0.967190	0.005220	0.997768	-0.066578	-0.969413	-0.011289	-0.245176
40210	9.483892	-0.829754	-2.623301	-0.131585	0.073294	-0.114459	-0.244673	0.064645	0.967448	0.006201	0.997859	-0.065109	-0.969586	-0.009932	-0.244550
40211	9.441838	-0.850500	-2.410622	-0.093147	0.074923	-0.117132	-0.243950	0.063518	0.967706	0.007021	0.997942	-0.063733	-0.969762	-0.008754	-0.243894
40212	9.400101	-0.992930	-2.328223	-0.124146	0.070589	-0.116814	-0.243271	0.062316	0.967955	0.007926	0.998028	-0.062260	-0.969926	-0.007474	-0.243285
40213	9.360110	-1.295665	-2.349541	-0.124621	0.054692	-0.129549	-0.242752	0.061022	0.968167	0.008895	0.998118	-0.060680	-0.970048	-0.006119	-0.242838
40214	9.496702	-1.234223	-2.453105	-0.036154	0.039776	-0.130085	-0.242374	0.059684	0.968345	0.008916	0.998201	-0.059293	-0.970142	-0.005738	-0.242470
40215	9.541120	-0.422147	-2.157166	0.047175	0.053525	-0.112723	-0.241870	0.058516	0.968543	0.008132	0.998267	-0.058281	-0.970275	-0.006220	-0.241927
40216	9.477708	-0.169032	-2.058100	-0.000529	0.050339	-0.109385	-0.241387	0.057385	0.968731	0.007859	0.998333	-0.057181	-0.970397	-0.006190	-0.241436
40217	9.402625	-0.129934	-2.263858	0.051895	0.061822	-0.111314	-0.240800	0.056273	0.968942	0.007154	0.998394	-0.056205	-0.970549	-0.006602	-0.240815
40218	9.767435	0.371235	-2.077421	0.044108	0.090336	-0.094278	-0.239926	0.055296	0.969215	0.006485	0.998446	-0.055358	-0.970770	-0.006996	-0.239911
40219	9.516595	0.122948	-2.254813	-0.195201	0.100353	-0.040377	-0.238961	0.054871	0.969478	0.008279	0.998481	-0.054472	-0.970994	-0.004990	-0.239052
40220	9.293723	-0.463163	-2.536454	-0.270790	0.073524	-0.025390	-0.238246	0.054578	0.969670	0.010834	0.998507	-0.053539	-0.971144	-0.002250	-0.238482
40221	9.611077	-0.300984	-2.320388	-0.213396	0.067426	-0.025576	-0.237591	0.054327	0.969845	0.012961	0.998523	-0.052758	-0.971279	0.000035	-0.237944
40222	9.790535	-0.311387	-2.082657	-0.272949	0.154608	0.011121	-0.236085	0.054394	0.970209	0.015625	0.998516	-0.052178	-0.971607	0.002841	-0.236584
40223	9.349322	-0.409023	-1.855951	-0.308934	0.187029	0.015337	-0.234257	0.054525	0.970644	0.018742	0.998494	-0.051567	-0.971994	0.006112	-0.234926
40224	9.268741	-0.608177	-1.703946	-0.328813	0.158858	0.011085	-0.232707	0.054582	0.971014	0.021951	0.998464	-0.050864	-0.972299	0.009478	-0.233548
40225	9.322847	-0.829457	-1.507114	-0.296794	0.102758	-0.008924	-0.231713	0.054464	0.971258	0.024858	0.998437	-0.050058	-0.972466	0.012544	-0.232705
40226	9.267711	-1.033327	-1.419024	-0.247956	0.056649	-0.038294	-0.231170	0.054033	0.971412	0.027167	0.998426	-0.049070	-0.972534	0.015047	-0.232274
40227	9.247114	-1.215295	-1.658294	-0.168199	0.002084	-0.075973	-0.231168	0.053255	0.971455	0.028676	0.998440	-0.047910	-0.972491	0.016782	-0.232334
40228	9.395907	-0.861039	-1.765219	-0.001468	-0.030505	-0.107780	-0.231493	0.052142	0.971438	0.028428	0.998499	-0.046820	-0.972421	0.016777	-0.232627
40229	9.523078	-0.250082	-1.752408	0.079522	-0.055250	-0.113614	-0.232060	0.050988	0.971364	0.027408	0.998571	-0.045868	-0.972315	0.015979	-0.233126
40230	9.524570	-0.068677	-1.808538	0.068518	-0.077695	-0.105168	-0.232841	0.049908	0.971233	0.026483	0.998637	-0.044967	-0.972154	0.015251	-0.233845
40231	9.567358	0.069059	-1.975714	0.061403	-0.090226	-0.090248	-0.233745	0.048995	0.971063	0.025688	0.998692	-0.044206	-0.971959	0.014612	-0.234698
40232	9.600575	0.273382	-2.042961	0.023781	-0.100466	-0.075667	-0.234738	0.048212	0.970862	0.025266	0.998734	-0.043487	-0.971730	0.014321	-0.235659
40233	9.531465	0.012897	-2.274537	-0.064918	-0.115204	-0.069436	-0.235875	0.047499	0.970622	0.025721	0.998760	-0.042625	-0.971443	0.014911	-0.236804
40234	9.423855	-0.334278	-2.417326	-0.061062	-0.133838	-0.071539	-0.237191	0.046763	0.970337	0.026131	0.998786	-0.041746	-0.971112	0.015454	-0.238125
40235	9.543801	-0.367893	-2.498256	-0.038439	-0.140724	-0.069033	-0.238572	0.046065	0.970032	0.026354	0.998814	-0.040950	-0.970767	0.015795	-0.239503
40236	9.579564	-0.093101	-2.551503	-0.010013	-0.133768	-0.054599	-0.239882	0.045499	0.969735	0.026307	0.998839	-0.040357	-0.970445	0.015830	-0.240801
40237	9.931463	0.053280	-2.585694	-0.074479	-0.070596	0.001005	-0.240563	0.045490	0.969567	0.027050	0.998827	-0.040151	-0.970257	0.016568	-0.241511
40238	9.556545	0.090582	-2.603852	-0.089685	-0.015648	0.026706	-0.240705	0.045717	0.969521	0.027970	0.998802	-0.040154	-0.970195	0.017453	-0.241695
40239	9.495762	-0.158934	-2.668213	-0.100333	-0.016053	0.030492	-0.240849	0.045993	0.969472	0.029031	0.998771	-0.040171	-0.970128	0.018470	-0.241888
40240	9.548526	-0.326634	-2.526097	-0.067896	-0.016585	0.040602	-0.240995	0.046360	0.969418	0.029774	0.998741	-0.040361	-0.970069	0.019136	-0.242072
40241	9.411695	-0.263402	-2.289594	-0.066243	-0.026089	0.048443	-0.241232	0.046809	0.969338	0.030516	0.998708	-0.040632	-0.969987	0.019779	-0.242349
40242	9.376251	-0.178169	-1.938174	-0.102586	-0.057384	0.044957	-0.241773	0.047227	0.969183	0.031606	0.998668	-0.040780	-0.969818	0.020773	-0.242943
40243	9.389550	-0.386398	-1.638560	-0.152438	-0.091578	0.040255	-0.242645	0.047611	0.968946	0.033175	0.998618	-0.040761	-0.969548	0.022254	-0.243889
40244	9.338289	-0.527571	-1.549210	-0.127388	-0.122697	0.021685	-0.243825	0.047813	0.968640	0.034448	0.998581	-0.040620	-0.969207	0.023464	-0.245126
40245	9.435471	-0.294396	-1.835158	-0.103346	-0.134940	0.014575	-0.245123	0.047952	0.968305	0.035479	0.998551	-0.040469	-0.968843	0.024434	-0.246469
40246	9.395754	-0.300056	-2.169061	-0.075944	-0.157419	0.005548	-0.246644	0.048005	0.967916	0.036214	0.998531	-0.040295	-0.968429	0.025113	-0.248020
40247	9.417758	-0.414905	-2.586176	-0.028990	-0.171817	0.000775	-0.248304	0.048017	0.967491	0.036488	0.998526	-0.040193	-0.967995	0.025321	-0.249690
40248	9.488058	-0.548475	-2.855028	0.076101	-0.179945	-0.004082	-0.250045	0.047979	0.967045	0.035727	0.998549	-0.040304	-0.967575	0.024471	-0.251396
40249	9.480805	-0.538409	-2.985169	0.153837	-0.178836	-0.004544	-0.251773	0.047938	0.966598	0.034221	0.998589	-0.040611	-0.967181	0.022853	-0.253058
40250	9.607297	-0.346994	-2.887479	0.227172	-0.179446	0.003859	-0.253505	0.047974	0.966144	0.032020	0.998638	-0.041186	-0.966804	0.020495	-0.254696
40251	9.498086	-0.065541	-2.592665	0.229646	-0.188599	0.032788	-0.255315	0.048296	0.965651	0.029866	0.998669	-0.042051	-0.966397	0.018104	-0.256417
40252	9.498220	0.211013	-2.312997	0.232252	-0.193221	0.041873	-0.257167	0.048705	0.965139	0.027715	0.998690	-0.043013	-0.965969	0.015687	-0.258180
40253	9.490533	0.257570	-2.116433	0.170628	-0.193800	0.048456	-0.259022	0.049175	0.964619	0.026174	0.998694	-0.043884	-0.965517	0.013881	-0.259971
40254	9.440392	0.069382	-2.006230	0.111911	-0.198378	0.057936	-0.260919	0.049738	0.964078	0.025230	0.998682	-0.044695	-0.965031	0.012661	-0.261830
40255	9.385434	-0.071458	-1.781406	0.046919	-0.214939	0.084334	-0.262968	0.050565	0.963479	0.024981	0.998648	-0.045592	-0.964481	0.012079	-0.263876
40256	9.441790	-0.017033	-1.536360	-0.022764	-0.239942	0.109076	-0.265251	0.051641	0.962795	0.025474	0.998591	-0.046543	-0.963843	0.012180	-0.266193
40257	9.435968	-0.178846	-1.523154	-0.098605	-0.257035	0.119813	-0.267692	0.052831	0.962055	0.026736	0.998518	-0.047394	-0.963134	0.013034	-0.268708
40258	9.369977	-0.216749	-1.585836	-0.081873	-0.278165	0.124909	-0.270333	0.054074	0.961247	0.027845	0.998443	-0.048335	-0.962364	0.013699	-0.271418
40259	9.344062	-0.481675	-1.597305	-0.085574	-0.301439	0.122014	-0.273193	0.055294	0.960369	0.028991	0.998366	-0.049235	-0.961522	0.014391	-0.274350
40260	9.253201	-0.733558	-1.675512	-0.036777	-0.334678	0.118979	-0.276372	0.056489	0.959389	0.029656	0.998297	-0.050237	-0.960593	0.014568	-0.277577
40261	9.280713	-0.547960	-1.766693	0.029367	-0.355470	0.129932	-0.279742	0.057789	0.958334	0.029701	0.998230	-0.051525	-0.959616	0.014050	-0.280964
40262	9.462720	-0.037662	-2.042407	0.033862	-0.372029	0.139614	-0.283267	0.059192	0.957213	0.029754	0.998155	-0.052919	-0.958580	0.013491	-0.284505
40263	9.428492	-0.188085	-2.766700	-0.034299	-0.367076	0.139685	-0.286736	0.060591	0.956092	0.030458	0.998070	-0.054117	-0.957525	0.013603	-0.288028
40264	9.357471	-0.486151	-3.358118	0.027837	-0.375890	0.135026	-0.290290	0.061948	0.954932	0.030565	0.997994	-0.055450	-0.956451	0.013091	-0.291601
40265	9.519252	-0.287080	-3.480035	0.124737	-0.368718	0.156125	-0.293761	0.063508	0.953767	0.029809	0.997914	-0.057266	-0.955414	0.011608	-0.295041
40266	9.477350	0.039310	-3.475675	0.146503	-0.348905	0.180303	-0.297038	0.065303	0.952630	0.028926	0.997816	-0.059381	-0.954428	0.009917	-0.298278
40267	9.550654	0.173285	-3.324752	0.099948	-0.339214	0.212201	-0.300208	0.067404	0.951489	0.028576	0.997688	-0.061661	-0.953446	0.008679	-0.301440
40268	9.588226	-0.320582	-3.100107	0.014061	-0.346701	0.205715	-0.303450	0.069444	0.950313	0.029046	0.997551	-0.063621	-0.952404	0.008297	-0.304725
40269	9.520356	-0.853603	-3.013713	0.079640	-0.348939	0.216043	-0.306704	0.071583	0.949109	0.028929	0.997408	-0.065878	-0.951365	0.007252	-0.307980
40270	9.680924	-0.654424	-2.727195	0.158662	-0.355299	0.224494	-0.310016	0.073803	0.947862	0.028096	0.997258	-0.068460	-0.950316	0.005408	-0.311240
40271	9.579743	-0.586796	-2.440136	0.090726	-0.363236	0.236129	-0.313395	0.076132	0.946566	0.027950	0.997089	-0.070941	-0.949212	0.004224	-0.314610
40272	9.517903	-0.833867	-2.189811	0.075584	-0.403347	0.238817	-0.317152	0.078486	0.945122	0.027969	0.996910	-0.073401	-0.947962	0.003155	-0.318367
40273	9.431054	-1.074360	-1.844550	0.084477	-0.429208	0.224857	-0.321148	0.080693	0.943585	0.027864	0.996737	-0.075755	-0.946619	0.001963	-0.322349
40274	9.308368	-1.188149	-1.401313	0.126739	-0.470735	0.200600	-0.325543	0.082656	0.941907	0.027296	0.996578	-0.078020	-0.945133	0.000312	-0.326685
40275	9.207981	-1.073709	-1.067078	0.125327	-0.527073	0.171526	-0.330469	0.084312	0.940043	0.026636	0.996438	-0.080006	-0.943441	-0.001401	-0.331538
40276	9.182275	-0.989509	-0.707616	0.058199	-0.615670	0.164055	-0.336225	0.085893	0.937857	0.026616	0.996301	-0.081703	-0.941405	-0.002508	-0.337268
40277	9.280375	-1.158659	-0.484574	0.008094	-0.718067	0.133729	-0.342931	0.087161	0.935308	0.026973	0.996189	-0.082945	-0.938973	-0.003216	-0.343976
40278	9.470315	-0.962454	0.036041	0.025781	-0.828758	0.119233	-0.350667	0.088277	0.932330	0.027127	0.996087	-0.084110	-0.936107	-0.004203	-0.351689
40279	9.899129	-0.793021	0.521121	-0.033685	-0.952784	0.116383	-0.359528	0.089339	0.928848	0.027810	0.995990	-0.085033	-0.932720	-0.004741	-0.360571
40280	10.334858	-1.054559	1.395850	-0.146951	-1.106795	0.091551	-0.369800	0.090159	0.924726	0.029492	0.995918	-0.085306	-0.928643	-0.004274	-0.370950
40281	11.917664	-1.472093	2.264199	-0.251636	-1.309145	0.069380	-0.381892	0.090758	0.919740	0.032054	0.995869	-0.084961	-0.923651	-0.002965	-0.383223
40282	12.201167	-2.347006	2.182618	-0.415125	-1.423261	0.059836	-0.394975	0.091290	0.914145	0.036089	0.995824	-0.083854	-0.917983	-0.000130	-0.396620
40283	11.596475	-3.235766	1.517892	-0.415192	-1.585886	0.041395	-0.409444	0.091677	0.907717	0.040027	0.995786	-0.082517	-0.911457	0.002547	-0.411388
40284	11.425439	-3.317324	0.960252	-0.307456	-1.804079	0.004569	-0.425815	0.091739	0.900147	0.042816	0.995775	-0.081232	-0.903797	0.003951	-0.427944
40285	12.275160	-2.772735	-0.342194	-0.259580	-1.915458	-0.004336	-0.443025	0.091744	0.891803	0.045111	0.995771	-0.080029	-0.895374	0.004775	-0.445290
40286	12.674368	-2.583367	-2.012591	-0.282678	-1.799389	0.024944	-0.459049	0.092047	0.883630	0.047721	0.995737	-0.078934	-0.887128	0.005933	-0.461485
40287	12.012282	-1.829824	-3.249977	-0.237751	-1.607367	0.015984	-0.473220	0.092260	0.876100	0.049851	0.995712	-0.077930	-0.879533	0.006796	-0.475790
40288	11.778762	-1.011254	-4.361529	-0.415529	-1.260015	0.030100	-0.484246	0.092623	0.870015	0.053613	0.995653	-0.076158	-0.873288	0.009765	-0.487107
40289	9.619784	-0.059778	-5.901099	-0.259696	-1.047578	-0.053029	-0.493375	0.092154	0.864921	0.055565	0.995680	-0.074390	-0.868040	0.011357	-0.496364
40290	8.479512	0.831823	-6.371372	-0.058474	-1.290382	-0.174723	-0.504631	0.090515	0.858577	0.055174	0.995837	-0.072557	-0.861571	0.010757	-0.507524
40291	9.556672	1.044093	-6.137475	-0.096229	-1.400326	-0.203892	-0.516738	0.088580	0.851549	0.054907	0.996014	-0.070289	-0.854381	0.010435	-0.519542
40292	8.983813	0.869461	-6.246553	0.014634	-1.342132	-0.193238	-0.528262	0.086745	0.844639	0.053748	0.996189	-0.068694	-0.847378	0.009109	-0.530911
40293	8.434373	0.893184	-5.960761	0.055380	-1.368972	-0.182654	-0.539891	0.084982	0.837434	0.052251	0.996355	-0.067424	-0.840112	0.007355	-0.542364
40294	8.357762	0.581233	-6.034883	0.007094	-1.312975	-0.134057	-0.550943	0.083694	0.830335	0.051434	0.996472	-0.066312	-0.832956	0.006174	-0.553305
40295	7.512879	-0.216851	-6.726511	-0.065831	-1.245439	-0.139567	-0.561328	0.082320	0.823489	0.051148	0.996589	-0.064759	-0.826011	0.005769	-0.563624
40296	7.252784	-1.376047	-7.550314	-0.115437	-1.138663	-0.155187	-0.570775	0.080798	0.817122	0.051192	0.996713	-0.062797	-0.819509	0.005987	-0.573035
40297	7.281586	-1.990864	-8.044993	0.000554	-0.925636	-0.164446	-0.578403	0.079154	0.811902	0.050188	0.996849	-0.061430	-0.814206	0.005216	-0.580553
40298	7.435099	-1.808111	-7.934044	0.162448	-0.594385	-0.140139	-0.583300	0.077740	0.808528	0.048027	0.996969	-0.061210	-0.810836	0.003127	-0.585265
40299	7.313200	-1.009480	-7.734249	0.245900	-0.145968	-0.055725	-0.584493	0.077133	0.807724	0.045657	0.997021	-0.062171	-0.810113	0.000540	-0.586274
40300	6.851978	0.061285	-7.520898	0.133656	0.301720	0.032046	-0.582031	0.077411	0.809474	0.044732	0.996999	-0.063180	-0.811936	-0.000563	-0.583747
40301	6.776652	0.485640	-7.455086	-0.157816	0.669133	0.119050	-0.576516	0.078541	0.813302	0.046657	0.996910	-0.063199	-0.815753	0.001510	-0.578399
40302	7.468617	0.200570	-6.925999	-0.480925	1.036145	0.227071	-0.567921	0.080718	0.819116	0.051866	0.996711	-0.062259	-0.821447	0.007126	-0.570240
40303	7.752156	-0.353956	-6.501734	-0.613246	1.466811	0.361028	-0.555600	0.084105	0.827185	0.058907	0.996352	-0.061739	-0.829360	0.014425	-0.558528
40304	7.502728	-0.434778	-6.543155	-0.614474	1.884351	0.467803	-0.539584	0.088378	0.837281	0.066570	0.995840	-0.062214	-0.839296	0.022168	-0.543222
40305	7.155143	-0.462526	-6.772682	-0.572602	2.220260	0.543879	-0.520426	0.093163	0.848809	0.074245	0.995203	-0.063710	-0.850673	0.029864	-0.524847
40306	7.173968	-0.843020	-6.714818	-0.452974	2.505255	0.618106	-0.498478	0.098437	0.861296	0.081251	0.994464	-0.066632	-0.863087	0.036767	-0.503716
40307	7.134159	-1.115849	-6.408729	-0.229973	2.799443	0.685892	-0.473540	0.104105	0.874598	0.086543	0.993685	-0.071422	-0.876510	0.041869	-0.479559
40308	7.090816	-1.190156	-6.154753	-0.012500	3.063427	0.743930	-0.445814	0.110118	0.888326	0.090051	0.992887	-0.077887	-0.890584	0.045271	-0.452559
40309	7.130388	-1.113655	-5.767017	0.198437	3.244914	0.772905	-0.415971	0.116246	0.901918	0.091562	0.992110	-0.085641	-0.904757	0.046957	-0.423332
40310	7.428001	-1.139677	-5.367719	0.359275	3.365690	0.753765	-0.384595	0.122092	0.914975	0.091284	0.991386	-0.093919	-0.918561	0.047401	-0.392427
40311	7.835337	-1.244760	-4.834614	0.534187	3.462776	0.716631	-0.351899	0.127526	0.927310	0.088947	0.990749	-0.102496	-0.931802	0.046413	-0.359987
40312	8.300854	-1.175364	-4.350319	0.667454	3.578263	0.702707	-0.317717	0.132819	0.938837	0.085020	0.990143	-0.111305	-0.944366	0.044457	-0.325878
40313	8.585936	-1.254861	-3.882052	0.725935	3.691579	0.688170	-0.282058	0.137987	0.949422	0.080157	0.989532	-0.120004	-0.956043	0.042255	-0.290166
40314	9.373207	-1.084296	-3.318773	0.833994	3.815125	0.676152	-0.244853	0.143078	0.958945	0.073905	0.988928	-0.128681	-0.966739	0.039363	-0.252717
40315	9.880715	-0.600972	-2.910633	0.948729	3.856860	0.650298	-0.206917	0.148020	0.967096	0.066132	0.988344	-0.137123	-0.976121	0.035583	-0.214294
40316	10.537600	-0.533932	-1.929710	0.922419	3.731233	0.568022	-0.169995	0.152330	0.973600	0.058150	0.987809	-0.144400	-0.983728	0.032068	-0.176780
40317	11.128032	-0.966977	-1.121111	0.862039	3.655371	0.525663	-0.133626	0.156360	0.978619	0.050418	0.987269	-0.150857	-0.989748	0.029182	-0.139808
40318	10.891930	-1.514297	-0.752198	0.902927	3.517238	0.440571	-0.098526	0.159700	0.982237	0.041963	0.986828	-0.156237	-0.994249	0.025824	-0.103930
40319	11.017670	-1.667637	-0.759502	1.119943	3.289312	0.286104	-0.065652	0.161727	0.984649	0.031023	0.986632	-0.159984	-0.997360	0.020044	-0.069792
40320	10.619236	-1.386927	-0.691201	1.344683	3.037889	0.033746	-0.035311	0.161537	0.986235	0.017609	0.986798	-0.160999	-0.999221	0.011682	-0.037689
40321	9.748662	-1.293155	0.423335	1.462651	2.787501	-0.152698	-0.007449	0.159802	0.987121	0.002936	0.987148	-0.159784	-0.999968	0.001708	-0.007822
40322	7.881618	-1.159815	3.169786	1.691303	2.416547	-0.260016	0.016734	0.157307	0.987408	-0.013968	0.987487	-0.157083	-0.999762	-0.011164	0.018722
40323	8.855179	-0.097044	1.385261	1.961603	2.113687	-0.238182	0.037927	0.155321	0.987136	-0.033524	0.987488	-0.154088	-0.998718	-0.027249	0.042660
40324	9.136525	-0.182181	1.126327	1.979413	1.868170	-0.340473	0.056723	0.152582	0.986662	-0.053118	0.987314	-0.149629	-0.996976	-0.043922	0.064108
40325	6.328992	-0.096422	0.635233	1.931752	1.526628	-0.505542	0.072260	0.148349	0.986292	-0.072050	0.987069	-0.143188	-0.994780	-0.060716	0.082014
40326	4.960642	-0.476457	0.300465	1.853203	0.993142	-0.593847	0.082617	0.143134	0.986249	-0.090006	0.986659	-0.135654	-0.992509	-0.077561	0.094398
40327	5.458964	0.947841	0.711133	1.711200	0.642679	-0.527356	0.089525	0.138442	0.986316	-0.106536	0.985942	-0.128720	-0.990270	-0.093555	0.103016
40328	5.113017	1.989084	0.533595	0.842037	0.228264	-0.405016	0.092241	0.134631	0.986593	-0.114502	0.985679	-0.123801	-0.989131	-0.101548	0.106335
40329	4.567527	1.407465	0.015570	-0.223045	-0.218870	-0.303931	0.090438	0.131373	0.987199	-0.112039	0.986311	-0.120990	-0.989580	-0.099663	0.103919
40330	4.598468	0.935089	-0.588555	-1.096348	-0.637035	-0.186859	0.084336	0.128885	0.988067	-0.101018	0.987597	-0.120201	-0.991304	-0.089675	0.096310
40331	5.806779	0.728495	-1.344654	-2.041687	-0.995107	-0.063335	0.074533	0.127417	0.989045	-0.080724	0.989320	-0.121369	-0.993946	-0.070794	0.084022
40332	8.722782	-0.558236	-1.232167	-2.902039	-1.012150	0.069131	0.064419	0.127482	0.989747	-0.051888	0.990893	-0.124253	-0.996573	-0.043352	0.070447
40333	9.872883	-1.460259	-0.812941	-3.185042	-0.794575	0.158579	0.056450	0.128787	0.990064	-0.020238	0.991589	-0.127831	-0.998200	-0.012821	0.058582
40334	9.497624	-1.904441	-0.375433	-3.170323	-0.630952	0.063244	0.050151	0.129388	0.990325	0.011383	0.991434	-0.130109	-0.998677	0.017798	0.048249
40335	11.241060	-3.671498	1.216868	-2.813121	-0.381173	-0.037945	0.046346	0.129087	0.990550	0.039466	0.990604	-0.130941	-0.998145	0.045162	0.040816
40336	11.928354	-4.359282	2.987536	-2.192472	-0.166006	-0.111295	0.044636	0.128036	0.990765	0.061388	0.989527	-0.130642	-0.997115	0.066653	0.036308
40337	11.649743	-7.122682	2.597924	-2.435046	-0.388003	-0.186707	0.040642	0.126451	0.991140	0.085708	0.987862	-0.129547	-0.995491	0.090214	0.029311
40338	10.367402	-10.975705	0.215274	-2.475382	-0.896983	-0.338942	0.031389	0.123978	0.991788	0.110445	0.985771	-0.126721	-0.993386	0.113516	0.017250
40339	10.666136	-8.991845	0.310254	-1.553534	-1.162903	-0.428799	0.019349	0.121116	0.992450	0.125960	0.984431	-0.122593	-0.991847	0.127382	0.003792
40340	10.989875	-0.326960	1.876480	-0.851296	-1.208429	-0.292522	0.006986	0.119777	0.992776	0.134435	0.983675	-0.119625	-0.990898	0.134300	-0.009230
40341	13.842880	5.144158	1.067590	-1.776874	-1.435478	-0.141004	-0.007411	0.120396	0.992698	0.152007	0.981324	-0.117881	-0.988352	0.150024	-0.025574
40342	12.033898	-1.396679	-2.628262	-2.590565	-1.351219	-0.173296	-0.021026	0.120845	0.992449	0.177526	0.977345	-0.115244	-0.983891	0.173762	-0.042002
40343	8.085925	-4.346778	-5.146435	-0.959381	-1.093400	-0.434987	-0.032557	0.118500	0.992420	0.186822	0.976167	-0.110431	-0.981854	0.181811	-0.053920
40344	8.514741	-0.736723	-4.846142	0.369537	-0.969359	-0.515755	-0.043034	0.115160	0.992414	0.182993	0.977439	-0.105487	-0.982172	0.177065	-0.063137
40345	9.540513	1.007888	-4.248507	0.480607	-0.871400	-0.472173	-0.052442	0.112023	0.992321	0.178035	0.978818	-0.101090	-0.982626	0.171367	-0.071275
40346	9.756295	0.790925	-3.551819	0.233577	-0.774456	-0.399823	-0.060762	0.109381	0.992141	0.175507	0.979662	-0.097257	-0.982601	0.168218	-0.078723
40347	9.292070	0.363137	-3.294708	-0.190949	-0.703219	-0.344195	-0.068272	0.107157	0.991895	0.177151	0.979718	-0.093649	-0.981813	0.169321	-0.085871
40348	9.492947	-0.988859	-3.371610	-0.571030	-0.691037	-0.307363	-0.075608	0.105292	0.991563	0.182525	0.979069	-0.090048	-0.980290	0.174176	-0.093244
40349	9.813453	-1.990721	-3.334854	-0.582212	-0.644396	-0.313713	-0.082500	0.103322	0.991221	0.187971	0.978372	-0.086338	-0.978704	0.179198	-0.100137
40350	9.895093	-1.561324	-3.016348	-0.390301	-0.585754	-0.325015	-0.088850	0.101161	0.990895	0.191503	0.978004	-0.082673	-0.977462	0.182414	-0.106268
40351	9.844811	-0.809170	-2.474253	-0.320414	-0.553064	-0.325206	-0.094880	0.098960	0.990558	0.194329	0.977745	-0.079066	-0.976337	0.184992	-0.111999
40352	9.674156	-0.332915	-2.134498	-0.282446	-0.525845	-0.308482	-0.100619	0.096881	0.990197	0.196775	0.977526	-0.075646	-0.975272	0.187235	-0.117421
40353	9.554479	-0.117421	-1.627960	-0.325323	-0.500251	-0.296389	-0.106083	0.094891	0.989819	0.199635	0.977200	-0.072285	-0.974111	0.189934	-0.122608
40354	9.651644	-0.345527	-1.455514	-0.386139	-0.462219	-0.292974	-0.111177	0.092872	0.989452	0.203067	0.976740	-0.068862	-0.972833	0.193269	-0.127451
40355	9.598274	-0.820516	-1.575747	-0.353619	-0.464479	-0.314230	-0.116337	0.090672	0.989062	0.206142	0.976344	-0.065258	-0.971582	0.196296	-0.132276
40356	9.541920	-1.111217	-1.646680	-0.241525	-0.471658	-0.328517	-0.121603	0.088353	0.988639	0.208088	0.976166	-0.061644	-0.970522	0.198228	-0.137090
40357	9.568879	-1.096351	-1.674979	-0.138558	-0.485580	-0.354053	-0.127053	0.085825	0.988176	0.208987	0.976202	-0.057915	-0.969630	0.199157	-0.141966
40358	9.667225	-0.886477	-1.671641	-0.022258	-0.495166	-0.364275	-0.132619	0.083213	0.987668	0.208720	0.976470	-0.054244	-0.968942	0.198953	-0.146866
40359	9.802027	-0.383388	-1.476977	0.049510	-0.517918	-0.352895	-0.138372	0.080758	0.987082	0.207758	0.976860	-0.050798	-0.968344	0.198045	-0.151949
40360	9.861489	-0.028418	-1.633818	0.068875	-0.507987	-0.326459	-0.143971	0.078530	0.986461	0.206620	0.977261	-0.047642	-0.967771	0.196964	-0.156923
40361	9.622438	-0.113685	-1.798428	0.060616	-0.501488	-0.317855	-0.149480	0.076372	0.985811	0.205562	0.977629	-0.044569	-0.967161	0.195983	-0.161835
40362	9.398506	-0.443851	-1.963557	0.129452	-0.502620	-0.321421	-0.155003	0.074168	0.985126	0.203811	0.978127	-0.041573	-0.966662	0.194335	-0.166729
40363	9.606507	-0.159910	-1.946252	0.268389	-0.513745	-0.324455	-0.160626	0.071948	0.984389	0.200699	0.978884	-0.038797	-0.966395	0.191334	-0.171675
40364	9.777186	0.268349	-1.968860	0.260751	-0.486915	-0.293901	-0.165921	0.069953	0.983655	0.197689	0.979592	-0.036318	-0.966121	0.188432	-0.176364
40365	9.622074	0.215875	-2.199637	0.178829	-0.476500	-0.271564	-0.171060	0.068148	0.982901	0.195498	0.980117	-0.033932	-0.965670	0.186350	-0.180981
40366	9.525082	-0.203849	-2.343332	0.154721	-0.496559	-0.259192	-0.176362	0.066486	0.982077	0.193542	0.980582	-0.031628	-0.965110	0.184496	-0.185805
40367	9.675298	-0.179190	-2.250424	0.201556	-0.510807	-0.248436	-0.181771	0.064949	0.981194	0.191146	0.981117	-0.029533	-0.964584	0.182183	-0.190753
40368	9.643217	-0.059556	-2.018317	0.185374	-0.502869	-0.235770	-0.187072	0.063504	0.980291	0.188912	0.981608	-0.027539	-0.964010	0.180037	-0.195628
40369	9.581976	0.168657	-1.844662	0.174902	-0.513031	-0.230946	-0.192452	0.062118	0.979338	0.186781	0.982068	-0.025587	-0.963366	0.177998	-0.200604
40370	9.595756	0.093464	-1.804921	0.152687	-0.503308	-0.228011	-0.197727	0.060728	0.978374	0.184854	0.982482	-0.023625	-0.962670	0.176185	-0.205489
40371	9.502022	0.023587	-1.755707	0.168807	-0.492167	-0.227660	-0.202884	0.059316	0.977405	0.182766	0.982917	-0.021713	-0.961995	0.174231	-0.210259
40372	9.483226	0.018550	-1.911425	0.169542	-0.490690	-0.218550	-0.208004	0.057976	0.976408	0.180674	0.983342	-0.019899	-0.961297	0.172272	-0.215014
40373	9.621486	0.122659	-1.941710	0.201080	-0.488521	-0.202404	-0.213064	0.056784	0.975387	0.178306	0.983804	-0.018324	-0.960630	0.170014	-0.219738
40374	9.560779	0.088890	-1.803517	0.172336	-0.490087	-0.179312	-0.218091	0.055806	0.974332	0.176252	0.984200	-0.016919	-0.959881	0.168038	-0.224481
40375	9.491254	-0.146396	-1.691046	0.152718	-0.495619	-0.171527	-0.223149	0.054908	0.973237	0.174398	0.984552	-0.015559	-0.959057	0.166259	-0.229278
40376	9.311051	-0.459734	-1.685375	0.133107	-0.504787	-0.174765	-0.228295	0.053980	0.972094	0.172715	0.984871	-0.014128	-0.958150	0.164670	-0.234164
40377	9.334304	-0.396384	-1.456516	0.226003	-0.535562	-0.186976	-0.233746	0.052975	0.970854	0.170107	0.985342	-0.012810	-0.957302	0.162155	-0.239331
40378	9.561673	0.102521	-1.231666	0.259096	-0.546849	-0.179718	-0.239285	0.052041	0.969554	0.167189	0.985856	-0.011654	-0.956447	0.159310	-0.244601
40379	9.354407	0.326049	-1.175721	0.183017	-0.561861	-0.166225	-0.244932	0.051253	0.968185	0.165025	0.986234	-0.010460	-0.955393	0.157213	-0.250019
40380	9.564176	0.120432	-1.642671	0.099542	-0.574888	-0.150672	-0.250672	0.050625	0.966747	0.163687	0.986469	-0.009215	-0.954133	0.155934	-0.255567
40381	9.401018	0.045692	-2.097102	0.067178	-0.560599	-0.154448	-0.256269	0.049934	0.965315	0.162641	0.986654	-0.007860	-0.952824	0.154986	-0.260970
40382	9.353122	-0.200724	-2.521787	0.034416	-0.590544	-0.159012	-0.262152	0.049237	0.963770	0.161887	0.986789	-0.006378	-0.951351	0.154349	-0.266660
40383	9.596502	-0.029529	-2.889731	0.060557	-0.591228	-0.143473	-0.268004	0.048691	0.962187	0.160916	0.986955	-0.005124	-0.949884	0.153458	-0.272343
40384	9.365446	-0.023616	-3.275844	0.034424	-0.557443	-0.126531	-0.273501	0.048254	0.960661	0.160231	0.987072	-0.003963	-0.948432	0.152844	-0.277697
40385	9.212597	0.126189	-3.362700	0.077871	-0.574614	-0.123597	-0.279144	0.047870	0.959055	0.159137	0.987252	-0.002959	-0.946971	0.151795	-0.283203
40386	9.495743	0.317667	-3.347973	0.100323	-0.569630	-0.110103	-0.284711	0.047603	0.957431	0.157862	0.987459	-0.002152	-0.945526	0.150529	-0.288655
40387	9.333196	0.176253	-3.241779	0.094434	-0.550071	-0.100146	-0.290066	0.047399	0.955832	0.156667	0.987650	-0.001433	-0.944096	0.149331	-0.293910
40388	9.257667	0.202525	-2.850230	0.168145	-0.570682	-0.101022	-0.295610	0.047206	0.954142	0.154769	0.987950	-0.000929	-0.942688	0.147397	-0.299354
40389	9.503291	0.484544	-2.139998	0.170886	-0.591377	-0.077077	-0.301299	0.047271	0.952357	0.152913	0.988239	-0.000675	-0.941189	0.145425	-0.304984
40390	9.479819	0.437089	-1.575838	0.084081	-0.616475	-0.069148	-0.307204	0.047439	0.950461	0.151896	0.988396	-0.000237	-0.939443	0.144298	-0.310845
40391	9.295244	0.033589	-1.334510	0.024094	-0.653774	-0.077049	-0.313455	0.047579	0.948410	0.151413	0.988470	0.000455	-0.937454	0.143744	-0.317045
40392	9.130458	0.032294	-1.224395	0.016273	-0.703105	-0.095224	-0.320186	0.047604	0.946158	0.150942	0.988542	0.001343	-0.935253	0.143245	-0.323702
40393	9.082075	-0.052241	-1.310378	-0.054099	-0.763595	-0.106749	-0.327477	0.047602	0.943659	0.151082	0.988518	0.002564	-0.932702	0.143409	-0.330909
40394	9.179557	-0.060154	-1.608514	-0.043723	-0.822191	-0.119352	-0.335317	0.047560	0.940904	0.151076	0.988515	0.003873	-0.929913	0.143446	-0.338651
40395	9.312697	0.000563	-2.342390	-0.020443	-0.847567	-0.122888	-0.343369	0.047518	0.937998	0.150826	0.988547	0.005133	-0.927011	0.143237	-0.346604
40396	9.173010	0.096642	-2.899414	0.021156	-0.868334	-0.118792	-0.351587	0.047543	0.934947	0.150199	0.988636	0.006209	-0.924027	0.142612	-0.354733
40397	9.157415	-0.132571	-3.250995	0.097006	-0.905055	-0.116642	-0.360108	0.047632	0.931694	0.148866	0.988833	0.006985	-0.920957	0.141213	-0.363177
40398	9.351406	0.242579	-3.178585	0.211008	-0.917704	-0.078064	-0.368663	0.048102	0.928318	0.146622	0.989168	0.006973	-0.917927	0.138683	-0.371723
40399	9.199699	0.050998	-3.071199	0.143461	-0.931385	-0.054740	-0.377274	0.048801	0.924815	0.145079	0.989395	0.006975	-0.914667	0.136803	-0.380353
40400	9.058728	-0.151384	-2.593525	0.195556	-0.982027	-0.053587	-0.386319	0.049561	0.921033	0.143070	0.989690	0.006754	-0.911202	0.134381	-0.389426
40401	9.321799	0.030447	-1.655777	0.159363	-1.050793	-0.058988	-0.395953	0.050335	0.916890	0.141364	0.989935	0.006702	-0.907324	0.132269	-0.399083
40402	9.641364	-0.327015	-0.851758	0.076112	-1.139171	-0.098483	-0.406405	0.050817	0.912279	0.140259	0.990088	0.007332	-0.902863	0.130935	-0.409504
40403	9.746809	-0.761195	-0.228973	-0.003119	-1.242442	-0.159902	-0.417809	0.050812	0.907113	0.139599	0.990169	0.008833	-0.897746	0.130323	-0.420795
40404	9.612002	-1.201449	0.430608	-0.010156	-1.380423	-0.209298	-0.430455	0.050493	0.901199	0.138781	0.990264	0.010805	-0.891879	0.129721	-0.433271
40405	9.609714	-1.548454	1.057108	-0.073901	-1.575747	-0.266571	-0.444815	0.049851	0.894234	0.138238	0.990306	0.013556	-0.884890	0.129647	-0.447394
40406	9.849594	-1.578481	1.614836	-0.044849	-1.763491	-0.320212	-0.460792	0.048920	0.886159	0.137161	0.990409	0.016646	-0.876845	0.129217	-0.463083
40407	10.276914	-1.109096	1.452338	-0.025765	-1.961949	-0.374459	-0.478404	0.047692	0.876844	0.135589	0.990561	0.020099	-0.867609	0.128506	-0.480355
40408	10.692246	-0.730969	2.730698	-0.148250	-2.220153	-0.424749	-0.498121	0.046301	0.865870	0.134769	0.990573	0.024562	-0.856570	0.128927	-0.499665
40409	11.870420	-2.247281	0.746152	-0.472971	-2.369889	-0.523210	-0.518965	0.044166	0.853654	0.136085	0.990196	0.031500	-0.843894	0.132517	-0.519887
40410	12.325965	-2.642774	-1.083174	-0.462382	-2.502797	-0.607794	-0.540745	0.041467	0.840164	0.136709	0.989838	0.039134	-0.830004	0.136020	-0.540918
40411	12.889220	-2.519611	-2.487916	-0.229314	-2.611338	-0.625335	-0.563059	0.038793	0.825506	0.135096	0.989781	0.045633	-0.815300	0.137216	-0.562546
40412	13.149210	-1.403353	-2.660761	-0.007146	-2.745935	-0.616208	-0.586055	0.036406	0.809453	0.131585	0.990005	0.050743	-0.799515	0.136251	-0.584988
40413	14.354193	-1.248378	-2.142588	-0.116494	-2.856494	-0.578345	-0.609382	0.034520	0.792125	0.128998	0.990057	0.056092	-0.782313	0.136364	-0.607776
40414	15.028451	-1.248834	-2.282181	0.021497	-2.814493	-0.559990	-0.631870	0.032755	0.774382	0.125327	0.990277	0.060376	-0.764875	0.135200	-0.629831
40415	16.028725	0.091444	-1.609430	0.363366	-2.750856	-0.687250	-0.653487	0.029547	0.756361	0.118103	0.990980	0.063328	-0.747667	0.130713	-0.651082
40416	16.175443	2.014660	-1.379718	0.516121	-2.383456	-0.692318	-0.671918	0.025687	0.740180	0.109664	0.991833	0.065130	-0.732462	0.124933	-0.669247
40417	14.544342	3.331301	-3.040204	0.495591	-2.017157	-0.642632	-0.687210	0.021710	0.726134	0.101631	0.992597	0.066506	-0.719315	0.119502	-0.684329
40418	12.473520	4.240574	-5.503351	0.531290	-1.901151	-0.587650	-0.701341	0.018051	0.712598	0.093731	0.993335	0.067088	-0.706637	0.113844	-0.698358
40419	10.613718	4.427780	-7.424367	0.527492	-2.125345	-0.499748	-0.716623	0.015369	0.697291	0.086421	0.994009	0.066908	-0.692086	0.108208	-0.713659
40420	9.364486	3.986784	-8.937521	0.280573	-2.303994	-0.395083	-0.732713	0.013856	0.680397	0.081606	0.994368	0.067630	-0.675628	0.105077	-0.729716
40421	8.060009	2.212906	-9.102754	-0.094232	-2.367068	-0.305353	-0.748714	0.013231	0.662762	0.079888	0.994315	0.070398	-0.658062	0.105655	-0.745514
40422	7.308303	-0.052868	-9.401702	-0.239407	-2.123693	-0.206404	-0.762682	0.013403	0.646634	0.079850	0.994088	0.073575	-0.641825	0.107748	-0.759244
40423	6.125352	-1.705540	-10.010105	-0.033304	-1.731732	-0.136211	-0.773761	0.013831	0.633326	0.078930	0.994076	0.074723	-0.628541	0.107806	-0.770269
40424	4.947882	-1.926779	-10.156112	0.285978	-1.320660	-0.115170	-0.782086	0.014047	0.623012	0.076216	0.994397	0.073254	-0.618492	0.104774	-0.778774
40425	4.372663	-2.020705	-9.903910	0.384243	-0.889044	-0.135536	-0.787628	0.013534	0.616002	0.072708	0.994815	0.071109	-0.611846	0.100795	-0.784529
40426	4.881494	-1.852727	-10.369432	0.495109	-0.495122	-0.238580	-0.790817	0.011604	0.611943	0.067769	0.995333	0.068703	-0.608289	0.095802	-0.787913
40427	4.303745	-0.688502	-9.951120	0.710606	-0.001603	-0.306454	-0.790997	0.008481	0.611761	0.060946	0.996023	0.064994	-0.608776	0.088694	-0.788368
40428	5.850816	-0.865472	-6.532424	0.329084	0.394128	-0.280574	-0.788757	0.005301	0.614683	0.056685	0.996329	0.064146	-0.612087	0.085439	-0.786162
40429	8.166294	-0.568053	-6.336848	0.035402	1.102520	-0.125856	-0.782003	0.003036	0.623267	0.055406	0.996368	0.064664	-0.620806	0.085100	-0.779331
40430	7.266380	-0.975054	-7.852539	-0.182894	1.686230	-0.005886	-0.771428	0.001485	0.636314	0.056473	0.996211	0.066140	-0.633805	0.086957	-0.768589
40431	5.490936	-1.105670	-8.828032	-0.143449	2.130056	0.079945	-0.757680	0.000345	0.652627	0.057934	0.996088	0.066733	-0.650050	0.088372	-0.754735
40432	5.173770	-0.830855	-9.011079	-0.092860	2.523279	0.176005	-0.740934	-0.000185	0.671577	0.059832	0.996005	0.066285	-0.668907	0.089295	-0.737964
40433	5.101103	-0.566430	-8.920576	-0.072955	3.006868	0.319307	-0.720264	0.000237	0.693700	0.062595	0.995943	0.064652	-0.690870	0.089989	-0.717357
40434	5.302320	-0.518602	-8.925767	-0.103154	3.438366	0.508095	-0.695760	0.002143	0.718271	0.066886	0.995844	0.061819	-0.715153	0.091053	-0.693012
40435	5.019144	-0.681614	-9.156190	-0.044795	3.867008	0.676456	-0.667093	0.005290	0.744956	0.071762	0.995781	0.057190	-0.741510	0.091611	-0.664658
40436	4.419602	-0.939845	-9.362391	0.064899	4.233546	0.810278	-0.634510	0.009446	0.772857	0.076515	0.995781	0.050648	-0.769118	0.091272	-0.632556
40437	3.852801	-1.384050	-9.558355	0.280970	4.578124	0.918768	-0.597892	0.014420	0.801447	0.079923	0.995928	0.041705	-0.797582	0.088990	-0.596610
40438	3.322438	-1.496262	-9.203235	0.646548	4.903869	0.968957	-0.557288	0.019804	0.830083	0.080242	0.996321	0.030101	-0.826433	0.083383	-0.556827
40439	3.460859	-0.576301	-9.053975	0.967769	5.227940	1.015417	-0.512490	0.025745	0.858307	0.077492	0.996859	0.016369	-0.855189	0.074901	-0.512875
40440	4.163768	0.266806	-9.756955	0.990699	5.466063	1.069537	-0.464171	0.032502	0.885149	0.074082	0.997250	0.002231	-0.882642	0.066609	-0.465302
40441	4.825900	0.261120	-9.350745	1.058181	5.614115	1.152908	-0.413035	0.040466	0.909816	0.069628	0.997491	-0.012756	-0.908049	0.058081	-0.414817
40442	6.197700	0.668471	-8.899721	1.251956	5.792384	1.233250	-0.358931	0.049651	0.932042	0.062853	0.997603	-0.028939	-0.931245	0.048195	-0.361192
40443	7.034431	0.776822	-8.314946	1.223152	6.007560	1.291951	-0.301560	0.059881	0.951565	0.055575	0.997433	-0.045156	-0.951826	0.039266	-0.304114
40444	6.613523	0.340981	-7.723771	1.151622	6.126490	1.288251	-0.242029	0.070514	0.967703	0.047997	0.997005	-0.060645	-0.969081	0.031769	-0.244688
40445	6.851910	0.620775	-7.331796	1.246984	5.958306	1.300824	-0.183290	0.081794	0.979650	0.038576	0.996363	-0.075972	-0.982302	0.023866	-0.185779
40446	8.375484	1.545099	-5.006353	1.268030	5.732624	1.306404	-0.126257	0.093616	0.987570	0.028069	0.995476	-0.090777	-0.991600	0.016259	-0.128313
40447	9.222469	0.927341	-4.230212	1.028771	5.581724	1.278207	-0.070412	0.105528	0.991920	0.019081	0.994349	-0.104432	-0.997336	0.011574	-0.072027
40448	8.786007	-0.936085	-1.730741	0.818757	5.258523	1.145952	-0.017711	0.116329	0.993053	0.011402	0.993167	-0.116139	-0.999778	0.009266	-0.018917
40449	10.757744	-3.254738	3.084735	0.718333	4.754076	0.949921	0.029915	0.125320	0.991665	0.004155	0.992085	-0.125499	-0.999544	0.007875	0.029158
40450	10.653756	-3.797086	0.543332	1.242175	4.193363	0.698184	0.071780	0.132019	0.988645	-0.008607	0.991247	-0.131741	-0.997383	0.000948	0.072288
40451	5.998896	-5.094733	1.759277	1.710188	3.238311	0.316274	0.103997	0.135297	0.985332	-0.025919	0.990736	-0.133303	-0.994240	-0.011675	0.106541
40452	2.798619	0.876080	4.594348	2.530354	2.176654	0.046938	0.125590	0.136215	0.982686	-0.051088	0.990103	-0.130714	-0.990766	-0.033787	0.131306
40453	3.416978	5.171266	5.697262	1.099961	0.912620	-0.043534	0.134673	0.136107	0.981498	-0.061921	0.989741	-0.128754	-0.988953	-0.043435	0.141720
40454	4.126398	0.285338	2.712884	-0.536286	-0.235563	-0.144093	0.132435	0.134543	0.982018	-0.056421	0.990161	-0.128050	-0.989585	-0.038449	0.138723
40455	3.651110	-5.297686	-2.512354	-0.516188	-1.116841	-0.371465	0.121599	0.130424	0.983973	-0.050845	0.990847	-0.125052	-0.991276	-0.034824	0.127117
40456	3.665291	-3.806165	-6.990771	0.797953	-1.782564	-0.575045	0.104234	0.123972	0.986796	-0.058112	0.991265	-0.118395	-0.992854	-0.045004	0.110527
40457	9.651253	-1.483908	-3.411431	0.639418	-1.863879	-0.524856	0.086059	0.117821	0.989299	-0.063965	0.991587	-0.112529	-0.994235	-0.053596	0.092871
40458	16.515419	-2.804512	1.836908	0.498708	-1.039433	-0.037203	0.075753	0.116822	0.990260	-0.068896	0.991353	-0.111680	-0.994744	-0.059764	0.083147
40459	12.916999	1.274106	2.693656	0.746876	-0.706208	-0.116739	0.068836	0.115185	0.990956	-0.076238	0.991015	-0.109896	-0.994711	-0.067984	0.076999
40460	11.158059	3.356612	0.767956	-0.521709	-1.206651	-0.462077	0.057173	0.109766	0.992312	-0.070756	0.991884	-0.105642	-0.995854	-0.064172	0.064476
40461	12.532358	2.154510	-0.660157	-0.523925	-1.279931	-0.565122	0.044827	0.103330	0.993636	-0.065252	0.992815	-0.100301	-0.996861	-0.060340	0.051248
40462	12.045093	4.094556	-2.634710	-0.786691	-1.371292	-0.523383	0.031478	0.097307	0.994757	-0.057208	0.993794	-0.095402	-0.997866	-0.053905	0.036849
40463	11.872250	0.214188	-3.989272	-1.564924	-1.514857	-0.532867	0.016635	0.091263	0.995688	-0.041464	0.995032	-0.090511	-0.999002	-0.039779	0.020337
40464	10.147600	-2.530401	-4.089535	-1.057299	-1.358505	-0.547937	0.003264	0.085290	0.996351	-0.030848	0.995891	-0.085150	-0.999519	-0.030457	0.005881
40465	8.784722	-1.092068	-4.353372	-0.409899	-1.262058	-0.559784	-0.009174	0.079314	0.996807	-0.026773	0.996473	-0.079534	-0.999599	-0.027417	-0.007018
40466	8.710837	0.251641	-4.424371	-0.121915	-1.114898	-0.527720	-0.020174	0.073709	0.997076	-0.025637	0.996913	-0.074215	-0.999468	-0.027059	-0.018222
40467	8.789712	-0.258835	-4.761150	-0.366521	-1.084189	-0.428596	-0.030894	0.069122	0.997130	-0.022087	0.997315	-0.069820	-0.999279	-0.024181	-0.029285
40468	10.122829	-1.309055	-4.939902	-0.486112	-1.081130	-0.366799	-0.041619	0.065183	0.997005	-0.017369	0.997672	-0.065952	-0.998983	-0.020062	-0.040390
40469	11.424120	-1.467269	-3.943581	-0.549858	-0.999018	-0.395218	-0.051530	0.061028	0.996805	-0.012061	0.998020	-0.061726	-0.998599	-0.015203	-0.050692
40470	11.126973	-2.211516	-3.004530	-0.590271	-0.918290	-0.396081	-0.060657	0.056918	0.996535	-0.006397	0.998330	-0.057410	-0.998138	-0.009857	-0.060192
40471	10.488791	-2.051788	-1.999213	-0.318061	-0.867019	-0.371103	-0.069284	0.053106	0.996182	-0.003461	0.998563	-0.053473	-0.997591	-0.007153	-0.069001
40472	9.661231	-1.075616	-1.137718	-0.099292	-0.841461	-0.408128	-0.077659	0.048930	0.995779	-0.002778	0.998780	-0.049294	-0.996976	-0.006595	-0.077428
40473	9.370874	-0.384879	-0.799090	0.054814	-0.823514	-0.450231	-0.085847	0.044343	0.995321	-0.003688	0.998988	-0.044824	-0.996302	-0.007519	-0.085596
40474	9.136831	-0.116008	-0.664795	0.108171	-0.832195	-0.468143	-0.094109	0.039555	0.994776	-0.005195	0.999177	-0.040222	-0.995548	-0.008953	-0.093827
40475	9.188712	-0.327451	-0.802403	0.173404	-0.882350	-0.518680	-0.102852	0.034252	0.994107	-0.007428	0.999353	-0.035201	-0.994669	-0.011005	-0.102531
40476	9.378967	-0.155368	-0.689620	0.408798	-0.860130	-0.532657	-0.111347	0.028773	0.993365	-0.012072	0.999468	-0.030303	-0.993708	-0.015366	-0.110940
40477	9.284114	0.819245	-0.361621	0.480810	-0.852347	-0.504031	-0.119732	0.023551	0.992527	-0.017427	0.999515	-0.025819	-0.992653	-0.020388	-0.119263
40478	9.293365	0.996714	-0.717360	0.272619	-0.874323	-0.471957	-0.128311	0.018601	0.991560	-0.020727	0.999555	-0.021433	-0.991517	-0.023302	-0.127868
40479	9.411545	0.941595	-1.219470	0.221476	-0.879666	-0.451761	-0.136921	0.013837	0.990485	-0.023521	0.999575	-0.017215	-0.990303	-0.025654	-0.136538
40480	9.701564	0.989046	-1.370977	0.158608	-0.889807	-0.420304	-0.145619	0.009358	0.989297	-0.025695	0.999582	-0.013238	-0.989007	-0.027347	-0.145317
40481	9.963650	0.933739	-1.708449	0.088816	-0.880148	-0.390401	-0.154208	0.005177	0.988025	-0.027160	0.999586	-0.009476	-0.987665	-0.028297	-0.154003
40482	9.988511	0.542961	-2.539618	0.032473	-0.834010	-0.345701	-0.162339	0.001442	0.986734	-0.028039	0.999588	-0.006074	-0.986337	-0.028653	-0.162232
40483	9.767490	0.546008	-2.985789	0.057267	-0.800816	-0.332224	-0.170131	-0.002146	0.985419	-0.029160	0.999571	-0.002858	-0.984990	-0.029221	-0.170121
40484	9.799582	0.073821	-2.966714	-0.015926	-0.794817	-0.313249	-0.177857	-0.005550	0.984041	-0.029559	0.999563	0.000295	-0.983612	-0.029035	-0.177944
40485	9.867966	-0.881968	-2.985595	0.045479	-0.764591	-0.301884	-0.185277	-0.008826	0.982647	-0.030559	0.999528	0.003216	-0.982211	-0.029433	-0.185459
40486	9.831198	-0.162327	-2.525137	0.301473	-0.724248	-0.281229	-0.192289	-0.011902	0.981266	-0.034061	0.999405	0.005448	-0.980747	-0.032375	-0.192580
40487	9.806327	0.482729	-2.120417	0.257164	-0.703587	-0.253760	-0.199089	-0.014709	0.979871	-0.037081	0.999284	0.007466	-0.979280	-0.034848	-0.199492
40488	9.616959	0.761930	-1.663410	0.189354	-0.695211	-0.235848	-0.205796	-0.017355	0.978441	-0.039424	0.999178	0.009431	-0.977800	-0.036633	-0.206311
40489	9.440782	0.355743	-1.632603	0.110206	-0.701745	-0.225491	-0.212557	-0.019904	0.976946	-0.040977	0.999095	0.011439	-0.976289	-0.037601	-0.213180
40490	9.310748	0.295229	-1.548068	0.192481	-0.695086	-0.227421	-0.219236	-0.022485	0.975413	-0.043359	0.998971	0.013282	-0.974708	-0.039381	-0.219985
40491	9.262657	0.626625	-1.477953	0.240537	-0.701152	-0.231211	-0.225956	-0.025113	0.973814	-0.046222	0.998818	0.015033	-0.973040	-0.041615	-0.226849
40492	9.452377	0.740053	-1.483798	0.134086	-0.720935	-0.214061	-0.232857	-0.027597	0.972119	-0.048031	0.998704	0.016846	-0.971324	-0.042769	-0.233881
40493	9.612478	0.784947	-1.783064	0.146894	-0.723729	-0.197247	-0.239778	-0.029916	0.970367	-0.049930	0.998582	0.018448	-0.969543	-0.044027	-0.240932
40494	9.460116	0.883757	-2.372272	0.067163	-0.701220	-0.172770	-0.246477	-0.031993	0.968620	-0.051015	0.998498	0.019999	-0.967805	-0.044485	-0.247739
40495	9.308219	0.591004	-2.783412	0.034508	-0.704420	-0.157179	-0.253201	-0.033913	0.966819	-0.051751	0.998429	0.021468	-0.966028	-0.044598	-0.254559
40496	9.306836	0.366986	-3.001459	0.096531	-0.705713	-0.143454	-0.259931	-0.035704	0.964967	-0.053065	0.998334	0.022644	-0.964168	-0.045320	-0.261392
40497	9.543072	0.733386	-2.639527	0.157232	-0.700730	-0.115771	-0.266612	-0.037218	0.963085	-0.054895	0.998218	0.023379	-0.962240	-0.046635	-0.268180
40498	9.593610	0.621069	-2.470470	0.110132	-0.698976	-0.097626	-0.273270	-0.038563	0.961164	-0.056232	0.998128	0.024059	-0.960292	-0.047474	-0.274927
40499	9.433540	0.366465	-2.650031	0.106434	-0.682572	-0.079964	-0.279766	-0.039725	0.959246	-0.057486	0.998044	0.024566	-0.958346	-0.048270	-0.281503
40500	9.063560	0.244101	-2.651591	0.116479	-0.684430	-0.088581	-0.286261	-0.040984	0.957275	-0.058867	0.997950	0.025122	-0.956342	-0.049161	-0.288086
40501	9.170300	-0.063701	-2.543387	0.113650	-0.725957	-0.099000	-0.293130	-0.042369	0.955133	-0.060252	0.997850	0.025772	-0.954172	-0.049994	-0.295053
40502	9.277974	0.387315	-2.377506	0.154221	-0.717762	-0.096084	-0.299905	-0.043732	0.952966	-0.062023	0.997729	0.026267	-0.951951	-0.051228	-0.301937
40503	9.002827	0.402330	-2.579614	0.028209	-0.718400	-0.091711	-0.306672	-0.045052	0.950748	-0.062582	0.997672	0.027089	-0.949756	-0.051192	-0.308778
40504	8.942659	0.388218	-2.747806	0.020074	-0.756450	-0.115494	-0.313768	-0.046632	0.948354	-0.063148	0.997607	0.028161	-0.947397	-0.051050	-0.315962
40505	9.486252	0.695342	-3.006816	0.018930	-0.763799	-0.103303	-0.320923	-0.048090	0.945884	-0.063668	0.997546	0.029114	-0.944963	-0.050879	-0.323197
40506	9.564679	0.980563	-3.188960	-0.039379	-0.745196	-0.081002	-0.327898	-0.049315	0.943425	-0.063577	0.997525	0.030046	-0.942572	-0.050128	-0.330221
40507	9.645155	0.814586	-3.477767	-0.097163	-0.759418	-0.079039	-0.334989	-0.050517	0.940867	-0.062940	0.997531	0.031151	-0.940118	-0.048783	-0.337341
40508	9.549939	0.538333	-3.704197	-0.077917	-0.745097	-0.055378	-0.341943	-0.051470	0.938310	-0.062414	0.997538	0.031974	-0.937646	-0.047630	-0.344314
40509	9.273816	0.529100	-3.685624	-0.032978	-0.739202	-0.023347	-0.348843	-0.052091	0.935732	-0.062201	0.997539	0.032343	-0.935115	-0.046921	-0.351225
40510	9.034085	0.362053	-3.631880	-0.085777	-0.743810	0.006272	-0.355787	-0.052414	0.933096	-0.061397	0.997580	0.032626	-0.932548	-0.045681	-0.358144
40511	8.949064	0.057059	-3.471926	-0.039032	-0.762701	0.013384	-0.362890	-0.052665	0.930343	-0.061002	0.997603	0.032678	-0.929833	-0.044894	-0.365233
40512	9.146963	0.191017	-2.890336	0.015814	-0.788350	0.002533	-0.370204	-0.053034	0.927435	-0.061159	0.997594	0.032633	-0.926935	-0.044640	-0.372557
40513	9.456605	0.186035	-2.242055	0.047051	-0.824981	-0.006278	-0.377827	-0.053503	0.924329	-0.061635	0.997568	0.032549	-0.923822	-0.044673	-0.380206
40514	9.276978	0.042224	-1.841660	0.041621	-0.878147	-0.025128	-0.385903	-0.054187	0.920947	-0.062134	0.997533	0.032657	-0.920445	-0.044620	-0.388318
40515	9.302299	0.109471	-1.518611	0.073255	-0.946402	-0.035964	-0.394565	-0.055008	0.917220	-0.062967	0.997479	0.032734	-0.916708	-0.044838	-0.397034
40516	9.212575	-0.005962	-1.409343	0.015047	-1.011165	-0.036914	-0.403785	-0.055869	0.913147	-0.063272	0.997449	0.033048	-0.912663	-0.044432	-0.406289
40517	9.135183	-0.343515	-1.528755	-0.019689	-1.106591	-0.068721	-0.413805	-0.057080	0.908574	-0.063395	0.997416	0.033789	-0.908156	-0.043617	-0.416354
40518	9.389680	-0.030900	-2.703567	0.038606	-1.124481	-0.075529	-0.423936	-0.058364	0.903810	-0.064082	0.997353	0.034346	-0.903422	-0.043357	-0.426554
40519	8.953494	0.073757	-3.622666	0.010068	-1.132552	-0.094356	-0.434067	-0.059831	0.898891	-0.064600	0.997291	0.035186	-0.898561	-0.042795	-0.436756
40520	8.686954	-0.064325	-4.134472	0.112817	-1.199718	-0.116612	-0.444733	-0.061551	0.893546	-0.066145	0.997169	0.035768	-0.893218	-0.043197	-0.447545
40521	9.109589	0.113139	-4.024221	0.212642	-1.244851	-0.105684	-0.455733	-0.063190	0.887871	-0.068537	0.997007	0.035777	-0.887474	-0.044547	-0.458699
40522	9.273236	0.152968	-3.831668	0.266728	-1.244863	-0.093254	-0.466672	-0.064727	0.882059	-0.071350	0.996823	0.035399	-0.881548	-0.046415	-0.469808
40523	9.305542	0.240990	-3.477330	0.295119	-1.282679	-0.098369	-0.477854	-0.066354	0.875929	-0.074431	0.996616	0.034892	-0.875280	-0.048523	-0.481176
40524	9.590849	0.368853	-3.101949	0.324869	-1.348528	-0.084370	-0.489541	-0.067906	0.869332	-0.077695	0.996395	0.034080	-0.868512	-0.050859	-0.493052
40525	9.617101	0.064056	-2.864113	0.256980	-1.371440	-0.057089	-0.501345	-0.069223	0.862474	-0.080227	0.996219	0.033322	-0.861520	-0.052488	-0.505003
40526	9.280923	0.181565	-2.731856	0.305761	-1.413413	-0.025152	-0.513442	-0.070271	0.855242	-0.083002	0.996035	0.032009	-0.854101	-0.054552	-0.517239
40527	9.037163	0.285856	-1.969180	0.243131	-1.518403	-0.011436	-0.526323	-0.071263	0.847293	-0.085157	0.995889	0.030862	-0.846010	-0.055909	-0.530228
40528	9.382189	0.359471	-1.422198	0.210525	-1.650406	-0.008981	-0.540197	-0.072324	0.838425	-0.087002	0.995761	0.029840	-0.837029	-0.056825	-0.544199
40529	9.779783	1.533410	-1.190065	0.238279	-1.734026	0.004972	-0.554612	-0.073310	0.828873	-0.088990	0.995624	0.028513	-0.827337	-0.057947	-0.558709
40530	10.278087	1.613306	-0.886758	-0.159099	-1.844867	-0.010424	-0.569765	-0.074497	0.818424	-0.087767	0.995703	0.029532	-0.817107	-0.055004	-0.573855
40531	10.664453	-0.207550	-2.202931	-0.481330	-1.933675	-0.065811	-0.585382	-0.076200	0.807169	-0.084278	0.995899	0.032896	-0.806365	-0.048770	-0.589404
40532	10.456211	-1.186931	-3.530185	-0.446566	-1.953914	-0.170434	-0.600881	-0.078833	0.795442	-0.081741	0.995968	0.036959	-0.795148	-0.042812	-0.604902
40533	10.101021	-1.417210	-4.080245	-0.176847	-2.029351	-0.238842	-0.616673	-0.082091	0.782928	-0.081840	0.995844	0.039955	-0.782954	-0.039435	-0.620828
40534	10.580737	-0.805545	-4.133781	0.129973	-2.122872	-0.269232	-0.632922	-0.085646	0.769464	-0.084560	0.995564	0.041257	-0.769584	-0.038954	-0.637356
40535	11.306398	-0.439043	-4.049052	0.179967	-2.145018	-0.294746	-0.649000	-0.089459	0.755511	-0.087863	0.995231	0.042367	-0.755698	-0.038886	-0.653765
40536	11.197574	-0.519811	-4.487060	0.280827	-2.142223	-0.370872	-0.664695	-0.094032	0.741174	-0.092432	0.994777	0.043312	-0.741375	-0.039719	-0.669914
40537	11.008353	-0.257744	-4.341865	0.570898	-2.177712	-0.468146	-0.680195	-0.099637	0.726228	-0.099814	0.994081	0.042899	-0.726204	-0.043308	-0.686114
40538	11.917004	0.290001	-3.960812	0.690028	-2.090680	-0.404467	-0.694794	-0.104652	0.711554	-0.107585	0.993348	0.041046	-0.711117	-0.048034	-0.701431
40539	12.469483	1.657834	-3.406173	0.735785	-1.817911	-0.298810	-0.707233	-0.108588	0.698592	-0.114910	0.992650	0.037965	-0.697580	-0.053425	-0.714513
40540	12.224554	2.679456	-3.869838	0.492904	-1.669064	-0.296669	-0.718415	-0.112491	0.686459	-0.120465	0.992047	0.036494	-0.685104	-0.056477	-0.726252
40541	11.388985	3.271765	-4.550872	0.181649	-1.611565	-0.237598	-0.729033	-0.115810	0.674610	-0.123473	0.991665	0.036804	-0.673250	-0.056465	-0.737256
40542	10.535937	3.170814	-5.687515	-0.071186	-1.796300	-0.238681	-0.740705	-0.119206	0.661170	-0.124786	0.991419	0.038952	-0.660140	-0.053653	-0.749224
40543	10.520258	2.254142	-6.664044	-0.263203	-1.998163	-0.217745	-0.753438	-0.122447	0.646017	-0.124756	0.991282	0.042388	-0.645575	-0.048658	-0.762145
40544	10.343039	1.441268	-7.153825	-0.222700	-2.035831	-0.170259	-0.766206	-0.125118	0.630296	-0.124663	0.991169	0.045210	-0.630386	-0.043935	-0.775037
40545	9.865159	1.153181	-7.678623	-0.145351	-1.889029	-0.085379	-0.777830	-0.126823	0.615545	-0.124482	0.991113	0.046901	-0.616023	-0.040144	-0.786705
40546	8.304822	1.400116	-8.409111	-0.129784	-1.671378	-0.024167	-0.787981	-0.127746	0.602301	-0.123916	0.991126	0.048097	-0.603101	-0.036735	-0.796818
40547	7.007753	1.189576	-9.047585	-0.245587	-1.480059	0.016971	-0.796802	-0.128156	0.590494	-0.122382	0.991223	0.049987	-0.591718	-0.032436	-0.805492
40548	6.172707	0.391169	-9.113546	-0.352359	-1.271283	0.035516	-0.804298	-0.128225	0.580227	-0.120066	0.991369	0.052651	-0.581970	-0.027319	-0.812751
40549	5.823691	-0.397660	-9.420850	-0.352561	-0.948978	0.038297	-0.809791	-0.128150	0.572553	-0.117787	0.991496	0.055327	-0.574774	-0.022635	-0.817999
40550	6.279302	-0.743963	-9.563498	-0.132306	-0.641942	0.012981	-0.813472	-0.128201	0.567299	-0.116961	0.991536	0.056358	-0.569722	-0.020506	-0.821581
40551	6.282503	0.310279	-8.955013	0.114917	-0.321231	0.021639	-0.815283	-0.128119	0.564711	-0.117504	0.991531	0.055311	-0.567015	-0.021262	-0.823433
40552	7.302149	0.434623	-7.019612	-0.165434	0.004888	0.157831	-0.815432	-0.126595	0.564840	-0.115316	0.991760	0.055802	-0.567250	-0.019632	-0.823311
40553	8.677160	-0.020699	-6.798863	-0.435184	0.544710	0.395928	-0.812734	-0.122635	0.569583	-0.109680	0.992322	0.057152	-0.572219	-0.016023	-0.819945
40554	7.873057	-0.302488	-7.441592	-0.600516	1.077542	0.561456	-0.807104	-0.116955	0.578710	-0.101705	0.993072	0.058853	-0.581584	-0.011357	-0.813407
40555	6.637948	-1.121914	-8.781603	-0.724524	1.458729	0.659134	-0.799126	-0.110347	0.590949	-0.092219	0.993876	0.060879	-0.594048	-0.005847	-0.804408
40556	5.875727	-1.105780	-9.099687	-0.602348	1.825231	0.703491	-0.788756	-0.103323	0.605960	-0.083046	0.994646	0.061501	-0.609071	-0.001813	-0.793114
40557	5.917446	-1.038905	-8.786398	-0.564440	2.149856	0.788591	-0.776051	-0.095535	0.623392	-0.073452	0.995425	0.061110	-0.626378	0.001635	-0.779517
40558	6.120700	-0.538039	-8.467853	-0.501209	2.526072	0.925198	-0.760604	-0.086438	0.643436	-0.063189	0.996248	0.059139	-0.646134	0.004324	-0.763212
40559	5.972722	-0.296743	-8.417022	-0.557844	2.880426	1.054291	-0.742238	-0.076157	0.665795	-0.051660	0.997068	0.056458	-0.668142	0.007511	-0.743995
40560	5.522872	-0.405148	-8.966653	-0.573894	3.228844	1.086899	-0.720769	-0.065654	0.690059	-0.039839	0.997782	0.053321	-0.692030	0.010941	-0.721786
40561	5.152815	-0.640988	-9.316135	-0.525765	3.482413	1.059506	-0.696555	-0.055567	0.715349	-0.028682	0.998356	0.049622	-0.716930	0.014047	-0.697003
40562	5.266054	-1.055457	-9.511605	-0.381372	3.744226	1.030026	-0.669468	-0.045883	0.741422	-0.018894	0.998819	0.044752	-0.742601	0.015952	-0.669545
40563	5.334813	-1.360116	-9.515553	-0.065822	4.008303	1.032574	-0.639289	-0.036232	0.768113	-0.011689	0.999232	0.037405	-0.768878	0.014934	-0.639221
40564	5.605507	-1.138767	-9.230161	0.306102	4.252484	1.080920	-0.606124	-0.026011	0.794945	-0.007381	0.999606	0.027080	-0.795336	0.010546	-0.606077
40565	6.034608	-0.091365	-9.403644	0.560431	4.489192	1.161024	-0.569854	-0.014769	0.821614	-0.005130	0.999883	0.014416	-0.821730	0.004000	-0.569863
40566	5.527711	-0.121754	-9.609406	0.519675	4.694805	1.189549	-0.530705	-0.002969	0.847551	-0.002947	0.999994	0.001658	-0.847551	-0.001618	-0.530711
40567	5.558406	-0.833147	-9.519767	0.695093	4.838605	1.174015	-0.489087	0.008980	0.872189	-0.002977	0.999924	-0.011964	-0.872230	-0.008448	-0.489023
40568	6.099800	-0.534178	-9.209590	1.015806	5.061475	1.182657	-0.444384	0.021430	0.895580	-0.006461	0.999611	-0.027125	-0.895813	-0.017840	-0.444073
40569	5.947408	0.374213	-8.456171	1.147976	5.309562	1.200574	-0.396293	0.034612	0.917472	-0.011858	0.999013	-0.042810	-0.918048	-0.027845	-0.395491
40570	5.603409	0.816741	-8.364369	1.050805	5.415688	1.198414	-0.346190	0.048273	0.936922	-0.017182	0.998182	-0.057778	-0.938007	-0.036100	-0.344731
40571	6.193786	0.957206	-7.796042	0.939415	5.373301	1.209015	-0.295523	0.062421	0.953294	-0.022220	0.997144	-0.072180	-0.955077	-0.042513	-0.293292
40572	7.160858	0.557828	-7.118795	0.942791	5.363189	1.187163	-0.244199	0.076646	0.966691	-0.028105	0.995893	-0.086061	-0.969318	-0.048185	-0.241042
40573	8.113657	0.079195	-6.201627	1.158023	5.375109	1.120147	-0.192115	0.090545	0.977186	-0.036973	0.994360	-0.099405	-0.980676	-0.055226	-0.187684
40574	8.144098	0.154378	-5.285901	1.286055	5.349673	1.054541	-0.139857	0.104141	0.984680	-0.047902	0.992578	-0.111780	-0.989012	-0.062801	-0.133830
40575	8.407925	0.013433	-4.646036	1.213954	5.198004	0.974595	-0.088793	0.117207	0.989130	-0.058841	0.990701	-0.122675	-0.994311	-0.069094	-0.081071
40576	8.748092	-0.650890	-4.411688	1.013854	5.050109	0.901973	-0.039069	0.129682	0.990786	-0.068368	0.988872	-0.132127	-0.996895	-0.072900	-0.029769
40577	8.771273	-2.424431	-4.403029	0.891034	4.840407	0.781711	0.008650	0.140960	0.989978	-0.077140	0.987158	-0.139884	-0.996983	-0.075157	0.019412
40578	8.271798	-3.733113	-2.989710	1.004815	4.601710	0.608309	0.053992	0.150453	0.987142	-0.087342	0.985506	-0.145426	-0.994714	-0.078367	0.066350
40579	7.419895	-3.159109	2.008180	1.180954	4.180427	0.421916	0.095119	0.157963	0.982853	-0.099378	0.983904	-0.148515	-0.990493	-0.083547	0.109286
40580	6.352196	0.724160	3.569733	1.565167	3.539222	0.289621	0.129777	0.163899	0.977903	-0.115164	0.982061	-0.149312	-0.984833	-0.093242	0.146324
40581	5.824120	2.802081	4.514951	0.920283	2.797036	0.177965	0.157063	0.168286	0.973145	-0.124455	0.980892	-0.149539	-0.979715	-0.097626	0.175005
40582	5.431047	2.283478	3.934876	0.271492	1.963476	0.099553	0.176148	0.171132	0.969374	-0.127273	0.980465	-0.149963	-0.976101	-0.096960	0.194488
40583	3.956881	1.276341	4.160259	-0.200363	1.109830	0.053821	0.186929	0.172683	0.967077	-0.125418	0.980569	-0.150850	-0.974335	-0.093091	0.204954
40584	3.349711	-1.091313	3.837589	-0.502829	0.165954	-0.046534	0.188613	0.172336	0.966812	-0.120427	0.981111	-0.151391	-0.974640	-0.087876	0.205804
40585	4.421617	-2.697996	1.494879	-0.309606	-0.605489	-0.198940	0.182971	0.169826	0.968339	-0.117042	0.981725	-0.150058	-0.976126	-0.085881	0.199504
40586	4.966262	-2.280937	-0.205659	0.011425	-1.155206	-0.394696	0.172152	0.164906	0.971169	-0.116450	0.982382	-0.146167	-0.978163	-0.087930	0.188323
40587	6.472350	-1.869778	-2.665432	0.094972	-1.637077	-0.543039	0.156778	0.158070	0.974902	-0.116490	0.983178	-0.140678	-0.980740	-0.091511	0.172554
40588	10.386735	-2.110973	-2.583234	0.042489	-1.669027	-0.471676	0.140946	0.151837	0.978304	-0.116203	0.983876	-0.135960	-0.983174	-0.094519	0.156318
40589	13.559458	-2.800627	-0.758414	0.029163	-1.129099	-0.141362	0.130025	0.149338	0.980200	-0.116298	0.984065	-0.134499	-0.984667	-0.096507	0.145321
40590	11.088617	-0.879377	1.148339	-0.153582	-0.780792	-0.060098	0.122411	0.147953	0.981390	-0.114708	0.984308	-0.134086	-0.985828	-0.096160	0.137461
40591	9.190485	-0.053555	1.912475	-0.683466	-0.874615	-0.191114	0.114015	0.145224	0.982807	-0.107737	0.985232	-0.133083	-0.987620	-0.090711	0.127978
40592	11.229355	-0.544295	2.159034	-0.829377	-0.903494	-0.268933	0.105371	0.141743	0.984279	-0.099243	0.986347	-0.131417	-0.989468	-0.083835	0.117999
40593	12.485384	0.649640	2.166166	-0.824469	-0.889168	-0.335304	0.096906	0.137688	0.985724	-0.090740	0.987483	-0.129013	-0.991149	-0.076943	0.108187
40594	12.349338	0.434505	1.529307	-1.467059	-1.078168	-0.451305	0.086591	0.132427	0.987403	-0.075769	0.989131	-0.126014	-0.993358	-0.063903	0.095684
40595	10.626082	-2.204086	0.756988	-1.814715	-1.231464	-0.520118	0.074712	0.126558	0.989142	-0.057308	0.990819	-0.122444	-0.995557	-0.047537	0.081279
40596	9.132440	-2.516413	0.624149	-1.435658	-1.363961	-0.526460	0.061391	0.120734	0.990785	-0.042646	0.992068	-0.118248	-0.997202	-0.034994	0.066053
40597	10.855222	-0.152951	-0.405284	-1.150326	-1.573532	-0.442303	0.045872	0.115836	0.992209	-0.030935	0.992942	-0.114492	-0.998468	-0.025442	0.049132
40598	15.808433	-0.052121	-2.696937	-1.317275	-1.744817	-0.320795	0.028525	0.112261	0.993269	-0.017659	0.993575	-0.111789	-0.999437	-0.014351	0.030324
40599	12.078883	-1.722536	-3.944661	-0.855084	-1.335710	-0.394104	0.015242	0.108165	0.994016	-0.009031	0.994106	-0.108036	-0.999843	-0.007330	0.016129
40600	8.225966	-1.270933	-4.748476	-0.564570	-1.287073	-0.503405	0.002408	0.103051	0.994673	-0.003345	0.994671	-0.103043	-0.999992	-0.003079	0.002740
40601	8.632715	-1.429087	-5.518883	-0.309578	-1.214802	-0.521776	-0.009719	0.097799	0.995159	-0.000271	0.995205	-0.097806	-0.999953	-0.001220	-0.009645
40602	9.055297	-1.085149	-5.200640	0.039657	-1.045260	-0.513716	-0.020163	0.092624	0.995497	-0.000749	0.995698	-0.092658	-0.999796	-0.002614	-0.020007
40603	9.177522	-0.463335	-4.289175	0.050481	-0.962428	-0.486027	-0.029772	0.087718	0.995700	-0.001373	0.996137	-0.087798	-0.999556	-0.003981	-0.029537
40604	9.526474	-1.239529	-3.613486	-0.186057	-0.947235	-0.439270	-0.039232	0.083267	0.995755	0.000329	0.996523	-0.083318	-0.999230	-0.002941	-0.039123
40605	9.951908	-2.378869	-2.940953	-0.131747	-0.900857	-0.426402	-0.048234	0.078960	0.995710	0.001463	0.996875	-0.078981	-0.998835	-0.002353	-0.048199
40606	9.702371	-1.921137	-2.136200	0.162785	-0.848177	-0.451600	-0.056702	0.074386	0.995616	-0.000406	0.997219	-0.074529	-0.998391	-0.004631	-0.056514
40607	9.433959	-0.523558	-1.224047	0.284853	-0.849860	-0.471636	-0.065175	0.069597	0.995444	-0.003530	0.997543	-0.069975	-0.997868	-0.008075	-0.064769
40608	9.709589	0.615476	-0.846298	0.291977	-0.839272	-0.457024	-0.073519	0.064913	0.995179	-0.006767	0.997824	-0.065586	-0.997271	-0.011556	-0.072920
40609	9.577024	1.356551	-0.595075	0.136693	-0.803368	-0.424022	-0.081496	0.060549	0.994833	-0.008453	0.998075	-0.061439	-0.996638	-0.013416	-0.080828
40610	9.438650	0.990538	-0.627147	-0.047951	-0.832539	-0.393730	-0.089753	0.056466	0.994362	-0.008320	0.998314	-0.057441	-0.995929	-0.013429	-0.089132
40611	9.780248	0.497462	-0.732206	-0.045772	-0.839737	-0.401816	-0.098080	0.052307	0.993803	-0.008240	0.998541	-0.053370	-0.995144	-0.013423	-0.097506
40612	9.668643	-0.246960	-1.084690	-0.052033	-0.819222	-0.424676	-0.106189	0.047915	0.993191	-0.008165	0.998763	-0.049057	-0.994312	-0.013318	-0.105667
40613	9.688368	-0.715120	-1.205668	0.080300	-0.861677	-0.452354	-0.114713	0.043242	0.992457	-0.009461	0.998959	-0.044619	-0.993354	-0.014508	-0.114185
40614	10.025724	-0.535627	-1.233447	0.197341	-0.855629	-0.424084	-0.123158	0.038830	0.991627	-0.011934	0.999104	-0.040605	-0.992315	-0.016835	-0.122584
40615	9.823864	-0.169109	-1.250635	0.170557	-0.831657	-0.401160	-0.131354	0.034639	0.990730	-0.014136	0.999222	-0.036810	-0.991235	-0.018840	-0.130762
40616	9.530868	-0.328334	-1.786943	0.143089	-0.830256	-0.390822	-0.139515	0.030528	0.989749	-0.016093	0.999323	-0.033092	-0.990089	-0.020545	-0.138929
40617	9.584688	-0.141928	-2.153056	0.161000	-0.834601	-0.388445	-0.147707	0.026433	0.988678	-0.018244	0.999400	-0.029445	-0.988863	-0.022387	-0.147136
40618	9.697041	-0.006457	-2.460675	0.212338	-0.816705	-0.372945	-0.155699	0.022471	0.987549	-0.020919	0.999442	-0.026040	-0.987583	-0.024713	-0.155142
40619	9.781274	0.574119	-2.525861	0.262146	-0.779875	-0.347098	-0.163319	0.018764	0.986395	-0.024061	0.999446	-0.022996	-0.986280	-0.027489	-0.162777
40620	9.702801	0.600799	-2.354955	0.137494	-0.759534	-0.314750	-0.170721	0.015363	0.985200	-0.025953	0.999461	-0.020082	-0.984977	-0.028997	-0.170231
40621	9.805694	0.114749	-2.344273	0.093685	-0.740609	-0.290596	-0.177936	0.012204	0.983966	-0.027384	0.999474	-0.017349	-0.983661	-0.030032	-0.177508
40622	9.758656	-0.025461	-2.061794	0.176134	-0.714545	-0.270580	-0.184877	0.009237	0.982718	-0.029618	0.999449	-0.014966	-0.982315	-0.031873	-0.184502
40623	9.563509	-0.170100	-1.980637	0.169797	-0.694833	-0.259861	-0.191620	0.006377	0.981448	-0.031776	0.999414	-0.012698	-0.980955	-0.033620	-0.191306
40624	9.385805	0.029038	-1.921301	0.231867	-0.686660	-0.253935	-0.198262	0.003559	0.980143	-0.034557	0.999346	-0.010619	-0.979540	-0.035976	-0.198009
40625	9.286828	0.225341	-1.988972	0.231636	-0.696929	-0.247016	-0.204997	0.000796	0.978762	-0.037325	0.999266	-0.008630	-0.978051	-0.038301	-0.204816
40626	9.501566	0.494680	-2.098879	0.273707	-0.690587	-0.241105	-0.211646	-0.001928	0.977345	-0.040515	0.999156	-0.006802	-0.976506	-0.041037	-0.211545
40627	9.533412	0.561911	-2.385418	0.241236	-0.662372	-0.228538	-0.218015	-0.004527	0.975935	-0.043364	0.999047	-0.005053	-0.974982	-0.043422	-0.218004
40628	9.454131	0.400492	-2.515569	0.283618	-0.650913	-0.218750	-0.224252	-0.007046	0.974506	-0.046624	0.998906	-0.003507	-0.973415	-0.046222	-0.224335
40629	9.472258	0.198585	-2.540479	0.248425	-0.638003	-0.203142	-0.230362	-0.009414	0.973060	-0.049508	0.998772	-0.002058	-0.971845	-0.048648	-0.230545
40630	9.485781	-0.009440	-2.408091	0.309235	-0.643143	-0.183658	-0.236506	-0.011612	0.971561	-0.052953	0.998597	-0.000955	-0.970186	-0.051673	-0.236789
40631	9.714906	0.521131	-2.055953	0.384570	-0.637577	-0.158252	-0.242602	-0.013570	0.970031	-0.057066	0.998370	-0.000305	-0.968446	-0.055430	-0.242981
40632	9.611460	0.723365	-2.135284	0.278964	-0.607499	-0.126715	-0.248399	-0.015221	0.968538	-0.060091	0.998193	0.000276	-0.966792	-0.058131	-0.248865
40633	9.245833	0.413835	-2.279862	0.173978	-0.611147	-0.113137	-0.254235	-0.016748	0.966997	-0.062063	0.998072	0.000969	-0.965149	-0.059768	-0.254784
40634	9.155499	0.185358	-2.072167	0.126273	-0.636401	-0.106614	-0.260298	-0.018238	0.965356	-0.063570	0.997976	0.001713	-0.963433	-0.060921	-0.260930
40635	9.379981	0.231064	-1.676461	0.116628	-0.665983	-0.092137	-0.266650	-0.019604	0.963594	-0.064943	0.997886	0.002330	-0.961603	-0.061958	-0.267359
40636	9.521210	0.147851	-1.520297	0.041011	-0.681128	-0.104513	-0.273118	-0.021111	0.961749	-0.065635	0.997838	0.003264	-0.959739	-0.062233	-0.273913
40637	9.260113	0.277878	-1.632092	0.096390	-0.708238	-0.109148	-0.279836	-0.022682	0.959780	-0.066871	0.997753	0.004082	-0.957716	-0.063039	-0.280724
40638	9.164776	0.549669	-1.587797	0.072282	-0.742561	-0.099224	-0.286866	-0.024183	0.957666	-0.067859	0.997683	0.004867	-0.955564	-0.063590	-0.287842
40639	9.201980	0.505270	-1.891883	0.022205	-0.770598	-0.081943	-0.294163	-0.025530	0.955414	-0.068321	0.997648	0.005623	-0.953310	-0.063621	-0.295215
40640	9.266155	0.813592	-2.389381	-0.016129	-0.785730	-0.056772	-0.301599	-0.026636	0.953063	-0.068353	0.997642	0.006251	-0.950982	-0.063259	-0.302708
40641	9.220825	0.936513	-2.905827	-0.074880	-0.789697	-0.029832	-0.309077	-0.027469	0.950640	-0.067746	0.997679	0.006802	-0.948621	-0.062300	-0.310220
40642	9.129511	0.836578	-3.220987	-0.132426	-0.807062	-0.019250	-0.316703	-0.028199	0.948106	-0.066569	0.997754	0.007439	-0.946186	-0.060759	-0.317869
40643	9.275733	0.547300	-3.387883	-0.128289	-0.807204	0.007202	-0.324333	-0.028652	0.945509	-0.065349	0.997832	0.007821	-0.943683	-0.059251	-0.325502
40644	9.203914	0.436519	-3.518334	-0.056443	-0.803651	0.015605	-0.331910	-0.029011	0.942865	-0.064783	0.997868	0.007898	-0.941084	-0.058461	-0.333081
40645	9.420034	0.755995	-3.431453	-0.043914	-0.791695	0.036382	-0.339371	-0.029149	0.940201	-0.064265	0.997903	0.007742	-0.938455	-0.057794	-0.340533
40646	9.404702	0.422845	-3.412565	-0.082305	-0.787011	0.064478	-0.346781	-0.028998	0.937498	-0.063291	0.997967	0.007457	-0.935808	-0.056749	-0.347911
40647	9.456715	0.142697	-3.055369	-0.092343	-0.812432	0.073279	-0.354416	-0.028765	0.934645	-0.062188	0.998039	0.007135	-0.933017	-0.055595	-0.355510
40648	9.753735	-0.035203	-2.543083	-0.091898	-0.837765	0.083844	-0.362266	-0.028431	0.931641	-0.061051	0.998112	0.006720	-0.930073	-0.054443	-0.363317
40649	9.741549	-0.035962	-2.090049	-0.110593	-0.862355	0.074815	-0.370315	-0.028190	0.928478	-0.059768	0.998191	0.006469	-0.926981	-0.053098	-0.371330
40650	9.514114	0.019930	-1.630238	-0.179508	-0.929366	0.081871	-0.378956	-0.027898	0.924994	-0.057820	0.998306	0.006421	-0.923607	-0.051050	-0.379928
40651	9.361542	-0.259685	-1.351448	-0.254910	-1.017273	0.075953	-0.388371	-0.027687	0.921087	-0.055199	0.998453	0.006739	-0.919848	-0.048226	-0.389298
40652	9.094876	-0.207249	-1.053671	-0.244345	-1.091782	0.066176	-0.398420	-0.027580	0.916788	-0.052717	0.998584	0.007130	-0.915687	-0.045489	-0.399310
40653	9.072667	-0.058011	-1.032701	-0.283671	-1.194883	0.045474	-0.409350	-0.027693	0.911957	-0.049965	0.998720	0.007900	-0.911008	-0.042332	-0.410209
40654	9.324481	0.013656	-2.141015	-0.281590	-1.245979	0.034881	-0.420681	-0.027894	0.906780	-0.047283	0.998843	0.008790	-0.905976	-0.039177	-0.421513
40655	9.115232	0.238897	-3.251533	-0.256185	-1.248781	0.017690	-0.431960	-0.028231	0.901451	-0.044918	0.998943	0.009761	-0.900773	-0.036275	-0.432772
40656	8.915982	-0.083754	-4.119073	-0.206044	-1.307290	-0.002059	-0.443693	-0.028752	0.895718	-0.043099	0.999013	0.010719	-0.895142	-0.033848	-0.444494
40657	9.225277	-0.102648	-4.617505	-0.035244	-1.343536	-0.000343	-0.455668	-0.029248	0.889669	-0.042812	0.999024	0.010916	-0.889120	-0.033114	-0.456476
40658	9.507306	0.158458	-4.842260	0.082534	-1.333153	0.024387	-0.467485	-0.029491	0.883509	-0.043453	0.999002	0.010353	-0.882932	-0.033551	-0.468300
40659	9.435486	0.267488	-4.799021	0.143119	-1.344028	0.045466	-0.479319	-0.029538	0.877144	-0.044524	0.998965	0.009310	-0.876511	-0.034592	-0.480138
40660	9.449393	0.105737	-4.340192	0.215228	-1.382462	0.083915	-0.491422	-0.029231	0.870431	-0.046020	0.998912	0.007564	-0.869705	-0.036340	-0.492232
40661	9.656725	0.444061	-3.500226	0.327320	-1.406469	0.136808	-0.503657	-0.028440	0.863435	-0.048203	0.998826	0.004782	-0.862558	-0.039212	-0.504437
40662	9.741460	1.208865	-2.742367	0.365745	-1.461966	0.191227	-0.516301	-0.027168	0.855976	-0.050393	0.998729	0.001303	-0.854923	-0.042463	-0.517013
40663	10.189173	1.636623	-1.534825	0.217424	-1.555773	0.227000	-0.529639	-0.025621	0.847836	-0.051088	0.998693	-0.001734	-0.846683	-0.044232	-0.530256
40664	10.641082	0.497620	-0.251718	-0.108778	-1.688928	0.220995	-0.543968	-0.024190	0.838757	-0.049011	0.998794	-0.002980	-0.837673	-0.042730	-0.544498
40665	10.802162	-0.620771	0.519744	-0.200471	-1.820528	0.176379	-0.559194	-0.023233	0.828711	-0.046406	0.998917	-0.003309	-0.827737	-0.040308	-0.559667
40666	10.905238	-0.349993	1.099223	-0.219806	-1.938798	0.132884	-0.575192	-0.022703	0.817704	-0.043872	0.999032	-0.003123	-0.816841	-0.037671	-0.575631
40667	11.063242	-1.181226	-0.187637	-0.569244	-1.997483	0.065149	-0.591397	-0.022795	0.806058	-0.038917	0.999242	-0.000295	-0.805441	-0.031544	-0.591836
40668	10.621531	-2.031149	-1.212114	-0.678927	-2.089585	-0.092274	-0.608061	-0.024342	0.793517	-0.034072	0.999409	0.004548	-0.793159	-0.024271	-0.608531
40669	10.869603	-2.476135	-1.593714	-0.536658	-2.267398	-0.220784	-0.625788	-0.027082	0.779523	-0.031260	0.999465	0.009629	-0.779367	-0.018342	-0.626299
40670	12.250845	-2.244217	-2.323988	-0.142821	-2.310642	-0.262294	-0.643540	-0.030145	0.764818	-0.031852	0.999413	0.012591	-0.764749	-0.016258	-0.644123
40671	12.688707	-1.086327	-2.314540	0.172893	-2.111861	-0.243003	-0.659431	-0.032978	0.751042	-0.034793	0.999306	0.013331	-0.750960	-0.017340	-0.660120
40672	11.815235	-0.057230	-2.992400	0.163527	-1.976235	-0.212164	-0.674060	-0.035492	0.737824	-0.037456	0.999202	0.013847	-0.737727	-0.018302	-0.674851
40673	11.646448	0.743534	-3.719320	-0.028632	-1.913570	-0.188697	-0.687942	-0.037770	0.724783	-0.038583	0.999136	0.015446	-0.724740	-0.017339	-0.688805
40674	11.205647	1.102793	-5.162656	-0.061420	-1.963428	-0.247080	-0.701936	-0.040607	0.711081	-0.039891	0.999048	0.017674	-0.711122	-0.015960	-0.702888
40675	10.868793	1.479548	-6.246079	0.034722	-2.178052	-0.338574	-0.717075	-0.044387	0.695581	-0.042594	0.998896	0.019832	-0.695693	-0.015406	-0.718174
40676	11.146128	2.062431	-7.113501	0.125645	-2.338480	-0.325586	-0.732997	-0.048043	0.678533	-0.045851	0.998724	0.021182	-0.678685	-0.015585	-0.734264
40677	11.045095	2.477820	-7.395099	0.136391	-2.335865	-0.251880	-0.748485	-0.050986	0.661189	-0.048692	0.998574	0.021882	-0.661361	-0.015817	-0.749901
40678	10.618831	2.599234	-7.661659	0.039199	-2.196479	-0.143313	-0.762754	-0.052798	0.644530	-0.050065	0.998491	0.022544	-0.644748	-0.015073	-0.764247
40679	9.498954	2.526921	-8.061364	-0.066828	-1.990725	-0.033990	-0.775376	-0.053487	0.629231	-0.049967	0.998479	0.023302	-0.629520	-0.013373	-0.776869
40680	8.106388	2.119543	-8.288013	-0.283746	-1.780839	0.035104	-0.786477	-0.053383	0.615309	-0.047962	0.998528	0.025326	-0.615755	-0.009593	-0.787879
40681	7.034828	0.733560	-8.805973	-0.540123	-1.563048	0.087277	-0.796002	-0.052685	0.602996	-0.044048	0.998605	0.029103	-0.603689	-0.003395	-0.797213
40682	6.684431	-0.928201	-9.074628	-0.563538	-1.255321	0.095780	-0.803555	-0.051773	0.592975	-0.039944	0.998655	0.033064	-0.593889	0.002884	-0.804542
40683	6.755453	-0.971322	-9.549235	-0.212465	-0.863123	0.069344	-0.808635	-0.051116	0.586085	-0.038200	0.998678	0.034396	-0.587069	0.005425	-0.809519
40684	6.783610	0.176621	-9.103981	-0.072470	-0.444044	0.052773	-0.811250	-0.050604	0.582506	-0.037384	0.998698	0.034696	-0.583503	0.006370	-0.812086
40685	7.382131	0.246958	-6.948829	-0.378643	-0.053371	0.129923	-0.811565	-0.049373	0.582172	-0.034190	0.998729	0.037038	-0.583261	0.010154	-0.812222
40686	8.257217	0.007088	-6.823613	-0.652866	0.482725	0.288995	-0.808826	-0.046592	0.586200	-0.028063	0.998779	0.040663	-0.587378	0.016439	-0.809146
40687	7.186847	-0.362136	-7.974142	-0.843791	1.008383	0.325680	-0.802895	-0.043616	0.594522	-0.020516	0.998751	0.045564	-0.595767	0.024386	-0.802787
40688	6.346779	-0.861588	-9.034711	-0.922720	1.360521	0.312453	-0.794763	-0.040927	0.605539	-0.012508	0.998616	0.051079	-0.606791	0.033022	-0.794175
40689	6.146545	-1.302998	-8.940379	-0.806612	1.714302	0.334285	-0.784227	-0.038287	0.619291	-0.004985	0.998451	0.055415	-0.620454	0.040371	-0.783203
40690	6.115180	-1.385841	-8.807345	-0.535739	2.161030	0.407350	-0.770641	-0.035183	0.636298	0.001516	0.998371	0.057039	-0.637268	0.044921	-0.769332
40691	6.044075	0.012770	-8.239268	-0.291243	2.602825	0.502527	-0.753726	-0.031424	0.656437	0.007170	0.998404	0.056026	-0.657149	0.046935	-0.752298
40692	6.096947	0.713154	-8.073829	-0.361586	2.961801	0.597423	-0.733870	-0.026932	0.678756	0.013996	0.998402	0.054746	-0.679146	0.049676	-0.732320
40693	5.893375	0.717826	-8.043967	-0.499045	3.285052	0.673463	-0.710999	-0.021968	0.702850	0.022250	0.998309	0.053712	-0.702841	0.053828	-0.709307
40694	5.851963	-0.303992	-8.525166	-0.556889	3.557754	0.769075	-0.685342	-0.016334	0.728038	0.031571	0.998142	0.052114	-0.727537	0.058701	-0.683553
40695	5.605793	-0.913055	-8.894479	-0.244848	3.875383	0.842196	-0.656295	-0.010296	0.754434	0.038979	0.998109	0.047530	-0.753497	0.060601	-0.654653
40696	4.903408	-0.585846	-8.849061	0.054855	4.148916	0.854315	-0.624120	-0.004307	0.781316	0.043998	0.998204	0.040648	-0.780088	0.059746	-0.622810
40697	5.550108	-0.542986	-8.729251	0.213333	4.292431	0.881133	-0.589617	0.001922	0.807681	0.047603	0.998342	0.032375	-0.806279	0.057537	-0.588731
40698	5.892273	-0.831285	-8.830182	0.522648	4.616629	0.944478	-0.551317	0.008770	0.834250	0.048680	0.998579	0.021673	-0.832875	0.052560	-0.550960
40699	5.093252	-0.466507	-8.462626	0.819941	4.873388	0.913683	-0.509597	0.015475	0.860274	0.046544	0.998870	0.009603	-0.859153	0.044934	-0.509742
40700	5.522041	-0.283716	-8.714815	0.992933	5.044002	0.862470	-0.465236	0.022011	0.884913	0.042068	0.999111	-0.002735	-0.884186	0.035954	-0.465748
40701	5.500030	0.254133	-8.256470	1.164378	5.198759	0.863761	-0.418271	0.029002	0.907859	0.035412	0.999251	-0.015607	-0.907632	0.025621	-0.418984
40702	6.275077	0.489919	-7.942497	1.170598	5.273941	0.847238	-0.369561	0.036340	0.928495	0.027978	0.999217	-0.027972	-0.928785	0.015640	-0.370289
40703	6.950847	0.428469	-7.462733	1.305916	5.312612	0.828706	-0.319479	0.044043	0.946569	0.018547	0.999019	-0.040224	-0.947412	0.004706	-0.319982
40704	8.145736	1.369252	-6.664896	1.398743	5.385017	0.785997	-0.267910	0.051908	0.962045	0.007473	0.998629	-0.051801	-0.963415	-0.006689	-0.267931
40705	9.392964	1.369854	-5.429790	0.853629	5.613516	0.880353	-0.213359	0.061188	0.975056	0.001280	0.998053	-0.062351	-0.976973	-0.012055	-0.213022
40706	8.609923	0.093470	-5.695410	0.642177	5.787910	0.960214	-0.156492	0.071502	0.985088	-0.003266	0.997333	-0.072909	-0.987674	-0.014627	-0.155841
40707	8.251137	-0.542636	-6.517199	0.679584	5.565289	0.871477	-0.101332	0.081039	0.991546	-0.008902	0.996563	-0.082359	-0.994813	-0.017173	-0.100263
40708	9.498144	-0.372139	-5.196932	0.749691	5.232108	0.714491	-0.049253	0.089095	0.994805	-0.015846	0.995818	-0.089970	-0.998661	-0.020195	-0.047635
40709	10.218331	-0.462007	-4.515611	0.620488	5.105438	0.754283	0.001656	0.097635	0.995221	-0.021882	0.994987	-0.097576	-0.999759	-0.021616	0.003784
40710	9.514026	-1.156717	1.475750	0.578860	4.780830	0.846453	0.049225	0.107068	0.993032	-0.027885	0.993997	-0.105790	-0.998398	-0.022484	0.051915
40711	11.081534	-0.385209	-1.320376	0.757317	4.508160	0.990149	0.093871	0.117938	0.988574	-0.036153	0.992708	-0.114998	-0.994928	-0.024945	0.097450
40712	7.433214	-2.243962	-0.447453	0.516790	3.939162	0.757577	0.132686	0.126403	0.983065	-0.042141	0.991657	-0.121820	-0.990262	-0.025264	0.136906
40713	2.893159	-3.643622	0.632844	0.937158	3.218874	0.450578	0.164290	0.131730	0.977577	-0.052072	0.990819	-0.124763	-0.985037	-0.030407	0.169641
40714	0.862641	1.125427	4.459846	1.081128	2.320304	0.278327	0.186939	0.135240	0.973018	-0.063182	0.990083	-0.125473	-0.980338	-0.038022	0.193630
40715	1.816844	2.279633	6.469005	-0.545615	1.137375	0.238659	0.197959	0.137961	0.970453	-0.058301	0.989950	-0.128840	-0.978475	-0.031073	0.204013
40716	2.933382	-2.489006	4.685795	-1.743279	0.066822	0.118823	0.198560	0.139111	0.970166	-0.041469	0.990182	-0.133494	-0.979211	-0.013725	0.202380
40717	2.488998	-5.892244	0.741539	-1.296825	-0.688917	-0.136398	0.191887	0.137673	0.971713	-0.028500	0.990476	-0.134704	-0.981003	-0.001846	0.193983
40718	3.223110	-3.575767	-1.891404	-0.075354	-1.340833	-0.331807	0.178814	0.134313	0.974672	-0.027141	0.990935	-0.131574	-0.983508	-0.002926	0.180838
40719	5.550240	0.210641	-3.361199	-0.145656	-1.904133	-0.417320	0.160193	0.130081	0.978477	-0.025002	0.991495	-0.127718	-0.986769	-0.004004	0.162083
40720	11.950905	-2.150305	-2.156290	-0.873164	-1.817795	-0.276552	0.142291	0.127282	0.981607	-0.015952	0.991864	-0.126299	-0.989696	0.002312	0.143163
40721	16.299462	-5.107904	1.331634	-0.449852	-1.053411	-0.040850	0.131886	0.126888	0.983110	-0.011442	0.991902	-0.126487	-0.991199	0.005433	0.132270
40722	13.658795	-2.059255	3.671679	0.630917	-0.684124	-0.212233	0.125138	0.124754	0.984265	-0.017424	0.992186	-0.123542	-0.991986	-0.001690	0.126334
40723	12.727226	1.776660	3.208950	0.290206	-1.121577	-0.553438	0.114133	0.119190	0.986290	-0.019643	0.992854	-0.117711	-0.993271	-0.005939	0.115658
40724	14.977218	1.805965	0.717186	-0.354329	-1.347572	-0.602787	0.100848	0.113095	0.988453	-0.015473	0.993576	-0.112103	-0.994781	-0.003989	0.101950
40725	12.638128	2.797564	-0.752250	-0.658407	-1.404673	-0.540941	0.086954	0.107666	0.990377	-0.008415	0.994187	-0.107341	-0.996177	0.000999	0.087355
40726	10.690128	1.037346	-2.930906	-1.714676	-1.804953	-0.549640	0.068963	0.102313	0.992359	0.009106	0.994621	-0.103179	-0.997578	0.016152	0.067660
40727	10.032490	-3.265038	-4.509569	-1.835419	-1.821165	-0.681886	0.050681	0.095937	0.994096	0.027824	0.994854	-0.097429	-0.998327	0.032598	0.047750
40728	7.617200	-3.069075	-4.840311	-0.844278	-1.623768	-0.714912	0.034239	0.089367	0.995410	0.036556	0.995216	-0.090607	-0.998745	0.039490	0.030809
40729	9.292504	-0.951042	-5.824385	-0.136759	-1.615440	-0.634089	0.017877	0.083659	0.996334	0.038085	0.995713	-0.084290	-0.999115	0.039452	0.014614
40730	11.792421	0.117537	-5.909537	0.168602	-1.456940	-0.546503	0.003118	0.078728	0.996891	0.036454	0.996225	-0.078789	-0.999330	0.036586	0.000236
40731	11.842919	-0.169945	-6.042072	0.357468	-1.230020	-0.416569	-0.009316	0.074965	0.997143	0.032870	0.996670	-0.074623	-0.999416	0.032081	-0.011749
40732	10.379775	0.507182	-5.234151	0.480012	-1.063746	-0.332194	-0.020045	0.071924	0.997209	0.028019	0.997058	-0.071350	-0.999406	0.026510	-0.022001
40733	9.921125	0.574091	-4.182859	0.255411	-1.040870	-0.283505	-0.030526	0.069321	0.997127	0.025399	0.997324	-0.068557	-0.999211	0.023233	-0.032205
40734	9.838803	0.496473	-2.781395	0.067478	-0.993874	-0.266279	-0.040519	0.066848	0.996940	0.024624	0.997523	-0.065886	-0.998875	0.021879	-0.042064
40735	9.876406	0.300583	-2.034745	-0.034809	-0.933502	-0.252704	-0.049913	0.064493	0.996669	0.024861	0.997684	-0.063314	-0.998444	0.021618	-0.051401
40736	9.581093	-0.041979	-1.756255	-0.105815	-0.887392	-0.267266	-0.058835	0.061979	0.996342	0.025766	0.997833	-0.060550	-0.997935	0.022109	-0.060304
40737	9.317890	-0.642319	-1.456253	-0.023384	-0.857596	-0.303096	-0.067480	0.059106	0.995968	0.025811	0.998013	-0.057478	-0.997387	0.021828	-0.068871
40738	9.170746	-1.169984	-1.379053	0.060105	-0.840913	-0.336782	-0.075947	0.055881	0.995545	0.024963	0.998222	-0.054127	-0.996799	0.020741	-0.077207
40739	9.350047	-0.788258	-1.201850	0.259094	-0.825645	-0.342728	-0.084267	0.052582	0.995055	0.022110	0.998460	-0.050890	-0.996198	0.017712	-0.085300
40740	9.407196	-0.469290	-0.788448	0.253942	-0.836754	-0.355673	-0.092670	0.049125	0.994484	0.019258	0.998684	-0.047538	-0.995511	0.014747	-0.093494
40741	9.456753	-0.579289	-0.458153	0.243392	-0.878327	-0.383318	-0.101491	0.045377	0.993801	0.016467	0.998899	-0.043928	-0.994700	0.011907	-0.102126
40742	9.462064	-0.600304	-0.054989	0.391421	-0.900892	-0.410728	-0.110503	0.041320	0.993017	0.012131	0.999117	-0.040224	-0.993802	0.007602	-0.110906
40743	9.574512	0.030314	0.395063	0.488463	-0.902762	-0.414050	-0.119520	0.037193	0.992135	0.006805	0.999305	-0.036642	-0.992808	0.002372	-0.119690
40744	9.481991	0.370758	0.435919	0.384390	-0.909355	-0.392538	-0.128557	0.033231	0.991145	0.002494	0.999446	-0.033186	-0.991699	-0.001794	-0.128569
40745	9.272933	0.596899	0.090768	0.294385	-0.951359	-0.375150	-0.137997	0.029412	0.989996	-0.000924	0.999555	-0.029825	-0.990432	-0.005031	-0.137908
40746	9.539178	0.777779	-0.843824	0.169494	-0.949445	-0.346044	-0.147383	0.025855	0.988742	-0.003106	0.999641	-0.026603	-0.989075	-0.006992	-0.147249
40747	9.671574	0.641231	-2.063015	0.082445	-0.906610	-0.301117	-0.156339	0.022738	0.987442	-0.004382	0.999709	-0.023714	-0.987694	-0.008034	-0.156194
40748	9.587031	1.071300	-2.894001	-0.011807	-0.873980	-0.257188	-0.164949	0.020055	0.986098	-0.004689	0.999766	-0.021117	-0.986291	-0.008107	-0.164816
40749	9.660739	0.326044	-3.910163	-0.186585	-0.849384	-0.223220	-0.173319	0.017722	0.984706	-0.003233	0.999822	-0.018563	-0.984860	-0.006401	-0.173231
40750	9.981794	0.069542	-4.178810	0.015232	-0.793308	-0.185438	-0.181116	0.015774	0.983335	-0.003723	0.999853	-0.016725	-0.983455	-0.006690	-0.181030
40751	9.881317	0.619774	-3.995632	0.062256	-0.711451	-0.130167	-0.188114	0.014383	0.982042	-0.004580	0.999869	-0.015521	-0.982137	-0.007417	-0.188023
40752	9.818839	0.377054	-3.617216	-0.033293	-0.680897	-0.118410	-0.194787	0.013108	0.980758	-0.004492	0.999888	-0.014255	-0.980835	-0.007182	-0.194706
40753	9.956622	0.144785	-3.140194	0.026914	-0.660603	-0.104156	-0.201271	0.011977	0.979462	-0.004967	0.999900	-0.013247	-0.979523	-0.007531	-0.201192
40754	9.990974	0.176807	-2.489960	0.020327	-0.619258	-0.099404	-0.207323	0.010894	0.978212	-0.005382	0.999910	-0.012276	-0.978258	-0.007809	-0.207246
40755	9.691373	-0.199579	-2.024677	-0.039840	-0.600212	-0.107449	-0.213201	0.009732	0.976960	-0.005223	0.999925	-0.011101	-0.976994	-0.007469	-0.213134
40756	9.675780	-0.147521	-1.510620	-0.036951	-0.618129	-0.094841	-0.219226	0.008697	0.975635	-0.005081	0.999937	-0.010056	-0.975661	-0.007161	-0.219168
40757	9.664496	-0.026873	-1.152624	-0.023808	-0.607615	-0.086679	-0.225161	0.007747	0.974291	-0.005047	0.999946	-0.009117	-0.974309	-0.006970	-0.225109
40758	9.228145	0.143826	-0.820778	-0.059062	-0.628349	-0.087540	-0.231269	0.006788	0.972866	-0.004685	0.999956	-0.008090	-0.972878	-0.006429	-0.231227
40759	9.258252	-0.436047	-1.048755	-0.090043	-0.681470	-0.114566	-0.237902	0.005560	0.971273	-0.004086	0.999969	-0.006725	-0.971281	-0.005569	-0.237872
40760	9.209326	-0.602285	-1.450651	0.077608	-0.673866	-0.134316	-0.244431	0.004135	0.969658	-0.005178	0.999971	-0.005569	-0.969653	-0.006382	-0.244402
40761	9.118540	-0.028331	-1.724000	0.125138	-0.715720	-0.134777	-0.251368	0.002696	0.967888	-0.006732	0.999967	-0.004534	-0.967868	-0.007656	-0.251341
40762	9.526559	-0.088011	-2.190685	0.099300	-0.739733	-0.112723	-0.258507	0.001467	0.966008	-0.007995	0.999961	-0.003658	-0.965976	-0.008668	-0.258486
40763	9.450818	0.010893	-2.465200	0.155276	-0.738710	-0.099592	-0.265638	0.000361	0.964073	-0.009763	0.999948	-0.003065	-0.964024	-0.010226	-0.265620
40764	9.574104	0.080626	-2.630165	0.150047	-0.740400	-0.081113	-0.272754	-0.000573	0.962084	-0.011442	0.999931	-0.002648	-0.962016	-0.011730	-0.272742
40765	9.516419	-0.044244	-2.793171	0.189657	-0.738336	-0.071935	-0.279851	-0.001426	0.960042	-0.013473	0.999906	-0.002442	-0.959949	-0.013618	-0.279844
40766	9.348502	0.132847	-2.761432	0.181204	-0.731732	-0.046905	-0.286856	-0.002043	0.957972	-0.015359	0.999879	-0.002467	-0.957851	-0.015422	-0.286852
40767	9.157371	0.495800	-2.288926	0.203482	-0.760981	-0.038467	-0.294140	-0.002593	0.955759	-0.017428	0.999845	-0.002651	-0.955603	-0.017437	-0.294140
40768	9.255907	0.586138	-1.697777	0.066329	-0.795029	-0.032089	-0.301717	-0.003097	0.953392	-0.018174	0.999832	-0.002504	-0.953224	-0.018082	-0.301723
40769	9.195668	0.054529	-1.375265	-0.044266	-0.825887	-0.046662	-0.309580	-0.003752	0.950866	-0.017907	0.999838	-0.001884	-0.950705	-0.017611	-0.309597
40770	8.910271	-0.593992	-1.441603	-0.021952	-0.867014	-0.080205	-0.317791	-0.004747	0.948149	-0.017968	0.999838	-0.001016	-0.947990	-0.017359	-0.317825
40771	8.855522	-0.453765	-1.239396	0.072087	-0.930507	-0.097166	-0.326587	-0.005925	0.945149	-0.018976	0.999820	-0.000289	-0.944977	-0.018030	-0.326640
40772	8.893267	-0.163110	-1.528002	0.096768	-0.977510	-0.092858	-0.335785	-0.007076	0.941912	-0.020215	0.999796	0.000304	-0.941722	-0.018939	-0.335859
40773	9.066971	0.376617	-2.051925	0.072012	-1.023952	-0.093357	-0.345394	-0.008247	0.938421	-0.021225	0.999774	0.000974	-0.938218	-0.019581	-0.345491
40774	9.168877	0.614504	-2.829684	0.030870	-1.051275	-0.092135	-0.355213	-0.009417	0.934738	-0.021855	0.999760	0.001767	-0.934530	-0.019801	-0.355334
40775	9.609556	0.296665	-3.330463	-0.019414	-1.084821	-0.098934	-0.365311	-0.010661	0.930824	-0.022048	0.999753	0.002798	-0.930624	-0.019500	-0.365456
40776	9.798705	-0.112185	-4.170082	0.109012	-1.066195	-0.089403	-0.375187	-0.011810	0.926874	-0.023410	0.999721	0.003262	-0.926654	-0.020475	-0.375358
40777	9.517342	0.524752	-4.462236	0.244323	-1.033191	-0.038070	-0.384733	-0.012456	0.922944	-0.025832	0.999663	0.002723	-0.922666	-0.022794	-0.384925
40778	9.352879	0.870083	-4.712081	0.220172	-1.036158	0.027308	-0.394274	-0.012471	0.918908	-0.027773	0.999613	0.001650	-0.918573	-0.024870	-0.394468
40779	9.316604	1.016572	-4.456696	0.141667	-1.035271	0.080210	-0.403788	-0.011977	0.914774	-0.028770	0.999586	0.000388	-0.914400	-0.026162	-0.403966
40780	9.541204	0.740896	-4.098292	0.104879	-1.027685	0.111297	-0.413191	-0.011179	0.910576	-0.029293	0.999570	-0.001020	-0.910173	-0.027096	-0.413341
40781	9.359416	0.360155	-3.601280	0.015678	-1.035092	0.125698	-0.422629	-0.010249	0.906245	-0.028931	0.999579	-0.002188	-0.905841	-0.027143	-0.422747
40782	9.303055	0.012229	-3.136502	0.009905	-1.072996	0.124941	-0.432355	-0.009332	0.901655	-0.028508	0.999588	-0.003324	-0.901253	-0.027142	-0.432443
40783	9.240243	-0.101510	-2.249539	-0.076258	-1.136746	0.124393	-0.442608	-0.008438	0.896676	-0.027301	0.999619	-0.004069	-0.896300	-0.026281	-0.442670
40784	9.076970	-0.869072	-1.451340	-0.220070	-1.241489	0.091719	-0.453720	-0.007874	0.891109	-0.024946	0.999681	-0.003868	-0.890795	-0.023984	-0.453772
40785	9.032216	-1.577555	-0.614665	-0.260659	-1.355756	0.026556	-0.465760	-0.007961	0.884875	-0.022534	0.999742	-0.002867	-0.884624	-0.021275	-0.465819
40786	9.049287	-1.946319	0.293326	-0.214386	-1.504077	-0.048083	-0.478997	-0.008786	0.877772	-0.020896	0.999781	-0.001395	-0.877568	-0.019010	-0.479076
40787	9.326009	-2.623601	0.232170	-0.236950	-1.636760	-0.132317	-0.493263	-0.010442	0.869818	-0.019494	0.999810	0.000948	-0.869662	-0.016489	-0.493372
40788	9.161448	-2.131175	-0.719504	0.139512	-1.706647	-0.199280	-0.507986	-0.012768	0.861271	-0.021724	0.999762	0.002008	-0.861091	-0.017690	-0.508142
40789	9.069833	-0.463207	-1.212211	0.363572	-1.817030	-0.250047	-0.523474	-0.015659	0.851898	-0.026154	0.999655	0.002304	-0.851640	-0.021074	-0.523703
40790	9.592837	0.341123	-2.665228	0.283601	-1.879042	-0.258423	-0.539305	-0.018703	0.841903	-0.029954	0.999547	0.003018	-0.841578	-0.023591	-0.539621
40791	10.040428	0.352835	-4.648870	0.117114	-1.886543	-0.289833	-0.554976	-0.022093	0.831573	-0.032549	0.999458	0.004831	-0.831229	-0.024386	-0.555395
40792	10.341426	0.736974	-7.190563	0.236200	-1.823699	-0.293535	-0.569935	-0.025530	0.821293	-0.036178	0.999328	0.005959	-0.820893	-0.026317	-0.570476
40793	10.820910	1.800659	-7.980897	0.424674	-1.793531	-0.236368	-0.584454	-0.028440	0.810928	-0.041038	0.999143	0.005463	-0.810388	-0.030086	-0.585120
40794	11.468795	0.802761	-8.446062	0.271208	-1.788468	-0.112376	-0.598800	-0.030161	0.800331	-0.043915	0.999024	0.004793	-0.799694	-0.032276	-0.599540
40795	11.235100	0.040203	-7.864394	0.513608	-1.740567	-0.038347	-0.612589	-0.031190	0.789786	-0.048261	0.998833	0.002013	-0.788927	-0.036883	-0.613380
40796	11.037042	0.135930	-6.394323	0.735432	-1.618773	0.074290	-0.625309	-0.031142	0.779756	-0.053594	0.998558	-0.003098	-0.778535	-0.043728	-0.626076
40797	10.394442	0.709106	-4.635701	0.912481	-1.507236	0.144684	-0.637030	-0.030466	0.770237	-0.059775	0.998162	-0.009956	-0.768518	-0.052383	-0.637680
40798	10.330178	1.731767	-3.184768	0.900668	-1.415019	0.177455	-0.647941	-0.029539	0.761117	-0.065544	0.997704	-0.017077	-0.758865	-0.060952	-0.648390
40799	10.575271	2.903097	-1.943675	0.521750	-1.262357	0.211929	-0.657584	-0.028273	0.752850	-0.068138	0.997432	-0.022058	-0.750294	-0.065803	-0.657822
40800	10.197991	3.498399	-1.355928	-0.074636	-1.250487	0.171985	-0.667025	-0.027414	0.744531	-0.066473	0.997527	-0.022823	-0.742064	-0.064715	-0.667198
40801	9.721268	3.074180	-1.020506	-0.599689	-1.556573	0.076712	-0.678515	-0.027663	0.734065	-0.061585	0.997915	-0.019318	-0.732000	-0.058315	-0.678804
40802	10.477124	1.559378	-1.351139	-1.101349	-1.793236	0.019131	-0.691543	-0.028456	0.721775	-0.053487	0.998498	-0.011881	-0.720352	-0.046822	-0.692026
40803	10.507183	-0.543994	-1.980813	-1.218579	-2.039353	-0.072455	-0.706022	-0.030068	0.707551	-0.045353	0.998967	-0.002803	-0.706736	-0.034068	-0.706657
40804	11.445778	-1.879429	-2.655156	-0.997362	-2.221063	-0.183742	-0.721466	-0.032583	0.691683	-0.039725	0.999195	0.005634	-0.691310	-0.023412	-0.722179
40805	12.036932	-1.866043	-3.254241	-0.677727	-2.273956	-0.241161	-0.736867	-0.035504	0.675105	-0.036910	0.999243	0.012264	-0.675030	-0.015881	-0.737620
40806	12.052030	-1.388858	-3.933102	-0.416026	-2.225289	-0.290102	-0.751595	-0.038742	0.658486	-0.036328	0.999190	0.017322	-0.658623	-0.010903	-0.752394
40807	11.563618	-0.676421	-5.015323	-0.298364	-2.121740	-0.341318	-0.765229	-0.042406	0.642360	-0.037034	0.999075	0.021837	-0.642692	-0.007079	-0.766092
40808	10.593510	-0.708345	-6.132299	-0.344308	-1.968235	-0.397719	-0.777577	-0.046518	0.627064	-0.037950	0.998914	0.027044	-0.627641	-0.002769	-0.778498
40809	9.527074	-1.476483	-7.568996	-0.407484	-1.765813	-0.445863	-0.788318	-0.051040	0.613147	-0.038971	0.998694	0.033029	-0.614032	0.002143	-0.789278
40810	8.614310	-2.410572	-8.340492	-0.398937	-1.496607	-0.499793	-0.797217	-0.056005	0.601089	-0.040543	0.998406	0.039252	-0.602329	0.006923	-0.798218
40811	8.106435	-2.443659	-9.499246	-0.091119	-1.176045	-0.582513	-0.803947	-0.061789	0.591482	-0.044720	0.998053	0.043478	-0.593017	0.008503	-0.805145
40812	8.473812	-1.403888	-9.497234	0.178557	-0.815935	-0.628397	-0.808453	-0.068037	0.584614	-0.050875	0.997656	0.045752	-0.586357	0.007246	-0.810020
40813	8.043611	-0.513427	-8.541124	0.113225	-0.373442	-0.586001	-0.810272	-0.073913	0.581375	-0.056336	0.997244	0.048268	-0.583340	0.006358	-0.812203
40814	8.370664	-0.848447	-7.780851	-0.126384	0.114186	-0.466934	-0.809330	-0.078618	0.582069	-0.059416	0.996876	0.052031	-0.584342	0.007526	-0.811473
40815	8.322204	-0.703654	-8.076008	-0.223598	0.725381	-0.369723	-0.804792	-0.082418	0.587806	-0.061141	0.996556	0.056020	-0.590399	0.009146	-0.807060
40816	7.330117	-0.685787	-9.029377	-0.318316	1.200040	-0.320167	-0.797446	-0.085773	0.597262	-0.061847	0.996251	0.060496	-0.600212	0.011303	-0.799761
40817	6.953510	-1.162931	-9.696296	-0.269880	1.580766	-0.239884	-0.787652	-0.088403	0.609745	-0.062163	0.996005	0.064104	-0.612977	0.012588	-0.790001
40818	6.744918	-1.580690	-9.936985	0.095246	2.023516	-0.148685	-0.774989	-0.090152	0.625511	-0.063951	0.995880	0.064298	-0.628731	0.009828	-0.777561
40819	6.246765	-0.600429	-9.156764	0.426100	2.473404	-0.050773	-0.759114	-0.090867	0.644585	-0.067108	0.995858	0.061353	-0.647490	0.003317	-0.762067
40820	6.077746	-0.142073	-8.733693	0.408002	2.887374	0.052782	-0.740138	-0.090382	0.666353	-0.069432	0.995901	0.057960	-0.668860	-0.003368	-0.743380
40821	5.418032	-0.337264	-8.811916	0.389543	3.276767	0.123976	-0.717858	-0.088967	0.690481	-0.071226	0.995982	0.054280	-0.692536	-0.010215	-0.721311
40822	5.278684	-0.381700	-8.970319	0.440360	3.593605	0.184949	-0.692646	-0.086663	0.716053	-0.073059	0.996079	0.049883	-0.717568	-0.017763	-0.696262
40823	5.338890	-0.091734	-9.194236	0.560718	3.923701	0.269763	-0.664110	-0.083141	0.742998	-0.075369	0.996180	0.044105	-0.743826	-0.026709	-0.667839
40824	5.481457	-0.218882	-9.516045	0.649279	4.222931	0.427502	-0.632446	-0.077587	0.770709	-0.077546	0.996314	0.036664	-0.770713	-0.036577	-0.636132
40825	4.875871	-0.419965	-9.415236	0.864083	4.516944	0.585693	-0.597417	-0.069862	0.798882	-0.080760	0.996375	0.026738	-0.797854	-0.048544	-0.600893
40826	4.148004	-0.193012	-9.059092	0.990176	4.820814	0.640232	-0.558818	-0.060868	0.827054	-0.085122	0.996245	0.015806	-0.824910	-0.061568	-0.561901
40827	4.175837	-0.021339	-9.838469	0.876899	5.076891	0.759948	-0.516855	-0.049906	0.854617	-0.088420	0.996072	0.004692	-0.851495	-0.073140	-0.519237
40828	3.878939	-0.575047	-9.443119	0.862096	5.189912	0.819722	-0.472737	-0.037703	0.880397	-0.091838	0.995752	-0.006670	-0.876405	-0.084007	-0.474191
40829	4.245036	-0.310908	-8.169489	1.025879	5.393224	0.834177	-0.425567	-0.024572	0.904593	-0.097232	0.995086	-0.018713	-0.899688	-0.095919	-0.425865
40830	4.511446	0.270469	-7.297352	0.908960	5.659413	0.855485	-0.374865	-0.010386	0.927021	-0.102107	0.994316	-0.030149	-0.921439	-0.105957	-0.373795
40831	4.536489	0.071102	-7.727372	0.707142	5.812881	0.811867	-0.321518	0.004030	0.946895	-0.105889	0.993566	-0.040184	-0.940964	-0.113186	-0.319022
40832	5.103814	-0.512675	-9.542719	0.606700	5.849500	0.755887	-0.266781	0.018279	0.963584	-0.109442	0.992778	-0.049133	-0.957523	-0.118565	-0.262853
40833	6.550542	-0.729771	-11.069025	0.692910	5.774793	0.732648	-0.211876	0.032531	0.976755	-0.114387	0.991751	-0.057843	-0.970579	-0.123983	-0.206407
40834	8.573434	-0.146268	-7.770814	0.978125	5.663675	0.759507	-0.157517	0.047253	0.986385	-0.122537	0.990200	-0.067004	-0.979884	-0.131423	-0.150183
40835	9.005979	1.515580	-5.079359	1.173283	5.787318	0.974576	-0.101837	0.064720	0.992694	-0.132816	0.988063	-0.078043	-0.985895	-0.139794	-0.092025
40836	8.001743	2.032947	-3.766764	0.558903	5.605228	1.137850	-0.047991	0.083792	0.995327	-0.137493	0.986435	-0.089673	-0.989339	-0.141154	-0.035819
40837	8.352127	0.089473	-0.128755	-0.281884	5.125632	1.082607	0.001318	0.101483	0.994836	-0.134453	0.985822	-0.100385	-0.990919	-0.133626	0.014944
40838	11.590066	-3.013960	-0.623728	-0.868323	4.717708	1.046145	0.046723	0.117739	0.991945	-0.126102	0.985780	-0.111067	-0.990916	-0.119896	0.060906
40839	7.484045	-5.229151	0.543098	-0.568235	3.985737	0.814151	0.085198	0.130302	0.987807	-0.121013	0.985426	-0.119550	-0.988988	-0.109352	0.099725
40840	4.067648	-2.952530	1.784182	0.464653	2.991466	0.601229	0.113999	0.139462	0.983643	-0.126199	0.984110	-0.124903	-0.985433	-0.109896	0.129788
40841	4.332322	3.005652	4.116493	0.246803	1.946148	0.409799	0.132647	0.145603	0.980410	-0.129128	0.983260	-0.128555	-0.982716	-0.109546	0.149228
40842	4.343100	3.095389	3.612134	-1.098258	0.858967	0.223629	0.140822	0.148651	0.978811	-0.118639	0.984073	-0.132382	-0.982901	-0.097483	0.156215
40843	3.277222	-1.621001	0.963567	-1.739132	-0.162399	-0.012925	0.139263	0.148348	0.979081	-0.101508	0.985645	-0.134905	-0.985039	-0.080597	0.152322
40844	3.265297	-4.531696	-2.458999	-0.912654	-0.984785	-0.347330	0.129896	0.144125	0.980997	-0.092039	0.986860	-0.132800	-0.987247	-0.073040	0.141454
40845	5.395984	-2.279606	-4.295997	0.138571	-1.560425	-0.583576	0.115037	0.137169	0.983845	-0.092691	0.987581	-0.126852	-0.989027	-0.076601	0.126322
40846	13.116542	-2.380247	0.787714	-0.081831	-1.561382	-0.505052	0.100053	0.130933	0.986330	-0.091337	0.988327	-0.121932	-0.990781	-0.077889	0.110844
40847	17.758600	-3.927820	3.257784	0.202443	-0.834075	-0.079923	0.091877	0.129454	0.987320	-0.093262	0.988274	-0.120901	-0.991393	-0.080972	0.102873
40848	13.267447	2.012487	3.735633	0.274735	-0.908839	-0.281724	0.083139	0.125876	0.988556	-0.095741	0.988411	-0.117805	-0.991928	-0.084851	0.094227
40849	11.971761	1.969620	0.289389	-1.175160	-1.380648	-0.499909	0.069897	0.119800	0.990334	-0.083687	0.989967	-0.113849	-0.994038	-0.074920	0.079221
40850	11.636209	-0.508874	-2.483044	-1.121392	-1.405745	-0.514369	0.056319	0.113677	0.991920	-0.072207	0.991359	-0.109513	-0.995798	-0.065456	0.064041
40851	10.905149	0.330485	-4.730114	-1.090087	-1.502808	-0.534092	0.041714	0.107433	0.993337	-0.061082	0.992617	-0.104790	-0.997261	-0.056303	0.047968
40852	10.696454	0.049211	-4.754734	-1.278709	-1.485022	-0.551993	0.027203	0.101156	0.994499	-0.048134	0.993845	-0.099772	-0.998470	-0.045155	0.031905
40853	9.059560	-0.958079	-4.477651	-1.023670	-1.369243	-0.578417	0.013780	0.094812	0.995400	-0.037790	0.994833	-0.094235	-0.999191	-0.036317	0.017292
40854	8.880230	0.232357	-4.481494	-0.595802	-1.290249	-0.596153	0.001099	0.088400	0.996084	-0.031795	0.995585	-0.088320	-0.999494	-0.031574	0.003905
40855	10.062157	0.321178	-4.328997	-0.557207	-1.199811	-0.521791	-0.010746	0.082816	0.996507	-0.026248	0.996198	-0.083074	-0.999598	-0.027049	-0.008531
40856	10.557485	-0.539188	-4.585778	-0.526013	-1.053718	-0.451830	-0.021166	0.078011	0.996728	-0.021067	0.996695	-0.078456	-0.999554	-0.022659	-0.019453
40857	10.020938	-1.769886	-4.594868	-0.495320	-0.947872	-0.446622	-0.030569	0.073327	0.996839	-0.016229	0.997138	-0.073847	-0.999401	-0.018435	-0.029291
40858	10.998408	-1.853956	-3.444189	-0.366684	-0.900368	-0.347444	-0.039510	0.069668	0.996787	-0.012692	0.997451	-0.070217	-0.999139	-0.015426	-0.038525
40859	10.603697	-0.465553	-1.763127	-0.485755	-0.829170	-0.240947	-0.047788	0.067120	0.996600	-0.007939	0.997683	-0.067573	-0.998826	-0.011141	-0.047144
40860	9.859734	-0.579762	-1.095263	-0.744490	-0.814475	-0.244721	-0.055906	0.064574	0.996346	-0.000637	0.997904	-0.064710	-0.998436	-0.004253	-0.055748
40861	9.284263	-0.768982	-1.004389	-0.641367	-0.794617	-0.324446	-0.063867	0.061290	0.996075	0.005576	0.998119	-0.061058	-0.997943	0.001654	-0.064088
40862	9.178630	-0.525911	-0.799183	-0.407690	-0.794426	-0.395915	-0.071818	0.057324	0.995769	0.009367	0.998342	-0.056796	-0.997374	0.005249	-0.072236
40863	9.362841	-0.342612	-0.719425	-0.262268	-0.791082	-0.421059	-0.079772	0.053135	0.995396	0.011668	0.998560	-0.052369	-0.996745	0.007437	-0.080277
40864	9.230629	-0.383563	-0.763420	-0.185255	-0.795875	-0.478672	-0.087757	0.048378	0.994966	0.013105	0.998790	-0.047408	-0.996056	0.008879	-0.088285
40865	9.101441	-0.783558	-0.905935	-0.096312	-0.823050	-0.518214	-0.096043	0.043242	0.994437	0.013592	0.999020	-0.042129	-0.995284	0.009470	-0.096537
40866	9.139109	-0.930411	-0.918042	0.080327	-0.866612	-0.546942	-0.104731	0.037813	0.993781	0.012235	0.999250	-0.036732	-0.994425	0.008312	-0.105115
40867	9.520672	-0.830699	-0.971517	0.178658	-0.877640	-0.549640	-0.113537	0.032350	0.993007	0.009862	0.999457	-0.031433	-0.993485	0.006224	-0.113795
40868	9.532628	-0.487979	-1.316667	0.313751	-0.865240	-0.559691	-0.122169	0.026753	0.992149	0.006078	0.999638	-0.026207	-0.992491	0.002828	-0.122288
40869	9.507961	-0.030628	-1.622465	0.353658	-0.854002	-0.555219	-0.130685	0.021178	0.991198	0.001870	0.999775	-0.021115	-0.991422	-0.000906	-0.130695
40870	9.595015	0.129628	-1.877788	0.328740	-0.850999	-0.536945	-0.139112	0.015745	0.990152	-0.002122	0.999867	-0.016198	-0.990274	-0.004354	-0.139060
40871	9.715075	0.385991	-1.992021	0.321372	-0.843502	-0.510390	-0.147461	0.010558	0.989012	-0.006032	0.999915	-0.011574	-0.989049	-0.007673	-0.147385
40872	9.833733	0.269278	-2.087799	0.212161	-0.816816	-0.491730	-0.155493	0.005528	0.987822	-0.008885	0.999936	-0.006994	-0.987797	-0.009864	-0.155434
40873	9.559225	-0.385451	-2.188125	0.172462	-0.829391	-0.493643	-0.163653	0.000469	0.986518	-0.011375	0.999933	-0.002362	-0.986452	-0.011608	-0.163637
40874	9.795669	-0.165929	-2.018118	0.371270	-0.844352	-0.494821	-0.171904	-0.004634	0.985103	-0.015876	0.999872	0.001933	-0.984986	-0.015307	-0.171955
40875	9.965314	0.554176	-2.030430	0.440774	-0.809834	-0.464915	-0.179812	-0.009457	0.983655	-0.021032	0.999762	0.005767	-0.983476	-0.019652	-0.179968
40876	9.635796	1.153067	-2.066188	0.375390	-0.775226	-0.426436	-0.187326	-0.013928	0.982199	-0.025516	0.999631	0.009309	-0.981966	-0.023318	-0.187612
40877	9.475342	1.001517	-2.433188	0.240878	-0.765282	-0.388737	-0.194753	-0.018036	0.980686	-0.028624	0.999510	0.012698	-0.980434	-0.025599	-0.195174
40878	9.458387	0.706705	-2.582271	0.226912	-0.754895	-0.378213	-0.202029	-0.022059	0.979131	-0.031610	0.999372	0.015992	-0.978869	-0.027720	-0.202599
40879	9.713159	0.656424	-2.618868	0.299203	-0.738494	-0.350662	-0.209159	-0.025814	0.977541	-0.035261	0.999201	0.018841	-0.977246	-0.030528	-0.209902
40880	9.775709	0.531181	-2.491418	0.255366	-0.711750	-0.332121	-0.215980	-0.029399	0.975955	-0.038474	0.999027	0.021580	-0.975639	-0.032888	-0.216901
40881	9.710185	0.528206	-2.469833	0.323916	-0.700709	-0.308935	-0.222711	-0.032763	0.974334	-0.042313	0.998818	0.023914	-0.973966	-0.035901	-0.223834
40882	9.564086	0.761871	-2.358555	0.333305	-0.679232	-0.276067	-0.229192	-0.035816	0.972722	-0.046194	0.998597	0.025884	-0.972284	-0.039002	-0.230525
40883	9.216103	0.911994	-2.205709	0.366952	-0.666354	-0.268332	-0.235560	-0.038803	0.971085	-0.050388	0.998346	0.027670	-0.970553	-0.042413	-0.237126
40884	9.520677	1.405574	-1.882413	0.322403	-0.680088	-0.243560	-0.242021	-0.041574	0.969380	-0.054110	0.998105	0.029297	-0.968761	-0.045362	-0.243812
40885	9.458855	0.962015	-2.309459	0.183198	-0.652522	-0.216516	-0.248241	-0.044075	0.967695	-0.056421	0.997926	0.030979	-0.967054	-0.046908	-0.250213
40886	9.271309	0.841817	-2.607678	0.155780	-0.640234	-0.213733	-0.254297	-0.046554	0.966005	-0.058478	0.997753	0.032690	-0.965357	-0.048177	-0.256448
40887	9.254337	0.195325	-2.933131	0.149430	-0.642764	-0.209563	-0.260395	-0.048998	0.964258	-0.060466	0.997579	0.034362	-0.963607	-0.049357	-0.262727
40888	9.430569	0.168851	-2.472040	0.237171	-0.651180	-0.216539	-0.266523	-0.051527	0.962450	-0.063335	0.997348	0.035857	-0.961745	-0.051400	-0.269080
40889	9.499171	0.145225	-2.112526	0.297954	-0.660823	-0.206942	-0.272760	-0.053979	0.960567	-0.066765	0.997080	0.037073	-0.959763	-0.054020	-0.275568
40890	9.314102	0.563159	-1.775357	0.306342	-0.673807	-0.166225	-0.279099	-0.056050	0.958625	-0.070176	0.996816	0.037852	-0.957695	-0.056708	-0.282144
40891	9.223751	0.829388	-1.654780	0.253347	-0.701417	-0.163237	-0.285714	-0.058122	0.956551	-0.073070	0.996575	0.038729	-0.955525	-0.058830	-0.288982
40892	9.198030	0.845235	-1.794317	0.134165	-0.727777	-0.153617	-0.292539	-0.060126	0.954362	-0.074811	0.996401	0.039842	-0.953323	-0.059741	-0.295984
40893	9.066737	0.784973	-1.970536	0.062090	-0.742827	-0.140399	-0.299525	-0.062009	0.952071	-0.075829	0.996276	0.041032	-0.951070	-0.059904	-0.303112
40894	9.033504	0.766079	-2.196730	0.033522	-0.792152	-0.133959	-0.306940	-0.063859	0.949584	-0.076571	0.996169	0.042241	-0.948644	-0.059745	-0.310654
40895	9.257403	0.866756	-2.493885	0.004623	-0.809586	-0.128620	-0.314529	-0.065663	0.946974	-0.077026	0.996080	0.043484	-0.946118	-0.059265	-0.318354
40896	9.054109	0.950745	-2.793777	-0.010375	-0.813994	-0.119112	-0.322120	-0.067370	0.944299	-0.077325	0.996004	0.044682	-0.943536	-0.058625	-0.326042
40897	9.031243	1.068979	-3.053922	-0.027265	-0.839308	-0.117150	-0.329954	-0.069068	0.941467	-0.077464	0.995937	0.045915	-0.940813	-0.057780	-0.333963
40898	9.270510	1.017523	-3.200626	-0.011878	-0.843303	-0.100537	-0.337790	-0.070594	0.938570	-0.077706	0.995871	0.046938	-0.938008	-0.057077	-0.341881
40899	9.512800	0.856531	-3.251431	0.003397	-0.854889	-0.097938	-0.345736	-0.072099	0.935558	-0.078088	0.995796	0.047883	-0.935077	-0.056500	-0.349913
40900	9.580520	0.601561	-3.254309	0.048132	-0.854493	-0.064349	-0.353655	-0.073263	0.932502	-0.078781	0.995719	0.048351	-0.932052	-0.056363	-0.357913
40901	9.511507	0.762167	-3.200301	0.090371	-0.871064	-0.040804	-0.361743	-0.074205	0.929320	-0.079784	0.995634	0.048444	-0.928858	-0.056620	-0.366084
40902	9.569670	0.688814	-3.000025	0.030804	-0.895306	-0.030074	-0.370013	-0.075051	0.925990	-0.080199	0.995591	0.048645	-0.925559	-0.056264	-0.374400
40903	9.519963	0.415754	-2.743495	0.036475	-0.933540	-0.023680	-0.378631	-0.075854	0.922434	-0.080642	0.995550	0.048766	-0.922028	-0.055922	-0.383063
40904	9.607455	0.486789	-2.244859	0.046334	-0.982614	-0.016115	-0.387652	-0.076604	0.918617	-0.081150	0.995508	0.048771	-0.918227	-0.055639	-0.392127
40905	9.376803	-0.017483	-1.989135	-0.010354	-1.041519	-0.020187	-0.397189	-0.077424	0.914465	-0.081152	0.995495	0.049036	-0.914142	-0.054734	-0.401683
40906	9.090896	-0.007010	-1.406540	0.041495	-1.125871	-0.041377	-0.407414	-0.078490	0.909864	-0.081718	0.995436	0.049281	-0.909580	-0.054275	-0.411969
40907	9.160459	0.051889	-1.263626	-0.007524	-1.217975	-0.048607	-0.418429	-0.079672	0.904748	-0.081870	0.995398	0.049791	-0.904552	-0.053238	-0.423027
40908	9.373483	0.278845	-2.338951	-0.027413	-1.245490	-0.068206	-0.429600	-0.081047	0.899375	-0.081934	0.995355	0.050560	-0.899295	-0.051969	-0.434244
40909	8.955813	0.543495	-3.805469	-0.079550	-1.224014	-0.088623	-0.440505	-0.082597	0.893942	-0.081627	0.995319	0.051741	-0.894031	-0.050178	-0.445186
40910	8.550577	0.289101	-4.930299	0.011381	-1.274463	-0.118108	-0.451759	-0.084447	0.888134	-0.082278	0.995211	0.052777	-0.888338	-0.049231	-0.456544
40911	8.732259	0.652226	-5.465948	0.191924	-1.284213	-0.109108	-0.463040	-0.086212	0.882134	-0.084498	0.995019	0.052891	-0.882300	-0.050048	-0.468019
40912	8.793043	0.782998	-5.707381	0.273132	-1.240324	-0.080300	-0.473870	-0.087683	0.876219	-0.087299	0.994806	0.052338	-0.876257	-0.051691	-0.479063
40913	8.377247	0.735685	-5.622113	0.389054	-1.241163	-0.062063	-0.484655	-0.089002	0.870166	-0.091016	0.994541	0.051030	-0.869957	-0.054467	-0.490110
40914	8.570507	0.740017	-5.053533	0.510268	-1.263220	-0.033956	-0.495563	-0.090094	0.863887	-0.095629	0.994219	0.048829	-0.863292	-0.058414	-0.501314
40915	8.911539	0.737810	-4.098067	0.539667	-1.270661	-0.007695	-0.506485	-0.090982	0.857435	-0.100331	0.993881	0.046195	-0.856391	-0.062630	-0.512515
40916	9.121330	0.602637	-3.224404	0.506946	-1.312948	-0.000417	-0.517673	-0.091875	0.850631	-0.104681	0.993549	0.043604	-0.849150	-0.066472	-0.523952
40917	9.140726	0.290093	-2.501674	0.420629	-1.377347	0.005082	-0.529323	-0.092803	0.843330	-0.108235	0.993264	0.041367	-0.841488	-0.069381	-0.535802
40918	9.328607	0.475657	-1.508960	0.456371	-1.496367	0.021589	-0.541867	-0.093691	0.835226	-0.111967	0.992956	0.038744	-0.832973	-0.072523	-0.548540
40919	10.017636	1.437400	-0.070391	0.409916	-1.654315	0.043638	-0.555613	-0.094521	0.826051	-0.115149	0.992691	0.036139	-0.823429	-0.075040	-0.562436
40920	10.770993	0.940656	0.990863	0.036280	-1.814688	0.032613	-0.570492	-0.095588	0.815722	-0.115289	0.992690	0.035696	-0.813171	-0.073680	-0.577342
40921	11.232280	-0.613871	-0.006005	-0.284094	-1.910238	-0.022405	-0.585883	-0.097218	0.804543	-0.113154	0.992867	0.037574	-0.802457	-0.069023	-0.592704
40922	10.609894	-1.615162	-1.017866	-0.266692	-2.028051	-0.173273	-0.601835	-0.100333	0.792293	-0.112087	0.992869	0.040590	-0.790715	-0.064377	-0.608789
40923	11.178201	-1.280187	-2.945407	-0.110360	-2.108173	-0.290834	-0.618020	-0.104585	0.779174	-0.113027	0.992635	0.043587	-0.777995	-0.061130	-0.625290
