// General information: 
//  MT Manager version: 2022.2.0 
//  XDA version: 2022.2.0 build 7381 rev 124627 built on 2023-07-19
// Device information: 
//  DeviceId: 00B4CBA7
//  ProductCode: MTW2-3A7G6
//  Firmware Version: 4.6.0
//  Hardware Version: 2.0.0
// Device settings: 
//  Filter Profile: human(46.1)
//  Option Flags: Orientation Smoother Disabled, Position/Velocity Smoother Disabled, Continuous Zero Rotation Update Disabled, AHS Disabled, ICC Disabled
// Coordinate system: ENU
PacketCounter	Acc_X	Acc_Y	Acc_Z	Gyr_X	Gyr_Y	Gyr_Z	Mat[1][1]	Mat[2][1]	Mat[3][1]	Mat[1][2]	Mat[2][2]	Mat[3][2]	Mat[1][3]	Mat[2][3]	Mat[3][3]
54711	9.416109	1.785223	-3.810557	0.457570	1.259774	-0.060749	-0.132270	-0.086516	0.987431	-0.541982	0.840390	0.001032	-0.829916	-0.535033	-0.158049
54712	9.116372	3.138395	-3.377029	-0.013027	1.068919	0.002040	-0.123377	-0.080806	0.989065	-0.541873	0.840460	0.001071	-0.831355	-0.535815	-0.147480
54713	8.152755	2.467929	-3.043332	-0.528562	0.864499	0.140903	-0.116956	-0.075034	0.990299	-0.537300	0.843391	0.000447	-0.835243	-0.532035	-0.138955
54714	7.782297	-0.035827	-3.357928	-0.698886	0.614210	0.253989	-0.113143	-0.069665	0.991133	-0.531156	0.847273	-0.001081	-0.839685	-0.526569	-0.132866
54715	10.734671	0.730114	-1.452335	-0.538638	0.353500	0.222984	-0.111375	-0.065956	0.991587	-0.526372	0.850251	-0.002567	-0.842929	-0.522229	-0.129414
54716	7.084420	-2.818878	-1.886773	-0.193864	-0.072935	0.105874	-0.112521	-0.065466	0.991490	-0.524620	0.851330	-0.003326	-0.843868	-0.520530	-0.130137
54717	11.821745	-0.943776	-1.917287	0.665615	-0.479006	-0.187140	-0.115595	-0.069597	0.990855	-0.530434	0.847723	-0.002339	-0.839808	-0.525854	-0.134909
54718	13.122897	2.789291	0.089581	0.817491	-0.543930	-0.336223	-0.118329	-0.075347	0.990112	-0.537675	0.843152	-0.000094	-0.834808	-0.532369	-0.140281
54719	13.409670	3.633028	1.622998	0.963136	-0.523985	-0.324171	-0.120955	-0.080917	0.989354	-0.546073	0.837736	0.001755	-0.828960	-0.540047	-0.145515
54720	11.806729	2.375966	1.586477	1.016225	-0.495325	-0.229742	-0.123756	-0.085560	0.988617	-0.554749	0.832014	0.002563	-0.822763	-0.548117	-0.150431
54721	11.472269	0.448909	-0.588793	0.958287	-0.542923	-0.063486	-0.127860	-0.089119	0.987780	-0.562683	0.826671	0.001749	-0.816725	-0.555583	-0.155844
54722	10.176064	0.178066	-2.310506	0.954891	-0.531655	-0.040618	-0.131930	-0.092456	0.986938	-0.570508	0.821292	0.000676	-0.810627	-0.562967	-0.161100
54723	8.939808	0.502411	-3.705335	0.823424	-0.550995	-0.030671	-0.136212	-0.095864	0.986031	-0.577200	0.816603	-0.000344	-0.805162	-0.569184	-0.166563
54724	9.289827	0.143220	-4.185307	0.651541	-0.561098	0.005830	-0.140724	-0.099052	0.985082	-0.582426	0.812882	-0.001466	-0.800610	-0.573943	-0.172082
54725	9.552961	0.052906	-4.361140	0.479085	-0.509296	0.063015	-0.145172	-0.101513	0.984185	-0.586160	0.810190	-0.002895	-0.797083	-0.577310	-0.177120
54726	9.723390	0.098880	-3.810310	0.418475	-0.432049	0.094201	-0.149136	-0.103280	0.983408	-0.589354	0.807862	-0.004533	-0.793990	-0.580252	-0.181350
54727	10.389812	0.674638	-3.028108	0.466423	-0.376949	0.115002	-0.152820	-0.104592	0.982704	-0.592872	0.805271	-0.006490	-0.790664	-0.583609	-0.185071
54728	10.854930	1.392206	-2.603558	0.484371	-0.341697	0.135081	-0.156291	-0.105534	0.982057	-0.596488	0.802575	-0.008683	-0.787258	-0.587142	-0.188385
54729	10.515357	1.923592	-2.670322	0.488112	-0.313109	0.164576	-0.159753	-0.106108	0.981438	-0.600057	0.799879	-0.011195	-0.783844	-0.590707	-0.191454
54730	9.998355	2.809595	-2.291646	0.435705	-0.300232	0.209117	-0.163332	-0.106244	0.980834	-0.603131	0.797518	-0.014048	-0.780740	-0.593866	-0.194339
54731	9.906822	2.598640	-1.932195	0.180731	-0.295895	0.264943	-0.167252	-0.105947	0.980205	-0.604095	0.796732	-0.016961	-0.779163	-0.594974	-0.197257
54732	9.667764	0.470722	-2.342241	0.006676	-0.277481	0.305797	-0.171232	-0.105188	0.979599	-0.603634	0.797012	-0.019932	-0.778656	-0.594732	-0.199969
54733	9.325085	-0.756870	-2.544122	0.060694	-0.258962	0.321798	-0.175200	-0.104223	0.979001	-0.603540	0.796996	-0.023161	-0.777846	-0.594924	-0.202536
54734	9.285039	-0.040485	-2.215208	0.039634	-0.243575	0.336587	-0.179097	-0.103017	0.978423	-0.603257	0.797107	-0.026497	-0.777178	-0.594986	-0.204905
54735	9.325220	0.827723	-1.674194	-0.187214	-0.241524	0.367186	-0.183197	-0.101582	0.977814	-0.601127	0.798603	-0.029659	-0.777872	-0.593224	-0.207365
54736	9.248971	0.030769	-1.362268	-0.455087	-0.234681	0.390551	-0.187337	-0.099873	0.977205	-0.596863	0.801685	-0.032488	-0.780166	-0.589344	-0.209796
54737	9.329728	-1.911025	-1.504960	-0.505734	-0.234643	0.365196	-0.191350	-0.098377	0.976579	-0.592211	0.805025	-0.034942	-0.782733	-0.585027	-0.212302
54738	9.230607	-3.487804	-1.272205	-0.278739	-0.271502	0.295038	-0.195193	-0.097612	0.975895	-0.589462	0.806939	-0.037188	-0.783858	-0.582512	-0.215048
54739	9.390774	-3.902603	-0.929459	0.056247	-0.344821	0.214544	-0.199170	-0.097943	0.975058	-0.589473	0.806828	-0.039364	-0.782849	-0.582611	-0.218431
54740	9.638679	-2.806447	-0.729125	0.345297	-0.409940	0.146233	-0.203209	-0.099186	0.974099	-0.591883	0.804954	-0.041511	-0.779988	-0.584988	-0.222281
54741	9.745392	-1.203234	-0.829568	0.436864	-0.444295	0.115262	-0.207364	-0.100909	0.973046	-0.595043	0.802511	-0.043585	-0.776482	-0.588042	-0.226457
54742	9.671790	-0.265541	-1.109970	0.331829	-0.465147	0.114075	-0.211621	-0.102763	0.971934	-0.597382	0.800670	-0.045414	-0.773532	-0.590226	-0.230827
54743	9.688484	-0.948556	-2.347376	0.163792	-0.450075	0.135065	-0.215915	-0.104380	0.970817	-0.598357	0.799845	-0.047080	-0.771589	-0.591060	-0.235155
54744	9.677024	-2.154206	-3.929581	0.226786	-0.391786	0.122941	-0.219643	-0.105744	0.969833	-0.599843	0.798630	-0.048772	-0.769380	-0.592459	-0.238843
54745	9.663261	-2.282827	-4.593335	0.406414	-0.320225	0.080569	-0.222598	-0.107042	0.969016	-0.602784	0.796304	-0.050506	-0.766226	-0.595350	-0.241779
54746	9.617974	-1.333257	-4.835130	0.590655	-0.271119	0.033102	-0.224843	-0.108427	0.968344	-0.607230	0.792808	-0.052223	-0.762049	-0.599749	-0.244097
54747	9.749534	0.170813	-4.594003	0.625672	-0.230450	0.006856	-0.226656	-0.109799	0.967766	-0.611967	0.789051	-0.053803	-0.757710	-0.604435	-0.246036
54748	9.853956	1.280931	-4.040496	0.460686	-0.174468	0.012445	-0.228023	-0.110786	0.967332	-0.615428	0.786270	-0.055022	-0.754489	-0.607870	-0.247469
54749	9.852515	1.321098	-3.787805	0.198597	-0.121852	0.044151	-0.229235	-0.111225	0.966995	-0.616820	0.785116	-0.055918	-0.752984	-0.609280	-0.248582
54750	9.643329	0.723616	-3.305366	0.021171	-0.101737	0.073833	-0.230429	-0.111293	0.966704	-0.616816	0.785066	-0.056646	-0.752622	-0.609331	-0.249549
54751	9.547644	0.536567	-2.684667	-0.046928	-0.088742	0.093388	-0.231693	-0.111150	0.966418	-0.616241	0.785463	-0.057403	-0.752705	-0.608847	-0.250482
54752	9.507874	-0.067164	-2.228106	-0.088708	-0.094330	0.096545	-0.232970	-0.110992	0.966129	-0.615356	0.786107	-0.058074	-0.753035	-0.608043	-0.251439
54753	9.533054	-0.426497	-1.957541	-0.105382	-0.120276	0.094002	-0.234473	-0.111036	0.965761	-0.614336	0.786859	-0.058685	-0.753401	-0.607062	-0.252710
54754	9.509497	-0.932748	-1.618000	-0.176945	-0.153264	0.100469	-0.236216	-0.111201	0.965317	-0.612773	0.788041	-0.059168	-0.754129	-0.605496	-0.254289
54755	9.338746	-1.300166	-1.312975	-0.217220	-0.187572	0.094734	-0.238229	-0.111638	0.964772	-0.610904	0.789466	-0.059497	-0.755012	-0.603556	-0.256273
54756	9.184496	-1.238884	-0.823201	-0.244905	-0.234858	0.083589	-0.240485	-0.112419	0.964121	-0.608860	0.791033	-0.059634	-0.755947	-0.601356	-0.258679
54757	9.129494	-1.366820	-0.616495	-0.294815	-0.289624	0.066267	-0.243093	-0.113678	0.963319	-0.606467	0.792881	-0.059476	-0.757036	-0.598679	-0.261686
54758	9.184060	-1.577753	-1.124929	-0.222779	-0.334122	0.062902	-0.245977	-0.115203	0.962405	-0.604633	0.794282	-0.059457	-0.757572	-0.596527	-0.265031
54759	8.998714	-1.505986	-1.706625	-0.108511	-0.365164	0.044650	-0.249024	-0.117066	0.961396	-0.603699	0.794983	-0.059570	-0.757320	-0.595228	-0.268643
54760	9.149892	-0.895511	-2.698502	0.039314	-0.394340	0.028646	-0.252154	-0.119212	0.960316	-0.603932	0.794781	-0.059914	-0.756098	-0.595073	-0.272403
54761	9.319621	0.063816	-2.959576	0.074505	-0.401993	0.026165	-0.255360	-0.121436	0.959190	-0.604428	0.794371	-0.060345	-0.754624	-0.595171	-0.276250
54762	9.360146	0.285777	-3.047665	-0.031745	-0.403525	0.029797	-0.258556	-0.123627	0.958053	-0.604120	0.794593	-0.060504	-0.753782	-0.594423	-0.280132
54763	9.810519	-0.478713	-2.967214	-0.117135	-0.386734	0.029944	-0.261662	-0.125726	0.956936	-0.603159	0.795328	-0.060433	-0.753480	-0.592997	-0.283940
54764	10.003924	-1.062920	-2.642348	-0.131440	-0.356710	0.020775	-0.264447	-0.127700	0.955908	-0.602122	0.796130	-0.060218	-0.753337	-0.591498	-0.287426
54765	10.021798	-1.346310	-2.330983	-0.117447	-0.364052	0.004296	-0.267226	-0.129857	0.954844	-0.601225	0.796832	-0.059893	-0.753073	-0.590082	-0.291008
54766	9.748400	-1.168116	-2.269837	-0.083529	-0.373113	-0.005884	-0.269972	-0.132131	0.953759	-0.600620	0.797313	-0.059554	-0.752576	-0.588925	-0.294613
54767	9.242931	-1.201635	-2.531065	-0.097421	-0.386241	-0.011296	-0.272820	-0.134531	0.952613	-0.599919	0.797872	-0.059133	-0.752108	-0.587623	-0.298383
54768	9.223186	-1.636256	-2.534177	-0.152363	-0.403741	-0.021352	-0.275700	-0.137098	0.951417	-0.598840	0.798734	-0.058434	-0.751917	-0.585857	-0.302311
54769	9.548134	-1.812363	-2.083927	-0.192783	-0.428780	-0.042165	-0.278661	-0.140044	0.950124	-0.597643	0.799704	-0.057410	-0.751778	-0.583833	-0.306542
54770	9.799970	-1.380441	-1.458694	-0.224862	-0.456909	-0.064095	-0.281686	-0.143247	0.948754	-0.596141	0.800920	-0.056069	-0.751844	-0.581385	-0.311003
54771	9.590698	-0.879721	-1.155910	-0.346030	-0.499386	-0.077884	-0.284968	-0.146854	0.947221	-0.593879	0.802726	-0.054214	-0.752397	-0.577984	-0.315965
54772	9.650011	-1.063891	-1.627073	-0.414794	-0.543184	-0.093420	-0.288476	-0.150762	0.945543	-0.591033	0.804972	-0.051970	-0.753300	-0.573839	-0.321320
54773	9.713979	-0.758686	-1.868235	-0.475160	-0.598188	-0.113710	-0.292299	-0.155182	0.943652	-0.587902	0.807427	-0.049325	-0.754276	-0.569193	-0.327242
54774	9.923609	-1.083971	-2.169113	-0.534295	-0.628591	-0.133425	-0.296235	-0.159850	0.941643	-0.584271	0.810239	-0.046265	-0.755561	-0.563880	-0.333417
54775	10.022155	-1.501948	-2.381696	-0.531097	-0.655667	-0.156534	-0.300262	-0.164882	0.939498	-0.580843	0.812880	-0.042976	-0.756614	-0.558605	-0.339847
54776	9.859284	-0.753316	-2.242116	-0.490834	-0.684059	-0.185939	-0.304336	-0.170228	0.937231	-0.577699	0.815293	-0.039509	-0.757393	-0.553461	-0.346464
54777	9.919629	-0.612622	-2.169843	-0.551198	-0.715595	-0.196818	-0.308602	-0.175856	0.934794	-0.574251	0.817900	-0.035711	-0.758288	-0.547827	-0.353391
54778	10.132931	-0.903566	-2.334089	-0.580394	-0.748995	-0.226174	-0.312964	-0.181818	0.932199	-0.570560	0.820652	-0.031490	-0.759286	-0.541731	-0.360573
54779	10.164213	-0.430327	-2.401162	-0.546249	-0.777399	-0.272950	-0.317293	-0.188317	0.929442	-0.567377	0.823017	-0.026937	-0.759874	-0.535891	-0.367984
54780	9.937147	-0.300917	-2.528311	-0.534724	-0.820261	-0.303489	-0.321784	-0.195219	0.926469	-0.564293	0.825279	-0.022095	-0.760282	-0.529909	-0.375722
54781	9.677230	-0.608746	-2.615393	-0.530833	-0.843535	-0.343378	-0.326233	-0.202577	0.923328	-0.561494	0.827308	-0.016878	-0.760458	-0.523950	-0.383641
54782	9.585228	-0.961704	-2.608478	-0.472030	-0.883191	-0.391944	-0.330726	-0.210454	0.919962	-0.559203	0.828952	-0.011399	-0.760206	-0.518215	-0.391842
54783	9.734681	-1.145585	-2.561642	-0.390872	-0.918554	-0.425561	-0.335288	-0.218798	0.916356	-0.557784	0.829965	-0.005919	-0.759248	-0.513114	-0.400320
54784	10.080482	-0.894292	-2.220275	-0.346462	-0.966170	-0.455600	-0.340053	-0.227544	0.912462	-0.556705	0.830710	-0.000314	-0.757920	-0.508079	-0.409160
54785	10.256240	-0.596641	-1.644004	-0.382409	-1.013479	-0.468373	-0.345091	-0.236604	0.908257	-0.555499	0.831499	0.005547	-0.756527	-0.502622	-0.418376
54786	10.281109	-0.635513	-1.240904	-0.441449	-1.072205	-0.480364	-0.350505	-0.245986	0.903680	-0.553844	0.832537	0.011804	-0.755250	-0.496360	-0.428046
54787	10.658321	-0.791451	-0.970422	-0.468041	-1.155046	-0.494626	-0.356447	-0.255838	0.898606	-0.552140	0.833550	0.018301	-0.753715	-0.489633	-0.438375
54788	11.169995	-0.686687	-0.551828	-0.441719	-1.243237	-0.504556	-0.362997	-0.266120	0.892980	-0.550642	0.834372	0.024818	-0.751682	-0.482704	-0.449411
54789	11.681203	-0.152325	0.026203	-0.440212	-1.362412	-0.494338	-0.370446	-0.276816	0.886647	-0.549254	0.835072	0.031232	-0.749059	-0.475425	-0.461391
54790	12.555913	-0.177807	0.521274	-0.488015	-1.479207	-0.477942	-0.378859	-0.287811	0.879563	-0.547408	0.836013	0.037772	-0.746197	-0.467170	-0.474281
54791	12.483137	0.677355	0.944570	-0.473381	-1.601815	-0.469982	-0.388148	-0.299185	0.871682	-0.545780	0.836764	0.044172	-0.742608	-0.458601	-0.488077
54792	11.745284	1.455239	1.216601	-0.586987	-1.739398	-0.466357	-0.398468	-0.311008	0.862842	-0.543278	0.837992	0.051160	-0.738966	-0.448378	-0.502878
54793	11.398481	0.956994	1.531124	-0.790141	-1.875659	-0.470902	-0.409679	-0.323249	0.853038	-0.539407	0.839959	0.059239	-0.735665	-0.435865	-0.518476
54794	11.096426	-0.221489	1.397609	-0.875575	-2.007102	-0.481553	-0.421797	-0.335938	0.842160	-0.534997	0.842116	0.067967	-0.732029	-0.421885	-0.534927
54795	11.027471	-1.233541	0.860526	-0.773189	-2.130579	-0.489558	-0.434644	-0.348897	0.830274	-0.531504	0.843616	0.076264	-0.727041	-0.408146	-0.552112
54796	11.386473	-1.541156	0.428228	-0.587967	-2.228772	-0.483594	-0.448184	-0.361962	0.817383	-0.529398	0.844246	0.083581	-0.720325	-0.395261	-0.570000
54797	11.773622	-1.510444	-0.375946	-0.474969	-2.322585	-0.461100	-0.462301	-0.374847	0.803597	-0.528110	0.844387	0.090057	-0.712304	-0.382754	-0.588322
54798	12.725764	-1.301056	-1.575675	-0.415787	-2.390507	-0.424658	-0.476957	-0.387462	0.788914	-0.527177	0.844320	0.095956	-0.703275	-0.370130	-0.606966
54799	12.950923	-1.324084	-2.882785	-0.434749	-2.407667	-0.386740	-0.491640	-0.399444	0.773779	-0.526051	0.844358	0.101639	-0.693945	-0.357078	-0.625248
54800	12.314587	-1.789165	-4.625223	-0.391391	-2.367701	-0.332234	-0.506186	-0.410583	0.758418	-0.525029	0.844370	0.106698	-0.684193	-0.344183	-0.642976
54801	11.414626	-2.131164	-6.177678	-0.216355	-2.276700	-0.271388	-0.520158	-0.420472	0.743397	-0.524901	0.844012	0.110105	-0.673732	-0.332938	-0.659726
54802	10.485114	-1.360688	-7.107169	-0.048937	-2.191192	-0.156882	-0.533949	-0.429016	0.728590	-0.525420	0.843490	0.111617	-0.662444	-0.323217	-0.675794
54803	10.079289	-0.406503	-8.363664	-0.035039	-1.993555	-0.035650	-0.546804	-0.435559	0.715048	-0.525335	0.843483	0.112064	-0.651942	-0.314363	-0.690035
54804	9.221732	-0.248598	-8.665639	-0.083832	-1.683782	0.066265	-0.558031	-0.440256	0.703403	-0.524446	0.844018	0.112207	-0.643085	-0.306282	-0.701878
54805	8.287185	-0.279018	-8.464925	0.040959	-1.286126	0.147086	-0.567000	-0.442760	0.694603	-0.523777	0.844616	0.110827	-0.635743	-0.300978	-0.710805
54806	6.545354	-0.206285	-9.212966	0.213953	-0.913394	0.208169	-0.573845	-0.443772	0.688308	-0.523963	0.844881	0.107889	-0.629416	-0.298736	-0.717350
54807	5.417461	1.498020	-10.891055	0.235798	-0.720612	0.210462	-0.579431	-0.444003	0.683463	-0.524152	0.845167	0.104684	-0.624120	-0.297581	-0.722441
54808	7.387539	3.462251	-10.555924	-0.153926	-0.480800	0.168066	-0.583282	-0.444036	0.680157	-0.522236	0.846352	0.104681	-0.622135	-0.294144	-0.725553
54809	7.666287	4.064138	-8.221528	-0.713137	-0.038430	0.185812	-0.584476	-0.442413	0.680190	-0.516593	0.849326	0.108524	-0.625716	-0.287951	-0.724958
54810	6.808141	3.289315	-6.038815	-1.071976	0.349367	0.254870	-0.583559	-0.439282	0.683000	-0.508377	0.853479	0.114568	-0.633255	-0.280364	-0.721377
54811	5.955019	3.293484	-4.852282	-1.220690	0.714280	0.399046	-0.580992	-0.433736	0.688709	-0.498148	0.858673	0.120541	-0.643659	-0.273046	-0.714947
54812	5.307966	2.310888	-4.312551	-1.486294	1.056841	0.616556	-0.577127	-0.425611	0.696979	-0.484931	0.865303	0.126856	-0.657089	-0.264775	-0.705782
54813	5.127598	0.402806	-5.216530	-1.372531	1.393959	0.793681	-0.571612	-0.414957	0.707863	-0.471190	0.872273	0.130841	-0.671743	-0.258748	-0.694126
54814	5.411739	0.400141	-5.848165	-1.097591	1.672160	0.874005	-0.564300	-0.403034	0.720507	-0.458793	0.878658	0.132174	-0.686349	-0.255978	-0.680735
54815	5.384737	1.257680	-5.840789	-0.968439	1.943925	0.936595	-0.555000	-0.389695	0.734924	-0.446767	0.884885	0.131823	-0.701694	-0.255178	-0.665214
54816	5.344734	1.502685	-6.098972	-0.885729	2.192525	0.998623	-0.543821	-0.375260	0.750626	-0.435014	0.890953	0.130251	-0.717650	-0.255699	-0.647762
54817	5.347974	1.377621	-6.581285	-0.723000	2.415967	1.070541	-0.530818	-0.359399	0.767505	-0.423989	0.896763	0.126690	-0.733802	-0.258164	-0.628399
54818	5.204030	1.558955	-7.022272	-0.512851	2.625007	1.134578	-0.516081	-0.342390	0.785130	-0.414263	0.902067	0.121082	-0.749698	-0.262762	-0.607379
54819	5.047716	1.779291	-7.476518	-0.394681	2.808241	1.182839	-0.499573	-0.324165	0.803333	-0.405268	0.907063	0.113995	-0.765627	-0.268616	-0.584518
54820	5.104557	1.773482	-7.593079	-0.374878	2.969577	1.203560	-0.481402	-0.305186	0.821653	-0.396481	0.911857	0.106394	-0.781700	-0.274551	-0.559970
54821	4.988395	0.887156	-7.041508	-0.346153	3.135864	1.194041	-0.461231	-0.285535	0.840081	-0.388174	0.916325	0.098331	-0.797864	-0.280744	-0.533475
54822	4.852201	-0.715078	-7.001428	-0.075549	3.293508	1.144077	-0.439090	-0.265680	0.858262	-0.382429	0.919684	0.089042	-0.812987	-0.289127	-0.505428
54823	4.840273	-1.825078	-7.431980	0.476587	3.451546	1.073094	-0.414826	-0.245562	0.876138	-0.381808	0.920999	0.077360	-0.825919	-0.302425	-0.475812
54824	4.893040	-1.372894	-7.708795	1.113189	3.611655	0.977585	-0.388548	-0.225334	0.893451	-0.387145	0.919821	0.063622	-0.836151	-0.321175	-0.444632
54825	5.138370	-0.372702	-7.502610	1.536044	3.780962	0.887994	-0.360191	-0.204574	0.910171	-0.396783	0.916604	0.048997	-0.844290	-0.343492	-0.411324
54826	5.484052	0.343453	-7.518267	1.774767	3.950003	0.814417	-0.329970	-0.183119	0.926060	-0.409027	0.911867	0.034570	-0.850774	-0.367376	-0.375789
54827	6.021508	0.552877	-8.347750	1.945086	4.088145	0.770811	-0.298243	-0.160544	0.940891	-0.423252	0.905782	0.020391	-0.855517	-0.392153	-0.338094
54828	7.011458	1.042120	-7.983910	2.050972	4.113421	0.773394	-0.266301	-0.136958	0.954110	-0.438655	0.898632	0.006561	-0.858292	-0.416778	-0.299383
54829	7.664673	1.574725	-7.394950	1.970137	4.078434	0.734037	-0.234501	-0.112884	0.965539	-0.453786	0.891090	-0.006032	-0.859702	-0.439562	-0.260187
54830	7.406383	1.359369	-7.206640	1.795405	4.033142	0.635636	-0.202718	-0.089140	0.975171	-0.467844	0.883657	-0.016481	-0.860248	-0.459569	-0.220837
54831	7.344231	1.164366	-6.719164	1.738645	3.917007	0.505390	-0.171413	-0.066296	0.982966	-0.481884	0.875880	-0.024959	-0.859305	-0.477954	-0.182084
54832	7.407434	2.646844	-6.846505	1.753250	3.706854	0.376159	-0.141423	-0.045006	0.988926	-0.496342	0.867555	-0.031497	-0.856530	-0.495300	-0.145031
54833	9.332377	6.094476	-5.658838	1.263593	3.399217	0.355259	-0.114109	-0.024868	0.993157	-0.506724	0.861329	-0.036653	-0.854523	-0.507439	-0.110887
54834	9.619003	5.874914	-5.447905	0.008111	3.141142	0.506189	-0.089755	-0.004589	0.995953	-0.506279	0.861363	-0.041657	-0.857686	-0.507969	-0.079635
54835	7.721907	0.452656	-5.080455	-0.633016	2.757353	0.639597	-0.069241	0.014862	0.997489	-0.500336	0.864521	-0.047611	-0.863058	-0.502377	-0.052424
54836	6.760258	-2.907821	-3.477146	-0.405799	2.167932	0.591188	-0.053416	0.030796	0.998097	-0.496464	0.866419	-0.053302	-0.866412	-0.498367	-0.030991
54837	7.891757	-2.021495	-0.581791	-0.114769	1.469297	0.476467	-0.043042	0.042233	0.998180	-0.495248	0.866812	-0.058030	-0.867685	-0.496844	-0.016393
54838	4.332885	-2.259174	-0.802691	0.058721	0.798174	0.359971	-0.037876	0.049288	0.998066	-0.495610	0.866358	-0.061592	-0.867719	-0.496985	-0.008386
54839	3.639541	-1.259070	-1.913489	0.674899	-0.148519	0.074086	-0.039539	0.049187	0.998007	-0.501435	0.862942	-0.062396	-0.864291	-0.502903	-0.009456
54840	4.817644	1.329659	-2.116148	1.221608	-0.894543	-0.311202	-0.045640	0.041933	0.998077	-0.512085	0.856877	-0.059417	-0.857721	-0.513812	-0.017634
54841	10.315953	4.726242	-1.263912	1.790779	-1.316366	-0.587718	-0.053821	0.030053	0.998098	-0.527656	0.847741	-0.053979	-0.847751	-0.529558	-0.029769
54842	15.584630	7.077051	1.764328	1.983684	-1.067137	-0.636495	-0.059370	0.018919	0.998057	-0.544722	0.837226	-0.048273	-0.836513	-0.546529	-0.039400
54843	16.535750	7.013937	3.701608	1.741180	-0.737603	-0.466842	-0.062923	0.010929	0.997959	-0.559488	0.827652	-0.044340	-0.826447	-0.561136	-0.045963
54844	16.297840	2.294931	1.641965	1.288400	-0.932626	-0.182816	-0.069534	0.004111	0.997571	-0.570206	0.820369	-0.043126	-0.818554	-0.571820	-0.054700
54845	13.175216	-4.074271	-2.144779	1.278654	-1.230178	-0.054278	-0.079219	-0.003457	0.996851	-0.580662	0.812991	-0.043326	-0.810282	-0.582266	-0.066412
54846	9.818042	-1.750549	-4.965570	1.444658	-1.576688	-0.026837	-0.091733	-0.012974	0.995699	-0.592321	0.804495	-0.044088	-0.800463	-0.593818	-0.081484
54847	10.497717	5.676247	-3.811751	0.548781	-1.508120	-0.029327	-0.103584	-0.022220	0.994372	-0.596731	0.801220	-0.044258	-0.795728	-0.597957	-0.096253
54848	9.524314	3.568709	-4.943570	-0.261747	-1.210582	0.158229	-0.114133	-0.028203	0.993065	-0.594478	0.802823	-0.045524	-0.795971	-0.595551	-0.108395
54849	9.098040	0.534695	-6.887350	-0.525380	-0.971986	0.238300	-0.123279	-0.032094	0.991853	-0.590003	0.806017	-0.047251	-0.797934	-0.591021	-0.118300
54850	9.582598	-0.131553	-8.163635	-0.478369	-0.792592	0.215535	-0.130850	-0.035050	0.990782	-0.585910	0.808907	-0.048764	-0.799742	-0.586890	-0.126382
54851	10.345207	-0.247878	-8.475893	-0.241127	-0.686240	0.197791	-0.137500	-0.037522	0.989791	-0.583706	0.810402	-0.050365	-0.800238	-0.584672	-0.133332
54852	10.450454	0.863285	-7.153116	-0.000804	-0.566098	0.179751	-0.143049	-0.039403	0.988931	-0.583450	0.810476	-0.052104	-0.799451	-0.584446	-0.138928
54853	10.048906	1.585212	-4.930022	0.051207	-0.404347	0.190839	-0.147410	-0.040286	0.988255	-0.583567	0.810267	-0.054016	-0.798574	-0.584675	-0.142951
54854	9.788374	-0.000040	-2.712916	-0.000742	-0.290337	0.204712	-0.150895	-0.040353	0.987726	-0.583259	0.810354	-0.055998	-0.798148	-0.584549	-0.145815
54855	9.616662	-2.162018	-2.048296	0.113090	-0.232284	0.210061	-0.153994	-0.040083	0.987258	-0.583822	0.809794	-0.058188	-0.797144	-0.585344	-0.148104
54856	9.498145	-3.146871	-1.823180	0.158905	-0.213065	0.202453	-0.156847	-0.039721	0.986824	-0.584776	0.808944	-0.060384	-0.795887	-0.586542	-0.150108
54857	9.408802	-2.989687	-1.365662	0.266061	-0.204307	0.176937	-0.159531	-0.039559	0.986400	-0.586594	0.807467	-0.062487	-0.794013	-0.588585	-0.152021
54858	9.707597	-1.906244	-0.722766	0.214622	-0.204478	0.149769	-0.162005	-0.039584	0.985996	-0.588060	0.806261	-0.064254	-0.792427	-0.590234	-0.153896
54859	9.781308	-1.255502	-0.436195	0.080037	-0.209436	0.140167	-0.164514	-0.039753	0.985573	-0.588450	0.805858	-0.065721	-0.791620	-0.590773	-0.155968
54860	9.626447	-1.385175	-0.680142	-0.018006	-0.229448	0.125190	-0.167039	-0.040128	0.985133	-0.588104	0.806015	-0.066888	-0.791348	-0.590534	-0.158235
54861	9.632465	-1.390605	-0.972396	0.058898	-0.250681	0.110390	-0.169695	-0.040778	0.984653	-0.588370	0.805724	-0.068032	-0.790584	-0.590885	-0.160720
54862	9.397351	-0.053859	-0.602655	0.214566	-0.310253	0.083000	-0.172607	-0.041973	0.984096	-0.589927	0.804489	-0.069159	-0.788792	-0.592482	-0.163622
54863	9.536162	0.324544	-0.109666	0.120197	-0.364544	0.073042	-0.175933	-0.043604	0.983436	-0.590735	0.803820	-0.070040	-0.787452	-0.593272	-0.167177
54864	9.967830	-1.129219	-0.481189	0.045279	-0.404394	0.065184	-0.179473	-0.045507	0.982710	-0.590980	0.803581	-0.070719	-0.786468	-0.593454	-0.171115
54865	9.763658	-2.075510	-0.890188	0.134751	-0.443082	0.048306	-0.183257	-0.047806	0.981902	-0.591940	0.802814	-0.071390	-0.784872	-0.594310	-0.175420
54866	9.560857	-1.931026	-1.285800	0.191842	-0.469013	0.022227	-0.187038	-0.050446	0.981057	-0.593407	0.801684	-0.071910	-0.782869	-0.595616	-0.179880
54867	9.493858	-1.554306	-1.786978	0.140494	-0.470541	0.006921	-0.190776	-0.053245	0.980188	-0.594484	0.800859	-0.072202	-0.781149	-0.596481	-0.184439
54868	9.329866	-1.646135	-1.935407	0.059086	-0.454309	-0.000371	-0.194293	-0.055987	0.979345	-0.594951	0.800506	-0.072270	-0.779926	-0.596703	-0.188842
54869	9.369991	-1.801602	-2.035359	0.125751	-0.450422	-0.020151	-0.197701	-0.058885	0.978492	-0.595962	0.799753	-0.072283	-0.778295	-0.597435	-0.193205
54870	9.244508	-0.825034	-1.847032	0.266915	-0.453005	-0.029453	-0.201018	-0.061859	0.977633	-0.598100	0.798137	-0.072478	-0.775802	-0.599292	-0.197438
54871	9.389432	-0.334337	-1.398949	0.278021	-0.480752	-0.035612	-0.204547	-0.065075	0.976691	-0.600319	0.796454	-0.072658	-0.773161	-0.601188	-0.201978
54872	9.532962	-0.818281	-1.211883	0.245308	-0.500897	-0.038752	-0.208153	-0.068427	0.975700	-0.602298	0.794950	-0.072742	-0.770655	-0.602803	-0.206684
54873	9.487949	-1.682712	-1.684449	0.265676	-0.521690	-0.044943	-0.211912	-0.071978	0.974634	-0.604430	0.793322	-0.072832	-0.767957	-0.604532	-0.211621
54874	9.402279	-1.598150	-2.200228	0.324155	-0.518215	-0.060179	-0.215492	-0.075621	0.973573	-0.607049	0.791314	-0.072901	-0.764889	-0.606716	-0.216427
54875	9.280132	-0.975575	-2.227671	0.290030	-0.518291	-0.071368	-0.219033	-0.079377	0.972483	-0.609413	0.789502	-0.072817	-0.761998	-0.608593	-0.221300
54876	9.361439	-0.316457	-2.185516	0.214130	-0.524350	-0.072127	-0.222554	-0.083168	0.971367	-0.611207	0.788138	-0.072556	-0.759536	-0.609854	-0.226236
54877	9.608542	-0.025074	-1.842290	0.103247	-0.543907	-0.078084	-0.226220	-0.087144	0.970170	-0.612161	0.787447	-0.072010	-0.757683	-0.610191	-0.231482
54878	10.187143	-0.227067	-1.446523	0.038363	-0.531292	-0.084191	-0.229698	-0.091075	0.968991	-0.612650	0.787137	-0.071245	-0.756240	-0.610017	-0.236601
54879	10.272894	-0.416130	-1.133873	-0.012982	-0.531312	-0.093923	-0.233151	-0.095096	0.967779	-0.612765	0.787134	-0.070278	-0.755089	-0.609407	-0.241793
54880	9.843193	-0.696793	-0.939248	-0.078155	-0.567542	-0.093763	-0.236832	-0.099317	0.966461	-0.612403	0.787517	-0.069142	-0.754237	-0.608238	-0.247331
54881	9.610447	-1.197185	-1.223972	-0.142034	-0.606690	-0.100924	-0.240799	-0.103837	0.965004	-0.611571	0.788281	-0.067785	-0.753656	-0.606491	-0.253321
54882	9.501079	-1.645291	-2.097513	-0.108081	-0.637548	-0.091560	-0.245013	-0.108449	0.963435	-0.610986	0.788836	-0.066586	-0.752771	-0.604960	-0.259536
54883	9.407525	-1.316793	-2.823868	-0.001694	-0.633494	-0.105357	-0.249143	-0.113147	0.961835	-0.611233	0.788732	-0.065543	-0.751214	-0.604235	-0.265666
54884	9.201666	-0.526780	-3.391639	0.001553	-0.633495	-0.108618	-0.253205	-0.117856	0.960207	-0.611525	0.788595	-0.064465	-0.749616	-0.603513	-0.271748
54885	9.384520	-0.181176	-3.551040	-0.068906	-0.626530	-0.120127	-0.257174	-0.122618	0.958554	-0.611315	0.788868	-0.063100	-0.748436	-0.602206	-0.277834
54886	9.762198	-0.517003	-3.525392	-0.107708	-0.586310	-0.127430	-0.260753	-0.127177	0.956992	-0.610847	0.789353	-0.061539	-0.747579	-0.600622	-0.283512
54887	9.881692	-0.374640	-3.156805	-0.156861	-0.571254	-0.125764	-0.264265	-0.131635	0.955425	-0.610004	0.790134	-0.059862	-0.747033	-0.598633	-0.289103
54888	9.756756	-0.597870	-2.860444	-0.275778	-0.572500	-0.131893	-0.267711	-0.136124	0.953835	-0.608303	0.791601	-0.057760	-0.747194	-0.595683	-0.294725
54889	9.392712	-1.063067	-2.643476	-0.351581	-0.582731	-0.138900	-0.271235	-0.140725	0.952170	-0.606049	0.793498	-0.055365	-0.747754	-0.592078	-0.300511
54890	9.267057	-1.376150	-2.351417	-0.366166	-0.604408	-0.153771	-0.274798	-0.145541	0.950423	-0.603738	0.795436	-0.052753	-0.748322	-0.588303	-0.306453
54891	9.259712	-1.120946	-1.909442	-0.382870	-0.637408	-0.168748	-0.278564	-0.150660	0.948527	-0.601340	0.797431	-0.049941	-0.748861	-0.584299	-0.312733
54892	9.255101	-0.978129	-1.484079	-0.441213	-0.681922	-0.186823	-0.282525	-0.156148	0.946466	-0.598567	0.799708	-0.046739	-0.749598	-0.579728	-0.319403
54893	9.381457	-1.168516	-1.326225	-0.478401	-0.736426	-0.213705	-0.286761	-0.162198	0.944172	-0.595695	0.802051	-0.043140	-0.750277	-0.574809	-0.326617
54894	10.028532	-1.582312	-1.355096	-0.485361	-0.796168	-0.243938	-0.291260	-0.168741	0.941645	-0.592766	0.804420	-0.039198	-0.750864	-0.569592	-0.334319
54895	10.288496	-0.631858	-1.235339	-0.467470	-0.835690	-0.252442	-0.296028	-0.175593	0.938901	-0.590102	0.806560	-0.035212	-0.751097	-0.564471	-0.342382
54896	10.154367	-0.127906	-1.046116	-0.609157	-0.883594	-0.250196	-0.301170	-0.182601	0.935924	-0.586280	0.809526	-0.030718	-0.752045	-0.557965	-0.350860
54897	10.172351	-0.599043	-1.189900	-0.715121	-0.942764	-0.269819	-0.306690	-0.190041	0.932645	-0.581726	0.812981	-0.025636	-0.753350	-0.550406	-0.359885
54898	10.289796	-0.399605	-1.198502	-0.658268	-0.999754	-0.310267	-0.312399	-0.198063	0.929073	-0.577735	0.815972	-0.020310	-0.754075	-0.543103	-0.369337
54899	10.291183	-0.190179	-1.277601	-0.602888	-1.085704	-0.349129	-0.318569	-0.206797	0.925067	-0.574302	0.818510	-0.014798	-0.754116	-0.535982	-0.379516
54900	10.379027	-0.323375	-1.487818	-0.567716	-1.159362	-0.388461	-0.325057	-0.216183	0.920653	-0.571282	0.820705	-0.008991	-0.753641	-0.528875	-0.390278
54901	10.694524	-0.601224	-1.569313	-0.530722	-1.237844	-0.437861	-0.331871	-0.226303	0.915778	-0.568738	0.822514	-0.002850	-0.752595	-0.521783	-0.401675
54902	11.124700	-0.598539	-1.312805	-0.473202	-1.313765	-0.460806	-0.339105	-0.236935	0.910423	-0.566737	0.823892	0.003323	-0.750878	-0.514843	-0.413665
54903	11.302180	-0.153575	-0.932362	-0.433148	-1.380250	-0.486814	-0.346677	-0.248022	0.904599	-0.565176	0.824914	0.009577	-0.748592	-0.507938	-0.426155
54904	11.558762	0.100806	-0.614497	-0.475601	-1.465197	-0.498858	-0.354787	-0.259556	0.898197	-0.563383	0.826038	0.016168	-0.746141	-0.500292	-0.439297
54905	12.166715	-0.087658	-0.506444	-0.491555	-1.547548	-0.509318	-0.363417	-0.271455	0.891201	-0.561572	0.827110	0.022933	-0.743347	-0.492140	-0.453028
54906	12.423603	0.595524	-0.208248	-0.445198	-1.638043	-0.516812	-0.372640	-0.283756	0.883528	-0.560185	0.827839	0.029605	-0.739819	-0.483907	-0.467442
54907	12.344733	1.567177	0.108841	-0.481642	-1.735947	-0.499108	-0.382615	-0.296217	0.875135	-0.558541	0.828683	0.036296	-0.735961	-0.474911	-0.482516
54908	12.155098	2.000550	0.208131	-0.644819	-1.828483	-0.483933	-0.393319	-0.308846	0.865976	-0.555697	0.830236	0.043707	-0.732463	-0.464029	-0.498172
54909	11.841126	1.491212	0.926457	-0.914811	-1.945700	-0.494692	-0.404749	-0.321857	0.855913	-0.551010	0.832838	0.052616	-0.729772	-0.450320	-0.514437
54910	11.507108	0.105926	1.164806	-1.055917	-2.060990	-0.511946	-0.416930	-0.335280	0.844841	-0.545435	0.835818	0.062526	-0.727097	-0.434737	-0.531351
54911	11.031388	-1.481312	1.019119	-0.980107	-2.156979	-0.528207	-0.429631	-0.348909	0.832874	-0.540594	0.838174	0.072268	-0.723308	-0.419198	-0.548724
54912	11.312026	-2.269253	0.352916	-0.726581	-2.265130	-0.529103	-0.443071	-0.362713	0.819834	-0.537684	0.839273	0.080727	-0.717346	-0.405043	-0.566882
54913	11.552509	-2.251750	-0.661982	-0.455389	-2.324861	-0.507830	-0.456842	-0.376238	0.806065	-0.536757	0.839189	0.087489	-0.709357	-0.392693	-0.585325
54914	11.647299	-1.799550	-2.243655	-0.276453	-2.356738	-0.466751	-0.470918	-0.389305	0.791629	-0.536990	0.838458	0.092894	-0.699912	-0.381352	-0.603899
54915	11.553079	-1.307538	-3.924662	-0.203017	-2.331033	-0.433984	-0.484691	-0.401690	0.776994	-0.537696	0.837477	0.097542	-0.689897	-0.370509	-0.621905
54916	10.783134	-1.097471	-5.484934	-0.167117	-2.269928	-0.368446	-0.498228	-0.413094	0.762313	-0.538380	0.836572	0.101464	-0.679644	-0.359862	-0.639205
54917	9.737842	-1.122605	-6.452299	-0.070430	-2.212386	-0.287962	-0.511496	-0.423338	0.747768	-0.539405	0.835588	0.104086	-0.668890	-0.350110	-0.655751
54918	9.165586	-0.620238	-7.436982	0.036550	-2.152192	-0.191833	-0.524710	-0.432410	0.733281	-0.540660	0.834626	0.105295	-0.657546	-0.341206	-0.671723
54919	9.218952	-0.279483	-8.540224	0.050796	-1.952848	-0.084067	-0.536896	-0.439680	0.720017	-0.541487	0.834057	0.105547	-0.646942	-0.333212	-0.685883
54920	8.800756	-0.320321	-8.802030	0.131122	-1.653051	0.003923	-0.547507	-0.445135	0.708584	-0.542327	0.833625	0.104642	-0.637273	-0.326992	-0.697824
54921	8.270844	-0.272189	-8.620153	0.318448	-1.291933	0.090817	-0.556083	-0.448568	0.699685	-0.543894	0.832963	0.101746	-0.628452	-0.323975	-0.707170
54922	7.457962	0.401582	-8.744893	0.467103	-0.957971	0.162074	-0.562924	-0.450351	0.693038	-0.545924	0.832163	0.097327	-0.620551	-0.323558	-0.714301
54923	6.464098	2.766889	-9.285180	0.287027	-0.645053	0.174706	-0.567774	-0.450969	0.688665	-0.546764	0.831989	0.094041	-0.615372	-0.323143	-0.718955
54924	6.724003	4.537150	-9.429378	-0.360252	-0.378396	0.168317	-0.570995	-0.450811	0.686100	-0.543609	0.833887	0.095507	-0.615186	-0.318436	-0.721211
54925	7.982564	4.034704	-8.148303	-1.085583	0.055968	0.207620	-0.571782	-0.448745	0.686799	-0.535573	0.838322	0.101866	-0.621471	-0.309586	-0.719674
54926	6.907991	2.061036	-6.721788	-1.474340	0.526509	0.288603	-0.569987	-0.444745	0.690881	-0.524703	0.844086	0.110480	-0.632298	-0.299536	-0.714477
54927	5.947657	0.730841	-5.978145	-1.446988	0.944422	0.387517	-0.565965	-0.438535	0.698119	-0.513137	0.850152	0.118036	-0.645270	-0.291427	-0.706185
54928	5.052914	0.458831	-5.621931	-1.324852	1.342292	0.499349	-0.559718	-0.430431	0.708128	-0.501703	0.856130	0.123838	-0.659553	-0.285955	-0.695140
54929	4.792534	0.173576	-5.362829	-1.175256	1.673318	0.632174	-0.551603	-0.420231	0.720513	-0.490396	0.862138	0.127399	-0.674719	-0.283063	-0.681638
54930	4.861533	0.782614	-5.712306	-0.977689	1.963828	0.727951	-0.541709	-0.408410	0.734679	-0.479763	0.867905	0.128721	-0.690202	-0.282742	-0.666092
54931	4.998621	1.669865	-5.857344	-0.947201	2.237549	0.782898	-0.529709	-0.395246	0.750459	-0.468999	0.873710	0.129117	-0.706717	-0.283570	-0.648182
54932	4.956739	2.038321	-5.532919	-1.044882	2.483563	0.866823	-0.515927	-0.380628	0.767426	-0.457007	0.880024	0.129237	-0.724544	-0.284042	-0.627977
54933	4.775370	1.371280	-5.685798	-1.010889	2.685749	0.994947	-0.500624	-0.364183	0.785332	-0.444576	0.886587	0.127735	-0.742784	-0.285193	-0.605753
54934	4.833754	0.475073	-6.538867	-0.746269	2.842888	1.120847	-0.484160	-0.346086	0.803625	-0.433465	0.892696	0.123295	-0.760064	-0.288649	-0.582224
54935	5.445396	0.733912	-7.175607	-0.434334	2.959746	1.212760	-0.466551	-0.326578	0.821996	-0.424407	0.898024	0.115898	-0.776022	-0.294788	-0.557575
54936	5.900002	1.822042	-6.958306	-0.246685	3.086834	1.280886	-0.447726	-0.305860	0.840233	-0.416633	0.902800	0.106629	-0.791175	-0.302328	-0.531638
54937	5.822299	1.773534	-6.521053	-0.176620	3.191832	1.351108	-0.427745	-0.283840	0.858178	-0.409349	0.907308	0.096056	-0.805895	-0.310206	-0.504286
54938	5.759202	0.932281	-7.378048	0.057994	3.307201	1.410487	-0.406582	-0.260631	0.875650	-0.403949	0.910955	0.083578	-0.819461	-0.319737	-0.475659
54939	5.550779	0.883700	-8.053679	0.500150	3.441461	1.452173	-0.383970	-0.236141	0.892639	-0.402375	0.912914	0.068422	-0.831060	-0.332904	-0.445548
54940	5.202070	2.012350	-7.748845	0.874317	3.556504	1.478139	-0.360178	-0.210551	0.908812	-0.404196	0.913228	0.051385	-0.840772	-0.348831	-0.414029
54941	5.492598	3.233288	-7.461369	0.983230	3.683637	1.463500	-0.334929	-0.184026	0.924098	-0.407455	0.912590	0.034057	-0.849590	-0.365122	-0.380635
54942	5.636345	3.913584	-6.813159	0.780553	3.783779	1.461899	-0.308559	-0.156645	0.938218	-0.409428	0.912172	0.017645	-0.858580	-0.378689	-0.345594
54943	5.881996	2.428695	-6.809939	0.434504	3.835257	1.436035	-0.281277	-0.128831	0.950939	-0.408972	0.912543	0.002659	-0.868116	-0.388160	-0.309366
54944	6.263283	0.170822	-7.173239	0.361975	3.840659	1.362163	-0.253310	-0.101373	0.962059	-0.408497	0.912689	-0.011387	-0.876906	-0.395883	-0.272604
54945	7.582814	0.003522	-8.167003	0.527943	3.775184	1.244377	-0.225135	-0.074921	0.971443	-0.410190	0.911664	-0.024752	-0.883775	-0.404048	-0.235980
54946	9.298015	1.891551	-8.128328	0.273055	3.685398	1.136809	-0.197081	-0.049611	0.979131	-0.410217	0.911261	-0.036397	-0.890439	-0.408830	-0.199943
54947	8.823899	3.318405	-4.965819	-0.470310	3.523506	1.039888	-0.169774	-0.025777	0.985146	-0.404116	0.913563	-0.045739	-0.898814	-0.405879	-0.165516
54948	6.990199	0.438473	-5.294480	-1.153438	3.259059	0.962700	-0.144132	-0.003927	0.989551	-0.392184	0.918331	-0.053479	-0.908525	-0.395794	-0.133901
54949	6.579628	-4.796960	-6.469906	-0.904433	2.838744	0.836642	-0.121471	0.014868	0.992484	-0.382830	0.921825	-0.060664	-0.915798	-0.387321	-0.106283
54950	6.720920	-5.461687	-5.014932	-0.122844	2.349256	0.593073	-0.102165	0.029383	0.994333	-0.381041	0.922171	-0.066401	-0.918896	-0.385666	-0.083017
54951	9.901620	-3.421024	-0.859746	0.355310	1.815237	0.472136	-0.087297	0.040745	0.995349	-0.383866	0.920628	-0.071354	-0.919253	-0.388309	-0.064728
54952	4.221949	-3.911434	-2.194292	1.067293	1.049149	0.255797	-0.078644	0.047184	0.995785	-0.393448	0.916324	-0.074492	-0.915977	-0.397648	-0.053499
54953	4.987432	0.145839	-2.999377	2.138132	0.064743	-0.279181	-0.076944	0.044896	0.996024	-0.413167	0.907738	-0.072834	-0.907399	-0.417128	-0.051296
54954	5.455495	0.185958	-3.119349	2.670894	-0.958951	-0.694893	-0.082610	0.034476	0.995985	-0.437797	0.896548	-0.067346	-0.895271	-0.441603	-0.058970
54955	10.642564	-1.859917	-3.838433	3.086014	-1.623421	-0.846425	-0.093216	0.019540	0.995454	-0.465941	0.882713	-0.060958	-0.879892	-0.469505	-0.073179
54956	16.412819	8.291794	-1.243505	3.906393	-1.782313	-0.895308	-0.104365	0.003014	0.994535	-0.500801	0.863802	-0.055171	-0.859247	-0.503822	-0.088641
54957	18.816351	13.492030	4.151965	2.891675	-1.239748	-0.833783	-0.110651	-0.010547	0.993803	-0.526315	0.848842	-0.049592	-0.843059	-0.528541	-0.099476
54958	14.502032	5.946212	0.432792	1.711637	-1.009048	-0.306553	-0.117445	-0.018570	0.992906	-0.541009	0.839629	-0.048290	-0.832776	-0.542842	-0.108657
54959	10.232800	2.386346	-3.945844	1.137967	-1.065279	0.065943	-0.126626	-0.023888	0.991663	-0.550361	0.833417	-0.050200	-0.825269	-0.552129	-0.118679
54960	7.466667	7.008653	-7.556722	0.248369	-1.124450	0.251785	-0.137252	-0.028039	0.990139	-0.552077	0.832109	-0.052964	-0.822419	-0.553903	-0.129688
54961	9.037580	5.294338	-8.326159	-0.976815	-1.018847	0.358139	-0.147605	-0.030705	0.988570	-0.543506	0.837593	-0.055136	-0.826326	-0.545431	-0.140322
54962	10.059996	2.530102	-7.968119	-1.351063	-0.760438	0.410309	-0.156093	-0.031387	0.987244	-0.531680	0.845012	-0.057199	-0.832437	-0.533826	-0.148588
54963	10.417372	-0.008366	-5.761802	-1.456740	-0.542172	0.388397	-0.162667	-0.031025	0.986193	-0.518868	0.852833	-0.058755	-0.839235	-0.521261	-0.154826
54964	10.202843	-3.610222	-5.144165	-0.798900	-0.470906	0.325683	-0.168280	-0.030709	0.985261	-0.511615	0.857070	-0.060669	-0.842575	-0.514283	-0.159939
54965	9.663654	-3.464168	-3.774716	-0.032095	-0.476104	0.233376	-0.173497	-0.031233	0.984339	-0.510927	0.857323	-0.062852	-0.841934	-0.513830	-0.164701
54966	9.691561	-1.833372	-2.413391	0.503002	-0.469424	0.196098	-0.178422	-0.032007	0.983433	-0.514812	0.854791	-0.065581	-0.838531	-0.517985	-0.168991
54967	9.356700	-0.555502	-1.680088	0.600719	-0.414203	0.216864	-0.183028	-0.032386	0.982574	-0.519428	0.851749	-0.068682	-0.834682	-0.522948	-0.172716
54968	9.319106	-0.766056	-1.969345	0.356280	-0.375447	0.226685	-0.187312	-0.032456	0.981764	-0.521983	0.849955	-0.071491	-0.832135	-0.525855	-0.176149
54969	9.623288	-1.865619	-2.336108	0.028002	-0.342839	0.232971	-0.191398	-0.032352	0.980979	-0.521757	0.849899	-0.073770	-0.831346	-0.525952	-0.179549
54970	9.851489	-3.145132	-2.747478	-0.152762	-0.311787	0.222920	-0.195127	-0.032124	0.980252	-0.520061	0.850773	-0.075641	-0.831542	-0.524550	-0.182716
54971	10.007449	-2.905427	-2.742810	-0.074489	-0.292405	0.188164	-0.198558	-0.032126	0.979562	-0.519055	0.851239	-0.077296	-0.831358	-0.523794	-0.185696
54972	9.752851	-1.274121	-2.146336	0.026538	-0.285524	0.151161	-0.201691	-0.032365	0.978914	-0.518978	0.851149	-0.078787	-0.830652	-0.523926	-0.188466
54973	9.877846	-0.408951	-1.618561	0.048763	-0.300629	0.127055	-0.204872	-0.032926	0.978235	-0.519109	0.850949	-0.080075	-0.829791	-0.524216	-0.191428
54974	9.951770	-0.760069	-1.376573	-0.011611	-0.321072	0.113845	-0.208101	-0.033670	0.977528	-0.518783	0.851048	-0.081127	-0.829191	-0.524008	-0.194571
54975	9.574645	-2.024182	-1.629322	0.063420	-0.331329	0.095099	-0.211363	-0.034665	0.976793	-0.519094	0.850762	-0.082132	-0.828171	-0.524407	-0.197814
54976	9.456608	-2.678688	-1.950301	0.201141	-0.339113	0.060558	-0.214459	-0.035961	0.976071	-0.520635	0.849727	-0.083086	-0.826406	-0.525995	-0.200954
54977	9.665715	-2.155918	-2.512181	0.293619	-0.331061	0.028677	-0.217365	-0.037525	0.975369	-0.522983	0.848202	-0.083917	-0.824161	-0.528342	-0.203995
54978	9.478447	-1.227981	-2.979625	0.235214	-0.300966	0.011865	-0.219880	-0.039048	0.974745	-0.524900	0.846962	-0.084477	-0.822273	-0.530218	-0.206726
54979	9.525216	-0.321173	-3.103544	0.104274	-0.265998	0.017568	-0.222185	-0.040371	0.974168	-0.525705	0.846427	-0.084824	-0.821138	-0.530972	-0.209287
54980	9.480823	0.235488	-2.701519	-0.030867	-0.232677	0.036058	-0.224260	-0.041331	0.973652	-0.525377	0.846606	-0.085071	-0.820784	-0.530613	-0.211574
54981	9.318390	-0.284448	-2.123425	-0.100323	-0.220098	0.041988	-0.226314	-0.042206	0.973139	-0.524445	0.847168	-0.085223	-0.820816	-0.529646	-0.213861
54982	9.332879	-0.896795	-1.499592	-0.046050	-0.246933	0.037935	-0.228515	-0.043221	0.972581	-0.523987	0.847428	-0.085455	-0.820499	-0.529148	-0.216297
54983	9.346469	-1.407266	-0.895931	0.048277	-0.292840	0.013646	-0.231014	-0.044719	0.971922	-0.524339	0.847191	-0.085649	-0.819574	-0.529402	-0.219161
54984	9.195506	-1.401681	-0.328686	0.107330	-0.359567	-0.001554	-0.233925	-0.046667	0.971134	-0.525228	0.846622	-0.085832	-0.818178	-0.530145	-0.222557
54985	9.131452	-1.588896	0.202028	0.069886	-0.432437	-0.016474	-0.237397	-0.049159	0.970168	-0.525826	0.846255	-0.085787	-0.816792	-0.530506	-0.226747
54986	9.244731	-1.977100	0.524572	0.023202	-0.507071	-0.031109	-0.241346	-0.052142	0.969037	-0.526097	0.846116	-0.085501	-0.815459	-0.530443	-0.231639
54987	9.518180	-2.349427	0.262121	0.022640	-0.571601	-0.053382	-0.245741	-0.055680	0.967735	-0.526403	0.845976	-0.084998	-0.813948	-0.530306	-0.237201
54988	9.690783	-2.169393	-0.463020	0.106377	-0.602360	-0.070969	-0.250238	-0.059506	0.966354	-0.527451	0.845370	-0.084528	-0.811896	-0.530857	-0.242930
54989	9.536373	-1.362631	-1.868799	0.163973	-0.627083	-0.088640	-0.254869	-0.063634	0.964880	-0.529000	0.844450	-0.084041	-0.809445	-0.531840	-0.248886
54990	9.350807	-0.192235	-2.967449	0.162201	-0.637056	-0.090045	-0.259515	-0.067815	0.963355	-0.530550	0.843527	-0.083543	-0.806950	-0.532788	-0.254887
54991	9.735660	0.471605	-3.579123	0.085748	-0.615183	-0.098014	-0.263967	-0.071968	0.961843	-0.531493	0.843007	-0.082786	-0.804883	-0.533066	-0.260776
54992	10.114814	0.362804	-3.407044	-0.089247	-0.576847	-0.087121	-0.268119	-0.075804	0.960399	-0.531015	0.843417	-0.081675	-0.803826	-0.531885	-0.266389
54993	10.189106	-0.942613	-3.100330	-0.183275	-0.555327	-0.083374	-0.272153	-0.079506	0.958964	-0.529762	0.844332	-0.080344	-0.803296	-0.529888	-0.271906
54994	10.002309	-1.022090	-2.832788	-0.143015	-0.548285	-0.100937	-0.275996	-0.083289	0.957543	-0.528899	0.845005	-0.078946	-0.802554	-0.528232	-0.277269
54995	9.769076	-0.580043	-2.987298	-0.142424	-0.544394	-0.095160	-0.279874	-0.087015	0.956085	-0.528016	0.845682	-0.077599	-0.801792	-0.526546	-0.282629
54996	9.271801	-0.553740	-3.233778	-0.159995	-0.547769	-0.076941	-0.283833	-0.090575	0.954586	-0.526959	0.846453	-0.076369	-0.801095	-0.524704	-0.287980
54997	9.109694	-0.119150	-3.118826	-0.170532	-0.565604	-0.075126	-0.287980	-0.094224	0.952990	-0.525804	0.847282	-0.075118	-0.800373	-0.522718	-0.293544
54998	9.153857	-0.535735	-2.707588	-0.279115	-0.567558	-0.073759	-0.292111	-0.097838	0.951367	-0.523793	0.848664	-0.073551	-0.800195	-0.519804	-0.299151
54999	9.330231	-1.630127	-2.768201	-0.318833	-0.582995	-0.089768	-0.296320	-0.101673	0.949662	-0.521502	0.850233	-0.071695	-0.800144	-0.516495	-0.304963
55000	9.691223	-1.840938	-2.178941	-0.283986	-0.608849	-0.106944	-0.300609	-0.105748	0.947867	-0.519558	0.851582	-0.069768	-0.799808	-0.513445	-0.310936
55001	9.689928	-1.355652	-1.344147	-0.303827	-0.648939	-0.127513	-0.305150	-0.110205	0.945906	-0.517512	0.853004	-0.067569	-0.799415	-0.510137	-0.317327
55002	9.529493	-1.281505	-0.957932	-0.371813	-0.691341	-0.139547	-0.309931	-0.114940	0.943786	-0.514979	0.854733	-0.065020	-0.799212	-0.506182	-0.324100
55003	9.372043	-1.534144	-1.021664	-0.417414	-0.747043	-0.158070	-0.315099	-0.120102	0.941429	-0.512137	0.856654	-0.062127	-0.799017	-0.501717	-0.331439
55004	9.561296	-1.635522	-1.322802	-0.426785	-0.812021	-0.176994	-0.320657	-0.125706	0.938817	-0.509301	0.858564	-0.058994	-0.798619	-0.497057	-0.339327
55005	9.944149	-1.132590	-1.560933	-0.448327	-0.857128	-0.188252	-0.326550	-0.131603	0.935973	-0.506334	0.860540	-0.055657	-0.798118	-0.492089	-0.347644
55006	10.176394	-0.493765	-1.783926	-0.558492	-0.890669	-0.179144	-0.332730	-0.137534	0.932939	-0.502477	0.863026	-0.051980	-0.798002	-0.486076	-0.356263
55007	10.521125	-0.097686	-1.973272	-0.679729	-0.929627	-0.198024	-0.339161	-0.143769	0.929677	-0.497723	0.866026	-0.047651	-0.798274	-0.478883	-0.365280
55008	10.436739	0.246795	-1.921550	-0.733241	-0.973388	-0.228259	-0.345779	-0.150404	0.926183	-0.492661	0.869169	-0.042783	-0.798575	-0.471088	-0.374639
55009	10.244985	-0.258692	-1.767522	-0.693447	-1.039186	-0.266428	-0.352766	-0.157616	0.922341	-0.488061	0.871997	-0.037655	-0.798343	-0.463442	-0.384537
55010	10.260626	-0.759397	-1.759249	-0.569916	-1.107197	-0.328037	-0.359980	-0.165605	0.918144	-0.484695	0.874084	-0.032378	-0.797173	-0.456676	-0.394921
55011	10.351699	-0.338270	-1.480778	-0.432634	-1.186652	-0.364934	-0.367653	-0.174217	0.913499	-0.482588	0.875423	-0.027270	-0.794947	-0.450870	-0.405927
55012	10.234391	-0.273430	-1.047826	-0.417086	-1.260230	-0.377973	-0.375811	-0.183205	0.908407	-0.480695	0.876610	-0.022073	-0.792274	-0.444962	-0.417505
55013	10.043343	-0.821198	-0.737243	-0.413963	-1.344791	-0.407845	-0.384471	-0.192756	0.902788	-0.478984	0.877667	-0.016593	-0.789149	-0.438801	-0.429765
55014	10.123327	-1.155720	-0.496008	-0.379458	-1.451858	-0.440206	-0.393772	-0.202979	0.896517	-0.477723	0.878443	-0.010941	-0.785318	-0.432595	-0.442874
55015	10.477993	-1.153861	-0.129928	-0.325462	-1.573019	-0.462633	-0.403856	-0.213827	0.889482	-0.477035	0.878868	-0.005315	-0.780601	-0.426461	-0.456940
55016	10.979604	-0.784287	-0.049845	-0.280964	-1.690947	-0.481625	-0.414689	-0.225251	0.881643	-0.476834	0.878993	0.000291	-0.775024	-0.420277	-0.471917
55017	11.796818	-0.080211	-0.100652	-0.287301	-1.801474	-0.483848	-0.426255	-0.237037	0.872995	-0.476671	0.879062	0.005941	-0.768825	-0.413599	-0.487693
55018	12.709856	0.308362	-0.288015	-0.382063	-1.893638	-0.481013	-0.438440	-0.249055	0.863563	-0.475840	0.879449	0.012048	-0.762461	-0.405636	-0.504097
55019	13.493360	0.929151	-0.637982	-0.470477	-1.974896	-0.490717	-0.451056	-0.261310	0.853385	-0.474474	0.880071	0.018698	-0.755925	-0.396475	-0.520946
55020	13.697443	1.653116	0.315292	-0.701843	-2.043907	-0.500670	-0.464055	-0.273737	0.842449	-0.471496	0.881464	0.026695	-0.749896	-0.384823	-0.538114
55021	13.514926	1.551929	1.355967	-0.990168	-2.122967	-0.495613	-0.477533	-0.286140	0.830714	-0.466457	0.883800	0.036284	-0.744567	-0.370165	-0.555516
55022	12.828880	-0.088554	1.630584	-1.163780	-2.196561	-0.455863	-0.491697	-0.298156	0.818130	-0.460047	0.886668	0.046644	-0.739317	-0.353444	-0.573138
55023	12.461644	-1.473204	0.866211	-1.038638	-2.264321	-0.430947	-0.506316	-0.309813	0.804773	-0.454582	0.888929	0.056214	-0.732802	-0.337373	-0.590915
55024	12.075129	-1.864492	-0.318998	-0.829880	-2.313738	-0.406370	-0.521317	-0.321098	0.790648	-0.450640	0.890375	0.064468	-0.724674	-0.322690	-0.608867
55025	11.662810	-1.556936	-2.140886	-0.702206	-2.344687	-0.410526	-0.536267	-0.332163	0.775942	-0.447789	0.891232	0.072042	-0.715474	-0.308825	-0.626678
55026	11.556118	-1.314010	-3.662379	-0.682364	-2.334128	-0.433122	-0.550900	-0.343103	0.760782	-0.445313	0.891817	0.079737	-0.705837	-0.294859	-0.644091
55027	11.132663	-1.535694	-5.540622	-0.589399	-2.280908	-0.439915	-0.564834	-0.353604	0.745605	-0.443675	0.891964	0.086909	-0.695784	-0.281717	-0.660697
55028	10.205584	-1.586245	-6.999663	-0.388576	-2.205715	-0.407966	-0.578231	-0.363364	0.730490	-0.443344	0.891561	0.092549	-0.684905	-0.270344	-0.676623
55029	9.613498	-1.044553	-8.064180	-0.151102	-2.149761	-0.341739	-0.591215	-0.372122	0.715535	-0.444358	0.890685	0.096058	-0.673061	-0.261163	-0.691941
55030	9.658437	-0.351041	-9.084309	-0.022872	-2.020772	-0.258300	-0.603525	-0.379654	0.701157	-0.445769	0.889759	0.098077	-0.661096	-0.253362	-0.706229
55031	9.462707	-0.032026	-9.074908	0.026969	-1.783203	-0.169410	-0.614366	-0.385621	0.688368	-0.447021	0.889021	0.099061	-0.650174	-0.246856	-0.718565
55032	8.974639	0.329056	-8.450831	0.091963	-1.432493	-0.077387	-0.623246	-0.389844	0.677928	-0.448116	0.888482	0.098953	-0.640903	-0.242118	-0.728438
55033	7.743806	-0.116043	-8.515094	0.178057	-1.032890	0.024858	-0.629848	-0.392113	0.670477	-0.449141	0.888128	0.097477	-0.633691	-0.239742	-0.735499
55034	5.901805	0.902464	-10.368098	0.385046	-0.752535	0.095360	-0.635000	-0.393106	0.665013	-0.450988	0.887564	0.094027	-0.627204	-0.240206	-0.740889
55035	5.886800	3.722811	-12.026332	0.141296	-0.578615	0.083241	-0.638905	-0.393757	0.660876	-0.451387	0.887529	0.092419	-0.622937	-0.239264	-0.744783
55036	8.374100	4.941179	-9.388192	-0.583987	-0.137411	0.055133	-0.639989	-0.393625	0.659905	-0.447414	0.889112	0.096433	-0.624688	-0.233535	-0.745135
55037	6.686225	3.372880	-6.580460	-1.110784	0.396660	0.087232	-0.637798	-0.391945	0.663018	-0.439919	0.891982	0.104114	-0.632207	-0.225271	-0.741328
55038	5.204647	0.787175	-5.652682	-1.275903	0.785100	0.148230	-0.633418	-0.388918	0.668973	-0.430865	0.895367	0.112571	-0.642758	-0.216933	-0.734713
55039	4.168604	-0.360850	-5.509010	-1.098165	1.133220	0.234181	-0.626979	-0.384397	0.677595	-0.422305	0.898606	0.119017	-0.654641	-0.211531	-0.725741
55040	3.718250	-0.020315	-5.978291	-0.703886	1.431324	0.330252	-0.618888	-0.378437	0.688304	-0.415620	0.901338	0.121862	-0.666512	-0.210654	-0.715113
55041	3.983613	1.921313	-6.398000	-0.527009	1.705253	0.402608	-0.608991	-0.371202	0.700956	-0.409641	0.903944	0.122801	-0.679209	-0.212355	-0.702553
55042	4.465029	3.349062	-6.198719	-0.748274	1.971282	0.466346	-0.597327	-0.362822	0.715235	-0.401711	0.907232	0.124730	-0.694139	-0.212813	-0.687664
55043	4.618795	3.350701	-6.235343	-1.075395	2.221557	0.547664	-0.583800	-0.353139	0.731075	-0.390953	0.911456	0.128075	-0.711571	-0.211046	-0.670169
55044	4.524715	2.588829	-6.333792	-1.213606	2.441042	0.666464	-0.568745	-0.341963	0.748058	-0.378383	0.916305	0.131192	-0.730312	-0.208438	-0.650537
55045	4.396395	2.130675	-6.126249	-1.164709	2.639314	0.795063	-0.552091	-0.329186	0.766049	-0.365340	0.921377	0.132633	-0.749481	-0.206643	-0.628949
55046	4.198588	1.690432	-6.204656	-1.030959	2.832965	0.928419	-0.533901	-0.314793	0.784764	-0.352491	0.926483	0.131830	-0.768570	-0.206239	-0.605612
55047	4.321047	1.226129	-6.932850	-0.832957	2.981310	1.033194	-0.514212	-0.299032	0.803844	-0.340626	0.931366	0.128575	-0.787121	-0.207695	-0.580778
55048	4.825375	1.524410	-7.516963	-0.662158	3.116532	1.113220	-0.493114	-0.282154	0.822938	-0.329764	0.935976	0.123312	-0.805043	-0.210568	-0.554587
55049	5.072614	2.021809	-6.989844	-0.607493	3.241357	1.185443	-0.470507	-0.264161	0.841928	-0.319134	0.940492	0.116739	-0.822664	-0.213761	-0.526811
55050	5.065288	1.560706	-6.927027	-0.556256	3.358137	1.252039	-0.446504	-0.245157	0.860542	-0.308784	0.944870	0.108964	-0.839813	-0.217068	-0.497589
55051	5.188241	0.252748	-7.495584	-0.309265	3.472427	1.321141	-0.421021	-0.225027	0.878695	-0.300456	0.948646	0.098980	-0.855843	-0.222336	-0.467010
55052	5.103960	-0.143096	-7.600982	0.179020	3.588299	1.374075	-0.394139	-0.203861	0.896156	-0.296413	0.951179	0.086013	-0.869939	-0.231731	-0.435323
55053	5.207287	0.394391	-7.740272	0.718239	3.683139	1.410471	-0.366008	-0.181651	0.912711	-0.297367	0.952175	0.070258	-0.881823	-0.245695	-0.402520
55054	5.411669	1.044937	-7.511452	1.026691	3.802596	1.393056	-0.336431	-0.158769	0.928228	-0.301592	0.951934	0.053514	-0.892108	-0.261943	-0.368144
55055	5.329040	1.333881	-7.107662	1.258952	3.887243	1.317054	-0.305555	-0.135721	0.942452	-0.308673	0.950456	0.036798	-0.900754	-0.279666	-0.332310
55056	5.843667	1.704773	-6.815702	1.313085	3.897209	1.224376	-0.274119	-0.112893	0.955047	-0.317009	0.948188	0.021094	-0.907945	-0.296976	-0.295704
55057	6.790623	1.024580	-6.601823	1.194539	3.877699	1.123931	-0.242361	-0.090448	0.965961	-0.325007	0.945686	0.007005	-0.914129	-0.312246	-0.258594
55058	7.358643	0.118191	-7.154075	1.165846	3.786818	1.007589	-0.210950	-0.068877	0.975067	-0.333416	0.942764	-0.005538	-0.918877	-0.326271	-0.221841
55059	8.157686	0.967648	-7.471337	1.091492	3.626815	0.873269	-0.180484	-0.048614	0.982376	-0.341768	0.939643	-0.016291	-0.922291	-0.338685	-0.186205
55060	9.266306	3.850468	-7.445025	0.552653	3.392843	0.802784	-0.151866	-0.029508	0.987961	-0.345545	0.938066	-0.025098	-0.926032	-0.345197	-0.152657
55061	8.208610	4.068697	-5.288458	-0.600698	3.128662	0.796918	-0.125508	-0.011328	0.992028	-0.338862	0.940287	-0.032135	-0.932427	-0.340194	-0.121852
55062	5.986201	-0.858895	-5.825286	-1.129107	2.785160	0.788177	-0.102047	0.005393	0.994765	-0.327399	0.944093	-0.038704	-0.939359	-0.329635	-0.094576
55063	6.527626	-4.811866	-6.357882	-0.704059	2.277228	0.693729	-0.082851	0.019342	0.996374	-0.320127	0.946306	-0.044990	-0.943745	-0.322694	-0.072210
55064	7.057876	-3.131882	-4.469920	-0.047327	1.755565	0.552867	-0.068019	0.030197	0.997227	-0.319263	0.946323	-0.050432	-0.945222	-0.321808	-0.054727
55065	8.923430	-0.548959	-1.207068	-0.087017	1.205332	0.590904	-0.058518	0.039629	0.997499	-0.318065	0.946398	-0.056258	-0.946261	-0.320562	-0.042777
55066	3.172367	-3.089042	-3.413745	0.259218	0.489315	0.478331	-0.055398	0.045692	0.997418	-0.320244	0.945363	-0.061095	-0.945714	-0.322802	-0.037739
55067	5.483636	-0.913556	-3.898500	1.173281	-0.324819	-0.099006	-0.058162	0.043662	0.997352	-0.331371	0.941556	-0.060544	-0.941706	-0.334015	-0.040294
55068	8.796541	-1.450662	-2.950204	1.666993	-1.026525	-0.606972	-0.065718	0.034418	0.997244	-0.347392	0.936094	-0.055200	-0.935414	-0.350063	-0.049562
55069	15.959993	-1.334014	-2.140815	2.978302	-1.393303	-0.826193	-0.075711	0.021624	0.996895	-0.375662	0.925481	-0.048605	-0.923659	-0.378176	-0.061946
55070	21.531052	8.488488	4.920371	3.784475	-1.207974	-0.947878	-0.083025	0.008107	0.996514	-0.411075	0.910649	-0.041657	-0.907813	-0.413101	-0.072274
55071	18.661615	9.457033	4.033276	2.947985	-1.014517	-0.436758	-0.090327	-0.000206	0.995912	-0.438018	0.898096	-0.039542	-0.894417	-0.439799	-0.081213
55072	10.803076	5.252161	-1.222315	1.942972	-1.087774	-0.076930	-0.099638	-0.005804	0.995007	-0.455377	0.889381	-0.040412	-0.884706	-0.457129	-0.091260
55073	7.508204	8.001290	-4.877148	0.921134	-1.193485	0.020284	-0.110255	-0.011179	0.993840	-0.463473	0.885141	-0.041461	-0.879225	-0.465189	-0.102772
55074	8.872400	4.979503	-6.916947	-0.513970	-1.123409	0.222536	-0.121142	-0.014438	0.992530	-0.458695	0.887549	-0.043075	-0.880297	-0.460487	-0.114142
55075	9.246384	0.753132	-8.550831	-0.938696	-0.917796	0.383987	-0.130981	-0.015279	0.991267	-0.449919	0.891899	-0.045703	-0.883412	-0.451976	-0.123697
55076	9.710072	-1.087547	-8.134912	-0.949167	-0.642833	0.402275	-0.138441	-0.014593	0.990263	-0.440979	0.896209	-0.048443	-0.886776	-0.443391	-0.130507
55077	9.983205	-1.874500	-7.203989	-0.487951	-0.463252	0.346075	-0.144088	-0.013610	0.989471	-0.436141	0.898423	-0.051153	-0.888268	-0.438920	-0.135388
55078	10.382473	-0.877898	-5.396452	-0.077715	-0.375313	0.267178	-0.148563	-0.012888	0.988819	-0.435063	0.898800	-0.053651	-0.888059	-0.438169	-0.139135
55079	10.267521	0.135964	-3.596127	0.061424	-0.303579	0.242489	-0.152342	-0.012121	0.988253	-0.435223	0.898575	-0.056070	-0.887340	-0.438653	-0.142166
55080	9.652539	0.753036	-1.795547	0.091600	-0.251980	0.265327	-0.155711	-0.010876	0.987743	-0.435631	0.898204	-0.058784	-0.886555	-0.439444	-0.144598
55081	9.527889	0.111731	-1.330179	-0.050846	-0.225451	0.293824	-0.159019	-0.009312	0.987232	-0.434696	0.898472	-0.061544	-0.886427	-0.438933	-0.146921
55082	9.626116	-1.824485	-1.805526	-0.190332	-0.189251	0.293540	-0.161948	-0.007535	0.986771	-0.432541	0.899331	-0.064121	-0.886950	-0.437203	-0.148904
55083	9.661714	-3.283395	-1.833662	-0.188247	-0.175153	0.275608	-0.164722	-0.005903	0.986322	-0.430400	0.900186	-0.066492	-0.887481	-0.435466	-0.150821
55084	9.800066	-3.120250	-1.676829	-0.108850	-0.174749	0.242122	-0.167291	-0.004515	0.985897	-0.429036	0.900673	-0.068676	-0.887661	-0.434474	-0.152612
55085	9.649811	-2.264163	-1.421241	-0.062928	-0.163353	0.220944	-0.169722	-0.003312	0.985486	-0.428086	0.900969	-0.070698	-0.887658	-0.433872	-0.154332
55086	9.528735	-1.585185	-0.970920	-0.057739	-0.169699	0.188776	-0.172014	-0.002380	0.985092	-0.427255	0.901225	-0.072429	-0.887617	-0.433344	-0.156040
55087	9.558591	-0.809468	-0.723401	-0.065971	-0.189679	0.175698	-0.174481	-0.001692	0.984659	-0.426347	0.901528	-0.074000	-0.887572	-0.432718	-0.158021
55088	9.539071	-0.618767	-0.436972	-0.133159	-0.228618	0.159086	-0.177166	-0.001277	0.984180	-0.424890	0.902107	-0.075315	-0.887739	-0.431511	-0.160366
55089	9.879672	-1.114001	-0.469735	-0.181517	-0.272275	0.144749	-0.180229	-0.001217	0.983624	-0.423003	0.902903	-0.076390	-0.888024	-0.429843	-0.163244
55090	10.032072	-1.707235	-1.086946	-0.137812	-0.293838	0.126818	-0.183352	-0.001365	0.983046	-0.421553	0.903497	-0.077371	-0.888074	-0.428592	-0.166234
55091	9.729936	-1.911266	-1.513843	-0.079842	-0.311056	0.106461	-0.186592	-0.001805	0.982436	-0.420631	0.903853	-0.078229	-0.887836	-0.427840	-0.169411
55092	9.619583	-1.511791	-2.047935	-0.053609	-0.310062	0.087508	-0.189691	-0.002373	0.981841	-0.419996	0.904085	-0.078958	-0.887480	-0.427346	-0.172493
55093	9.524941	-0.942959	-2.332517	-0.097190	-0.289254	0.081565	-0.192630	-0.002938	0.981267	-0.418963	0.904513	-0.079537	-0.887335	-0.426436	-0.175468
55094	9.474731	-0.597737	-2.640752	-0.152202	-0.262893	0.082545	-0.195287	-0.003343	0.980740	-0.417457	0.905165	-0.080039	-0.887464	-0.425047	-0.178163
55095	9.621156	-0.830040	-2.756642	-0.132099	-0.220592	0.085410	-0.197633	-0.003574	0.980270	-0.416102	0.905740	-0.080588	-0.887581	-0.423819	-0.180491
55096	9.533116	-1.461238	-2.862898	-0.015282	-0.186954	0.066017	-0.199545	-0.003802	0.979881	-0.415840	0.905808	-0.081169	-0.887276	-0.423671	-0.182331
55097	9.459341	-1.799937	-2.952338	0.128851	-0.184036	0.048526	-0.201414	-0.004211	0.979497	-0.416871	0.905275	-0.081829	-0.886370	-0.424806	-0.184090
55098	9.559085	-1.306649	-2.563935	0.263095	-0.176413	0.018854	-0.203034	-0.004825	0.979160	-0.419168	0.904156	-0.082461	-0.884915	-0.427175	-0.185596
55099	9.517902	-0.531447	-1.743789	0.271964	-0.186851	0.002397	-0.204732	-0.005671	0.978802	-0.421554	0.903002	-0.082943	-0.883390	-0.429599	-0.187264
55100	9.628988	-0.261597	-1.121251	0.168667	-0.200590	0.010211	-0.206525	-0.006474	0.978420	-0.423027	0.902278	-0.083322	-0.882267	-0.431106	-0.189082
55101	9.523057	-0.708148	-0.693332	0.046881	-0.231398	0.018455	-0.208678	-0.007373	0.977957	-0.423388	0.902088	-0.083542	-0.881587	-0.431489	-0.191368
55102	9.505444	-1.132686	-0.533024	0.003500	-0.269816	0.016136	-0.211103	-0.008424	0.977428	-0.423391	0.902075	-0.083668	-0.881009	-0.431496	-0.193997
55103	9.452055	-1.151285	-0.563371	0.002663	-0.319164	0.006390	-0.213972	-0.009809	0.976791	-0.423388	0.902075	-0.083687	-0.880318	-0.431468	-0.197172
55104	9.308158	-0.920091	-0.461302	-0.014891	-0.369608	-0.002400	-0.217193	-0.011458	0.976062	-0.423267	0.902140	-0.083595	-0.879586	-0.431291	-0.200788
55105	9.342476	-0.635158	-0.347608	-0.054730	-0.420413	-0.006278	-0.220890	-0.013389	0.975207	-0.422789	0.902385	-0.083375	-0.878895	-0.430723	-0.204989
55106	9.383672	-0.790881	-0.419993	-0.101743	-0.461280	-0.014759	-0.224860	-0.015540	0.974267	-0.421934	0.902821	-0.082982	-0.878300	-0.429735	-0.209565
55107	9.364024	-1.275461	-0.524812	-0.120054	-0.506581	-0.024078	-0.229230	-0.017992	0.973206	-0.420924	0.903341	-0.082444	-0.877654	-0.428545	-0.214646
55108	9.652536	-1.586024	-1.021135	-0.090585	-0.545172	-0.040589	-0.233820	-0.020725	0.972059	-0.420230	0.903722	-0.081814	-0.876775	-0.427618	-0.220018
55109	9.725436	-1.298400	-1.689210	-0.092038	-0.551448	-0.045778	-0.238482	-0.023553	0.970861	-0.419524	0.904113	-0.081118	-0.875858	-0.426644	-0.225495
55110	9.413813	-1.322652	-2.379581	-0.124951	-0.548452	-0.050815	-0.243049	-0.026382	0.969655	-0.418559	0.904633	-0.080301	-0.875063	-0.425375	-0.230912
55111	9.451522	-1.341839	-3.040665	-0.107073	-0.533106	-0.055867	-0.247499	-0.029208	0.968448	-0.417752	0.905079	-0.079465	-0.874201	-0.424238	-0.236208
55112	9.357387	-1.400924	-3.431650	-0.072758	-0.503154	-0.060560	-0.251621	-0.031922	0.967299	-0.417274	0.905369	-0.078667	-0.873252	-0.423423	-0.241131
55113	9.212779	-1.253419	-3.420878	-0.018214	-0.475176	-0.071930	-0.255491	-0.034640	0.966191	-0.417291	0.905429	-0.077883	-0.872119	-0.423081	-0.245785
55114	9.199315	-1.113119	-3.193052	0.008314	-0.466885	-0.088893	-0.259168	-0.037453	0.965106	-0.417600	0.905362	-0.077007	-0.870886	-0.422986	-0.250281
55115	9.369478	-0.885542	-2.609030	0.011728	-0.470679	-0.102816	-0.262860	-0.040430	0.963986	-0.417964	0.905279	-0.076003	-0.869604	-0.422890	-0.254860
55116	9.583961	-1.070271	-2.034140	-0.012423	-0.486124	-0.122404	-0.266552	-0.043626	0.962833	-0.418187	0.905280	-0.074753	-0.868372	-0.422570	-0.259548
55117	9.829755	-0.997813	-1.555359	0.000135	-0.497459	-0.124852	-0.270371	-0.046912	0.961613	-0.418518	0.905228	-0.073510	-0.867031	-0.422328	-0.264381
55118	10.116034	-0.631952	-1.134192	-0.025004	-0.515110	-0.138292	-0.274234	-0.050371	0.960343	-0.418686	0.905266	-0.072077	-0.865735	-0.421848	-0.269344
55119	9.792532	-0.573244	-0.859786	-0.143289	-0.541954	-0.145499	-0.278336	-0.054024	0.958963	-0.417844	0.905799	-0.070249	-0.864833	-0.420250	-0.274690
55120	9.410706	-1.351442	-1.178214	-0.197129	-0.595242	-0.162054	-0.282784	-0.058020	0.957427	-0.416603	0.906533	-0.068111	-0.863988	-0.418128	-0.280525
55121	9.328086	-1.658098	-1.127603	-0.216512	-0.657332	-0.186101	-0.287704	-0.062499	0.955678	-0.415262	0.907328	-0.065676	-0.863009	-0.415752	-0.286995
55122	9.441905	-2.430941	-1.242519	-0.177183	-0.707924	-0.217985	-0.292883	-0.067447	0.953766	-0.414376	0.907920	-0.063042	-0.861692	-0.413681	-0.293863
55123	9.624419	-1.763806	-1.329178	-0.101714	-0.762986	-0.247773	-0.298440	-0.072894	0.951641	-0.414233	0.908168	-0.060342	-0.859852	-0.412209	-0.301228
55124	9.446119	-0.808303	-1.373516	-0.154954	-0.805879	-0.256179	-0.304280	-0.078568	0.949337	-0.413683	0.908610	-0.057396	-0.858067	-0.410189	-0.308974
55125	9.245123	-0.930713	-1.649898	-0.271873	-0.849265	-0.263993	-0.310483	-0.084481	0.946817	-0.412166	0.909507	-0.054007	-0.856574	-0.407014	-0.317207
55126	9.276047	-1.215869	-1.930154	-0.272637	-0.891001	-0.283473	-0.316921	-0.090705	0.944105	-0.410732	0.910361	-0.050413	-0.854904	-0.403751	-0.325768
55127	9.378439	-0.802095	-2.134341	-0.229135	-0.925940	-0.306402	-0.323580	-0.097261	0.941189	-0.409761	0.910995	-0.046734	-0.852873	-0.400784	-0.334634
55128	9.457984	-0.559171	-2.344366	-0.260512	-0.964709	-0.312198	-0.330500	-0.103990	0.938060	-0.408573	0.911718	-0.042879	-0.850787	-0.397437	-0.343810
55129	9.656282	-0.759287	-2.665418	-0.308640	-0.983329	-0.319940	-0.337558	-0.110837	0.934756	-0.407025	0.912594	-0.038775	-0.848755	-0.393558	-0.353167
55130	9.989837	-0.879975	-3.066894	-0.347854	-0.998586	-0.327460	-0.344673	-0.117769	0.931306	-0.405203	0.913578	-0.034437	-0.846765	-0.389238	-0.362606
55131	10.485322	-0.622125	-3.420033	-0.369605	-0.992738	-0.338395	-0.351707	-0.124742	0.927762	-0.403263	0.914596	-0.029902	-0.844796	-0.384649	-0.371974
55132	10.990037	0.028346	-3.386975	-0.393226	-0.998362	-0.370575	-0.358621	-0.131982	0.924106	-0.401272	0.915619	-0.024953	-0.842836	-0.379766	-0.381321
55133	10.994722	0.346628	-3.044631	-0.414620	-1.004422	-0.392057	-0.365511	-0.139400	0.920310	-0.399210	0.916648	-0.019705	-0.840853	-0.374599	-0.390694
55134	11.258854	-0.355811	-2.912662	-0.380810	-1.023567	-0.444555	-0.372314	-0.147319	0.916340	-0.397664	0.917423	-0.014080	-0.838597	-0.369637	-0.400153
55135	11.762893	0.016097	-2.537820	-0.250779	-1.065117	-0.508123	-0.379210	-0.155934	0.912077	-0.397484	0.917571	-0.008386	-0.835588	-0.365716	-0.409933
55136	11.761076	0.993491	-1.781172	-0.199011	-1.108138	-0.524008	-0.386346	-0.164808	0.907510	-0.397842	0.917450	-0.002756	-0.832141	-0.362111	-0.420021
55137	11.516445	1.139571	-1.385929	-0.240461	-1.155262	-0.520446	-0.393861	-0.173778	0.902593	-0.397887	0.917429	0.003010	-0.828589	-0.357945	-0.430484
55138	11.264134	0.986745	-1.054356	-0.303854	-1.225717	-0.521031	-0.401903	-0.182949	0.897220	-0.397461	0.917574	0.009060	-0.824923	-0.352969	-0.441491
55139	11.018368	1.018539	-0.633823	-0.356445	-1.316847	-0.529642	-0.410621	-0.192455	0.891264	-0.396692	0.917822	0.015427	-0.820991	-0.347223	-0.453222
55140	10.657467	0.649393	-0.108321	-0.453379	-1.413391	-0.532107	-0.420069	-0.202232	0.884672	-0.395203	0.918324	0.022271	-0.816919	-0.340269	-0.465682
55141	10.535831	0.174599	0.311231	-0.531066	-1.527022	-0.538468	-0.430361	-0.212346	0.877324	-0.393180	0.918986	0.029560	-0.812526	-0.332225	-0.478986
55142	10.565635	-0.064611	0.654262	-0.583637	-1.645005	-0.545763	-0.441528	-0.222790	0.869148	-0.390846	0.919704	0.037199	-0.807646	-0.323279	-0.493152
55143	10.689762	-0.246624	0.574337	-0.620787	-1.752778	-0.537612	-0.453506	-0.233346	0.860164	-0.388272	0.920446	0.044991	-0.802233	-0.313574	-0.508029
55144	11.094665	-0.370379	0.271700	-0.676940	-1.845585	-0.504238	-0.466288	-0.243713	0.850399	-0.385195	0.921322	0.052830	-0.796367	-0.302936	-0.523479
55145	11.263546	-0.805657	-0.174289	-0.704633	-1.913301	-0.473484	-0.479601	-0.253791	0.839984	-0.381865	0.922229	0.060609	-0.790039	-0.291692	-0.539216
55146	11.490236	-1.103199	-0.939919	-0.676559	-1.968568	-0.446883	-0.493366	-0.263579	0.828924	-0.378734	0.922999	0.068075	-0.783039	-0.280356	-0.555203
55147	11.266283	-1.102283	-1.855141	-0.603547	-2.003767	-0.427722	-0.507307	-0.273056	0.817361	-0.376194	0.923498	0.075023	-0.775317	-0.269427	-0.571220
55148	11.134408	-1.140790	-3.254904	-0.525723	-2.006993	-0.430403	-0.521151	-0.282369	0.805400	-0.374371	0.923682	0.081594	-0.766973	-0.258996	-0.587088
55149	10.816849	-1.258868	-4.616726	-0.432610	-1.989948	-0.446437	-0.534592	-0.291565	0.793222	-0.373454	0.923488	0.087758	-0.758118	-0.249317	-0.602576
55150	10.172717	-1.291162	-5.920717	-0.306596	-1.940700	-0.447372	-0.547525	-0.300486	0.780977	-0.373584	0.922904	0.093182	-0.748767	-0.240740	-0.617570
55151	9.426856	-1.665907	-6.926590	-0.141973	-1.883361	-0.432352	-0.559851	-0.308955	0.768839	-0.374950	0.921910	0.097436	-0.738904	-0.233727	-0.631975
55152	8.719655	-1.751401	-7.769877	0.100235	-1.830024	-0.390308	-0.571788	-0.316818	0.756760	-0.377913	0.920446	0.099804	-0.728176	-0.228923	-0.646029
55153	8.648337	-1.397185	-8.508042	0.266531	-1.760639	-0.328362	-0.583200	-0.323851	0.744982	-0.381767	0.918774	0.100539	-0.717030	-0.225775	-0.659465
55154	8.707618	-1.159928	-8.967268	0.354006	-1.596174	-0.271899	-0.593497	-0.329970	0.734085	-0.385907	0.917077	0.100224	-0.706284	-0.223806	-0.671621
55155	8.409478	-0.981046	-8.645425	0.387177	-1.364169	-0.224404	-0.602287	-0.334782	0.724688	-0.389592	0.915629	0.099201	-0.696756	-0.222585	-0.681900
55156	7.492981	-1.207033	-8.366315	0.498705	-1.117369	-0.189613	-0.609261	-0.339042	0.716834	-0.394215	0.913866	0.097176	-0.688037	-0.223382	-0.690439
55157	6.465654	-0.320787	-8.601385	0.629853	-0.892150	-0.173176	-0.614779	-0.342320	0.710537	-0.399200	0.912033	0.093996	-0.680210	-0.225860	-0.697353
55158	5.355779	1.307136	-9.412537	0.485168	-0.711716	-0.203863	-0.618760	-0.345826	0.705365	-0.403764	0.910218	0.092072	-0.673877	-0.227831	-0.702839
55159	6.540773	2.167308	-9.287686	0.139178	-0.499704	-0.235753	-0.621112	-0.349118	0.701667	-0.406198	0.909066	0.092746	-0.670241	-0.227410	-0.706443
55160	6.793791	2.071049	-7.679332	-0.275720	-0.147754	-0.226743	-0.621162	-0.351547	0.700409	-0.405780	0.908882	0.096314	-0.670448	-0.224385	-0.707214
55161	6.029832	0.947875	-6.394523	-0.551855	0.156591	-0.200150	-0.619250	-0.353030	0.701355	-0.403348	0.909387	0.101615	-0.673676	-0.219965	-0.705532
55162	5.658934	-0.126065	-5.927956	-0.630506	0.447672	-0.160844	-0.615557	-0.353552	0.704337	-0.400098	0.910180	0.107211	-0.678978	-0.215809	-0.701723
55163	5.427306	-0.709268	-6.163537	-0.504193	0.724945	-0.109601	-0.610125	-0.353004	0.709320	-0.397365	0.910860	0.111508	-0.685454	-0.213825	-0.696011
55164	5.352637	-0.788601	-6.406525	-0.333275	0.976810	-0.045896	-0.603193	-0.351366	0.716031	-0.395369	0.911399	0.114173	-0.692706	-0.214228	-0.688669
55165	5.492775	-0.158676	-6.691701	-0.150797	1.207679	-0.010461	-0.594692	-0.348866	0.724316	-0.394416	0.911673	0.115275	-0.700555	-0.217129	-0.679763
55166	5.497788	0.612190	-6.641348	-0.081445	1.432138	0.018601	-0.584650	-0.345591	0.733997	-0.393753	0.911903	0.115719	-0.709326	-0.221358	-0.669221
55167	5.332078	0.939155	-6.664842	-0.133968	1.628743	0.074876	-0.573265	-0.341274	0.744916	-0.392397	0.912446	0.116048	-0.719300	-0.225777	-0.656988
55168	5.278378	0.841768	-6.682952	-0.182082	1.804756	0.155119	-0.560772	-0.335777	0.756828	-0.390218	0.913374	0.116098	-0.730250	-0.230223	-0.643220
55169	5.249720	0.759447	-6.521615	-0.185738	1.955278	0.251204	-0.547314	-0.328938	0.769576	-0.387492	0.914627	0.115357	-0.741820	-0.235068	-0.628050
55170	5.301335	0.678174	-6.326859	-0.112271	2.096070	0.351033	-0.532978	-0.320771	0.782969	-0.384775	0.916023	0.113360	-0.753580	-0.240849	-0.611645
55171	5.284889	0.968877	-6.379935	0.059901	2.231711	0.443876	-0.517696	-0.311248	0.796942	-0.382931	0.917266	0.109488	-0.765085	-0.248492	-0.594051
55172	5.452680	1.931775	-6.370274	0.198945	2.354791	0.520835	-0.501519	-0.300543	0.811266	-0.381827	0.918345	0.104169	-0.776329	-0.257521	-0.575323
55173	5.680427	2.967137	-6.415062	0.164202	2.480939	0.615356	-0.484423	-0.288395	0.825932	-0.380108	0.919714	0.098201	-0.787942	-0.266372	-0.555152
55174	5.729633	3.233939	-5.845014	-0.025484	2.593719	0.720526	-0.466530	-0.274793	0.840737	-0.376496	0.921802	0.092369	-0.800375	-0.273441	-0.533507
55175	5.619077	2.338637	-5.575249	-0.131035	2.689139	0.832604	-0.447915	-0.259682	0.855533	-0.371658	0.924378	0.085996	-0.813168	-0.279447	-0.510556
55176	5.764376	0.764255	-5.792031	0.049523	2.767456	0.920865	-0.428632	-0.243356	0.870088	-0.368042	0.926545	0.077838	-0.825118	-0.286865	-0.486712
55177	5.953771	0.238586	-6.018390	0.473876	2.829197	0.984083	-0.408735	-0.225971	0.884236	-0.367880	0.927459	0.066965	-0.835224	-0.297922	-0.462215
55178	6.191320	0.932207	-5.858669	0.810850	2.880413	1.026188	-0.388323	-0.207708	0.897810	-0.370611	0.927205	0.054211	-0.843714	-0.311686	-0.437034
55179	6.463742	1.517841	-5.913857	0.945162	2.938886	1.053410	-0.367316	-0.188580	0.910778	-0.374663	0.926268	0.040686	-0.851297	-0.326290	-0.410887
55180	6.757796	1.609502	-6.103666	0.994691	3.018113	1.067555	-0.345521	-0.168663	0.923129	-0.379373	0.924850	0.026981	-0.858308	-0.340887	-0.383541
55181	7.416344	1.867976	-6.619031	0.996962	3.063252	1.087386	-0.323313	-0.147829	0.934674	-0.384031	0.923226	0.013178	-0.864864	-0.354683	-0.355262
55182	8.061322	2.474862	-6.781038	0.852873	3.098521	1.127374	-0.300746	-0.126284	0.945307	-0.387926	0.921690	-0.000288	-0.871244	-0.366796	-0.326183
55183	8.026090	2.715151	-6.484224	0.510051	3.151202	1.158248	-0.277695	-0.103831	0.955042	-0.388784	0.921239	-0.012890	-0.878483	-0.374884	-0.296191
55184	7.934252	1.440507	-6.077852	0.143128	3.192382	1.145933	-0.253946	-0.081267	0.963798	-0.387008	0.921757	-0.024249	-0.886417	-0.379156	-0.265528
55185	7.983770	-0.200748	-5.928259	0.142533	3.152533	1.046486	-0.229942	-0.059549	0.971381	-0.385509	0.922050	-0.034731	-0.893593	-0.382463	-0.234974
55186	8.034453	-0.687335	-5.454044	0.107180	3.081569	0.876807	-0.205662	-0.039672	0.977819	-0.384566	0.922073	-0.043475	-0.899895	-0.384977	-0.204892
55187	8.301538	-0.322444	-5.250025	0.070322	2.940902	0.727426	-0.181918	-0.021575	0.983077	-0.383558	0.922122	-0.050740	-0.905422	-0.386297	-0.176026
55188	8.633074	-0.149553	-5.130278	-0.162318	2.793798	0.642493	-0.158982	-0.004905	0.987269	-0.380992	0.922834	-0.056767	-0.910807	-0.385167	-0.148583
55189	8.978947	-1.605104	-5.224592	-0.253628	2.562839	0.574538	-0.137767	0.010208	0.990412	-0.377824	0.923794	-0.062077	-0.915570	-0.382754	-0.123412
55190	9.365811	-1.541357	-4.746055	0.058015	2.217006	0.471803	-0.119202	0.023020	0.992603	-0.377752	0.923495	-0.066782	-0.918202	-0.382918	-0.101386
55191	8.407990	0.031977	-3.357963	0.252502	1.797223	0.370274	-0.104112	0.033302	0.994008	-0.379656	0.922425	-0.070669	-0.919251	-0.384739	-0.083392
55192	8.049760	0.207207	-1.748739	0.345306	1.298043	0.310539	-0.093343	0.041142	0.994784	-0.382525	0.920978	-0.073983	-0.919218	-0.387435	-0.070229
55193	8.242193	-0.802004	-1.329339	0.587954	0.821668	0.188832	-0.086546	0.046046	0.995183	-0.387751	0.918607	-0.076223	-0.917692	-0.392480	-0.061648
55194	4.738919	-1.263232	-2.360948	1.285563	0.079261	-0.071884	-0.085517	0.045670	0.995289	-0.399578	0.913522	-0.076250	-0.912701	-0.404217	-0.059873
55195	6.632022	-1.184636	-2.390488	1.577374	-0.621036	-0.342373	-0.089796	0.039960	0.995158	-0.414216	0.907182	-0.073803	-0.905738	-0.418837	-0.064909
55196	10.362261	-2.269422	-3.642655	2.069219	-1.194297	-0.425495	-0.098730	0.030969	0.994632	-0.433258	0.898470	-0.070981	-0.895846	-0.437940	-0.075288
55197	14.525753	7.625485	-0.235358	2.408810	-1.202667	-0.600087	-0.106796	0.020174	0.994076	-0.455307	0.887815	-0.066933	-0.883906	-0.459758	-0.085630
55198	15.285414	9.197663	3.123364	1.606024	-0.801316	-0.490821	-0.111552	0.012061	0.993685	-0.469974	0.880397	-0.063446	-0.875603	-0.474084	-0.092542
55199	14.036087	1.668914	1.154408	0.792745	-0.659180	-0.052054	-0.117073	0.008454	0.993087	-0.476745	0.876733	-0.063666	-0.871211	-0.480903	-0.098611
55200	11.277096	0.240726	-1.296487	0.914444	-0.703148	0.061114	-0.123451	0.005548	0.992335	-0.484616	0.872296	-0.065165	-0.865972	-0.488946	-0.104997
55201	8.761355	4.072689	-3.344130	0.528330	-0.857555	0.083221	-0.131273	0.002060	0.991344	-0.488861	0.869820	-0.066542	-0.862428	-0.493365	-0.113177
55202	9.843294	3.204245	-4.319733	-0.165207	-0.884815	0.145680	-0.139589	-0.001063	0.990209	-0.487242	0.870635	-0.067752	-0.862038	-0.491929	-0.122049
55203	10.181682	1.411538	-3.695430	-0.423804	-0.774947	0.226143	-0.147379	-0.002897	0.989076	-0.483044	0.872840	-0.069420	-0.863104	-0.487998	-0.130037
55204	10.061207	-0.235542	-3.482019	-0.443634	-0.664755	0.271559	-0.154403	-0.003786	0.988001	-0.478806	0.875007	-0.071474	-0.864237	-0.484096	-0.136916
55205	9.929841	-2.149346	-3.885897	-0.232872	-0.594134	0.264781	-0.160814	-0.004343	0.986975	-0.476141	0.876273	-0.073725	-0.864539	-0.481795	-0.142985
55206	10.033515	-2.217975	-4.549771	0.103316	-0.542803	0.200604	-0.166436	-0.005234	0.986038	-0.476709	0.875786	-0.075816	-0.863162	-0.482672	-0.148257
55207	10.156778	-0.918781	-4.415520	0.172387	-0.466606	0.197493	-0.171421	-0.005755	0.985181	-0.477600	0.875109	-0.077990	-0.861692	-0.483892	-0.152761
55208	10.119743	-0.106617	-3.960207	0.018945	-0.371386	0.228731	-0.175689	-0.005582	0.984430	-0.477370	0.875032	-0.080234	-0.860959	-0.484034	-0.156398
55209	9.941254	-0.522896	-3.931855	-0.143405	-0.266390	0.254726	-0.179220	-0.004628	0.983798	-0.475399	0.875895	-0.082484	-0.861322	-0.482479	-0.159178
55210	9.553182	-1.056958	-3.712016	-0.157720	-0.175542	0.264827	-0.181966	-0.003185	0.983300	-0.473566	0.876667	-0.084797	-0.861756	-0.481087	-0.161032
55211	9.284047	-0.463985	-2.882115	-0.128686	-0.126676	0.257590	-0.184302	-0.001532	0.982868	-0.471728	0.877433	-0.087088	-0.862267	-0.479697	-0.162436
55212	9.450175	-0.269391	-1.881948	-0.174319	-0.112694	0.255260	-0.186453	0.000137	0.982464	-0.469756	0.878271	-0.089273	-0.862882	-0.478164	-0.163692
55213	9.659327	-0.846293	-1.239292	-0.167679	-0.110985	0.266567	-0.188687	0.001963	0.982035	-0.467514	0.879228	-0.091585	-0.863613	-0.476396	-0.164981
55214	9.755520	-1.602580	-0.632514	-0.124241	-0.139764	0.239655	-0.190990	0.003375	0.981586	-0.465991	0.879815	-0.093694	-0.863930	-0.475305	-0.166463
55215	9.747437	-2.013968	-0.724072	-0.089400	-0.171644	0.221548	-0.193528	0.004520	0.981084	-0.464516	0.880380	-0.095687	-0.864160	-0.474247	-0.168279
55216	9.545629	-2.244524	-0.943841	-0.066744	-0.195326	0.207299	-0.196155	0.005388	0.980558	-0.463540	0.880688	-0.097568	-0.864091	-0.473666	-0.170254
55217	9.373829	-1.944522	-0.921680	-0.072271	-0.222878	0.189316	-0.198981	0.006018	0.979985	-0.462260	0.881170	-0.099271	-0.864131	-0.472761	-0.172554
55218	9.480777	-1.510468	-1.113224	-0.105721	-0.236410	0.175203	-0.201810	0.006414	0.979404	-0.461000	0.881661	-0.100765	-0.864148	-0.471841	-0.174971
55219	9.614367	-1.661354	-1.441148	-0.116391	-0.243426	0.161101	-0.204677	0.006699	0.978807	-0.459419	0.882331	-0.102107	-0.864316	-0.470581	-0.177515
55220	9.728358	-1.776965	-1.611583	-0.058932	-0.263182	0.134232	-0.207545	0.006614	0.978203	-0.458638	0.882601	-0.103277	-0.864046	-0.470076	-0.180146
55221	9.798961	-1.721129	-1.819955	0.016446	-0.280080	0.115493	-0.210516	0.006330	0.977570	-0.458293	0.882647	-0.104407	-0.863511	-0.469993	-0.182910
55222	9.770566	-1.671194	-2.108603	0.082797	-0.285194	0.089671	-0.213366	0.005748	0.976956	-0.458823	0.882254	-0.105398	-0.862529	-0.470738	-0.185605
55223	9.669898	-1.344572	-2.248800	0.118349	-0.277468	0.077324	-0.216135	0.005143	0.976350	-0.459421	0.881829	-0.106347	-0.861521	-0.471541	-0.188232
55224	9.554366	-1.063260	-2.162962	0.082434	-0.263791	0.069099	-0.218702	0.004476	0.975782	-0.459986	0.881438	-0.107139	-0.860571	-0.472278	-0.190713
55225	9.535894	-1.112737	-2.093933	-0.011764	-0.262757	0.065883	-0.221289	0.003840	0.975201	-0.459476	0.881632	-0.107735	-0.860182	-0.471922	-0.193331
55226	9.580475	-1.185223	-1.921248	-0.092025	-0.264771	0.064457	-0.223839	0.003129	0.974621	-0.458547	0.882065	-0.108145	-0.860018	-0.471117	-0.196006
55227	9.484373	-1.439793	-1.526129	-0.127607	-0.268399	0.056146	-0.226429	0.002382	0.974025	-0.457077	0.882795	-0.108414	-0.860122	-0.469752	-0.198802
55228	9.476310	-1.713880	-1.656711	0.002882	-0.276993	0.036505	-0.228955	0.001371	0.973436	-0.457025	0.882782	-0.108737	-0.859481	-0.469780	-0.201491
55229	9.284508	-1.786743	-1.546774	-0.005881	-0.292017	0.027106	-0.231612	0.000261	0.972808	-0.456670	0.882938	-0.108963	-0.858958	-0.469489	-0.204380
55230	9.209663	-1.619938	-1.283916	0.087886	-0.323311	0.012996	-0.234424	-0.001175	0.972134	-0.457400	0.882527	-0.109232	-0.857806	-0.470261	-0.207423
55231	9.289030	-1.425290	-1.075859	0.089854	-0.345155	-0.001417	-0.237400	-0.002782	0.971408	-0.457918	0.882240	-0.109383	-0.856710	-0.470792	-0.210717
55232	9.214973	-1.389886	-0.934526	0.113544	-0.379928	-0.002314	-0.240619	-0.004624	0.970609	-0.458902	0.881706	-0.109563	-0.855285	-0.471777	-0.214277
55233	9.297346	-1.338387	-0.792080	0.070805	-0.416113	-0.009166	-0.244156	-0.006638	0.969713	-0.459282	0.881503	-0.109604	-0.854077	-0.472132	-0.218273
55234	9.281189	-1.513683	-0.854304	0.052620	-0.448239	-0.012291	-0.247902	-0.008895	0.968744	-0.459768	0.881254	-0.109563	-0.852736	-0.472558	-0.222555
55235	9.299202	-1.589381	-1.288610	0.070719	-0.473644	-0.013383	-0.251898	-0.011218	0.967689	-0.460162	0.881048	-0.109570	-0.851351	-0.472894	-0.227096
55236	9.493547	-1.703586	-2.059545	0.139500	-0.482517	-0.032166	-0.255830	-0.013818	0.966623	-0.461437	0.880384	-0.109541	-0.849486	-0.474059	-0.231605
55237	9.723193	-1.405745	-2.695106	0.212299	-0.479673	-0.053258	-0.259676	-0.016531	0.965554	-0.463145	0.879492	-0.109501	-0.847387	-0.475626	-0.236039
55238	9.733131	-0.470574	-3.226703	0.235846	-0.478852	-0.058268	-0.263434	-0.019357	0.964483	-0.465301	0.878358	-0.109462	-0.845043	-0.477611	-0.240396
55239	9.708621	0.307579	-3.309978	0.067575	-0.462397	-0.054791	-0.267108	-0.022005	0.963415	-0.465770	0.878157	-0.109077	-0.843630	-0.477865	-0.244812
55240	9.748151	-0.126705	-3.541253	-0.082575	-0.428685	-0.027882	-0.270570	-0.024328	0.962393	-0.465156	0.878546	-0.108566	-0.842865	-0.477038	-0.249025
55241	9.435897	-0.595060	-3.651538	-0.122459	-0.393139	-0.015220	-0.273838	-0.026293	0.961416	-0.463913	0.879262	-0.108089	-0.842495	-0.475613	-0.252973
55242	9.270452	-0.875054	-3.451720	-0.084364	-0.375490	-0.016733	-0.276900	-0.028256	0.960483	-0.463257	0.879659	-0.107675	-0.841855	-0.474766	-0.256667
55243	9.412854	-1.166410	-3.160507	-0.043746	-0.361232	-0.024875	-0.279852	-0.030149	0.959570	-0.462713	0.879990	-0.107299	-0.841177	-0.474034	-0.260218
55244	9.486811	-1.375087	-2.590951	-0.028097	-0.351766	-0.034149	-0.282629	-0.032148	0.958690	-0.462581	0.880113	-0.106860	-0.840321	-0.473674	-0.263617
55245	9.536728	-1.472620	-1.640733	-0.070732	-0.355227	-0.028293	-0.285513	-0.034028	0.957771	-0.461802	0.880581	-0.106378	-0.839775	-0.472673	-0.267131
55246	9.802656	-1.659525	-0.539870	-0.116648	-0.378510	-0.036812	-0.288498	-0.036171	0.956797	-0.460937	0.881119	-0.105674	-0.839230	-0.471510	-0.270873
55247	9.446978	-1.752198	0.115537	-0.165345	-0.436050	-0.049671	-0.291956	-0.038613	0.955652	-0.459444	0.882011	-0.104725	-0.838852	-0.469643	-0.275249
55248	9.097107	-2.039316	-0.088815	-0.143193	-0.523420	-0.073775	-0.295983	-0.041750	0.954280	-0.458469	0.882653	-0.103584	-0.837974	-0.468167	-0.280391
55249	9.073356	-1.936066	-0.397443	-0.124970	-0.604189	-0.099777	-0.300611	-0.045403	0.952666	-0.457478	0.883322	-0.102258	-0.836867	-0.466564	-0.286307
55250	9.195581	-2.309147	-0.816228	-0.101741	-0.677506	-0.126026	-0.305676	-0.049705	0.950837	-0.457019	0.883735	-0.100726	-0.835282	-0.465340	-0.292853
55251	9.364621	-2.240837	-1.543233	-0.068443	-0.731142	-0.153251	-0.311101	-0.054398	0.948819	-0.456678	0.884101	-0.099049	-0.833463	-0.464119	-0.299887
55252	9.646623	-1.558634	-2.245931	-0.085345	-0.756185	-0.160112	-0.316643	-0.059351	0.946686	-0.456480	0.884405	-0.097235	-0.831483	-0.462932	-0.307133
55253	9.766081	-0.831857	-3.054589	-0.168455	-0.747579	-0.156952	-0.322165	-0.064117	0.944510	-0.455317	0.885224	-0.095213	-0.829998	-0.460726	-0.314381
55254	9.634421	-0.251740	-3.626949	-0.295508	-0.743873	-0.151751	-0.327623	-0.068909	0.942292	-0.453369	0.886478	-0.092804	-0.828927	-0.457611	-0.321672
55255	9.495018	-0.375598	-3.823717	-0.411541	-0.734106	-0.155202	-0.333036	-0.073549	0.940041	-0.450202	0.888381	-0.089989	-0.828496	-0.453178	-0.328974
55256	9.389591	-0.806625	-3.821483	-0.424792	-0.719740	-0.169238	-0.338215	-0.078333	0.937803	-0.447262	0.890167	-0.086950	-0.827990	-0.448851	-0.336103
55257	9.235801	-0.836944	-3.579970	-0.367929	-0.715572	-0.183100	-0.343353	-0.083086	0.935524	-0.444585	0.891792	-0.083968	-0.827317	-0.444751	-0.343139
55258	9.049999	-0.628159	-3.328132	-0.323281	-0.713568	-0.190111	-0.348388	-0.087976	0.933213	-0.442580	0.893060	-0.081034	-0.826286	-0.441253	-0.350068
55259	9.026763	-0.975898	-3.331793	-0.321012	-0.717185	-0.198352	-0.353471	-0.092818	0.930829	-0.440361	0.894423	-0.078034	-0.825312	-0.437484	-0.357026
55260	9.302664	-1.332378	-3.320876	-0.294200	-0.727490	-0.215693	-0.358500	-0.097951	0.928377	-0.438714	0.895497	-0.074931	-0.824019	-0.434155	-0.364009
55261	9.632115	-1.269459	-3.066880	-0.278742	-0.742134	-0.233662	-0.363628	-0.103159	0.925815	-0.436979	0.896607	-0.071726	-0.822693	-0.430643	-0.371110
55262	10.057425	-1.020813	-2.704374	-0.294719	-0.762966	-0.259553	-0.368746	-0.108793	0.923142	-0.435519	0.897594	-0.068185	-0.821188	-0.427188	-0.378365
55263	10.285756	-0.868636	-2.439670	-0.315087	-0.791377	-0.273646	-0.374094	-0.114508	0.920294	-0.433651	0.898773	-0.064446	-0.819756	-0.423195	-0.385882
55264	10.535659	-0.746495	-2.141236	-0.341537	-0.837500	-0.288056	-0.379685	-0.120658	0.917214	-0.431951	0.899870	-0.060431	-0.818082	-0.419137	-0.393785
55265	10.558488	-0.731284	-1.785762	-0.403152	-0.889680	-0.311370	-0.385659	-0.127060	0.913851	-0.429556	0.901304	-0.055964	-0.816547	-0.414133	-0.402176
55266	10.887234	-1.065554	-1.752302	-0.408426	-0.947029	-0.343477	-0.391890	-0.134089	0.910188	-0.427573	0.902533	-0.051134	-0.814619	-0.409211	-0.411027
55267	11.082502	-0.583813	-1.633823	-0.380853	-1.014998	-0.362202	-0.398646	-0.141370	0.906143	-0.425611	0.903723	-0.046250	-0.812365	-0.404102	-0.420434
55268	11.452813	-0.126279	-1.527616	-0.399361	-1.066420	-0.373520	-0.405688	-0.149062	0.901775	-0.423887	0.904780	-0.041138	-0.809776	-0.398940	-0.430244
55269	11.492582	0.226766	-1.496614	-0.461979	-1.119340	-0.373295	-0.413203	-0.156749	0.897047	-0.421388	0.906175	-0.035758	-0.807276	-0.392780	-0.440487
55270	11.098664	0.404515	-1.299876	-0.510876	-1.176920	-0.371566	-0.421106	-0.164737	0.891926	-0.418834	0.907563	-0.030120	-0.804517	-0.386253	-0.451178
55271	10.614507	0.605262	-1.147451	-0.575781	-1.256508	-0.382878	-0.429643	-0.172884	0.886295	-0.415536	0.909258	-0.024073	-0.801709	-0.378630	-0.462496
55272	10.225700	0.390231	-1.112803	-0.618356	-1.348922	-0.399374	-0.438762	-0.181605	0.880061	-0.412337	0.910861	-0.017613	-0.798415	-0.370610	-0.474534
55273	10.060121	0.141389	-0.797550	-0.661119	-1.446633	-0.427485	-0.448572	-0.190657	0.873174	-0.408667	0.912621	-0.010672	-0.794842	-0.361625	-0.487292
55274	10.340134	-0.128799	-0.367777	-0.708976	-1.558741	-0.454821	-0.459058	-0.200408	0.865507	-0.405126	0.914256	-0.003180	-0.790657	-0.352099	-0.500887
55275	10.904229	-0.311429	0.333460	-0.776199	-1.671472	-0.463167	-0.470336	-0.210477	0.857020	-0.401175	0.915989	0.004792	-0.786030	-0.341561	-0.515261
55276	11.402413	-0.543581	0.993411	-0.855102	-1.793822	-0.458153	-0.482543	-0.220734	0.847602	-0.396674	0.917865	0.013204	-0.780898	-0.329850	-0.530469
55277	11.943922	-1.090334	1.332006	-0.902191	-1.926896	-0.436356	-0.495772	-0.231006	0.837166	-0.391809	0.919789	0.021775	-0.775046	-0.317213	-0.546516
55278	12.195212	-1.946005	1.539997	-0.847266	-2.056763	-0.425761	-0.509963	-0.241354	0.825643	-0.387429	0.921409	0.030051	-0.768008	-0.304553	-0.563392
55279	12.387636	-2.491424	1.121046	-0.637448	-2.163391	-0.414730	-0.524828	-0.251669	0.813153	-0.384731	0.922282	0.037129	-0.759301	-0.293359	-0.580864
55280	12.503264	-2.357795	-0.391808	-0.343112	-2.267242	-0.410015	-0.540326	-0.262034	0.799616	-0.384346	0.922211	0.042493	-0.748549	-0.284369	-0.599006
55281	12.848254	-1.901683	-2.308069	-0.154178	-2.295971	-0.411572	-0.555727	-0.272289	0.785511	-0.385486	0.921530	0.046718	-0.736593	-0.276841	-0.617082
55282	12.373694	-1.272886	-4.273998	-0.026699	-2.255470	-0.407298	-0.570606	-0.282245	0.771198	-0.387604	0.920464	0.050088	-0.723998	-0.270339	-0.634621
55283	11.165669	-1.054195	-6.252676	0.136644	-2.183755	-0.375055	-0.584742	-0.291558	0.757014	-0.390784	0.919007	0.052095	-0.710890	-0.265367	-0.651318
55284	9.845188	-0.412857	-7.362192	0.299379	-2.120117	-0.310255	-0.598431	-0.300030	0.742874	-0.394748	0.917289	0.052479	-0.697176	-0.261843	-0.667371
55285	9.122463	-0.158099	-8.796692	0.335142	-1.995254	-0.206331	-0.611318	-0.307130	0.729357	-0.398346	0.915774	0.051752	-0.683821	-0.258899	-0.682173
55286	8.674691	-0.448114	-9.861071	0.300011	-1.794118	-0.085591	-0.623116	-0.312568	0.716958	-0.400929	0.914725	0.050335	-0.671553	-0.256084	-0.695297
55287	8.683056	-0.782959	-9.797722	0.351025	-1.508237	0.014989	-0.633154	-0.316296	0.706451	-0.403210	0.913859	0.047783	-0.660710	-0.254594	-0.706147
55288	8.010234	-1.004868	-9.038012	0.480899	-1.159145	0.079077	-0.641059	-0.318563	0.698255	-0.405884	0.912872	0.043841	-0.651384	-0.255306	-0.714505
55289	7.086582	-0.540561	-9.195652	0.607600	-0.876579	0.133050	-0.647210	-0.319615	0.692074	-0.408999	0.911719	0.038566	-0.643303	-0.258098	-0.720796
55290	6.042962	1.751348	-9.356866	0.471560	-0.595672	0.135020	-0.651559	-0.319963	0.687819	-0.411166	0.910917	0.034254	-0.637506	-0.260489	-0.725073
55291	5.687950	3.569130	-9.388540	-0.067200	-0.346295	0.090665	-0.654073	-0.320052	0.685387	-0.410185	0.911363	0.034131	-0.635561	-0.258812	-0.727378
55292	7.371032	3.288497	-7.848013	-0.717705	0.056090	0.073610	-0.653996	-0.319271	0.685825	-0.405154	0.913422	0.038873	-0.638858	-0.252441	-0.726728
55293	6.413538	1.789634	-6.281732	-1.057917	0.532710	0.105745	-0.650935	-0.316999	0.689779	-0.397700	0.916370	0.045829	-0.646621	-0.244493	-0.722568
55294	5.336879	-0.026359	-5.664463	-1.107263	0.914037	0.160059	-0.645589	-0.313363	0.696433	-0.389468	0.919530	0.052712	-0.656909	-0.237208	-0.715683
55295	4.575971	-1.135054	-6.179714	-0.884410	1.283481	0.218229	-0.637863	-0.308355	0.705725	-0.382240	0.922273	0.057488	-0.668598	-0.233087	-0.706149
55296	4.476369	-1.211878	-6.693425	-0.603477	1.576880	0.269271	-0.628226	-0.302233	0.716929	-0.376486	0.924489	0.059829	-0.680875	-0.232328	-0.694574
55297	4.745596	-0.020554	-6.672149	-0.436833	1.846841	0.285599	-0.616539	-0.295303	0.729847	-0.371739	0.926345	0.060781	-0.694039	-0.233838	-0.680903
55298	4.893445	1.103048	-6.462800	-0.508222	2.104890	0.288132	-0.602820	-0.287728	0.744191	-0.366439	0.928367	0.062109	-0.708753	-0.235260	-0.665073
55299	4.715244	1.178750	-6.320768	-0.657987	2.346926	0.306233	-0.587048	-0.279370	0.759820	-0.359931	0.930772	0.064138	-0.725137	-0.235831	-0.646962
55300	4.491356	0.698045	-6.378191	-0.700211	2.544030	0.363336	-0.569657	-0.270013	0.776263	-0.352712	0.933413	0.065839	-0.742351	-0.236291	-0.626962
55301	4.476313	0.311559	-6.331458	-0.640909	2.721043	0.437001	-0.550689	-0.259498	0.793349	-0.345479	0.936076	0.066374	-0.759859	-0.237534	-0.605138
55302	4.676286	0.059005	-6.298757	-0.501072	2.878044	0.510645	-0.530300	-0.247872	0.810766	-0.338886	0.938559	0.065285	-0.777135	-0.240137	-0.581718
55303	4.952036	0.410674	-6.625026	-0.267296	3.032533	0.565821	-0.508331	-0.235215	0.828416	-0.333876	0.940563	0.062185	-0.793805	-0.244978	-0.556650
55304	5.234877	1.175794	-6.365496	-0.168305	3.173468	0.600650	-0.484854	-0.221730	0.846022	-0.329560	0.942345	0.058105	-0.810128	-0.250642	-0.529973
55305	5.231927	1.394637	-5.846570	-0.141479	3.301904	0.651973	-0.459924	-0.207225	0.863439	-0.325348	0.944092	0.053280	-0.826207	-0.256413	-0.501631
55306	5.393891	0.452142	-6.326395	-0.040284	3.413305	0.692085	-0.433681	-0.191857	0.880404	-0.321934	0.945571	0.047476	-0.841594	-0.262842	-0.471841
55307	5.708406	-0.517677	-6.764950	0.274478	3.510646	0.728538	-0.406274	-0.175374	0.896764	-0.320776	0.946321	0.039740	-0.855596	-0.271515	-0.440721
55308	6.006671	-0.594787	-7.089790	0.744113	3.579302	0.758854	-0.377868	-0.158278	0.912230	-0.324223	0.945513	0.029752	-0.867234	-0.284524	-0.408596
55309	6.279607	-0.430629	-7.062141	1.160601	3.628484	0.769444	-0.348774	-0.140230	0.926656	-0.331167	0.943398	0.018120	-0.876747	-0.300558	-0.375473
55310	6.499946	0.114888	-6.741498	1.500098	3.651828	0.750683	-0.319131	-0.121873	0.939842	-0.341877	0.939727	0.005772	-0.883898	-0.319468	-0.341561
55311	7.008511	1.113527	-6.734955	1.627524	3.651006	0.715838	-0.289257	-0.103031	0.951691	-0.353808	0.935297	-0.006280	-0.889466	-0.338532	-0.306995
55312	7.693007	1.452760	-7.273685	1.493676	3.663088	0.676513	-0.258999	-0.084032	0.962215	-0.365283	0.930740	-0.017040	-0.894141	-0.355894	-0.271756
55313	8.497425	1.865050	-7.332051	1.302241	3.636199	0.643137	-0.228789	-0.064782	0.971318	-0.375125	0.926594	-0.026560	-0.898297	-0.370442	-0.236296
55314	8.742533	2.113695	-5.782923	0.947087	3.510870	0.617377	-0.199497	-0.045909	0.978822	-0.382335	0.923375	-0.034616	-0.902231	-0.381144	-0.201764
55315	8.509039	2.368464	-5.143194	0.613373	3.298920	0.590664	-0.171933	-0.027739	0.984718	-0.386552	0.921332	-0.041539	-0.906099	-0.387787	-0.169130
55316	7.528593	1.726565	-5.143627	0.199899	3.054818	0.541912	-0.146266	-0.010897	0.989185	-0.387509	0.920659	-0.047157	-0.910189	-0.390215	-0.138884
55317	7.188718	-0.701715	-5.568761	-0.247475	2.795620	0.515856	-0.122735	0.004738	0.992428	-0.384362	0.921721	-0.051935	-0.914987	-0.387826	-0.111306
55318	7.524055	-3.300098	-5.507317	-0.034131	2.446317	0.426681	-0.101934	0.018119	0.994626	-0.383571	0.921806	-0.056102	-0.917869	-0.387228	-0.087013
55319	8.506838	-2.680105	-3.217168	0.356387	2.010674	0.323597	-0.084715	0.028907	0.995986	-0.386358	0.920423	-0.059576	-0.918450	-0.389854	-0.066805
55320	8.852467	-1.378321	-1.425493	0.419308	1.573448	0.207876	-0.071054	0.036946	0.996788	-0.390046	0.918715	-0.061855	-0.918050	-0.393189	-0.050867
55321	4.508445	-1.375938	-2.208176	1.064331	0.718040	-0.041356	-0.064318	0.039390	0.997152	-0.399823	0.914499	-0.061915	-0.914333	-0.402667	-0.043070
55322	5.609261	-1.084349	-2.059166	1.325869	-0.202014	-0.283771	-0.064987	0.035944	0.997239	-0.412093	0.909189	-0.059625	-0.908821	-0.414830	-0.044273
55323	7.432740	-4.171417	-4.558137	1.625360	-1.311647	-0.353356	-0.075385	0.027170	0.996784	-0.427048	0.902437	-0.056895	-0.901081	-0.429964	-0.056427
55324	15.218471	4.075729	-1.956398	2.297183	-1.863438	-0.501782	-0.089852	0.014425	0.995851	-0.448031	0.892425	-0.053351	-0.889492	-0.450965	-0.073723
55325	19.465057	8.686401	3.994793	2.032221	-1.441657	-0.633895	-0.099712	0.002152	0.995014	-0.466474	0.883196	-0.048657	-0.878897	-0.469000	-0.087062
55326	15.590046	5.427084	2.202422	1.608365	-1.055545	-0.302153	-0.107489	-0.005562	0.994191	-0.480855	0.875535	-0.047091	-0.870187	-0.483123	-0.096785
55327	10.596439	4.109036	-1.558169	1.232728	-0.983613	0.010883	-0.116063	-0.010292	0.993189	-0.491400	0.869587	-0.048413	-0.863166	-0.493672	-0.105984
55328	6.735137	5.150568	-5.163340	0.750373	-1.040871	0.179183	-0.125884	-0.013940	0.991947	-0.497644	0.865882	-0.050986	-0.858198	-0.500054	-0.115937
55329	7.912207	5.259846	-7.863581	-0.126712	-1.106711	0.248700	-0.136607	-0.017368	0.990473	-0.496221	0.866562	-0.053244	-0.857382	-0.498767	-0.126997
55330	10.136653	3.249869	-8.203682	-1.082568	-0.936060	0.290275	-0.146054	-0.019500	0.989084	-0.486510	0.871964	-0.054650	-0.861381	-0.489181	-0.136840
55331	11.046208	-0.674926	-6.681168	-1.174779	-0.764788	0.357394	-0.154381	-0.020145	0.987806	-0.475812	0.877733	-0.056462	-0.865892	-0.478726	-0.145090
55332	11.257545	-3.695430	-4.943389	-0.929797	-0.547249	0.336759	-0.160694	-0.019811	0.986805	-0.467217	0.882214	-0.058372	-0.869417	-0.470432	-0.151022
55333	9.921193	-3.877168	-3.611064	-0.258554	-0.491559	0.267447	-0.166226	-0.019828	0.985888	-0.464515	0.883492	-0.060551	-0.869824	-0.468025	-0.156070
55334	9.614084	-1.659161	-2.955126	0.114568	-0.502166	0.226394	-0.171620	-0.020212	0.984956	-0.465132	0.883002	-0.062925	-0.868446	-0.468934	-0.160942
55335	9.753788	0.129274	-2.337888	0.031528	-0.455099	0.214083	-0.176583	-0.020526	0.984072	-0.465018	0.882910	-0.065028	-0.867512	-0.469094	-0.165452
55336	9.443705	-0.405653	-1.932875	-0.135147	-0.388217	0.234090	-0.181015	-0.020309	0.983271	-0.463431	0.883591	-0.067065	-0.867447	-0.467818	-0.169355
55337	9.282750	-2.158560	-1.907541	-0.065919	-0.358033	0.232997	-0.185216	-0.019993	0.982495	-0.462418	0.883959	-0.069185	-0.867101	-0.467137	-0.172968
55338	9.277864	-3.420327	-2.195902	0.011708	-0.331251	0.198351	-0.188981	-0.019819	0.981781	-0.462153	0.883944	-0.071115	-0.866430	-0.467172	-0.176208
55339	9.434842	-3.375956	-2.133482	0.208343	-0.318537	0.178939	-0.192586	-0.019795	0.981080	-0.463601	0.883016	-0.073189	-0.864861	-0.468925	-0.179234
55340	9.559467	-2.328256	-2.069250	0.493472	-0.317191	0.148188	-0.195992	-0.020014	0.980401	-0.467579	0.880722	-0.075494	-0.861950	-0.473211	-0.181973
55341	9.653811	-0.621099	-1.719224	0.324751	-0.298102	0.137886	-0.199227	-0.020278	0.979744	-0.470090	0.879219	-0.077394	-0.859840	-0.475986	-0.184696
55342	9.704801	-0.214303	-1.693035	0.159176	-0.296028	0.134205	-0.202379	-0.020541	0.979092	-0.471193	0.878488	-0.078966	-0.858499	-0.477322	-0.187466
55343	9.628916	-0.832403	-1.966502	0.005914	-0.269213	0.139453	-0.205367	-0.020663	0.978467	-0.470947	0.878500	-0.080294	-0.857924	-0.477296	-0.190146
55344	9.526293	-1.958604	-1.982882	0.047413	-0.268602	0.134787	-0.208282	-0.020793	0.977848	-0.471080	0.878302	-0.081664	-0.857148	-0.477654	-0.192729
55345	9.580167	-2.030531	-1.766463	0.253441	-0.298425	0.102002	-0.211340	-0.021387	0.977179	-0.473025	0.877121	-0.083107	-0.855326	-0.479794	-0.195487
55346	9.680891	-0.917500	-1.256632	0.411322	-0.340403	0.075383	-0.214581	-0.022397	0.976449	-0.476383	0.875157	-0.084615	-0.852651	-0.483320	-0.198462
55347	10.017751	0.045757	-1.169680	0.390649	-0.357999	0.061809	-0.217945	-0.023652	0.975674	-0.479565	0.873287	-0.085955	-0.850010	-0.486632	-0.201671
55348	9.899317	0.567748	-1.395580	0.185869	-0.369524	0.060386	-0.221350	-0.024957	0.974875	-0.481016	0.872396	-0.086884	-0.848309	-0.488162	-0.205109
55349	9.656694	-0.353780	-1.883805	-0.092308	-0.375502	0.083787	-0.224954	-0.026116	0.974019	-0.480036	0.872878	-0.087462	-0.847916	-0.487239	-0.208894
55350	9.507253	-1.355120	-2.209261	-0.127903	-0.379661	0.075807	-0.228513	-0.027333	0.973157	-0.478786	0.873521	-0.087892	-0.847671	-0.486018	-0.212698
55351	9.267676	-1.525847	-2.037501	-0.038031	-0.391228	0.051988	-0.232094	-0.028839	0.972266	-0.478334	0.873731	-0.088269	-0.846953	-0.485554	-0.216582
55352	9.371237	-1.309181	-1.721675	0.042538	-0.419006	0.023115	-0.235728	-0.030703	0.971334	-0.478646	0.873532	-0.088548	-0.845772	-0.485798	-0.220611
55353	9.492215	-1.343728	-1.613660	0.062867	-0.438601	0.008305	-0.239491	-0.032820	0.970344	-0.479149	0.873238	-0.088723	-0.844429	-0.486187	-0.224858
55354	9.513770	-1.713974	-1.951133	0.050706	-0.440910	0.004150	-0.243208	-0.034959	0.969344	-0.479573	0.872993	-0.088840	-0.843125	-0.486478	-0.229084
55355	9.554476	-2.016830	-2.845369	0.086982	-0.418985	-0.011194	-0.246700	-0.037152	0.968379	-0.480325	0.872575	-0.088889	-0.841681	-0.487066	-0.233109
55356	9.396354	-1.941946	-3.484865	0.132193	-0.381987	-0.025739	-0.249765	-0.039270	0.967510	-0.481508	0.871920	-0.088912	-0.840100	-0.488070	-0.236684
55357	9.407836	-1.331148	-3.752986	0.184827	-0.352334	-0.039323	-0.252551	-0.041390	0.966698	-0.483150	0.871009	-0.088931	-0.838322	-0.489520	-0.239972
55358	9.460542	-0.669570	-3.640709	0.173844	-0.321494	-0.046931	-0.254993	-0.043405	0.965968	-0.484732	0.870137	-0.088859	-0.836668	-0.490894	-0.242919
55359	9.631400	0.108719	-3.075236	0.156420	-0.296483	-0.047144	-0.257263	-0.045328	0.965278	-0.486153	0.869356	-0.088745	-0.835147	-0.492103	-0.245689
55360	9.629542	0.306936	-2.423784	0.048469	-0.281981	-0.032009	-0.259437	-0.047025	0.964614	-0.486647	0.869102	-0.088517	-0.834186	-0.492392	-0.248362
55361	9.547364	-0.452657	-2.026867	-0.040612	-0.289429	-0.021103	-0.261768	-0.048690	0.963902	-0.486356	0.869301	-0.088169	-0.833628	-0.491879	-0.251236
55362	9.583995	-0.916539	-1.647739	0.001856	-0.325826	-0.022087	-0.264352	-0.050515	0.963102	-0.486437	0.869281	-0.087923	-0.832765	-0.491731	-0.254368
55363	9.460123	-0.626915	-0.709644	-0.032992	-0.371729	-0.018879	-0.267372	-0.052562	0.962159	-0.486205	0.869442	-0.087613	-0.831936	-0.491232	-0.258021
55364	9.229608	-1.402064	-0.540618	-0.083723	-0.405282	-0.017386	-0.270635	-0.054734	0.961125	-0.485563	0.869843	-0.087190	-0.831255	-0.490283	-0.261986
55365	9.055558	-2.163590	-0.542756	-0.085303	-0.475923	-0.030118	-0.274457	-0.057381	0.959886	-0.484931	0.870251	-0.086632	-0.830371	-0.489255	-0.266672
55366	9.365569	-2.355341	-0.404499	-0.029132	-0.526853	-0.055224	-0.278537	-0.060468	0.958520	-0.484849	0.870360	-0.085986	-0.829058	-0.488688	-0.271746
55367	9.611868	-1.922036	-0.429314	0.044753	-0.586019	-0.087624	-0.282977	-0.064144	0.956979	-0.485463	0.870093	-0.085230	-0.827194	-0.488696	-0.277356
55368	9.683580	-1.036555	-0.977812	-0.025366	-0.637753	-0.095908	-0.287758	-0.068125	0.955277	-0.485535	0.870152	-0.084204	-0.825500	-0.488051	-0.283471
55369	9.732297	-0.720512	-2.029292	-0.155730	-0.661892	-0.103133	-0.292727	-0.072293	0.953459	-0.484549	0.870843	-0.082735	-0.824332	-0.486216	-0.289949
55370	9.682926	-0.522290	-3.202755	-0.197314	-0.670959	-0.094867	-0.297772	-0.076406	0.951574	-0.483212	0.871728	-0.081215	-0.823309	-0.483996	-0.296496
55371	9.507138	-0.060985	-3.967299	-0.219691	-0.653631	-0.090989	-0.302719	-0.080401	0.949682	-0.481677	0.872722	-0.079653	-0.822404	-0.481552	-0.302917
55372	9.308376	-0.430020	-4.576629	-0.274507	-0.615157	-0.089748	-0.307322	-0.084170	0.947876	-0.479703	0.873964	-0.077923	-0.821851	-0.478646	-0.308965
55373	9.368841	-0.821435	-4.760070	-0.268059	-0.589709	-0.107979	-0.311659	-0.087976	0.946112	-0.477834	0.875154	-0.076025	-0.821306	-0.475778	-0.314788
55374	9.498332	-0.935946	-4.701446	-0.267325	-0.533152	-0.118385	-0.315449	-0.091574	0.944514	-0.476019	0.876314	-0.074020	-0.820913	-0.472956	-0.320023
55375	9.572806	-0.814423	-4.106326	-0.316358	-0.503827	-0.118906	-0.319032	-0.095040	0.942967	-0.473798	0.877699	-0.071837	-0.820813	-0.469694	-0.325044
55376	9.427091	-0.860613	-3.374149	-0.378710	-0.483841	-0.127583	-0.322378	-0.098456	0.941477	-0.471108	0.879345	-0.069357	-0.821054	-0.465897	-0.329865
55377	9.301056	-1.012034	-2.466668	-0.428467	-0.501429	-0.140955	-0.325847	-0.102071	0.939896	-0.468045	0.881194	-0.066567	-0.821436	-0.461605	-0.334909
55378	9.320780	-1.465731	-1.624566	-0.445958	-0.545372	-0.157638	-0.329570	-0.105999	0.938162	-0.464908	0.883076	-0.063544	-0.821733	-0.457101	-0.340315
55379	9.232282	-1.790807	-0.958546	-0.423903	-0.594948	-0.174315	-0.333662	-0.110293	0.936219	-0.462003	0.884818	-0.060417	-0.821720	-0.452695	-0.346186
55380	9.374947	-1.722619	-0.599972	-0.423583	-0.675565	-0.194395	-0.338294	-0.115090	0.933976	-0.459186	0.886504	-0.057081	-0.821404	-0.448179	-0.352747
55381	9.787229	-1.888641	-0.666787	-0.461259	-0.746747	-0.215305	-0.343448	-0.120372	0.931426	-0.456136	0.888307	-0.053393	-0.820965	-0.443194	-0.359994
55382	9.974717	-1.103801	-0.711456	-0.450971	-0.830175	-0.247517	-0.349113	-0.126264	0.928535	-0.453303	0.889986	-0.049412	-0.820144	-0.438158	-0.367941
55383	9.948064	-0.306084	-0.718920	-0.490964	-0.903311	-0.263782	-0.355328	-0.132586	0.925291	-0.450214	0.891781	-0.045105	-0.819176	-0.432606	-0.376566
55384	9.845041	-0.230772	-1.085343	-0.491715	-0.988058	-0.299383	-0.362050	-0.139537	0.921656	-0.447274	0.893483	-0.040429	-0.817842	-0.426870	-0.385896
55385	9.997089	0.031236	-1.590995	-0.466199	-1.073918	-0.349677	-0.369260	-0.147255	0.917585	-0.444752	0.894956	-0.035356	-0.815992	-0.421154	-0.395964
55386	10.402876	-0.116782	-1.892177	-0.481796	-1.148244	-0.384354	-0.376891	-0.155531	0.913106	-0.442272	0.896384	-0.029868	-0.813848	-0.415098	-0.406626
55387	10.857047	-0.767499	-2.143238	-0.456291	-1.212303	-0.428479	-0.384844	-0.164407	0.908221	-0.440205	0.897575	-0.024050	-0.811243	-0.409059	-0.417799
55388	11.483153	-0.766089	-1.977226	-0.394870	-1.263397	-0.459772	-0.393031	-0.173701	0.902970	-0.438809	0.898397	-0.018177	-0.808068	-0.403375	-0.429319
55389	12.099444	-0.998051	-1.756713	-0.377023	-1.311934	-0.492207	-0.401439	-0.183413	0.897333	-0.437736	0.899022	-0.012072	-0.804508	-0.397641	-0.441189
55390	12.276717	-0.546294	-1.453102	-0.308634	-1.366256	-0.515191	-0.410127	-0.193474	0.891271	-0.437363	0.899265	-0.006047	-0.800318	-0.392289	-0.453431
55391	12.238735	0.153218	-0.968074	-0.309113	-1.439833	-0.513592	-0.419352	-0.203731	0.884668	-0.437041	0.899442	-0.000033	-0.795700	-0.386650	-0.466222
55392	12.006934	0.773147	-0.593984	-0.352679	-1.503080	-0.512108	-0.429018	-0.214135	0.877547	-0.436429	0.899717	0.006182	-0.790868	-0.380335	-0.479450
55393	11.538090	1.011227	-0.337854	-0.417201	-1.592763	-0.506514	-0.439339	-0.224722	0.869759	-0.435356	0.900169	0.012669	-0.785778	-0.373089	-0.493313
55394	11.369530	0.973251	-0.273521	-0.485539	-1.688852	-0.502190	-0.450361	-0.235509	0.861226	-0.433803	0.900797	0.019482	-0.780379	-0.364828	-0.507848
55395	10.999400	0.585876	0.208032	-0.626665	-1.790144	-0.519292	-0.461998	-0.246658	0.851891	-0.431316	0.901791	0.027194	-0.774935	-0.354871	-0.523013
55396	11.008841	-0.239051	0.512686	-0.744760	-1.893710	-0.532968	-0.474309	-0.258112	0.841670	-0.428077	0.903037	0.035696	-0.769273	-0.343369	-0.538810
55397	10.904862	-0.842085	0.238894	-0.735928	-1.988937	-0.515546	-0.487300	-0.269505	0.830605	-0.424938	0.904149	0.044065	-0.762867	-0.331483	-0.555115
55398	10.932452	-1.132541	-0.166480	-0.694060	-2.089534	-0.468729	-0.501158	-0.280580	0.818606	-0.422002	0.905109	0.051876	-0.755483	-0.319455	-0.572009
55399	11.025503	-1.461426	-0.812286	-0.641494	-2.155180	-0.414102	-0.515555	-0.291106	0.805891	-0.419311	0.905924	0.058993	-0.747249	-0.307505	-0.589117
55400	10.796760	-1.694288	-1.923588	-0.544594	-2.199248	-0.370453	-0.530318	-0.301133	0.792516	-0.417221	0.906460	0.065242	-0.738030	-0.296056	-0.606352
55401	10.935599	-1.260899	-3.277420	-0.492199	-2.224263	-0.372717	-0.545011	-0.310988	0.778620	-0.415644	0.906735	0.071220	-0.728150	-0.284813	-0.623441
55402	10.696094	-1.156560	-4.635633	-0.493291	-2.201009	-0.391171	-0.559284	-0.320712	0.764425	-0.414256	0.906865	0.077386	-0.718049	-0.273387	-0.640052
55403	10.188850	-1.548199	-5.924206	-0.464871	-2.142508	-0.387929	-0.572890	-0.329982	0.750273	-0.413168	0.906832	0.083355	-0.707877	-0.262235	-0.655852
55404	9.295655	-1.936380	-6.935367	-0.329394	-2.068702	-0.369627	-0.585877	-0.338690	0.736232	-0.413015	0.906432	0.088319	-0.697256	-0.252331	-0.670942
55405	8.794175	-1.445840	-7.786662	-0.089308	-2.004232	-0.311305	-0.598385	-0.346503	0.722407	-0.414273	0.905571	0.091206	-0.685794	-0.244698	-0.685427
55406	8.873287	-0.874286	-8.477271	0.021391	-1.854833	-0.245615	-0.609961	-0.353240	0.709344	-0.415924	0.904647	0.092847	-0.674503	-0.238400	-0.698721
55407	8.794527	-0.841690	-8.517026	0.115664	-1.594954	-0.181492	-0.619818	-0.358659	0.697990	-0.417850	0.903711	0.093315	-0.664249	-0.233816	-0.710002
55408	7.790112	-1.491843	-8.156674	0.323789	-1.316021	-0.121802	-0.627966	-0.362857	0.688471	-0.420767	0.902505	0.091875	-0.654686	-0.231992	-0.719421
55409	6.884206	-1.337972	-8.697807	0.671106	-1.084497	-0.076626	-0.634629	-0.366087	0.680608	-0.425649	0.900643	0.087546	-0.645034	-0.234141	-0.727399
55410	5.937684	1.169775	-9.563530	0.698124	-0.842283	-0.087494	-0.639632	-0.368893	0.674381	-0.430703	0.898663	0.083067	-0.636683	-0.237326	-0.733697
55411	6.407554	3.285010	-9.984317	0.238947	-0.605895	-0.107869	-0.642951	-0.371311	0.669882	-0.432950	0.897678	0.082033	-0.631798	-0.237282	-0.737921
55412	7.677219	3.223515	-8.562749	-0.446330	-0.209497	-0.092987	-0.643853	-0.372672	0.668258	-0.430749	0.898367	0.085980	-0.632383	-0.232493	-0.738944
55413	6.623246	1.390896	-7.360252	-0.847187	0.207937	-0.043418	-0.642290	-0.372600	0.669800	-0.425686	0.900128	0.092526	-0.637381	-0.225697	-0.736754
55414	5.778855	-0.777602	-6.731491	-0.887130	0.572188	-0.003726	-0.638586	-0.371393	0.673999	-0.420046	0.902077	0.099094	-0.644802	-0.219830	-0.732055
55415	5.142860	-1.545778	-6.190344	-0.588301	0.888746	0.036431	-0.632915	-0.369132	0.680558	-0.416033	0.903482	0.103138	-0.652944	-0.217857	-0.725399
55416	5.143255	-1.087634	-6.196779	-0.303953	1.151068	0.068202	-0.625613	-0.366034	0.688932	-0.413628	0.904384	0.104892	-0.661453	-0.219340	-0.717196
55417	5.501882	-0.285805	-6.445872	-0.193433	1.401152	0.106989	-0.616665	-0.361979	0.699067	-0.411711	0.905184	0.105526	-0.670983	-0.222740	-0.707226
55418	5.597152	0.601709	-6.645185	-0.134542	1.647403	0.134782	-0.606058	-0.357085	0.710764	-0.409999	0.905958	0.105550	-0.681612	-0.227443	-0.695467
55419	5.514631	1.093086	-6.482504	-0.188457	1.880311	0.166893	-0.593755	-0.351257	0.723929	-0.407738	0.906967	0.105648	-0.693689	-0.232444	-0.681737
55420	5.392794	0.951348	-6.376701	-0.248583	2.078149	0.240269	-0.580158	-0.344228	0.738190	-0.404607	0.908373	0.105598	-0.706902	-0.237413	-0.666277
55421	5.251318	1.101086	-6.526488	-0.148443	2.226930	0.359045	-0.565660	-0.335614	0.753254	-0.401525	0.909936	0.103896	-0.720282	-0.243681	-0.649472
55422	5.410843	1.510643	-6.671634	-0.055681	2.372089	0.487206	-0.550343	-0.325343	0.768944	-0.398421	0.911672	0.100576	-0.733746	-0.251012	-0.631356
55423	5.544028	1.978170	-6.674976	-0.017721	2.524703	0.611679	-0.534019	-0.313329	0.785270	-0.395006	0.913656	0.095934	-0.747525	-0.258956	-0.611676
55424	5.548662	2.436595	-6.712221	-0.019416	2.666615	0.708670	-0.516663	-0.299868	0.801960	-0.391154	0.915869	0.090459	-0.761615	-0.266953	-0.590490
55425	5.558678	2.689075	-6.602236	-0.102856	2.799130	0.802177	-0.498208	-0.284943	0.818900	-0.386323	0.918479	0.084558	-0.776237	-0.274232	-0.567673
55426	5.432401	2.200621	-6.383139	-0.185815	2.920924	0.892555	-0.478717	-0.268661	0.835854	-0.380523	0.921456	0.078239	-0.791222	-0.280607	-0.543348
55427	5.456331	1.033375	-6.698691	-0.117852	3.021875	0.968505	-0.458198	-0.251148	0.852631	-0.375072	0.924296	0.070697	-0.805839	-0.287405	-0.517709
55428	5.669603	-0.042639	-6.944940	0.151253	3.123423	1.020192	-0.436607	-0.232624	0.869057	-0.371751	0.926314	0.061186	-0.819253	-0.296359	-0.490914
55429	5.954582	-0.429261	-7.104925	0.506272	3.204411	1.043756	-0.414003	-0.213272	0.884939	-0.371515	0.927100	0.049627	-0.831010	-0.308222	-0.463056
55430	6.485440	-0.325598	-7.130069	0.840648	3.279573	1.052944	-0.390489	-0.193200	0.900107	-0.374321	0.926581	0.036493	-0.841072	-0.322679	-0.434138
55431	6.838622	-0.013860	-6.988775	1.071907	3.338113	1.025592	-0.366099	-0.172672	0.914416	-0.379527	0.924902	0.022703	-0.849665	-0.338734	-0.404139
55432	7.060971	0.271085	-6.758923	1.190794	3.385480	0.983520	-0.340951	-0.151873	0.927732	-0.386224	0.922361	0.009052	-0.857078	-0.355226	-0.373137
55433	7.338863	0.127568	-6.823903	1.215271	3.447492	0.904790	-0.314788	-0.131024	0.940075	-0.393735	0.919216	-0.003727	-0.863644	-0.371314	-0.340946
55434	7.777026	-0.305931	-6.957574	1.270576	3.507608	0.814285	-0.287615	-0.110282	0.951376	-0.402301	0.915376	-0.015512	-0.869156	-0.387201	-0.307643
55435	8.221832	-0.429425	-7.332616	1.374931	3.562237	0.721075	-0.259492	-0.089625	0.961577	-0.412326	0.910654	-0.026392	-0.873299	-0.403332	-0.273263
55436	8.813234	0.757305	-6.761161	1.395919	3.543973	0.629749	-0.231098	-0.069369	0.970454	-0.423000	0.905414	-0.036011	-0.876165	-0.418824	-0.238582
55437	9.353861	2.449487	-5.315742	1.033783	3.473448	0.562217	-0.202994	-0.049554	0.977925	-0.430868	0.901353	-0.043764	-0.879287	-0.430241	-0.204321
55438	9.077941	2.226571	-4.715716	0.403989	3.368855	0.534412	-0.175579	-0.030193	0.984002	-0.433423	0.899818	-0.049727	-0.883921	-0.435220	-0.171076
55439	8.655393	-0.099515	-5.198556	0.053054	3.199637	0.535132	-0.149524	-0.011452	0.988692	-0.433031	0.899695	-0.055068	-0.888891	-0.436368	-0.139485
55440	8.686056	-0.568651	-5.395266	0.204787	2.951503	0.530365	-0.125517	0.006194	0.992072	-0.434128	0.898815	-0.060538	-0.892064	-0.438285	-0.110128
55441	8.950788	1.559453	-4.346372	0.324312	2.634254	0.568423	-0.104467	0.022857	0.994266	-0.436374	0.897306	-0.066478	-0.893680	-0.440817	-0.083765
55442	8.504097	2.942694	-2.880174	-0.028203	2.293440	0.649646	-0.086754	0.038754	0.995476	-0.435501	0.897233	-0.072882	-0.895998	-0.439854	-0.060961
55443	9.594258	1.812421	-0.291741	-0.687318	1.853312	0.757452	-0.073380	0.053618	0.995862	-0.428720	0.899885	-0.080040	-0.900452	-0.432820	-0.043046
55444	4.822389	-3.242708	-1.072192	-0.645289	1.307432	0.680984	-0.064459	0.065337	0.995779	-0.422428	0.902255	-0.086545	-0.904101	-0.426224	-0.030558
55445	4.961811	-2.090027	-1.300086	0.291196	0.429563	0.282124	-0.061774	0.069687	0.995654	-0.424880	0.900823	-0.089411	-0.903139	-0.428557	-0.026039
55446	5.182180	-0.250304	-0.701549	0.711022	-0.344812	-0.024195	-0.064757	0.067948	0.995585	-0.431305	0.897773	-0.089326	-0.899879	-0.435185	-0.028831
55447	6.798706	-1.524550	-2.011116	1.044851	-1.032115	-0.252014	-0.072922	0.061119	0.995463	-0.440852	0.893339	-0.087143	-0.894613	-0.445207	-0.038200
55448	10.436426	-0.105854	-2.382547	1.851143	-1.426494	-0.502230	-0.083338	0.050146	0.995259	-0.457719	0.885221	-0.082929	-0.885183	-0.462460	-0.050820
55449	12.472926	4.646732	-2.170932	2.112705	-1.436087	-0.535005	-0.093475	0.038626	0.994872	-0.476775	0.875487	-0.078788	-0.874041	-0.481695	-0.063420
55450	14.572498	8.559815	0.445947	1.721373	-1.234559	-0.509437	-0.101715	0.028114	0.994416	-0.492237	0.867235	-0.074868	-0.864498	-0.497104	-0.074372
55451	12.864309	2.453463	-0.365299	1.083085	-1.030402	-0.338193	-0.108905	0.019976	0.993851	-0.501918	0.861886	-0.072323	-0.858032	-0.506708	-0.083837
55452	12.159238	-2.897374	-3.564916	0.858691	-1.078573	-0.066026	-0.117771	0.013872	0.992944	-0.509338	0.857516	-0.072392	-0.852470	-0.514270	-0.093925
55453	9.739356	-2.028798	-5.311174	0.985198	-1.150373	-0.032666	-0.127369	0.007584	0.991826	-0.517741	0.852417	-0.073006	-0.846003	-0.522807	-0.104645
55454	9.228607	0.750298	-5.780884	0.636329	-1.129964	-0.002333	-0.136865	0.001596	0.990588	-0.523114	0.849075	-0.073644	-0.841201	-0.528270	-0.115374
55455	10.095600	1.123020	-5.075572	0.286064	-0.945212	0.041362	-0.145023	-0.003106	0.989423	-0.525452	0.847568	-0.074357	-0.838372	-0.530678	-0.124549
55456	10.099138	0.991972	-4.454411	0.063935	-0.776199	0.058609	-0.151808	-0.006760	0.988387	-0.525904	0.847233	-0.074980	-0.836887	-0.531179	-0.132172
55457	10.157971	-0.437709	-4.529827	0.081770	-0.677279	0.067694	-0.157834	-0.009840	0.987417	-0.526475	0.846812	-0.075716	-0.835412	-0.531801	-0.138837
55458	10.247508	-0.959339	-4.681055	0.344827	-0.617921	0.060087	-0.163280	-0.012657	0.986499	-0.529258	0.844982	-0.076759	-0.832602	-0.534645	-0.144667
55459	10.222864	0.137494	-4.355599	0.653236	-0.575144	0.047548	-0.168321	-0.015403	0.985612	-0.534595	0.841488	-0.078146	-0.828177	-0.540056	-0.149874
55460	10.260973	2.098342	-3.649841	0.664123	-0.507797	0.080580	-0.172922	-0.017512	0.984780	-0.539946	0.837897	-0.079912	-0.823745	-0.545547	-0.154347
55461	9.964699	2.725890	-2.943243	0.495881	-0.432934	0.134205	-0.177222	-0.018822	0.983991	-0.543777	0.835218	-0.081961	-0.820304	-0.549597	-0.158254
55462	9.890218	2.520996	-2.735459	0.127176	-0.344555	0.217259	-0.181203	-0.018932	0.983264	-0.544434	0.834560	-0.084263	-0.818997	-0.550591	-0.161532
55463	9.758033	0.985273	-2.660699	-0.298727	-0.253933	0.276443	-0.184796	-0.018086	0.982610	-0.541468	0.836266	-0.086440	-0.820160	-0.548026	-0.164332
55464	9.571924	-0.834758	-2.530279	-0.566531	-0.212720	0.310306	-0.188190	-0.016676	0.981991	-0.536239	0.839412	-0.088511	-0.822819	-0.543239	-0.166912
55465	9.529268	-2.557379	-2.479295	-0.566904	-0.196123	0.281606	-0.191322	-0.015439	0.981406	-0.531020	0.842538	-0.090266	-0.825478	-0.538416	-0.169394
55466	9.645170	-2.664565	-1.801720	-0.381143	-0.203040	0.230045	-0.194192	-0.014618	0.980855	-0.527432	0.844620	-0.091835	-0.827107	-0.535167	-0.171728
55467	9.852623	-2.619767	-1.417527	-0.174353	-0.225595	0.181152	-0.197027	-0.014360	0.980293	-0.525622	0.845591	-0.093257	-0.827588	-0.533638	-0.174152
55468	9.734266	-2.480918	-1.461938	0.019745	-0.231757	0.147487	-0.199694	-0.014379	0.979753	-0.525498	0.845508	-0.094698	-0.827027	-0.533769	-0.176399
55469	9.501787	-1.902929	-1.691367	0.155350	-0.244285	0.132726	-0.202426	-0.014628	0.979188	-0.526504	0.844710	-0.096225	-0.825722	-0.535024	-0.178693
55470	9.403931	-1.008880	-1.920031	0.183987	-0.241164	0.125280	-0.205051	-0.014892	0.978638	-0.527771	0.843744	-0.097743	-0.824264	-0.536539	-0.180870
55471	9.547209	-0.583024	-1.748944	0.069299	-0.247082	0.130406	-0.207791	-0.015181	0.978055	-0.528062	0.843404	-0.099097	-0.823391	-0.537066	-0.183268
55472	9.940104	-1.122225	-1.863930	-0.035386	-0.246150	0.128144	-0.210469	-0.015452	0.977478	-0.527508	0.843615	-0.100247	-0.823066	-0.536727	-0.185705
55473	9.937857	-1.589438	-2.068172	-0.020051	-0.240137	0.122478	-0.213106	-0.015770	0.976902	-0.527073	0.843754	-0.101358	-0.822666	-0.536499	-0.188121
55474	9.693650	-1.305887	-2.020593	-0.007045	-0.245450	0.110559	-0.215682	-0.016183	0.976330	-0.526784	0.843810	-0.102386	-0.822180	-0.536397	-0.190520
55475	9.533545	-1.231600	-1.878247	-0.023416	-0.247465	0.099946	-0.218258	-0.016729	0.975748	-0.526364	0.843965	-0.103269	-0.821769	-0.536138	-0.193008
55476	9.435715	-1.063157	-1.708399	-0.044827	-0.253964	0.093944	-0.220814	-0.017327	0.975162	-0.525795	0.844222	-0.104060	-0.821450	-0.535714	-0.195527
55477	9.373254	-1.162640	-1.379385	-0.084870	-0.263422	0.090532	-0.223469	-0.018034	0.974544	-0.524887	0.844704	-0.104728	-0.821313	-0.534929	-0.198231
55478	9.479887	-1.562047	-1.153826	-0.100500	-0.279329	0.082708	-0.226172	-0.018858	0.973905	-0.523882	0.845258	-0.105295	-0.821215	-0.534026	-0.201053
55479	9.874953	-1.995013	-0.920046	-0.061349	-0.291856	0.062853	-0.228911	-0.019944	0.973243	-0.523226	0.845609	-0.105736	-0.820874	-0.533430	-0.204005
55480	9.561261	-1.323043	-0.615653	-0.018612	-0.304139	0.048269	-0.231635	-0.021188	0.972572	-0.522968	0.845719	-0.106129	-0.820274	-0.533208	-0.206978
55481	9.205905	-1.737847	-0.883485	-0.072041	-0.353053	0.043038	-0.234768	-0.022763	0.971785	-0.522270	0.846123	-0.106353	-0.819829	-0.532502	-0.210530
55482	9.250878	-2.087853	-1.664187	-0.034146	-0.382089	0.024531	-0.238002	-0.024619	0.970953	-0.521938	0.846311	-0.106480	-0.819107	-0.532120	-0.214273
55483	9.307053	-2.090285	-2.276985	0.042728	-0.385430	0.012713	-0.241235	-0.026618	0.970102	-0.522251	0.846097	-0.106653	-0.817961	-0.532365	-0.218010
55484	9.320800	-1.690036	-2.789649	0.156379	-0.376237	0.000662	-0.244288	-0.028647	0.969279	-0.523534	0.845264	-0.106964	-0.816233	-0.533580	-0.221486
55485	9.324933	-1.034268	-3.051978	0.183074	-0.379321	-0.021086	-0.247283	-0.030906	0.968450	-0.525072	0.844289	-0.107128	-0.814340	-0.534997	-0.225007
55486	9.436302	-0.383836	-2.973239	0.116204	-0.360162	-0.017318	-0.250098	-0.033010	0.967658	-0.526067	0.843661	-0.107185	-0.812837	-0.535860	-0.228364
55487	9.479139	-0.299006	-2.740151	0.001479	-0.349863	-0.010366	-0.252900	-0.035027	0.966858	-0.526099	0.843659	-0.107047	-0.811949	-0.535735	-0.231789
55488	9.526214	-0.646198	-2.574202	-0.086790	-0.338211	-0.004163	-0.255598	-0.036903	0.966079	-0.525412	0.844123	-0.106766	-0.811549	-0.534879	-0.235145
55489	9.475669	-0.952098	-2.285235	-0.101151	-0.347590	-0.003730	-0.258413	-0.038847	0.965253	-0.524595	0.844671	-0.106447	-0.811186	-0.533874	-0.238653
55490	9.471837	-0.936244	-1.966145	-0.105614	-0.358874	-0.006864	-0.261262	-0.040849	0.964403	-0.523763	0.845232	-0.106089	-0.810811	-0.532836	-0.242223
55491	9.395000	-0.816800	-1.750687	-0.127723	-0.380388	-0.009121	-0.264311	-0.043006	0.963478	-0.522746	0.845917	-0.105646	-0.810479	-0.531578	-0.246067
55492	9.234416	-1.076382	-1.591161	-0.151376	-0.403103	-0.008541	-0.267508	-0.045248	0.962493	-0.521550	0.846717	-0.105150	-0.810201	-0.530116	-0.250103
55493	9.264034	-1.335942	-1.534399	-0.117410	-0.440047	-0.017173	-0.270994	-0.047779	0.961394	-0.520640	0.847339	-0.104646	-0.809627	-0.528898	-0.254500
55494	9.385587	-1.453376	-1.474822	-0.096187	-0.468191	-0.022823	-0.274640	-0.050476	0.960221	-0.519931	0.847836	-0.104141	-0.808854	-0.527850	-0.259094
55495	9.562622	-1.598748	-1.580129	-0.081840	-0.495092	-0.037222	-0.278459	-0.053455	0.958959	-0.519369	0.848256	-0.103528	-0.807909	-0.526882	-0.263968
55496	9.718432	-1.458333	-1.765088	-0.093061	-0.518519	-0.044078	-0.282392	-0.056589	0.957629	-0.518749	0.848721	-0.102819	-0.806941	-0.525804	-0.269027
55497	9.689051	-1.259415	-2.115825	-0.115255	-0.531525	-0.052683	-0.286415	-0.059878	0.956233	-0.517966	0.849303	-0.101961	-0.806026	-0.524499	-0.274268
55498	9.727439	-1.006964	-2.379854	-0.165188	-0.549054	-0.057489	-0.290516	-0.063272	0.954776	-0.516810	0.850132	-0.100916	-0.805300	-0.522755	-0.279676
55499	9.697437	-0.925851	-2.727598	-0.168113	-0.544973	-0.059029	-0.294606	-0.066668	0.953290	-0.515627	0.850977	-0.099837	-0.804572	-0.520955	-0.285079
