// General information: 
//  MT Manager version: 2022.2.0 
//  XDA version: 2022.2.0 build 7381 rev 124627 built on 2023-07-19
// Device information: 
//  DeviceId: 00B4CB9F
//  ProductCode: MTW2-3A7G6
//  Firmware Version: 4.6.0
//  Hardware Version: 2.0.0
// Device settings: 
//  Filter Profile: human(46.1)
//  Option Flags: Orientation Smoother Disabled, Position/Velocity Smoother Disabled, Continuous Zero Rotation Update Disabled, AHS Disabled, ICC Disabled
// Coordinate system: ENU
PacketCounter	Acc_X	Acc_Y	Acc_Z	Gyr_X	Gyr_Y	Gyr_Z	Mat[1][1]	Mat[2][1]	Mat[3][1]	Mat[1][2]	Mat[2][2]	Mat[3][2]	Mat[1][3]	Mat[2][3]	Mat[3][3]
65131	10.369142	0.765935	-0.864713	-0.180284	0.717451	-0.141287	-0.148008	-0.165975	0.974959	-0.342107	0.933550	0.106991	-0.927931	-0.317705	-0.194954
65132	10.326114	0.756657	-0.962799	-0.143226	0.761754	-0.156849	-0.140497	-0.164989	0.976237	-0.341010	0.933750	0.108731	-0.929501	-0.317630	-0.187452
65133	10.125922	0.744449	-1.122568	-0.082329	0.812124	-0.153980	-0.132480	-0.163822	0.977554	-0.340489	0.933752	0.110338	-0.930868	-0.318229	-0.179483
65134	10.312908	0.919901	-1.269416	-0.022377	0.834370	-0.182838	-0.124177	-0.162824	0.978810	-0.340493	0.933541	0.112098	-0.932011	-0.319358	-0.171364
65135	10.696938	0.777555	-1.321627	0.029436	0.845680	-0.230124	-0.115568	-0.162242	0.979960	-0.341079	0.933066	0.114254	-0.932904	-0.321039	-0.163170
65136	10.471667	0.445339	-1.078266	0.107209	0.873195	-0.270762	-0.106588	-0.161913	0.981032	-0.342371	0.932293	0.116671	-0.933499	-0.323442	-0.154806
65137	10.003072	0.185950	-0.842525	0.217960	0.890854	-0.270595	-0.097403	-0.161515	0.982052	-0.344719	0.931139	0.118951	-0.933639	-0.326946	-0.146373
65138	10.101913	0.172180	-0.777918	0.336115	0.888345	-0.307072	-0.088141	-0.161397	0.982946	-0.348115	0.929556	0.121415	-0.933299	-0.331476	-0.138116
65139	9.915418	0.123311	-0.703211	0.475297	0.891998	-0.353151	-0.078644	-0.161671	0.983706	-0.352880	0.927388	0.124204	-0.932358	-0.337363	-0.129984
65140	9.687564	0.451954	-0.677951	0.609999	0.893247	-0.373246	-0.069094	-0.162043	0.984362	-0.358849	0.924710	0.127035	-0.930835	-0.344460	-0.122041
65141	9.763319	1.046378	-0.747183	0.693387	0.895801	-0.378721	-0.059454	-0.162398	0.984933	-0.365578	0.921672	0.129899	-0.928880	-0.352347	-0.114167
65142	9.951518	1.655510	-0.852246	0.708371	0.914261	-0.386771	-0.049636	-0.162661	0.985433	-0.372370	0.918525	0.132860	-0.926756	-0.360351	-0.106162
65143	10.144410	2.085211	-1.031866	0.687682	0.926051	-0.371032	-0.039733	-0.162670	0.985880	-0.378941	0.915407	0.135770	-0.924568	-0.368195	-0.098014
65144	10.534221	2.561107	-1.188539	0.622202	0.936554	-0.346362	-0.029869	-0.162314	0.986287	-0.384817	0.912539	0.138523	-0.922510	-0.375402	-0.089718
65145	11.107868	2.725514	-1.185834	0.525612	0.944899	-0.314717	-0.020005	-0.161585	0.986656	-0.389779	0.910030	0.141133	-0.920691	-0.381754	-0.081187
65146	10.967863	2.595445	-1.002086	0.433728	0.952966	-0.241275	-0.010384	-0.160096	0.987047	-0.393844	0.907966	0.143126	-0.919119	-0.387256	-0.072482
65147	10.443836	2.624098	-0.819681	0.364964	0.948720	-0.153569	-0.001127	-0.157774	0.987475	-0.397244	0.906289	0.144350	-0.917712	-0.392106	-0.063696
65148	9.771994	2.608157	-0.787535	0.318493	0.943491	-0.102871	0.007841	-0.154959	0.987890	-0.400172	0.904878	0.145114	-0.916407	-0.396464	-0.054915
65149	9.300912	2.812401	-0.946876	0.300969	0.950168	-0.079446	0.016798	-0.151873	0.988257	-0.402959	0.903545	0.145704	-0.915064	-0.400675	-0.046021
65150	9.321313	3.045496	-1.056598	0.264109	0.963984	-0.074710	0.025828	-0.148648	0.988553	-0.405372	0.902372	0.146281	-0.913787	-0.404510	-0.036951
65151	9.494958	3.270759	-1.128178	0.180261	0.999434	-0.068440	0.035171	-0.145190	0.988778	-0.407039	0.901528	0.146857	-0.912733	-0.407637	-0.027391
65152	9.597135	3.399126	-1.166594	0.050366	1.028400	-0.058418	0.044708	-0.141503	0.988928	-0.407493	0.901238	0.147378	-0.912113	-0.409570	-0.017369
65153	9.474157	3.209266	-1.050448	-0.108732	1.045115	-0.049877	0.054380	-0.137653	0.988987	-0.406518	0.901602	0.147843	-0.912023	-0.410081	-0.006929
65154	9.228796	2.727596	-1.006896	-0.269686	1.039205	-0.023658	0.063873	-0.133604	0.988974	-0.404053	0.902677	0.148041	-0.912503	-0.409053	0.003673
65155	8.936621	2.269882	-0.995287	-0.398382	1.003160	-0.002882	0.072980	-0.129521	0.988887	-0.400456	0.904286	0.147993	-0.913405	-0.406807	0.014127
65156	8.766213	1.812375	-1.165330	-0.479638	0.936151	0.019269	0.081376	-0.125552	0.988744	-0.396107	0.906251	0.147678	-0.914591	-0.403666	0.024015
65157	8.651363	1.507983	-1.143527	-0.473312	0.856757	0.036339	0.089011	-0.121761	0.988560	-0.391850	0.908186	0.147144	-0.915713	-0.400465	0.033127
65158	8.591052	1.346255	-1.184221	-0.450200	0.760497	0.052058	0.095691	-0.118256	0.988362	-0.387796	0.910040	0.146431	-0.916765	-0.397295	0.041223
65159	8.436418	1.464114	-1.273610	-0.446759	0.649765	0.066323	0.101332	-0.115063	0.988176	-0.383808	0.911872	0.145536	-0.917836	-0.394017	0.048240
65160	8.385868	1.603759	-1.312280	-0.496360	0.531619	0.081039	0.105816	-0.112242	0.988031	-0.379344	0.913910	0.144449	-0.919185	-0.390089	0.054128
65161	8.363650	1.446024	-1.402370	-0.530498	0.427027	0.095921	0.109321	-0.109689	0.987936	-0.374612	0.916062	0.143162	-0.920714	-0.385743	0.059054
65162	8.292354	1.114147	-1.410786	-0.531689	0.357503	0.101932	0.112143	-0.107390	0.987872	-0.369847	0.918208	0.141802	-0.922300	-0.381263	0.063253
65163	8.239275	0.776069	-1.315965	-0.490740	0.300569	0.112118	0.114443	-0.105200	0.987844	-0.365489	0.920176	0.140337	-0.923753	-0.377107	0.066858
65164	8.278159	0.476036	-1.111077	-0.436945	0.250594	0.119790	0.116228	-0.103164	0.987850	-0.361612	0.921935	0.138826	-0.925056	-0.373354	0.069849
65165	8.243423	0.041477	-0.898431	-0.379013	0.198888	0.124263	0.117559	-0.101258	0.987890	-0.358294	0.923459	0.137291	-0.926178	-0.370095	0.072281
65166	8.300224	-0.208398	-0.712910	-0.272095	0.148814	0.121070	0.118404	-0.099595	0.987958	-0.355929	0.924584	0.135864	-0.926982	-0.367729	0.074026
65167	8.374222	-0.229816	-0.536464	-0.138578	0.094877	0.103757	0.118853	-0.098267	0.988037	-0.354813	0.925184	0.134697	-0.927352	-0.366577	0.075095
65168	8.364356	-0.048719	-0.289402	-0.015342	0.042020	0.096543	0.118795	-0.097222	0.988148	-0.354800	0.925334	0.133696	-0.927365	-0.366477	0.075430
65169	8.516578	0.069992	-0.008816	0.089236	-0.016837	0.098065	0.118228	-0.096357	0.988300	-0.355789	0.925089	0.132756	-0.927058	-0.367322	0.075089
65170	8.827673	0.308538	0.164015	0.189992	-0.067652	0.101849	0.117130	-0.095664	0.988498	-0.357690	0.924485	0.131853	-0.926466	-0.369020	0.074067
65171	8.925879	0.522563	0.401615	0.295419	-0.112817	0.102970	0.115654	-0.095111	0.988725	-0.360591	0.923477	0.131013	-0.925526	-0.371677	0.072508
65172	8.892164	0.920741	0.512889	0.380045	-0.158540	0.104658	0.113699	-0.094735	0.988988	-0.364244	0.922156	0.130209	-0.924337	-0.375038	0.070342
65173	8.953019	1.454513	0.613915	0.414833	-0.203612	0.111080	0.111350	-0.094460	0.989282	-0.368246	0.920685	0.129358	-0.923036	-0.378703	0.067733
65174	9.027672	2.013712	0.774172	0.393822	-0.249748	0.102113	0.108559	-0.094469	0.989591	-0.372009	0.919282	0.128567	-0.921859	-0.382094	0.064653
65175	9.106329	2.626261	0.908274	0.334044	-0.275615	0.080807	0.105655	-0.094765	0.989877	-0.375219	0.918065	0.127939	-0.920895	-0.384938	0.061441
65176	9.313555	3.188224	1.035246	0.265923	-0.265013	0.051298	0.102915	-0.095319	0.990112	-0.377740	0.917084	0.127552	-0.920175	-0.387132	0.058376
65177	9.528413	3.576586	1.351903	0.102704	-0.211906	0.035803	0.100768	-0.095793	0.990288	-0.378766	0.916707	0.127217	-0.919990	-0.387906	0.056091
65178	9.763772	3.562631	1.675262	-0.140778	-0.133349	0.051891	0.099242	-0.095841	0.990437	-0.377543	0.917298	0.126593	-0.920659	-0.386495	0.054850
65179	9.915977	3.356279	1.824780	-0.331382	-0.038282	0.101614	0.098444	-0.095036	0.990594	-0.374635	0.918658	0.125366	-0.921931	-0.383452	0.054833
65180	9.999723	2.964549	2.106634	-0.494317	0.023837	0.188551	0.097865	-0.093222	0.990824	-0.370276	0.920716	0.123198	-0.923752	-0.378935	0.055588
65181	9.610542	2.066405	2.267723	-0.638037	-0.018846	0.325851	0.096431	-0.090269	0.991238	-0.364736	0.923401	0.119574	-0.926104	-0.373071	0.056120
65182	8.984322	0.950827	1.948133	-0.769077	-0.175567	0.499334	0.092905	-0.086308	0.991927	-0.358082	0.926684	0.114170	-0.929057	-0.365798	0.055188
65183	8.814872	0.040032	1.537264	-0.778196	-0.320546	0.611206	0.087692	-0.081774	0.992786	-0.351436	0.930003	0.107645	-0.932096	-0.358340	0.052815
65184	9.028094	-0.503804	1.219671	-0.645053	-0.412424	0.625387	0.081573	-0.077420	0.993656	-0.345954	0.932791	0.101078	-0.934699	-0.352004	0.049307
65185	9.453330	-0.267413	0.969642	-0.435300	-0.438567	0.557938	0.075488	-0.073723	0.994418	-0.342364	0.934723	0.095287	-0.936530	-0.347646	0.045320
65186	9.641795	-0.158418	0.619281	-0.262854	-0.422224	0.498645	0.069742	-0.070524	0.995069	-0.340289	0.935986	0.090186	-0.937731	-0.344901	0.041279
65187	9.388598	0.529582	0.523594	-0.172383	-0.435602	0.489439	0.063931	-0.067417	0.995674	-0.339043	0.936904	0.085207	-0.938596	-0.343024	0.037040
65188	9.473436	1.105060	0.715148	-0.221572	-0.462035	0.503808	0.057802	-0.064272	0.996257	-0.337288	0.937989	0.080082	-0.939625	-0.340654	0.032539
65189	9.748375	1.074381	0.544183	-0.294367	-0.500163	0.502903	0.051348	-0.061226	0.996802	-0.334838	0.939291	0.074942	-0.940876	-0.337616	0.027729
65190	10.128251	0.935545	-0.012600	-0.342377	-0.605606	0.491261	0.043923	-0.058640	0.997312	-0.331866	0.940731	0.069929	-0.942303	-0.334046	0.021859
65191	10.514119	1.013361	-0.337931	-0.335047	-0.695630	0.474817	0.035732	-0.056460	0.997765	-0.328939	0.942105	0.065090	-0.943675	-0.330530	0.015092
65192	10.845363	1.296015	0.065764	-0.258838	-0.700623	0.431096	0.027618	-0.054701	0.998121	-0.326652	0.943192	0.060729	-0.944741	-0.327715	0.008181
65193	10.890799	0.963937	0.223004	-0.195211	-0.706099	0.400994	0.019577	-0.053200	0.998392	-0.324944	0.944034	0.056675	-0.945531	-0.325531	0.001194
65194	10.434888	0.496830	-0.449633	-0.106884	-0.778296	0.435429	0.010718	-0.051615	0.998610	-0.324017	0.944604	0.052302	-0.945991	-0.324127	-0.006600
65195	9.790348	0.828652	-1.374812	-0.038834	-0.844192	0.485496	0.001098	-0.049739	0.998762	-0.323720	0.944964	0.047415	-0.946152	-0.323371	-0.015064
65196	9.170982	0.895108	-1.896006	-0.075299	-0.934376	0.521060	-0.009514	-0.047828	0.998810	-0.323001	0.945458	0.042197	-0.946351	-0.322215	-0.024444
65197	8.905980	-0.061348	-1.809664	-0.084444	-1.061631	0.548437	-0.021392	-0.046033	0.998711	-0.322158	0.945974	0.036701	-0.946444	-0.320957	-0.035066
65198	8.861731	-0.555310	-1.580441	0.008098	-1.177236	0.546014	-0.034381	-0.044641	0.998411	-0.322094	0.946193	0.031215	-0.946083	-0.320509	-0.046910
65199	9.515872	-0.514203	-1.058267	0.160968	-1.244985	0.472678	-0.047740	-0.044143	0.997884	-0.323461	0.945874	0.026367	-0.945036	-0.321518	-0.059435
65200	10.154090	-0.700528	-0.889243	0.363494	-1.253012	0.343900	-0.060779	-0.044939	0.997139	-0.326732	0.944845	0.022667	-0.943161	-0.324419	-0.072110
65201	10.647019	-0.492738	-1.043336	0.667963	-1.248239	0.213410	-0.073298	-0.046988	0.996203	-0.332917	0.942745	0.019971	-0.940103	-0.330189	-0.084745
65202	12.262597	0.836940	-0.521841	1.015673	-1.162329	0.004824	-0.084309	-0.050829	0.995142	-0.342455	0.939343	0.018966	-0.935744	-0.339193	-0.096601
65203	11.560254	2.349208	0.510921	1.171230	-0.953575	-0.166128	-0.092692	-0.055649	0.994139	-0.353571	0.935207	0.019384	-0.930804	-0.349701	-0.106362
65204	9.871867	4.473292	0.653466	1.006941	-0.858684	-0.219316	-0.099968	-0.060738	0.993135	-0.363153	0.931506	0.020415	-0.926351	-0.358619	-0.115178
65205	9.365867	6.201178	0.497097	0.377168	-0.869637	-0.084401	-0.107768	-0.064635	0.992073	-0.366766	0.930082	0.020755	-0.924050	-0.361622	-0.123939
65206	9.883228	4.373728	0.314421	-0.519739	-0.860195	0.226942	-0.116629	-0.065619	0.991005	-0.361718	0.932091	0.019149	-0.924964	-0.356231	-0.132444
65207	9.939508	0.799994	-0.277128	-0.984665	-0.820558	0.514500	-0.126127	-0.063676	0.989968	-0.352009	0.935871	0.015349	-0.927460	-0.346541	-0.140453
65208	9.811846	-2.501540	-1.077362	-1.116450	-0.823160	0.690052	-0.136237	-0.060021	0.988856	-0.340737	0.940104	0.010118	-0.930235	-0.335562	-0.148528
65209	9.871160	-3.458380	-1.643689	-0.770579	-0.762702	0.505750	-0.145102	-0.057767	0.987729	-0.332887	0.942946	0.006245	-0.931736	-0.327896	-0.156054
65210	9.900154	-2.129751	-1.937892	-0.566918	-0.673491	0.388097	-0.152736	-0.056299	0.986662	-0.327043	0.945004	0.003295	-0.932585	-0.322178	-0.162749
65211	9.895869	-0.464196	-2.168986	-0.500380	-0.606999	0.322457	-0.159506	-0.055166	0.985654	-0.321906	0.946771	0.000897	-0.933239	-0.317145	-0.168774
65212	9.323597	0.282563	-2.610374	-0.619185	-0.590970	0.327142	-0.166144	-0.053921	0.984626	-0.315606	0.948890	-0.001291	-0.934232	-0.310968	-0.174670
65213	8.809876	-0.480893	-3.345180	-0.676082	-0.655684	0.358908	-0.173454	-0.052504	0.983441	-0.308711	0.951149	-0.003669	-0.935207	-0.304235	-0.181189
65214	8.815567	-1.837047	-3.407423	-0.555071	-0.738663	0.334954	-0.181467	-0.051538	0.982046	-0.302931	0.952994	-0.005964	-0.935576	-0.298574	-0.188550
65215	9.299249	-3.194335	-3.413369	-0.275769	-0.760330	0.251589	-0.189397	-0.051373	0.980556	-0.299919	0.953932	-0.007951	-0.934975	-0.295593	-0.196079
65216	9.723069	-3.451404	-3.393106	0.097099	-0.726480	0.134256	-0.196672	-0.052234	0.979077	-0.300575	0.953711	-0.009497	-0.933260	-0.296154	-0.203268
65217	9.960546	-2.746442	-3.123445	0.391034	-0.670980	0.062308	-0.203173	-0.053614	0.977674	-0.304127	0.952568	-0.010965	-0.930713	-0.299565	-0.209842
65218	9.873695	-1.990140	-2.744029	0.568716	-0.622045	0.034594	-0.209149	-0.055148	0.976328	-0.309348	0.950866	-0.012558	-0.927664	-0.304651	-0.215932
65219	9.656622	-1.421465	-2.418386	0.683448	-0.586746	0.025240	-0.214721	-0.056690	0.975029	-0.315654	0.948766	-0.014350	-0.924260	-0.310853	-0.221614
65220	9.705018	-0.779585	-2.027035	0.736823	-0.551908	0.014402	-0.219950	-0.058270	0.973769	-0.322429	0.946455	-0.016193	-0.920685	-0.317534	-0.226960
65221	9.778230	-0.182816	-1.618893	0.722107	-0.525751	0.010031	-0.224874	-0.059838	0.972549	-0.329074	0.944133	-0.017999	-0.917138	-0.324088	-0.232002
65222	9.906834	0.371574	-1.114831	0.632510	-0.496841	0.015158	-0.229564	-0.061303	0.971361	-0.334842	0.942069	-0.019680	-0.913882	-0.329771	-0.236792
65223	9.938881	0.512309	-0.805440	0.490260	-0.478859	0.032053	-0.234102	-0.062568	0.970197	-0.339272	0.940449	-0.021214	-0.911093	-0.334127	-0.241388
65224	9.950412	0.337312	-0.703820	0.318900	-0.487642	0.054002	-0.238810	-0.063682	0.968976	-0.342061	0.939407	-0.022565	-0.908825	-0.336838	-0.246123
65225	10.100598	-0.236826	-0.642041	0.184173	-0.479853	0.068409	-0.243462	-0.064637	0.967754	-0.343598	0.938817	-0.023736	-0.907010	-0.338297	-0.250775
65226	9.733209	-0.721032	-0.948869	0.080615	-0.483470	0.083318	-0.248213	-0.065473	0.966490	-0.344134	0.938593	-0.024796	-0.905518	-0.338757	-0.255502
65227	9.424106	-0.936244	-1.428166	-0.002349	-0.523113	0.094794	-0.253332	-0.066333	0.965102	-0.343904	0.938651	-0.025757	-0.904186	-0.338428	-0.260603
65228	9.602881	-0.917301	-1.649714	-0.019455	-0.511236	0.077732	-0.258299	-0.067309	0.963717	-0.343535	0.938766	-0.026509	-0.902921	-0.337918	-0.265605
65229	9.612728	-0.931767	-1.905653	-0.031176	-0.491713	0.059616	-0.263000	-0.068387	0.962369	-0.343127	0.938899	-0.027052	-0.901718	-0.337329	-0.270397
65230	9.713073	-0.926291	-2.123909	-0.031761	-0.470340	0.046901	-0.267477	-0.069513	0.961054	-0.342735	0.939030	-0.027469	-0.900549	-0.336734	-0.274993
65231	9.606380	-1.067584	-2.182801	0.020785	-0.456724	0.017855	-0.271708	-0.070861	0.959768	-0.342902	0.938961	-0.027750	-0.899218	-0.336646	-0.279421
65232	9.298368	-1.201485	-2.104739	0.119151	-0.496605	-0.006785	-0.276222	-0.072573	0.958350	-0.344003	0.938549	-0.028077	-0.897420	-0.337430	-0.284213
65233	9.569518	-1.159302	-2.328578	0.206347	-0.560525	-0.045595	-0.281148	-0.074875	0.956739	-0.346007	0.937806	-0.028285	-0.895117	-0.338990	-0.289570
65234	9.394684	-1.160821	-2.446876	0.267692	-0.612778	-0.087091	-0.286399	-0.077747	0.954951	-0.348658	0.936823	-0.028294	-0.892420	-0.341055	-0.295412
65235	9.028506	-1.139270	-2.479106	0.320021	-0.661475	-0.117678	-0.291939	-0.081092	0.952993	-0.351876	0.935622	-0.028180	-0.889356	-0.343562	-0.301679
65236	9.094925	-0.670133	-2.898702	0.369872	-0.743719	-0.148769	-0.298091	-0.085017	0.950744	-0.355606	0.934218	-0.027955	-0.885825	-0.346423	-0.308714
65237	9.341602	-0.077529	-3.288622	0.335785	-0.834978	-0.176277	-0.304901	-0.089544	0.948165	-0.359131	0.932885	-0.027385	-0.882077	-0.348866	-0.316596
65238	9.066138	-0.038225	-3.374402	0.210749	-0.902238	-0.144497	-0.312399	-0.094012	0.945288	-0.361436	0.932013	-0.026756	-0.878505	-0.350020	-0.325139
65239	8.643529	-0.277216	-3.467629	0.063096	-0.992266	-0.081860	-0.320863	-0.098225	0.942019	-0.362274	0.931702	-0.026246	-0.875103	-0.349690	-0.334533
65240	8.793884	-0.466007	-3.643174	-0.048327	-1.084921	-0.044869	-0.330253	-0.102396	0.938322	-0.362000	0.931823	-0.025724	-0.871716	-0.348168	-0.344805
65241	9.314893	-0.287934	-3.523870	-0.090785	-1.115679	-0.030444	-0.339909	-0.106532	0.934405	-0.361337	0.932095	-0.025175	-0.868273	-0.346192	-0.355321
65242	9.535130	0.025118	-3.127033	-0.140232	-1.080872	-0.015448	-0.349297	-0.110376	0.930489	-0.360185	0.932557	-0.024589	-0.865020	-0.343736	-0.365494
65243	9.696298	-0.007534	-2.719742	-0.234286	-1.043995	-0.011980	-0.358328	-0.114037	0.926605	-0.358227	0.933335	-0.023665	-0.862134	-0.340414	-0.375291
65244	9.856066	-0.818448	-2.326314	-0.311022	-0.997595	-0.019725	-0.366920	-0.117563	0.922794	-0.355621	0.934363	-0.022365	-0.859595	-0.336371	-0.384644
65245	9.736127	-1.687059	-1.974584	-0.285933	-0.945391	-0.029967	-0.374987	-0.120983	0.919102	-0.353300	0.935274	-0.021032	-0.857067	-0.332605	-0.393459
65246	9.921618	-2.247445	-1.716939	-0.170693	-0.916251	-0.056434	-0.382698	-0.124510	0.915445	-0.352057	0.935767	-0.019903	-0.854165	-0.329906	-0.401951
65247	10.109650	-2.344311	-1.495872	0.000344	-0.872319	-0.067852	-0.389953	-0.127995	0.911896	-0.352344	0.935671	-0.019340	-0.850759	-0.328842	-0.409966
65248	10.554327	-1.794135	-1.129865	0.105108	-0.824171	-0.052301	-0.396832	-0.131151	0.908473	-0.353444	0.935255	-0.019372	-0.847114	-0.328782	-0.417494
65249	11.182410	-1.061457	-0.953953	0.116235	-0.729208	-0.033800	-0.402935	-0.133842	0.905389	-0.354582	0.934819	-0.019610	-0.843750	-0.328937	-0.424129
65250	11.304456	-0.238377	-0.903661	0.057372	-0.583349	-0.036266	-0.407780	-0.136051	0.902887	-0.355216	0.934579	-0.019604	-0.841152	-0.328714	-0.429430
65251	10.875880	0.531963	-1.099633	-0.068331	-0.467184	-0.060318	-0.411549	-0.138125	0.900860	-0.354909	0.934711	-0.018821	-0.839444	-0.327469	-0.433702
65252	10.209449	1.088529	-1.414454	-0.289622	-0.388804	-0.070910	-0.414613	-0.139999	0.899164	-0.352767	0.935557	-0.016999	-0.838839	-0.324243	-0.437281
65253	9.346555	0.834488	-2.134846	-0.545628	-0.372033	-0.072853	-0.417536	-0.141854	0.897519	-0.348511	0.937200	-0.014006	-0.839168	-0.318644	-0.440753
65254	9.053772	0.262278	-3.189262	-0.705499	-0.414456	-0.088560	-0.420755	-0.143936	0.895683	-0.342957	0.939296	-0.010162	-0.839849	-0.311456	-0.444578
65255	9.214173	-0.263885	-4.193575	-0.759981	-0.467677	-0.099600	-0.424403	-0.146287	0.893578	-0.337012	0.941482	-0.005933	-0.840420	-0.303665	-0.448868
65256	9.626101	-0.506076	-5.056973	-0.756451	-0.487447	-0.099427	-0.428212	-0.148629	0.891372	-0.331072	0.943604	-0.001708	-0.840848	-0.295839	-0.453270
65257	10.485153	-0.479325	-5.513218	-0.718395	-0.476593	-0.102019	-0.431942	-0.150960	0.889178	-0.325488	0.945543	0.002415	-0.841121	-0.288373	-0.457555
65258	11.772768	-0.122810	-5.489010	-0.684447	-0.402754	-0.116182	-0.435002	-0.153140	0.887311	-0.320215	0.947323	0.006513	-0.841567	-0.281297	-0.461125
65259	11.849581	0.015379	-4.647005	-0.666763	-0.244533	-0.125587	-0.436718	-0.154985	0.886147	-0.315166	0.948977	0.010651	-0.842584	-0.274632	-0.463282
65260	11.938153	0.125132	-3.457756	-0.657428	-0.092738	-0.178060	-0.436986	-0.156869	0.885684	-0.310395	0.950486	0.015201	-0.844215	-0.268269	-0.464041
65261	12.481117	-0.058672	-2.065245	-0.643145	0.042554	-0.234754	-0.435959	-0.158962	0.885817	-0.306002	0.951816	0.020206	-0.846347	-0.262252	-0.463595
65262	13.240682	-0.027159	-1.166352	-0.639908	0.250757	-0.277629	-0.433025	-0.160894	0.886906	-0.301778	0.953036	0.025549	-0.849364	-0.256586	-0.461243
65263	13.281436	0.296139	-0.467443	-0.652440	0.534242	-0.312207	-0.427596	-0.162487	0.889246	-0.297586	0.954183	0.031258	-0.853583	-0.251261	-0.456359
65264	12.751395	0.549818	0.540034	-0.678989	0.796852	-0.327931	-0.419831	-0.163566	0.892742	-0.293150	0.955343	0.037175	-0.858955	-0.246100	-0.449032
65265	12.628659	0.530878	1.572354	-0.628765	1.045503	-0.360832	-0.409824	-0.164437	0.897221	-0.289248	0.956282	0.043141	-0.865090	-0.241839	-0.439470
65266	12.385066	0.616420	2.431699	-0.485810	1.369066	-0.436158	-0.396690	-0.165239	0.902958	-0.286776	0.956739	0.049093	-0.872007	-0.239472	-0.426915
65267	11.616350	0.664583	2.956795	-0.337829	1.761930	-0.523127	-0.379815	-0.165999	0.910047	-0.285870	0.956678	0.055195	-0.879783	-0.239191	-0.410815
65268	10.063684	0.288955	2.393960	-0.379091	1.947949	-0.516314	-0.361124	-0.166197	0.917588	-0.284408	0.956738	0.061357	-0.888089	-0.238812	-0.392769
65269	10.106723	-0.071887	1.521628	-0.380081	2.062321	-0.519471	-0.341306	-0.166216	0.925139	-0.282866	0.956778	0.067544	-0.896380	-0.238637	-0.373571
65270	10.759703	0.010143	1.068057	-0.276160	2.273380	-0.547868	-0.319275	-0.165924	0.933023	-0.282154	0.956545	0.073555	-0.904684	-0.239772	-0.352217
65271	11.118019	0.117426	0.996463	-0.046439	2.532349	-0.588488	-0.294658	-0.165403	0.941179	-0.283566	0.955679	0.079175	-0.912561	-0.243557	-0.328501
65272	11.559403	0.155502	1.298501	0.231482	2.858747	-0.614474	-0.266688	-0.164116	0.949707	-0.287388	0.954108	0.084175	-0.919938	-0.250486	-0.301614
65273	12.058620	0.398190	1.341734	0.518205	3.250478	-0.576795	-0.235058	-0.161277	0.958508	-0.293650	0.951841	0.088142	-0.926562	-0.260747	-0.271097
65274	10.752829	1.545203	-1.019219	0.681797	3.246258	-0.486475	-0.203423	-0.157143	0.966398	-0.301007	0.949270	0.090997	-0.931673	-0.272382	-0.240404
65275	9.669073	2.782871	-3.910576	0.180925	2.812400	-0.312945	-0.176266	-0.152340	0.972483	-0.303324	0.948282	0.093570	-0.936443	-0.278485	-0.213358
65276	10.544386	3.030490	-6.008422	-0.385734	2.381378	-0.178663	-0.153338	-0.147311	0.977132	-0.299965	0.949106	0.096013	-0.941546	-0.278383	-0.189723
65277	12.618656	2.937462	-6.637379	-0.772093	2.314561	-0.120440	-0.131184	-0.142031	0.981131	-0.292880	0.951060	0.098518	-0.947107	-0.274430	-0.166362
65278	13.152526	2.796261	-6.620344	-0.845826	2.408178	-0.087897	-0.108034	-0.136235	0.984768	-0.284931	0.953253	0.100617	-0.952440	-0.269721	-0.141801
65279	12.996616	2.355513	-6.153725	-0.983937	2.418897	-0.061204	-0.084821	-0.130343	0.987834	-0.275631	0.955789	0.102447	-0.957514	-0.263588	-0.116998
65280	12.298559	0.860756	-6.048566	-1.068288	2.415962	-0.039838	-0.061508	-0.124371	0.990328	-0.265399	0.958525	0.103893	-0.962175	-0.256442	-0.091965
65281	11.264542	-0.555389	-6.298810	-0.978457	2.355732	0.009273	-0.038881	-0.118290	0.992218	-0.256002	0.961007	0.104537	-0.965894	-0.249945	-0.067647
65282	10.263143	-1.246993	-6.049213	-0.784189	2.245947	0.049389	-0.017275	-0.112190	0.993537	-0.248415	0.963009	0.104423	-0.968500	-0.245005	-0.044506
65283	9.925146	-0.863400	-5.374441	-0.535805	2.130635	0.039518	0.003220	-0.106591	0.994298	-0.243261	0.964351	0.104168	-0.969956	-0.242209	-0.022824
65284	9.798077	0.128903	-4.752916	-0.348416	2.061970	-0.009978	0.023244	-0.101636	0.994550	-0.239887	0.965188	0.104242	-0.970523	-0.241002	-0.001946
65285	9.289654	0.833340	-4.206268	-0.241001	2.005359	-0.071118	0.042817	-0.097465	0.994318	-0.237568	0.965691	0.104889	-0.970427	-0.240709	0.018193
65286	8.440362	1.237858	-3.724347	-0.225221	1.899740	-0.093529	0.061453	-0.093734	0.993699	-0.235353	0.966146	0.105690	-0.969965	-0.240365	0.037312
65287	7.431193	1.080893	-3.305253	-0.234907	1.747071	-0.037797	0.078423	-0.089877	0.992860	-0.233095	0.966669	0.105917	-0.969287	-0.239737	0.054859
65288	6.496666	0.653224	-3.001034	-0.174802	1.587006	0.035341	0.093692	-0.085672	0.991908	-0.231456	0.967119	0.105394	-0.968323	-0.239458	0.070782
65289	6.283113	0.337680	-2.862576	-0.022371	1.446501	0.078836	0.107447	-0.081410	0.990872	-0.231366	0.967232	0.104557	-0.966915	-0.240488	0.085091
65290	6.465769	0.313234	-2.769302	0.198197	1.328211	0.077258	0.120065	-0.077392	0.989745	-0.233396	0.966814	0.103912	-0.964941	-0.243479	0.098018
65291	6.879175	0.715008	-2.691583	0.402292	1.201569	0.066507	0.131430	-0.073766	0.988577	-0.237405	0.965867	0.103634	-0.962479	-0.248313	0.109431
65292	7.170250	1.182357	-2.581510	0.496499	1.095682	0.080737	0.141727	-0.070181	0.987415	-0.242317	0.964677	0.103345	-0.959790	-0.253914	0.119715
65293	7.476955	1.820694	-2.398481	0.450215	0.999060	0.099293	0.151002	-0.066634	0.986285	-0.246825	0.963582	0.102890	-0.957223	-0.258977	0.129055
65294	7.646253	2.407899	-2.193191	0.281961	0.922756	0.117671	0.159485	-0.063046	0.985185	-0.249734	0.962922	0.102049	-0.955090	-0.262310	0.137827
65295	7.351513	2.748385	-1.989357	0.092249	0.833517	0.148219	0.167009	-0.059400	0.984164	-0.250905	0.962761	0.100685	-0.953496	-0.263748	0.145886
65296	7.051681	2.864931	-1.804372	-0.077684	0.701732	0.188413	0.173171	-0.055693	0.983316	-0.250521	0.963070	0.098666	-0.952497	-0.263427	0.152824
65297	6.659958	2.640347	-1.222355	-0.212949	0.567588	0.239127	0.177920	-0.051872	0.982677	-0.248962	0.963749	0.095949	-0.952031	-0.261721	0.158556
65298	6.267485	2.299086	-0.768145	-0.313279	0.489791	0.250076	0.181906	-0.048150	0.982136	-0.246466	0.964684	0.092943	-0.951927	-0.258970	0.163615
65299	5.646722	1.307900	-0.729680	-0.391828	0.411575	0.222201	0.185222	-0.044919	0.981669	-0.243193	0.965786	0.090078	-0.952129	-0.255419	0.167961
65300	5.881607	0.794884	-0.230456	-0.384186	0.298802	0.247136	0.187411	-0.041741	0.981394	-0.240029	0.966863	0.086960	-0.952504	-0.251861	0.171181
65301	6.244704	0.280958	0.406090	-0.375762	0.190745	0.323598	0.188398	-0.038106	0.981353	-0.237107	0.967923	0.083104	-0.953041	-0.248342	0.173319
65302	6.795327	-0.581238	0.891060	-0.326443	0.042528	0.418465	0.187754	-0.033917	0.981630	-0.234817	0.968874	0.078389	-0.953735	-0.245221	0.173945
65303	7.274640	-1.687517	1.300595	-0.268510	-0.131347	0.549393	0.185156	-0.028884	0.982284	-0.233329	0.969692	0.072496	-0.954607	-0.242618	0.172805
65304	7.871950	-2.692406	1.718591	-0.057793	-0.334057	0.651351	0.180382	-0.023341	0.983320	-0.234011	0.969994	0.065952	-0.955354	-0.242004	0.169507
65305	9.141406	-2.728855	2.507632	0.274810	-0.472351	0.662402	0.174247	-0.018038	0.984537	-0.237861	0.969453	0.059860	-0.955542	-0.244613	0.164634
65306	10.864086	-2.554510	3.540352	0.650666	-0.460117	0.643397	0.168235	-0.012902	0.985662	-0.245217	0.967934	0.054524	-0.954759	-0.250874	0.159677
65307	11.462670	-1.867604	4.386991	0.941109	-0.362684	0.677852	0.163020	-0.007247	0.986596	-0.255366	0.965587	0.049288	-0.953002	-0.259978	0.155559
65308	11.312151	-0.366191	5.433871	0.974438	-0.254461	0.712957	0.158679	-0.000995	0.987330	-0.265829	0.963030	0.043693	-0.950871	-0.269394	0.152548
65309	10.497203	1.750804	5.962544	0.778305	-0.193096	0.627775	0.155090	0.004543	0.987890	-0.274255	0.960880	0.038637	-0.949068	-0.276926	0.150269
65310	9.669943	3.307539	5.971440	0.552804	-0.225973	0.493054	0.151527	0.008697	0.988415	-0.280308	0.959289	0.034531	-0.947875	-0.282293	0.147796
65311	9.346597	3.889890	5.471996	0.414025	-0.319104	0.385157	0.147355	0.011508	0.989017	-0.284855	0.958060	0.031294	-0.947177	-0.286337	0.144453
65312	8.978629	3.315418	4.632898	0.320267	-0.433896	0.371877	0.142138	0.013866	0.989750	-0.288471	0.957079	0.028019	-0.946880	-0.289497	0.140038
65313	7.453634	2.419206	3.739501	0.194589	-0.589844	0.489160	0.135075	0.016858	0.990692	-0.291039	0.956425	0.023407	-0.947128	-0.291492	0.134095
65314	5.858762	1.295125	2.529848	-0.037277	-0.840310	0.691563	0.125063	0.021065	0.991925	-0.291626	0.956391	0.016458	-0.948321	-0.291330	0.125752
65315	4.593700	-1.024243	0.421612	-0.241380	-1.156820	0.920751	0.111340	0.026540	0.993428	-0.290470	0.956859	0.006992	-0.950385	-0.289339	0.114246
65316	4.803328	-3.232420	-2.873491	-0.168388	-1.480416	1.046709	0.094185	0.032325	0.995030	-0.289979	0.957026	-0.003642	-0.952387	-0.288195	0.099511
65317	5.551339	-4.051171	-5.477840	0.346602	-1.727968	0.748355	0.075478	0.034493	0.996551	-0.293961	0.955756	-0.010817	-0.952833	-0.292131	0.082279
65318	8.416285	-3.171873	-5.301155	1.120133	-1.836383	0.246260	0.057217	0.031422	0.997867	-0.304824	0.952327	-0.012509	-0.950689	-0.303458	0.064068
65319	14.999798	-1.524354	-1.743513	2.141259	-1.662622	-0.284857	0.042295	0.023523	0.998828	-0.325020	0.945669	-0.008508	-0.944761	-0.324279	0.047643
65320	26.374165	1.129049	4.423107	3.355591	-0.901176	-0.836822	0.036624	0.012638	0.999249	-0.356246	0.934392	0.001240	-0.933674	-0.356023	0.038723
65321	27.351167	5.032932	5.664429	4.331461	-0.037209	-1.247918	0.040911	0.000956	0.999162	-0.395900	0.918166	0.015332	-0.917382	-0.396195	0.037941
65322	16.984688	8.673294	2.669744	4.164334	-0.136797	-1.252706	0.044814	-0.010969	0.998935	-0.433248	0.900797	0.029327	-0.900160	-0.434101	0.035616
65323	7.424252	11.948311	-1.663166	2.870237	-0.515156	-0.545894	0.042579	-0.018139	0.998928	-0.458709	0.887870	0.035675	-0.887566	-0.459736	0.029484
65324	3.218196	14.737585	-5.402393	0.697231	-0.840541	0.295134	0.033728	-0.019399	0.999243	-0.465025	0.884687	0.032872	-0.884655	-0.465782	0.020818
65325	4.269592	12.251285	-6.659690	-1.598599	-0.969248	0.746529	0.021633	-0.017198	0.999618	-0.451069	0.892136	0.025111	-0.892227	-0.451440	0.011542
65326	6.219690	7.231200	-6.435522	-3.124538	-1.072270	1.210057	0.006663	-0.011025	0.999917	-0.423150	0.905969	0.012809	-0.906035	-0.423200	0.001372
65327	7.537874	1.351754	-6.075696	-3.914014	-1.386649	1.723604	-0.013061	-0.000873	0.999914	-0.387357	0.921920	-0.004255	-0.921837	-0.387380	-0.012379
65328	7.537496	-7.050182	-6.763124	-4.159521	-1.679632	1.868516	-0.035591	0.010289	0.999313	-0.348245	0.937144	-0.022052	-0.936728	-0.348791	-0.029771
65329	8.734049	-12.084946	-5.546183	-2.469056	-1.863863	0.808235	-0.055903	0.011633	0.998368	-0.324693	0.945369	-0.029196	-0.944166	-0.325795	-0.049072
65330	10.984083	-11.431723	-3.563798	-1.222549	-1.706325	0.305893	-0.073076	0.009064	0.997285	-0.312938	0.949249	-0.031558	-0.946958	-0.314395	-0.066531
65331	11.550768	-9.545705	-1.783418	0.143157	-1.360549	-0.029786	-0.085917	0.004517	0.996292	-0.314354	0.948786	-0.031411	-0.945410	-0.315887	-0.080097
65332	11.482714	-6.381945	-0.401164	1.185210	-1.074536	-0.261927	-0.095287	-0.001401	0.995449	-0.325778	0.944975	-0.029854	-0.940632	-0.327140	-0.090500
65333	10.295639	-2.623670	0.503901	1.645338	-0.917286	-0.322471	-0.102871	-0.007489	0.994666	-0.341558	0.939436	-0.028252	-0.934214	-0.342643	-0.099199
65334	9.680217	-0.367009	0.123096	1.573896	-0.892014	-0.254470	-0.110364	-0.012971	0.993807	-0.356500	0.933894	-0.027401	-0.927754	-0.357316	-0.107692
65335	9.699264	1.068906	-0.067257	1.342068	-0.844194	-0.224096	-0.117420	-0.018107	0.992917	-0.369203	0.928965	-0.026720	-0.921901	-0.369725	-0.115764
65336	9.655155	2.246503	0.079871	0.963488	-0.789473	-0.202483	-0.123997	-0.022914	0.992018	-0.378317	0.925313	-0.025914	-0.917334	-0.378510	-0.123405
65337	9.442708	1.815482	-0.187034	0.524928	-0.793403	-0.104963	-0.130926	-0.026887	0.991028	-0.383293	0.923272	-0.025589	-0.914300	-0.383204	-0.131186
65338	9.455026	1.142680	-0.543259	0.263593	-0.825197	-0.057863	-0.138309	-0.030573	0.989917	-0.385787	0.922238	-0.025419	-0.912162	-0.385413	-0.139349
65339	9.631915	0.002704	-0.819013	0.064175	-0.869257	0.020700	-0.146374	-0.033715	0.988655	-0.386376	0.921981	-0.025763	-0.910653	-0.385764	-0.147981
65340	10.172533	-1.425428	-1.168540	0.024483	-0.877082	0.089196	-0.154768	-0.036256	0.987285	-0.386470	0.921915	-0.026728	-0.909224	-0.385692	-0.156694
65341	10.324486	-2.228928	-1.206720	0.176338	-0.804001	0.103680	-0.162533	-0.038388	0.985956	-0.387940	0.921257	-0.028082	-0.907241	-0.387056	-0.164627
65342	9.928799	-1.804810	-1.406352	0.344206	-0.751442	0.115963	-0.169861	-0.040218	0.984647	-0.390874	0.919960	-0.029854	-0.904635	-0.389944	-0.171985
65343	9.291855	-0.612920	-1.888648	0.370546	-0.780829	0.142647	-0.177535	-0.041945	0.983220	-0.394006	0.918552	-0.031957	-0.901799	-0.393068	-0.179602
65344	8.936476	0.598400	-2.142088	0.252952	-0.839370	0.155041	-0.185776	-0.043806	0.981615	-0.396011	0.917616	-0.033997	-0.899257	-0.395047	-0.187818
65345	8.871025	0.909049	-2.609358	0.025859	-0.914857	0.165995	-0.194713	-0.045878	0.979787	-0.395959	0.917573	-0.035724	-0.897387	-0.394912	-0.196830
65346	9.421860	0.276582	-3.047578	-0.156970	-0.993165	0.111110	-0.204127	-0.048748	0.977730	-0.394335	0.918240	-0.036546	-0.896009	-0.393013	-0.206661
65347	9.725422	-1.376174	-3.007478	-0.178342	-1.013243	0.020762	-0.213342	-0.052511	0.975565	-0.392725	0.918934	-0.036421	-0.894568	-0.390899	-0.216670
65348	9.954621	-2.729570	-2.807352	0.020218	-0.978148	-0.095429	-0.221778	-0.057184	0.973419	-0.393110	0.918803	-0.035589	-0.892345	-0.390553	-0.226250
65349	9.936368	-3.312237	-2.754040	0.329792	-0.948476	-0.224032	-0.229403	-0.062938	0.971295	-0.396582	0.917361	-0.034222	-0.888874	-0.393049	-0.235405
65350	9.488675	-3.340768	-2.505090	0.641253	-0.934068	-0.307489	-0.236528	-0.069423	0.969141	-0.402985	0.914617	-0.032836	-0.884114	-0.398316	-0.244309
65351	9.525910	-2.492471	-2.371870	0.903294	-0.903107	-0.351845	-0.243115	-0.076248	0.966996	-0.411817	0.910714	-0.031726	-0.878238	-0.405939	-0.252808
65352	9.521994	-1.287003	-2.473732	1.055005	-0.901204	-0.371350	-0.249529	-0.083287	0.964779	-0.421965	0.906085	-0.030916	-0.871597	-0.414817	-0.261238
65353	9.554650	0.335145	-2.442906	1.078009	-0.892968	-0.348412	-0.255855	-0.090163	0.962501	-0.432231	0.901248	-0.030472	-0.864705	-0.423820	-0.269560
65354	9.585406	1.845343	-1.842301	0.920625	-0.880848	-0.274899	-0.262320	-0.096374	0.960156	-0.440887	0.897047	-0.030413	-0.858375	-0.431299	-0.277803
65355	9.415262	2.654078	-1.406115	0.601421	-0.899790	-0.117988	-0.269559	-0.101317	0.957639	-0.446375	0.894308	-0.031030	-0.853281	-0.435830	-0.286294
65356	9.306737	1.813120	-1.138444	0.293177	-0.936266	0.009214	-0.277645	-0.105291	0.954896	-0.448838	0.893039	-0.032033	-0.849387	-0.437487	-0.295206
65357	9.129302	0.618411	-1.447089	0.128207	-0.979595	0.046486	-0.286219	-0.109147	0.951927	-0.449819	0.892513	-0.032914	-0.846015	-0.437615	-0.304551
65358	8.813079	-0.402036	-2.066102	0.023831	-1.039633	0.080105	-0.295430	-0.112942	0.948665	-0.449770	0.892504	-0.033810	-0.842869	-0.436670	-0.314470
65359	9.116867	-0.919207	-2.969426	-0.041561	-1.071168	0.072771	-0.304830	-0.116947	0.945199	-0.449227	0.892755	-0.034420	-0.839806	-0.435101	-0.324674
65360	9.229477	-1.128488	-3.671168	-0.093973	-1.126951	0.055113	-0.314595	-0.121310	0.941443	-0.448252	0.893234	-0.034691	-0.836720	-0.432917	-0.335384
65361	9.490239	-1.237101	-3.984587	-0.066885	-1.168181	0.054054	-0.324652	-0.125857	0.937423	-0.447544	0.893576	-0.035025	-0.833250	-0.430909	-0.346428
65362	9.754093	-0.886136	-3.771980	0.013281	-1.164902	0.056797	-0.334660	-0.130328	0.933283	-0.447458	0.893593	-0.035666	-0.829327	-0.429541	-0.357366
65363	9.402084	-0.550270	-3.246839	0.086238	-1.118819	0.038852	-0.344150	-0.134767	0.929192	-0.448062	0.893261	-0.036395	-0.825107	-0.428861	-0.367800
65364	9.263760	-0.177723	-3.010572	0.053645	-1.084524	0.007641	-0.353182	-0.139305	0.925125	-0.448457	0.893049	-0.036732	-0.821065	-0.427852	-0.377881
65365	9.724463	-0.043147	-2.921662	-0.126788	-0.983158	0.006141	-0.361328	-0.143428	0.921342	-0.447417	0.893586	-0.036359	-0.818083	-0.425362	-0.387050
65366	10.106521	-0.144774	-2.526186	-0.268269	-0.883573	0.032471	-0.368761	-0.146841	0.917852	-0.445089	0.894775	-0.035673	-0.816033	-0.421681	-0.395316
65367	10.601801	-0.226135	-1.862102	-0.365228	-0.789082	0.086440	-0.375638	-0.149360	0.914651	-0.441810	0.896423	-0.035063	-0.814678	-0.417273	-0.402720
65368	10.589326	-0.420624	-1.409181	-0.447178	-0.670402	0.141546	-0.381787	-0.150825	0.911861	-0.437609	0.898499	-0.034607	-0.814087	-0.412251	-0.409038
65369	10.447207	-0.428745	-1.293178	-0.582082	-0.564557	0.165549	-0.387163	-0.151629	0.909458	-0.432253	0.901120	-0.033774	-0.814409	-0.406192	-0.414422
65370	10.548811	-0.661088	-1.370829	-0.767760	-0.495143	0.161947	-0.391956	-0.152104	0.907323	-0.425330	0.904469	-0.032113	-0.815761	-0.398498	-0.419206
65371	10.956419	-1.062387	-1.551191	-0.888820	-0.430456	0.126363	-0.396063	-0.152637	0.905448	-0.417592	0.908154	-0.029570	-0.817772	-0.389819	-0.423426
65372	11.151325	-0.972846	-1.846030	-0.916575	-0.348330	0.086115	-0.399326	-0.153144	0.903928	-0.409723	0.911824	-0.026520	-0.820162	-0.380950	-0.426862
65373	10.824910	-0.733135	-2.080538	-0.883528	-0.267261	0.038611	-0.401737	-0.153779	0.902751	-0.402330	0.915202	-0.023142	-0.822641	-0.372501	-0.429541
65374	10.463689	-0.463417	-2.026826	-0.862843	-0.200923	0.003105	-0.403456	-0.154430	0.901873	-0.395181	0.918396	-0.019526	-0.825261	-0.364281	-0.431560
65375	10.710874	-0.383266	-2.285907	-0.870795	-0.141117	-0.034890	-0.404544	-0.155239	0.901246	-0.388143	0.921469	-0.015504	-0.828064	-0.356085	-0.433029
65376	10.773525	-0.414524	-2.674280	-0.868767	-0.055949	-0.083855	-0.404731	-0.156148	0.901005	-0.381252	0.924405	-0.011055	-0.831168	-0.347985	-0.433667
65377	10.779915	-0.341434	-2.906744	-0.809651	0.015867	-0.138162	-0.404134	-0.157352	0.901064	-0.375089	0.926967	-0.006355	-0.834257	-0.340547	-0.433640
65378	11.219154	-0.231303	-2.907494	-0.754473	0.087402	-0.182002	-0.402768	-0.158679	0.901443	-0.369491	0.929233	-0.001519	-0.837409	-0.333686	-0.432896
65379	11.949857	-0.034611	-2.888941	-0.733624	0.173841	-0.206314	-0.400611	-0.160002	0.902170	-0.364184	0.931321	0.003456	-0.840762	-0.327171	-0.431367
65380	12.508074	0.145924	-2.737434	-0.710244	0.310982	-0.229032	-0.397202	-0.161054	0.903489	-0.359076	0.933270	0.008502	-0.844568	-0.321044	-0.428527
65381	12.606176	0.405899	-2.151523	-0.680689	0.497894	-0.255927	-0.392131	-0.161838	0.905562	-0.354343	0.935016	0.013662	-0.848926	-0.315522	-0.423995
65382	12.665867	0.497304	-1.153548	-0.650502	0.723269	-0.305218	-0.384934	-0.162348	0.908553	-0.349945	0.936576	0.019091	-0.854028	-0.310595	-0.417332
65383	13.039247	0.267110	-0.357561	-0.653205	0.990368	-0.352751	-0.375277	-0.162577	0.912544	-0.345710	0.938010	0.024943	-0.860030	-0.306115	-0.408218
65384	13.035412	0.096657	0.054571	-0.695824	1.298232	-0.408466	-0.362689	-0.162383	0.917654	-0.341165	0.939479	0.031404	-0.867216	-0.301681	-0.396138
65385	12.280489	0.348873	0.282565	-0.727047	1.606986	-0.474781	-0.347137	-0.162008	0.923715	-0.336539	0.940880	0.038546	-0.875350	-0.297485	-0.381137
65386	11.460934	0.978655	0.591959	-0.695133	1.887939	-0.571165	-0.328637	-0.161715	0.930509	-0.332309	0.942031	0.046352	-0.884064	-0.293984	-0.363325
65387	10.742880	1.770687	1.048601	-0.673315	2.144973	-0.658742	-0.307459	-0.161623	0.937735	-0.328447	0.942930	0.054830	-0.893080	-0.291139	-0.342997
65388	10.246051	2.125345	1.398400	-0.725970	2.360433	-0.678316	-0.284068	-0.161088	0.945175	-0.323866	0.943966	0.063546	-0.902450	-0.288059	-0.320322
65389	9.775747	2.031286	1.148479	-0.860480	2.507003	-0.639988	-0.259328	-0.159939	0.952454	-0.317827	0.945394	0.072217	-0.911995	-0.283988	-0.296000
65390	9.718563	1.595382	0.459776	-0.989175	2.601142	-0.536743	-0.233799	-0.157606	0.959426	-0.310017	0.947353	0.080076	-0.921535	-0.278717	-0.270350
65391	10.038882	1.133371	-0.441247	-1.075337	2.645519	-0.406612	-0.208115	-0.154143	0.965882	-0.300988	0.949678	0.086705	-0.930642	-0.272674	-0.244037
65392	10.753116	0.764107	-1.669600	-1.068764	2.638053	-0.244402	-0.182726	-0.149263	0.971767	-0.291405	0.952217	0.091466	-0.938986	-0.266464	-0.217491
65393	11.412205	0.521709	-2.988334	-0.984178	2.597965	-0.074148	-0.158083	-0.143093	0.977003	-0.282288	0.954699	0.094151	-0.946215	-0.260912	-0.191315
65394	12.002412	0.555706	-4.069819	-0.848739	2.538293	0.075071	-0.134192	-0.135721	0.981617	-0.274056	0.957024	0.094856	-0.952305	-0.256289	-0.165620
65395	12.306022	0.655382	-4.820938	-0.743247	2.469068	0.187882	-0.111184	-0.127613	0.985572	-0.266766	0.959157	0.094099	-0.957327	-0.252455	-0.140685
65396	12.343156	0.515459	-5.114549	-0.686820	2.370740	0.280193	-0.089174	-0.118896	0.988894	-0.259836	0.961247	0.092142	-0.961527	-0.248733	-0.116612
65397	11.738501	0.282291	-5.412995	-0.616279	2.261583	0.328554	-0.068293	-0.110119	0.991569	-0.253680	0.963140	0.089490	-0.964874	-0.245429	-0.093710
65398	10.708309	0.480080	-5.554563	-0.581510	2.131246	0.336134	-0.048546	-0.101606	0.993639	-0.247823	0.964930	0.086563	-0.967588	-0.242044	-0.072024
65399	9.816245	0.505370	-5.659749	-0.651665	2.017717	0.310975	-0.029818	-0.093734	0.995151	-0.241428	0.966791	0.083829	-0.969960	-0.237758	-0.051458
65400	9.547708	-0.046704	-5.442135	-0.725681	1.950037	0.264222	-0.011524	-0.086518	0.996184	-0.234285	0.968752	0.081425	-0.972100	-0.232452	-0.031434
65401	9.405753	-1.013084	-4.656081	-0.646003	1.929899	0.195374	0.006741	-0.080153	0.996760	-0.228038	0.970395	0.079575	-0.973629	-0.227835	-0.011736
65402	9.814125	-1.502245	-3.988638	-0.276512	1.933333	0.058571	0.025414	-0.075122	0.996850	-0.225329	0.971081	0.078925	-0.973951	-0.226625	0.007752
65403	10.035240	-1.067492	-3.596893	0.221235	1.968921	-0.069338	0.044677	-0.071268	0.996456	-0.227503	0.970517	0.079614	-0.972752	-0.230253	0.027146
65404	9.648945	-0.269962	-3.323705	0.580865	1.939631	-0.167226	0.063878	-0.068289	0.995618	-0.233044	0.969052	0.081419	-0.970366	-0.237224	0.045987
65405	9.040966	0.677933	-2.841133	0.736920	1.859414	-0.214054	0.082341	-0.065844	0.994427	-0.240073	0.967121	0.083914	-0.967256	-0.245644	0.063826
65406	8.436796	1.246361	-2.397972	0.715519	1.769901	-0.173448	0.099816	-0.063037	0.993007	-0.246808	0.965233	0.086082	-0.963910	-0.253675	0.080788
65407	8.044940	1.534263	-2.128116	0.624559	1.691387	-0.100443	0.116283	-0.059627	0.991425	-0.252756	0.963557	0.087597	-0.960517	-0.260775	0.096974
65408	7.933968	1.749212	-1.906284	0.541399	1.600366	-0.012382	0.131618	-0.055467	0.989747	-0.257937	0.962126	0.088220	-0.957155	-0.266904	0.112326
65409	7.953810	1.723437	-1.905513	0.479269	1.493045	0.069479	0.145644	-0.050747	0.988035	-0.262660	0.960861	0.088070	-0.953833	-0.272344	0.126615
65410	8.073504	1.616473	-1.914669	0.451584	1.377635	0.138374	0.158349	-0.045581	0.986331	-0.267177	0.959690	0.087244	-0.950548	-0.277340	0.139788
65411	8.107271	1.698077	-1.712601	0.423629	1.277671	0.172365	0.169950	-0.040329	0.984627	-0.271529	0.958569	0.086128	-0.947306	-0.281992	0.151958
65412	8.009750	1.661050	-1.538318	0.321442	1.179212	0.209208	0.180480	-0.034933	0.982958	-0.274943	0.957738	0.084519	-0.944369	-0.285512	0.163248
65413	7.697406	1.531619	-1.368758	0.198338	1.080872	0.238150	0.189957	-0.029529	0.981348	-0.277304	0.957235	0.082481	-0.941817	-0.287800	0.173645
65414	7.250470	1.458301	-1.132084	0.044654	0.977438	0.260918	0.198372	-0.024175	0.979829	-0.278236	0.957180	0.079947	-0.939805	-0.288483	0.183152
65415	6.969036	1.163179	-1.018090	-0.067462	0.851598	0.303353	0.205466	-0.018791	0.978484	-0.278265	0.957428	0.076818	-0.938271	-0.288061	0.191490
65416	6.958004	1.174946	-0.977607	-0.118028	0.706841	0.321586	0.211140	-0.013643	0.977361	-0.277830	0.957823	0.073390	-0.937139	-0.287035	0.198445
65417	6.890709	1.421752	-0.790218	-0.105076	0.569569	0.313475	0.215546	-0.008982	0.976452	-0.277564	0.958147	0.070085	-0.936215	-0.286135	0.204031
65418	6.737666	1.680908	-0.704118	-0.052518	0.438160	0.269189	0.218836	-0.005118	0.975748	-0.277668	0.958317	0.067300	-0.935420	-0.285662	0.208293
65419	6.580082	1.907310	-0.544665	-0.028598	0.311832	0.222547	0.221075	-0.002069	0.975255	-0.277941	0.958394	0.065038	-0.934813	-0.285441	0.211302
65420	6.609533	2.045755	-0.153961	-0.068847	0.182613	0.210142	0.222133	0.000494	0.975016	-0.277777	0.958591	0.062798	-0.934611	-0.284786	0.213071
65421	6.674073	2.069608	0.047066	-0.166709	0.075717	0.189843	0.222255	0.002555	0.974985	-0.276690	0.959049	0.060560	-0.934904	-0.283229	0.213860
65422	6.580875	1.927665	0.026377	-0.296149	-0.060149	0.184365	0.221117	0.004178	0.975238	-0.274333	0.959879	0.058088	-0.935868	-0.280384	0.213392
65423	6.572791	1.571619	-0.199635	-0.429417	-0.225629	0.221929	0.218340	0.005708	0.975856	-0.270848	0.961051	0.054979	-0.937533	-0.276313	0.211382
65424	6.574468	1.426284	-0.542575	-0.508766	-0.388819	0.284182	0.213858	0.007397	0.976837	-0.266696	0.962425	0.051100	-0.939754	-0.271447	0.207795
65425	6.919636	1.593774	-0.644535	-0.559242	-0.533966	0.364225	0.207811	0.009496	0.978123	-0.262251	0.963885	0.046360	-0.942358	-0.266148	0.202796
65426	7.874933	1.518943	-0.637748	-0.588865	-0.631686	0.432251	0.200654	0.012021	0.979588	-0.257582	0.965390	0.040915	-0.945193	-0.260534	0.196806
65427	8.940549	0.891880	-0.412907	-0.615267	-0.646712	0.466920	0.193282	0.014893	0.981030	-0.252727	0.966900	0.035114	-0.948035	-0.254720	0.190648
65428	10.129296	-0.627238	0.399985	-0.687866	-0.622879	0.567393	0.185875	0.018834	0.982393	-0.247269	0.968536	0.028216	-0.950952	-0.248160	0.184683
65429	10.923132	-3.009608	1.560730	-0.695077	-0.576130	0.727622	0.178549	0.024504	0.983626	-0.242024	0.970069	0.019766	-0.953700	-0.241591	0.179136
65430	11.341692	-5.356890	2.666513	-0.414198	-0.514465	0.784603	0.171672	0.030908	0.984669	-0.239440	0.970846	0.011271	-0.955614	-0.237704	0.174068
65431	11.676174	-5.883110	4.158627	0.109634	-0.465239	0.728808	0.165413	0.036901	0.985534	-0.241765	0.970326	0.004247	-0.956132	-0.238970	0.169426
65432	11.268987	-5.413150	5.234098	0.579684	-0.450359	0.686015	0.159350	0.042498	0.986307	-0.248427	0.968649	-0.001601	-0.955454	-0.244770	0.164912
65433	10.137009	-3.744329	5.758951	0.931627	-0.521937	0.605091	0.152775	0.047077	0.987139	-0.258314	0.966042	-0.006093	-0.953904	-0.254061	0.159748
65434	9.203366	-1.732570	5.973568	1.130549	-0.658583	0.480016	0.145159	0.050043	0.988142	-0.269821	0.962867	-0.009126	-0.951906	-0.265297	0.153272
65435	8.902007	-0.168805	5.988524	1.255264	-0.771835	0.314754	0.136893	0.050998	0.989272	-0.282247	0.959286	-0.010396	-0.949525	-0.277796	0.145713
65436	9.466013	0.850794	5.709429	1.372582	-0.815172	0.159541	0.128638	0.050255	0.990417	-0.295498	0.955290	-0.010093	-0.946643	-0.291368	0.137736
65437	10.966888	1.548373	5.639880	1.454151	-0.738799	0.008279	0.121571	0.048153	0.991414	-0.309295	0.950930	-0.008260	-0.943163	-0.305636	0.130499
65438	11.725764	1.364735	5.334770	1.465454	-0.592857	-0.039513	0.116059	0.045972	0.992178	-0.323057	0.946360	-0.006060	-0.939236	-0.319827	0.124685
65439	10.162887	0.983331	4.091807	1.547379	-0.578898	0.003391	0.110562	0.044132	0.992889	-0.337606	0.941278	-0.004245	-0.934772	-0.334736	0.118969
65440	6.763127	1.492100	2.108119	1.682705	-0.830550	0.095542	0.102438	0.042228	0.993843	-0.353401	0.935466	-0.003322	-0.929846	-0.350885	0.110751
65441	4.772834	2.875351	-0.220349	1.705138	-1.254968	0.069643	0.090485	0.038392	0.995158	-0.369327	0.929297	-0.002269	-0.924884	-0.367333	0.098267
65442	7.015758	3.575471	-3.306597	1.449527	-1.570045	0.060216	0.075720	0.033112	0.996579	-0.382767	0.923844	-0.001613	-0.920737	-0.381335	0.082628
65443	10.145286	3.069728	-5.195523	1.010640	-1.438477	0.093429	0.062071	0.028437	0.997667	-0.392165	0.919893	-0.001821	-0.917798	-0.391137	0.068251
65444	11.978254	2.482775	-3.863222	1.182312	-1.230109	0.004211	0.050732	0.023623	0.998433	-0.403008	0.915196	-0.001177	-0.913789	-0.402316	0.055950
65445	16.482379	3.644535	1.086233	1.802853	-0.886024	-0.239876	0.043589	0.017815	0.998891	-0.419348	0.907823	0.002108	-0.906778	-0.418975	0.047042
65446	18.311870	3.428432	3.732877	2.198322	-0.528993	-0.255569	0.039854	0.013258	0.999118	-0.439076	0.898432	0.005592	-0.897565	-0.438912	0.041627
65447	14.872432	3.212105	1.897879	1.995730	-0.701067	0.079259	0.033172	0.010841	0.999391	-0.456973	0.889464	0.005520	-0.888862	-0.456878	0.034460
65448	10.700577	5.147589	-0.843330	1.459797	-1.025891	0.240357	0.022918	0.008230	0.999703	-0.469971	0.882675	0.003507	-0.882384	-0.469912	0.024097
65449	8.213993	8.028906	-2.597308	0.894234	-1.082854	-0.027434	0.013451	0.002870	0.999905	-0.477878	0.878418	0.003908	-0.878323	-0.477885	0.013187
65450	7.068633	11.028568	-2.592695	-0.312650	-0.993704	0.113699	0.004121	-0.000865	0.999991	-0.475129	0.879912	0.002719	-0.879906	-0.475136	0.003215
65451	7.632298	6.954759	-3.212704	-1.886771	-1.144399	0.627271	-0.008991	-0.000647	0.999959	-0.458467	0.888704	-0.003547	-0.888666	-0.458481	-0.008287
65452	8.645394	2.124856	-4.632200	-2.795512	-1.373249	1.044530	-0.025986	0.002562	0.999659	-0.433249	0.901172	-0.013572	-0.900900	-0.433454	-0.022308
65453	9.144995	-4.552490	-6.268252	-3.179303	-1.452317	1.380994	-0.045009	0.009030	0.998946	-0.403948	0.914399	-0.026466	-0.913674	-0.404714	-0.037509
65454	8.832853	-9.750932	-5.318943	-1.935715	-1.536367	0.741392	-0.062084	0.009746	0.998023	-0.385767	0.922006	-0.033002	-0.920505	-0.387053	-0.053482
65455	9.499389	-8.730576	-3.819023	-0.959302	-1.479573	0.417090	-0.077376	0.007956	0.996970	-0.376670	0.925623	-0.036621	-0.923110	-0.378363	-0.068624
65456	9.718295	-7.086973	-2.874997	-0.108844	-1.360188	0.160730	-0.090603	0.004311	0.995878	-0.375510	0.926032	-0.038172	-0.922379	-0.377420	-0.082283
65457	9.890908	-4.279446	-1.754701	0.484154	-1.225221	-0.005258	-0.101929	-0.000371	0.994792	-0.380010	0.924177	-0.038592	-0.919349	-0.381964	-0.094341
65458	9.959868	-2.364391	-1.140681	0.709271	-1.122593	-0.033223	-0.112178	-0.004985	0.993676	-0.386532	0.921451	-0.039014	-0.915428	-0.388464	-0.105294
65459	9.949795	-1.201262	-0.719100	0.708570	-1.066866	-0.005426	-0.121965	-0.009196	0.992492	-0.393045	0.918658	-0.039789	-0.911394	-0.394947	-0.115658
65460	9.776207	-0.625474	-0.358019	0.676051	-1.038057	-0.010888	-0.131442	-0.013405	0.991233	-0.399180	0.915976	-0.040546	-0.907402	-0.401010	-0.125748
65461	9.571162	-0.326936	-0.431064	0.660916	-1.047811	-0.051470	-0.140784	-0.018091	0.989875	-0.405268	0.913280	-0.040947	-0.903293	-0.406929	-0.135907
65462	9.670760	0.164489	-0.507182	0.634585	-1.065784	-0.081564	-0.150135	-0.023179	0.988394	-0.411078	0.910674	-0.041086	-0.899152	-0.412475	-0.146252
65463	9.947656	0.407202	-0.484052	0.526929	-1.072152	-0.047533	-0.159621	-0.028041	0.986780	-0.415912	0.908459	-0.041462	-0.895287	-0.417032	-0.156671
65464	10.204334	0.378769	-0.372271	0.364686	-1.068754	0.036336	-0.169400	-0.032162	0.985022	-0.419087	0.906953	-0.042460	-0.892003	-0.420002	-0.167117
65465	10.215195	-0.164557	-0.302481	0.229111	-1.026521	0.098102	-0.179018	-0.035577	0.983202	-0.420988	0.906005	-0.043868	-0.889225	-0.421770	-0.177168
65466	10.323017	-0.428593	-0.321511	0.151489	-0.987170	0.150723	-0.188493	-0.038356	0.981325	-0.422026	0.905432	-0.045674	-0.886772	-0.422754	-0.186855
65467	10.039653	-0.176327	-0.629980	0.056661	-0.959074	0.189255	-0.197850	-0.040681	0.979388	-0.422193	0.905251	-0.047687	-0.884652	-0.422926	-0.196279
65468	9.303254	0.228438	-1.248239	-0.114408	-1.021057	0.203879	-0.207805	-0.043121	0.977219	-0.420743	0.905828	-0.049500	-0.883058	-0.421445	-0.206379
65469	9.137779	0.080162	-1.878871	-0.317586	-1.101578	0.191231	-0.218391	-0.045995	0.974777	-0.417563	0.907230	-0.050743	-0.882013	-0.418112	-0.217337
65470	9.055009	-1.275622	-2.363379	-0.416441	-1.143076	0.149883	-0.229162	-0.049358	0.972136	-0.413516	0.909049	-0.051324	-0.881186	-0.413755	-0.228730
65471	9.124985	-2.373466	-2.646271	-0.298415	-1.154270	0.069008	-0.239671	-0.053470	0.969381	-0.410756	0.910299	-0.051345	-0.879680	-0.410484	-0.240135
65472	9.445066	-2.878874	-2.487068	-0.051962	-1.117670	-0.046301	-0.249372	-0.058438	0.966643	-0.410372	0.910501	-0.050823	-0.877159	-0.409357	-0.251035
65473	9.603042	-2.771695	-2.306681	0.199890	-1.063766	-0.126247	-0.258226	-0.063931	0.963967	-0.412470	0.909589	-0.050168	-0.873606	-0.410562	-0.261249
65474	9.952464	-2.376249	-2.199975	0.401757	-1.024484	-0.153547	-0.266592	-0.069512	0.961300	-0.416344	0.907841	-0.049816	-0.869245	-0.413512	-0.270964
65475	10.032750	-1.926485	-2.356271	0.554519	-1.010867	-0.161402	-0.274738	-0.075161	0.958577	-0.421614	0.905404	-0.049848	-0.864153	-0.417844	-0.280438
65476	9.707080	-1.584188	-2.478758	0.670025	-1.027322	-0.161119	-0.282978	-0.080891	0.955709	-0.427791	0.902478	-0.050280	-0.858439	-0.423072	-0.289986
65477	8.978340	-0.911215	-2.526012	0.721957	-1.083300	-0.145130	-0.291680	-0.086797	0.952570	-0.434409	0.899266	-0.051078	-0.852181	-0.428703	-0.300003
65478	8.742298	0.087437	-2.652525	0.679095	-1.170327	-0.155691	-0.301010	-0.093199	0.949056	-0.440602	0.896211	-0.051735	-0.845732	-0.433729	-0.310832
65479	8.856026	0.950878	-2.820188	0.517905	-1.231811	-0.153646	-0.310771	-0.099923	0.945218	-0.445460	0.893792	-0.051973	-0.839635	-0.437209	-0.322277
65480	9.244573	1.071822	-3.009393	0.276395	-1.268501	-0.110126	-0.320973	-0.106416	0.941091	-0.448082	0.892484	-0.051905	-0.834385	-0.438346	-0.334146
65481	9.645558	0.156645	-3.160402	0.089144	-1.269324	-0.094130	-0.331173	-0.112802	0.936803	-0.449154	0.891976	-0.051378	-0.829810	-0.437784	-0.346064
65482	9.397863	-0.982798	-2.964727	0.049843	-1.246428	-0.084590	-0.341184	-0.118962	0.932438	-0.449806	0.891679	-0.050825	-0.825389	-0.436758	-0.357736
65483	9.086949	-1.735592	-2.719969	0.104109	-1.231681	-0.069350	-0.351069	-0.124941	0.927976	-0.450925	0.891126	-0.050613	-0.820620	-0.436216	-0.369186
65484	9.224648	-1.907739	-2.977367	0.179402	-1.205560	-0.062284	-0.360726	-0.130707	0.923468	-0.452570	0.890282	-0.050773	-0.815510	-0.436249	-0.380302
65485	9.608026	-1.495696	-3.333763	0.257834	-1.174601	-0.052833	-0.370093	-0.136291	0.918943	-0.454879	0.889072	-0.051336	-0.810010	-0.437007	-0.391035
65486	9.994714	-0.663275	-3.777795	0.287345	-1.112016	-0.031637	-0.379001	-0.141387	0.914532	-0.457274	0.887789	-0.052251	-0.804524	-0.437995	-0.401125
65487	10.054118	-0.259394	-3.851298	0.236183	-1.015345	-0.023214	-0.387097	-0.146029	0.910402	-0.459277	0.886708	-0.053054	-0.799513	-0.438663	-0.410310
65488	9.826361	-0.345391	-3.527370	0.171251	-0.934212	-0.027873	-0.394494	-0.150317	0.906520	-0.460697	0.885939	-0.053579	-0.795068	-0.438768	-0.418748
65489	10.243102	-0.294434	-2.760116	0.097889	-0.871230	-0.047351	-0.401245	-0.154542	0.902840	-0.461680	0.885424	-0.053621	-0.791110	-0.438338	-0.426621
65490	10.746035	-0.095567	-2.099178	-0.005379	-0.763718	-0.031983	-0.407202	-0.158109	0.899549	-0.461711	0.885423	-0.053378	-0.788042	-0.437067	-0.433546
65491	10.835815	0.040116	-1.806884	-0.122647	-0.636522	0.019607	-0.412361	-0.160695	0.896736	-0.460682	0.885977	-0.053076	-0.785958	-0.434997	-0.439372
65492	10.621018	0.085214	-1.623347	-0.247915	-0.564801	0.080855	-0.417238	-0.162363	0.894176	-0.458341	0.887208	-0.052772	-0.784752	-0.431857	-0.444595
65493	10.532729	0.174125	-1.610563	-0.412907	-0.534464	0.130101	-0.422084	-0.163488	0.891693	-0.454573	0.889182	-0.052145	-0.784352	-0.427349	-0.449627
65494	10.739474	0.266013	-1.658273	-0.634414	-0.526078	0.155585	-0.426978	-0.164269	0.889216	-0.448879	0.892151	-0.050728	-0.784982	-0.420811	-0.454666
65495	11.231668	0.087258	-2.132349	-0.862980	-0.493239	0.128332	-0.431484	-0.165160	0.886873	-0.441563	0.895946	-0.047981	-0.786666	-0.412313	-0.459515
65496	11.334747	-0.175576	-2.824221	-0.979244	-0.400170	0.083838	-0.435064	-0.165965	0.884972	-0.433420	0.900104	-0.044271	-0.789219	-0.402825	-0.463535
65497	11.519961	-0.127463	-3.439997	-0.963184	-0.278413	0.015816	-0.437391	-0.166914	0.883645	-0.425751	0.903956	-0.039990	-0.792102	-0.393704	-0.466446
65498	11.160748	0.107508	-3.543571	-0.899844	-0.182141	-0.033547	-0.438748	-0.167857	0.882793	-0.418700	0.907428	-0.035553	-0.795104	-0.385225	-0.468414
65499	10.939961	0.601122	-3.241247	-0.843650	-0.101069	-0.068441	-0.439327	-0.168846	0.882317	-0.412297	0.910520	-0.031050	-0.798125	-0.377417	-0.469631
65500	10.585686	0.878590	-2.709746	-0.873054	0.006938	-0.074295	-0.439019	-0.169420	0.882360	-0.405573	0.913682	-0.026360	-0.801731	-0.369434	-0.469836
65501	10.239919	0.490447	-2.332467	-0.920751	0.099430	-0.050713	-0.438074	-0.169501	0.882814	-0.398412	0.916951	-0.021646	-0.805828	-0.361206	-0.469223
65502	10.052703	-0.115928	-2.075960	-0.910813	0.185374	-0.039966	-0.436466	-0.169125	0.883682	-0.391157	0.920165	-0.017091	-0.810243	-0.353118	-0.467775
65503	10.151844	-0.546363	-1.902014	-0.877298	0.272319	-0.042438	-0.434146	-0.168544	0.884935	-0.384231	0.923150	-0.012679	-0.814791	-0.345524	-0.465542
65504	10.470599	-0.936191	-1.759908	-0.849218	0.384337	-0.059206	-0.430823	-0.167690	0.886719	-0.377471	0.925984	-0.008283	-0.819699	-0.338279	-0.462234
65505	11.076075	-1.126222	-1.700509	-0.809713	0.528309	-0.094505	-0.426182	-0.166775	0.889131	-0.371236	0.928531	-0.003777	-0.824956	-0.331687	-0.457636
65506	11.666168	-0.979139	-1.512380	-0.760305	0.713365	-0.150346	-0.419762	-0.165737	0.892374	-0.365502	0.930810	0.000948	-0.830788	-0.325767	-0.451296
65507	11.903537	-0.683042	-1.149184	-0.712044	0.936009	-0.226675	-0.411190	-0.164801	0.896529	-0.360525	0.932730	0.006102	-0.837225	-0.320711	-0.442944
65508	12.079497	-0.361808	-0.561496	-0.689409	1.193638	-0.309431	-0.400078	-0.163790	0.901726	-0.355899	0.934450	0.011828	-0.844555	-0.316191	-0.432146
65509	12.167541	-0.152357	-0.245175	-0.685132	1.488127	-0.390935	-0.386123	-0.162747	0.907977	-0.351641	0.935957	0.018224	-0.852794	-0.312246	-0.418623
65510	11.812584	0.052663	0.029065	-0.695220	1.770469	-0.450232	-0.369402	-0.161352	0.915154	-0.347269	0.937429	0.025104	-0.861943	-0.308532	-0.402321
65511	11.189713	0.673086	0.179502	-0.720143	2.048981	-0.511128	-0.349934	-0.159837	0.923038	-0.342888	0.938811	0.032575	-0.871765	-0.305099	-0.383328
65512	10.685515	1.233079	0.565218	-0.739116	2.300411	-0.551327	-0.327904	-0.157927	0.931417	-0.338176	0.940217	0.040365	-0.882109	-0.301747	-0.361708
65513	10.403314	1.509315	0.974157	-0.723546	2.538367	-0.542869	-0.303615	-0.155387	0.940039	-0.333495	0.941533	0.047921	-0.892524	-0.298949	-0.337684
65514	9.808499	1.580761	0.709829	-0.682015	2.656016	-0.458520	-0.278272	-0.151687	0.948449	-0.328595	0.942904	0.054391	-0.902546	-0.296520	-0.312227
65515	9.986945	1.763623	-0.292413	-0.757047	2.679988	-0.302541	-0.253029	-0.146613	0.956285	-0.322558	0.944679	0.059486	-0.912104	-0.293406	-0.286322
65516	10.057332	1.444723	-2.024036	-1.020497	2.621002	-0.123095	-0.228612	-0.140057	0.963390	-0.313379	0.947510	0.063384	-0.921700	-0.287416	-0.260503
65517	10.457709	1.313908	-3.326899	-1.190625	2.468515	0.073887	-0.206034	-0.132333	0.969556	-0.302222	0.950979	0.065574	-0.930705	-0.279511	-0.235928
65518	11.295209	1.445080	-4.279889	-1.269111	2.337780	0.261087	-0.184956	-0.123314	0.974980	-0.289725	0.954845	0.065806	-0.939069	-0.270304	-0.212331
65519	12.017795	1.616159	-5.085002	-1.318213	2.285297	0.404716	-0.164612	-0.113350	0.979824	-0.276621	0.958816	0.064447	-0.946776	-0.260431	-0.189187
65520	12.135109	1.035899	-5.930626	-1.368001	2.263273	0.484916	-0.144412	-0.102826	0.984161	-0.262764	0.962863	0.062044	-0.953992	-0.249642	-0.166068
65521	12.169371	-0.042784	-6.445455	-1.324299	2.208028	0.487768	-0.124585	-0.092697	0.987869	-0.249468	0.966570	0.059236	-0.960335	-0.239062	-0.143545
65522	12.140545	-1.166306	-6.566947	-1.135175	2.192489	0.435749	-0.104540	-0.083252	0.991030	-0.237941	0.969643	0.056356	-0.965637	-0.229915	-0.121176
65523	11.731911	-2.042964	-6.315615	-0.805136	2.177871	0.358315	-0.084363	-0.074803	0.993623	-0.229850	0.971747	0.053641	-0.969563	-0.223859	-0.099173
65524	10.978876	-2.083525	-5.754391	-0.484721	2.135196	0.318424	-0.064369	-0.066883	0.995682	-0.224829	0.973072	0.050829	-0.972270	-0.220586	-0.077673
65525	10.545313	-2.218193	-5.028584	-0.250028	2.073711	0.301092	-0.044921	-0.059359	0.997225	-0.222271	0.973805	0.047953	-0.973950	-0.219500	-0.056938
65526	10.492610	-1.774919	-4.187184	0.112887	2.042273	0.251356	-0.025605	-0.052331	0.998301	-0.223222	0.973714	0.045317	-0.974431	-0.221683	-0.036614
65527	10.122394	-0.889297	-3.551732	0.438742	2.044665	0.219390	-0.006241	-0.045580	0.998941	-0.227503	0.972829	0.042967	-0.973757	-0.226994	-0.016441
65528	9.282722	-0.235473	-3.226997	0.690190	1.965310	0.146300	0.012517	-0.039553	0.999139	-0.234178	0.971312	0.041385	-0.972113	-0.234495	0.002895
65529	8.609186	0.350890	-2.965362	0.821282	1.836633	0.062310	0.030142	-0.034533	0.998949	-0.242209	0.969365	0.040819	-0.969756	-0.243185	0.020855
65530	8.043813	0.555954	-2.783301	0.888179	1.744081	-0.007072	0.047016	-0.030215	0.998437	-0.250761	0.967177	0.041077	-0.966907	-0.252301	0.037896
65531	7.781846	0.827047	-2.724212	0.949789	1.692063	-0.043327	0.063400	-0.026255	0.997643	-0.259950	0.964712	0.041908	-0.963539	-0.261994	0.054338
65532	7.910350	1.426250	-2.413192	1.024278	1.649474	-0.055071	0.079371	-0.022323	0.996595	-0.269738	0.961972	0.043030	-0.959657	-0.272234	0.070331
65533	8.442294	1.884976	-2.067394	1.077057	1.618173	-0.046167	0.094932	-0.018248	0.995317	-0.280056	0.958961	0.044293	-0.955278	-0.282949	0.085925
65534	8.713026	2.259413	-1.641203	1.036939	1.591807	-0.027925	0.110140	-0.013881	0.993819	-0.289883	0.955981	0.045479	-0.950703	-0.293101	0.101267
65535	8.634071	2.583188	-1.367003	0.884467	1.537856	-0.017736	0.124718	-0.009452	0.992147	-0.298298	0.953335	0.046580	-0.946289	-0.301765	0.116079
00000	8.226590	2.800865	-1.230238	0.688055	1.451712	0.006867	0.138362	-0.004917	0.990370	-0.304784	0.951246	0.047303	-0.942318	-0.308394	0.130117
00001	7.690708	2.959604	-1.097392	0.448686	1.357903	0.016966	0.151022	-0.000515	0.988530	-0.309076	0.949840	0.047714	-0.938970	-0.312737	0.143288
00002	7.164009	2.948401	-0.937229	0.165883	1.235342	0.058455	0.162379	0.003945	0.986721	-0.310699	0.949329	0.047335	-0.936536	-0.314260	0.155377
00003	6.825501	2.690728	-0.852515	-0.099538	1.090237	0.122137	0.172142	0.008549	0.985035	-0.310020	0.949620	0.045936	-0.935016	-0.313288	0.166120
00004	6.548898	2.382599	-0.973935	-0.269189	0.942693	0.165548	0.180393	0.013087	0.983508	-0.307780	0.950449	0.043805	-0.934200	-0.310606	0.175482
00005	6.446959	2.434301	-1.086365	-0.395471	0.765708	0.178047	0.186940	0.017168	0.982221	-0.304462	0.951628	0.041313	-0.934000	-0.306772	0.183125
00006	6.346621	2.350777	-1.082244	-0.502312	0.564246	0.170015	0.191648	0.020522	0.981249	-0.300068	0.953134	0.038672	-0.934468	-0.301853	0.188824
00007	5.918331	2.144299	-1.184782	-0.585437	0.363252	0.152256	0.194532	0.023086	0.980625	-0.294937	0.954837	0.036030	-0.935505	-0.296231	0.192555
00008	5.740784	1.923161	-1.186013	-0.715415	0.143177	0.164268	0.195341	0.025088	0.980414	-0.288538	0.956900	0.033003	-0.937330	-0.289333	0.194161
00009	5.903002	1.659383	-1.458604	-0.819470	-0.031403	0.200343	0.194416	0.026943	0.980549	-0.281286	0.959173	0.029416	-0.939724	-0.281534	0.194058
00010	6.538209	1.700418	-1.643280	-0.830652	-0.134577	0.276954	0.192326	0.029239	0.980895	-0.273982	0.961408	0.025062	-0.942308	-0.273567	0.192915
00011	6.806768	1.460395	-1.954573	-0.815982	-0.184563	0.319447	0.189661	0.031842	0.981333	-0.266941	0.963498	0.020328	-0.944865	-0.265814	0.191239
00012	6.518284	0.944008	-2.594773	-0.780231	-0.278038	0.346021	0.186060	0.034457	0.981934	-0.260182	0.965436	0.015422	-0.947463	-0.258351	0.188595
00013	7.323117	0.036434	-2.435425	-0.818013	-0.462853	0.458323	0.180433	0.037736	0.982863	-0.253309	0.967340	0.009362	-0.950410	-0.250657	0.184099
00014	7.794677	-1.919721	-2.424099	-0.870725	-0.730405	0.623596	0.171857	0.041979	0.984227	-0.246080	0.969248	0.001628	-0.953892	-0.242478	0.176902
00015	8.761177	-4.062064	-1.963747	-0.719370	-1.065188	0.705062	0.159903	0.046298	0.986046	-0.240423	0.970646	-0.006586	-0.957407	-0.236015	0.166341
00016	10.130659	-6.345560	-0.524108	-0.449136	-1.216591	0.695969	0.146505	0.050221	0.987934	-0.237142	0.971371	-0.014212	-0.960364	-0.232198	0.154220
00017	9.704024	-8.634143	2.197999	0.222386	-1.196002	0.572941	0.133586	0.053018	0.989618	-0.240129	0.970543	-0.019582	-0.961505	-0.235020	0.142383
00018	7.450701	-7.282707	4.720718	1.059093	-1.230490	0.320785	0.120899	0.053196	0.991238	-0.250692	0.967831	-0.021363	-0.960488	-0.245913	0.130346
00019	6.241572	-3.988753	6.175524	1.702255	-1.395960	0.012931	0.107417	0.049795	0.992966	-0.267080	0.963479	-0.019424	-0.957669	-0.263115	0.116793
00020	8.288820	-1.372324	8.173553	2.203027	-1.402972	-0.358999	0.094939	0.042542	0.994574	-0.287746	0.957612	-0.013494	-0.952989	-0.284903	0.103156
00021	10.127978	-0.087508	9.617354	2.571689	-1.159237	-0.500841	0.085370	0.034341	0.995757	-0.311763	0.950141	-0.006039	-0.946317	-0.309925	0.091820
00022	11.600722	2.203404	9.755250	2.933239	-0.862127	-0.571192	0.079049	0.026193	0.996527	-0.338901	0.940819	0.002154	-0.937495	-0.337894	0.083248
00023	14.840987	6.071384	8.290905	3.171210	-0.838077	-0.712699	0.073693	0.016591	0.997143	-0.367966	0.929765	0.011724	-0.926915	-0.367779	0.074622
00024	20.997592	9.308261	3.708534	2.849281	-1.072336	-0.635940	0.066180	0.006666	0.997785	-0.393768	0.918993	0.019978	-0.916824	-0.394218	0.063444
00025	20.819133	11.166146	-0.573113	1.833957	-0.893752	-0.198292	0.058751	0.001270	0.998272	-0.410439	0.911598	0.022996	-0.909993	-0.411081	0.054078
00026	16.254476	11.450966	0.568072	0.923386	-0.503679	0.331860	0.052756	0.002218	0.998605	-0.418983	0.907771	0.020118	-0.906460	-0.419459	0.048820
00027	7.903980	10.490659	-0.174889	0.165377	-0.198783	0.691066	0.047989	0.007670	0.998818	-0.420871	0.907024	0.013256	-0.905850	-0.421010	0.046756
00028	2.790037	10.110292	-4.354408	-1.206473	-0.610275	0.949419	0.038472	0.013773	0.999165	-0.410273	0.911957	0.003226	-0.911151	-0.410055	0.040736
00029	5.339193	6.613931	-9.158915	-2.764933	-1.226718	1.198587	0.022393	0.019911	0.999551	-0.385328	0.922728	-0.009748	-0.922508	-0.384936	0.028335
00030	7.281541	0.960883	-11.840677	-3.726391	-1.691465	1.465115	0.001239	0.027296	0.999627	-0.350804	0.936112	-0.025127	-0.936448	-0.350642	0.010736
00031	9.759127	-8.230113	-10.814165	-3.979220	-1.735635	1.622680	-0.020580	0.036848	0.999109	-0.313159	0.948796	-0.041443	-0.949478	-0.313733	-0.007987
00032	11.051860	-16.219310	-7.694551	-1.753324	-1.622062	0.630878	-0.037995	0.037891	0.998559	-0.296216	0.953941	-0.047469	-0.954365	-0.297593	-0.025021
00033	11.436874	-12.232476	-4.956179	0.330982	-1.338992	0.128057	-0.051206	0.035127	0.998070	-0.299355	0.952888	-0.048895	-0.952767	-0.301281	-0.038278
00034	10.082148	-5.694158	-3.572462	1.743058	-1.103418	-0.252137	-0.060984	0.029335	0.997708	-0.315993	0.947588	-0.047176	-0.946800	-0.318146	-0.048518
00035	10.264585	0.475628	-2.401982	2.279358	-0.969175	-0.579557	-0.068288	0.020698	0.997451	-0.337896	0.940217	-0.042643	-0.938703	-0.339947	-0.057212
00036	10.328826	4.516577	-0.562565	2.003058	-0.799747	-0.617868	-0.073700	0.012139	0.997207	-0.357003	0.933340	-0.037746	-0.931191	-0.358788	-0.064454
00037	9.530897	4.560234	0.471976	0.942510	-0.813127	-0.098218	-0.080963	0.008290	0.996683	-0.365874	0.929910	-0.037456	-0.927136	-0.367693	-0.072255
00038	9.281466	2.665642	0.123304	0.291104	-0.890709	0.070662	-0.089551	0.005676	0.995966	-0.368445	0.928855	-0.038422	-0.925326	-0.370399	-0.081089
00039	9.344285	1.753510	0.005586	-0.234525	-0.963257	0.159257	-0.099111	0.003618	0.995070	-0.366161	0.929698	-0.039851	-0.925258	-0.368306	-0.090819
00040	9.860201	0.512382	-0.241468	-0.585964	-1.004202	0.236655	-0.109344	0.002164	0.994002	-0.360423	0.931858	-0.041677	-0.926358	-0.362818	-0.101113
00041	9.801067	-0.658794	-0.488341	-0.776960	-1.052010	0.278110	-0.120151	0.001002	0.992755	-0.352936	0.934628	-0.043658	-0.927901	-0.355624	-0.111943
00042	9.720909	-1.911485	-0.665576	-0.873388	-1.126982	0.301789	-0.131744	-0.000116	0.991284	-0.344374	0.937722	-0.045658	-0.929543	-0.347387	-0.123579
00043	9.249928	-3.103458	-1.310861	-0.785320	-1.184540	0.301991	-0.143851	-0.001330	0.989598	-0.336688	0.940408	-0.047678	-0.930563	-0.340045	-0.135726
00044	9.084495	-3.577072	-1.848444	-0.505851	-1.266750	0.229927	-0.156481	-0.003417	0.987675	-0.331567	0.942144	-0.049271	-0.930364	-0.335191	-0.148560
00045	9.355701	-3.413784	-1.729764	-0.211417	-1.297990	0.144894	-0.169087	-0.006367	0.985581	-0.329400	0.942843	-0.050421	-0.928927	-0.333175	-0.161520
00046	9.622027	-2.695467	-1.559376	0.028270	-1.336325	0.075460	-0.181811	-0.010075	0.983282	-0.329460	0.942777	-0.051257	-0.926499	-0.333271	-0.174726
00047	9.608336	-1.698844	-1.604257	0.112422	-1.341028	0.044401	-0.194423	-0.014110	0.980816	-0.330449	0.942393	-0.051946	-0.923582	-0.334210	-0.187886
00048	9.600457	-1.075298	-2.087483	0.122870	-1.301416	0.041330	-0.206638	-0.018037	0.978251	-0.331429	0.942011	-0.052640	-0.920573	-0.335098	-0.200634
00049	9.689779	-1.127071	-2.602182	0.095672	-1.192456	0.002685	-0.217668	-0.021990	0.975775	-0.332334	0.941676	-0.052913	-0.917701	-0.335801	-0.212281
00050	9.721865	-1.626622	-2.585833	0.184273	-1.062272	-0.057573	-0.227289	-0.026065	0.973478	-0.334082	0.941064	-0.052805	-0.914729	-0.337223	-0.222601
00051	9.704138	-1.715899	-2.245013	0.396588	-0.972778	-0.116185	-0.235840	-0.030433	0.971315	-0.338002	0.939673	-0.052627	-0.911117	-0.340718	-0.231898
00052	9.639988	-1.541401	-1.865595	0.591439	-0.935978	-0.145219	-0.243934	-0.034963	0.969161	-0.343652	0.937619	-0.052671	-0.906863	-0.345902	-0.240732
00053	9.636039	-1.094879	-1.589902	0.720399	-0.948637	-0.097922	-0.252235	-0.039170	0.966873	-0.350439	0.935054	-0.053540	-0.901981	-0.352335	-0.249580
00054	9.762830	-0.398089	-1.428146	0.717099	-0.954251	-0.033248	-0.260782	-0.042825	0.964447	-0.356903	0.932515	-0.055098	-0.897002	-0.358582	-0.258467
00055	9.856731	-0.081074	-1.229202	0.577617	-0.953046	0.034410	-0.269493	-0.045925	0.961907	-0.362007	0.930431	-0.057000	-0.892370	-0.363578	-0.267370
00056	9.545991	-0.277386	-1.554112	0.408851	-0.956239	0.089621	-0.278413	-0.048533	0.959235	-0.365325	0.929006	-0.059031	-0.888270	-0.366868	-0.276377
00057	9.342539	-0.593170	-2.053287	0.266335	-0.973883	0.097735	-0.287463	-0.051188	0.956423	-0.367437	0.928061	-0.060767	-0.884508	-0.368893	-0.285592
00058	9.326108	-0.806238	-2.285761	0.216736	-0.957428	0.068552	-0.296247	-0.054034	0.953582	-0.369064	0.927326	-0.062110	-0.880925	-0.370333	-0.294659
00059	9.187392	-0.653791	-2.548390	0.215697	-0.962466	0.030519	-0.304880	-0.057302	0.950665	-0.370895	0.926529	-0.063099	-0.877203	-0.371834	-0.303733
00060	9.451983	-0.306724	-2.733377	0.190817	-0.982549	-0.012946	-0.313511	-0.061026	0.947622	-0.372527	0.925838	-0.063624	-0.873461	-0.372962	-0.312994
00061	9.937292	0.086465	-2.785261	0.120250	-0.972446	-0.023580	-0.321959	-0.064854	0.944530	-0.373675	0.925360	-0.063836	-0.869890	-0.373500	-0.322163
00062	9.745193	0.232997	-2.777195	0.021973	-0.924893	0.008929	-0.330102	-0.068166	0.941481	-0.373756	0.925313	-0.064051	-0.866798	-0.373027	-0.330925
00063	9.457246	0.129893	-3.091467	-0.076724	-0.917386	0.050115	-0.338288	-0.071099	0.938353	-0.372948	0.925620	-0.064319	-0.863986	-0.371715	-0.339642
00064	9.161503	-0.317712	-3.374117	-0.147308	-0.901934	0.081739	-0.346451	-0.073624	0.935175	-0.371309	0.926257	-0.064636	-0.861453	-0.369632	-0.348239
00065	8.870066	-0.769655	-3.720510	-0.171352	-0.900728	0.093123	-0.354603	-0.076060	0.931918	-0.369532	0.926945	-0.064956	-0.858896	-0.367407	-0.356804
00066	9.057178	-1.067993	-3.804667	-0.153523	-0.895298	0.083499	-0.362666	-0.078500	0.928607	-0.367822	0.927605	-0.065238	-0.856259	-0.365222	-0.365285
00067	9.136300	-1.275954	-3.596572	-0.113323	-0.863225	0.074718	-0.370379	-0.080931	0.925348	-0.366602	0.928065	-0.065567	-0.853477	-0.363519	-0.373405
00068	9.283339	-1.375021	-3.284509	-0.090920	-0.843822	0.073918	-0.377918	-0.083241	0.922090	-0.365463	0.928485	-0.065966	-0.850656	-0.361920	-0.381312
00069	9.609536	-1.390749	-2.979598	-0.095235	-0.820244	0.069772	-0.385196	-0.085535	0.918862	-0.364409	0.928876	-0.066297	-0.847838	-0.360379	-0.388969
00070	9.933839	-1.331321	-2.578752	-0.097663	-0.775586	0.067893	-0.392087	-0.087623	0.915746	-0.363227	0.929317	-0.066598	-0.845183	-0.358736	-0.396200
00071	10.020874	-1.200204	-2.168836	-0.096627	-0.729323	0.058737	-0.398512	-0.089667	0.912769	-0.362200	0.929703	-0.066805	-0.842614	-0.357228	-0.402976
00072	10.004939	-1.130463	-1.916426	-0.114651	-0.692140	0.054655	-0.404610	-0.091549	0.909896	-0.360920	0.930194	-0.066901	-0.840255	-0.355468	-0.409407
00073	9.886103	-1.403236	-1.906167	-0.142747	-0.668193	0.039535	-0.410417	-0.093529	0.907089	-0.359581	0.930725	-0.066728	-0.838010	-0.353558	-0.415616
00074	9.758122	-1.514974	-2.113168	-0.175018	-0.670527	0.032928	-0.416220	-0.095503	0.904235	-0.357879	0.931407	-0.066359	-0.835873	-0.351226	-0.421848
00075	9.932277	-1.395697	-2.490249	-0.230602	-0.669990	0.024493	-0.421958	-0.097597	0.901347	-0.355870	0.932226	-0.065657	-0.833851	-0.348467	-0.428092
00076	10.024714	-0.970041	-2.734542	-0.290863	-0.649590	0.015577	-0.427494	-0.099620	0.898512	-0.353284	0.933282	-0.064610	-0.832129	-0.345051	-0.434167
00077	9.792155	-0.599683	-2.846380	-0.386042	-0.594762	0.019174	-0.432564	-0.101459	0.895876	-0.350010	0.934615	-0.063152	-0.830892	-0.340883	-0.439792
00078	9.754954	-0.593697	-3.009139	-0.470987	-0.548827	0.007254	-0.437215	-0.103160	0.893421	-0.345967	0.936248	-0.061201	-0.830151	-0.335852	-0.445032
00079	10.211301	-0.647517	-3.339011	-0.520684	-0.491846	-0.008675	-0.441323	-0.104858	0.891201	-0.341702	0.937964	-0.058851	-0.829743	-0.330497	-0.449776
00080	10.082619	-0.219829	-3.580588	-0.535154	-0.407378	-0.029296	-0.444670	-0.106373	0.889355	-0.337285	0.939721	-0.056242	-0.829764	-0.324975	-0.453744
00081	10.027351	0.440216	-3.693949	-0.588407	-0.331379	-0.028038	-0.447383	-0.107681	0.887836	-0.332544	0.941577	-0.053370	-0.830219	-0.319121	-0.457054
00082	9.917309	0.467168	-3.653802	-0.690253	-0.263849	0.018335	-0.449698	-0.108250	0.886597	-0.326627	0.943807	-0.050436	-0.831316	-0.312267	-0.459785
00083	9.979215	0.091732	-3.716361	-0.735312	-0.217746	0.039759	-0.451694	-0.108523	0.885548	-0.320347	0.946111	-0.047456	-0.832677	-0.305118	-0.462117
00084	9.726055	-0.315791	-3.888728	-0.738717	-0.183613	0.030243	-0.453382	-0.108690	0.884665	-0.313939	0.948406	-0.044370	-0.834198	-0.297847	-0.464112
00085	10.011164	-0.585572	-4.022541	-0.718958	-0.158787	-0.004891	-0.454748	-0.109179	0.883903	-0.307976	0.950508	-0.041041	-0.835677	-0.290884	-0.465866
00086	10.126766	-0.797349	-4.142835	-0.704208	-0.120787	-0.040447	-0.455695	-0.109806	0.883337	-0.302150	0.952524	-0.037466	-0.837286	-0.283973	-0.467239
00087	10.218039	-1.091073	-4.212676	-0.704551	-0.098944	-0.067579	-0.456377	-0.110703	0.882873	-0.296571	0.954419	-0.033630	-0.838907	-0.277182	-0.468406
00088	10.383820	-1.502563	-4.336935	-0.663737	-0.068962	-0.094478	-0.456736	-0.111697	0.882562	-0.291325	0.956161	-0.029752	-0.840549	-0.270701	-0.469253
00089	10.624265	-1.778740	-4.217012	-0.588465	-0.022324	-0.132801	-0.456594	-0.113001	0.882469	-0.286998	0.957582	-0.025875	-0.842113	-0.265081	-0.469657
00090	10.818161	-1.957521	-3.848853	-0.498544	0.052762	-0.174058	-0.455711	-0.114423	0.882743	-0.283474	0.958726	-0.022069	-0.843783	-0.260292	-0.469338
00091	11.212500	-1.983192	-3.481485	-0.415326	0.156657	-0.213379	-0.453840	-0.116038	0.883496	-0.280954	0.959547	-0.018296	-0.845633	-0.256525	-0.468082
00092	11.536729	-1.959008	-3.010515	-0.350049	0.304142	-0.263107	-0.450584	-0.117677	0.884944	-0.279063	0.960165	-0.014410	-0.847997	-0.253448	-0.465474
00093	11.544891	-1.572701	-2.457189	-0.266489	0.483306	-0.319810	-0.445642	-0.119500	0.887200	-0.278251	0.960452	-0.010399	-0.850870	-0.251498	-0.461269
00094	11.715495	-0.777401	-1.685145	-0.174387	0.695518	-0.367536	-0.438743	-0.121165	0.890406	-0.278263	0.960483	-0.006412	-0.854444	-0.250581	-0.455121
00095	12.126071	0.175630	-0.379606	-0.112439	0.988947	-0.417334	-0.429162	-0.122666	0.894859	-0.279130	0.960251	-0.002237	-0.859014	-0.250742	-0.446343
00096	11.777013	0.900550	0.917622	-0.132589	1.346129	-0.455428	-0.416334	-0.123542	0.900780	-0.279786	0.960059	0.002357	-0.865093	-0.251044	-0.434270
00097	10.668599	1.497881	1.574450	-0.218492	1.601913	-0.477069	-0.401139	-0.124073	0.907576	-0.279859	0.960011	0.007547	-0.872219	-0.250966	-0.419821
00098	10.319531	1.978625	1.894434	-0.348141	1.762619	-0.470434	-0.384423	-0.124054	0.914784	-0.278518	0.960341	0.013189	-0.880140	-0.249713	-0.403728
00099	10.558273	2.337949	2.102181	-0.465211	1.952038	-0.453942	-0.365955	-0.123532	0.922397	-0.276129	0.960930	0.019140	-0.888724	-0.247696	-0.385768
00100	10.607233	2.567275	2.006578	-0.610100	2.160469	-0.432319	-0.345499	-0.122251	0.930422	-0.272072	0.961943	0.025363	-0.898113	-0.244379	-0.365611
00101	10.445499	2.222877	1.491364	-0.804808	2.348501	-0.394207	-0.323284	-0.120336	0.938620	-0.266147	0.963406	0.031846	-0.908104	-0.239515	-0.343481
00102	10.340931	1.437331	0.622642	-0.937804	2.483737	-0.314816	-0.299802	-0.117369	0.946754	-0.258380	0.965302	0.037849	-0.918346	-0.233275	-0.319725
00103	10.593699	0.641746	-0.265720	-0.955568	2.597871	-0.206294	-0.275347	-0.113353	0.954639	-0.250179	0.967258	0.042693	-0.928221	-0.227075	-0.294690
00104	10.903674	-0.146219	-1.145253	-0.824302	2.663556	-0.084870	-0.250312	-0.108067	0.962115	-0.242517	0.969068	0.045753	-0.937299	-0.221876	-0.268777
00105	11.032009	-0.421557	-2.252433	-0.550841	2.669907	0.023422	-0.225297	-0.101920	0.968945	-0.237308	0.970303	0.046884	-0.944948	-0.219375	-0.242793
00106	11.216948	-0.237725	-3.291500	-0.332656	2.617194	0.126414	-0.200793	-0.094844	0.975032	-0.233696	0.971204	0.046346	-0.951351	-0.218556	-0.217176
00107	11.822604	-0.272325	-4.061690	-0.284167	2.548987	0.219491	-0.177040	-0.087116	0.980341	-0.230604	0.972019	0.044731	-0.956806	-0.218151	-0.192175
00108	12.673881	-0.699597	-4.843091	-0.312635	2.493440	0.312953	-0.153847	-0.078545	0.984968	-0.226927	0.973000	0.042146	-0.961684	-0.217032	-0.167517
00109	13.381598	-1.349687	-5.276893	-0.294698	2.469825	0.353733	-0.130898	-0.069723	0.988941	-0.223619	0.973894	0.039064	-0.965847	-0.216033	-0.143072
00110	13.452295	-1.939911	-5.666931	-0.177140	2.476538	0.303897	-0.107624	-0.061321	0.992299	-0.221388	0.974513	0.036211	-0.969229	-0.215785	-0.118457
00111	12.715712	-2.328335	-5.905609	-0.024811	2.456080	0.197741	-0.084284	-0.054049	0.994975	-0.220995	0.974674	0.034226	-0.971626	-0.217000	-0.094094
00112	11.894966	-2.506512	-5.652430	0.129996	2.451310	0.114672	-0.060719	-0.047496	0.997024	-0.222028	0.974485	0.032901	-0.973148	-0.219369	-0.069716
00113	11.322184	-2.347432	-4.779570	0.308695	2.478326	0.075499	-0.036822	-0.041243	0.998470	-0.225036	0.973827	0.031926	-0.973654	-0.223517	-0.045139
00114	11.279524	-2.053988	-4.082299	0.531242	2.466671	0.049275	-0.012947	-0.035098	0.999300	-0.230074	0.972673	0.031182	-0.973087	-0.229509	-0.020668
00115	11.165246	-1.362039	-3.430092	0.790901	2.412317	0.020351	0.010400	-0.029232	0.999519	-0.237806	0.970822	0.030867	-0.971257	-0.238012	0.003145
00116	10.549816	-0.377594	-2.921515	0.946970	2.279922	-0.003986	0.032493	-0.023664	0.999192	-0.246874	0.968553	0.030966	-0.968503	-0.247681	0.025630
00117	9.452147	0.582647	-2.510892	0.937823	2.104597	0.013352	0.052750	-0.018193	0.998442	-0.255992	0.966178	0.031130	-0.965239	-0.257235	0.046309
00118	8.095074	1.124678	-2.410180	0.860997	1.944299	0.063608	0.071286	-0.012434	0.997378	-0.264225	0.963966	0.030903	-0.961823	-0.265735	0.065431
00119	6.993497	1.872148	-2.346180	0.784364	1.802853	0.121837	0.088208	-0.006374	0.996082	-0.271898	0.961851	0.030232	-0.958275	-0.273499	0.083110
00120	6.916045	2.329641	-2.533553	0.668874	1.629713	0.188548	0.103243	-0.000002	0.994656	-0.278401	0.960030	0.028900	-0.954900	-0.279897	0.099116
00121	7.254555	2.325559	-2.738740	0.629644	1.501170	0.193175	0.116948	0.006123	0.993119	-0.284662	0.958230	0.027613	-0.951468	-0.285932	0.113806
00122	7.556107	2.313561	-2.674679	0.639464	1.404487	0.127254	0.129881	0.011439	0.991464	-0.290822	0.956394	0.027063	-0.947921	-0.291854	0.127544
00123	7.489972	2.282317	-2.319384	0.619864	1.335817	0.043828	0.142330	0.015820	0.989693	-0.296793	0.954548	0.027425	-0.944275	-0.297637	0.140556
00124	7.130919	2.347736	-2.091280	0.562718	1.280648	-0.027031	0.154437	0.019437	0.987811	-0.301993	0.952885	0.028465	-0.940718	-0.302708	0.153031
00125	6.593642	2.617272	-1.912775	0.481414	1.209202	-0.074326	0.165958	0.022440	0.985877	-0.306442	0.951419	0.029929	-0.937311	-0.307081	0.164772
00126	6.304099	2.768088	-1.865858	0.350758	1.087648	-0.093460	0.176377	0.024929	0.984007	-0.309507	0.950378	0.031400	-0.934396	-0.310096	0.175341
00127	6.055614	2.699452	-1.825831	0.195038	0.939580	-0.083820	0.185346	0.027078	0.982300	-0.311224	0.949779	0.032542	-0.932087	-0.311747	0.184465
00128	6.065302	2.424758	-1.745802	0.034809	0.774394	-0.046964	0.192654	0.029059	0.980836	-0.311412	0.949701	0.033030	-0.930541	-0.311807	0.192013
00129	6.057493	2.026361	-1.756669	-0.080322	0.614517	0.003825	0.198297	0.031033	0.979651	-0.310721	0.949935	0.032803	-0.929586	-0.310903	0.198012
00130	5.960659	2.001744	-1.745393	-0.165097	0.435274	0.068243	0.202077	0.033038	0.978812	-0.309278	0.950441	0.031770	-0.929253	-0.309145	0.202281
00131	5.723084	1.810234	-1.755722	-0.241697	0.236588	0.131056	0.203812	0.035037	0.978383	-0.307346	0.951126	0.029964	-0.929515	-0.306810	0.204620
00132	5.699054	1.547499	-1.574699	-0.358152	0.007442	0.167977	0.203311	0.036661	0.978428	-0.304313	0.952173	0.027557	-0.930623	-0.303351	0.204743
00133	6.008278	1.011489	-1.290431	-0.484293	-0.188046	0.171482	0.200981	0.037753	0.978867	-0.300197	0.953553	0.024860	-0.932464	-0.298850	0.202979
00134	6.314089	0.731719	-1.077499	-0.600099	-0.349054	0.196458	0.197077	0.038593	0.979628	-0.294921	0.955275	0.021697	-0.934977	-0.293189	0.199645
00135	6.351567	0.520840	-1.212542	-0.747107	-0.537732	0.236619	0.191291	0.039323	0.980745	-0.288432	0.957334	0.017873	-0.938198	-0.286297	0.194471
00136	6.249844	0.305008	-1.429520	-0.839881	-0.734304	0.252986	0.183605	0.039673	0.982199	-0.280950	0.959624	0.013757	-0.941996	-0.278475	0.187337
00137	6.744191	-0.120133	-1.539376	-0.809219	-0.887889	0.224315	0.174542	0.039415	0.983861	-0.273762	0.961745	0.010038	-0.945827	-0.271096	0.178655
00138	8.453671	-0.979099	-1.348139	-0.674263	-0.991164	0.178276	0.164600	0.038475	0.985610	-0.267613	0.963501	0.007081	-0.949363	-0.264927	0.168888
00139	10.780659	-2.349181	-1.310950	-0.385351	-1.085267	0.133446	0.153868	0.036930	0.987401	-0.264210	0.964452	0.005100	-0.952112	-0.261666	0.158155
00140	11.867814	-3.877909	-0.630270	0.138441	-1.060780	0.072374	0.143496	0.034849	0.989037	-0.265572	0.964080	0.004562	-0.953352	-0.263315	0.147597
00141	11.546667	-5.621999	0.858052	0.739368	-1.027931	0.140190	0.133262	0.033480	0.990515	-0.272860	0.962045	0.004192	-0.952779	-0.270831	0.137340
00142	10.823512	-5.354257	3.838686	1.349519	-1.034451	0.140975	0.122946	0.031978	0.991898	-0.285805	0.958277	0.004532	-0.950368	-0.284047	0.126956
00143	10.233042	-3.368781	7.220685	1.556759	-0.980466	0.115536	0.113245	0.030248	0.993107	-0.300757	0.953686	0.005249	-0.946953	-0.299278	0.117098
00144	9.485970	-0.885535	9.119651	1.563295	-1.023146	0.028001	0.103413	0.027400	0.994261	-0.315500	0.948902	0.006666	-0.943274	-0.314378	0.106773
00145	10.317842	0.990533	9.764517	1.459638	-1.026388	-0.048984	0.093847	0.023660	0.995305	-0.329238	0.944208	0.008599	-0.939572	-0.328500	0.096401
00146	11.262782	1.342883	9.677060	1.463434	-0.923950	0.014536	0.085072	0.020727	0.996159	-0.342917	0.939315	0.009741	-0.935506	-0.342429	0.087017
00147	11.909732	2.129660	9.473231	1.655209	-0.652492	0.068820	0.078682	0.019107	0.996717	-0.358459	0.933488	0.010402	-0.930224	-0.358100	0.080298
00148	10.672216	3.203979	7.869342	1.719984	-0.490059	0.045119	0.073923	0.017764	0.997106	-0.374383	0.927206	0.011237	-0.924323	-0.374130	0.075192
00149	10.325855	3.869868	3.101634	1.753538	-0.759044	0.028364	0.066759	0.015143	0.997654	-0.390601	0.920480	0.012165	-0.918136	-0.390497	0.067365
00150	10.798370	5.392669	-2.524689	1.899745	-1.195775	-0.088768	0.056134	0.009583	0.998377	-0.407870	0.912930	0.014170	-0.911313	-0.408003	0.055155
00151	13.201100	9.100136	-4.582699	1.609389	-1.376356	-0.172797	0.044286	0.002311	0.999016	-0.422444	0.906237	0.016630	-0.905307	-0.422765	0.041110
00152	15.923047	8.749285	-1.397433	0.447251	-0.938632	0.175424	0.035006	-0.000075	0.999387	-0.426500	0.904363	0.015007	-0.903810	-0.426764	0.031626
00153	12.640264	3.863382	-0.800066	-0.204347	-0.531209	0.573357	0.027698	0.002867	0.999612	-0.424873	0.905207	0.009177	-0.904829	-0.424962	0.026290
00154	7.534914	1.283439	-3.379618	-0.647327	-0.763223	0.971655	0.016638	0.008460	0.999826	-0.419147	0.907918	-0.000707	-0.907766	-0.419062	0.018652
00155	6.424624	-0.010064	-6.223494	-0.762415	-1.241222	1.036919	0.000976	0.012747	0.999918	-0.412345	0.910959	-0.011211	-0.911027	-0.412300	0.006145
00156	8.914181	-0.556915	-7.398697	-0.891517	-1.425001	0.909109	-0.015792	0.015233	0.999759	-0.404060	0.914507	-0.020316	-0.914596	-0.404284	-0.008287
00157	10.697898	-1.261838	-6.248862	-0.899136	-1.296103	0.718657	-0.030604	0.016647	0.999393	-0.395694	0.917973	-0.027408	-0.917872	-0.396293	-0.021507
00158	11.242445	-1.449439	-4.146431	-0.726641	-1.114257	0.513524	-0.042921	0.016977	0.998934	-0.388851	0.920732	-0.032356	-0.920300	-0.389825	-0.032917
00159	10.967218	-1.193532	-3.017991	-0.437137	-1.033894	0.330292	-0.053782	0.016029	0.998424	-0.384704	0.922356	-0.035531	-0.921472	-0.386008	-0.043440
00160	9.891406	-1.631361	-2.682289	-0.228463	-1.040507	0.254496	-0.064415	0.014360	0.997820	-0.382471	0.923187	-0.037977	-0.921719	-0.384083	-0.053974
00161	9.262986	-2.610764	-2.649101	-0.045652	-1.092515	0.232109	-0.075431	0.012327	0.997075	-0.381925	0.923314	-0.040309	-0.921110	-0.383849	-0.064938
00162	9.359812	-3.039698	-2.236935	0.180236	-1.097986	0.157410	-0.086210	0.009547	0.996231	-0.383480	0.922593	-0.042026	-0.919517	-0.385657	-0.075875
00163	9.559347	-2.614473	-1.790420	0.396625	-1.035631	0.085794	-0.096113	0.006343	0.995350	-0.387080	0.921031	-0.043246	-0.917023	-0.389437	-0.086068
00164	9.747469	-0.882197	-1.336305	0.439466	-0.998421	0.033518	-0.105460	0.002737	0.994420	-0.391093	0.919298	-0.044006	-0.914289	-0.393552	-0.095879
00165	10.193095	0.259238	-0.796663	0.227156	-0.987286	0.045822	-0.114719	-0.000720	0.993398	-0.393153	0.918384	-0.044736	-0.912289	-0.395689	-0.105640
00166	10.099731	0.276509	-0.430498	-0.101033	-1.012164	0.107128	-0.124445	-0.003742	0.992220	-0.392126	0.918775	-0.045715	-0.911455	-0.394764	-0.115804
00167	10.384014	-0.531830	-0.330558	-0.346417	-1.066409	0.152445	-0.134822	-0.006515	0.990848	-0.388805	0.920128	-0.046854	-0.911402	-0.391564	-0.126587
00168	9.635893	-1.806429	-0.585427	-0.449166	-1.110415	0.179202	-0.145709	-0.009194	0.989285	-0.384481	0.921881	-0.048061	-0.911561	-0.387364	-0.137862
00169	9.131598	-2.570679	-1.210704	-0.352972	-1.154237	0.151420	-0.156870	-0.012230	0.987543	-0.381068	0.923242	-0.049098	-0.911141	-0.384024	-0.149490
00170	8.919221	-2.654766	-1.864530	-0.140222	-1.175629	0.070625	-0.167916	-0.016085	0.985670	-0.379699	0.923779	-0.049609	-0.909743	-0.382588	-0.161225
00171	9.222839	-2.442779	-2.113218	0.107212	-1.196653	-0.027644	-0.178744	-0.020905	0.983674	-0.380753	0.923347	-0.049564	-0.907236	-0.383396	-0.173002
00172	9.316293	-2.124807	-2.369048	0.305464	-1.194730	-0.091674	-0.189288	-0.026345	0.981568	-0.383710	0.922139	-0.049246	-0.903845	-0.385960	-0.184658
00173	9.486688	-1.287076	-2.606494	0.395759	-1.174819	-0.084021	-0.199622	-0.031654	0.979362	-0.387475	0.920565	-0.049225	-0.900008	-0.389304	-0.196030
00174	9.626465	-0.360141	-2.776414	0.356201	-1.134805	-0.045479	-0.209714	-0.036504	0.977081	-0.390789	0.919146	-0.049537	-0.896272	-0.392221	-0.207023
00175	9.578988	-0.070914	-2.859313	0.249167	-1.089427	0.022925	-0.219611	-0.040558	0.974744	-0.392999	0.918160	-0.050340	-0.892929	-0.394128	-0.217578
00176	9.394721	-0.322891	-2.748568	0.181619	-1.054640	0.073595	-0.229380	-0.044043	0.972340	-0.394473	0.917463	-0.051500	-0.889818	-0.395375	-0.227821
00177	9.243238	-0.422372	-2.853301	0.163516	-1.047845	0.066419	-0.239011	-0.047564	0.969851	-0.395799	0.916831	-0.052577	-0.886689	-0.396432	-0.237959
00178	9.233260	-0.315932	-2.651265	0.161616	-1.064915	0.031941	-0.248641	-0.051496	0.967226	-0.397170	0.916195	-0.053320	-0.883422	-0.397411	-0.248257
00179	9.224910	-0.290529	-2.425913	0.133043	-1.074792	0.021227	-0.258264	-0.055559	0.964475	-0.398317	0.915662	-0.053913	-0.880138	-0.398091	-0.258613
00180	9.351665	-0.616847	-2.279583	0.092424	-1.085917	0.025050	-0.267982	-0.059652	0.961575	-0.399081	0.915298	-0.054439	-0.876881	-0.398335	-0.269089
00181	9.667181	-1.104983	-2.042718	0.068394	-1.067888	0.027466	-0.277500	-0.063636	0.958616	-0.399632	0.915028	-0.054942	-0.873664	-0.398340	-0.279351
00182	9.999856	-1.581193	-1.860040	0.108184	-1.002901	0.033690	-0.286457	-0.067322	0.955725	-0.400497	0.914609	-0.055614	-0.870370	-0.398696	-0.288958
00183	9.672617	-1.552487	-1.914856	0.168334	-0.939986	0.051313	-0.294889	-0.070587	0.952921	-0.401836	0.913958	-0.056651	-0.866930	-0.399624	-0.297880
00184	9.441250	-1.163683	-1.994755	0.199494	-0.915813	0.056789	-0.303116	-0.073728	0.950097	-0.403409	0.913190	-0.057838	-0.863355	-0.400810	-0.306545
00185	9.300215	-0.802768	-2.015599	0.183903	-0.906620	0.049294	-0.311187	-0.076899	0.947232	-0.404867	0.912474	-0.058931	-0.859794	-0.401842	-0.315084
00186	9.622159	-0.360494	-1.998176	0.123699	-0.911574	0.024012	-0.319181	-0.080338	0.944283	-0.405870	0.911985	-0.059599	-0.856384	-0.402279	-0.323695
00187	10.312215	-0.163092	-1.758770	0.049222	-0.872943	-0.002743	-0.326692	-0.083856	0.941403	-0.406324	0.911771	-0.059788	-0.853331	-0.402047	-0.331941
00188	10.612847	-0.257505	-1.469269	-0.010559	-0.801815	0.000637	-0.333597	-0.087064	0.938687	-0.406248	0.911804	-0.059805	-0.850691	-0.401290	-0.339545
00189	10.721515	-0.458086	-1.317955	-0.056058	-0.716041	0.035712	-0.339886	-0.089590	0.936190	-0.405675	0.912046	-0.060001	-0.848473	-0.400182	-0.346336
00190	10.161511	-0.517418	-1.498260	-0.104482	-0.631294	0.083070	-0.345640	-0.091346	0.933911	-0.404521	0.912528	-0.060459	-0.846697	-0.398684	-0.352358
00191	9.407226	-0.608703	-2.251055	-0.149167	-0.634722	0.127167	-0.351582	-0.092691	0.931557	-0.402838	0.913225	-0.061169	-0.845051	-0.396773	-0.358413
00192	8.935926	-0.896087	-2.939447	-0.179956	-0.689881	0.134337	-0.358010	-0.094184	0.928955	-0.400859	0.914052	-0.061814	-0.843292	-0.394511	-0.364994
00193	9.020212	-1.135483	-3.440749	-0.198962	-0.744427	0.121771	-0.364827	-0.095979	0.926115	-0.398765	0.914937	-0.062265	-0.841361	-0.392018	-0.372067
00194	8.969748	-1.302404	-3.934272	-0.195015	-0.771825	0.102908	-0.371785	-0.098043	0.923127	-0.396764	0.915788	-0.062532	-0.839258	-0.389512	-0.379376
00195	8.991805	-1.159959	-4.329316	-0.182113	-0.809118	0.074007	-0.378918	-0.100488	0.919958	-0.394981	0.916556	-0.062571	-0.836906	-0.387075	-0.386991
00196	9.263985	-0.963772	-4.602831	-0.201262	-0.842013	0.046281	-0.386201	-0.103300	0.916612	-0.393138	0.917369	-0.062258	-0.834441	-0.384399	-0.394900
00197	9.202364	-1.020043	-4.418957	-0.234807	-0.864628	0.040074	-0.393621	-0.106223	0.913115	-0.391045	0.918298	-0.061743	-0.831953	-0.381373	-0.403000
00198	9.014443	-1.306904	-4.087050	-0.232691	-0.877921	0.032942	-0.401106	-0.109243	0.909494	-0.388996	0.919208	-0.061146	-0.829334	-0.378316	-0.411195
00199	9.143865	-1.548563	-3.666756	-0.191435	-0.885110	0.017808	-0.408562	-0.112396	0.905784	-0.387359	0.919937	-0.060569	-0.826457	-0.375609	-0.419389
00200	9.465456	-1.351074	-3.187443	-0.139905	-0.848399	-0.000744	-0.415622	-0.115566	0.902166	-0.386223	0.920451	-0.060022	-0.823463	-0.373383	-0.427194
00201	9.693748	-0.794339	-2.726283	-0.131236	-0.777754	-0.004671	-0.422055	-0.118486	0.898794	-0.385182	0.920923	-0.059471	-0.820673	-0.371299	-0.434319
00202	9.909413	-0.176010	-2.336289	-0.204204	-0.709178	0.008543	-0.427962	-0.121015	0.895658	-0.383487	0.921678	-0.058707	-0.818405	-0.368598	-0.440851
00203	10.313076	0.142548	-2.030605	-0.353133	-0.639549	0.028094	-0.433356	-0.123080	0.892779	-0.380496	0.922996	-0.057447	-0.816961	-0.364594	-0.446818
00204	10.734597	0.052740	-1.843757	-0.528651	-0.537781	0.037894	-0.437949	-0.124659	0.890315	-0.376029	0.924947	-0.055462	-0.816580	-0.359073	-0.451955
00205	10.954316	-0.306081	-1.985750	-0.643225	-0.449249	0.033826	-0.441802	-0.125924	0.888231	-0.370643	0.927268	-0.052898	-0.816967	-0.352587	-0.456341
00206	11.006074	-0.669221	-2.233508	-0.718549	-0.383169	0.002604	-0.444995	-0.127218	0.886451	-0.364774	0.929770	-0.049680	-0.817875	-0.345461	-0.460149
00207	10.595352	-1.036844	-2.558728	-0.726866	-0.330649	-0.029480	-0.447652	-0.128602	0.884912	-0.358974	0.932208	-0.046119	-0.818991	-0.338306	-0.463469
00208	10.321281	-1.022866	-2.706683	-0.695096	-0.286653	-0.073694	-0.449786	-0.130228	0.883591	-0.353624	0.934431	-0.042289	-0.820148	-0.331480	-0.466346
00209	10.293704	-1.086877	-2.859306	-0.678729	-0.259282	-0.098914	-0.451623	-0.131982	0.882393	-0.348517	0.936520	-0.038298	-0.821324	-0.324825	-0.468952
00210	10.368188	-1.271293	-3.124603	-0.619500	-0.223905	-0.110404	-0.453125	-0.133714	0.881361	-0.343942	0.938358	-0.034467	-0.822424	-0.318755	-0.471184
00211	10.633467	-1.222786	-3.340686	-0.537204	-0.185282	-0.137960	-0.454234	-0.135572	0.880506	-0.340165	0.939862	-0.030772	-0.823383	-0.313495	-0.473034
00212	10.798436	-1.082182	-3.364948	-0.488569	-0.136078	-0.163641	-0.454843	-0.137508	0.879892	-0.336902	0.941150	-0.027073	-0.824388	-0.308752	-0.474402
00213	10.987744	-0.967815	-3.070792	-0.481791	-0.077660	-0.178563	-0.454940	-0.139404	0.879543	-0.333757	0.942372	-0.023272	-0.825612	-0.304141	-0.475250
00214	11.206068	-0.955159	-2.697621	-0.480152	0.003049	-0.211108	-0.454252	-0.141357	0.879587	-0.330769	0.943517	-0.019190	-0.827192	-0.299657	-0.475351
00215	11.598249	-0.902789	-2.414872	-0.464187	0.135999	-0.253693	-0.452346	-0.143323	0.880251	-0.328091	0.944530	-0.014811	-0.829301	-0.295503	-0.474277
00216	12.204648	-0.546061	-2.163210	-0.428829	0.315360	-0.308501	-0.448751	-0.145281	0.881769	-0.325941	0.945336	-0.010124	-0.832097	-0.291948	-0.471573
00217	12.687925	-0.099666	-1.932882	-0.405569	0.550821	-0.363150	-0.443033	-0.147091	0.884357	-0.324196	0.945976	-0.005071	-0.835835	-0.288951	-0.466784
00218	12.900891	0.257708	-1.442200	-0.395593	0.840351	-0.418325	-0.434663	-0.148598	0.888249	-0.322739	0.946488	0.000409	-0.840778	-0.286494	-0.459361
00219	12.420242	0.415263	-0.549101	-0.394877	1.169916	-0.468093	-0.423338	-0.149664	0.893524	-0.321433	0.946911	0.006316	-0.847033	-0.284535	-0.448971
00220	11.505922	0.705365	0.200895	-0.403393	1.484767	-0.521381	-0.409054	-0.150354	0.900038	-0.320197	0.947266	0.012718	-0.854487	-0.282987	-0.435626
00221	10.561902	1.111229	0.563455	-0.483625	1.750672	-0.555228	-0.392304	-0.150652	0.907415	-0.318289	0.947788	0.019748	-0.863012	-0.281073	-0.419772
00222	9.938830	1.442558	0.759674	-0.596421	1.994463	-0.570316	-0.373203	-0.150443	0.915471	-0.315324	0.948590	0.027340	-0.872520	-0.278466	-0.401455
00223	9.657944	1.532703	0.796412	-0.694185	2.197586	-0.565490	-0.352202	-0.149701	0.923874	-0.311306	0.949658	0.035202	-0.882634	-0.275209	-0.381074
00224	9.523551	1.340477	0.622119	-0.757207	2.352177	-0.527922	-0.329693	-0.148249	0.932376	-0.306412	0.950934	0.042851	-0.892980	-0.271564	-0.358942
00225	9.748762	1.025296	0.200138	-0.792001	2.446856	-0.456441	-0.306390	-0.145970	0.940648	-0.300777	0.952392	0.049822	-0.903138	-0.267660	-0.335708
00226	10.392818	0.677432	-0.281931	-0.788026	2.512159	-0.343546	-0.282555	-0.142529	0.948603	-0.294664	0.953984	0.055567	-0.912872	-0.263819	-0.311551
00227	10.963740	0.419064	-0.975848	-0.750063	2.560986	-0.205406	-0.258518	-0.137752	0.956134	-0.288367	0.955656	0.059715	-0.921961	-0.260280	-0.286778
00228	11.120665	0.503712	-2.058164	-0.661211	2.559535	-0.055849	-0.234650	-0.131618	0.963128	-0.282415	0.957286	0.062014	-0.930151	-0.257450	-0.261798
00229	11.388341	0.820711	-3.192725	-0.626847	2.519370	0.087522	-0.211425	-0.124301	0.969458	-0.276397	0.958997	0.062681	-0.937499	-0.254703	-0.237113
00230	11.505234	1.009569	-4.242692	-0.644836	2.469719	0.222341	-0.188789	-0.115872	0.975158	-0.269921	0.960889	0.061920	-0.944193	-0.251526	-0.212682
00231	11.659973	0.933514	-4.924850	-0.709803	2.383138	0.322124	-0.167131	-0.106800	0.980133	-0.262658	0.963013	0.060147	-0.950304	-0.247387	-0.189001
00232	11.878255	0.572798	-5.411336	-0.793477	2.306857	0.394361	-0.146160	-0.097308	0.984464	-0.254516	0.965350	0.057632	-0.955960	-0.242138	-0.165862
00233	12.026174	-0.078782	-5.748761	-0.859895	2.217565	0.422403	-0.126018	-0.087896	0.988126	-0.245734	0.967790	0.054748	-0.961111	-0.235917	-0.143558
00234	11.898747	-0.739164	-5.974210	-0.824046	2.125186	0.397719	-0.106508	-0.079051	0.991164	-0.237374	0.970033	0.051858	-0.965562	-0.229753	-0.122081
00235	11.103512	-1.126612	-5.908469	-0.683309	2.045760	0.331841	-0.087553	-0.071151	0.993616	-0.230480	0.971828	0.049282	-0.969130	-0.224694	-0.101485
00236	10.482197	-1.688358	-5.303896	-0.521637	1.995121	0.264534	-0.068804	-0.064087	0.995570	-0.225254	0.973162	0.047077	-0.971868	-0.221017	-0.081393
00237	10.345527	-2.141352	-4.961079	-0.244478	2.010681	0.185996	-0.049720	-0.057814	0.997089	-0.222806	0.973807	0.045354	-0.973594	-0.219902	-0.061299
00238	10.780013	-2.411552	-4.872887	0.119878	2.036752	0.118303	-0.030168	-0.052111	0.998186	-0.223974	0.973599	0.044058	-0.974128	-0.222238	-0.041043
00239	10.517513	-1.950520	-4.567469	0.566347	2.051568	0.046479	-0.010356	-0.047003	0.998841	-0.229520	0.972337	0.043376	-0.973249	-0.228805	-0.020857
00240	9.621364	-1.043942	-3.862956	0.865303	2.031083	0.012709	0.009334	-0.042087	0.999070	-0.237984	0.970312	0.043099	-0.971224	-0.238165	-0.000959
00241	8.536895	0.149730	-2.993391	0.961231	1.996997	0.022014	0.028590	-0.036987	0.998907	-0.247354	0.967974	0.042922	-0.968503	-0.248311	0.018525
00242	7.706107	0.928155	-2.496798	0.861303	1.921274	0.070924	0.046957	-0.031395	0.998403	-0.255763	0.965809	0.042399	-0.965598	-0.257346	0.037322
00243	7.270625	1.258882	-2.354654	0.731842	1.808321	0.146448	0.063953	-0.025232	0.997634	-0.262945	0.963929	0.041235	-0.962689	-0.264960	0.055011
00244	7.290114	1.318946	-2.345499	0.648494	1.657522	0.218644	0.079264	-0.018633	0.996680	-0.269387	0.962225	0.039413	-0.959764	-0.271617	0.071250
00245	7.696478	1.115702	-2.467333	0.620421	1.502804	0.268269	0.092874	-0.011899	0.995607	-0.275609	0.960550	0.037190	-0.956773	-0.277852	0.085931
00246	8.134964	0.922505	-2.458867	0.624525	1.381210	0.284856	0.105229	-0.005243	0.994434	-0.281909	0.958807	0.034886	-0.953653	-0.284011	0.099416
00247	8.284752	0.807635	-2.471072	0.637882	1.274792	0.300610	0.116448	0.001322	0.993196	-0.288361	0.956969	0.032535	-0.950414	-0.290188	0.111818
00248	8.084989	0.922358	-2.275414	0.630966	1.177167	0.304873	0.126677	0.007727	0.991914	-0.294770	0.955091	0.030205	-0.947134	-0.296213	0.123266
00249	7.672250	1.129516	-1.985384	0.567199	1.059057	0.310349	0.135708	0.013879	0.990652	-0.300588	0.953348	0.027821	-0.944050	-0.301553	0.133549
00250	7.282043	1.172330	-1.615662	0.444773	0.935840	0.320144	0.143505	0.019805	0.989451	-0.305279	0.951929	0.025222	-0.941388	-0.305678	0.142653
00251	7.109486	1.044806	-1.379995	0.308353	0.799400	0.342187	0.149911	0.025540	0.988370	-0.308728	0.950890	0.022255	-0.939262	-0.308473	0.150434
00252	6.899401	1.160037	-1.214640	0.203419	0.654343	0.352387	0.154900	0.030945	0.987445	-0.311224	0.950146	0.019045	-0.937628	-0.310267	0.156809
00253	6.644431	1.344475	-1.093120	0.127378	0.490734	0.355838	0.158327	0.035875	0.986735	-0.313022	0.949616	0.015701	-0.936456	-0.311356	0.161580
00254	6.384046	1.445292	-1.012313	0.072846	0.326831	0.335612	0.160272	0.040108	0.986258	-0.314288	0.949246	0.012471	-0.935701	-0.311968	0.164743
00255	6.336256	1.542467	-1.015760	0.023602	0.162385	0.303509	0.160776	0.043519	0.986031	-0.315044	0.949030	0.009483	-0.935360	-0.312167	0.166291
00256	6.473093	1.547222	-1.059596	-0.054646	0.000165	0.268821	0.159866	0.046095	0.986062	-0.315011	0.949064	0.006705	-0.935527	-0.311693	0.166243
00257	6.717529	1.556803	-1.289869	-0.129873	-0.153708	0.242343	0.157604	0.047941	0.986338	-0.314228	0.949339	0.004067	-0.936174	-0.310576	0.164684
00258	7.105862	1.694183	-1.564388	-0.195089	-0.274754	0.242752	0.154202	0.049416	0.986803	-0.312825	0.949810	0.001320	-0.937210	-0.308900	0.161921
00259	7.512456	1.626621	-1.703827	-0.259860	-0.374573	0.234721	0.149897	0.050518	0.987410	-0.310792	0.950477	-0.001447	-0.938584	-0.306662	0.158174
00260	7.551057	1.288296	-1.726246	-0.272018	-0.415994	0.196994	0.145308	0.051136	0.988064	-0.308572	0.951193	-0.003848	-0.940037	-0.304329	0.153995
00261	7.257492	0.923113	-1.725802	-0.283851	-0.469614	0.188839	0.140249	0.051534	0.988774	-0.306218	0.951941	-0.006180	-0.941574	-0.301914	0.149290
00262	7.517656	-0.184902	-1.541617	-0.318085	-0.558094	0.258571	0.134126	0.052333	0.989581	-0.303617	0.952749	-0.009233	-0.943306	-0.299215	0.143678
00263	8.082469	-1.951368	-1.114194	-0.309441	-0.652298	0.390545	0.126726	0.054136	0.990459	-0.301251	0.953448	-0.013569	-0.945086	-0.296658	0.137135
00264	9.978741	-4.145193	0.647328	-0.147642	-0.697122	0.536648	0.118439	0.057203	0.991312	-0.300555	0.953573	-0.019116	-0.946382	-0.295679	0.130133
00265	12.199822	-6.142432	3.270883	0.382128	-0.511860	0.582622	0.111772	0.061255	0.991844	-0.304887	0.952075	-0.024441	-0.945807	-0.299668	0.125091
00266	12.939598	-5.108532	4.727147	1.014891	-0.292185	0.575089	0.107148	0.065853	0.992060	-0.315145	0.948602	-0.028931	-0.942975	-0.309543	0.122394
00267	13.249293	-3.166455	5.462581	1.268301	-0.264456	0.571232	0.102762	0.070448	0.992208	-0.327726	0.944193	-0.033096	-0.939167	-0.321772	0.120115
00268	12.089086	0.325664	6.015790	1.325075	-0.325561	0.338261	0.098503	0.072595	0.992485	-0.340531	0.939584	-0.034928	-0.935059	-0.334532	0.117273
00269	10.104556	3.930291	7.757919	1.043051	-0.423962	-0.019196	0.094550	0.070997	0.992985	-0.350294	0.936038	-0.033571	-0.931855	-0.344663	0.113372
00270	8.556935	6.131820	8.920133	0.601862	-0.559239	-0.230344	0.090088	0.066926	0.993683	-0.355732	0.934085	-0.030661	-0.930236	-0.350722	0.107957
00271	8.765521	4.618821	8.825387	0.023810	-0.630115	-0.121366	0.084595	0.063601	0.994384	-0.355892	0.934063	-0.029467	-0.930691	-0.351400	0.101652
00272	8.208112	1.964331	8.430410	-0.216594	-0.565111	0.105289	0.078906	0.062626	0.994913	-0.354005	0.934737	-0.030763	-0.931909	-0.349777	0.095926
00273	7.052979	0.520726	6.368482	-0.267352	-0.630955	0.249428	0.072079	0.062780	0.995421	-0.351744	0.935496	-0.033530	-0.933317	-0.347717	0.089512
00274	6.225256	0.254729	3.244003	-0.188038	-0.879822	0.178284	0.063196	0.061418	0.996109	-0.350154	0.936019	-0.035498	-0.934558	-0.346548	0.080658
00275	6.712332	0.265111	-1.358606	0.042161	-1.294705	-0.003431	0.051042	0.056913	0.997074	-0.350589	0.935857	-0.035471	-0.935137	-0.347752	0.067721
00276	10.271889	1.235069	-5.420534	0.313315	-1.511850	-0.275550	0.037837	0.049072	0.998078	-0.353440	0.934890	-0.032567	-0.934692	-0.351529	0.052718
00277	16.760213	2.025630	-4.061468	0.468439	-1.084084	-0.398206	0.029065	0.041536	0.998714	-0.357724	0.933395	-0.028409	-0.933375	-0.356439	0.041988
00278	20.049339	0.868527	-0.408038	0.831919	-0.410164	-0.339504	0.026423	0.036910	0.998969	-0.365423	0.930513	-0.024715	-0.930466	-0.364394	0.038074
00279	17.397707	-0.442659	2.064731	0.996817	-0.105446	-0.061636	0.025609	0.035968	0.999025	-0.374706	0.926839	-0.023764	-0.926790	-0.373732	0.037213
00280	11.223524	-1.529781	-0.445283	0.937033	-0.430488	0.240739	0.020667	0.036581	0.999117	-0.383469	0.923191	-0.025869	-0.923323	-0.382596	0.033107
00281	6.192209	-0.768815	-4.682155	0.868351	-0.926194	0.412376	0.010469	0.036817	0.999267	-0.391578	0.919663	-0.029782	-0.920086	-0.390979	0.024044
00282	6.006927	0.682697	-5.845498	0.665149	-1.180384	0.386926	-0.001957	0.035729	0.999360	-0.397744	0.916883	-0.033559	-0.917495	-0.397555	0.012416
00283	8.426316	0.147185	-5.349100	0.361599	-1.047348	0.194848	-0.012400	0.033348	0.999367	-0.401084	0.915352	-0.035521	-0.915957	-0.401271	0.002025
00284	9.705509	-0.274689	-5.433581	0.367618	-0.910997	0.042218	-0.020969	0.030069	0.999328	-0.404476	0.913840	-0.035984	-0.914308	-0.404959	-0.007000
00285	10.090191	0.572834	-5.455459	0.548720	-0.985488	0.052785	-0.030245	0.026551	0.999190	-0.409512	0.911570	-0.036618	-0.911803	-0.410287	-0.016697
00286	9.596099	1.673037	-5.288483	0.635305	-1.163153	0.068295	-0.041185	0.022367	0.998901	-0.415302	0.908911	-0.037475	-0.908751	-0.416389	-0.028144
00287	9.056936	2.485417	-4.797906	0.540436	-1.304921	0.048599	-0.053291	0.017357	0.998428	-0.420220	0.906618	-0.038190	-0.905856	-0.421595	-0.041020
00288	9.041896	3.340346	-3.688807	0.340586	-1.321205	-0.016638	-0.065250	0.011609	0.997801	-0.423340	0.905165	-0.038215	-0.903618	-0.424902	-0.054147
00289	9.494641	3.988310	-2.319273	-0.110052	-1.264620	0.034033	-0.076882	0.006565	0.997019	-0.422358	0.905610	-0.038532	-0.903163	-0.424061	-0.066852
00290	9.674216	2.716840	-1.688460	-0.726862	-1.209110	0.227963	-0.088846	0.003532	0.996039	-0.415620	0.908645	-0.040296	-0.905189	-0.417554	-0.079262
00291	9.948826	0.094706	-1.495721	-1.173095	-1.131871	0.429926	-0.100940	0.002800	0.994889	-0.404607	0.913450	-0.043622	-0.908903	-0.406942	-0.091070
00292	9.908920	-3.481536	-1.497815	-1.292848	-1.082023	0.593375	-0.113236	0.003882	0.993561	-0.392216	0.918605	-0.048290	-0.912877	-0.395159	-0.102496
00293	9.871954	-6.116584	-1.483572	-0.826951	-1.064933	0.397690	-0.124574	0.003392	0.992204	-0.384221	0.921810	-0.051392	-0.914798	-0.387628	-0.113530
00294	10.312858	-5.207436	-1.031591	-0.264609	-0.995616	0.143343	-0.134309	0.000861	0.990939	-0.381638	0.922818	-0.052528	-0.914502	-0.385235	-0.123614
00295	10.490251	-3.479973	-0.874506	0.138709	-0.897413	-0.014899	-0.142513	-0.002721	0.989789	-0.382960	0.922266	-0.052605	-0.912706	-0.386547	-0.132477
00296	10.326812	-1.417786	-0.771715	0.379290	-0.825637	-0.108814	-0.149700	-0.006929	0.988707	-0.386600	0.920776	-0.052082	-0.910017	-0.390031	-0.140519
00297	10.042705	-0.328589	-0.544586	0.372454	-0.792814	-0.095951	-0.156593	-0.010899	0.987603	-0.390165	0.919291	-0.051719	-0.907331	-0.393427	-0.148207
00298	9.700397	-0.388486	-0.760319	0.285798	-0.797795	-0.036000	-0.163761	-0.014378	0.986395	-0.392837	0.918146	-0.051835	-0.904910	-0.395981	-0.156005
00299	10.039071	-0.376034	-0.713834	0.193117	-0.788748	-0.012432	-0.170904	-0.017604	0.985130	-0.394636	0.917361	-0.052069	-0.902804	-0.397666	-0.163728
00300	10.333231	-0.770800	-0.943718	0.128077	-0.738826	0.004109	-0.177661	-0.020507	0.983878	-0.395807	0.916840	-0.052362	-0.900984	-0.398729	-0.171004
00301	10.086310	-0.713305	-1.306633	0.097527	-0.717676	0.007838	-0.184215	-0.023282	0.982610	-0.396703	0.916435	-0.052658	-0.899273	-0.399505	-0.178057
00302	9.667668	-0.464736	-1.646653	0.031529	-0.708477	0.014604	-0.190716	-0.025977	0.981302	-0.396982	0.916301	-0.052897	-0.897793	-0.399648	-0.185065
00303	9.436163	-0.296044	-1.930778	-0.055604	-0.738209	0.012414	-0.197450	-0.028793	0.979890	-0.396491	0.916510	-0.052963	-0.896554	-0.398975	-0.192381
00304	9.480246	-0.991272	-1.866984	-0.110918	-0.770107	-0.037798	-0.204277	-0.032205	0.978383	-0.395596	0.916928	-0.052414	-0.895419	-0.397751	-0.200048
00305	9.054760	-2.133572	-1.968691	-0.051154	-0.806491	-0.084361	-0.211221	-0.036166	0.976769	-0.395344	0.917087	-0.051535	-0.893918	-0.397045	-0.208006
00306	8.978605	-2.083581	-2.353922	0.092516	-0.833400	-0.131014	-0.218220	-0.040675	0.975052	-0.396474	0.916656	-0.050494	-0.891733	-0.397601	-0.216159
00307	9.180967	-1.527364	-2.555512	0.220534	-0.865752	-0.188206	-0.225241	-0.045830	0.973224	-0.398884	0.915681	-0.049197	-0.888908	-0.399285	-0.224530
00308	9.540264	-1.269419	-2.293204	0.313999	-0.840440	-0.235409	-0.231834	-0.051345	0.971399	-0.402231	0.914296	-0.047670	-0.885699	-0.401779	-0.232618
00309	9.448200	-1.058774	-2.119730	0.393297	-0.830312	-0.237069	-0.238277	-0.056842	0.969532	-0.406294	0.912566	-0.046350	-0.882128	-0.404959	-0.240538
00310	9.448367	-0.700732	-2.225462	0.449968	-0.893531	-0.241622	-0.245233	-0.062673	0.967436	-0.410861	0.910579	-0.045158	-0.878097	-0.408556	-0.249054
00311	9.788403	-0.333624	-2.000782	0.421924	-0.909354	-0.246279	-0.252244	-0.068626	0.965227	-0.415197	0.908672	-0.043899	-0.874062	-0.411833	-0.257700
00312	9.426603	-0.428202	-1.570988	0.383135	-0.885479	-0.225186	-0.259105	-0.074324	0.962985	-0.419137	0.906915	-0.042778	-0.870166	-0.414706	-0.266138
00313	9.347729	-0.328179	-1.499617	0.399259	-0.900850	-0.229235	-0.266021	-0.080133	0.960631	-0.423231	0.905061	-0.041705	-0.866088	-0.417664	-0.274681
00314	9.522970	-0.029680	-1.606543	0.350728	-0.910458	-0.245911	-0.272920	-0.086164	0.958170	-0.426946	0.903375	-0.040372	-0.862109	-0.420106	-0.283336
00315	10.119389	0.101442	-1.659403	0.280727	-0.870008	-0.219285	-0.279526	-0.091790	0.955740	-0.429993	0.901984	-0.039133	-0.858470	-0.421900	-0.291597
00316	10.189344	-0.107190	-1.468904	0.239966	-0.772693	-0.175646	-0.285463	-0.096632	0.953506	-0.432566	0.900792	-0.038213	-0.855218	-0.423363	-0.298943
00317	10.065122	-0.045836	-1.235695	0.230731	-0.700844	-0.102395	-0.291064	-0.100510	0.951409	-0.434856	0.899698	-0.037988	-0.852163	-0.424783	-0.305577
00318	9.943980	-0.172563	-0.920611	0.189319	-0.648594	-0.035174	-0.296500	-0.103578	0.949400	-0.436591	0.898845	-0.038286	-0.849398	-0.425851	-0.311728
00319	9.552808	-0.580799	-1.452637	0.051434	-0.672271	0.017804	-0.302341	-0.106264	0.947258	-0.436998	0.898631	-0.038670	-0.847126	-0.425642	-0.318130
00320	9.565576	-1.431104	-2.032489	-0.082935	-0.706450	0.039218	-0.308558	-0.108905	0.944951	-0.436197	0.899013	-0.038823	-0.845295	-0.424164	-0.324902
00321	9.503957	-1.921939	-2.370550	-0.096052	-0.725251	0.045370	-0.314941	-0.111551	0.942533	-0.435269	0.899456	-0.038989	-0.843418	-0.422534	-0.331830
00322	9.523750	-1.563846	-2.213392	-0.021970	-0.756083	0.048830	-0.321588	-0.114291	0.939957	-0.434949	0.899592	-0.039426	-0.841071	-0.421512	-0.339009
00323	9.549152	-0.574998	-1.868264	-0.007743	-0.796059	0.074707	-0.328659	-0.116955	0.937179	-0.434664	0.899697	-0.040155	-0.838481	-0.420556	-0.346529
00324	9.667461	0.326946	-1.398233	-0.164613	-0.823459	0.114942	-0.336118	-0.119360	0.934226	-0.432924	0.900511	-0.040706	-0.836421	-0.418131	-0.354352
00325	9.712891	0.232697	-0.758571	-0.415680	-0.846273	0.150743	-0.343902	-0.121503	0.931111	-0.428960	0.902407	-0.040677	-0.835299	-0.413398	-0.362460
00326	10.228985	-0.404303	0.014288	-0.610511	-0.857712	0.154325	-0.351783	-0.123612	0.927884	-0.423345	0.905088	-0.039925	-0.834882	-0.406860	-0.370725
00327	10.700272	-0.921000	0.558900	-0.708854	-0.824011	0.146095	-0.359336	-0.125592	0.924718	-0.416929	0.908116	-0.038677	-0.834894	-0.399440	-0.378682
00328	11.095836	-0.906014	0.455499	-0.770229	-0.787178	0.144621	-0.366562	-0.127372	0.921634	-0.409994	0.911333	-0.037119	-0.835187	-0.391471	-0.386281
00329	10.769075	-0.566943	0.262295	-0.800623	-0.750584	0.135568	-0.373442	-0.129023	0.918637	-0.402825	0.914596	-0.035300	-0.835627	-0.383232	-0.393523
00330	10.225391	0.065812	0.127337	-0.841838	-0.698699	0.108925	-0.379765	-0.130650	0.915810	-0.395399	0.917916	-0.033012	-0.836324	-0.374648	-0.400252
00331	10.116536	0.554625	-0.646497	-0.954227	-0.666512	0.065772	-0.385659	-0.132491	0.913079	-0.387182	0.921521	-0.029819	-0.837470	-0.365028	-0.406691
00332	10.391589	0.343067	-1.570125	-1.082750	-0.584874	0.013393	-0.390655	-0.134446	0.910666	-0.378075	0.925422	-0.025561	-0.839314	-0.354286	-0.412352
00333	10.438176	-0.506513	-2.407364	-1.099673	-0.457882	-0.032508	-0.394440	-0.136324	0.908753	-0.368981	0.929205	-0.020762	-0.841588	-0.343502	-0.416817
00334	10.912819	-1.327423	-3.131113	-1.035395	-0.343004	-0.076606	-0.397088	-0.138172	0.907320	-0.360581	0.932594	-0.015787	-0.843980	-0.333431	-0.420144
00335	12.104425	-1.667787	-3.906409	-0.902336	-0.216677	-0.118480	-0.398554	-0.139969	0.906401	-0.353446	0.935390	-0.010968	-0.846304	-0.324736	-0.422275
00336	13.407683	-1.233110	-4.277213	-0.779973	0.006852	-0.185297	-0.397881	-0.141652	0.906435	-0.347597	0.937625	-0.006052	-0.849039	-0.317482	-0.422301
00337	14.593321	-0.523366	-4.045247	-0.669047	0.309045	-0.250083	-0.394446	-0.143004	0.907724	-0.342916	0.939366	-0.001023	-0.852538	-0.311677	-0.419567
00338	14.847031	0.148329	-3.304086	-0.566856	0.651709	-0.312719	-0.387841	-0.143894	0.910425	-0.339319	0.940662	0.004123	-0.856996	-0.307326	-0.413653
00339	13.506671	0.506325	-2.073297	-0.420574	0.949495	-0.372771	-0.378476	-0.144472	0.914267	-0.337154	0.941405	0.009190	-0.862022	-0.304771	-0.405009
00340	12.433519	1.352552	-0.796619	-0.277853	1.227856	-0.459910	-0.366336	-0.145030	0.919110	-0.336491	0.941576	0.014458	-0.867509	-0.303976	-0.393735
00341	11.521393	2.273075	0.443059	-0.194737	1.483671	-0.536924	-0.351671	-0.145549	0.924739	-0.336746	0.941381	0.020106	-0.873458	-0.304332	-0.380070
00342	11.011168	2.817784	1.480312	-0.278894	1.718491	-0.553855	-0.334758	-0.145499	0.931003	-0.336230	0.941415	0.026229	-0.880276	-0.304251	-0.364068
00343	10.769736	2.352095	1.951346	-0.431097	1.941593	-0.502680	-0.315965	-0.144313	0.937731	-0.334079	0.941988	0.032402	-0.888008	-0.303038	-0.345848
00344	10.606203	1.695993	1.693927	-0.510979	2.144301	-0.463956	-0.295302	-0.142171	0.944767	-0.330967	0.942859	0.038435	-0.896246	-0.301337	-0.325483
00345	10.559992	1.120611	0.902560	-0.528115	2.305666	-0.423691	-0.273206	-0.139216	0.951828	-0.327444	0.943843	0.044061	-0.904510	-0.299632	-0.303449
00346	10.634534	0.784361	-0.086494	-0.483061	2.427593	-0.368149	-0.249955	-0.135397	0.958744	-0.324049	0.944774	0.048941	-0.912423	-0.298447	-0.280026
00347	11.134455	0.818263	-1.155461	-0.392599	2.524256	-0.302131	-0.225915	-0.130698	0.965339	-0.321201	0.945535	0.052847	-0.919670	-0.298129	-0.255591
00348	11.744997	1.115976	-1.894955	-0.285706	2.634209	-0.232442	-0.200857	-0.124997	0.971613	-0.319093	0.946082	0.055747	-0.926194	-0.298838	-0.229913
00349	11.953252	1.629617	-2.695872	-0.222452	2.721106	-0.168571	-0.175098	-0.118418	0.977404	-0.317376	0.946535	0.057822	-0.931994	-0.300080	-0.203319
00350	11.668877	1.983143	-3.737872	-0.275123	2.710506	-0.058220	-0.149577	-0.110792	0.982523	-0.314934	0.947286	0.058873	-0.937253	-0.300624	-0.176585
00351	11.297329	2.106090	-4.534396	-0.485601	2.601631	0.081114	-0.125440	-0.102200	0.986823	-0.310294	0.948819	0.058821	-0.942328	-0.298827	-0.150732
00352	10.945807	1.758280	-5.048245	-0.804249	2.417726	0.215703	-0.103255	-0.092954	0.990302	-0.302484	0.951403	0.057764	-0.947545	-0.293586	-0.126354
00353	11.037552	1.162932	-5.276165	-1.110416	2.276806	0.312033	-0.082606	-0.083368	0.993089	-0.291679	0.954881	0.055898	-0.952942	-0.285046	-0.103196
00354	11.196774	0.318440	-5.312257	-1.292348	2.186769	0.344206	-0.062698	-0.073924	0.995291	-0.279117	0.958758	0.053628	-0.958208	-0.274441	-0.080746
00355	10.999436	-0.824559	-5.488724	-1.266542	2.175935	0.334109	-0.042769	-0.064831	0.996979	-0.266815	0.962390	0.051136	-0.962798	-0.263822	-0.058459
00356	10.340775	-1.775879	-5.453034	-1.058540	2.146698	0.288397	-0.022831	-0.056450	0.998144	-0.256551	0.965302	0.048724	-0.966261	-0.254962	-0.036521
00357	9.675225	-2.133203	-5.048549	-0.741502	2.130101	0.240689	-0.002894	-0.048729	0.998808	-0.249388	0.967288	0.046469	-0.968399	-0.248956	-0.014951
00358	9.562747	-2.205718	-4.467410	-0.394756	2.075897	0.170478	0.016774	-0.041905	0.998981	-0.245619	0.968333	0.044743	-0.969221	-0.246119	0.005950
00359	9.653375	-1.591571	-3.897569	-0.014247	2.014042	0.073382	0.036050	-0.036202	0.998694	-0.245544	0.968388	0.043967	-0.968715	-0.246808	0.026022
00360	9.362147	-0.257677	-3.215046	0.230548	1.930792	-0.003988	0.054720	-0.031409	0.998008	-0.247820	0.967804	0.044046	-0.967259	-0.249737	0.045174
00361	8.661757	0.602847	-2.734627	0.246056	1.835704	-0.026007	0.072465	-0.027021	0.997005	-0.250227	0.967169	0.044400	-0.965472	-0.252695	0.063325
00362	7.946095	0.897643	-2.692309	0.160148	1.730829	0.029640	0.089050	-0.022306	0.995777	-0.251843	0.966759	0.044178	-0.963662	-0.254714	0.080472
00363	7.527940	1.098289	-2.724031	0.073038	1.598078	0.107970	0.104104	-0.017156	0.994418	-0.252697	0.966584	0.043130	-0.961929	-0.255776	0.096290
00364	7.523287	1.159727	-2.761125	0.038533	1.439467	0.167814	0.117473	-0.011814	0.993006	-0.253301	0.966499	0.041464	-0.960229	-0.256400	0.110545
00365	7.810884	1.066803	-2.745320	0.155300	1.297233	0.187755	0.129380	-0.006635	0.991573	-0.255069	0.966106	0.039746	-0.958228	-0.258062	0.123302
00366	7.931861	1.148364	-2.445553	0.305433	1.192764	0.173288	0.140302	-0.001835	0.990107	-0.258274	0.965309	0.038387	-0.955829	-0.261105	0.134961
00367	7.664243	1.521230	-2.038847	0.367159	1.108599	0.132026	0.150482	0.002381	0.988610	-0.262019	0.964332	0.037561	-0.953258	-0.264687	0.145738
00368	7.305593	1.928177	-1.664339	0.304023	1.015933	0.100279	0.159838	0.006078	0.987125	-0.265117	0.963506	0.036996	-0.950876	-0.267617	0.155616
00369	6.986923	1.948682	-1.375044	0.172929	0.917674	0.095999	0.168240	0.009493	0.985700	-0.266965	0.963023	0.036291	-0.948907	-0.269253	0.164553
00370	6.639619	1.797951	-1.132669	0.057717	0.831660	0.111238	0.175772	0.012828	0.984347	-0.267751	0.962843	0.035263	-0.947319	-0.269758	0.172675
00371	6.618237	1.488642	-0.981878	-0.033713	0.740434	0.138390	0.182352	0.016183	0.983100	-0.267728	0.962901	0.033809	-0.946081	-0.269369	0.179919
00372	6.460335	1.377467	-0.882171	-0.067310	0.630329	0.133019	0.187897	0.019179	0.982001	-0.267384	0.963047	0.032353	-0.945093	-0.268651	0.186082
00373	6.123205	1.411430	-0.858666	-0.059282	0.470754	0.097380	0.192025	0.021407	0.981156	-0.267058	0.963173	0.031252	-0.944355	-0.268027	0.190671
00374	5.676812	1.300946	-0.865225	-0.073476	0.253701	0.069648	0.194174	0.022773	0.980703	-0.266545	0.963343	0.030404	-0.944061	-0.267305	0.193126
00375	5.508755	1.009478	-0.940354	-0.122074	0.016389	0.065933	0.194094	0.023479	0.980702	-0.265570	0.963641	0.029489	-0.944352	-0.266168	0.193272
00376	5.601157	0.791438	-1.001880	-0.191206	-0.200958	0.076396	0.191929	0.023696	0.981123	-0.263955	0.964118	0.028350	-0.945246	-0.264414	0.191297
00377	5.942053	0.841165	-1.197281	-0.267377	-0.385210	0.097844	0.187969	0.023653	0.981890	-0.261661	0.964786	0.026851	-0.946679	-0.261970	0.187539
00378	6.557574	1.154381	-1.369240	-0.351538	-0.546484	0.116475	0.182420	0.023366	0.982943	-0.258590	0.965663	0.025035	-0.948606	-0.258746	0.182199
00379	7.335654	1.448226	-1.599303	-0.414179	-0.665089	0.115224	0.175749	0.022799	0.984171	-0.254911	0.966688	0.023127	-0.950859	-0.254941	0.175706
00380	8.346861	1.539813	-1.584001	-0.492430	-0.735423	0.116531	0.168382	0.022078	0.985475	-0.250466	0.967895	0.021112	-0.953370	-0.250383	0.168505
00381	9.130833	1.141408	-1.248142	-0.607770	-0.779079	0.139841	0.160538	0.021531	0.986795	-0.244942	0.969358	0.018698	-0.956154	-0.244709	0.160893
00382	9.853845	0.016183	-0.676048	-0.744428	-0.865380	0.245630	0.151582	0.021834	0.988204	-0.238236	0.971090	0.015087	-0.959305	-0.237713	0.152401
00383	10.902834	-1.767740	0.250945	-0.800892	-0.903752	0.451739	0.141779	0.024140	0.989604	-0.231251	0.972849	0.009400	-0.962508	-0.230180	0.143511
00384	11.957677	-4.363870	2.053650	-0.452475	-0.804895	0.651152	0.132450	0.028650	0.990775	-0.227825	0.973699	0.002300	-0.964652	-0.226028	0.135494
00385	12.737165	-6.108437	4.137726	0.197496	-0.626267	0.678496	0.124794	0.033862	0.991605	-0.230651	0.973028	-0.004200	-0.965001	-0.228190	0.129238
00386	12.309426	-4.988762	5.558851	0.701993	-0.585342	0.594326	0.117677	0.038302	0.992313	-0.238186	0.971176	-0.009240	-0.964064	-0.235267	0.123408
00387	11.149649	-2.600877	7.102274	0.984940	-0.657826	0.404959	0.110297	0.040678	0.993066	-0.248181	0.968638	-0.012112	-0.962414	-0.245125	0.116933
00388	10.096560	0.263428	8.909888	1.112505	-0.642702	0.180096	0.103590	0.040835	0.993782	-0.259115	0.965763	-0.012674	-0.960275	-0.256191	0.110624
00389	8.974427	1.509847	10.065025	1.189491	-0.615762	0.105092	0.097346	0.040261	0.994436	-0.270674	0.962590	-0.012475	-0.957737	-0.267954	0.104602
00390	8.334071	0.898542	9.769049	1.284406	-0.573515	0.098173	0.091532	0.039658	0.995012	-0.283095	0.959015	-0.012181	-0.954714	-0.280568	0.099007
