// General information: 
//  MT Manager version: 2022.2.0 
//  XDA version: 2022.2.0 build 7381 rev 124627 built on 2023-07-19
// Device information: 
//  DeviceId: 00B4CB9F
//  ProductCode: MTW2-3A7G6
//  Firmware Version: 4.6.0
//  Hardware Version: 2.0.0
// Device settings: 
//  Filter Profile: human(46.1)
//  Option Flags: Orientation Smoother Disabled, Position/Velocity Smoother Disabled, Continuous Zero Rotation Update Disabled, AHS Disabled, ICC Disabled
// Coordinate system: ENU
PacketCounter	Acc_X	Acc_Y	Acc_Z	Gyr_X	Gyr_Y	Gyr_Z	Mat[1][1]	Mat[2][1]	Mat[3][1]	Mat[1][2]	Mat[2][2]	Mat[3][2]	Mat[1][3]	Mat[2][3]	Mat[3][3]
04113	10.170311	1.437540	-0.207951	-0.106633	0.188642	0.153868	-0.027219	0.089846	0.995584	0.671498	-0.736139	0.084791	0.740506	0.670840	-0.040294
04114	10.239191	1.440673	0.369364	-0.273048	0.225162	0.131146	-0.027948	0.087377	0.995783	0.669548	-0.738055	0.083554	0.742243	0.669059	-0.037876
04115	10.601014	1.481139	1.689306	-0.480101	0.261014	0.098211	-0.029164	0.084921	0.995961	0.666044	-0.741312	0.082712	0.745342	0.665766	-0.034942
04116	10.803081	1.481078	3.131204	-0.705662	0.378609	0.030209	-0.031735	0.082191	0.996111	0.660815	-0.745989	0.082606	0.749877	0.660867	-0.030640
04117	10.702140	1.383536	4.256266	-0.866448	0.538137	-0.043341	-0.036000	0.078987	0.996225	0.654320	-0.751623	0.083238	0.755361	0.654846	-0.024624
04118	10.098964	1.155724	4.863058	-0.971645	0.663280	-0.092480	-0.041575	0.075366	0.996289	0.646954	-0.757852	0.084327	0.761395	0.648059	-0.017250
04119	10.445132	0.806266	5.984555	-1.039816	0.785356	-0.130053	-0.048346	0.071305	0.996282	0.638987	-0.764427	0.085719	0.767697	0.640755	-0.008606
04120	10.101226	0.197129	6.390479	-1.049627	0.952970	-0.125954	-0.056439	0.066199	0.996209	0.630869	-0.770999	0.086975	0.773834	0.633386	0.001752
04121	10.130502	-0.435886	7.128179	-1.013499	1.100942	-0.089570	-0.065481	0.059967	0.996050	0.622985	-0.777296	0.087753	0.779488	0.626271	0.013540
04122	10.379401	-0.991654	7.544778	-0.895605	1.293728	-0.013650	-0.075631	0.052006	0.995779	0.616012	-0.782843	0.087672	0.784098	0.620043	0.027171
04123	10.199257	-1.077364	7.438116	-0.688003	1.471622	0.057893	-0.086767	0.042469	0.995323	0.610698	-0.787090	0.086821	0.787096	0.615375	0.042358
04124	10.388369	-0.853704	7.077367	-0.456636	1.642741	0.099627	-0.099057	0.031589	0.994580	0.607231	-0.789904	0.085566	0.788326	0.612416	0.059064
04125	10.651567	-0.511372	5.658692	-0.147822	1.720222	0.131086	-0.111744	0.020030	0.993535	0.606249	-0.790812	0.084129	0.787385	0.611731	0.076225
04126	11.117083	-0.122259	4.056406	0.134290	1.725291	0.132815	-0.124448	0.008404	0.992191	0.607499	-0.789984	0.082888	0.784511	0.613070	0.093206
04127	11.557409	0.180640	1.970860	0.380216	1.619365	0.093295	-0.136478	-0.002278	0.990640	0.610640	-0.787618	0.082316	0.780059	0.616159	0.108883
04128	12.571081	1.219533	1.023161	0.623656	1.459242	-0.004147	-0.147794	-0.011281	0.988954	0.615518	-0.783735	0.083045	0.774141	0.620993	0.122775
04129	12.617021	1.609587	-0.882564	0.803172	1.369685	-0.131765	-0.159094	-0.018791	0.987085	0.621551	-0.778710	0.085355	0.767049	0.627103	0.135568
04130	12.509186	2.324613	-2.607142	1.021687	1.204520	-0.297823	-0.170104	-0.024100	0.985131	0.628897	-0.772297	0.089699	0.758652	0.634805	0.146527
04131	11.796291	2.407038	-3.314832	1.158695	1.094225	-0.458156	-0.181185	-0.027563	0.983063	0.636875	-0.764975	0.095932	0.749374	0.643470	0.156156
04132	10.840316	2.250367	-4.213148	1.266967	0.991107	-0.535616	-0.191954	-0.029925	0.980948	0.645350	-0.756885	0.103194	0.739376	0.652863	0.164599
04133	10.272250	2.146155	-5.194380	1.282466	0.927053	-0.549079	-0.202259	-0.031876	0.978813	0.653730	-0.748586	0.110706	0.729197	0.662271	0.172247
04134	10.143297	2.236718	-6.035105	1.147789	1.001185	-0.537535	-0.212999	-0.034551	0.976441	0.660971	-0.741082	0.117960	0.719548	0.670525	0.180687
04135	9.220723	2.481547	-5.416049	0.916934	1.008132	-0.587794	-0.224044	-0.036992	0.973877	0.666292	-0.735078	0.125361	0.711238	0.676972	0.189337
04136	9.617344	2.848490	-4.150056	0.640634	1.045435	-0.666825	-0.235847	-0.039204	0.970999	0.669336	-0.730947	0.133064	0.704532	0.681308	0.198632
04137	8.818891	3.243596	-3.726576	0.314050	1.094691	-0.745289	-0.248457	-0.041218	0.967766	0.669782	-0.729067	0.140903	0.699758	0.683200	0.208748
04138	8.420136	3.086749	-3.584958	0.004406	0.991117	-0.774672	-0.260508	-0.042333	0.964543	0.667885	-0.729325	0.148376	0.697184	0.682857	0.218268
04139	8.174220	2.577443	-3.455293	-0.290766	0.913878	-0.737150	-0.271719	-0.043164	0.961408	0.663943	-0.731585	0.154802	0.696670	0.680383	0.227443
04140	7.712887	2.004927	-3.071727	-0.535000	0.862878	-0.654866	-0.282010	-0.044202	0.958393	0.658444	-0.735463	0.159828	0.697798	0.676121	0.236513
04141	7.379512	1.408468	-2.766773	-0.713628	0.792426	-0.610189	-0.291480	-0.045022	0.955517	0.651753	-0.740504	0.163926	0.700184	0.670542	0.245185
04142	6.955152	0.934277	-2.611305	-0.824893	0.664991	-0.616302	-0.300082	-0.044866	0.952858	0.644186	-0.746250	0.167735	0.703544	0.664152	0.252838
04143	6.477926	0.887750	-2.489686	-0.864356	0.451827	-0.635493	-0.307272	-0.043079	0.950646	0.636205	-0.752206	0.171551	0.707691	0.657519	0.258539
04144	6.031814	1.003928	-2.461154	-0.847488	0.137133	-0.630135	-0.312169	-0.039204	0.949217	0.628282	-0.757974	0.175318	0.712609	0.651105	0.261247
04145	6.699818	1.240452	-2.001222	-0.816166	-0.157912	-0.601511	-0.314729	-0.033594	0.948587	0.620607	-0.763448	0.178872	0.718187	0.644996	0.261128
04146	7.064896	0.908781	-1.303608	-0.876268	-0.281689	-0.579879	-0.316209	-0.027328	0.948296	0.612505	-0.769212	0.182072	0.724465	0.638409	0.259970
04147	7.320089	-0.071125	-0.690249	-0.774764	-0.361808	-0.518731	-0.316669	-0.021016	0.948303	0.605278	-0.774227	0.184963	0.730315	0.632559	0.257894
04148	6.828572	-0.890737	-1.196798	-0.541532	-0.392114	-0.406203	-0.316178	-0.015377	0.948575	0.600075	-0.777681	0.187410	0.734807	0.628471	0.255113
04149	6.355218	-0.902819	-1.638041	-0.282558	-0.536432	-0.283935	-0.313860	-0.009792	0.949419	0.597150	-0.779457	0.189367	0.738176	0.626380	0.250487
04150	7.185299	-0.468642	-0.075611	-0.165650	-0.617238	-0.279413	-0.310890	-0.003735	0.950439	0.595102	-0.780478	0.191592	0.741081	0.625172	0.244866
04151	8.203070	0.249092	1.574630	-0.141607	-0.582939	-0.372924	-0.308711	0.002826	0.951152	0.592946	-0.781332	0.194771	0.743716	0.624109	0.239530
04152	9.061039	1.451896	2.551598	-0.016940	-0.557124	-0.565391	-0.307837	0.010735	0.951378	0.591128	-0.781366	0.200088	0.745523	0.623981	0.234188
04153	10.189006	2.453268	3.875553	0.151281	-0.597084	-0.822855	-0.308175	0.020897	0.951100	0.589772	-0.780259	0.208241	0.746457	0.625107	0.228131
04154	10.939644	3.123070	5.485440	0.316632	-0.572300	-1.049511	-0.310017	0.032672	0.950169	0.588943	-0.777963	0.218908	0.746349	0.627461	0.221939
04155	11.349996	3.698372	7.955764	0.518946	-0.573672	-1.123922	-0.312294	0.045015	0.948918	0.589366	-0.774229	0.230691	0.745064	0.631303	0.215257
04156	11.482445	4.793399	9.839398	0.814939	-0.435495	-1.058431	-0.315241	0.055954	0.947361	0.592153	-0.768493	0.242433	0.741605	0.637407	0.209127
04157	10.110286	5.182397	9.423765	0.897268	-0.263031	-0.902038	-0.318589	0.064554	0.945692	0.595978	-0.762169	0.252802	0.737096	0.644152	0.204346
04158	7.948102	3.593381	8.419662	0.641425	-0.228802	-0.668639	-0.320838	0.071125	0.944460	0.598607	-0.757537	0.260398	0.733984	0.648906	0.200471
04159	6.615771	2.125716	6.970681	0.333765	-0.217503	-0.444291	-0.321838	0.075909	0.943747	0.599677	-0.755010	0.265231	0.732672	0.651305	0.197470
04160	5.302167	2.058928	4.937934	0.129689	-0.340077	-0.228942	-0.320662	0.079862	0.943821	0.599939	-0.753956	0.267625	0.732973	0.652052	0.193853
04161	6.337861	3.842391	4.586731	-0.145248	-0.775762	-0.003567	-0.314918	0.084951	0.945310	0.598911	-0.754868	0.267357	0.736297	0.650351	0.186843
04162	9.782810	8.258264	6.265631	-0.739709	-1.106807	0.113740	-0.305992	0.091259	0.947650	0.593835	-0.759726	0.264909	0.744130	0.643808	0.178278
04163	13.689296	8.482603	7.901071	-1.948876	-1.286261	0.182563	-0.295184	0.098048	0.950396	0.579782	-0.772260	0.259745	0.759421	0.627695	0.171112
04164	15.174831	2.496396	8.896900	-3.177255	-1.036506	0.446591	-0.284616	0.100932	0.953314	0.556657	-0.792212	0.250067	0.780466	0.601842	0.169292
04165	13.055179	-3.136372	6.810742	-3.424395	-0.667813	0.745887	-0.275207	0.098875	0.956287	0.531716	-0.813060	0.237087	0.800961	0.573721	0.171187
04166	10.800094	-4.190084	3.590747	-2.665373	-0.469648	0.725861	-0.267573	0.095553	0.958788	0.512181	-0.828739	0.225529	0.816134	0.551418	0.172808
04167	8.850744	-3.499966	0.435544	-1.433598	-0.470706	0.353215	-0.261853	0.095179	0.960403	0.501407	-0.836867	0.219645	0.824636	0.539068	0.171413
04168	8.601107	-2.379819	-1.122367	-0.350589	-0.597207	-0.009728	-0.256917	0.098457	0.961405	0.498533	-0.838721	0.219116	0.827924	0.535587	0.166397
04169	9.776042	-1.784903	-1.803961	0.400267	-0.543096	-0.140925	-0.253058	0.102554	0.962000	0.501539	-0.836406	0.221097	0.827297	0.538431	0.160224
04170	9.764926	-1.421464	-2.901791	1.044531	-0.322592	-0.108128	-0.250888	0.105192	0.962284	0.509934	-0.830605	0.223748	0.822814	0.546837	0.154748
04171	9.693827	-0.388466	-3.013744	1.507424	-0.287771	-0.051665	-0.248728	0.107213	0.962621	0.522207	-0.822190	0.226503	0.815742	0.559025	0.148515
04172	10.450872	0.887998	-2.042113	1.607082	-0.271690	-0.022323	-0.246581	0.108919	0.962982	0.535248	-0.813057	0.229017	0.807903	0.571905	0.142185
04173	10.774738	2.046338	-0.558287	1.367683	-0.247211	0.023033	-0.244398	0.110165	0.963397	0.546358	-0.805160	0.230673	0.801100	0.582736	0.136591
04174	10.495153	2.221378	0.223029	0.944592	-0.228579	0.080020	-0.242069	0.110853	0.963906	0.554147	-0.799686	0.231133	0.796444	0.590096	0.132150
04175	9.789858	1.546445	0.332861	0.633874	-0.272139	0.074317	-0.239423	0.111879	0.964448	0.559416	-0.795987	0.231211	0.793556	0.594885	0.127991
04176	10.432172	1.592091	1.043494	0.558802	-0.317626	0.022522	-0.236716	0.113587	0.964916	0.563946	-0.792653	0.231658	0.791158	0.598998	0.123577
04177	9.975827	2.621175	0.761698	0.600021	-0.292122	-0.063036	-0.234697	0.115849	0.965141	0.568586	-0.788947	0.232965	0.788433	0.603442	0.119293
04178	9.413971	3.847233	0.788707	0.599874	-0.310882	-0.114207	-0.232837	0.118623	0.965254	0.573089	-0.785156	0.234730	0.785720	0.607831	0.114832
04179	9.181983	4.705847	1.122692	0.506510	-0.379705	-0.096192	-0.230342	0.121699	0.965470	0.576890	-0.781926	0.236197	0.783671	0.611376	0.109904
04180	8.618134	4.780199	0.890945	0.323221	-0.373845	-0.055004	-0.227669	0.124412	0.965758	0.579344	-0.779855	0.237039	0.782642	0.613472	0.105471
04181	8.513024	4.025329	0.698488	0.156098	-0.400327	0.011502	-0.224400	0.126788	0.966214	0.580640	-0.778884	0.237058	0.782625	0.614219	0.101163
04182	9.018059	3.105668	0.705011	0.014266	-0.383177	0.063270	-0.220969	0.128645	0.966759	0.580940	-0.778853	0.236424	0.783378	0.613872	0.097368
04183	9.527382	2.072491	0.436373	-0.063057	-0.322925	0.107331	-0.217746	0.129797	0.967336	0.580730	-0.779352	0.235295	0.784436	0.612996	0.094323
04184	9.610609	1.347864	0.095843	-0.037573	-0.306231	0.135449	-0.214493	0.130615	0.967953	0.580775	-0.779734	0.233913	0.785298	0.612336	0.091389
04185	9.598803	1.060312	-0.278052	0.036215	-0.340385	0.134418	-0.210969	0.131658	0.968586	0.581394	-0.779662	0.232612	0.785794	0.612204	0.087939
04186	9.480073	1.212043	-0.654981	0.126337	-0.381919	0.101116	-0.207314	0.133206	0.969163	0.582646	-0.778997	0.231703	0.785840	0.612714	0.083885
04187	9.319821	1.365503	-1.423095	0.223611	-0.460271	0.068168	-0.203231	0.135506	0.969709	0.584591	-0.777691	0.231192	0.785462	0.613869	0.078835
04188	10.081196	1.733870	-1.123593	0.216933	-0.551681	0.076196	-0.198386	0.138301	0.970317	0.586496	-0.776438	0.230579	0.785281	0.614830	0.072922
04189	10.130761	2.032575	-0.735557	0.096086	-0.534929	0.089856	-0.193587	0.140900	0.970912	0.587474	-0.775946	0.229741	0.785747	0.614861	0.067438
04190	9.830768	2.425418	-0.239570	-0.002108	-0.590258	0.104889	-0.188262	0.143712	0.971548	0.587706	-0.776084	0.228681	0.786867	0.614036	0.061647
04191	9.438936	2.899817	0.700162	-0.148905	-0.628568	0.104850	-0.182624	0.146758	0.972168	0.586775	-0.777123	0.227541	0.788888	0.611998	0.055807
04192	9.394674	2.726930	1.268377	-0.283418	-0.642691	0.073769	-0.177045	0.150106	0.972689	0.584715	-0.778939	0.226634	0.791684	0.608870	0.050138
04193	9.433271	2.060506	1.331756	-0.343147	-0.624667	0.030394	-0.171843	0.153668	0.973065	0.582094	-0.781042	0.226141	0.794756	0.605276	0.044767
04194	9.862223	1.444627	1.452614	-0.271145	-0.604664	0.008315	-0.166913	0.157252	0.973351	0.579997	-0.782669	0.225905	0.797336	0.602247	0.039432
04195	9.937467	1.353194	1.492420	-0.137490	-0.551942	0.021053	-0.162316	0.160413	0.973613	0.578981	-0.783504	0.225615	0.799021	0.600324	0.034299
04196	9.843628	1.494514	1.571984	0.007623	-0.521795	0.033088	-0.157885	0.163280	0.973864	0.579142	-0.783489	0.225253	0.799792	0.599570	0.029139
04197	10.000883	2.002981	2.250416	0.063924	-0.434236	0.005844	-0.154308	0.165844	0.974005	0.579710	-0.783091	0.225178	0.800078	0.599387	0.024696
04198	9.961072	2.229504	2.941590	0.086055	-0.319135	-0.048606	-0.151970	0.168133	0.973980	0.580371	-0.782472	0.225629	0.800047	0.599558	0.021333
04199	9.679826	2.432378	3.352736	0.080437	-0.159747	-0.088648	-0.151137	0.169791	0.973822	0.580927	-0.781815	0.226473	0.799801	0.599947	0.019525
04200	9.003337	2.616183	2.547358	0.130256	-0.103875	-0.116571	-0.150919	0.171319	0.973588	0.581838	-0.780812	0.227589	0.799180	0.600818	0.018160
04201	8.749699	2.615049	1.602662	0.156251	-0.149514	-0.122773	-0.150370	0.173182	0.973343	0.582948	-0.779636	0.228776	0.798474	0.601810	0.016278
04202	8.838233	2.198415	0.521610	0.209404	-0.204831	-0.112660	-0.149330	0.175287	0.973126	0.584496	-0.778157	0.229861	0.797537	0.603113	0.013748
04203	9.266055	1.991659	-0.221443	0.292382	-0.230485	-0.084124	-0.147916	0.177340	0.972970	0.586747	-0.776218	0.230680	0.796146	0.605009	0.010761
04204	9.438804	1.854124	-0.881797	0.351062	-0.219902	-0.055184	-0.146429	0.179094	0.972874	0.589503	-0.773970	0.231206	0.794383	0.607368	0.007755
04205	9.671472	2.109917	-1.017118	0.359235	-0.197661	-0.027159	-0.144952	0.180515	0.972833	0.592361	-0.771710	0.231457	0.792526	0.609818	0.004931
04206	9.685876	2.433001	-1.003467	0.334295	-0.196701	-0.014239	-0.143415	0.181821	0.972817	0.595032	-0.769620	0.231564	0.790803	0.612067	0.002186
04207	9.812856	2.576594	-0.614045	0.261290	-0.205994	-0.016540	-0.141816	0.183219	0.972789	0.597119	-0.767964	0.231691	0.789517	0.613728	-0.000494
04208	9.720926	2.482973	-0.702101	0.186152	-0.208983	-0.028583	-0.140273	0.184717	0.972730	0.598592	-0.766746	0.231922	0.788677	0.614801	-0.003016
04209	9.620090	2.317018	-0.790910	0.151685	-0.228899	-0.023715	-0.138541	0.186315	0.972673	0.599801	-0.765744	0.232109	0.788064	0.615567	-0.005665
04210	9.429995	2.385653	-1.035099	0.136147	-0.259514	-0.020859	-0.136557	0.188069	0.972616	0.600890	-0.764844	0.232259	0.787581	0.616152	-0.008564
04211	9.484447	2.476217	-0.977463	0.125237	-0.307192	-0.024685	-0.134216	0.190159	0.972536	0.601888	-0.764001	0.232449	0.787221	0.616556	-0.011913
04212	9.522456	2.481955	-1.070936	0.105868	-0.339679	-0.025634	-0.131632	0.192447	0.972439	0.602732	-0.763277	0.232641	0.787011	0.616743	-0.015523
04213	9.540117	2.501315	-0.922762	0.095241	-0.387432	-0.010692	-0.128577	0.194926	0.972354	0.603514	-0.762644	0.232691	0.786918	0.616747	-0.019582
04214	9.546378	2.633548	-0.639391	0.042110	-0.412073	0.007681	-0.125221	0.197406	0.972291	0.603899	-0.762378	0.232563	0.787163	0.616288	-0.023747
04215	9.259085	2.917884	-0.063829	-0.007797	-0.422800	0.011122	-0.121755	0.199933	0.972215	0.603897	-0.762423	0.232419	0.787708	0.615416	-0.027910
04216	9.417205	3.119018	0.489653	-0.078159	-0.466439	-0.000391	-0.118015	0.202801	0.972082	0.603325	-0.762881	0.232403	0.788715	0.613909	-0.032324
04217	9.304774	3.071604	0.635307	-0.154824	-0.441687	-0.005066	-0.114488	0.205555	0.971926	0.602142	-0.763796	0.232467	0.790137	0.611852	-0.036328
04218	9.271880	2.656907	0.611795	-0.163246	-0.464135	-0.001078	-0.110759	0.208396	0.971753	0.600894	-0.764769	0.232497	0.791618	0.609671	-0.040519
04219	9.391321	2.319131	0.730772	-0.135499	-0.458269	0.018974	-0.106944	0.211048	0.971608	0.599886	-0.765610	0.232332	0.792906	0.607701	-0.044728
04220	9.444745	2.233216	0.881902	-0.072216	-0.442925	0.023018	-0.103228	0.213558	0.971461	0.599381	-0.766076	0.232098	0.793780	0.606235	-0.048922
04221	9.466071	2.245245	1.290450	-0.004918	-0.416822	0.012836	-0.099771	0.215992	0.971284	0.599400	-0.766110	0.231937	0.794207	0.605328	-0.053030
04222	9.285807	2.354508	1.384689	0.067310	-0.366908	-0.000918	-0.096800	0.218216	0.971088	0.599977	-0.765680	0.231865	0.794140	0.605075	-0.056807
04223	8.731969	2.481013	0.754224	0.135923	-0.362530	-0.012051	-0.093924	0.220510	0.970852	0.601089	-0.764808	0.231863	0.793644	0.605346	-0.060713
04224	9.135985	2.361335	0.206290	0.248954	-0.440156	0.000663	-0.090367	0.223167	0.970582	0.603107	-0.763281	0.231655	0.792525	0.606299	-0.065618
04225	9.293725	2.066858	-1.039497	0.343330	-0.425031	0.064262	-0.086543	0.225266	0.970446	0.605926	-0.761318	0.230758	0.790800	0.607989	-0.070607
04226	9.593970	1.881609	-1.707221	0.434728	-0.447911	0.149841	-0.082034	0.226852	0.970468	0.609527	-0.758988	0.228941	0.788509	0.610308	-0.076009
04227	9.785335	2.070632	-1.825297	0.441466	-0.409495	0.218908	-0.077401	0.227705	0.970649	0.613221	-0.756763	0.226429	0.786110	0.612748	-0.081059
04228	10.067703	2.292869	-1.678489	0.403140	-0.393258	0.241774	-0.072765	0.228289	0.970871	0.616609	-0.754819	0.223700	0.783900	0.614925	-0.085840
04229	9.740787	2.387377	-1.514643	0.334439	-0.354706	0.225497	-0.068524	0.228781	0.971063	0.619430	-0.753251	0.221176	0.782056	0.616661	-0.090098
04230	9.744046	2.204633	-0.881019	0.301071	-0.377096	0.198732	-0.064281	0.229612	0.971157	0.621955	-0.751827	0.218922	0.780410	0.618089	-0.094480
04231	9.394939	2.474628	-0.371366	0.296218	-0.359891	0.178808	-0.060291	0.230505	0.971202	0.624419	-0.750382	0.216858	0.778759	0.619511	-0.098690
04232	9.151249	2.700879	-0.065882	0.312453	-0.334556	0.165892	-0.056587	0.231334	0.971227	0.626987	-0.748806	0.214887	0.776972	0.621107	-0.102671
04233	9.201830	2.931996	0.172221	0.341657	-0.368579	0.157356	-0.052668	0.232459	0.971179	0.629767	-0.747023	0.212959	0.774997	0.622832	-0.107051
04234	9.177753	3.167282	0.410345	0.330081	-0.346689	0.156799	-0.048933	0.233450	0.971137	0.632441	-0.745308	0.211031	0.773061	0.624513	-0.111173
04235	9.362766	3.372569	0.812328	0.306626	-0.341481	0.163463	-0.045191	0.234378	0.971095	0.634928	-0.743750	0.209054	0.771249	0.626022	-0.115203
04236	9.455320	3.439179	1.066343	0.282333	-0.262664	0.174050	-0.042000	0.234730	0.971153	0.637218	-0.742367	0.206990	0.769538	0.627530	-0.118394
04237	8.860682	3.428648	0.853705	0.260637	-0.232360	0.180366	-0.038992	0.234861	0.971246	0.639336	-0.741129	0.204883	0.767938	0.628942	-0.121257
04238	9.136316	3.110503	0.979786	0.227361	-0.228550	0.206287	-0.035861	0.234771	0.971389	0.641196	-0.740161	0.202558	0.766539	0.630114	-0.123992
04239	9.437809	2.687549	0.926986	0.223284	-0.183958	0.235632	-0.032869	0.234199	0.971633	0.643028	-0.739281	0.199946	0.765137	0.631359	-0.126297
04240	9.460047	2.551261	0.968439	0.263648	-0.135219	0.272529	-0.030024	0.233039	0.972004	0.645166	-0.738230	0.196920	0.763452	0.633017	-0.128184
04241	9.372308	2.496768	0.162240	0.334320	-0.103542	0.288991	-0.027297	0.231574	0.972434	0.647838	-0.736757	0.193636	0.761289	0.635266	-0.129912
04242	9.473045	2.304321	-0.884771	0.468016	-0.147491	0.304377	-0.024145	0.230273	0.972826	0.651510	-0.734457	0.190020	0.758256	0.638394	-0.132292
04243	9.757103	1.877836	-1.553389	0.580416	-0.193113	0.311559	-0.020577	0.229237	0.973153	0.656009	-0.731432	0.186168	0.754472	0.642228	-0.135331
04244	10.037444	1.155290	-1.358279	0.639791	-0.299429	0.334993	-0.016065	0.228721	0.973360	0.660921	-0.728055	0.181987	0.750283	0.646237	-0.139470
04245	10.634574	1.132873	0.177229	0.706062	-0.276217	0.376414	-0.011431	0.227790	0.973643	0.666293	-0.724310	0.177280	0.745602	0.650758	-0.143495
04246	10.305682	2.298701	1.559148	0.739834	-0.277978	0.444913	-0.006335	0.226391	0.974016	0.671866	-0.720466	0.171828	0.740645	0.655497	-0.147540
04247	10.737566	3.489621	2.801725	0.724770	-0.172442	0.409530	-0.002230	0.224595	0.974450	0.677272	-0.716595	0.166714	0.735729	0.660340	-0.150514
04248	10.737152	4.115949	3.478067	0.663190	-0.024042	0.385846	0.000619	0.221994	0.975048	0.682174	-0.713038	0.161908	0.731189	0.665052	-0.151880
04249	11.685753	4.287069	4.635973	0.601568	0.114462	0.410251	0.002662	0.218325	0.975872	0.686592	-0.709901	0.156949	0.727038	0.669608	-0.151790
04250	11.049570	4.297257	5.276013	0.531122	0.408660	0.447557	0.002824	0.212405	0.977178	0.690465	-0.707272	0.151741	0.723361	0.674278	-0.148655
04251	10.976235	5.227873	6.188419	0.523966	0.577834	0.402082	0.001508	0.205670	0.978620	0.694274	-0.704539	0.146999	0.719709	0.679209	-0.143854
04252	12.478365	5.538779	7.409599	0.343496	0.787335	0.285247	-0.002128	0.198295	0.980140	0.696775	-0.702750	0.143688	0.717287	0.683243	-0.136671
04253	12.567453	4.481220	7.398910	0.019413	1.135586	0.153652	-0.009132	0.189457	0.981846	0.696960	-0.702887	0.142112	0.717052	0.685606	-0.125625
04254	12.538256	2.797565	7.408549	-0.254936	1.366310	0.023095	-0.018750	0.179914	0.983504	0.695165	-0.704654	0.142156	0.718605	0.686363	-0.111857
04255	10.675601	1.001835	6.447913	-0.476686	1.679498	-0.085171	-0.031365	0.169006	0.985116	0.691750	-0.707747	0.143445	0.721456	0.685953	-0.094711
04256	9.170214	-1.612942	3.625774	-0.329158	1.729386	-0.102598	-0.044540	0.157852	0.986458	0.689366	-0.709813	0.144709	0.723043	0.686475	-0.077202
04257	9.968425	-3.998389	-0.453710	0.179642	1.543435	0.136941	-0.054670	0.146271	0.987733	0.690770	-0.708755	0.143192	0.721005	0.690124	-0.062292
04258	11.618967	-4.390192	-2.116072	0.790912	1.305805	0.466147	-0.060786	0.133901	0.989129	0.696750	-0.703894	0.138106	0.714734	0.697570	-0.050509
04259	12.736370	-3.067270	-1.401032	1.284937	1.337013	0.559324	-0.066283	0.120605	0.990485	0.706265	-0.695541	0.131954	0.704838	0.708291	-0.039076
04260	12.200091	-1.453384	-0.998038	1.608061	1.374022	0.471341	-0.072498	0.107514	0.991557	0.717860	-0.684559	0.126713	0.692402	0.720986	-0.027551
04261	11.642044	0.941100	-0.529424	1.746186	1.503434	0.299226	-0.080569	0.094562	0.992253	0.730098	-0.672120	0.123336	0.678576	0.734379	-0.014887
04262	10.516154	3.626795	-0.202547	1.725046	1.535426	0.019654	-0.090707	0.083039	0.992410	0.741733	-0.659327	0.122963	0.664533	0.747257	-0.001788
04263	10.357086	5.497543	-0.009244	1.552727	1.474567	-0.305598	-0.102624	0.073954	0.991967	0.751693	-0.647359	0.126029	0.651480	0.758589	0.010844
04264	9.739357	6.267149	-0.476810	1.164220	1.378835	-0.567111	-0.115792	0.067068	0.991007	0.758631	-0.638046	0.131822	0.641148	0.767072	0.023001
04265	10.032040	6.441465	-0.455952	0.740661	1.080438	-0.766302	-0.128443	0.063639	0.989673	0.762456	-0.631806	0.139581	0.634164	0.772510	0.032629
04266	10.285715	6.175485	-0.445345	0.219137	0.945864	-0.891861	-0.141205	0.061940	0.988041	0.762671	-0.629517	0.148461	0.631184	0.774514	0.041651
04267	10.326614	5.402775	-0.684530	-0.275800	0.837886	-0.991605	-0.153978	0.061728	0.986144	0.759504	-0.631001	0.158088	0.632016	0.773322	0.050277
04268	10.225335	3.959742	-1.366527	-0.650443	0.738662	-0.990090	-0.166131	0.062295	0.984134	0.753828	-0.635372	0.167471	0.635724	0.769689	0.058595
04269	10.349996	2.735457	-1.976262	-0.857425	0.734413	-0.886774	-0.177406	0.062343	0.982161	0.746871	-0.641360	0.175617	0.640868	0.764703	0.067219
04270	10.683371	1.699442	-2.474418	-0.953062	0.692730	-0.692612	-0.186991	0.061529	0.980433	0.739505	-0.648159	0.181717	0.646658	0.759015	0.075699
04271	11.425418	1.565815	-2.127357	-1.030978	0.703513	-0.531999	-0.195409	0.059700	0.978903	0.731830	-0.655593	0.186071	0.652871	0.752751	0.084419
04272	13.156612	1.690200	-1.560234	-1.148725	0.916361	-0.465410	-0.204784	0.055904	0.977209	0.723395	-0.663899	0.189575	0.659366	0.745730	0.095515
04273	13.666328	1.146294	-1.893395	-1.294895	1.309991	-0.536561	-0.217253	0.049793	0.974844	0.713724	-0.673184	0.193445	0.665882	0.737797	0.110713
04274	12.154947	0.255460	-2.115561	-1.283557	1.502473	-0.635606	-0.231778	0.043074	0.971815	0.703748	-0.682276	0.198085	0.671578	0.729825	0.127823
04275	10.636309	-0.126916	-1.706306	-1.146079	1.563260	-0.697210	-0.247118	0.036524	0.968297	0.694401	-0.690286	0.203255	0.675825	0.722615	0.145219
04276	9.620852	-0.183392	-1.728466	-0.982695	1.521446	-0.702934	-0.262242	0.030452	0.964521	0.685993	-0.697089	0.208522	0.678707	0.716338	0.161916
04277	9.289918	-0.241073	-1.642315	-0.864032	1.440424	-0.680829	-0.276611	0.024957	0.960658	0.678331	-0.703029	0.213582	0.680701	0.710723	0.177537
04278	9.200160	-0.117724	-1.701023	-0.753267	1.376033	-0.629745	-0.290201	0.019653	0.956764	0.671453	-0.708192	0.218209	0.681861	0.705746	0.192322
04279	9.178208	-0.017967	-1.825814	-0.679154	1.333600	-0.602973	-0.303262	0.014571	0.952796	0.665077	-0.712831	0.222587	0.682426	0.701185	0.206483
04280	9.325180	0.223450	-1.913016	-0.622045	1.242921	-0.565989	-0.315455	0.009928	0.948889	0.659121	-0.717078	0.226625	0.682677	0.696922	0.219662
04281	8.868963	0.337245	-1.949830	-0.635001	1.215715	-0.574850	-0.327461	0.005631	0.944848	0.652984	-0.721409	0.230608	0.682921	0.692486	0.232556
04282	8.598281	0.157039	-1.920525	-0.665271	1.213648	-0.599348	-0.339603	0.001592	0.940567	0.646483	-0.725947	0.234649	0.683176	0.687749	0.245505
04283	7.784850	-0.019320	-2.026332	-0.702131	1.201319	-0.622397	-0.351750	-0.002092	0.936092	0.639582	-0.730724	0.238699	0.683526	0.682670	0.258370
04284	7.292974	-0.410772	-1.854436	-0.709908	1.123357	-0.614730	-0.363295	-0.005225	0.931659	0.632574	-0.735543	0.242543	0.684008	0.677458	0.270525
04285	6.818585	-0.538096	-1.583855	-0.663447	1.004266	-0.568083	-0.373677	-0.007800	0.927526	0.625990	-0.740023	0.245973	0.684472	0.672536	0.281413
04286	6.437447	-0.549326	-1.313457	-0.621245	0.849031	-0.500453	-0.382560	-0.009777	0.923879	0.619889	-0.744199	0.248808	0.685117	0.667886	0.290761
04287	6.198574	-0.356007	-0.792929	-0.577751	0.737839	-0.462733	-0.390409	-0.011224	0.920573	0.614190	-0.748059	0.251353	0.685822	0.663537	0.298942
04288	6.138384	-0.232227	-0.652692	-0.561920	0.668700	-0.426167	-0.397551	-0.012452	0.917495	0.608702	-0.751795	0.253548	0.686611	0.659280	0.306456
04289	5.510399	-0.403441	-0.855878	-0.499526	0.574412	-0.411668	-0.403929	-0.013115	0.914696	0.603671	-0.755096	0.255754	0.687330	0.655483	0.312922
04290	5.245287	-0.342117	-0.471861	-0.405385	0.443271	-0.377272	-0.409192	-0.013160	0.912353	0.599398	-0.757766	0.257900	0.687956	0.652394	0.317960
04291	5.179609	-0.090412	-0.246405	-0.255529	0.322180	-0.351522	-0.413446	-0.012582	0.910442	0.596245	-0.759442	0.260270	0.688152	0.650454	0.321490
04292	5.240262	0.366700	-0.123592	-0.126613	0.171067	-0.322311	-0.416485	-0.011246	0.909073	0.594086	-0.760272	0.262771	0.688188	0.649507	0.323323
04293	5.516824	0.757452	-0.277758	-0.058104	-0.071556	-0.295643	-0.417683	-0.008522	0.908553	0.592504	-0.760645	0.265253	0.688825	0.649113	0.322758
04294	6.153147	1.119217	-0.330209	-0.026091	-0.350147	-0.268709	-0.416801	-0.004206	0.908988	0.591252	-0.760800	0.267588	0.690433	0.648972	0.319589
04295	6.917708	1.397868	-0.073602	0.016973	-0.574668	-0.199102	-0.413939	0.001049	0.910304	0.590594	-0.760660	0.269435	0.692714	0.649150	0.314247
04296	8.210581	2.196685	1.223030	0.072148	-0.751856	-0.099028	-0.409246	0.006685	0.912400	0.590738	-0.760157	0.270538	0.695375	0.649705	0.307141
04297	8.999751	5.038503	2.454402	0.251039	-0.853558	-0.079827	-0.403710	0.012856	0.914797	0.592213	-0.758482	0.272009	0.697354	0.651567	0.298593
04298	12.009303	9.338706	8.378096	0.398798	-1.148235	-0.292928	-0.397366	0.022574	0.917382	0.593875	-0.755795	0.275836	0.699580	0.654419	0.286921
04299	14.692904	10.874018	11.962637	0.150841	-0.725879	-0.588202	-0.395706	0.031781	0.917827	0.592651	-0.754615	0.281641	0.701557	0.655398	0.279771
04300	12.715906	7.127989	11.259611	-0.106124	-0.318207	-0.549474	-0.396665	0.038016	0.917176	0.589776	-0.755088	0.286367	0.703435	0.654520	0.277096
04301	10.440442	2.227524	11.046388	-0.214817	-0.239105	-0.187614	-0.396021	0.041008	0.917326	0.587571	-0.756386	0.287474	0.705641	0.652839	0.275449
04302	9.478150	-0.644642	10.841243	-0.437514	-0.170380	0.237126	-0.393376	0.040319	0.918493	0.585459	-0.759303	0.284073	0.708868	0.649488	0.275086
04303	9.976047	0.431219	11.929999	-0.612895	0.045283	0.430902	-0.391116	0.036756	0.919607	0.582845	-0.763403	0.278401	0.712264	0.644876	0.277156
04304	9.157815	1.482023	10.399526	-0.658535	0.385606	0.343658	-0.391824	0.031639	0.919496	0.579539	-0.767725	0.273375	0.714569	0.639998	0.282477
04305	7.000112	2.263614	7.591440	-0.469183	0.381573	0.128372	-0.393746	0.028225	0.918786	0.576739	-0.770726	0.270839	0.715777	0.636541	0.287191
04306	4.413609	2.286826	3.351350	-0.511776	0.198905	-0.008885	-0.395181	0.027018	0.918206	0.573081	-0.773946	0.269418	0.717921	0.632675	0.290365
04307	1.941680	1.154514	-2.998420	-0.419537	-0.393193	-0.027676	-0.392444	0.029723	0.919296	0.570004	-0.776554	0.268440	0.721861	0.629349	0.287812
04308	5.668208	2.404763	-2.114600	-0.198477	-1.394784	0.063387	-0.381926	0.037982	0.923412	0.568855	-0.777797	0.267273	0.728379	0.627367	0.275455
04309	11.711780	5.229515	2.724438	-0.424949	-1.569791	0.104837	-0.369767	0.046991	0.927936	0.566189	-0.780469	0.265140	0.736684	0.623426	0.261986
04310	13.889027	3.870446	4.118548	-0.747005	-1.167212	0.094493	-0.360542	0.053479	0.931209	0.561045	-0.785125	0.262313	0.745143	0.617025	0.253066
04311	15.032844	1.235302	3.808659	-0.571222	-0.972647	0.182500	-0.352175	0.058028	0.934133	0.557472	-0.788707	0.259165	0.751796	0.612025	0.245414
04312	15.670923	0.768292	2.943807	-0.392531	-0.629052	0.241828	-0.346042	0.059943	0.936302	0.555403	-0.791221	0.255923	0.756163	0.608585	0.240503
04313	13.809195	-1.087941	0.780411	-0.331416	-0.485241	0.196530	-0.341208	0.061339	0.937984	0.553618	-0.793323	0.253267	0.759660	0.605702	0.236730
04314	11.373874	-2.766708	1.189199	-0.196785	-0.469268	0.058735	-0.337263	0.063695	0.939253	0.552368	-0.794527	0.252223	0.762328	0.603879	0.232782
04315	8.639897	-3.365072	-0.262869	0.229090	-0.537729	-0.092117	-0.333606	0.067684	0.940280	0.553858	-0.793053	0.253592	0.762856	0.605381	0.227079
04316	7.777250	-2.405858	-2.006757	1.015978	-0.795184	-0.099498	-0.328053	0.073296	0.941811	0.561312	-0.786772	0.256747	0.759809	0.612877	0.216961
04317	8.853908	0.693575	-2.245782	1.605950	-0.834405	-0.124091	-0.322377	0.079438	0.943272	0.573111	-0.776709	0.261280	0.753404	0.624830	0.204867
04318	9.400065	3.237468	-2.931455	1.784980	-0.725077	-0.228884	-0.318212	0.085765	0.944132	0.585803	-0.765226	0.266953	0.745370	0.638023	0.193263
04319	9.570391	4.282445	-2.856875	1.700623	-0.702165	-0.312505	-0.314788	0.092672	0.944627	0.597474	-0.753962	0.273069	0.737519	0.650349	0.181969
04320	10.045245	4.632725	-1.946338	1.531259	-0.697918	-0.275056	-0.311263	0.099298	0.945122	0.607900	-0.743632	0.278332	0.730461	0.661174	0.171101
04321	10.292095	4.848837	-1.242400	1.278200	-0.640300	-0.137904	-0.307382	0.104592	0.945821	0.616823	-0.734953	0.281735	0.724601	0.670004	0.161397
04322	10.050020	4.672190	-0.561620	0.946133	-0.586601	0.016666	-0.302979	0.108414	0.946811	0.623757	-0.728576	0.283027	0.720507	0.676331	0.153119
04323	9.164728	4.612161	0.080168	0.628124	-0.556123	0.110123	-0.298222	0.111399	0.947974	0.628655	-0.724405	0.282895	0.718231	0.680314	0.146002
04324	8.553401	4.438472	0.397661	0.359624	-0.625047	0.158111	-0.292676	0.114512	0.949330	0.631752	-0.722107	0.281870	0.717796	0.682238	0.139000
04325	8.134646	4.111937	0.500714	0.088339	-0.704195	0.175390	-0.286440	0.118064	0.950796	0.632942	-0.721678	0.280295	0.719261	0.682087	0.131990
04326	8.385452	3.670430	0.766183	-0.144281	-0.792309	0.165068	-0.279623	0.122267	0.952293	0.632416	-0.722832	0.278503	0.722400	0.680121	0.124796
04327	9.151301	3.071907	1.179902	-0.319641	-0.826265	0.150858	-0.272616	0.126795	0.953731	0.630564	-0.725158	0.276648	0.726684	0.676808	0.117738
04328	9.315921	2.368913	1.326766	-0.414547	-0.796645	0.134907	-0.265898	0.131190	0.955033	0.627952	-0.728103	0.274850	0.731420	0.672796	0.111220
04329	9.358496	2.254313	1.772047	-0.363350	-0.765668	0.119865	-0.259462	0.135466	0.956205	0.625649	-0.730671	0.273282	0.735692	0.669155	0.104827
04330	9.310464	2.594949	2.180289	-0.299786	-0.712709	0.085219	-0.253611	0.139599	0.957180	0.623703	-0.732764	0.272124	0.739376	0.666009	0.098769
04331	9.173242	2.602176	1.886301	-0.240090	-0.676084	0.047805	-0.248236	0.143754	0.957974	0.622091	-0.734399	0.271405	0.742550	0.663320	0.092876
04332	9.025802	2.338741	1.412863	-0.146934	-0.659729	0.015845	-0.243169	0.148005	0.958626	0.621083	-0.735370	0.271083	0.745067	0.661305	0.086896
04333	9.316274	1.934879	1.165276	-0.014582	-0.659461	-0.023817	-0.238330	0.152550	0.959128	0.620965	-0.735402	0.271267	0.746727	0.660236	0.080540
04334	9.520665	1.745579	0.893559	0.105603	-0.597120	-0.049642	-0.234116	0.156853	0.959472	0.621682	-0.734604	0.271786	0.747463	0.660116	0.074469
04335	9.593918	1.926619	0.802341	0.218675	-0.564178	-0.056568	-0.230183	0.161007	0.959736	0.623233	-0.733042	0.272453	0.747393	0.660853	0.068389
04336	9.797860	2.352074	0.813328	0.257650	-0.497025	-0.049164	-0.226714	0.164651	0.959943	0.625091	-0.731234	0.273053	0.746901	0.661957	0.062859
04337	9.791238	2.749851	0.615484	0.252505	-0.430154	-0.041926	-0.223697	0.167819	0.960102	0.626929	-0.729463	0.273575	0.746271	0.663114	0.057968
04338	9.646342	3.008519	0.318041	0.235231	-0.393412	-0.053134	-0.221033	0.170814	0.960191	0.628611	-0.727789	0.274175	0.745649	0.664189	0.053490
04339	9.415427	3.103076	0.163565	0.219571	-0.396451	-0.071210	-0.218458	0.173979	0.960212	0.630138	-0.726178	0.274938	0.745119	0.665129	0.049008
04340	9.149848	3.234254	0.070183	0.204410	-0.412254	-0.093081	-0.215912	0.177395	0.960163	0.631504	-0.724631	0.275886	0.744705	0.665913	0.044431
04341	9.717395	3.307523	-0.190841	0.194687	-0.462342	-0.092389	-0.212985	0.181157	0.960114	0.632802	-0.723141	0.276821	0.744446	0.666521	0.039381
04342	9.349639	3.132088	-0.880461	0.162051	-0.417500	-0.083732	-0.210345	0.184544	0.960051	0.633876	-0.721884	0.277644	0.744283	0.666954	0.034867
04343	9.529550	2.970442	-0.926497	0.164525	-0.482709	-0.062335	-0.207079	0.188227	0.960046	0.635016	-0.720642	0.278261	0.744226	0.667267	0.029703
04344	9.420433	2.889568	-0.989997	0.111236	-0.453390	-0.018368	-0.203758	0.191384	0.960133	0.635851	-0.719842	0.278426	0.744430	0.667233	0.024982
04345	9.469295	3.048921	-1.025447	0.100148	-0.480292	0.008658	-0.200058	0.194539	0.960277	0.636661	-0.719163	0.278331	0.744741	0.667053	0.020019
04346	9.385438	3.155228	-1.179303	0.075332	-0.483011	0.019161	-0.196274	0.197623	0.960428	0.637305	-0.718674	0.278118	0.745198	0.666673	0.015111
04347	9.406010	3.226396	-1.131711	0.045777	-0.520099	0.029951	-0.192137	0.200886	0.960587	0.637750	-0.718402	0.277801	0.745894	0.665990	0.009916
04348	9.549521	3.334424	-0.919928	-0.013375	-0.559313	0.038340	-0.187652	0.204334	0.960747	0.637768	-0.718545	0.277390	0.747020	0.664786	0.004519
04349	9.431646	3.247173	-0.696528	-0.098503	-0.574830	0.052186	-0.182952	0.207787	0.960913	0.637173	-0.719280	0.276851	0.748691	0.662918	-0.000803
04350	9.193471	3.217618	-0.041688	-0.185410	-0.601380	0.079240	-0.177873	0.211198	0.961123	0.635971	-0.720649	0.276054	0.750934	0.660348	-0.006132
04351	9.265900	3.130156	0.550416	-0.260442	-0.625498	0.091276	-0.172518	0.214672	0.961329	0.634217	-0.722533	0.275163	0.753662	0.657162	-0.011498
04352	9.273477	3.109146	1.137404	-0.328448	-0.581308	0.074093	-0.167595	0.217948	0.961463	0.631907	-0.724823	0.274454	0.756707	0.653552	-0.016246
04353	9.211942	3.054554	1.473437	-0.317253	-0.533498	0.035611	-0.163256	0.221179	0.961472	0.629606	-0.726944	0.274133	0.759568	0.650102	-0.020577
04354	8.950937	2.780900	1.454402	-0.269828	-0.499577	0.013410	-0.159307	0.224322	0.961406	0.627619	-0.728702	0.274023	0.762047	0.647050	-0.024701
04355	8.896550	2.599373	1.261039	-0.170509	-0.469859	0.009955	-0.155590	0.227296	0.961316	0.626379	-0.729800	0.273936	0.763833	0.644770	-0.028823
04356	8.976323	2.476065	1.085514	-0.028766	-0.458020	0.017982	-0.151915	0.230114	0.961233	0.626230	-0.730005	0.273730	0.764694	0.643537	-0.033206
04357	9.131421	2.438718	1.016643	0.087171	-0.422702	0.042281	-0.148348	0.232536	0.961207	0.627006	-0.729518	0.273254	0.764759	0.643219	-0.037579
04358	9.286799	2.514749	1.015433	0.184994	-0.380870	0.076064	-0.144896	0.234431	0.961274	0.628574	-0.728484	0.272407	0.764133	0.643703	-0.041803
04359	9.407759	2.804914	1.105757	0.237076	-0.323642	0.096262	-0.141750	0.235827	0.961401	0.630568	-0.727158	0.271340	0.763080	0.644691	-0.045631
04360	9.226671	2.823817	0.445679	0.269258	-0.293725	0.099925	-0.138818	0.236995	0.961542	0.632803	-0.725636	0.270208	0.761768	0.645976	-0.049240
04361	9.145337	2.758541	-0.217789	0.308672	-0.292073	0.103754	-0.135868	0.238144	0.961680	0.635339	-0.723862	0.269014	0.760187	0.647543	-0.052952
04362	9.125214	2.634649	-1.185649	0.383279	-0.328820	0.125100	-0.132514	0.239370	0.961843	0.638459	-0.721654	0.267556	0.758163	0.649552	-0.057199
04363	9.213879	2.452029	-2.358336	0.484451	-0.372213	0.171232	-0.128531	0.240572	0.962084	0.642393	-0.718887	0.265581	0.755521	0.652171	-0.062142
04364	9.409206	2.115152	-2.982387	0.537498	-0.435484	0.248058	-0.123587	0.241638	0.962464	0.646800	-0.715950	0.262801	0.752579	0.655001	-0.067809
04365	10.096311	2.078987	-2.559164	0.534698	-0.454471	0.320667	-0.118022	0.242342	0.962985	0.651247	-0.713192	0.259296	0.749632	0.657744	-0.073652
04366	9.504632	2.287281	-2.527818	0.546183	-0.451665	0.351617	-0.112282	0.242818	0.963552	0.655780	-0.710423	0.255446	0.746556	0.660560	-0.079467
04367	9.810363	2.861954	-1.488785	0.502218	-0.507573	0.348012	-0.106141	0.243722	0.964020	0.659945	-0.707921	0.251637	0.743779	0.662909	-0.085703
04368	9.536087	3.039937	-0.905175	0.409912	-0.526501	0.316469	-0.100073	0.244981	0.964349	0.663356	-0.705951	0.248176	0.741582	0.664543	-0.091863
04369	9.468697	3.289018	-0.118273	0.332483	-0.532422	0.274255	-0.094237	0.246602	0.964524	0.666128	-0.704389	0.245175	0.739860	0.665601	-0.097889
04370	9.154009	3.432091	0.302102	0.261041	-0.554985	0.247104	-0.088422	0.248561	0.964572	0.668323	-0.703240	0.242483	0.738597	0.666087	-0.103937
04371	9.054844	3.562623	0.861684	0.187872	-0.574006	0.220243	-0.082641	0.250850	0.964492	0.669940	-0.702513	0.240116	0.737801	0.665995	-0.109997
04372	9.529075	3.390072	1.447562	0.161808	-0.544192	0.213184	-0.077137	0.252979	0.964392	0.671343	-0.701950	0.237833	0.737122	0.665783	-0.115689
04373	9.379088	3.428085	1.938670	0.191526	-0.460533	0.222078	-0.072182	0.254501	0.964375	0.672960	-0.701214	0.235423	0.736148	0.665979	-0.120654
04374	9.805268	3.232152	2.452831	0.247724	-0.346107	0.229607	-0.068030	0.255201	0.964492	0.674981	-0.700126	0.232860	0.734692	0.666856	-0.124626
04375	9.574466	2.802357	2.691455	0.349088	-0.209676	0.271657	-0.064585	0.254715	0.964857	0.677763	-0.698462	0.229757	0.732439	0.668783	-0.127526
04376	9.429357	2.198680	2.837896	0.455388	-0.082369	0.346068	-0.061575	0.252854	0.965543	0.681347	-0.696266	0.225788	0.729366	0.671773	-0.129409
04377	9.469938	1.629978	3.174018	0.584990	0.035043	0.413027	-0.058937	0.249763	0.966512	0.685890	-0.693336	0.220995	0.725314	0.675946	-0.130447
04378	9.661143	1.791267	3.915865	0.742695	0.197063	0.451562	-0.057198	0.245302	0.967758	0.691556	-0.689391	0.215617	0.720054	0.681592	-0.130208
04379	9.377414	2.297381	4.071159	0.890266	0.333766	0.457647	-0.056342	0.239887	0.969164	0.698237	-0.684376	0.209988	0.713646	0.688538	-0.128939
04380	9.422943	2.863998	3.708569	1.025215	0.318835	0.467734	-0.055272	0.234489	0.970546	0.705812	-0.678363	0.204091	0.706240	0.696303	-0.128010
04381	10.211291	3.331774	3.796310	1.072258	0.268796	0.439973	-0.053968	0.229653	0.971775	0.713621	-0.671848	0.198405	0.698450	0.704187	-0.127627
04382	10.373192	4.204204	3.858248	1.086850	0.281102	0.400511	-0.053001	0.224980	0.972921	0.721417	-0.665038	0.193085	0.690470	0.712115	-0.127056
04383	10.403246	5.749668	4.209085	1.007750	0.310489	0.325499	-0.052705	0.220622	0.973934	0.728547	-0.658521	0.188598	0.682965	0.719497	-0.126026
04384	10.748533	6.572605	4.619946	0.785279	0.388307	0.236557	-0.053576	0.216259	0.974865	0.734044	-0.653339	0.185275	0.676985	0.725520	-0.123740
04385	10.971541	6.122864	4.947633	0.477930	0.573002	0.159513	-0.056203	0.211069	0.975854	0.737395	-0.650172	0.183096	0.673119	0.729881	-0.119100
04386	10.799455	5.360401	5.551066	0.199068	0.812030	0.106695	-0.060840	0.204431	0.976989	0.738826	-0.648913	0.181791	0.671144	0.732885	-0.111559
04387	10.565835	4.165536	5.422691	0.020596	1.086237	0.065122	-0.067576	0.196054	0.978262	0.739043	-0.648861	0.181091	0.670260	0.735215	-0.101045
04388	10.733708	1.928954	4.613363	-0.064447	1.289070	0.120876	-0.075294	0.185770	0.979704	0.738728	-0.649541	0.179939	0.669785	0.737283	-0.088327
04389	10.688878	-0.378331	3.018213	-0.083510	1.454634	0.254069	-0.083088	0.173398	0.981341	0.738408	-0.650582	0.177474	0.669216	0.739376	-0.073983
04390	10.796971	-1.794782	1.560207	0.100691	1.491602	0.374497	-0.090264	0.159897	0.982998	0.739436	-0.650433	0.173700	0.667149	0.742543	-0.059523
04391	10.719371	-2.013902	-0.228501	0.439861	1.528580	0.475445	-0.096834	0.145441	0.984617	0.742842	-0.647849	0.168752	0.662426	0.747756	-0.045306
04392	11.654460	-1.007510	-0.841845	0.828802	1.415388	0.579373	-0.101809	0.131053	0.986134	0.748908	-0.642393	0.162689	0.654807	0.755087	-0.032745
04393	13.222131	0.489648	-0.669388	1.143890	1.361806	0.578538	-0.106234	0.117036	0.987429	0.756980	-0.634387	0.156633	0.644744	0.764104	-0.021201
04394	13.140933	2.145796	-0.974683	1.317959	1.478034	0.461275	-0.112138	0.102751	0.988366	0.765936	-0.624727	0.151848	0.633062	0.774053	-0.008645
04395	12.331130	4.644170	-1.623536	1.420242	1.330221	0.215089	-0.118752	0.091078	0.988738	0.775123	-0.613834	0.149640	0.620549	0.784164	0.002297
04396	11.625281	6.905185	-1.795025	1.219047	1.244214	-0.145970	-0.127515	0.082147	0.988429	0.782472	-0.604063	0.151148	0.609489	0.792692	0.012750
04397	10.958652	8.170202	-1.812873	0.884667	0.998764	-0.498088	-0.137404	0.077214	0.987501	0.787204	-0.596588	0.156182	0.601191	0.798825	0.021190
04398	11.174580	8.309907	-1.303428	0.376806	0.827734	-0.766802	-0.148381	0.075147	0.986071	0.788395	-0.592954	0.163824	0.597006	0.801722	0.028738
04399	11.158793	7.381829	-1.530152	-0.163398	0.716044	-0.919108	-0.159827	0.074886	0.984300	0.786040	-0.593536	0.172791	0.597157	0.801316	0.036000
04400	10.897282	5.814612	-1.554276	-0.713383	0.665479	-0.965215	-0.171355	0.075319	0.982326	0.780195	-0.598479	0.181984	0.601609	0.797590	0.043789
04401	10.226228	3.958999	-1.922455	-1.161267	0.619897	-0.907328	-0.182083	0.075889	0.980350	0.771597	-0.606980	0.190297	0.609494	0.791086	0.051965
04402	9.812046	2.486581	-2.260439	-1.370603	0.546565	-0.779882	-0.191401	0.076363	0.978537	0.761752	-0.617141	0.197158	0.618950	0.783139	0.059952
04403	9.497085	1.230652	-2.494473	-1.445116	0.487885	-0.619807	-0.199069	0.076445	0.976999	0.751565	-0.627885	0.202264	0.628905	0.774543	0.067539
04404	10.067925	1.060715	-1.890877	-1.434674	0.440111	-0.462935	-0.205292	0.075990	0.975746	0.741567	-0.638549	0.205751	0.638696	0.765821	0.074738
04405	10.425343	1.537543	-1.363537	-1.511838	0.499634	-0.384476	-0.211273	0.074685	0.974569	0.731075	-0.649730	0.208278	0.648762	0.756487	0.082671
04406	11.478297	1.908321	-1.205716	-1.623040	0.533132	-0.382696	-0.217512	0.073191	0.973310	0.719672	-0.661610	0.210581	0.659364	0.746268	0.091235
04407	13.051124	1.710166	-1.097446	-1.731527	0.674055	-0.456331	-0.225182	0.071265	0.971707	0.707193	-0.674071	0.213320	0.670202	0.735220	0.101391
04408	13.698504	1.026374	-1.129712	-1.819394	1.084893	-0.598417	-0.236673	0.067425	0.969247	0.693559	-0.686896	0.217138	0.680413	0.723621	0.115807
04409	11.681247	-0.022242	-1.379405	-1.829800	1.478159	-0.697079	-0.251515	0.061664	0.965887	0.679370	-0.699546	0.221567	0.689345	0.711922	0.134054
04410	9.710091	-0.613190	-1.251925	-1.714658	1.514678	-0.699763	-0.266690	0.055901	0.962160	0.665709	-0.711216	0.225841	0.696928	0.700748	0.152460
04411	8.742897	-1.014172	-1.010433	-1.563580	1.478095	-0.660971	-0.281329	0.050370	0.958288	0.652998	-0.721706	0.229638	0.703170	0.690364	0.170146
04412	8.350143	-1.160197	-0.972221	-1.401370	1.409307	-0.608863	-0.295181	0.045127	0.954375	0.641393	-0.730994	0.232943	0.708155	0.680890	0.186831
04413	8.104278	-0.809030	-0.958389	-1.234833	1.305827	-0.534875	-0.307790	0.040236	0.950603	0.631060	-0.739088	0.235610	0.712060	0.672406	0.202093
04414	8.209193	-0.552347	-0.920845	-1.129884	1.207041	-0.475208	-0.319343	0.035693	0.946967	0.621548	-0.746431	0.237737	0.715331	0.664504	0.216183
04415	8.382915	-0.451623	-1.176798	-1.075111	1.163745	-0.424163	-0.330235	0.031196	0.943383	0.612513	-0.753360	0.239325	0.718173	0.656868	0.229678
04416	8.293223	-0.599507	-1.451324	-1.055027	1.124582	-0.384039	-0.340621	0.026753	0.939820	0.603678	-0.760110	0.240429	0.720799	0.649244	0.242759
04417	8.157567	-0.847991	-1.462855	-0.978263	1.080456	-0.312673	-0.350229	0.022173	0.936402	0.595586	-0.766317	0.240905	0.722922	0.642080	0.255181
04418	7.801225	-0.568549	-1.375650	-0.878644	1.006771	-0.232781	-0.358848	0.017526	0.933231	0.588448	-0.771856	0.240766	0.724539	0.635556	0.266666
04419	7.417423	-0.366702	-1.230188	-0.806896	0.963693	-0.179482	-0.366822	0.012829	0.930203	0.581996	-0.776900	0.240222	0.725756	0.629493	0.277518
04420	6.767424	-0.268911	-1.333632	-0.689272	0.933436	-0.170438	-0.374537	0.008298	0.927175	0.576407	-0.781175	0.239834	0.726276	0.624257	0.287796
04421	6.571860	-0.231743	-0.849846	-0.566337	0.893128	-0.171304	-0.381941	0.004091	0.924177	0.571698	-0.784655	0.239743	0.726142	0.619919	0.297354
04422	6.559413	-0.261690	-0.664139	-0.425493	0.787269	-0.143743	-0.388423	0.000346	0.921481	0.568105	-0.787255	0.239764	0.725523	0.616628	0.305592
04423	6.372493	-0.406812	-0.717869	-0.237028	0.698206	-0.122500	-0.394114	-0.002980	0.919057	0.565960	-0.788684	0.240140	0.724129	0.614792	0.312518
04424	6.512236	-0.412863	-0.561707	-0.030165	0.536410	-0.088727	-0.398441	-0.005585	0.917177	0.565440	-0.788845	0.240836	0.722165	0.614567	0.317466
04425	6.687696	-0.260711	-0.483073	0.165170	0.409359	-0.080019	-0.401780	-0.007465	0.915706	0.566363	-0.787802	0.242078	0.719587	0.615884	0.320751
04426	6.739295	-0.094025	-0.714004	0.343497	0.280728	-0.095221	-0.404279	-0.008456	0.914596	0.568496	-0.785660	0.244029	0.716499	0.618600	0.322433
04427	6.941972	0.456825	-0.805236	0.516987	0.097449	-0.144648	-0.405736	-0.007918	0.913956	0.571658	-0.782431	0.247000	0.713152	0.622687	0.321987
04428	7.116256	1.015024	-0.505002	0.653685	-0.081039	-0.216167	-0.406340	-0.005730	0.913704	0.575482	-0.778330	0.251046	0.709724	0.627830	0.319564
04429	7.702115	1.248567	0.407051	0.712169	-0.225867	-0.282045	-0.406305	-0.002108	0.913735	0.579430	-0.773817	0.255867	0.706524	0.633406	0.315627
04430	8.258532	0.992378	1.564751	0.774972	-0.249083	-0.282528	-0.406132	0.001653	0.913813	0.583796	-0.768856	0.260851	0.703022	0.639420	0.311292
04431	8.751057	0.983916	2.678166	0.923533	-0.216721	-0.200812	-0.405727	0.004594	0.913983	0.589504	-0.762878	0.265522	0.698478	0.646526	0.306812
04432	8.793788	2.524226	2.219933	1.143615	-0.099663	-0.070601	-0.405390	0.005776	0.914125	0.597220	-0.755401	0.269624	0.692089	0.655237	0.302783
04433	8.234151	6.951056	4.402614	1.312042	-0.366898	-0.106263	-0.403438	0.009008	0.914963	0.605879	-0.746698	0.274504	0.685673	0.665102	0.295789
04434	10.052977	10.182126	8.334543	1.058721	-0.462399	-0.407278	-0.402696	0.015128	0.915209	0.611523	-0.739535	0.281298	0.681084	0.672948	0.288557
04435	10.117977	9.955482	9.918820	0.376333	-0.425969	-0.545172	-0.403068	0.022038	0.914905	0.611938	-0.736862	0.287343	0.680491	0.675684	0.283519
04436	9.635048	7.478969	10.314670	-0.401051	-0.414855	-0.433990	-0.402829	0.028040	0.914846	0.607500	-0.739426	0.290160	0.684597	0.672653	0.280828
04437	8.928466	5.034077	9.940051	-1.019228	-0.425078	-0.201203	-0.401052	0.032390	0.915482	0.599724	-0.746149	0.289125	0.692451	0.664991	0.279820
04438	9.227754	4.217444	9.941045	-1.303574	-0.397531	-0.015434	-0.398325	0.035128	0.916571	0.590621	-0.754719	0.285598	0.701786	0.655107	0.279876
04439	9.992874	3.878143	9.096663	-1.371927	-0.310762	-0.011951	-0.396135	0.037249	0.917436	0.580933	-0.763598	0.281841	0.711051	0.644616	0.280849
04440	9.791756	2.802288	7.054567	-1.408144	-0.197358	-0.064279	-0.395050	0.038998	0.917832	0.570649	-0.772548	0.278441	0.719927	0.633758	0.282941
04441	9.127889	1.495433	5.155629	-1.355332	-0.112510	-0.050310	-0.394455	0.040104	0.918040	0.560691	-0.781015	0.275031	0.728033	0.623223	0.285589
04442	7.354516	-0.437884	2.739862	-1.197301	0.140968	0.062363	-0.395096	0.038732	0.917823	0.552230	-0.788420	0.270990	0.734126	0.613916	0.290113
04443	3.875013	-2.180570	-1.377712	-0.750497	-0.011751	0.234334	-0.393656	0.036958	0.918515	0.547682	-0.793064	0.266635	0.738295	0.608016	0.291953
04444	5.858990	-0.039083	-0.257511	-0.144169	-0.659802	0.246832	-0.387377	0.038993	0.921096	0.547626	-0.794009	0.263923	0.741650	0.606654	0.286227
04445	9.137199	3.346834	2.514557	-0.074013	-0.975708	0.135467	-0.379313	0.043839	0.924229	0.547648	-0.794484	0.262445	0.745790	0.605701	0.277350
04446	11.523735	4.251131	4.692789	-0.300838	-0.984818	-0.033169	-0.372077	0.050041	0.926852	0.545319	-0.796262	0.261904	0.751123	0.602879	0.268983
04447	12.496141	1.841947	4.733653	-0.419523	-0.901388	-0.089169	-0.365701	0.056175	0.929036	0.541880	-0.798707	0.261597	0.756723	0.599092	0.261647
04448	13.987509	0.105823	5.360950	-0.398502	-0.791450	0.040521	-0.359427	0.060564	0.931206	0.539049	-0.801088	0.260163	0.761734	0.595475	0.255286
04449	15.062296	0.568046	6.171296	-0.399444	-0.581192	0.167268	-0.354022	0.062678	0.933135	0.536648	-0.803534	0.257571	0.765949	0.591950	0.250832
04450	14.219677	0.033310	5.297352	-0.490549	-0.436235	0.172806	-0.349700	0.063841	0.934684	0.533536	-0.806515	0.254702	0.770097	0.587757	0.247977
04451	11.735276	-1.966806	2.338962	-0.387925	-0.470409	0.138538	-0.345265	0.065484	0.936218	0.531076	-0.808850	0.252429	0.773790	0.584358	0.244490
04452	8.080119	-1.715632	-0.238612	0.164184	-0.653733	-0.006715	-0.340188	0.069338	0.937797	0.532373	-0.807865	0.252851	0.775146	0.585275	0.237912
04453	6.415871	0.161520	-2.385484	0.829708	-0.949160	-0.196672	-0.333823	0.076511	0.939526	0.538189	-0.802812	0.256602	0.773896	0.591302	0.226820
04454	7.259020	2.197778	-3.796344	1.339914	-1.166693	-0.319603	-0.326496	0.085998	0.941278	0.547530	-0.794544	0.262510	0.770462	0.601086	0.212329
04455	8.978915	3.547160	-3.999800	1.529829	-1.130787	-0.361242	-0.319741	0.095718	0.942658	0.558165	-0.784907	0.269024	0.765649	0.612176	0.197540
04456	9.781703	3.639961	-3.521927	1.472201	-0.954689	-0.339639	-0.314313	0.104246	0.943578	0.568370	-0.775455	0.275000	0.760370	0.622738	0.184485
04457	9.968067	3.620745	-1.899825	1.326004	-0.815721	-0.287504	-0.309711	0.111590	0.944260	0.577573	-0.766797	0.280058	0.755307	0.632116	0.173034
04458	10.418513	3.799213	-0.198039	1.123128	-0.736385	-0.181678	-0.305162	0.117649	0.945005	0.585522	-0.759423	0.283622	0.751026	0.639872	0.162861
04459	10.411113	4.060915	0.704928	0.832889	-0.645214	-0.057140	-0.300595	0.122238	0.945886	0.591642	-0.753973	0.285455	0.748066	0.645432	0.154319
04460	9.357600	4.267857	1.227453	0.488735	-0.629196	0.049532	-0.295537	0.125927	0.946996	0.595491	-0.750849	0.285684	0.747026	0.648358	0.146915
04461	8.681433	4.558177	1.374682	0.182782	-0.747452	0.088735	-0.289352	0.130119	0.948338	0.597167	-0.749749	0.285076	0.748109	0.648803	0.139239
04462	7.886852	4.400587	0.743243	-0.094011	-0.805175	0.066357	-0.282861	0.134831	0.949637	0.596699	-0.750423	0.284281	0.750959	0.647060	0.131812
04463	8.115857	3.956937	0.569022	-0.247510	-0.924600	0.031852	-0.275642	0.140571	0.950927	0.594974	-0.752036	0.283633	0.755002	0.643958	0.123656
04464	8.662468	3.133011	0.378257	-0.348840	-0.889281	0.007242	-0.268805	0.146219	0.952031	0.592399	-0.754263	0.283108	0.759478	0.640084	0.116130
04465	8.858287	2.416461	0.192927	-0.344702	-0.887142	0.025405	-0.261830	0.151699	0.953117	0.589891	-0.756473	0.282449	0.763855	0.636189	0.108582
04466	9.369483	1.767887	0.422686	-0.302132	-0.872513	0.064981	-0.254705	0.156735	0.954232	0.587792	-0.758467	0.281475	0.767871	0.632583	0.101058
04467	9.471998	1.501770	0.175930	-0.224736	-0.824341	0.094093	-0.247740	0.161233	0.955316	0.586348	-0.760009	0.280326	0.771246	0.629596	0.093746
04468	9.786653	1.339757	0.058064	-0.098959	-0.814597	0.084453	-0.240891	0.165704	0.956302	0.585837	-0.760747	0.279390	0.773800	0.627540	0.086181
04469	9.887019	1.500094	-0.048230	0.054527	-0.763660	0.060102	-0.234555	0.170045	0.957115	0.586451	-0.760480	0.278828	0.775280	0.626702	0.078651
04470	9.899869	1.755766	-0.279157	0.178108	-0.734088	0.023561	-0.228660	0.174459	0.957747	0.587935	-0.759383	0.278694	0.775917	0.626819	0.071070
04471	9.897476	2.230461	-0.232360	0.292931	-0.720541	-0.018545	-0.223110	0.179129	0.958194	0.590214	-0.757487	0.279036	0.775802	0.627795	0.063278
04472	9.879636	2.937352	0.236315	0.339741	-0.691369	-0.068363	-0.218087	0.183984	0.958430	0.592746	-0.755206	0.279849	0.775300	0.629137	0.055645
04473	9.642238	3.378059	0.725236	0.296130	-0.658707	-0.110769	-0.213570	0.188976	0.958476	0.594850	-0.753110	0.281032	0.774946	0.630170	0.048429
04474	9.385983	3.368521	0.780093	0.248071	-0.628508	-0.135391	-0.209442	0.193950	0.958393	0.596533	-0.751266	0.282397	0.774779	0.630859	0.041649
04475	9.619546	3.361343	0.981013	0.249346	-0.606407	-0.127629	-0.205438	0.198746	0.958277	0.598248	-0.749416	0.283682	0.774529	0.631566	0.035059
04476	9.720575	3.258213	1.116582	0.233737	-0.535988	-0.119587	-0.201940	0.203021	0.958125	0.599861	-0.747678	0.284859	0.774201	0.632266	0.029201
04477	9.537448	3.047694	0.939702	0.272272	-0.432521	-0.091448	-0.199073	0.206451	0.957991	0.601832	-0.745743	0.285773	0.773414	0.633439	0.024208
04478	9.328344	3.001636	0.926898	0.353115	-0.404844	-0.045356	-0.196155	0.209351	0.957964	0.604517	-0.743388	0.286240	0.772064	0.635253	0.019263
04479	9.344077	3.047122	0.884275	0.398140	-0.364081	0.000493	-0.193275	0.211675	0.958039	0.607635	-0.740831	0.286268	0.770340	0.637467	0.014563
04480	9.167113	3.145555	0.487707	0.443182	-0.316687	0.033646	-0.190570	0.213443	0.958188	0.611155	-0.738051	0.285956	0.768227	0.640096	0.010204
04481	9.031101	3.224692	-0.347802	0.472492	-0.309731	0.065170	-0.187726	0.214961	0.958411	0.614949	-0.735134	0.285334	0.765896	0.642938	0.005814
04482	9.194887	3.288561	-1.540582	0.501100	-0.364859	0.084656	-0.184351	0.216686	0.958677	0.618983	-0.732067	0.284495	0.763462	0.645852	0.000832
04483	9.205791	3.044082	-2.420173	0.472078	-0.437689	0.115175	-0.180230	0.218688	0.959006	0.622838	-0.729238	0.283345	0.761308	0.648373	-0.004777
04484	8.996095	2.328997	-2.511651	0.402487	-0.565178	0.197913	-0.174631	0.220913	0.959532	0.626295	-0.727039	0.281370	0.759775	0.650086	-0.011393
04485	9.198795	2.572940	-2.584776	0.365016	-0.575017	0.235097	-0.168721	0.222960	0.960116	0.629516	-0.725160	0.279023	0.758448	0.651485	-0.018007
04486	9.161245	2.710667	-2.375187	0.310308	-0.676932	0.224561	-0.162107	0.225745	0.960604	0.632284	-0.723619	0.276753	0.757587	0.652238	-0.025431
04487	9.746876	3.204299	-1.200130	0.192557	-0.639407	0.199649	-0.155930	0.228483	0.960979	0.634105	-0.722791	0.274742	0.757362	0.652202	-0.032178
04488	9.397172	3.349221	-0.580188	0.016952	-0.626257	0.140457	-0.150226	0.231548	0.961154	0.634493	-0.722982	0.273341	0.758189	0.650909	-0.038305
04489	9.327852	3.349703	0.278243	-0.146267	-0.597158	0.071981	-0.145168	0.234919	0.961114	0.633534	-0.724076	0.272671	0.759975	0.648481	-0.043717
04490	9.145968	2.841812	0.695234	-0.214020	-0.592213	0.007194	-0.140548	0.238698	0.960869	0.631959	-0.725456	0.272655	0.762151	0.645551	-0.048886
04491	9.240113	2.549147	1.235480	-0.197656	-0.578042	-0.029284	-0.136252	0.242646	0.960499	0.630455	-0.726635	0.272999	0.764174	0.642748	-0.053972
04492	9.626674	2.477994	1.934132	-0.121388	-0.543134	-0.055477	-0.132381	0.246533	0.960050	0.629496	-0.727257	0.273555	0.765644	0.640561	-0.058916
04493	9.633147	2.603937	2.581441	0.016592	-0.419155	-0.056594	-0.129458	0.249639	0.959646	0.629593	-0.726987	0.274049	0.766063	0.639665	-0.063057
04494	9.324687	2.877004	2.653939	0.131277	-0.272781	-0.062234	-0.127697	0.251833	0.959309	0.630561	-0.725971	0.274515	0.765562	0.639958	-0.066092
04495	8.723864	2.777317	1.920147	0.311998	-0.250015	-0.059075	-0.126089	0.253875	0.958984	0.632917	-0.723799	0.274830	0.763884	0.641610	-0.069419
04496	8.396231	2.676411	0.471835	0.525322	-0.238410	-0.002797	-0.124227	0.255424	0.958815	0.636960	-0.720393	0.274436	0.760822	0.644819	-0.073202
04497	8.398753	2.733132	-1.190758	0.770364	-0.308414	0.091530	-0.121232	0.256775	0.958838	0.642960	-0.715618	0.272935	0.756244	0.649583	-0.078340
04498	9.167482	3.043066	-2.064140	0.880215	-0.327385	0.199398	-0.117415	0.257485	0.959122	0.649872	-0.710369	0.270262	0.750919	0.655040	-0.083925
04499	9.275423	3.002119	-2.948423	0.864101	-0.330435	0.269701	-0.113111	0.257762	0.959565	0.656692	-0.705357	0.266885	0.745628	0.660326	-0.089487
04500	9.319735	2.981090	-3.138562	0.806227	-0.356306	0.314854	-0.108323	0.257909	0.960078	0.663073	-0.700805	0.263073	0.740676	0.665098	-0.095099
04501	9.531334	3.190586	-2.490480	0.703933	-0.403657	0.326167	-0.103101	0.258336	0.960538	0.668659	-0.696926	0.259210	0.736387	0.668997	-0.100885
04502	9.354508	3.193256	-1.636121	0.526875	-0.463860	0.303072	-0.097596	0.259338	0.960843	0.672875	-0.694157	0.255705	0.733290	0.671483	-0.106755
04503	9.506574	2.844369	-0.430694	0.360640	-0.587242	0.255741	-0.091502	0.261526	0.960849	0.675799	-0.692375	0.252809	0.731384	0.672474	-0.113385
04504	9.261263	3.333343	0.841584	0.339731	-0.544300	0.179531	-0.086248	0.263949	0.960673	0.678480	-0.690539	0.250642	0.729538	0.673414	-0.119527
04505	9.368940	3.887652	1.739471	0.340241	-0.541025	0.142932	-0.081265	0.266624	0.960368	0.681119	-0.688600	0.248809	0.727649	0.674345	-0.125644
04506	9.273414	3.856679	2.188764	0.319832	-0.498326	0.144080	-0.076554	0.269015	0.960089	0.683478	-0.686922	0.246972	0.725946	0.675106	-0.131280
04507	9.165151	3.918313	2.439625	0.338726	-0.380202	0.164681	-0.072600	0.270470	0.959987	0.686097	-0.685053	0.244896	0.723879	0.676424	-0.135833
04508	9.707228	3.765068	3.028051	0.339784	-0.288728	0.231179	-0.068817	0.270861	0.960155	0.688627	-0.683482	0.242167	0.721843	0.677854	-0.139487
04509	9.594633	3.459789	3.180634	0.377850	-0.079681	0.266509	-0.066334	0.269598	0.960685	0.691570	-0.681611	0.239034	0.719257	0.680237	-0.141232
04510	9.548136	3.127325	2.959844	0.484867	0.055094	0.307699	-0.064497	0.267144	0.961496	0.695169	-0.679228	0.235349	0.715947	0.683582	-0.141902
04511	9.311786	2.387962	1.273500	0.671896	0.157106	0.338192	-0.063189	0.263791	0.962508	0.700219	-0.675490	0.231099	0.711126	0.688569	-0.142028
04512	9.506645	1.823102	-0.398738	0.937667	0.132202	0.407239	-0.061161	0.260150	0.963629	0.707021	-0.670176	0.225801	0.704543	0.695116	-0.142943
04513	10.265573	1.945601	-1.062513	1.208685	0.116050	0.415131	-0.058952	0.256589	0.964721	0.715772	-0.662769	0.220017	0.695841	0.703491	-0.144588
04514	10.389072	2.565573	-1.174491	1.339654	0.132278	0.415757	-0.056778	0.252927	0.965818	0.725194	-0.654439	0.214015	0.686199	0.712557	-0.146264
04515	9.599172	3.745186	-0.636136	1.302141	0.162239	0.401531	-0.054884	0.249171	0.966903	0.734328	-0.646083	0.208179	0.676572	0.721450	-0.147514
04516	9.723600	4.417524	0.200936	1.225859	0.040058	0.361817	-0.052391	0.246571	0.967707	0.742684	-0.638189	0.202818	0.667589	0.729327	-0.149690
04517	9.782393	4.965150	1.400984	0.931951	0.123477	0.392830	-0.050213	0.243192	0.968678	0.749111	-0.632296	0.197572	0.660539	0.735568	-0.150428
04518	9.366880	5.854093	2.496849	0.726274	0.099675	0.356473	-0.048095	0.240227	0.969525	0.753968	-0.627923	0.192988	0.655148	0.740273	-0.150923
04519	9.805895	7.029097	4.412507	0.458635	0.156044	0.337393	-0.046498	0.236976	0.970402	0.757160	-0.625296	0.188980	0.651572	0.743537	-0.150354
04520	9.516225	7.492299	5.599712	0.099397	0.280491	0.265747	-0.046222	0.233245	0.971319	0.757824	-0.625319	0.186221	0.650819	0.744697	-0.147855
04521	9.079195	6.117871	5.210365	-0.230055	0.458513	0.139045	-0.048089	0.228982	0.972242	0.756426	-0.627323	0.185161	0.652309	0.744334	-0.143040
04522	9.099387	3.372581	3.103595	-0.327378	0.576588	0.131528	-0.050762	0.223889	0.973292	0.754187	-0.630262	0.184315	0.654695	0.743400	-0.136860
04523	9.479649	0.628410	0.759075	-0.230040	0.607075	0.250462	-0.052786	0.217815	0.974561	0.752844	-0.632495	0.182140	0.656078	0.743308	-0.130594
04524	10.099065	-0.351377	-0.540367	0.027826	0.608749	0.377339	-0.053853	0.210916	0.976020	0.753094	-0.633264	0.178400	0.655706	0.744642	-0.124737
04525	10.880586	-0.446909	-0.771831	0.219792	0.685532	0.485236	-0.054615	0.202752	0.977706	0.754832	-0.632597	0.173350	0.653641	0.747471	-0.118494
04526	11.554222	-0.542367	-0.685963	0.296987	0.791900	0.577802	-0.055323	0.193188	0.979601	0.756924	-0.631718	0.167329	0.651157	0.750740	-0.111280
04527	11.196985	-0.276019	-1.117755	0.374598	0.831766	0.629600	-0.055883	0.182976	0.981528	0.759743	-0.630050	0.160710	0.647818	0.754689	-0.103805
04528	11.340938	0.340840	-0.970319	0.540107	0.745074	0.634933	-0.055776	0.173362	0.983277	0.763437	-0.627279	0.153902	0.643470	0.759254	-0.097364
04529	11.901467	1.675250	-0.261042	0.733752	0.695420	0.618264	-0.055427	0.164220	0.984865	0.768515	-0.622697	0.147082	0.637426	0.765036	-0.091692
04530	12.148592	3.423448	0.566996	0.805144	0.840376	0.527387	-0.056609	0.154515	0.986367	0.773757	-0.617558	0.141148	0.630949	0.771199	-0.084598
04531	11.642015	5.033357	0.905532	0.726946	0.898759	0.334290	-0.059591	0.145525	0.987558	0.778550	-0.612398	0.137221	0.624747	0.777040	-0.076805
04532	11.099604	6.295919	1.487652	0.492404	0.969383	0.068166	-0.065027	0.137576	0.988354	0.781520	-0.608839	0.136168	0.620482	0.781273	-0.067928
04533	10.284454	6.725408	1.625708	0.247955	0.849534	-0.201652	-0.071799	0.132178	0.988622	0.782952	-0.606591	0.137962	0.617925	0.783949	-0.059936
04534	10.912214	6.880440	2.245500	-0.002811	0.808367	-0.430029	-0.080135	0.128442	0.988474	0.782636	-0.606021	0.142193	0.617300	0.785010	-0.051960
04535	11.042058	6.376018	1.713093	-0.314721	0.833446	-0.601374	-0.089920	0.125576	0.988001	0.780214	-0.607691	0.148247	0.619015	0.784183	-0.043333
04536	11.113395	5.298484	1.281894	-0.647903	0.877190	-0.706699	-0.100847	0.123018	0.987267	0.775544	-0.611852	0.155460	0.623186	0.781347	-0.033702
04537	10.915202	4.074076	0.724215	-0.890205	0.886326	-0.733137	-0.111993	0.120644	0.986358	0.769226	-0.617860	0.162911	0.629085	0.776978	-0.023606
04538	10.719890	2.961511	0.155367	-1.068482	0.923738	-0.685463	-0.123069	0.117751	0.985388	0.761689	-0.625284	0.169850	0.636147	0.771462	-0.012737
04539	10.311345	1.972805	-0.512195	-1.199875	0.908311	-0.589643	-0.133283	0.114508	0.984441	0.753291	-0.633782	0.175708	0.644041	0.764989	-0.001786
04540	10.260958	1.092046	-1.093875	-1.279967	0.851689	-0.480069	-0.142383	0.111086	0.983558	0.744361	-0.642956	0.180374	0.652421	0.757805	0.008858
04541	10.282839	0.228520	-1.632640	-1.320194	0.750321	-0.404810	-0.150239	0.108072	0.982725	0.735138	-0.652431	0.184136	0.661060	0.750103	0.018573
04542	10.113236	0.311236	-1.123652	-1.213107	0.660471	-0.343940	-0.157126	0.105397	0.981938	0.726573	-0.661090	0.187222	0.668882	0.742867	0.027296
04543	11.032954	1.035944	-0.665481	-1.145352	0.547644	-0.296449	-0.162884	0.103340	0.981218	0.718436	-0.669214	0.189742	0.676253	0.735849	0.034762
04544	12.905284	1.640647	-0.855913	-1.143302	0.543554	-0.317268	-0.168826	0.101491	0.980407	0.710169	-0.677233	0.192397	0.683490	0.728736	0.042259
04545	14.592562	2.092127	-1.100850	-1.113527	0.773232	-0.433670	-0.177130	0.098854	0.979210	0.701813	-0.684841	0.196088	0.689988	0.721956	0.051929
04546	16.601772	1.930816	-1.168009	-1.142457	1.223189	-0.644914	-0.190080	0.094499	0.977210	0.692747	-0.692399	0.201705	0.695681	0.715299	0.066147
04547	15.085769	0.756449	-1.711011	-1.243028	1.955142	-0.857146	-0.209553	0.086567	0.973958	0.682401	-0.700439	0.209079	0.700297	0.708443	0.087706
04548	11.373127	-0.034636	-1.801450	-1.169143	2.132034	-0.908076	-0.230644	0.077920	0.969913	0.672231	-0.707909	0.216727	0.703498	0.701992	0.110895
04549	10.012131	-0.580791	-1.512599	-1.080432	2.021509	-0.834686	-0.250394	0.069744	0.965629	0.662655	-0.714811	0.223458	0.705827	0.695831	0.132768
04550	9.660207	-0.734322	-1.594940	-0.959442	1.946348	-0.748521	-0.269043	0.061621	0.961155	0.653969	-0.720941	0.229277	0.707064	0.690251	0.153666
04551	9.135014	-0.466152	-1.870589	-0.845572	1.776540	-0.615490	-0.285544	0.053871	0.956850	0.646328	-0.726368	0.233773	0.707619	0.685192	0.172592
04552	9.528470	-0.189122	-1.960902	-0.787734	1.687848	-0.538022	-0.300914	0.046262	0.952528	0.639215	-0.731449	0.237460	0.707711	0.680325	0.190532
04553	9.324777	-0.306193	-2.312185	-0.791179	1.652989	-0.529472	-0.315912	0.038957	0.947988	0.632031	-0.736552	0.240889	0.707628	0.675258	0.208063
04554	9.178381	-0.192311	-2.413817	-0.809098	1.670270	-0.513367	-0.330917	0.031511	0.943133	0.624687	-0.741786	0.243968	0.707290	0.669896	0.225785
04555	8.443538	-0.374602	-2.377519	-0.888707	1.624365	-0.498653	-0.345436	0.024404	0.938125	0.616764	-0.747539	0.246551	0.707302	0.663769	0.243175
04556	7.769602	-0.382081	-2.316667	-0.934929	1.578465	-0.495308	-0.359596	0.017690	0.932941	0.608447	-0.753582	0.248811	0.707448	0.657116	0.260221
04557	6.662700	-0.459117	-2.471436	-0.966842	1.453588	-0.505982	-0.372875	0.012029	0.927804	0.599802	-0.759792	0.250905	0.707956	0.650054	0.276092
04558	6.013759	-0.472270	-2.208326	-0.950183	1.274749	-0.526807	-0.384997	0.007800	0.922885	0.591120	-0.765855	0.253068	0.708770	0.642966	0.290241
04559	5.836709	-0.496914	-1.823284	-0.918445	1.088222	-0.518335	-0.395693	0.004835	0.918370	0.582633	-0.771663	0.255098	0.709906	0.636013	0.302525
04560	5.999454	-0.224668	-1.462406	-0.782019	0.966680	-0.469560	-0.405229	0.002343	0.914212	0.575245	-0.776569	0.256971	0.710551	0.630028	0.313340
04561	6.220447	-0.145893	-0.823277	-0.599710	0.881514	-0.416727	-0.413813	0.000062	0.910362	0.569329	-0.780296	0.258847	0.710368	0.625410	0.322861
04562	6.261625	-0.421326	-0.525678	-0.452844	0.843146	-0.355083	-0.421761	-0.002427	0.906704	0.564679	-0.783097	0.260569	0.709405	0.621895	0.331650
04563	5.954076	-0.848475	-0.507775	-0.206931	0.756404	-0.328800	-0.428907	-0.004540	0.903337	0.561868	-0.784361	0.262834	0.707349	0.620287	0.338969
04564	5.928898	-1.173912	-0.449689	0.011690	0.663786	-0.288890	-0.435161	-0.006399	0.900330	0.560751	-0.784277	0.265456	0.704410	0.620377	0.344875
04565	5.543634	-1.769989	-1.203638	0.283919	0.547336	-0.206039	-0.440099	-0.008179	0.897912	0.561897	-0.782496	0.268278	0.700418	0.622603	0.348971
04566	5.214100	-2.056474	-1.879556	0.691053	0.218389	-0.091713	-0.442083	-0.008836	0.896930	0.566366	-0.778155	0.271487	0.695552	0.628010	0.349014
04567	5.885910	-1.613847	-0.792058	1.052359	-0.081612	0.013678	-0.441377	-0.008417	0.897282	0.573769	-0.771468	0.275002	0.689910	0.636212	0.345338
04568	6.736397	-0.886749	0.498173	1.345850	-0.272436	0.114925	-0.438781	-0.007558	0.898562	0.583566	-0.762799	0.278548	0.683317	0.646592	0.339112
04569	7.779709	0.368132	1.219613	1.607819	-0.288021	0.166760	-0.435779	-0.006930	0.900027	0.595267	-0.752258	0.282427	0.675095	0.658832	0.331943
04570	8.253918	2.177097	0.027042	1.950689	-0.278929	0.165884	-0.432848	-0.006313	0.901445	0.609104	-0.739224	0.287298	0.664556	0.673430	0.323817
04571	7.224757	7.669563	0.329905	2.333964	-0.405482	-0.058703	-0.430479	-0.003105	0.902595	0.624265	-0.723273	0.295245	0.651906	0.690555	0.313292
04572	9.872086	12.142294	6.067747	2.354178	-0.716095	-0.586202	-0.429487	0.006094	0.903053	0.637002	-0.706777	0.307724	0.640132	0.707410	0.299669
04573	11.823635	12.430718	9.891314	1.830370	-0.514025	-1.004448	-0.432594	0.016813	0.901432	0.644352	-0.693560	0.322158	0.630614	0.720203	0.289196
04574	11.005611	9.186976	11.297786	0.843499	-0.378697	-0.882579	-0.435852	0.025652	0.899653	0.645868	-0.687241	0.332497	0.626807	0.725977	0.282967
04575	9.431921	6.745196	12.942715	-0.146780	-0.199447	-0.422886	-0.437263	0.030025	0.898832	0.643150	-0.688151	0.335866	0.628617	0.724946	0.281593
04576	8.298554	6.446776	14.068481	-0.811513	-0.059153	-0.087285	-0.437401	0.031059	0.898730	0.637688	-0.693954	0.334337	0.634062	0.719349	0.283731
04577	7.989146	5.343589	12.289368	-1.206479	-0.063211	-0.028620	-0.437117	0.031727	0.898845	0.629915	-0.702538	0.331132	0.641978	0.710939	0.287106
04578	7.401788	3.305254	9.387326	-1.458241	-0.074572	0.055160	-0.436249	0.031861	0.899262	0.620766	-0.712820	0.326401	0.651411	0.700623	0.291189
04579	5.487850	1.200381	6.257441	-1.539287	0.052263	0.206398	-0.435258	0.030030	0.899805	0.611618	-0.723549	0.320002	0.660662	0.689620	0.296564
04580	2.451894	-1.168297	-0.533771	-1.331194	-0.113098	0.451956	-0.431719	0.027505	0.901589	0.604766	-0.732769	0.311943	0.669236	0.679922	0.299716
04581	3.075872	-0.213806	-3.484773	-0.645629	-0.868032	0.576461	-0.422333	0.029161	0.905972	0.602933	-0.737272	0.304798	0.676836	0.674967	0.293792
04582	9.043510	3.876667	0.522053	-0.396205	-1.489152	0.584311	-0.408626	0.034863	0.912036	0.602705	-0.740101	0.298325	0.685399	0.671592	0.281413
04583	12.698717	6.325603	4.449924	-0.772476	-1.384936	0.342083	-0.396944	0.041592	0.916900	0.598800	-0.745362	0.293043	0.695611	0.665361	0.270962
04584	11.495747	2.508386	2.538492	-0.931713	-1.139031	0.120112	-0.388206	0.048221	0.920310	0.592786	-0.751555	0.289429	0.705620	0.657905	0.263174
04585	11.409884	0.007330	0.516875	-0.271216	-1.114003	0.054234	-0.379927	0.055139	0.923372	0.591124	-0.753332	0.288207	0.711497	0.655325	0.253617
04586	15.047462	1.429039	2.865822	0.351475	-0.948553	0.022341	-0.372994	0.061188	0.925814	0.593755	-0.751013	0.288849	0.712972	0.657446	0.243793
04587	17.706543	4.047892	6.634636	0.196568	-0.566756	0.007597	-0.368841	0.064871	0.927226	0.595237	-0.749693	0.289229	0.713898	0.658599	0.237903
04588	16.320879	3.648941	6.105536	-0.414120	-0.364742	-0.038948	-0.366415	0.067549	0.927996	0.592173	-0.752364	0.288581	0.717684	0.655275	0.235677
04589	12.661311	-1.509610	1.398856	-0.752397	-0.541033	-0.042220	-0.362698	0.071407	0.929167	0.586646	-0.757211	0.287189	0.724083	0.649255	0.232749
04590	9.021484	-3.674076	-0.995609	-0.330876	-0.934601	0.111265	-0.355207	0.076602	0.931644	0.584686	-0.759414	0.285364	0.729363	0.646082	0.224961
04591	7.160831	-1.391477	-1.908708	0.216539	-1.154373	0.156462	-0.345789	0.082888	0.934644	0.586868	-0.758109	0.284355	0.732131	0.646839	0.213501
04592	7.498104	1.304588	-3.530798	0.646848	-1.275842	0.049294	-0.336100	0.090777	0.937441	0.591819	-0.753934	0.285191	0.732657	0.650648	0.199674
04593	8.531111	2.932752	-4.493956	0.909070	-1.256660	-0.144297	-0.327693	0.100083	0.939468	0.598045	-0.747825	0.288270	0.731409	0.656308	0.185203
04594	9.261452	3.558179	-4.298653	1.002944	-1.156379	-0.265146	-0.320785	0.109671	0.940781	0.604556	-0.740911	0.292511	0.729115	0.662588	0.171371
04595	9.838530	3.429134	-2.842694	0.935779	-1.014866	-0.275523	-0.315005	0.118470	0.941667	0.610541	-0.734339	0.296624	0.726644	0.668364	0.158990
04596	9.973631	2.776699	-1.416426	0.869389	-0.879588	-0.202809	-0.309808	0.125848	0.942434	0.616260	-0.728235	0.299830	0.724046	0.673674	0.148057
04597	10.038960	2.544749	-0.219677	0.835060	-0.796346	-0.052703	-0.304313	0.131629	0.943434	0.622182	-0.722490	0.301493	0.721307	0.678736	0.137965
04598	10.104931	3.160415	1.177524	0.690982	-0.714928	0.043204	-0.298830	0.136180	0.944540	0.627336	-0.717820	0.301967	0.719132	0.682780	0.129076
04599	9.329796	4.094753	1.954055	0.375376	-0.668836	0.068612	-0.293523	0.140276	0.945604	0.630286	-0.715318	0.301760	0.718738	0.684574	0.121549
04600	8.583048	4.673850	2.207469	0.035537	-0.713023	0.059831	-0.287952	0.144722	0.946646	0.630762	-0.715137	0.301195	0.720572	0.683838	0.114640
04601	8.359384	4.936577	2.217884	-0.245281	-0.783946	0.034397	-0.282004	0.149840	0.947640	0.629136	-0.716832	0.300567	0.724335	0.680955	0.107880
04602	8.290646	4.343295	2.193827	-0.432530	-0.849401	0.028675	-0.275589	0.155396	0.948632	0.626117	-0.719788	0.299803	0.729403	0.676577	0.101070
04603	8.395121	3.594324	2.153455	-0.470020	-0.873245	0.056586	-0.268776	0.160888	0.949671	0.622878	-0.723018	0.298777	0.734699	0.671833	0.094116
04604	8.268160	2.788828	1.528328	-0.379781	-0.873582	0.079889	-0.261780	0.166156	0.950717	0.620336	-0.725670	0.297634	0.739361	0.667679	0.086893
04605	8.482056	2.228571	0.857673	-0.214410	-0.900015	0.094150	-0.254458	0.171480	0.951759	0.619038	-0.727229	0.296530	0.742996	0.664630	0.078897
04606	8.992537	1.838870	0.231083	-0.063643	-0.892687	0.098431	-0.247144	0.176683	0.952734	0.618856	-0.727801	0.295504	0.745612	0.662638	0.070531
04607	9.840038	1.563900	-0.000422	0.046943	-0.845983	0.090474	-0.240201	0.181638	0.953578	0.619475	-0.727625	0.294641	0.747365	0.661490	0.062256
04608	10.025637	1.608176	-0.379320	0.151361	-0.761706	0.061462	-0.234062	0.186223	0.954220	0.620797	-0.726716	0.294100	0.748215	0.661215	0.054490
04609	10.082916	2.098091	-0.402411	0.274049	-0.729971	0.007847	-0.228483	0.191008	0.954626	0.622913	-0.724891	0.294131	0.748181	0.661853	0.046644
04610	10.089778	2.594643	-0.298000	0.354219	-0.676565	-0.039709	-0.223608	0.195771	0.954816	0.625517	-0.722447	0.294617	0.747481	0.663132	0.039087
04611	9.912157	3.445315	-0.158818	0.367642	-0.627168	-0.074189	-0.219320	0.200483	0.954833	0.628146	-0.719832	0.295422	0.746546	0.664566	0.031941
04612	9.670803	3.338512	-0.445773	0.297876	-0.594444	-0.103778	-0.215473	0.205177	0.954711	0.630188	-0.717620	0.296453	0.745946	0.665525	0.025328
04613	9.456441	3.048136	-0.102331	0.234493	-0.570263	-0.078168	-0.211645	0.209547	0.954619	0.631816	-0.715870	0.297217	0.745664	0.666048	0.019115
04614	9.848321	2.904298	0.021176	0.218815	-0.531635	-0.058586	-0.207988	0.213504	0.954546	0.633369	-0.714268	0.297767	0.745376	0.666511	0.013332
04615	9.471949	2.841619	0.018251	0.231560	-0.455395	-0.044476	-0.204808	0.216871	0.954474	0.635049	-0.712602	0.298181	0.744827	0.667207	0.008223
04616	9.432865	3.093817	0.150040	0.256534	-0.429544	-0.028204	-0.201725	0.219936	0.954429	0.636945	-0.710807	0.298419	0.744048	0.668118	0.003301
04617	9.046917	3.147568	-0.414157	0.293216	-0.360584	-0.015935	-0.199077	0.222474	0.954397	0.639139	-0.708785	0.298539	0.742879	0.669425	-0.001089
04618	8.772877	3.035088	-1.077389	0.386704	-0.402122	0.004589	-0.196000	0.225134	0.954410	0.642061	-0.706183	0.298435	0.741176	0.671283	-0.006138
04619	8.987349	2.624263	-1.877458	0.499983	-0.458010	0.052654	-0.192203	0.227857	0.954536	0.645909	-0.702913	0.297850	0.738823	0.673791	-0.012073
04620	9.266192	2.662105	-2.387947	0.570695	-0.484994	0.128263	-0.187729	0.230231	0.954857	0.650405	-0.699333	0.296492	0.736024	0.676704	-0.018458
04621	9.221826	2.878137	-2.692208	0.570429	-0.521754	0.183580	-0.182629	0.232503	0.955295	0.654980	-0.695863	0.294578	0.733245	0.679498	-0.025200
04622	9.312747	3.097124	-2.488045	0.512651	-0.602425	0.237369	-0.176592	0.234955	0.955830	0.659203	-0.692907	0.292114	0.730935	0.681671	-0.032521
04623	9.499567	3.492238	-1.801405	0.394322	-0.641140	0.265562	-0.170087	0.237507	0.956379	0.662587	-0.690818	0.289395	0.729417	0.682907	-0.039870
04624	9.275066	3.904706	-0.957415	0.231270	-0.642016	0.234009	-0.163784	0.240278	0.956787	0.664707	-0.689776	0.287009	0.728930	0.682991	-0.046740
04625	9.357897	3.689186	-0.210318	0.037894	-0.682462	0.177632	-0.157557	0.243724	0.956961	0.665313	-0.689921	0.285252	0.729750	0.681622	-0.053451
04626	9.390588	3.248180	0.449951	-0.140994	-0.675907	0.135019	-0.151652	0.247393	0.956974	0.664534	-0.691190	0.283992	0.731708	0.679009	-0.059581
04627	9.424601	3.135954	1.125961	-0.219001	-0.673285	0.096855	-0.146005	0.251298	0.956834	0.663116	-0.692889	0.283163	0.734138	0.675836	-0.065474
04628	9.323932	2.884708	1.504843	-0.249264	-0.645267	0.050967	-0.140855	0.255296	0.956548	0.661398	-0.694678	0.282798	0.736690	0.672493	-0.071003
04629	9.140658	2.536162	1.620120	-0.176389	-0.578469	0.029232	-0.136326	0.258990	0.956211	0.660181	-0.695912	0.282609	0.738631	0.669799	-0.076109
04630	9.155473	2.331961	1.819077	-0.015083	-0.507283	0.023750	-0.132355	0.262218	0.955889	0.660143	-0.696055	0.282346	0.739387	0.668393	-0.080975
04631	8.985387	2.202080	1.486492	0.184713	-0.415863	0.039754	-0.128950	0.264736	0.955660	0.661603	-0.694900	0.281772	0.738683	0.668602	-0.085543
04632	8.894869	2.213403	0.829608	0.401944	-0.381516	0.085024	-0.125508	0.266698	0.955573	0.664717	-0.692415	0.280557	0.736478	0.670398	-0.090375
04633	9.024750	2.234593	0.084000	0.587379	-0.352992	0.124128	-0.122017	0.268228	0.955597	0.669229	-0.688776	0.278785	0.732970	0.673529	-0.095463
04634	9.009116	2.217152	-1.053551	0.729493	-0.332725	0.162182	-0.118432	0.269360	0.955730	0.674794	-0.684264	0.276470	0.728441	0.677664	-0.100723
04635	9.388735	2.376080	-1.561586	0.832974	-0.385271	0.211059	-0.114136	0.270556	0.955914	0.681127	-0.679145	0.273547	0.723214	0.682321	-0.106768
04636	9.623114	2.720324	-1.830091	0.865541	-0.403923	0.244099	-0.109492	0.271669	0.956142	0.687675	-0.673860	0.270213	0.717714	0.687101	-0.113038
04637	9.420822	2.985473	-1.901207	0.838552	-0.442733	0.253890	-0.104503	0.273033	0.956312	0.693984	-0.668746	0.266767	0.712366	0.691543	-0.119594
04638	9.859945	3.063936	-1.200806	0.738052	-0.432024	0.224316	-0.099809	0.274534	0.956384	0.699492	-0.664222	0.263667	0.707636	0.695299	-0.125739
04639	9.151441	3.261164	-0.913593	0.624138	-0.375396	0.189560	-0.095761	0.275911	0.956401	0.704122	-0.660369	0.261010	0.703593	0.698417	-0.131038
04640	9.027193	3.721185	-0.255898	0.553321	-0.419662	0.157804	-0.091638	0.277809	0.956256	0.708190	-0.656913	0.258711	0.700049	0.700919	-0.136544
04641	9.116003	3.997345	0.310078	0.436690	-0.404483	0.108331	-0.087974	0.279955	0.955974	0.711378	-0.654125	0.257024	0.697281	0.702670	-0.141608
04642	9.027491	3.885569	0.697729	0.343382	-0.389435	0.063722	-0.084747	0.282279	0.955582	0.713861	-0.651868	0.255872	0.695141	0.703837	-0.146264
04643	8.869432	4.109329	1.204579	0.293266	-0.454173	0.072823	-0.081005	0.285021	0.955092	0.715996	-0.649984	0.254696	0.693389	0.704474	-0.151422
04644	9.176509	4.060671	1.971069	0.230855	-0.378937	0.067195	-0.077840	0.287257	0.954686	0.717684	-0.648529	0.253653	0.692005	0.704907	-0.155678
04645	9.589325	3.490066	1.987377	0.226846	-0.271706	0.072662	-0.075371	0.288720	0.954442	0.719347	-0.647113	0.252558	0.690550	0.705610	-0.158917
04646	9.625098	3.198372	2.026118	0.316241	-0.095131	0.091406	-0.074001	0.288802	0.954525	0.721630	-0.645122	0.251134	0.688313	0.707397	-0.160668
04647	9.629506	3.194076	2.011899	0.401252	0.037977	0.148162	-0.073122	0.287597	0.954956	0.724533	-0.642679	0.249029	0.685350	0.710107	-0.161380
04648	9.630730	2.494473	0.881708	0.564013	0.091121	0.154846	-0.072567	0.285954	0.955492	0.728533	-0.639087	0.246592	0.681156	0.714001	-0.161951
04649	10.433008	1.251596	-0.177478	0.836752	0.051136	0.181244	-0.071520	0.284454	0.956018	0.734375	-0.633580	0.243454	0.674966	0.719488	-0.163582
04650	10.587565	0.500770	-1.078267	1.218629	0.103041	0.144420	-0.071092	0.282797	0.956542	0.742680	-0.625153	0.240021	0.665862	0.727468	-0.165584
04651	10.071406	0.378125	-1.772780	1.642039	0.042595	0.124383	-0.070375	0.281736	0.956908	0.753638	-0.613446	0.236038	0.653512	0.737773	-0.169155
04652	10.530281	1.956564	-0.924717	1.838318	0.010404	0.211236	-0.068785	0.280375	0.957423	0.765701	-0.600353	0.230820	0.639508	0.748977	-0.173388
04653	9.695424	3.809698	-0.254413	1.734291	0.084081	0.281138	-0.067082	0.278093	0.958209	0.776902	-0.588028	0.225047	0.626038	0.759531	-0.176605
04654	9.367780	5.578556	0.977384	1.510009	0.096122	0.297712	-0.065300	0.275624	0.959045	0.786493	-0.577292	0.219462	0.614138	0.768613	-0.179079
04655	9.384885	7.192189	2.215412	1.221644	0.082418	0.259582	-0.063685	0.273525	0.959754	0.794137	-0.568541	0.214726	0.604392	0.775851	-0.181009
04656	9.876416	7.946510	3.720275	0.858176	0.101268	0.208615	-0.062586	0.271559	0.960385	0.799454	-0.562405	0.211124	0.597458	0.780997	-0.181900
04657	10.693119	7.685106	5.335462	0.415080	0.254898	0.166814	-0.062703	0.268654	0.961194	0.802064	-0.559577	0.208724	0.593937	0.784027	-0.180391
04658	10.293193	6.130307	5.915730	-0.023166	0.505701	0.104575	-0.064831	0.264101	0.962314	0.802020	-0.560013	0.207724	0.593769	0.785262	-0.175508
04659	9.890373	3.698984	5.229510	-0.187480	0.765901	0.045420	-0.068953	0.257854	0.963720	0.800969	-0.561574	0.207564	0.594721	0.786222	-0.167811
04660	10.024670	1.257221	3.104207	-0.045167	0.977574	0.088200	-0.074028	0.249658	0.965500	0.800789	-0.562129	0.206754	0.594354	0.788468	-0.158310
04661	9.635272	-0.726608	0.163141	0.218690	1.058290	0.161532	-0.078944	0.240413	0.967455	0.802243	-0.560765	0.204813	0.591755	0.792303	-0.148600
04662	9.984890	-2.423790	-1.683653	0.401614	0.892047	0.300105	-0.081764	0.231640	0.969359	0.804878	-0.558258	0.201293	0.587780	0.796675	-0.140796
04663	11.230447	-3.012766	-1.410901	0.546162	0.786187	0.542868	-0.081921	0.222362	0.971516	0.808552	-0.555093	0.195230	0.582694	0.801515	-0.134318
04664	12.158888	-1.902159	-0.829600	0.919671	0.973082	0.749750	-0.081433	0.210379	0.974222	0.814511	-0.549286	0.186699	0.574404	0.808719	-0.126626
04665	11.844146	0.558458	-0.795047	1.335992	1.121022	0.830894	-0.080938	0.196762	0.977105	0.822813	-0.540074	0.176914	0.562519	0.818294	-0.118185
04666	12.063317	3.750971	-0.287907	1.526395	1.165029	0.749391	-0.081178	0.183153	0.979727	0.831929	-0.528900	0.167806	0.548912	0.828685	-0.109435
04667	11.622708	6.077155	0.459751	1.421771	1.217778	0.499125	-0.083548	0.170420	0.981823	0.840084	-0.517895	0.161380	0.535984	0.838297	-0.099898
04668	11.541182	7.583226	1.163919	1.073845	1.148228	0.171982	-0.088164	0.159862	0.983194	0.845958	-0.509107	0.158636	0.525911	0.845727	-0.090351
04669	10.313053	8.266007	1.778802	0.719293	1.167811	-0.217351	-0.096043	0.151085	0.983844	0.849545	-0.502628	0.160120	0.518700	0.851198	-0.080079
04670	9.983052	8.758512	1.710204	0.402924	0.981444	-0.506845	-0.105399	0.145246	0.983765	0.851139	-0.498409	0.164777	0.514251	0.854688	-0.071092
04671	10.504749	8.521331	1.646882	-0.064393	0.920413	-0.713718	-0.116139	0.140963	0.983179	0.850048	-0.497900	0.171798	0.513742	0.855702	-0.062000
04672	10.740276	7.237319	0.985751	-0.604492	0.906100	-0.815118	-0.127708	0.137289	0.982264	0.845959	-0.501901	0.180136	0.517730	0.853960	-0.052044
04673	10.645048	5.861566	0.451118	-1.111871	0.925944	-0.783679	-0.139080	0.133400	0.981255	0.839144	-0.510272	0.188308	0.525828	0.849604	-0.040973
04674	10.606567	4.342203	-0.477855	-1.468872	0.910120	-0.673409	-0.149525	0.129169	0.980285	0.830390	-0.521790	0.195416	0.536744	0.843238	-0.029240
04675	10.691168	3.113623	-1.464766	-1.653125	0.878134	-0.551430	-0.158781	0.124742	0.979402	0.820600	-0.534928	0.201167	0.549004	0.835638	-0.017427
04676	11.016963	2.022241	-2.403709	-1.638392	0.879041	-0.431948	-0.167171	0.119766	0.978627	0.810827	-0.547997	0.205572	0.560905	0.827862	-0.005501
04677	10.669938	1.184336	-2.999443	-1.528179	0.864695	-0.322977	-0.174607	0.114458	0.977963	0.801656	-0.560175	0.208690	0.571716	0.820429	0.006055
04678	11.393601	1.233512	-2.321145	-1.379086	0.724289	-0.202136	-0.180381	0.109681	0.977462	0.793372	-0.571184	0.210501	0.581399	0.813461	0.016012
04679	12.634267	1.866006	-1.464144	-1.363578	0.749205	-0.095904	-0.185464	0.104193	0.977112	0.785242	-0.582088	0.211116	0.590761	0.806423	0.026139
04680	14.185873	2.189991	-1.895403	-1.329628	0.894913	-0.151537	-0.191956	0.097894	0.976509	0.777070	-0.592580	0.212157	0.599429	0.799541	0.037679
04681	14.439132	1.607774	-2.114362	-1.265667	1.168428	-0.328559	-0.201478	0.090578	0.975296	0.768828	-0.602312	0.214763	0.606885	0.793105	0.051714
04682	15.606409	0.798848	-2.280798	-1.181176	1.561637	-0.594704	-0.215527	0.081842	0.973062	0.760415	-0.611102	0.219826	0.612631	0.787309	0.069475
04683	11.521796	0.797904	-2.603867	-1.077905	2.063728	-0.795072	-0.234154	0.070560	0.969636	0.752045	-0.618918	0.226647	0.616117	0.782280	0.091858
04684	9.568029	0.956284	-2.178839	-1.007087	1.896576	-0.807583	-0.251883	0.060795	0.965846	0.743894	-0.626210	0.233417	0.619013	0.777281	0.112507
04685	9.489153	0.807695	-1.882361	-0.997713	1.828637	-0.783139	-0.268956	0.051584	0.961770	0.735707	-0.633461	0.239713	0.621609	0.772053	0.132422
04686	9.185468	0.787345	-2.108288	-1.015735	1.791467	-0.731717	-0.285439	0.042463	0.957456	0.727385	-0.640899	0.245274	0.624048	0.766450	0.152051
04687	9.364662	0.746298	-2.353147	-1.031845	1.772222	-0.663909	-0.301256	0.033234	0.952964	0.719030	-0.648488	0.249919	0.626292	0.760499	0.171464
04688	9.266181	0.547816	-2.707755	-1.086251	1.732282	-0.610493	-0.316458	0.024099	0.948300	0.710363	-0.656507	0.253740	0.628680	0.753935	0.190638
04689	8.885686	0.260062	-2.861315	-1.133960	1.668157	-0.537775	-0.330700	0.015155	0.943614	0.701523	-0.664872	0.256534	0.631271	0.746803	0.209242
04690	8.071249	-0.201273	-3.000152	-1.143220	1.588504	-0.458339	-0.343908	0.006417	0.938981	0.692783	-0.673286	0.258338	0.633860	0.739355	0.227103
04691	7.205865	-0.301334	-2.679345	-1.187667	1.528428	-0.407619	-0.356360	-0.002042	0.934347	0.683857	-0.681973	0.259333	0.636669	0.731375	0.244424
04692	6.137431	-0.699933	-2.737202	-1.244457	1.321705	-0.366076	-0.367246	-0.009139	0.930079	0.674626	-0.691009	0.259589	0.640321	0.722788	0.259935
04693	5.944133	-0.820458	-2.606493	-1.222482	1.101798	-0.329294	-0.376466	-0.014748	0.926313	0.665596	-0.699794	0.259365	0.644403	0.714192	0.273265
04694	5.833163	-0.928164	-2.410758	-1.188826	0.917173	-0.319296	-0.384463	-0.019012	0.922944	0.656736	-0.708256	0.258982	0.648757	0.705700	0.284784
04695	5.929459	-0.536280	-1.993273	-1.135112	0.762947	-0.293152	-0.391279	-0.022261	0.920003	0.648258	-0.716243	0.258375	0.653194	0.697495	0.294682
04696	5.825501	0.177748	-1.688893	-0.977563	0.668029	-0.294052	-0.397502	-0.024781	0.917267	0.640739	-0.723064	0.258133	0.656846	0.690337	0.303297
04697	6.354688	0.567419	-0.525502	-0.908932	0.601062	-0.247742	-0.402976	-0.027097	0.914809	0.633810	-0.729336	0.257592	0.660223	0.683619	0.311079
04698	6.572695	0.194915	-0.130104	-0.721850	0.586955	-0.227899	-0.408244	-0.029426	0.912398	0.628158	-0.734283	0.257382	0.662385	0.678205	0.318251
04699	6.566666	-0.740839	0.010240	-0.487303	0.581586	-0.173373	-0.413121	-0.032070	0.910111	0.624266	-0.737596	0.257378	0.663041	0.674480	0.324737
04700	6.378369	-2.273711	-0.349494	-0.243379	0.492444	-0.040706	-0.416585	-0.035087	0.908420	0.622531	-0.739217	0.256929	0.662505	0.672552	0.329789
04701	6.424966	-2.914900	-0.149286	0.073464	0.243773	0.136291	-0.417286	-0.037722	0.907992	0.623635	-0.738637	0.255918	0.661023	0.673047	0.331747
04702	7.343365	-2.314211	1.039463	0.475188	0.024514	0.247383	-0.415841	-0.039712	0.908570	0.627847	-0.735303	0.255219	0.657939	0.676574	0.330703
04703	7.788042	-0.684355	1.397887	0.904844	0.057260	0.220173	-0.414763	-0.041700	0.908973	0.634737	-0.729025	0.256185	0.651981	0.683216	0.328842
04704	7.663016	1.026468	0.469893	1.384447	0.108329	0.083407	-0.414871	-0.043051	0.908861	0.644093	-0.719430	0.259933	0.642671	0.693230	0.326199
04705	7.022251	3.680065	-1.535687	1.829726	0.033433	-0.148237	-0.415984	-0.042213	0.908392	0.655175	-0.706651	0.267189	0.630637	0.706302	0.321613
04706	6.699361	8.039573	-0.491058	2.028187	-0.320618	-0.580006	-0.417750	-0.035865	0.907854	0.665473	-0.692373	0.278865	0.618572	0.720648	0.313106
04707	8.567624	10.553138	3.830139	1.817082	-0.645894	-1.124788	-0.421245	-0.023436	0.906644	0.671956	-0.679457	0.294641	0.609121	0.733341	0.301966
04708	10.173264	10.944088	7.350512	1.333124	-0.604501	-1.372901	-0.426766	-0.009703	0.904310	0.674258	-0.669812	0.311012	0.602700	0.742468	0.292395
04709	10.874125	8.133125	8.614992	0.589805	-0.486699	-1.225151	-0.432026	0.002120	0.901859	0.672594	-0.665428	0.323763	0.600809	0.746459	0.286057
04710	9.563833	4.903488	9.280518	-0.304967	-0.488497	-0.599925	-0.433052	0.009772	0.901316	0.668204	-0.667631	0.328288	0.604954	0.744428	0.282590
04711	10.344667	4.884442	10.920820	-0.931091	-0.371516	-0.029662	-0.430926	0.012744	0.902297	0.662454	-0.674492	0.325906	0.612746	0.738172	0.282214
04712	10.809793	5.597852	11.505397	-1.236114	-0.200565	0.053666	-0.429288	0.013858	0.903061	0.655098	-0.683539	0.321903	0.621739	0.729782	0.284356
04713	11.011420	5.061072	9.932420	-1.299503	-0.177485	-0.120938	-0.428901	0.015996	0.903210	0.646488	-0.692910	0.319264	0.630950	0.720847	0.286849
04714	10.444929	4.058729	8.240392	-1.339163	-0.060060	-0.243319	-0.430039	0.018124	0.902628	0.636976	-0.702429	0.317578	0.639788	0.711523	0.290527
04715	9.060382	3.121326	6.269774	-1.337021	0.048435	-0.213801	-0.431640	0.019309	0.901839	0.627495	-0.711803	0.315573	0.648026	0.702113	0.295126
04716	7.061669	2.954720	3.918984	-1.323564	0.107031	-0.165098	-0.433326	0.019742	0.901021	0.618194	-0.720973	0.313104	0.655793	0.692682	0.300212
04717	5.679114	2.022908	0.912577	-1.376754	0.035459	-0.095851	-0.434086	0.020208	0.900645	0.608743	-0.730388	0.309785	0.664080	0.682734	0.304749
04718	4.231182	0.151899	-1.203800	-1.460555	-0.114197	0.049174	-0.432985	0.020614	0.901165	0.599231	-0.740263	0.304848	0.673384	0.672001	0.308170
04719	3.644637	-0.300851	-3.751414	-1.097377	-0.735605	0.136464	-0.427120	0.024524	0.903862	0.592426	-0.747590	0.300235	0.683081	0.663708	0.304781
04720	6.055044	0.969534	-3.261164	-0.898396	-1.424135	0.155091	-0.416353	0.032756	0.908613	0.586937	-0.753538	0.296117	0.694374	0.656588	0.294512
04721	10.465977	2.035559	0.424242	-0.848948	-1.695928	0.101931	-0.403816	0.043072	0.913826	0.581461	-0.759089	0.292724	0.706283	0.649561	0.281487
04722	12.386037	0.886896	3.073024	-0.985440	-1.359760	0.061894	-0.393730	0.051372	0.917789	0.574740	-0.765453	0.289408	0.717392	0.641438	0.271856
04723	10.979583	-1.582760	2.480438	-0.874091	-1.067480	0.091734	-0.385434	0.057485	0.920943	0.568838	-0.771047	0.286199	0.726542	0.634179	0.264488
04724	10.215763	-2.314438	1.747889	-0.410937	-0.936153	0.118441	-0.377881	0.062481	0.923743	0.566340	-0.773692	0.284008	0.732438	0.630474	0.256978
04725	11.819555	-0.757517	3.271575	0.037736	-0.870797	0.124349	-0.370720	0.067017	0.926324	0.567134	-0.773504	0.282931	0.735477	0.630238	0.248746
04726	14.571606	1.712538	6.813105	0.100612	-0.731376	0.106369	-0.364674	0.070793	0.928440	0.568314	-0.772921	0.282158	0.737585	0.630541	0.241632
04727	14.843766	2.579369	8.109081	-0.053149	-0.541417	0.043222	-0.360364	0.073879	0.929882	0.568130	-0.773257	0.281606	0.739842	0.629774	0.236681
04728	13.304651	2.933180	6.752093	-0.027193	-0.496914	-0.080978	-0.357088	0.077617	0.930840	0.567685	-0.773346	0.282259	0.741769	0.629215	0.232091
04729	11.713207	4.308556	5.275931	0.087356	-0.562380	-0.226142	-0.354130	0.082913	0.931513	0.567581	-0.772585	0.284542	0.743265	0.629474	0.226536
04730	9.863162	5.147184	2.892950	0.026420	-0.729715	-0.314345	-0.350429	0.089915	0.932263	0.566716	-0.772127	0.287493	0.745676	0.629075	0.219619
04731	8.115757	4.898607	0.926023	-0.116898	-0.990239	-0.287037	-0.344582	0.098361	0.933589	0.564897	-0.772562	0.289895	0.749770	0.627274	0.210648
04732	7.822809	3.857555	-0.300868	-0.236518	-1.165021	-0.219729	-0.337004	0.107333	0.935365	0.562414	-0.773797	0.291426	0.755062	0.624274	0.200406
04733	7.759104	1.830966	-2.105958	-0.177536	-1.209264	-0.128795	-0.328499	0.115872	0.937370	0.560692	-0.774731	0.292261	0.760074	0.621583	0.189530
04734	8.294029	0.926556	-2.554758	0.123019	-1.165064	-0.024547	-0.319710	0.123287	0.939461	0.561596	-0.773917	0.292680	0.763148	0.621170	0.178192
04735	8.969487	1.155784	-2.430841	0.395716	-1.001188	0.008594	-0.311949	0.129457	0.941238	0.564696	-0.771439	0.293257	0.764072	0.622995	0.167546
04736	9.543910	1.511361	-2.302157	0.534828	-0.920487	0.019206	-0.304750	0.135044	0.942810	0.568889	-0.768105	0.293905	0.763867	0.625921	0.157255
04737	10.660667	1.654851	-1.378932	0.560726	-0.833653	-0.027457	-0.298474	0.140494	0.944020	0.573138	-0.764521	0.294991	0.763168	0.629101	0.147667
04738	11.053561	1.953721	-0.345553	0.577866	-0.758679	-0.077521	-0.293072	0.145860	0.944899	0.577363	-0.760746	0.296509	0.762076	0.632449	0.138740
04739	10.170354	2.381689	0.060985	0.606463	-0.679028	-0.111737	-0.288483	0.151024	0.945500	0.581706	-0.756706	0.298353	0.760523	0.636072	0.130445
04740	8.534948	3.229013	0.114324	0.632752	-0.703278	-0.123725	-0.283799	0.156433	0.946037	0.586206	-0.752459	0.300278	0.758828	0.639792	0.121845
04741	8.238596	4.507146	0.389669	0.511956	-0.756670	-0.126553	-0.278737	0.162245	0.946563	0.589783	-0.748948	0.302048	0.757933	0.642459	0.113070
04742	8.326448	5.116143	0.223260	0.228321	-0.781034	-0.124771	-0.273487	0.168189	0.947057	0.591217	-0.747255	0.303435	0.758728	0.642902	0.104928
04743	8.994250	4.952854	0.414273	-0.105629	-0.776451	-0.094223	-0.268074	0.173888	0.947576	0.590208	-0.747745	0.304190	0.761440	0.640812	0.097821
04744	9.234411	4.390405	0.686880	-0.405488	-0.739170	-0.039459	-0.262598	0.178897	0.948176	0.587055	-0.750245	0.304138	0.765774	0.636497	0.091991
04745	9.006007	3.655727	0.712508	-0.551441	-0.712260	0.004483	-0.257031	0.183387	0.948843	0.582879	-0.753722	0.303571	0.770835	0.631088	0.086838
04746	8.973327	2.950663	0.653385	-0.550668	-0.704157	0.032301	-0.251335	0.187561	0.949553	0.578750	-0.757223	0.302759	0.775809	0.625648	0.081766
04747	8.844271	2.061969	0.180868	-0.448772	-0.677834	0.029823	-0.245821	0.191569	0.950196	0.575382	-0.760051	0.302089	0.780069	0.620986	0.076612
04748	8.880654	1.416510	-0.494274	-0.226582	-0.668626	0.012943	-0.240457	0.195605	0.950746	0.573690	-0.761461	0.301756	0.782981	0.617993	0.070882
04749	9.251141	1.307442	-0.631536	-0.010124	-0.662359	0.007178	-0.235156	0.199648	0.951232	0.573677	-0.761513	0.301649	0.784599	0.616635	0.064541
04750	9.684881	1.423667	-0.642232	0.130447	-0.632840	0.003339	-0.230103	0.203516	0.951648	0.574756	-0.760697	0.301653	0.785307	0.616377	0.058067
04751	10.025268	1.704521	-0.425017	0.241473	-0.608794	0.017223	-0.225155	0.207148	0.952048	0.576741	-0.759219	0.301588	0.785287	0.616989	0.051471
04752	10.335721	2.560109	0.160724	0.335326	-0.534319	-0.030075	-0.221066	0.210668	0.952234	0.579354	-0.757067	0.301990	0.784525	0.618440	0.045311
04753	9.888568	2.855695	-0.053004	0.430304	-0.458917	-0.092845	-0.217940	0.214222	0.952161	0.582571	-0.754180	0.303024	0.783015	0.620743	0.039567
04754	9.601931	3.110587	-0.296238	0.533521	-0.431212	-0.116266	-0.215179	0.217772	0.951984	0.586539	-0.750591	0.304279	0.780814	0.623850	0.033780
04755	9.299504	3.384428	-0.451901	0.607269	-0.409901	-0.129873	-0.212680	0.221318	0.951728	0.591043	-0.746482	0.305668	0.778098	0.627521	0.027953
04756	9.212406	3.421515	-0.759683	0.632481	-0.413434	-0.113530	-0.210073	0.224759	0.951500	0.595762	-0.742230	0.306859	0.775201	0.631330	0.022020
04757	9.008997	3.340632	-0.873498	0.613280	-0.414238	-0.053969	-0.207122	0.227792	0.951426	0.600443	-0.738200	0.307455	0.772379	0.634957	0.016122
04758	9.632832	3.323551	-0.619654	0.564349	-0.434312	0.005910	-0.203667	0.230508	0.951518	0.604853	-0.734603	0.307426	0.769852	0.638141	0.010191
04759	9.324833	3.360713	-0.543406	0.482662	-0.367067	0.053963	-0.200449	0.232471	0.951723	0.608720	-0.731617	0.306914	0.767646	0.640854	0.005142
04760	9.053186	3.460895	-0.465517	0.434987	-0.366719	0.074722	-0.197111	0.234276	0.951978	0.612250	-0.728980	0.306167	0.765700	0.643198	0.000255
04761	9.054370	3.475080	-0.459713	0.392939	-0.403929	0.085934	-0.193425	0.236264	0.952243	0.615471	-0.726626	0.305304	0.764057	0.645131	-0.004866
04762	8.955441	3.385265	-0.451792	0.320742	-0.409925	0.094818	-0.189640	0.238221	0.952516	0.618147	-0.724761	0.304329	0.762844	0.646508	-0.009812
04763	9.144949	3.072186	-0.838816	0.285512	-0.439961	0.115607	-0.185501	0.240242	0.952824	0.620587	-0.723165	0.303156	0.761880	0.647546	-0.014943
04764	9.135167	2.742505	-1.109074	0.246250	-0.465442	0.142042	-0.181003	0.242230	0.953185	0.622768	-0.721893	0.301712	0.761182	0.648224	-0.020188
04765	9.628027	2.703509	-0.912555	0.209470	-0.525135	0.161661	-0.175930	0.244480	0.953561	0.624697	-0.720904	0.300085	0.760791	0.648480	-0.025898
04766	9.661443	2.863943	-0.577796	0.157734	-0.508902	0.145842	-0.171075	0.246728	0.953865	0.626196	-0.720220	0.298601	0.760666	0.648389	-0.031289
04767	9.504272	3.000935	-0.103404	0.116144	-0.526513	0.114499	-0.166282	0.249329	0.954036	0.627318	-0.719727	0.297432	0.760804	0.647942	-0.036730
04768	9.361227	3.240653	0.230562	0.086449	-0.521942	0.068143	-0.161811	0.252218	0.954046	0.628133	-0.719319	0.296698	0.761095	0.647277	-0.042032
04769	9.230611	3.305356	0.374793	0.049204	-0.493329	0.034141	-0.157772	0.255175	0.953936	0.628607	-0.719063	0.296313	0.761552	0.646401	-0.046957
04770	9.288184	3.016351	0.562656	0.023918	-0.491588	0.024062	-0.153804	0.258176	0.953776	0.628872	-0.718951	0.296022	0.762145	0.645333	-0.051782
04771	9.494383	2.722659	0.614812	0.033106	-0.450483	0.032480	-0.150096	0.260859	0.953637	0.629219	-0.718798	0.295656	0.762597	0.644423	-0.056248
04772	9.328174	2.659110	0.488674	0.079380	-0.428747	0.051507	-0.146432	0.263249	0.953550	0.629945	-0.718404	0.295069	0.762710	0.643892	-0.060635
04773	9.495099	2.771796	0.777185	0.137049	-0.402889	0.071754	-0.142838	0.265339	0.953516	0.631139	-0.717687	0.294260	0.762405	0.643832	-0.064953
04774	9.366958	2.983649	0.964827	0.189591	-0.375807	0.068804	-0.139470	0.267263	0.953477	0.632724	-0.716632	0.293426	0.761714	0.644212	-0.069155
04775	9.109430	3.111129	0.852096	0.245899	-0.344840	0.038568	-0.136531	0.269222	0.953351	0.634694	-0.715127	0.292844	0.760607	0.645069	-0.073236
04776	9.123656	3.165050	0.599127	0.345833	-0.338664	0.026380	-0.133722	0.271217	0.953184	0.637400	-0.712947	0.292282	0.758841	0.646644	-0.077537
04777	8.880350	3.140317	-0.007392	0.425836	-0.341708	0.035513	-0.130837	0.273190	0.953021	0.640717	-0.710262	0.291563	0.756547	0.648764	-0.082109
04778	9.155822	3.066605	-0.639936	0.502519	-0.348562	0.052646	-0.127799	0.275080	0.952890	0.644623	-0.707122	0.290587	0.753743	0.651391	-0.086953
04779	9.262474	2.663884	-1.576621	0.576967	-0.392398	0.097457	-0.124148	0.276967	0.952826	0.649128	-0.703600	0.289100	0.750480	0.654397	-0.092436
04780	9.382351	2.682501	-1.761650	0.621223	-0.425511	0.164210	-0.119825	0.278603	0.952902	0.654022	-0.699963	0.286893	0.746925	0.657595	-0.098339
04781	9.721752	2.921244	-1.518385	0.639419	-0.475112	0.200728	-0.114898	0.280347	0.952997	0.659064	-0.696286	0.284289	0.743258	0.660751	-0.104765
04782	9.468936	3.272147	-1.128500	0.562992	-0.460886	0.213992	-0.109997	0.281911	0.953114	0.663522	-0.693141	0.281592	0.740027	0.663386	-0.110810
04783	9.425388	3.469094	-0.344021	0.463193	-0.497496	0.204602	-0.104891	0.283814	0.953125	0.667205	-0.690619	0.279073	0.737451	0.665203	-0.116922
04784	9.032426	3.424345	0.163455	0.324221	-0.481191	0.162506	-0.100271	0.285861	0.953011	0.669983	-0.688730	0.277080	0.735574	0.666284	-0.122462
04785	9.081351	3.676148	0.637220	0.310937	-0.390669	0.122857	-0.096507	0.287635	0.952866	0.672430	-0.686985	0.275479	0.733842	0.667321	-0.127116
04786	8.659575	3.688792	0.477683	0.322335	-0.369528	0.102867	-0.093040	0.289396	0.952677	0.674929	-0.685111	0.274032	0.731993	0.668486	-0.131579
04787	9.059877	3.359541	0.684020	0.346546	-0.364444	0.125284	-0.089460	0.290992	0.952534	0.677618	-0.683132	0.272332	0.729953	0.669817	-0.136069
04788	9.003660	3.266118	0.702585	0.400640	-0.354818	0.170391	-0.085724	0.292182	0.952513	0.680885	-0.680765	0.270101	0.727356	0.671706	-0.140585
04789	9.503737	3.424480	1.226790	0.471432	-0.267668	0.187905	-0.082429	0.292721	0.952638	0.684505	-0.678118	0.267596	0.724333	0.674144	-0.144473
04790	9.336843	3.232864	1.185157	0.497938	-0.195573	0.196915	-0.079680	0.292680	0.952885	0.688475	-0.675136	0.264939	0.720870	0.677148	-0.147708
04791	9.329473	3.091601	1.179779	0.549730	-0.121260	0.221980	-0.077206	0.292023	0.953290	0.692642	-0.672029	0.261961	0.717138	0.680514	-0.150383
04792	8.606776	3.037968	0.497978	0.625018	-0.001020	0.168178	-0.076068	0.290867	0.953735	0.697491	-0.668011	0.259358	0.712544	0.684951	-0.152063
04793	8.040772	2.662640	-1.285225	0.805078	-0.026836	0.160686	-0.074683	0.289998	0.954109	0.703366	-0.662918	0.256548	0.706894	0.690247	-0.154466
04794	8.851495	2.360967	-2.543042	0.992360	-0.246832	0.245244	-0.071245	0.290059	0.954353	0.710758	-0.656519	0.252598	0.699820	0.696310	-0.159388
04795	9.698217	2.039802	-2.990840	1.151891	-0.277838	0.279850	-0.067242	0.290194	0.954603	0.719005	-0.649247	0.248014	0.691744	0.703041	-0.164994
04796	9.928469	2.305762	-2.523949	1.194538	-0.215510	0.317882	-0.063488	0.289639	0.955028	0.727642	-0.641502	0.242925	0.683013	0.710341	-0.170026
04797	9.413150	3.197180	-1.949124	1.124661	-0.271235	0.342308	-0.059074	0.289409	0.955381	0.735525	-0.634442	0.237668	0.674917	0.716746	-0.175389
04798	9.733287	3.944694	-0.319675	0.909777	-0.355496	0.369962	-0.053972	0.289609	0.955622	0.742041	-0.628759	0.232460	0.668178	0.721657	-0.180966
04799	10.163814	4.352118	1.437145	0.583593	-0.296817	0.385748	-0.049057	0.289356	0.955964	0.746163	-0.625629	0.227659	0.663953	0.724473	-0.185215
04800	9.479534	4.572588	2.265109	0.451272	-0.249625	0.285829	-0.045284	0.289366	0.956147	0.749471	-0.622979	0.224033	0.660486	0.726750	-0.188661
04801	9.653078	5.188778	3.350243	0.344471	-0.210810	0.234667	-0.042065	0.289461	0.956265	0.751880	-0.621125	0.221088	0.657956	0.728297	-0.191512
04802	9.832519	5.509418	4.305574	0.276527	-0.062312	0.160368	-0.040482	0.288901	0.956503	0.753967	-0.619341	0.218976	0.655664	0.730036	-0.192750
04803	10.230290	6.141576	5.221856	0.246702	0.058244	0.136725	-0.039764	0.287650	0.956910	0.755672	-0.617905	0.217146	0.653742	0.731745	-0.192799
04804	10.409241	6.967891	6.350716	0.129634	0.270994	0.112917	-0.040734	0.284943	0.957679	0.756797	-0.617010	0.215772	0.652380	0.733557	-0.190511
04805	10.099740	7.066674	6.812750	0.022549	0.492630	0.004744	-0.043844	0.281317	0.958613	0.756981	-0.616830	0.215638	0.651964	0.735106	-0.185908
04806	9.473704	5.418170	4.703083	-0.081381	0.724186	-0.072827	-0.049185	0.276405	0.959782	0.756661	-0.616940	0.216446	0.651955	0.736876	-0.178801
04807	9.314781	2.872384	0.618473	0.048262	0.763574	0.009662	-0.054019	0.270730	0.961138	0.757016	-0.616582	0.216224	0.651159	0.739278	-0.171640
04808	9.470365	0.390746	-2.736048	0.312957	0.674059	0.195188	-0.057002	0.264491	0.962702	0.759436	-0.614455	0.213781	0.648080	0.743296	-0.165838
04809	10.010369	-1.954841	-4.583686	0.533657	0.283168	0.370002	-0.055947	0.260134	0.963950	0.763127	-0.611420	0.209291	0.643822	0.747326	-0.164308
04810	13.206830	-2.902270	-3.336176	0.502588	0.115538	0.669970	-0.051636	0.255140	0.965524	0.766981	-0.609058	0.201962	0.639589	0.750968	-0.164238
04811	14.246371	-2.409048	-1.720780	0.649119	0.535843	0.804952	-0.048790	0.246234	0.967982	0.771555	-0.606154	0.193082	0.634289	0.756271	-0.160408
04812	12.850634	-0.181450	-0.949443	0.916578	0.883000	0.778908	-0.048371	0.234785	0.970843	0.777945	-0.600772	0.184048	0.626467	0.764166	-0.153590
04813	11.868624	2.246722	-0.345497	0.999659	0.926993	0.639640	-0.049076	0.223864	0.973384	0.784512	-0.594528	0.176286	0.618168	0.772283	-0.146447
04814	11.403570	3.960461	0.395525	0.820098	0.962772	0.477687	-0.051281	0.213528	0.975590	0.790041	-0.588891	0.170418	0.610906	0.779495	-0.138497
04815	10.931024	5.030419	1.122986	0.526886	1.025638	0.271531	-0.055306	0.203937	0.977421	0.793425	-0.585304	0.167018	0.606150	0.784747	-0.129437
04816	8.933616	5.181486	1.085766	0.172462	1.086847	0.035136	-0.061658	0.195137	0.978836	0.794763	-0.583658	0.166419	0.603780	0.788204	-0.119100
04817	8.555350	5.438660	1.372905	0.005442	0.853339	-0.165441	-0.068057	0.189394	0.979540	0.794722	-0.583263	0.167990	0.603146	0.789895	-0.110821
04818	8.968763	5.980332	1.766916	-0.147361	0.814678	-0.351532	-0.075820	0.184954	0.979818	0.793856	-0.583405	0.171555	0.603360	0.790842	-0.102593
04819	9.274709	6.385617	1.465801	-0.321300	0.751994	-0.496824	-0.084237	0.181937	0.979695	0.791551	-0.585000	0.176698	0.605269	0.790364	-0.094734
04820	10.051516	6.347556	1.235092	-0.610509	0.698327	-0.605548	-0.093321	0.179916	0.979245	0.787597	-0.588342	0.183153	0.609084	0.788342	-0.086797
04821	10.356835	5.602535	0.918681	-0.995571	0.733180	-0.644134	-0.102798	0.177989	0.978648	0.780901	-0.594982	0.190237	0.616138	0.783784	-0.077829
04822	10.512642	4.519662	0.309247	-1.352049	0.748246	-0.599231	-0.112164	0.175670	0.978038	0.772167	-0.604091	0.197058	0.625441	0.777312	-0.067889
04823	10.479888	3.503642	-0.149481	-1.550709	0.821600	-0.522969	-0.121292	0.172528	0.977508	0.761810	-0.615139	0.203098	0.636344	0.769310	-0.056822
04824	10.832030	2.452119	-0.946812	-1.618440	0.821697	-0.417578	-0.129801	0.168743	0.977076	0.751250	-0.626392	0.207980	0.647128	0.761025	-0.045462
04825	10.630031	1.682434	-2.034453	-1.512202	0.845369	-0.315739	-0.137604	0.164360	0.976755	0.741004	-0.637280	0.211628	0.657250	0.752901	-0.034100
04826	10.975638	1.172313	-2.400410	-1.289285	0.755566	-0.235278	-0.144389	0.160124	0.976479	0.732451	-0.646222	0.214273	0.665332	0.746162	-0.023976
04827	11.855909	0.930781	-2.173968	-1.181527	0.713253	-0.110986	-0.149902	0.155568	0.976385	0.724422	-0.654791	0.215547	0.672861	0.739626	-0.014542
04828	13.169352	1.200143	-1.444419	-1.088935	0.817483	-0.056926	-0.155819	0.149912	0.976344	0.717000	-0.662703	0.216183	0.679434	0.733724	-0.004225
04829	14.524754	1.501776	-1.879550	-1.077130	1.032491	-0.103080	-0.163533	0.143071	0.976108	0.709526	-0.670393	0.217132	0.685441	0.728083	0.008119
04830	15.303811	1.449441	-2.091946	-1.007870	1.335901	-0.271238	-0.174682	0.135095	0.975313	0.702494	-0.676966	0.219589	0.689919	0.723510	0.023350
04831	15.968368	0.749708	-2.224848	-0.953104	1.785446	-0.556411	-0.190851	0.126015	0.973497	0.694928	-0.683083	0.224661	0.693290	0.719387	0.042796
04832	12.010252	0.575240	-2.411533	-0.836087	2.081169	-0.683459	-0.209995	0.115752	0.970826	0.687786	-0.688235	0.230830	0.694876	0.716194	0.064913
04833	10.476263	0.584356	-2.147253	-0.764124	2.016107	-0.679846	-0.228598	0.106055	0.967727	0.681026	-0.692910	0.236811	0.695662	0.713182	0.086172
04834	9.719948	0.448537	-2.178681	-0.786294	2.045835	-0.647541	-0.247192	0.095992	0.964200	0.674047	-0.697826	0.242278	0.696101	0.709805	0.107794
04835	9.274115	0.330352	-2.250355	-0.799055	1.973600	-0.547808	-0.264540	0.085873	0.960544	0.667127	-0.702952	0.246576	0.696390	0.706034	0.128671
04836	9.444009	0.537570	-2.240240	-0.822737	1.919849	-0.466759	-0.280975	0.075643	0.956729	0.660159	-0.708342	0.249882	0.696594	0.701804	0.149090
04837	9.159949	0.647796	-2.394757	-0.858215	1.878561	-0.453913	-0.296977	0.065747	0.952618	0.652915	-0.713991	0.252823	0.696783	0.697061	0.169112
04838	7.988719	0.561846	-2.416340	-0.913194	1.825672	-0.443634	-0.312543	0.056243	0.948237	0.645236	-0.720036	0.255380	0.697128	0.691653	0.188753
04839	7.844335	0.441223	-2.658721	-0.954964	1.696138	-0.392748	-0.326826	0.047416	0.943894	0.637367	-0.726376	0.257180	0.697816	0.685660	0.207177
04840	7.114208	-0.183630	-2.653745	-1.090861	1.615309	-0.369333	-0.340406	0.039088	0.939466	0.628554	-0.733631	0.258274	0.699316	0.678423	0.225164
04841	7.097976	-0.435633	-2.583262	-1.114236	1.474197	-0.315419	-0.352633	0.031481	0.935232	0.619708	-0.741003	0.258606	0.701151	0.670764	0.241793
04842	6.232826	-0.983336	-2.582307	-1.119692	1.292348	-0.291668	-0.363457	0.025029	0.931275	0.610842	-0.748361	0.258511	0.703400	0.662820	0.256708
04843	5.745371	-1.170907	-2.546929	-1.008109	1.073330	-0.269339	-0.372588	0.019989	0.927782	0.602799	-0.754912	0.258343	0.705558	0.655521	0.269221
04844	5.623852	-0.841558	-2.467609	-0.830538	0.860275	-0.266811	-0.380213	0.016390	0.924754	0.595972	-0.760257	0.258509	0.707287	0.649416	0.279291
04845	5.801182	-0.108349	-1.795570	-0.652268	0.708444	-0.255064	-0.386676	0.013761	0.922113	0.590428	-0.764406	0.258996	0.708433	0.644589	0.287452
04846	5.992000	0.066065	-1.599431	-0.546860	0.583196	-0.225651	-0.392083	0.011736	0.919855	0.585718	-0.767865	0.259455	0.709370	0.640504	0.294193
04847	6.193023	0.044791	-1.386720	-0.309871	0.473605	-0.209861	-0.396604	0.010331	0.917932	0.582744	-0.769790	0.260445	0.709306	0.638213	0.299282
04848	6.313036	-0.377209	-1.197727	-0.153920	0.419834	-0.176262	-0.400547	0.009005	0.916232	0.580998	-0.770729	0.261569	0.708522	0.637099	0.303482
04849	6.066627	-0.968574	-1.877238	0.043385	0.309350	-0.131309	-0.403435	0.008054	0.914973	0.580829	-0.770409	0.262884	0.707020	0.637499	0.306132
04850	5.744611	-1.684233	-2.458457	0.342596	0.058128	-0.038137	-0.404006	0.007971	0.914722	0.583142	-0.768191	0.264250	0.704787	0.640171	0.305705
04851	6.213215	-1.825093	-1.769605	0.671009	-0.262968	0.068588	-0.401690	0.009145	0.915730	0.588189	-0.763851	0.265641	0.701911	0.645328	0.301452
04852	7.589781	-1.268772	0.328024	0.906128	-0.403286	0.156190	-0.397876	0.010568	0.917378	0.595206	-0.757961	0.266879	0.698158	0.652214	0.295284
04853	8.521408	-0.327659	1.465698	1.215444	-0.303160	0.204993	-0.394475	0.011025	0.918841	0.604518	-0.749967	0.268529	0.692060	0.661384	0.289178
04854	8.633024	1.317415	1.336838	1.653385	-0.217801	0.204716	-0.391657	0.010951	0.920046	0.616738	-0.738925	0.271336	0.682817	0.673698	0.282652
04855	7.915594	6.810045	1.211044	2.281488	-0.196334	0.065144	-0.389859	0.011827	0.920799	0.632467	-0.723336	0.277073	0.669324	0.690394	0.274519
04856	10.323434	13.598313	6.675111	2.444174	-0.477662	-0.520221	-0.389953	0.018886	0.920641	0.646679	-0.706140	0.288397	0.655548	0.707821	0.263148
04857	11.786647	12.723217	9.656925	1.837937	-0.531612	-0.933355	-0.392505	0.029228	0.919285	0.655034	-0.692752	0.301704	0.645655	0.720583	0.252763
04858	12.022404	8.402040	12.227436	0.696774	-0.656456	-0.730619	-0.393006	0.039022	0.918708	0.656701	-0.687435	0.310123	0.643653	0.725197	0.244541
04859	9.442202	7.034321	13.747778	-0.551397	-0.314534	-0.114217	-0.391658	0.042101	0.919147	0.652739	-0.691341	0.309806	0.648487	0.721301	0.243288
04860	7.968430	8.137334	14.372381	-1.526712	-0.008517	0.198779	-0.390264	0.040778	0.919800	0.643582	-0.702327	0.304204	0.658405	0.710686	0.247849
04861	9.053702	8.259559	12.917017	-2.117020	-0.126231	0.032387	-0.389154	0.041452	0.920240	0.629670	-0.717192	0.298583	0.672365	0.695642	0.252997
04862	9.717044	5.570900	9.895215	-2.473664	-0.147973	-0.139408	-0.388973	0.043474	0.920223	0.612337	-0.734094	0.293512	0.688290	0.677655	0.258922
04863	9.132129	2.354215	6.437002	-2.425223	0.048103	-0.045992	-0.389521	0.043505	0.919989	0.595340	-0.750259	0.287545	0.702740	0.659712	0.266341
04864	5.849016	-1.788138	2.436856	-2.211568	0.515605	0.223206	-0.391824	0.038444	0.919237	0.580589	-0.764735	0.279458	0.713716	0.643197	0.277322
04865	2.812057	-4.116361	-1.963244	-1.245319	0.119359	0.415867	-0.390216	0.034494	0.920077	0.573337	-0.772806	0.272132	0.720428	0.633704	0.281785
04866	6.404329	-2.057019	0.863153	-0.373004	-0.521131	0.520989	-0.383426	0.033739	0.922955	0.572698	-0.775321	0.266260	0.724570	0.630666	0.277956
04867	9.430761	0.067978	2.604744	0.022955	-0.678065	0.453703	-0.375837	0.034507	0.926043	0.574639	-0.775300	0.262108	0.727005	0.630650	0.271557
04868	9.791464	0.116034	0.738834	0.360431	-0.908476	0.327177	-0.367297	0.037696	0.929339	0.578519	-0.773120	0.260004	0.728292	0.633139	0.262157
04869	12.554937	1.142022	1.408240	0.739186	-0.982119	0.281389	-0.358445	0.041781	0.932615	0.584972	-0.768500	0.259259	0.727547	0.638484	0.251025
04870	15.891659	3.614131	3.196621	0.602008	-0.720803	0.268394	-0.351582	0.044323	0.935107	0.590343	-0.764739	0.258205	0.726557	0.642814	0.242702
04871	16.810463	4.303936	3.833313	0.017790	-0.407242	0.215915	-0.347279	0.045299	0.936667	0.591278	-0.764689	0.256204	0.727865	0.642805	0.238776
04872	15.058818	1.148138	2.189693	-0.591279	-0.314747	0.162734	-0.343974	0.046050	0.937849	0.587565	-0.768530	0.253236	0.732427	0.638154	0.237298
04873	11.919900	-2.612856	-1.232223	-0.562160	-0.450706	0.075817	-0.340152	0.048341	0.939127	0.583744	-0.772110	0.251176	0.737251	0.633648	0.234416
04874	8.298565	-2.591111	-2.858350	0.033899	-0.705601	-0.124287	-0.335615	0.053751	0.940464	0.583617	-0.771812	0.252382	0.739428	0.633574	0.227662
04875	6.371231	-1.560804	-3.827361	0.738324	-1.022322	-0.232509	-0.329357	0.062053	0.942164	0.588351	-0.766950	0.256185	0.738490	0.638699	0.216092
04876	7.579151	0.460067	-4.178618	1.338817	-1.171249	-0.255651	-0.322188	0.071519	0.943970	0.597421	-0.758146	0.261347	0.734359	0.648151	0.201538
04877	8.798150	2.860882	-4.479890	1.623964	-1.089016	-0.306725	-0.316008	0.080960	0.945296	0.608367	-0.747262	0.267374	0.728031	0.659579	0.186887
04878	9.385393	4.459693	-4.432317	1.570135	-1.041389	-0.379890	-0.310725	0.090690	0.946163	0.618602	-0.736475	0.273744	0.721651	0.670358	0.172740
04879	9.940989	4.737707	-3.119479	1.251203	-1.031143	-0.387962	-0.305657	0.100498	0.946823	0.626456	-0.727634	0.279467	0.717026	0.678564	0.159448
04880	10.104576	4.100821	-1.922305	0.906766	-1.026276	-0.262154	-0.299894	0.109383	0.947681	0.632198	-0.721158	0.283296	0.714416	0.684080	0.147119
04881	10.043348	3.561077	-0.644802	0.579058	-0.991329	-0.072611	-0.293209	0.116716	0.948897	0.636165	-0.717075	0.284776	0.713668	0.687154	0.136002
04882	9.658774	3.332759	0.467505	0.293780	-0.955538	0.039768	-0.286063	0.122998	0.950284	0.638424	-0.715079	0.284739	0.714551	0.688137	0.126033
04883	9.063046	3.223208	1.129701	0.048212	-0.979394	0.058166	-0.278614	0.129332	0.951655	0.638981	-0.714790	0.284215	0.716992	0.687276	0.116510
04884	8.672927	3.163651	1.554206	-0.113595	-1.024261	0.062268	-0.270785	0.135912	0.952997	0.638381	-0.715630	0.283450	0.720517	0.685129	0.107018
04885	8.520582	3.321777	1.826584	-0.231244	-1.057324	0.062753	-0.262676	0.142704	0.954273	0.636925	-0.717268	0.282584	0.724795	0.682028	0.097517
04886	8.710703	3.553972	1.992531	-0.328510	-1.091764	0.063019	-0.254317	0.149582	0.955483	0.634972	-0.719373	0.281626	0.729475	0.678327	0.087968
04887	8.823930	3.561226	2.006321	-0.373461	-1.108807	0.054232	-0.245788	0.156702	0.956573	0.632421	-0.721952	0.280765	0.734596	0.673966	0.078346
04888	9.113674	3.041531	1.887915	-0.384660	-1.103811	0.051765	-0.237313	0.163649	0.957550	0.629991	-0.724395	0.279935	0.739455	0.669680	0.068811
04889	9.440110	2.466955	1.646736	-0.310835	-1.051094	0.043558	-0.229175	0.170364	0.958360	0.627835	-0.726514	0.279285	0.743843	0.665697	0.059539
04890	9.806430	1.963454	1.568486	-0.171173	-0.964541	0.028641	-0.221801	0.176470	0.958990	0.626915	-0.727470	0.278863	0.746848	0.663058	0.050722
04891	10.005995	1.920893	1.462031	0.018849	-0.858270	-0.006341	-0.215355	0.182214	0.959386	0.627089	-0.727306	0.278899	0.748586	0.661682	0.042365
04892	10.157873	2.070914	1.527284	0.196857	-0.774896	-0.058338	-0.209911	0.187683	0.959538	0.628706	-0.725686	0.279480	0.748776	0.661933	0.034332
04893	9.903867	2.447711	1.329193	0.318414	-0.680614	-0.118353	-0.205494	0.193062	0.959427	0.630890	-0.723324	0.280678	0.748165	0.662970	0.026838
04894	9.486108	2.639116	0.782644	0.419387	-0.610497	-0.183340	-0.202092	0.198350	0.959070	0.633939	-0.719950	0.282478	0.746512	0.665079	0.019755
04895	9.301313	2.552241	0.204240	0.511137	-0.573963	-0.216491	-0.199121	0.203742	0.958561	0.637361	-0.716082	0.284602	0.744394	0.667620	0.012730
04896	9.188918	2.562858	-0.304405	0.549842	-0.530528	-0.203984	-0.196490	0.208661	0.958046	0.641333	-0.711745	0.286551	0.741677	0.670731	0.006030
04897	9.097393	2.663060	-0.821371	0.621120	-0.522984	-0.188425	-0.193763	0.213528	0.957529	0.645608	-0.707144	0.288336	0.738679	0.674057	-0.000837
04898	9.432269	3.225515	-0.775034	0.658325	-0.526405	-0.183326	-0.191079	0.218296	0.956993	0.650384	-0.702067	0.290005	0.735180	0.677827	-0.007826
04899	9.750014	3.301854	-0.677426	0.610482	-0.513698	-0.164270	-0.188313	0.222950	0.956468	0.654596	-0.697530	0.291472	0.732149	0.680988	-0.014588
04900	9.517047	3.124544	-0.687527	0.577685	-0.450591	-0.130967	-0.185890	0.226859	0.956023	0.658842	-0.693060	0.292565	0.728953	0.684253	-0.020632
04901	9.802070	3.035835	-0.627046	0.589637	-0.418792	-0.089879	-0.183369	0.230368	0.955671	0.663010	-0.688784	0.293249	0.725806	0.687392	-0.026434
04902	9.247801	2.897631	-1.260801	0.628002	-0.338901	-0.056026	-0.181293	0.233019	0.955424	0.667703	-0.684108	0.293545	0.722015	0.691157	-0.031564
04903	9.157563	3.021193	-1.621023	0.671042	-0.406302	-0.006886	-0.178345	0.235898	0.955272	0.672567	-0.679415	0.293342	0.718225	0.694801	-0.037487
04904	9.354016	3.303078	-2.064310	0.672205	-0.392003	0.042160	-0.175265	0.238272	0.955253	0.677722	-0.674591	0.292610	0.714126	0.698680	-0.043250
04905	9.212512	3.626551	-2.353220	0.632055	-0.461478	0.072909	-0.171414	0.241030	0.955260	0.682394	-0.670312	0.291582	0.710602	0.701845	-0.049577
04906	9.290004	3.501898	-2.313152	0.503549	-0.535736	0.117579	-0.166815	0.243950	0.955333	0.686406	-0.666834	0.290136	0.707827	0.704146	-0.056211
04907	9.124394	3.277555	-1.761697	0.351827	-0.571643	0.160608	-0.161600	0.246926	0.955465	0.689200	-0.664722	0.288354	0.706320	0.705105	-0.062763
04908	9.328487	3.448058	-1.178610	0.238988	-0.590026	0.168601	-0.156277	0.249913	0.955574	0.691393	-0.663232	0.286529	0.705374	0.705455	-0.069140
04909	9.231342	3.589234	-0.990361	0.123694	-0.562114	0.159131	-0.151143	0.252839	0.955630	0.692553	-0.662733	0.284879	0.705356	0.704881	-0.074937
04910	9.258126	3.460280	-0.794409	0.032540	-0.573764	0.141594	-0.146119	0.255893	0.955598	0.693225	-0.662645	0.283445	0.705754	0.703861	-0.080567
04911	9.101665	3.037814	-0.824636	-0.017174	-0.587223	0.144159	-0.140904	0.259083	0.955522	0.693353	-0.663110	0.282042	0.706688	0.702254	-0.086201
04912	8.921069	2.784961	-0.784207	-0.036066	-0.626682	0.141920	-0.135500	0.262489	0.955374	0.693535	-0.663504	0.280662	0.707565	0.700615	-0.092141
04913	9.020655	2.841357	-0.261558	-0.007772	-0.622733	0.137925	-0.130066	0.265949	0.955172	0.693705	-0.663897	0.279311	0.708418	0.698936	-0.098140
04914	9.325378	2.998866	0.392367	0.012186	-0.642574	0.101855	-0.124822	0.269712	0.954817	0.694169	-0.663849	0.278269	0.708906	0.697539	-0.104362
04915	9.327659	2.828482	1.045409	0.007477	-0.560841	0.058982	-0.120367	0.273245	0.954384	0.694336	-0.663931	0.277656	0.709513	0.696084	-0.109809
04916	9.301845	2.554684	1.312938	0.105272	-0.464685	0.025407	-0.116913	0.276265	0.953944	0.695356	-0.663037	0.277239	0.709092	0.695744	-0.114585
04917	8.903212	2.429774	0.786213	0.299369	-0.384829	0.014177	-0.114020	0.278867	0.953537	0.697534	-0.660967	0.276712	0.707422	0.696675	-0.119156
04918	8.918167	2.421448	0.212401	0.491235	-0.353189	0.051969	-0.111181	0.280947	0.953261	0.701291	-0.657462	0.275562	0.704152	0.699151	-0.123928
04919	8.519618	2.198703	-0.960605	0.673795	-0.348171	0.114057	-0.107866	0.282658	0.953137	0.706186	-0.653036	0.273580	0.699762	0.702602	-0.129169
04920	9.359375	2.453429	-1.213348	0.846159	-0.408272	0.191735	-0.103683	0.284247	0.953128	0.712519	-0.647384	0.270575	0.693950	0.707176	-0.135409
04921	9.620016	3.082481	-1.192101	0.886921	-0.341437	0.236045	-0.099566	0.285167	0.953292	0.718927	-0.641736	0.267056	0.687918	0.711937	-0.141119
04922	9.557909	3.349577	-1.300425	0.854166	-0.307591	0.238465	-0.095758	0.285803	0.953492	0.725236	-0.636084	0.263497	0.681809	0.716738	-0.146364
04923	9.316895	3.431864	-1.231663	0.767066	-0.333438	0.244962	-0.091642	0.286667	0.953637	0.730713	-0.631246	0.259975	0.676505	0.720660	-0.151622
04924	8.902450	3.439153	-1.206031	0.680713	-0.318279	0.223396	-0.087878	0.287529	0.953732	0.735716	-0.626743	0.256739	0.671564	0.724238	-0.156463
04925	8.986331	3.452350	-1.356097	0.626686	-0.409183	0.221219	-0.083439	0.289136	0.953645	0.740139	-0.622806	0.253587	0.667257	0.726989	-0.162034
04926	9.142272	3.477789	-1.031062	0.549936	-0.401483	0.202698	-0.079287	0.290771	0.953502	0.744179	-0.619153	0.250692	0.663257	0.729453	-0.167295
04927	9.064286	3.551404	-0.780708	0.497646	-0.442470	0.196947	-0.074823	0.292807	0.953240	0.747661	-0.616066	0.247924	0.659852	0.731250	-0.172824
04928	9.315395	3.555848	-0.132298	0.478956	-0.449967	0.172133	-0.070593	0.295019	0.952880	0.751141	-0.612839	0.245388	0.656356	0.733070	-0.178339
04929	9.307393	3.645216	0.556546	0.478493	-0.420081	0.183560	-0.066394	0.297001	0.952566	0.754436	-0.609844	0.242728	0.653007	0.734766	-0.183579
