// General information: 
//  MT Manager version: 2022.2.0 
//  XDA version: 2022.2.0 build 7381 rev 124627 built on 2023-07-19
// Device information: 
//  DeviceId: 00B4CAF0
//  ProductCode: MTW2-3A7G6
//  Firmware Version: 4.6.0
//  Hardware Version: 2.0.0
// Device settings: 
//  Filter Profile: human(46.1)
//  Option Flags: Orientation Smoother Disabled, Position/Velocity Smoother Disabled, Continuous Zero Rotation Update Disabled, AHS Disabled, ICC Disabled
// Coordinate system: ENU
PacketCounter	Acc_X	Acc_Y	Acc_Z	Gyr_X	Gyr_Y	Gyr_Z	Mat[1][1]	Mat[2][1]	Mat[3][1]	Mat[1][2]	Mat[2][2]	Mat[3][2]	Mat[1][3]	Mat[2][3]	Mat[3][3]
04113	4.887392	0.633233	8.997577	0.076554	-0.256117	0.020010	-0.220573	-0.852346	0.474188	0.973966	-0.218559	0.060194	0.052332	0.475120	0.878363
04114	4.822035	0.545643	9.009788	0.077021	-0.263132	0.019003	-0.220261	-0.851121	0.476527	0.974043	-0.218059	0.060749	0.052206	0.477538	0.877058
04115	4.693645	0.602928	9.159457	0.085629	-0.299422	0.018223	-0.219940	-0.849712	0.479182	0.974122	-0.217527	0.061381	0.052079	0.480282	0.875566
04116	4.705108	0.548108	9.177860	0.085831	-0.358470	0.015212	-0.219615	-0.848005	0.482345	0.974196	-0.217014	0.062028	0.052076	0.483521	0.873782
04117	4.643157	0.746877	9.258808	0.096604	-0.418221	0.016055	-0.219263	-0.845990	0.486030	0.974273	-0.216454	0.062763	0.052106	0.487288	0.871685
04118	4.603807	0.850012	9.362302	0.103253	-0.502401	0.035660	-0.218664	-0.843594	0.490443	0.974401	-0.215677	0.063458	0.052245	0.491764	0.869160
04119	4.573323	0.925797	9.429601	0.110957	-0.606990	0.054789	-0.217856	-0.840687	0.495766	0.974565	-0.214735	0.064123	0.052551	0.497126	0.866085
04120	4.539470	0.954883	9.606513	0.109613	-0.736550	0.076962	-0.216727	-0.837153	0.502199	0.974785	-0.213571	0.064657	0.053127	0.503549	0.862332
04121	4.416269	0.964050	9.725709	0.092394	-0.888644	0.100927	-0.215283	-0.832846	0.509923	0.975047	-0.212297	0.064911	0.054194	0.511173	0.857768
04122	4.255206	1.025852	10.057418	0.080477	-1.094257	0.134861	-0.213376	-0.827473	0.519383	0.975375	-0.210794	0.064876	0.055799	0.520436	0.852075
04123	4.201695	1.137611	10.443380	0.048769	-1.382675	0.183933	-0.210808	-0.820566	0.531255	0.975787	-0.209060	0.064295	0.058306	0.531945	0.844769
04124	4.402242	2.008040	11.201838	-0.033905	-1.706432	0.276317	-0.207093	-0.811931	0.545785	0.976339	-0.207019	0.062493	0.062247	0.545813	0.835592
04125	5.076865	2.659648	11.711036	-0.200366	-2.002021	0.432967	-0.201587	-0.801712	0.562690	0.977083	-0.204691	0.058405	0.068354	0.561568	0.824602
04126	5.914667	3.201854	12.947322	-0.388345	-2.252499	0.641285	-0.193695	-0.790158	0.581491	0.978063	-0.201834	0.051531	0.076647	0.578716	0.811919
04127	6.728861	4.188797	14.225138	-0.686579	-2.408497	0.887525	-0.183039	-0.777764	0.601315	0.979163	-0.198948	0.040728	0.087954	0.596240	0.797973
04128	6.620548	3.060528	11.908324	-1.060864	-2.494422	1.038008	-0.170501	-0.764718	0.621398	0.979980	-0.197393	0.025970	0.102800	0.613386	0.783065
04129	8.418525	2.276066	11.607705	-0.845182	-2.378780	1.104468	-0.157082	-0.752071	0.640090	0.980863	-0.194300	0.012418	0.115031	0.629791	0.768200
04130	7.384960	2.436872	9.816472	-0.812222	-2.200908	1.220113	-0.142461	-0.740377	0.656923	0.981704	-0.190406	-0.001701	0.126341	0.644661	0.753956
04131	6.038469	2.555983	8.792193	-0.886096	-2.125219	1.343267	-0.126456	-0.729035	0.672694	0.982334	-0.186337	-0.017280	0.137946	0.658625	0.739719
04132	3.908856	2.833150	8.781954	-0.952193	-2.113624	1.418895	-0.109481	-0.717570	0.687828	0.982630	-0.182445	-0.033930	0.149838	0.672166	0.725081
04133	0.758303	5.420617	9.742844	-0.975963	-1.823785	1.140712	-0.095375	-0.707254	0.700497	0.982281	-0.180915	-0.048920	0.161329	0.683419	0.711977
04134	6.469662	6.447553	12.522357	-0.853334	-1.052640	0.124102	-0.092417	-0.700240	0.707901	0.980973	-0.185935	-0.055857	0.170736	0.689269	0.704100
04135	2.873483	6.601890	15.102560	-0.592442	0.500068	-0.744416	-0.100582	-0.702213	0.704826	0.979216	-0.195273	-0.054810	0.176122	0.684665	0.707259
04136	-2.706006	5.459535	10.330621	-0.513432	1.378382	-1.302495	-0.115782	-0.708933	0.695707	0.976885	-0.207987	-0.049365	0.179695	0.673910	0.716627
04137	-5.525244	4.412372	7.797841	-0.560147	1.565371	-1.494758	-0.133235	-0.716132	0.685130	0.973991	-0.222448	-0.043105	0.183274	0.661567	0.727145
04138	-4.511117	2.357695	7.346407	-0.417590	1.559415	-1.516928	-0.150868	-0.722860	0.674324	0.971058	-0.236135	-0.035874	0.185163	0.649395	0.737564
04139	-2.225624	1.318093	8.960344	-0.142387	1.727901	-1.510634	-0.168761	-0.730288	0.661966	0.968360	-0.248108	-0.026843	0.183842	0.636492	0.749053
04140	-0.493475	1.041384	9.962495	0.099026	2.099640	-1.465551	-0.186755	-0.739766	0.646428	0.965925	-0.258292	-0.016529	0.179195	0.621314	0.762796
04141	0.170573	0.804054	9.843616	0.268167	2.490606	-1.354341	-0.204261	-0.751435	0.627394	0.963724	-0.266838	-0.005834	0.171796	0.603442	0.778680
04142	0.599340	0.524655	9.223097	0.386457	2.749942	-1.172041	-0.220148	-0.764576	0.605771	0.961873	-0.273462	0.004410	0.162283	0.583645	0.795627
04143	1.291722	0.370042	8.612297	0.515291	2.882515	-0.967208	-0.234019	-0.778413	0.582502	0.960460	-0.278050	0.014298	0.150835	0.562816	0.812704
04144	1.605308	0.760856	8.144580	0.657118	2.899389	-0.765188	-0.245556	-0.792277	0.558569	0.959564	-0.280461	0.024032	0.137617	0.541884	0.829110
04145	1.905485	1.576311	7.473615	0.767669	2.748227	-0.591343	-0.254866	-0.805222	0.535408	0.959067	-0.281169	0.033675	0.123425	0.522074	0.843922
04146	2.587565	2.642540	7.275440	0.844182	2.411727	-0.480195	-0.262284	-0.816243	0.514737	0.958799	-0.280758	0.043344	0.109137	0.504898	0.856252
04147	5.179391	3.483063	8.286959	0.897789	1.997115	-0.460411	-0.268789	-0.824881	0.497316	0.958475	-0.280134	0.053388	0.095276	0.491015	0.865925
04148	9.522377	4.130470	9.846291	0.882347	1.806993	-0.552373	-0.275693	-0.832080	0.481287	0.957746	-0.280462	0.063739	0.081947	0.478523	0.874243
04149	13.825165	4.063591	10.089071	0.829403	1.943935	-0.735303	-0.284248	-0.839158	0.463699	0.956292	-0.282767	0.074484	0.068615	0.464603	0.882857
04150	14.621254	3.425772	9.333192	0.857220	2.207791	-0.931168	-0.294508	-0.846573	0.443373	0.954117	-0.286731	0.086285	0.054083	0.448441	0.892175
04151	14.504347	1.546753	8.791945	0.886736	2.281556	-1.175759	-0.306827	-0.853184	0.421823	0.950973	-0.292896	0.099307	0.038823	0.431613	0.901223
04152	16.387650	-1.513285	8.425684	1.063402	2.245844	-1.394266	-0.320749	-0.858549	0.400017	0.946915	-0.300353	0.114631	0.021730	0.415550	0.909311
04153	19.164961	-2.897665	8.046763	1.465470	2.383880	-1.406203	-0.334350	-0.863973	0.376511	0.942449	-0.306561	0.133454	0.000123	0.399463	0.916749
04154	18.948232	-2.472086	7.188052	1.561097	2.571288	-1.078852	-0.344212	-0.870683	0.351324	0.938604	-0.309845	0.151715	-0.023240	0.381977	0.923880
04155	11.981942	10.273469	8.143661	0.171373	0.698117	-0.351079	-0.347375	-0.872215	0.344341	0.937331	-0.312314	0.154500	-0.027215	0.376431	0.926045
04156	13.950659	-5.981325	-8.626390	-3.471563	0.755334	0.377543	-0.343752	-0.876178	0.337856	0.939056	-0.321802	0.120898	0.002794	0.358824	0.933401
04157	15.981276	-3.249637	-1.573804	-1.942646	-0.211783	0.413846	-0.339883	-0.876737	0.340311	0.940214	-0.325161	0.101326	0.021820	0.354404	0.934838
04158	12.781443	-3.033460	-1.060032	-2.581204	-0.464233	-0.106098	-0.340729	-0.874740	0.344576	0.938951	-0.335206	0.077514	0.047699	0.349952	0.935553
04159	7.536960	-3.088144	4.407032	-2.761227	-0.740224	-0.935291	-0.349068	-0.868918	0.350904	0.933997	-0.353034	0.054919	0.076161	0.346914	0.934800
04160	2.783091	-5.966794	3.458375	-1.839644	-1.126349	-1.624502	-0.363214	-0.859080	0.360636	0.926608	-0.373505	0.043495	0.097333	0.349966	0.931692
04161	5.535676	-10.608300	24.236301	-0.241346	-1.092019	-2.089224	-0.381420	-0.847189	0.369849	0.918570	-0.392228	0.048857	0.103674	0.358367	0.927806
04162	7.594961	-9.599308	29.301483	-1.853365	0.179889	-1.146970	-0.392129	-0.843222	0.367712	0.912051	-0.408506	0.035844	0.119989	0.349428	0.929249
04163	-7.588680	-25.167825	-1.629928	-3.631051	0.164450	0.725111	-0.385759	-0.846752	0.366335	0.909912	-0.414800	-0.000617	0.152478	0.333095	0.930483
04164	3.603876	-10.536506	1.450400	3.534907	-1.157117	-0.515286	-0.388859	-0.840627	0.377008	0.912807	-0.406967	0.034074	0.124786	0.357385	0.925583
04165	11.059413	18.669015	21.692613	4.616710	-1.346602	-0.547611	-0.392422	-0.833414	0.389136	0.915577	-0.394367	0.078693	0.087879	0.387165	0.917813
04166	3.424547	4.433935	9.100378	-3.011777	0.484078	-0.049210	-0.393368	-0.835039	0.384670	0.912342	-0.406222	0.051148	0.113551	0.371070	0.921636
04167	4.008987	-4.187874	5.352390	-0.290757	-0.314924	-0.022575	-0.393213	-0.833765	0.387582	0.911910	-0.407512	0.048523	0.117488	0.372520	0.920557
04168	4.268678	2.458926	11.541787	1.079472	-0.469372	-0.004288	-0.392728	-0.831966	0.391914	0.913109	-0.403507	0.058430	0.109528	0.380808	0.918144
04169	4.755473	1.685925	9.165250	-0.325378	-0.169494	0.022148	-0.392338	-0.831399	0.393505	0.912828	-0.404580	0.055322	0.113210	0.380908	0.917656
04170	4.487835	1.061312	9.215359	0.008764	-0.190502	0.056565	-0.391614	-0.830888	0.395303	0.913050	-0.404102	0.055146	0.113922	0.382527	0.916894
04171	3.340510	0.479087	9.248720	-0.217091	-0.164964	0.068741	-0.390798	-0.830522	0.396875	0.913062	-0.404381	0.052850	0.116596	0.383025	0.916350
04172	3.589346	-0.278824	9.447767	-0.117118	-0.269831	0.057780	-0.389961	-0.829707	0.399396	0.913140	-0.404377	0.051514	0.118765	0.384793	0.915330
04173	4.125145	-0.438950	9.474840	-0.071645	-0.321317	0.025298	-0.389346	-0.828557	0.402371	0.913147	-0.404463	0.050723	0.120717	0.387172	0.914071
04174	4.224093	-0.123390	9.580152	-0.037106	-0.343840	0.014901	-0.388800	-0.827269	0.405537	0.913150	-0.404509	0.050291	0.122439	0.389870	0.912694
04175	4.438348	-0.167157	9.554885	-0.037124	-0.345299	-0.002860	-0.388401	-0.825895	0.408708	0.913087	-0.404697	0.049930	0.124166	0.392579	0.911298
04176	4.553109	0.149015	9.474903	0.030488	-0.338588	-0.013682	-0.388112	-0.824492	0.411803	0.913062	-0.404715	0.050231	0.125248	0.395497	0.909887
04177	4.816852	0.812657	9.547727	0.082740	-0.316369	-0.023425	-0.387928	-0.823130	0.414691	0.913069	-0.404598	0.051045	0.125766	0.398443	0.908530
04178	5.493649	1.276706	9.551439	0.098492	-0.236622	-0.020583	-0.387826	-0.822088	0.416847	0.913103	-0.404400	0.051993	0.125830	0.400789	0.907488
04179	4.792523	1.469045	9.419051	0.022561	-0.113649	-0.006544	-0.387742	-0.821594	0.417898	0.913100	-0.404381	0.052191	0.126111	0.401819	0.906994
04180	4.418834	1.251121	9.330916	-0.003072	-0.083512	0.012216	-0.387534	-0.821294	0.418680	0.913134	-0.404319	0.052080	0.126508	0.402494	0.906639
04181	4.359634	1.132767	9.258879	-0.026844	-0.071040	0.028103	-0.387188	-0.821110	0.419362	0.913202	-0.404216	0.051685	0.127074	0.402974	0.906347
04182	4.484584	0.741601	9.350835	-0.049868	-0.050528	0.031964	-0.386839	-0.821022	0.419855	0.913252	-0.404181	0.051066	0.127771	0.403188	0.906153
04183	4.374888	0.448856	9.320993	-0.034979	-0.055346	0.030043	-0.386496	-0.820908	0.420395	0.913317	-0.404096	0.050590	0.128350	0.403506	0.905930
04184	4.403967	0.522272	9.321157	-0.025016	-0.054035	0.021367	-0.386239	-0.820762	0.420914	0.913357	-0.404048	0.050241	0.128833	0.403850	0.905708
04185	4.399664	0.468225	9.300491	-0.031756	-0.049981	0.018985	-0.386002	-0.820625	0.421399	0.913382	-0.404040	0.049840	0.129362	0.404137	0.905505
04186	3.626058	0.570153	8.916029	-0.043672	-0.053054	0.018556	-0.385772	-0.820472	0.421907	0.913388	-0.404091	0.049334	0.130012	0.404397	0.905296
04187	2.947415	0.705599	9.037062	-0.043419	-0.206583	0.030830	-0.385222	-0.819747	0.423815	0.913443	-0.404034	0.048777	0.131251	0.405921	0.904434
04188	4.719830	0.072635	9.274131	-0.068606	-0.275334	0.027281	-0.384617	-0.818723	0.426336	0.913447	-0.404116	0.048009	0.132983	0.407900	0.903290
04189	4.722312	0.441722	9.347180	-0.017231	-0.249751	0.021563	-0.384088	-0.817777	0.428623	0.913500	-0.404030	0.047728	0.134146	0.409879	0.902222
04190	5.094815	0.415165	9.353104	-0.004672	-0.194382	0.007875	-0.383762	-0.816997	0.430399	0.913513	-0.404012	0.047620	0.134981	0.411450	0.901382
04191	4.407179	0.604450	9.285894	0.003387	-0.160293	-0.000130	-0.383548	-0.816323	0.431866	0.913510	-0.404019	0.047618	0.135611	0.412778	0.900680
04192	4.402913	0.626924	9.260719	0.003689	-0.172531	-0.003589	-0.383354	-0.815581	0.433436	0.913491	-0.404060	0.047635	0.136284	0.414201	0.899924
04193	4.580184	0.706973	9.307079	0.006917	-0.180074	0.002620	-0.383085	-0.814832	0.435080	0.913504	-0.404030	0.047652	0.136957	0.415702	0.899130
04194	5.328772	0.308648	9.329908	-0.004101	-0.116750	-0.011536	-0.383038	-0.814286	0.436143	0.913444	-0.404168	0.047634	0.137487	0.416637	0.898616
04195	4.810055	0.589731	9.353413	0.031835	-0.098979	-0.020025	-0.383086	-0.813779	0.437045	0.913403	-0.404219	0.047974	0.137621	0.417577	0.898159
04196	4.738841	0.558803	9.259343	0.029669	-0.062592	-0.022262	-0.383211	-0.813414	0.437615	0.913349	-0.404303	0.048307	0.137636	0.418207	0.897864
04197	4.568082	0.588613	9.215236	0.054880	-0.059522	-0.019601	-0.383309	-0.813073	0.438163	0.913342	-0.404253	0.048852	0.137409	0.418918	0.897567
04198	4.470756	0.579515	9.208240	0.040464	-0.055181	-0.020042	-0.383424	-0.812747	0.438667	0.913310	-0.404273	0.049271	0.137296	0.419531	0.897298
04199	4.319220	0.718451	9.178065	0.048706	-0.073584	-0.007965	-0.383397	-0.812392	0.439347	0.913339	-0.404154	0.049710	0.137179	0.420331	0.896941
04200	4.589994	0.701510	9.189716	0.022183	-0.075305	-0.003131	-0.383330	-0.812049	0.440039	0.913347	-0.404113	0.049892	0.137311	0.421033	0.896592
04201	4.494086	0.697286	9.159331	0.016808	-0.075118	0.001350	-0.383217	-0.811725	0.440736	0.913368	-0.404053	0.050004	0.137491	0.421716	0.896243
04202	4.696738	0.659667	9.191156	0.004887	-0.069494	0.007504	-0.383060	-0.811448	0.441381	0.913393	-0.403998	0.049983	0.137759	0.422301	0.895927
04203	4.526761	0.667297	9.193793	-0.003929	-0.055295	0.013011	-0.382867	-0.811253	0.441906	0.913430	-0.403930	0.049857	0.138052	0.422739	0.895675
04204	4.640767	0.508193	9.210126	-0.018077	-0.059166	0.014831	-0.382658	-0.811049	0.442461	0.913452	-0.403913	0.049598	0.138489	0.423146	0.895415
04205	4.654374	0.582195	9.157178	-0.004879	-0.047942	0.009337	-0.382508	-0.810871	0.442918	0.913473	-0.403880	0.049481	0.138763	0.423521	0.895196
04206	4.585965	0.480094	9.145536	-0.020196	-0.046584	0.008337	-0.382375	-0.810693	0.443358	0.913466	-0.403925	0.049232	0.139172	0.423817	0.894992
04207	4.498264	0.621126	9.222801	-0.004868	-0.056697	0.002833	-0.382272	-0.810451	0.443890	0.913463	-0.403944	0.049143	0.139479	0.424263	0.894733
04208	4.587123	0.524871	9.210048	-0.016743	-0.060628	0.007287	-0.382128	-0.810209	0.444454	0.913457	-0.403983	0.048929	0.139909	0.424687	0.894464
04209	4.597551	0.500115	9.172399	-0.003477	-0.068536	-0.001676	-0.382050	-0.809897	0.445089	0.913438	-0.404033	0.048873	0.140249	0.425233	0.894152
04210	4.696296	0.577907	9.196399	-0.016145	-0.062087	-0.006432	-0.382029	-0.809593	0.445660	0.913380	-0.404181	0.048726	0.140679	0.425671	0.893875
04211	4.666140	0.597098	9.123874	-0.015952	-0.055156	-0.006393	-0.382012	-0.809319	0.446173	0.913325	-0.404323	0.048580	0.141081	0.426059	0.893627
04212	4.579644	0.606099	9.205351	-0.033291	-0.052424	-0.006055	-0.382001	-0.809057	0.446656	0.913245	-0.404541	0.048278	0.141631	0.426349	0.893402
04213	4.643326	0.447707	9.144761	-0.035949	-0.061500	-0.007931	-0.381988	-0.808749	0.447225	0.913155	-0.404780	0.047960	0.142240	0.426706	0.893135
04214	4.720999	0.555329	9.128504	0.002340	-0.055760	-0.001418	-0.381929	-0.808491	0.447741	0.913143	-0.404809	0.047956	0.142477	0.427167	0.892877
04215	4.702277	0.593936	9.165957	0.023030	-0.057344	-0.004992	-0.381895	-0.808212	0.448273	0.913149	-0.404773	0.048152	0.142532	0.427729	0.892599
04216	4.668065	0.623397	9.174201	0.023724	-0.047751	0.002937	-0.381808	-0.808006	0.448719	0.913183	-0.404675	0.048319	0.142543	0.428212	0.892366
04217	4.666770	0.550887	9.118912	0.017662	-0.043617	0.006891	-0.381686	-0.807833	0.449135	0.913227	-0.404565	0.048413	0.142595	0.428641	0.892151
04218	4.646984	0.589698	9.156969	0.021484	-0.043760	0.005930	-0.381577	-0.807655	0.449547	0.913270	-0.404453	0.048547	0.142611	0.429082	0.891937
04219	4.674560	0.553323	9.114773	0.007305	-0.038049	0.009547	-0.381438	-0.807517	0.449914	0.913308	-0.404366	0.048537	0.142735	0.429424	0.891752
04220	4.624315	0.570594	9.094325	0.004696	-0.047964	0.012432	-0.381263	-0.807347	0.450366	0.913352	-0.404273	0.048492	0.142921	0.429831	0.891526
04221	4.658425	0.598346	9.127929	-0.007940	-0.042328	0.012483	-0.381091	-0.807201	0.450772	0.913380	-0.404229	0.048333	0.143201	0.430145	0.891330
04222	4.598325	0.563570	9.089392	-0.011958	-0.044368	0.014247	-0.380905	-0.807054	0.451193	0.913407	-0.404193	0.048131	0.143525	0.430456	0.891128
04223	4.553974	0.661345	9.098865	-0.015396	-0.058158	0.021255	-0.380630	-0.806875	0.451744	0.913457	-0.404110	0.047866	0.143933	0.430868	0.890862
04224	4.556034	0.558838	9.111806	-0.031022	-0.071579	0.024939	-0.380307	-0.806654	0.452412	0.913497	-0.404070	0.047445	0.144534	0.431321	0.890546
04225	4.720554	0.543641	9.152162	-0.025300	-0.080939	0.027314	-0.379943	-0.806400	0.453169	0.913556	-0.403982	0.047065	0.145119	0.431877	0.890181
04226	4.751963	0.494742	9.131201	-0.018646	-0.073814	0.021759	-0.379645	-0.806155	0.453854	0.913601	-0.403914	0.046769	0.145615	0.432397	0.889848
04227	4.699659	0.542253	9.121559	-0.003660	-0.070894	0.014838	-0.379408	-0.805894	0.454515	0.913643	-0.403833	0.046637	0.145964	0.432959	0.889517
04228	4.781197	0.493158	9.176652	-0.009063	-0.069864	0.014609	-0.379181	-0.805636	0.455161	0.913675	-0.403782	0.046459	0.146357	0.433486	0.889196
04229	4.711905	0.426471	9.072938	0.025123	-0.069300	0.012359	-0.378969	-0.805371	0.455806	0.913750	-0.403596	0.046594	0.146436	0.434151	0.888859
04230	4.763617	0.599529	9.130175	0.064948	-0.077151	0.023656	-0.378648	-0.805117	0.456521	0.913924	-0.403151	0.047032	0.146180	0.435035	0.888468
04231	4.754528	0.602128	9.074085	0.049564	-0.074959	0.017999	-0.378377	-0.804849	0.457219	0.914056	-0.402813	0.047359	0.146057	0.435843	0.888092
04232	4.810068	0.628180	9.077368	0.039768	-0.066718	0.028578	-0.378026	-0.804659	0.457843	0.914212	-0.402437	0.047550	0.145992	0.436541	0.887761
04233	4.776966	0.657209	9.085435	0.027810	-0.055386	0.031003	-0.377664	-0.804527	0.458373	0.914361	-0.402090	0.047623	0.145993	0.437104	0.887483
04234	4.776486	0.698208	9.071761	0.022523	-0.046401	0.042058	-0.377220	-0.804479	0.458823	0.914542	-0.401680	0.047599	0.146007	0.437568	0.887252
04235	4.714001	0.670971	9.114155	0.002215	-0.044308	0.054428	-0.376660	-0.804489	0.459265	0.914742	-0.401256	0.047338	0.146200	0.437939	0.887037
04236	4.714528	0.569458	9.127811	0.007728	-0.051060	0.058464	-0.376059	-0.804486	0.459763	0.914963	-0.400780	0.047107	0.146367	0.438381	0.886791
04237	4.757804	0.671128	9.110086	0.007391	-0.046648	0.066580	-0.375385	-0.804533	0.460231	0.915215	-0.400236	0.046835	0.146521	0.438791	0.886563
04238	4.709167	0.676829	9.112853	-0.008170	-0.051302	0.076822	-0.374614	-0.804601	0.460740	0.915480	-0.399681	0.046378	0.146834	0.439172	0.886323
04239	4.646605	0.531578	9.113228	-0.010185	-0.063466	0.086643	-0.373731	-0.804653	0.461366	0.915781	-0.399053	0.045857	0.147210	0.439648	0.886024
04240	4.557559	0.588251	9.161258	0.014487	-0.076674	0.089604	-0.372805	-0.804659	0.462104	0.916126	-0.398295	0.045540	0.147409	0.440323	0.885656
04241	4.428249	0.828154	9.353495	0.033729	-0.125558	0.107572	-0.371638	-0.804518	0.463287	0.916567	-0.397306	0.045310	0.147614	0.441473	0.885049
04242	4.717203	0.609176	9.128633	0.014809	-0.158644	0.122047	-0.370292	-0.804287	0.464764	0.917031	-0.396286	0.044844	0.148112	0.442809	0.884298
04243	4.652661	0.685412	9.281321	0.083201	-0.193879	0.143385	-0.368694	-0.803979	0.466565	0.917675	-0.394789	0.044881	0.148111	0.444702	0.883348
04244	4.396657	0.401616	9.334545	0.024030	-0.253306	0.131826	-0.367116	-0.803355	0.468878	0.918185	-0.393650	0.044446	0.148868	0.446834	0.882144
04245	4.607528	0.466912	9.259708	0.110930	-0.321443	0.134566	-0.365405	-0.802427	0.471794	0.918834	-0.392097	0.044760	0.149073	0.449856	0.880572
04246	4.551449	0.354365	9.230046	0.128577	-0.390672	0.120069	-0.363726	-0.801118	0.475302	0.919453	-0.390582	0.045292	0.149360	0.453492	0.878656
04247	4.425327	0.588660	9.350054	0.205583	-0.477888	0.113085	-0.361977	-0.799365	0.479570	0.920161	-0.388765	0.046525	0.149250	0.458123	0.876269
04248	4.283282	0.776713	9.499837	0.259221	-0.608965	0.136219	-0.359823	-0.797071	0.484979	0.921029	-0.386511	0.048106	0.149106	0.463989	0.873202
04249	4.325747	0.711701	9.491092	0.300825	-0.769580	0.168278	-0.357129	-0.794105	0.491788	0.922072	-0.383792	0.049875	0.149139	0.471276	0.869285
04250	4.242309	0.558408	9.634096	0.340845	-0.941439	0.187470	-0.354002	-0.790329	0.500063	0.923237	-0.380714	0.051870	0.149387	0.480038	0.864434
04251	3.999640	0.519994	9.927342	0.382308	-1.173789	0.188070	-0.350513	-0.785328	0.510294	0.924462	-0.377404	0.054183	0.150035	0.490740	0.858291
04252	3.816464	1.007015	10.159155	0.415443	-1.499767	0.214824	-0.346272	-0.778660	0.523243	0.925826	-0.373688	0.056594	0.151462	0.504029	0.850302
04253	3.854315	1.271000	10.285718	0.414588	-1.861496	0.269260	-0.340940	-0.770113	0.539153	0.927375	-0.369509	0.058639	0.154063	0.519989	0.840164
04254	3.846813	1.737897	10.580498	0.418966	-2.273075	0.349927	-0.334153	-0.759347	0.558331	0.929200	-0.364645	0.060185	0.157892	0.538912	0.827432
04255	4.057717	1.925672	10.565032	0.289007	-2.734291	0.440153	-0.325662	-0.745892	0.581025	0.931107	-0.359775	0.060019	0.164270	0.560542	0.811670
04256	4.779945	1.349652	10.880279	-0.004186	-3.189426	0.547756	-0.315160	-0.729581	0.606948	0.932844	-0.355790	0.056706	0.174574	0.584059	0.792716
04257	5.412499	0.564865	10.563463	-0.204859	-3.643151	0.632689	-0.302661	-0.710058	0.635778	0.934415	-0.352494	0.051150	0.187788	0.609562	0.770175
04258	5.785485	0.675873	10.918709	-0.139127	-4.037666	0.703376	-0.288236	-0.687331	0.666705	0.936212	-0.348480	0.045492	0.201065	0.637290	0.743932
04259	7.351060	2.548301	12.767559	-0.002376	-4.343416	0.822372	-0.271536	-0.661835	0.698744	0.938496	-0.342984	0.039838	0.213292	0.666586	0.714262
04260	8.369385	2.905239	13.166912	-0.546225	-4.406297	1.021312	-0.252180	-0.635340	0.729896	0.939948	-0.340109	0.028704	0.230007	0.693303	0.682955
04261	9.945983	1.355931	12.097812	-0.574150	-4.316095	1.087412	-0.231691	-0.608539	0.758947	0.941198	-0.337441	0.016762	0.245899	0.718202	0.650937
04262	9.889450	1.693382	11.695916	-0.335550	-3.994446	1.082961	-0.211430	-0.583007	0.784474	0.942739	-0.333473	0.006254	0.257955	0.740877	0.620130
04263	9.283567	0.908610	10.541129	-0.275047	-3.775504	1.093735	-0.191190	-0.558248	0.807345	0.944201	-0.329344	-0.004129	0.268199	0.761507	0.590065
04264	8.126029	1.127840	10.397112	-0.020360	-3.630072	1.111560	-0.170827	-0.533851	0.828143	0.946145	-0.323468	-0.013351	0.275006	0.781263	0.560357
04265	7.611275	1.188572	10.274040	0.028155	-3.500242	1.167283	-0.150064	-0.509901	0.847043	0.948079	-0.317202	-0.022985	0.280404	0.799615	0.531027
04266	6.761312	1.364316	9.410644	0.133927	-3.384601	1.233684	-0.128808	-0.486390	0.864195	0.950164	-0.310013	-0.032861	0.283894	0.816895	0.502083
04267	5.286546	1.908897	8.777286	0.112723	-3.375732	1.346587	-0.106383	-0.462643	0.880139	0.952053	-0.302744	-0.044062	0.286842	0.833251	0.472667
04268	3.406782	2.828871	9.071572	0.016950	-3.586534	1.497871	-0.081767	-0.436927	0.895773	0.953498	-0.295904	-0.057295	0.290096	0.849433	0.440804
04269	1.766474	4.109950	8.720297	-0.409135	-3.904482	1.538795	-0.055657	-0.407973	0.911296	0.953337	-0.292966	-0.072932	0.296733	0.864713	0.405242
04270	13.018414	3.973847	14.520546	-0.227227	-3.408016	0.792961	-0.037924	-0.380580	0.923970	0.953017	-0.291859	-0.081099	0.300534	0.877483	0.373768
04271	10.029656	6.676942	15.574744	-0.538787	-0.888280	0.093970	-0.034362	-0.373041	0.927178	0.951397	-0.296303	-0.083955	0.306044	0.879230	0.365091
04272	1.476227	3.615526	11.589084	-1.019676	0.568610	-0.389242	-0.039831	-0.376830	0.925426	0.948070	-0.306741	-0.084099	0.315557	0.874019	0.369479
04273	-2.604231	2.824713	9.230285	-0.819223	0.905710	-0.671189	-0.049110	-0.382617	0.922601	0.945133	-0.316499	-0.080947	0.322974	0.868005	0.377167
04274	-2.417088	2.146529	8.133325	-0.630058	0.949992	-0.801108	-0.059770	-0.388244	0.919616	0.942631	-0.325078	-0.075975	0.328444	0.862317	0.385401
04275	-1.153166	1.835505	9.209096	-0.419236	1.234869	-0.875645	-0.072131	-0.395968	0.915427	0.940643	-0.332190	-0.069572	0.331644	0.856072	0.396426
04276	-0.053282	1.247687	10.018818	-0.346319	1.681091	-0.887440	-0.086066	-0.407294	0.909233	0.938775	-0.338745	-0.062880	0.333609	0.848153	0.411512
04277	0.626657	0.795191	10.123703	-0.275785	2.179743	-0.829631	-0.101170	-0.422833	0.900542	0.937048	-0.344595	-0.056527	0.334223	0.838133	0.431078
04278	0.849794	0.231036	9.699284	-0.218467	2.674146	-0.700003	-0.116656	-0.442631	0.889083	0.935541	-0.349481	-0.051238	0.333397	0.825797	0.454869
04279	1.006039	-0.300793	9.276526	-0.090239	3.073952	-0.540188	-0.131959	-0.465897	0.874944	0.934540	-0.352755	-0.046891	0.330487	0.811482	0.481949
04280	1.626773	-0.444490	9.335874	0.079806	3.370914	-0.396992	-0.146723	-0.491562	0.858393	0.934233	-0.354053	-0.043064	0.325085	0.795621	0.511182
04281	2.668541	-0.768814	9.392158	0.308263	3.685523	-0.288594	-0.161297	-0.519541	0.839083	0.934747	-0.353169	-0.038987	0.316593	0.778042	0.542605
04282	3.591315	-0.405059	9.521473	0.535060	3.977326	-0.202010	-0.175553	-0.549374	0.816927	0.936055	-0.350175	-0.034335	0.304930	0.758661	0.575719
04283	3.984890	-0.165952	9.241445	0.710924	4.223556	-0.129282	-0.189398	-0.580517	0.791915	0.937906	-0.345669	-0.029081	0.290622	0.737234	0.609939
04284	4.183676	-0.057168	8.957165	0.854130	4.355561	-0.091509	-0.202563	-0.611797	0.764639	0.940125	-0.340052	-0.023029	0.274106	0.714191	0.644048
04285	4.541080	-0.122931	8.806888	0.979197	4.384015	-0.091212	-0.215096	-0.642272	0.735677	0.942500	-0.333830	-0.015878	0.255789	0.689960	0.677146
04286	5.019853	-0.249134	8.727619	1.157810	4.321028	-0.123126	-0.226878	-0.671134	0.705766	0.945058	-0.326827	-0.006988	0.235353	0.665404	0.708411
04287	5.481354	0.132053	8.825635	1.303773	4.192126	-0.183295	-0.238079	-0.697923	0.675442	0.947530	-0.319647	0.003698	0.213322	0.640882	0.737404
04288	6.425839	0.633019	9.951394	1.348509	3.990914	-0.247124	-0.248497	-0.722224	0.645478	0.949643	-0.312955	0.015430	0.190861	0.616807	0.763623
04289	9.582228	0.619369	12.441823	1.362810	3.908412	-0.381447	-0.259200	-0.744668	0.615049	0.951094	-0.307595	0.028400	0.168037	0.592331	0.787977
04290	11.634801	0.574478	13.926908	1.324118	4.163246	-0.592347	-0.271350	-0.766932	0.581536	0.951582	-0.304442	0.042516	0.144437	0.564916	0.812409
04291	11.907436	0.303581	14.423395	1.276652	4.529735	-0.834382	-0.285336	-0.789268	0.543727	0.950920	-0.304004	0.057733	0.119728	0.533514	0.837274
04292	11.183452	0.224333	14.010005	1.196300	4.804803	-1.034248	-0.300317	-0.810901	0.502244	0.949163	-0.306136	0.073279	0.094333	0.498718	0.861616
04293	10.327486	0.167284	13.272008	1.054258	4.854685	-1.186355	-0.315602	-0.830556	0.458880	0.946348	-0.310888	0.088171	0.069429	0.462088	0.884112
04294	10.131007	0.541502	12.979018	0.890516	4.715614	-1.277679	-0.330401	-0.847455	0.415519	0.942727	-0.317686	0.101690	0.045827	0.425319	0.903882
04295	10.490796	0.920644	12.841130	0.651940	4.472787	-1.318674	-0.344444	-0.861412	0.373267	0.938483	-0.326374	0.112822	0.024638	0.389166	0.920838
04296	10.279200	0.972784	13.145638	0.402265	4.140923	-1.338896	-0.357633	-0.872363	0.333288	0.933840	-0.336512	0.121252	0.006379	0.354601	0.934996
04297	9.008498	5.169508	14.621964	-1.441286	1.216450	-0.629432	-0.363695	-0.874414	0.321132	0.931390	-0.347078	0.109773	0.015470	0.339023	0.940651
04298	21.405691	-13.919239	-0.467586	-3.839961	2.361642	-0.296489	-0.367150	-0.880954	0.298531	0.929185	-0.362065	0.074322	0.042614	0.304678	0.951502
04299	25.213228	-12.648382	7.014939	0.781129	1.569636	0.012306	-0.367649	-0.885680	0.283560	0.929493	-0.359676	0.081707	0.029623	0.293606	0.955467
04300	25.519984	-6.385176	4.724732	0.172595	2.227839	0.249168	-0.365894	-0.892890	0.262431	0.930444	-0.356992	0.082645	0.019893	0.274416	0.961405
04301	21.189628	-1.439894	-4.912973	0.104501	2.019935	0.852147	-0.358296	-0.901252	0.243656	0.933536	-0.349106	0.081463	0.011644	0.256650	0.966434
04302	16.901149	1.092767	-11.485733	-0.462188	1.150944	1.381581	-0.345511	-0.908873	0.233606	0.938338	-0.337781	0.073655	0.011965	0.244650	0.969538
04303	14.094905	-0.595524	-14.156881	-0.517822	-0.195188	1.089314	-0.335263	-0.912018	0.236268	0.941961	-0.329162	0.066041	0.017540	0.244697	0.969441
04304	15.454356	0.619367	-11.456356	0.076544	-1.614538	-0.007183	-0.335020	-0.907913	0.251903	0.941948	-0.329055	0.066762	0.022275	0.259646	0.965447
04305	14.908373	0.271112	-3.731039	-0.322736	-2.227704	-0.651823	-0.340557	-0.899737	0.272936	0.939649	-0.335845	0.065333	0.032882	0.278713	0.959811
04306	4.097223	-2.513452	12.713448	0.485269	-1.990814	-1.102758	-0.350232	-0.890234	0.291242	0.935999	-0.344338	0.073052	0.035253	0.298187	0.953856
04307	3.577775	7.337895	18.431192	0.885646	-2.128273	-0.918412	-0.358087	-0.880453	0.310767	0.933048	-0.349759	0.084200	0.034559	0.320111	0.946749
04308	1.504009	2.189711	11.120870	-1.937500	-2.128597	0.098723	-0.356167	-0.873849	0.330957	0.932476	-0.355234	0.065556	0.060281	0.331958	0.941366
04309	4.779202	-7.664571	7.870369	-1.982397	-2.144240	0.557876	-0.349411	-0.868577	0.351405	0.932979	-0.357104	0.045021	0.086384	0.343584	0.935140
04310	12.502860	-10.534908	14.662147	0.573414	-2.077948	0.145061	-0.346251	-0.861734	0.370845	0.933977	-0.353846	0.049804	0.088304	0.363605	0.927359
04311	21.033330	1.790552	20.790067	2.036197	-1.234537	-0.016276	-0.345408	-0.857067	0.382270	0.935563	-0.346422	0.068654	0.073586	0.381351	0.921497
04312	1.204935	5.339037	8.566631	-1.194922	-0.143840	0.016687	-0.345147	-0.856566	0.383625	0.934664	-0.350844	0.057544	0.085302	0.378422	0.921694
04313	6.453762	0.400922	10.693501	0.252481	-0.834259	0.027517	-0.344183	-0.853458	0.391340	0.934968	-0.349667	0.059728	0.085864	0.386448	0.918306
04314	6.969710	-1.316900	12.113480	-0.543588	-0.269262	-0.011355	-0.344059	-0.852365	0.393824	0.934438	-0.351892	0.054749	0.091917	0.386842	0.917554
04315	3.400723	-2.102500	7.820053	0.052253	-0.395863	-0.072929	-0.344379	-0.850556	0.397438	0.934229	-0.352332	0.055483	0.092838	0.390406	0.915950
04316	5.340545	2.102024	10.997760	0.319899	-0.437908	-0.091945	-0.344844	-0.848500	0.401411	0.934199	-0.351882	0.058745	0.091404	0.395256	0.914012
04317	4.991122	0.978197	9.095755	-0.047293	-0.279367	-0.071003	-0.345253	-0.847129	0.403947	0.933905	-0.352693	0.058565	0.092857	0.397468	0.912906
04318	4.606854	1.519755	9.648735	0.066162	-0.235702	-0.058389	-0.345589	-0.845971	0.406082	0.933756	-0.352950	0.059373	0.093099	0.399700	0.911906
04319	4.381270	1.097188	9.283626	-0.030579	-0.208881	-0.042224	-0.345792	-0.844971	0.407986	0.933576	-0.353452	0.059233	0.094154	0.401368	0.911065
04320	4.690955	0.764035	9.513698	0.000314	-0.177019	-0.030996	-0.345923	-0.844137	0.409598	0.933461	-0.353739	0.059330	0.094808	0.402867	0.910335
04321	4.334077	0.618723	9.314791	-0.002359	-0.152200	-0.038539	-0.346143	-0.843372	0.410986	0.933318	-0.354097	0.059434	0.095404	0.404153	0.909702
04322	4.150535	0.472717	9.355147	0.002687	-0.160355	-0.038123	-0.346354	-0.842575	0.412440	0.933181	-0.354434	0.059583	0.095980	0.405518	0.909034
04323	4.162392	0.643007	9.170366	0.059449	-0.176515	-0.044953	-0.346609	-0.841684	0.414043	0.933076	-0.354593	0.060276	0.096084	0.407225	0.908260
04324	4.212818	1.100094	9.308732	0.066033	-0.186515	-0.038660	-0.346799	-0.840772	0.415731	0.932997	-0.354676	0.061003	0.096160	0.409032	0.907440
04325	4.091567	0.779351	9.241921	0.008557	-0.196286	-0.034598	-0.346938	-0.839830	0.417516	0.932879	-0.354955	0.061192	0.096808	0.410721	0.906607
04326	4.219800	0.782306	9.159361	0.036865	-0.227547	-0.022289	-0.346934	-0.838801	0.419582	0.932829	-0.355017	0.061588	0.097299	0.412765	0.905626
04327	4.305937	0.753038	9.269853	-0.018422	-0.231039	-0.008526	-0.346793	-0.837800	0.421694	0.932774	-0.355188	0.061424	0.098319	0.414647	0.904655
04328	4.397114	0.545346	9.298554	-0.048508	-0.232940	-0.000711	-0.346578	-0.836817	0.423818	0.932716	-0.355423	0.060957	0.099625	0.416428	0.903694
04329	5.222034	0.402579	9.442856	-0.018876	-0.217161	0.002933	-0.346338	-0.835906	0.425806	0.932700	-0.355501	0.060742	0.100600	0.418187	0.902773
04330	4.570540	0.913156	9.302358	-0.031215	-0.128191	0.004422	-0.346176	-0.835372	0.426984	0.932676	-0.355622	0.060409	0.101381	0.419150	0.902239
04331	4.156572	0.716154	9.174343	-0.075603	-0.142247	0.021412	-0.345837	-0.834836	0.428306	0.932666	-0.355784	0.059603	0.102625	0.420079	0.901666
04332	4.320944	0.787658	9.145541	-0.062987	-0.170342	0.030214	-0.345388	-0.834214	0.429877	0.932697	-0.355824	0.058874	0.103847	0.421280	0.900966
04333	4.324528	0.853973	9.240152	-0.100898	-0.169047	0.041638	-0.344828	-0.833634	0.431450	0.932728	-0.355927	0.057754	0.105419	0.422340	0.900286
04334	4.308058	0.493750	9.170515	-0.117021	-0.186635	0.044714	-0.344221	-0.832990	0.433173	0.932749	-0.356076	0.056476	0.107199	0.423482	0.899540
04335	4.445534	0.658208	9.222145	-0.097784	-0.202002	0.046221	-0.343577	-0.832282	0.435041	0.932795	-0.356131	0.055365	0.108852	0.424826	0.898707
04336	4.558501	0.550458	9.260328	-0.105049	-0.206910	0.044724	-0.342942	-0.831548	0.436942	0.932824	-0.356233	0.054194	0.110588	0.426176	0.897855
04337	4.521402	0.591208	9.242129	-0.091912	-0.208076	0.038229	-0.342359	-0.830780	0.438856	0.932845	-0.356332	0.053170	0.112205	0.427588	0.896983
04338	4.633580	0.689080	9.269523	-0.081752	-0.210752	0.032457	-0.341827	-0.829980	0.440781	0.932855	-0.356440	0.052263	0.113734	0.429049	0.896092
04339	4.815683	0.612749	9.239600	-0.084263	-0.192585	0.031409	-0.341319	-0.829249	0.442547	0.932858	-0.356566	0.051338	0.115225	0.430357	0.895274
04340	5.685367	0.256703	9.557781	-0.067695	-0.160976	0.014728	-0.341003	-0.828594	0.444014	0.932821	-0.356764	0.050636	0.116451	0.431453	0.894588
04341	4.429421	0.763899	9.202627	-0.066300	-0.072232	0.001269	-0.340912	-0.828271	0.444686	0.932740	-0.357064	0.050006	0.117363	0.431824	0.894289
04342	4.855364	0.723509	9.215338	-0.054156	-0.077879	0.003708	-0.340794	-0.827935	0.445403	0.932680	-0.357295	0.049474	0.118179	0.432279	0.893962
04343	4.754687	0.411903	9.109784	-0.063266	-0.058617	0.003676	-0.340696	-0.827678	0.445954	0.932610	-0.357563	0.048860	0.119016	0.432548	0.893721
04344	4.746468	0.530470	9.173958	-0.025149	-0.058656	-0.004244	-0.340674	-0.827396	0.446495	0.932557	-0.357734	0.048623	0.119496	0.432946	0.893464
04345	4.645026	0.566974	9.132776	-0.024528	-0.049592	-0.005148	-0.340668	-0.827146	0.446961	0.932502	-0.357908	0.048396	0.119940	0.433279	0.893243
04346	4.658432	0.656108	9.135251	-0.015249	-0.051972	-0.001193	-0.340625	-0.826903	0.447443	0.932470	-0.358012	0.048234	0.120305	0.433657	0.893011
04347	4.672830	0.533432	9.169780	-0.020704	-0.043352	0.000993	-0.340569	-0.826703	0.447857	0.932441	-0.358118	0.048013	0.120693	0.433952	0.892815
04348	4.676997	0.539747	9.144598	-0.011316	-0.047481	-0.001379	-0.340533	-0.826478	0.448298	0.932414	-0.358206	0.047887	0.121006	0.434307	0.892600
04349	4.665460	0.521310	9.136599	-0.001882	-0.039437	-0.000549	-0.340496	-0.826288	0.448676	0.932401	-0.358244	0.047842	0.121204	0.434636	0.892413
04350	4.569683	0.471223	9.143654	-0.001064	-0.046889	0.003127	-0.340418	-0.826082	0.449114	0.932402	-0.358251	0.047787	0.121419	0.435022	0.892196
04351	4.567735	0.544054	9.140029	0.001441	-0.057075	0.001645	-0.340339	-0.825823	0.449650	0.932401	-0.358256	0.047762	0.121647	0.435509	0.891927
04352	4.661052	0.536694	9.134141	0.025313	-0.067850	0.008950	-0.340181	-0.825546	0.450278	0.932453	-0.358100	0.047916	0.121688	0.436163	0.891602
04353	4.679398	0.604590	9.101439	0.029505	-0.067718	0.016532	-0.339950	-0.825293	0.450915	0.932537	-0.357860	0.048073	0.121690	0.436838	0.891271
04354	4.685467	0.605943	9.098226	0.019724	-0.063147	0.021363	-0.339683	-0.825080	0.451507	0.932625	-0.357625	0.048122	0.121766	0.437432	0.890969
04355	4.722318	0.634242	9.130286	0.010349	-0.059036	0.023738	-0.339395	-0.824890	0.452070	0.932710	-0.357409	0.048076	0.121917	0.437967	0.890686
04356	4.752736	0.561040	9.077689	-0.006571	-0.049605	0.028840	-0.339074	-0.824762	0.452544	0.932790	-0.357228	0.047856	0.122192	0.438355	0.890457
04357	4.672746	0.534310	9.067868	-0.019979	-0.041723	0.029123	-0.338757	-0.824667	0.452955	0.932856	-0.357101	0.047515	0.122567	0.438638	0.890266
04358	4.623938	0.518696	9.139589	-0.035831	-0.044126	0.029953	-0.338432	-0.824567	0.453381	0.932905	-0.357039	0.047029	0.123096	0.438877	0.890075
04359	4.693539	0.568344	9.104090	-0.034897	-0.046822	0.034403	-0.338059	-0.824467	0.453840	0.932970	-0.356934	0.046532	0.123627	0.439149	0.889868
04360	4.588729	0.618975	9.121336	-0.042889	-0.053264	0.036359	-0.337662	-0.824349	0.454349	0.933030	-0.356851	0.045954	0.124252	0.439438	0.889638
04361	4.715974	0.606467	9.116576	-0.070384	-0.057936	0.045609	-0.337170	-0.824241	0.454911	0.933088	-0.356810	0.045090	0.125152	0.439675	0.889395
04362	4.524316	0.496890	9.030127	-0.079739	-0.053849	0.047982	-0.336663	-0.824161	0.455429	0.933140	-0.356793	0.044132	0.126122	0.439837	0.889177
04363	4.706427	0.628277	9.150698	-0.058217	-0.089851	0.050819	-0.336081	-0.823930	0.456277	0.933229	-0.356657	0.043352	0.127015	0.440380	0.888781
04364	4.873818	0.387187	9.119257	-0.100481	-0.069544	0.052248	-0.335513	-0.823797	0.456935	0.933267	-0.356697	0.042189	0.128232	0.440598	0.888499
04365	4.780110	0.335782	9.102905	-0.063040	-0.065618	0.043556	-0.335028	-0.823646	0.457563	0.933323	-0.356642	0.041400	0.129087	0.440924	0.888213
04366	4.777355	0.418810	9.156311	-0.043405	-0.070039	0.034577	-0.334623	-0.823447	0.458217	0.933374	-0.356577	0.040825	0.129772	0.441349	0.887902
04367	4.786737	0.397784	9.095644	-0.012715	-0.073940	0.036158	-0.334196	-0.823232	0.458914	0.933469	-0.356361	0.040516	0.130185	0.441923	0.887556
04368	4.853879	0.499880	9.126531	0.021974	-0.087323	0.043670	-0.333682	-0.822988	0.459725	0.933635	-0.355932	0.040480	0.130317	0.442723	0.887138
04369	4.726103	0.479499	9.039456	0.037133	-0.071836	0.050976	-0.333119	-0.822834	0.460409	0.933844	-0.355375	0.040544	0.130257	0.443457	0.886780
04370	4.808678	0.594949	9.099359	0.060843	-0.073539	0.051170	-0.332553	-0.822675	0.461100	0.934084	-0.354712	0.040817	0.129979	0.444281	0.886409
04371	4.756137	0.486606	9.084042	0.065566	-0.074834	0.060918	-0.331893	-0.822541	0.461815	0.934363	-0.353945	0.041087	0.129662	0.445139	0.886024
04372	4.791832	0.567161	9.079474	0.103740	-0.082452	0.065939	-0.331179	-0.822393	0.462591	0.934707	-0.352969	0.041670	0.129011	0.446187	0.885592
04373	4.750263	0.528805	9.138105	0.093304	-0.078738	0.069394	-0.330435	-0.822269	0.463343	0.935048	-0.352008	0.042145	0.128446	0.447174	0.885176
04374	4.646088	0.645919	9.095493	0.087427	-0.099910	0.087103	-0.329501	-0.822114	0.464282	0.935438	-0.350928	0.042484	0.128004	0.448306	0.884668
04375	4.646364	0.763619	9.179944	0.074289	-0.126723	0.108179	-0.328333	-0.821906	0.465475	0.935880	-0.349733	0.042608	0.127772	0.449619	0.884035
04376	4.745341	0.571523	9.005270	0.038221	-0.117231	0.130106	-0.326974	-0.821819	0.466585	0.936346	-0.348520	0.042308	0.127844	0.450719	0.883464
04377	4.641441	0.497010	9.130647	0.060257	-0.154191	0.145841	-0.325418	-0.821613	0.468034	0.936890	-0.347077	0.042129	0.127830	0.452206	0.882706
04378	4.441722	0.602732	9.187119	0.077974	-0.201080	0.167989	-0.323594	-0.821269	0.469897	0.937526	-0.345372	0.041999	0.127797	0.454131	0.881722
04379	4.200956	0.652737	9.350995	0.139838	-0.291710	0.208506	-0.321274	-0.820640	0.472581	0.938368	-0.343051	0.042219	0.127473	0.457018	0.880276
04380	3.888646	0.449563	9.710737	0.110435	-0.469659	0.194605	-0.318855	-0.819136	0.476810	0.939123	-0.340976	0.042235	0.127984	0.461250	0.877991
04381	4.608800	0.293619	9.438848	0.144071	-0.574708	0.190469	-0.316337	-0.817100	0.481954	0.939903	-0.338778	0.042556	0.128503	0.466452	0.875163
04382	4.236631	0.076066	9.451162	0.195305	-0.720086	0.153710	-0.313973	-0.814222	0.488327	0.940630	-0.336636	0.043486	0.128981	0.472988	0.871577
04383	4.299970	0.537557	9.457823	0.372953	-0.882411	0.129786	-0.311624	-0.810429	0.496081	0.941507	-0.333831	0.046060	0.128278	0.481417	0.867054
04384	4.246939	0.888414	9.856264	0.405741	-1.109419	0.142334	-0.308870	-0.805489	0.505753	0.942459	-0.330736	0.048824	0.127943	0.491732	0.861295
04385	4.102930	0.806784	9.882790	0.383570	-1.347131	0.189929	-0.305359	-0.799390	0.517427	0.943526	-0.327333	0.051115	0.128510	0.503814	0.854199
04386	3.815539	0.877397	10.092122	0.461794	-1.665445	0.225610	-0.301091	-0.791596	0.531714	0.944796	-0.323207	0.053826	0.129245	0.518568	0.845211
04387	3.573657	1.159202	10.463165	0.517230	-2.075642	0.255328	-0.295989	-0.781446	0.549302	0.946221	-0.318502	0.056761	0.130598	0.536562	0.833694
04388	3.987276	0.966286	10.204980	0.440324	-2.524558	0.286483	-0.289946	-0.768525	0.570351	0.947634	-0.313904	0.058770	0.133870	0.557524	0.819296
04389	4.226559	0.310303	9.732458	0.402298	-2.965791	0.292372	-0.283142	-0.752528	0.594586	0.949010	-0.309424	0.060303	0.138599	0.581342	0.801768
04390	4.374950	0.484023	10.489095	0.450365	-3.439949	0.288843	-0.275546	-0.732935	0.621997	0.950445	-0.304632	0.062084	0.143977	0.608280	0.780555
04391	4.159921	0.428223	10.967555	0.230475	-4.070062	0.287082	-0.266784	-0.708414	0.653434	0.951555	-0.301162	0.061999	0.152868	0.638319	0.754440
04392	6.635392	1.553288	11.666793	0.362636	-4.641724	0.413426	-0.255555	-0.679224	0.688002	0.953196	-0.295953	0.061883	0.161584	0.671615	0.723065
04393	7.428066	2.986340	12.807553	0.197483	-4.915561	0.605248	-0.241590	-0.647144	0.723076	0.955020	-0.290617	0.058986	0.171966	0.704803	0.688245
04394	10.350507	3.861191	14.778028	-0.070392	-4.976123	0.886459	-0.224255	-0.613824	0.756921	0.956949	-0.285571	0.051935	0.184276	0.735982	0.651439
04395	11.618777	3.124031	14.670482	-0.726549	-4.701663	1.067235	-0.204982	-0.581626	0.787206	0.957826	-0.284678	0.039077	0.201372	0.762017	0.615451
04396	11.618878	1.984313	12.555115	-0.706318	-4.273008	1.075567	-0.185752	-0.551624	0.813146	0.958441	-0.284082	0.026226	0.216534	0.784224	0.581468
04397	10.127344	1.518864	11.925474	-0.610495	-3.882946	1.043823	-0.167104	-0.523740	0.835328	0.958908	-0.283364	0.014160	0.229286	0.803368	0.549570
04398	7.987396	1.683049	10.615956	-0.495092	-3.570544	1.039430	-0.148766	-0.497670	0.854513	0.959377	-0.282114	0.002718	0.239718	0.820205	0.519422
04399	6.488575	1.972719	9.592261	-0.505313	-3.361298	1.061596	-0.130378	-0.472821	0.871460	0.959608	-0.281196	-0.009001	0.249307	0.835086	0.490384
04400	4.496303	2.203913	8.257517	-0.601287	-3.296541	1.118799	-0.111267	-0.448191	0.886986	0.959419	-0.281146	-0.021709	0.259102	0.848576	0.461286
04401	2.532055	2.177645	7.815977	-0.640347	-3.526775	1.241788	-0.090065	-0.421499	0.902345	0.958963	-0.281278	-0.035673	0.268846	0.862103	0.429536
04402	0.488081	3.616162	7.413002	-0.847971	-3.927229	1.326906	-0.066572	-0.391096	0.917939	0.957662	-0.283296	-0.051247	0.280091	0.875664	0.393397
04403	9.724794	2.667415	13.691722	-0.667894	-3.685560	0.832094	-0.048153	-0.360956	0.931339	0.956223	-0.286115	-0.061450	0.288651	0.887608	0.358932
04404	15.634275	5.985366	16.711963	-0.625185	-1.145058	0.129770	-0.043575	-0.351132	0.935312	0.954445	-0.291250	-0.064874	0.295189	0.889876	0.347827
04405	4.201351	3.651336	14.614175	-1.585102	0.892450	-0.316577	-0.049323	-0.358085	0.932385	0.949481	-0.306483	-0.067478	0.309923	0.881954	0.355112
04406	-2.183807	2.125819	9.134785	-1.471360	1.512468	-0.578252	-0.059591	-0.369510	0.927314	0.944496	-0.321530	-0.067426	0.323074	0.871826	0.368161
04407	-4.521561	1.350308	6.653138	-1.294097	1.308457	-0.609573	-0.069676	-0.378854	0.922830	0.939823	-0.335106	-0.066614	0.334482	0.862655	0.379405
04408	-2.449000	0.602574	7.338189	-0.877349	1.207034	-0.595970	-0.079353	-0.387173	0.918586	0.936397	-0.344963	-0.064506	0.341854	0.855042	0.389921
04409	-0.203849	1.040822	9.685999	-0.648712	1.473110	-0.587479	-0.089962	-0.397661	0.913112	0.933639	-0.352863	-0.061688	0.346734	0.846968	0.403016
04410	0.699478	1.095843	10.066077	-0.524683	1.969764	-0.580914	-0.102242	-0.412156	0.905359	0.931238	-0.359672	-0.058573	0.349773	0.837116	0.420589
04411	0.599454	1.324941	9.840136	-0.434790	2.459404	-0.544534	-0.115976	-0.430628	0.895047	0.929091	-0.365656	-0.055538	0.351196	0.825139	0.442500
04412	0.732459	1.467941	9.477986	-0.413355	2.820232	-0.462664	-0.130185	-0.451977	0.882479	0.927053	-0.371119	-0.053315	0.351602	0.811164	0.467321
04413	1.248130	1.270728	9.103835	-0.403281	3.106597	-0.359267	-0.144483	-0.475596	0.867717	0.925112	-0.376103	-0.052102	0.351131	0.795208	0.494320
04414	1.900948	0.939972	9.019626	-0.281369	3.357678	-0.298824	-0.158999	-0.500855	0.850802	0.923658	-0.379813	-0.050977	0.348678	0.777744	0.523008
04415	2.644569	0.916031	9.078261	-0.084368	3.601285	-0.298566	-0.174281	-0.527398	0.831551	0.922835	-0.382077	-0.048914	0.343514	0.758860	0.553290
04416	3.363960	1.026574	9.260352	0.144934	3.809405	-0.347258	-0.190420	-0.554578	0.810051	0.922678	-0.382908	-0.045252	0.335271	0.738799	0.584610
04417	4.006191	1.108642	9.567932	0.323126	3.968154	-0.418726	-0.207440	-0.581880	0.786374	0.922876	-0.383017	-0.039966	0.324450	0.717436	0.616456
04418	4.943419	0.493621	9.835628	0.426521	4.089400	-0.437772	-0.224496	-0.609062	0.760687	0.923272	-0.382648	-0.033898	0.311721	0.694711	0.648233
04419	6.326184	-0.551129	9.871792	0.632581	4.190911	-0.373130	-0.240753	-0.636266	0.732942	0.924292	-0.380736	-0.026909	0.296178	0.670974	0.679759
04420	7.496986	-1.118470	10.136308	0.914483	4.272174	-0.237010	-0.255201	-0.663501	0.703306	0.926312	-0.376285	-0.018868	0.277163	0.646665	0.710637
04421	8.522923	-1.275412	10.928707	1.199466	4.337070	-0.042709	-0.267205	-0.690856	0.671803	0.929357	-0.369050	-0.009871	0.254749	0.621708	0.740664
04422	10.258704	-1.304039	12.042741	1.484540	4.456082	0.141197	-0.276672	-0.718482	0.638150	0.933318	-0.359050	0.000395	0.228844	0.595707	0.769912
04423	11.075684	-1.188973	12.573509	1.644266	4.699470	0.294329	-0.284076	-0.746851	0.601260	0.937642	-0.347414	0.011467	0.200322	0.567024	0.798971
04424	10.688891	-1.117930	12.251334	1.759447	4.895589	0.405902	-0.289329	-0.775220	0.561536	0.942051	-0.334652	0.023389	0.169788	0.535763	0.827122
04425	9.869296	-1.211713	11.489084	1.948688	4.916531	0.466107	-0.292543	-0.802297	0.520325	0.946371	-0.320928	0.037235	0.137113	0.503313	0.853156
04426	9.405505	-0.443434	11.360170	2.038578	4.812954	0.458537	-0.293999	-0.827164	0.478920	0.950163	-0.307293	0.052546	0.103704	0.470501	0.876284
04427	8.873988	-0.018379	11.455360	2.056283	4.590941	0.364181	-0.294603	-0.849120	0.438411	0.953004	-0.294972	0.069092	0.070651	0.438162	0.896115
04428	9.339564	0.527175	12.229463	2.063286	4.288936	0.178135	-0.295252	-0.867759	0.399776	0.954649	-0.284746	0.086975	0.038361	0.407325	0.912477
04429	10.682001	1.176384	13.247989	2.046981	4.053161	-0.107199	-0.297257	-0.883360	0.362371	0.954773	-0.277726	0.106192	0.006834	0.377548	0.925965
04430	12.734083	2.054450	13.988629	1.989678	3.932293	-0.503671	-0.301739	-0.896226	0.325165	0.953091	-0.275014	0.126428	-0.023883	0.348060	0.937168
04431	13.368473	3.749293	13.919560	1.664788	3.966980	-0.923145	-0.309085	-0.906855	0.286498	0.949622	-0.277876	0.144925	-0.051815	0.316859	0.947056
04432	10.806603	8.970323	13.944181	0.222774	1.949399	-0.996311	-0.317453	-0.910045	0.266536	0.946375	-0.286264	0.149760	-0.059989	0.299785	0.952119
04433	16.171425	-6.321223	-0.569692	-2.965196	2.813686	-1.165874	-0.327121	-0.914532	0.237957	0.944092	-0.305356	0.124288	-0.041003	0.265310	0.963291
04434	17.630527	-7.051768	1.707475	0.196984	1.667727	-1.145363	-0.337180	-0.915270	0.220431	0.940198	-0.315349	0.128777	-0.048353	0.250670	0.966864
04435	18.451370	-4.567644	3.689734	-0.350570	1.706001	-1.251010	-0.348122	-0.915366	0.202276	0.936067	-0.327709	0.128004	-0.050883	0.233905	0.970927
04436	19.622509	-4.110797	0.272536	-0.052320	1.456113	-0.975736	-0.356477	-0.915423	0.186880	0.932655	-0.336780	0.129357	-0.055479	0.220407	0.973829
04437	18.278855	-2.945710	-3.260434	-0.328690	1.010944	-0.558896	-0.361162	-0.915686	0.176301	0.930820	-0.342651	0.127141	-0.056012	0.210023	0.976091
04438	15.588381	-3.527148	-7.486448	-0.387026	0.168826	-0.206759	-0.363006	-0.915318	0.174413	0.930280	-0.345371	0.123687	-0.052976	0.207152	0.976873
04439	13.888647	-2.350346	-8.790059	-0.239935	-0.927721	-0.164648	-0.365034	-0.912776	0.183275	0.929790	-0.347421	0.121611	-0.047330	0.214800	0.975511
04440	14.488474	0.067062	-7.390815	-0.435169	-2.038394	-0.271363	-0.368415	-0.907267	0.202820	0.928973	-0.350882	0.117859	-0.035764	0.231836	0.972097
04441	7.114522	-1.418034	-1.098547	-0.828438	-2.304218	-0.373086	-0.372543	-0.900384	0.224768	0.927810	-0.356284	0.110592	-0.019494	0.249743	0.968116
04442	6.040658	-0.610995	11.405799	0.716818	-2.704977	-1.000048	-0.382293	-0.889657	0.249726	0.923905	-0.363370	0.119842	-0.015875	0.276538	0.960872
04443	3.345587	8.257120	18.661252	0.466477	-2.384496	-0.989249	-0.391756	-0.879142	0.271362	0.920004	-0.370808	0.126858	-0.010903	0.299351	0.954081
04444	4.856843	4.037537	14.109159	-1.536541	-2.257027	-0.378143	-0.395229	-0.870798	0.292411	0.918502	-0.378848	0.113262	0.012151	0.313344	0.949562
04445	3.733860	-1.545951	9.275681	-1.952529	-1.987535	0.330275	-0.391725	-0.865708	0.311610	0.919299	-0.382233	0.093738	0.037958	0.323182	0.945575
04446	4.415537	-5.336784	8.831107	-1.678978	-2.069288	0.624669	-0.384958	-0.861279	0.331672	0.920884	-0.382385	0.075861	0.061489	0.334634	0.940340
04447	6.959905	-4.997682	11.631978	-0.545844	-2.075392	0.466964	-0.379264	-0.855932	0.351481	0.922285	-0.380279	0.069124	0.074495	0.350382	0.933640
04448	11.834623	-5.589487	17.670019	-0.291288	-1.753540	0.261898	-0.375468	-0.850649	0.367995	0.923035	-0.379110	0.065437	0.083846	0.364242	0.927522
04449	15.174667	-4.993522	15.779941	0.093091	-0.977857	0.150252	-0.373257	-0.847597	0.377172	0.923669	-0.377517	0.065708	0.086695	0.372907	0.923810
04450	2.931163	-0.538375	8.743834	-0.023432	-0.572956	0.007384	-0.372694	-0.845462	0.382482	0.923667	-0.377568	0.065430	0.089094	0.377672	0.921643
04451	6.706575	2.598231	12.360528	0.677362	-0.884964	-0.067069	-0.372540	-0.841809	0.390604	0.924006	-0.375561	0.071885	0.086183	0.387701	0.917748
04452	6.070325	1.432391	10.994386	-0.322048	-0.423197	-0.071729	-0.372838	-0.839880	0.394453	0.923445	-0.377443	0.069180	0.090780	0.390049	0.916308
04453	3.985670	1.241683	8.288068	0.184035	-0.544839	-0.085857	-0.373138	-0.837401	0.399409	0.923286	-0.377462	0.071172	0.091162	0.395326	0.914006
04454	5.639755	3.544603	10.346615	0.090105	-0.471629	-0.070639	-0.373367	-0.835247	0.403683	0.923097	-0.377720	0.072246	0.092136	0.399613	0.912042
04455	4.909697	1.833786	9.186752	-0.172037	-0.302627	-0.013259	-0.373212	-0.833967	0.406462	0.922879	-0.378544	0.070700	0.094902	0.401502	0.910928
04456	4.546611	1.430940	9.420967	-0.117855	-0.277435	0.002654	-0.372931	-0.832848	0.409008	0.922768	-0.379022	0.069584	0.097071	0.403369	0.909874
04457	4.612269	0.815621	9.371815	-0.129699	-0.245735	0.013346	-0.372573	-0.831887	0.411283	0.922682	-0.379460	0.068319	0.099232	0.404937	0.908944
04458	4.554566	0.356650	9.523265	-0.121205	-0.214608	0.005228	-0.372319	-0.831023	0.413255	0.922572	-0.379935	0.067164	0.101195	0.406263	0.908135
04459	4.316932	-0.063489	9.424475	-0.085778	-0.215168	-0.019738	-0.372288	-0.830054	0.415226	0.922403	-0.380473	0.066437	0.102836	0.407739	0.907289
04460	4.355721	0.192380	9.473183	0.011304	-0.242747	-0.040754	-0.372422	-0.828893	0.417418	0.922254	-0.380791	0.066677	0.103681	0.409797	0.906265
04461	4.457033	0.751895	9.362321	0.031554	-0.245960	-0.045658	-0.372592	-0.827691	0.419646	0.922109	-0.381064	0.067123	0.104355	0.411969	0.905203
04462	4.441884	1.116396	9.236910	0.004595	-0.227755	-0.035675	-0.372691	-0.826601	0.421701	0.921972	-0.381367	0.067282	0.105207	0.413872	0.904235
04463	4.488910	1.215391	9.157329	-0.037460	-0.216112	-0.010910	-0.372569	-0.825645	0.423678	0.921884	-0.381637	0.066959	0.106407	0.415529	0.903335
04464	4.194445	1.189127	9.188383	-0.095038	-0.195384	0.015181	-0.372228	-0.824876	0.425471	0.921830	-0.381934	0.066005	0.108056	0.416780	0.902562
04465	4.209689	0.806946	9.136567	-0.132217	-0.233684	0.029037	-0.371712	-0.823993	0.427629	0.921785	-0.382272	0.064658	0.110193	0.418216	0.901639
04466	4.569171	0.650284	9.316622	-0.136347	-0.224560	0.038458	-0.371116	-0.823186	0.429695	0.921767	-0.382553	0.063233	0.112329	0.419546	0.900757
04467	4.140902	0.232849	9.170110	-0.170398	-0.226462	0.033880	-0.370553	-0.822345	0.431786	0.921691	-0.383016	0.061523	0.114788	0.420771	0.899875
04468	4.246838	0.524367	9.210577	-0.116882	-0.281501	0.036710	-0.369897	-0.821285	0.434358	0.921682	-0.383234	0.060281	0.116953	0.422638	0.898721
04469	4.570681	0.473122	9.265583	-0.156585	-0.290868	0.041418	-0.369178	-0.820193	0.437026	0.921641	-0.383583	0.058664	0.119520	0.424439	0.897534
04470	4.621278	0.418304	9.214354	-0.144619	-0.285907	0.042932	-0.368445	-0.819128	0.439634	0.921616	-0.383873	0.057148	0.121952	0.426229	0.896357
04471	4.911181	0.635237	9.330357	-0.101562	-0.288739	0.038391	-0.367742	-0.818022	0.442273	0.921624	-0.384018	0.056039	0.124000	0.428217	0.895128
04472	6.094293	0.275887	9.661621	-0.081589	-0.217973	0.024629	-0.367251	-0.817168	0.444255	0.921603	-0.384194	0.055168	0.125598	0.429687	0.894200
04473	4.776767	0.949047	9.139944	-0.022890	-0.075061	-0.000803	-0.367169	-0.816823	0.444957	0.921562	-0.384324	0.054937	0.126133	0.430227	0.893865
04474	4.679508	0.516038	9.120012	-0.034363	-0.095353	-0.007508	-0.367126	-0.816370	0.445823	0.921482	-0.384560	0.054632	0.126846	0.430875	0.893452
04475	4.791435	0.790597	9.208326	-0.000883	-0.094583	-0.004800	-0.367055	-0.815924	0.446697	0.921454	-0.384629	0.054616	0.127250	0.431658	0.893017
04476	4.656033	0.698350	9.148209	-0.016158	-0.088967	-0.000202	-0.366952	-0.815525	0.447509	0.921423	-0.384727	0.054442	0.127771	0.432323	0.892621
04477	4.648730	0.670403	9.161562	-0.022807	-0.076005	0.003857	-0.366824	-0.815192	0.448222	0.921399	-0.384820	0.054191	0.128308	0.432870	0.892278
04478	4.626046	0.631858	9.145843	-0.018344	-0.084973	0.002689	-0.366699	-0.814820	0.448999	0.921376	-0.384905	0.053985	0.128834	0.433493	0.891900
04479	4.576433	0.664781	9.180071	-0.017867	-0.086312	0.004917	-0.366547	-0.814445	0.449803	0.921362	-0.384968	0.053774	0.129364	0.434142	0.891507
04480	4.492384	0.716937	9.143798	-0.019199	-0.094474	0.010732	-0.366334	-0.814062	0.450669	0.921367	-0.384992	0.053523	0.129933	0.434839	0.891085
04481	4.509200	0.797925	9.167145	-0.014085	-0.123431	0.017189	-0.366021	-0.813570	0.451810	0.921402	-0.384939	0.053291	0.130563	0.435804	0.890521
04482	4.747041	0.648721	9.135412	-0.041099	-0.118518	0.020820	-0.365682	-0.813120	0.452894	0.921415	-0.384976	0.052800	0.131421	0.436611	0.890000
04483	4.723796	0.631829	9.152381	-0.047156	-0.113478	0.019963	-0.365354	-0.812680	0.453946	0.921416	-0.385046	0.052261	0.132319	0.437367	0.889495
04484	4.833567	0.406836	8.968176	-0.049006	-0.097875	0.007827	-0.365160	-0.812268	0.454838	0.921370	-0.385225	0.051759	0.133173	0.437975	0.889069
04485	4.830378	0.617441	9.139762	-0.013799	-0.099844	0.005190	-0.364985	-0.811830	0.455760	0.921361	-0.385269	0.051584	0.133713	0.438747	0.888607
04486	4.872818	0.504293	8.993258	0.001150	-0.085034	0.001473	-0.364866	-0.811449	0.456535	0.921358	-0.385280	0.051556	0.134058	0.439443	0.888211
04487	4.832461	0.737523	9.095709	0.003661	-0.066791	0.012036	-0.364671	-0.811181	0.457166	0.921398	-0.385193	0.051505	0.134317	0.440014	0.887889
04488	4.790712	0.550579	9.081741	-0.011846	-0.057671	0.013670	-0.364476	-0.810966	0.457703	0.921422	-0.385161	0.051306	0.134682	0.440437	0.887624
04489	4.799902	0.516957	9.067960	0.000849	-0.053997	0.015201	-0.364269	-0.810766	0.458222	0.921469	-0.385061	0.051216	0.134919	0.440894	0.887361
04490	4.826432	0.625822	9.076494	0.006241	-0.049536	0.011476	-0.364104	-0.810577	0.458685	0.921509	-0.384968	0.051188	0.135088	0.441321	0.887123
04491	4.735994	0.548078	9.049794	-0.010831	-0.045091	0.015870	-0.363903	-0.810419	0.459126	0.921543	-0.384914	0.050990	0.135400	0.441659	0.886907
04492	4.668510	0.562990	9.080302	-0.005122	-0.055388	0.023028	-0.363624	-0.810249	0.459647	0.921610	-0.384777	0.050808	0.135694	0.442090	0.886647
04493	4.698537	0.661687	9.008116	-0.004123	-0.063682	0.031403	-0.363254	-0.810067	0.460259	0.921709	-0.384568	0.050599	0.136012	0.442605	0.886342
04494	4.586805	0.768936	9.070632	-0.013848	-0.076137	0.048027	-0.362715	-0.809900	0.460976	0.921855	-0.384268	0.050224	0.136462	0.443170	0.885990
04495	4.801518	0.640603	9.019976	-0.025125	-0.099091	0.055441	-0.362075	-0.809653	0.461914	0.922011	-0.383957	0.049718	0.137101	0.443891	0.885530
04496	4.672153	0.775637	9.040744	-0.019820	-0.087087	0.069992	-0.361318	-0.809521	0.462737	0.922227	-0.383506	0.049188	0.137644	0.444521	0.885130
04497	4.781997	0.780955	9.142097	-0.059303	-0.093163	0.085602	-0.360406	-0.809413	0.463635	0.922445	-0.383104	0.048239	0.138576	0.445064	0.884712
04498	4.878500	0.468581	9.032750	-0.073212	-0.079361	0.084532	-0.359524	-0.809369	0.464396	0.922637	-0.382774	0.047168	0.139582	0.445427	0.884371
04499	4.963412	0.525887	9.128071	-0.053461	-0.068347	0.073183	-0.358760	-0.809323	0.465067	0.922815	-0.382447	0.046327	0.140370	0.445791	0.884063
04500	4.864182	0.381761	9.003930	-0.066246	-0.044582	0.056943	-0.358180	-0.809328	0.465505	0.922916	-0.382310	0.045446	0.141186	0.445900	0.883878
04501	4.845696	0.421704	9.018558	-0.028063	-0.046791	0.047036	-0.357686	-0.809278	0.465972	0.923035	-0.382082	0.044951	0.141661	0.446187	0.883657
04502	4.850072	0.572523	9.044272	-0.030812	-0.051044	0.046096	-0.357196	-0.809212	0.466462	0.923146	-0.381874	0.044434	0.142173	0.446484	0.883425
04503	4.862284	0.346466	8.991512	-0.038782	-0.045345	0.051380	-0.356663	-0.809184	0.466917	0.923264	-0.381659	0.043824	0.142742	0.446718	0.883214
04504	4.767253	0.463697	8.981329	0.027991	-0.059223	0.042615	-0.356193	-0.809068	0.467477	0.923446	-0.381217	0.043841	0.142740	0.447305	0.882917
04505	4.840300	0.635579	9.087305	0.026522	-0.075340	0.053048	-0.355602	-0.808912	0.468198	0.923662	-0.380696	0.043799	0.142811	0.448032	0.882538
04506	4.743165	0.639593	9.036303	0.022174	-0.071126	0.069242	-0.354869	-0.808842	0.468874	0.923930	-0.380065	0.043640	0.142905	0.448693	0.882187
04507	4.775245	0.731213	9.089508	0.028482	-0.094278	0.086241	-0.353944	-0.808724	0.469775	0.924266	-0.379267	0.043459	0.143024	0.449579	0.881716
04508	4.699013	0.563333	9.004233	0.011176	-0.100760	0.100892	-0.352875	-0.808639	0.470725	0.924629	-0.378429	0.043052	0.143322	0.450438	0.881229
04509	4.414423	0.556401	9.185648	0.068155	-0.141019	0.117025	-0.351598	-0.808423	0.472050	0.925128	-0.377203	0.043074	0.143237	0.451851	0.880519
04510	4.312977	0.531070	9.274141	0.107866	-0.230536	0.125759	-0.350112	-0.807838	0.474151	0.925714	-0.375726	0.043398	0.143093	0.454122	0.879373
04511	4.136883	0.486889	9.559604	0.167997	-0.354644	0.146550	-0.348255	-0.806749	0.477362	0.926456	-0.373806	0.044149	0.142823	0.457630	0.877597
04512	4.485859	0.362919	9.433428	0.145542	-0.480627	0.123954	-0.346427	-0.804987	0.481648	0.927084	-0.372166	0.044800	0.143189	0.462048	0.875219
04513	4.555043	0.357942	9.299340	0.189217	-0.593019	0.097760	-0.344678	-0.802572	0.486904	0.927683	-0.370530	0.045953	0.143532	0.467532	0.872246
04514	4.867033	0.421596	9.145490	0.229258	-0.653352	0.079996	-0.343005	-0.799779	0.492648	0.928277	-0.368839	0.047528	0.143696	0.473616	0.868930
04515	4.929505	0.629377	9.147999	0.275863	-0.719612	0.078071	-0.341254	-0.796611	0.498955	0.928931	-0.366929	0.049506	0.143644	0.480389	0.865213
04516	4.924916	0.683477	9.099126	0.265645	-0.767025	0.089552	-0.339327	-0.793212	0.505639	0.929607	-0.364961	0.051320	0.143831	0.487460	0.861217
04517	4.785056	0.437847	9.139151	0.252971	-0.859642	0.087953	-0.337278	-0.789286	0.513099	0.930259	-0.363052	0.053019	0.144435	0.495197	0.856690
04518	4.768418	0.458291	9.178889	0.281043	-0.967159	0.080093	-0.335140	-0.784730	0.521420	0.930925	-0.361048	0.054976	0.145116	0.503828	0.851527
04519	4.429571	0.667559	9.404446	0.333579	-1.149109	0.075853	-0.332770	-0.779132	0.531241	0.931654	-0.358788	0.057381	0.145895	0.514027	0.845275
04520	4.005462	1.106204	9.812737	0.382303	-1.409238	0.099230	-0.329789	-0.772141	0.543173	0.932533	-0.356060	0.060037	0.147045	0.526326	0.837471
04521	4.117063	1.520597	9.844295	0.360788	-1.752128	0.133788	-0.325951	-0.763241	0.557870	0.933496	-0.353139	0.062280	0.149471	0.541069	0.827589
04522	4.602893	0.918171	9.549902	0.209046	-2.068946	0.172264	-0.321208	-0.752467	0.574994	0.934360	-0.350717	0.062995	0.154259	0.557486	0.815729
04523	4.961990	-0.076117	8.537103	0.268524	-2.327517	0.162643	-0.316050	-0.739822	0.593949	0.935288	-0.348016	0.064194	0.159212	0.575802	0.801937
04524	5.077837	-0.131137	8.895815	0.570803	-2.616726	0.092403	-0.310988	-0.724781	0.614800	0.936485	-0.344025	0.068141	0.162119	0.596942	0.785734
04525	5.086753	1.305354	10.135326	0.609248	-2.952855	0.112158	-0.305108	-0.707169	0.637825	0.937817	-0.339548	0.072147	0.165552	0.620176	0.766795
04526	5.314360	1.489097	9.928880	0.154434	-3.355961	0.215484	-0.297391	-0.686665	0.663363	0.938719	-0.337104	0.071889	0.174259	0.644090	0.744837
04527	6.549071	1.306568	8.929207	0.187548	-3.701696	0.351521	-0.287479	-0.663500	0.690741	0.940070	-0.333537	0.070864	0.183369	0.669717	0.719621
04528	7.211427	2.789379	10.334497	0.254221	-3.937747	0.558991	-0.274831	-0.638435	0.718936	0.942108	-0.328197	0.068697	0.192094	0.696195	0.691673
04529	7.336548	3.112818	10.449305	-0.182908	-4.148355	0.819411	-0.258879	-0.611673	0.747554	0.943919	-0.324412	0.061436	0.204937	0.721535	0.661353
04530	9.122695	3.203514	11.612542	-0.267827	-4.348444	1.097613	-0.239307	-0.583263	0.776232	0.946075	-0.319857	0.051327	0.218346	0.746656	0.628354
04531	9.073007	3.384357	12.088854	-0.833306	-4.336538	1.385980	-0.216344	-0.554798	0.803364	0.947323	-0.318330	0.035275	0.236165	0.768677	0.594442
04532	11.187058	2.216682	11.997202	-0.920589	-4.384880	1.489538	-0.191485	-0.525347	0.829062	0.948093	-0.317495	0.017791	0.253877	0.789434	0.558874
04533	11.416471	1.871890	12.284584	-0.826195	-4.258984	1.473031	-0.166389	-0.495959	0.852256	0.948550	-0.316626	0.000933	0.269383	0.808562	0.523125
04534	11.359490	1.307470	12.038260	-0.655241	-4.032594	1.415471	-0.141847	-0.467449	0.872566	0.948913	-0.315201	-0.014601	0.281859	0.825917	0.488279
04535	10.144644	1.613838	11.853968	-0.487332	-3.774431	1.377927	-0.117970	-0.440284	0.890075	0.949288	-0.313064	-0.029042	0.291438	0.841511	0.454889
04536	9.246692	1.711652	11.545992	-0.407334	-3.357767	1.356266	-0.095184	-0.416014	0.904363	0.949518	-0.310752	-0.043011	0.298925	0.854614	0.424591
04537	6.670385	1.797277	10.246846	-0.320553	-2.952563	1.346483	-0.073516	-0.394767	0.915836	0.949668	-0.308108	-0.056577	0.304511	0.865580	0.397548
04538	3.623985	1.916997	8.502804	-0.283434	-3.044417	1.413470	-0.050754	-0.372560	0.926619	0.949663	-0.305194	-0.070691	0.309135	0.876388	0.369297
04539	1.533891	2.099201	8.492510	-0.134806	-3.558765	1.620063	-0.024348	-0.346044	0.937902	0.949834	-0.300624	-0.086259	0.311805	0.888751	0.336004
04540	0.497401	3.412475	8.095932	-0.436845	-4.232843	1.747650	0.005536	-0.313367	0.949616	0.948613	-0.298812	-0.104137	0.316390	0.901395	0.295610
04541	19.964529	1.853995	16.575140	0.184710	-3.774709	1.168935	0.028490	-0.282575	0.958822	0.948978	-0.293718	-0.114760	0.314052	0.913171	0.259789
04542	13.089837	7.048396	18.561844	-0.230200	-0.563122	0.512760	0.035124	-0.278915	0.959673	0.948077	-0.294423	-0.120269	0.316094	0.914069	0.254092
04543	5.946764	4.625879	15.124831	-0.911052	1.252985	0.025881	0.031299	-0.290412	0.956390	0.945127	-0.302723	-0.122854	0.325199	0.907755	0.265001
04544	-0.144809	4.271435	11.120740	-1.120142	1.943734	-0.277580	0.022247	-0.307089	0.951421	0.941483	-0.313709	-0.123270	0.336325	0.898489	0.282140
04545	-4.085594	2.683386	7.110050	-1.314591	1.863004	-0.381312	0.012217	-0.322528	0.946481	0.937020	-0.326736	-0.123436	0.349061	0.888380	0.298224
04546	-3.835931	1.164212	6.175169	-0.992971	1.573093	-0.440823	0.002525	-0.334951	0.942232	0.933525	-0.337005	-0.122303	0.358503	0.879906	0.311835
04547	-1.850433	1.091835	7.977354	-0.595936	1.535222	-0.542944	-0.008154	-0.346575	0.937987	0.931331	-0.344160	-0.119068	0.364083	0.872605	0.325582
04548	0.202395	1.443930	9.471146	-0.279262	1.803084	-0.706620	-0.021320	-0.359772	0.932797	0.930191	-0.349122	-0.113393	0.366455	0.865262	0.342100
04549	1.267855	2.175241	10.265291	-0.128543	2.296980	-0.875406	-0.037960	-0.376495	0.925641	0.929432	-0.353537	-0.105681	0.367036	0.856308	0.363347
04550	1.618249	2.430761	10.291984	-0.149862	2.806339	-0.987853	-0.057443	-0.396827	0.916094	0.928395	-0.358671	-0.097152	0.367129	0.844916	0.389016
04551	1.762197	1.766426	9.745375	-0.248776	3.222395	-1.016935	-0.078796	-0.420179	0.904014	0.926756	-0.365000	-0.088871	0.367306	0.830798	0.418164
04552	1.833941	0.639726	9.013752	-0.234182	3.538865	-0.994096	-0.100987	-0.445615	0.889511	0.924987	-0.371269	-0.080979	0.366333	0.814608	0.449681
04553	2.251349	-0.191764	8.616614	-0.105258	3.761255	-0.946958	-0.123553	-0.472415	0.872673	0.923505	-0.376558	-0.073097	0.363144	0.796887	0.482802
04554	2.895321	-0.759461	8.653319	0.139208	3.921681	-0.881228	-0.145808	-0.499953	0.853690	0.922803	-0.379784	-0.064804	0.356617	0.778339	0.516733
04555	3.936550	-1.190882	9.077252	0.408311	4.056635	-0.780728	-0.167375	-0.528201	0.832460	0.922979	-0.380753	-0.056016	0.346549	0.758967	0.551247
04556	5.555151	-1.617835	9.841995	0.632849	4.211189	-0.620424	-0.187426	-0.557358	0.808841	0.924013	-0.379419	-0.047338	0.333273	0.738507	0.586119
04557	7.532275	-2.286652	10.346897	0.849038	4.411904	-0.429670	-0.205841	-0.587866	0.782332	0.925891	-0.375796	-0.038770	0.316789	0.716373	0.621654
04558	9.081668	-2.379945	10.699826	1.277064	4.645429	-0.234635	-0.222236	-0.619718	0.752703	0.929281	-0.368248	-0.028815	0.295038	0.693069	0.657730
04559	9.676854	-1.755971	11.337505	1.509675	4.860711	-0.066507	-0.236685	-0.652580	0.719805	0.933358	-0.358490	-0.018104	0.269858	0.667551	0.693940
04560	9.829113	-1.875118	11.211410	1.659112	4.992073	0.077731	-0.248749	-0.685481	0.684281	0.937782	-0.347156	-0.006863	0.242256	0.640000	0.729186
04561	10.424784	-2.158514	11.172836	1.829402	5.029416	0.259655	-0.257837	-0.717853	0.646690	0.942566	-0.333980	0.005072	0.212340	0.610856	0.762736
04562	10.874778	-2.033915	11.000907	2.049687	5.022335	0.396497	-0.263948	-0.749060	0.607651	0.947611	-0.318890	0.018518	0.179902	0.580705	0.793988
04563	10.601986	-1.216292	10.797389	2.337171	4.967156	0.387290	-0.268418	-0.778372	0.567528	0.952404	-0.302804	0.035149	0.144491	0.549951	0.822603
04564	10.566613	0.540795	11.304764	2.505779	4.851085	0.259975	-0.272059	-0.805058	0.527130	0.956257	-0.287382	0.054634	0.107504	0.518936	0.848026
04565	11.881262	1.818086	13.729030	2.468708	4.767657	0.025375	-0.276156	-0.829124	0.486098	0.958501	-0.274846	0.075734	0.070809	0.486840	0.870616
04566	14.885562	2.134249	16.055078	2.303353	4.925168	-0.303707	-0.281685	-0.851406	0.442449	0.958867	-0.266616	0.097413	0.035026	0.451689	0.891487
04567	15.148551	2.179079	16.280080	2.031109	5.346988	-0.630997	-0.288764	-0.872806	0.393477	0.957400	-0.263385	0.118377	0.000316	0.410898	0.911681
04568	13.647374	1.415250	14.570944	1.766431	5.549183	-0.901688	-0.296497	-0.891993	0.341231	0.954471	-0.264501	0.137926	-0.032773	0.366590	0.929805
04569	12.507642	0.401414	12.157844	1.592497	5.401635	-1.120222	-0.304630	-0.907606	0.288881	0.950306	-0.269185	0.156389	-0.064177	0.322166	0.944505
04570	12.800514	-1.420603	10.624250	1.248634	4.955894	-1.310334	-0.313212	-0.918947	0.239655	0.945286	-0.277416	0.171682	-0.091283	0.280316	0.955558
04571	10.139883	-5.501271	7.319015	0.047883	3.979094	-1.370273	-0.322314	-0.925475	0.199020	0.940861	-0.290008	0.175146	-0.104376	0.243702	0.964217
04572	21.841028	-8.505824	0.501939	0.263587	2.404123	-0.322818	-0.322731	-0.930127	0.175237	0.939532	-0.292410	0.178260	-0.114563	0.222170	0.968254
04573	22.997478	-7.447799	3.767839	1.140576	2.736610	-0.421382	-0.323336	-0.934657	0.147887	0.936735	-0.293995	0.189985	-0.134093	0.199960	0.970585
04574	25.109159	0.099821	1.657580	0.474480	2.651096	-0.088092	-0.320449	-0.939381	0.121967	0.935787	-0.293946	0.194677	-0.147024	0.176520	0.973255
04575	20.822025	-1.614532	-7.539569	-0.843802	1.859485	0.380343	-0.314212	-0.943579	0.104542	0.938215	-0.291818	0.185998	-0.144997	0.156525	0.976973
04576	15.516540	-4.138665	-14.748489	-0.995439	0.355491	0.281130	-0.311084	-0.944937	0.101592	0.940498	-0.290708	0.175934	-0.136713	0.150277	0.979146
04577	13.927655	-2.861828	-16.053183	-0.382126	-1.540456	-0.487745	-0.317747	-0.941075	0.115823	0.939462	-0.295947	0.172703	-0.128249	0.163687	0.978140
04578	15.212783	0.462424	-9.841151	-0.514589	-3.079238	-1.092792	-0.331733	-0.932311	0.144048	0.936536	-0.307115	0.169059	-0.113376	0.190988	0.975023
04579	3.644130	-3.912188	5.796433	-0.326989	-2.739838	-1.533726	-0.349032	-0.921902	0.168149	0.931656	-0.322038	0.168251	-0.100961	0.215382	0.971297
04580	1.057685	3.176223	13.809824	2.065436	-3.336502	-1.943576	-0.370555	-0.907697	0.196917	0.922503	-0.335006	0.191725	-0.108060	0.252701	0.961491
04581	-3.314433	9.000718	20.085148	-0.067222	-3.448525	-1.310513	-0.386136	-0.893961	0.227449	0.917603	-0.347030	0.193842	-0.094355	0.283557	0.954302
04582	6.422949	-0.036540	9.584886	-1.874752	-3.423327	-0.193514	-0.390633	-0.883155	0.259698	0.918333	-0.354312	0.176430	-0.063800	0.307409	0.949436
04583	10.703051	-4.072897	9.191519	-1.653758	-3.081107	0.733303	-0.385466	-0.875928	0.290115	0.921997	-0.353163	0.158740	-0.036587	0.328674	0.943734
04584	8.728126	-0.127689	11.731809	-1.259879	-2.428487	1.324841	-0.373860	-0.872360	0.314985	0.927353	-0.345852	0.142840	-0.015670	0.345505	0.938286
04585	3.979774	1.758928	11.718733	-1.773820	-2.314479	1.211320	-0.362697	-0.868343	0.338276	0.931860	-0.341598	0.122263	0.009388	0.359570	0.933071
04586	7.106555	2.092865	12.605445	-0.829668	-2.569163	0.473998	-0.357827	-0.860461	0.362722	0.933414	-0.340590	0.112859	0.026428	0.378954	0.925038
04587	24.362291	-5.591754	25.011294	-1.270519	-2.043663	0.730169	-0.350293	-0.855040	0.382363	0.935531	-0.339262	0.098405	0.045581	0.392183	0.918757
04588	10.311840	-8.905441	10.387675	-1.794355	-0.055201	0.411607	-0.346421	-0.856217	0.383256	0.935987	-0.342753	0.080298	0.062610	0.386540	0.920145
04589	2.360337	-1.149924	9.008639	0.543261	-0.712375	0.131576	-0.344758	-0.853863	0.389947	0.936770	-0.339530	0.084748	0.060036	0.394508	0.916929
04590	7.733453	0.886382	13.942068	-0.093935	-0.550720	0.016209	-0.344278	-0.851721	0.395023	0.936761	-0.339791	0.083791	0.062858	0.398890	0.914842
04591	4.329359	-1.868663	7.600448	-0.243948	-0.334451	-0.066393	-0.344688	-0.850138	0.398065	0.936370	-0.341353	0.081792	0.066347	0.400929	0.913704
04592	4.732775	3.511844	10.342660	0.452022	-0.494429	-0.121471	-0.345513	-0.847715	0.402493	0.936238	-0.340585	0.086370	0.063866	0.406671	0.911339
04593	4.898480	2.938171	9.171001	-0.241970	-0.303886	-0.024180	-0.345544	-0.846373	0.405280	0.935991	-0.341798	0.084231	0.067233	0.408444	0.910304
04594	4.801408	2.121744	9.208115	-0.096882	-0.268497	0.011404	-0.345264	-0.845300	0.407750	0.935957	-0.342125	0.083271	0.069112	0.410387	0.909289
04595	4.579817	1.557338	9.388165	-0.231049	-0.191274	0.049865	-0.344668	-0.844663	0.409570	0.935960	-0.342677	0.080937	0.071985	0.411238	0.908681
04596	4.142550	0.262447	9.301458	-0.230601	-0.174205	0.048277	-0.344098	-0.844099	0.411209	0.935950	-0.343245	0.078612	0.074789	0.411921	0.908145
04597	4.019128	0.258267	9.316718	-0.130855	-0.220800	0.028084	-0.343674	-0.843262	0.413276	0.935941	-0.343572	0.077278	0.076824	0.413360	0.907321
04598	4.176832	0.441603	9.369770	-0.105139	-0.267217	0.012039	-0.343363	-0.842184	0.415726	0.935894	-0.343934	0.076243	0.078772	0.415254	0.906288
04599	4.554700	0.357342	9.376782	-0.071702	-0.268211	-0.007035	-0.343221	-0.841021	0.418190	0.935806	-0.344315	0.075593	0.080414	0.417290	0.905209
04600	4.405947	0.837852	9.245383	-0.043720	-0.265462	-0.011646	-0.343124	-0.839857	0.420601	0.935723	-0.344623	0.075214	0.081780	0.419374	0.904123
04601	4.265096	1.144747	9.217950	-0.081097	-0.262727	0.001016	-0.342902	-0.838734	0.423016	0.935653	-0.344979	0.074446	0.083491	0.421324	0.903059
04602	4.440351	1.213465	9.184248	-0.083524	-0.263401	0.018618	-0.342515	-0.837673	0.425425	0.935639	-0.345203	0.073582	0.085221	0.423248	0.901997
04603	4.398079	1.155630	9.184239	-0.150016	-0.246060	0.038148	-0.341951	-0.836739	0.427712	0.935634	-0.345544	0.072037	0.087517	0.424814	0.901040
04604	4.311119	1.060200	9.097527	-0.165327	-0.254765	0.053548	-0.341233	-0.835827	0.430062	0.935662	-0.345827	0.070287	0.089980	0.426377	0.900059
04605	4.421409	0.943555	9.265063	-0.192259	-0.265672	0.061636	-0.340420	-0.834882	0.432535	0.935689	-0.346158	0.068262	0.092735	0.427956	0.899029
04606	4.806620	0.528500	9.298911	-0.217937	-0.247923	0.066614	-0.339572	-0.834037	0.434825	0.935703	-0.346564	0.065984	0.095662	0.429274	0.898094
04607	4.623929	0.313814	9.200248	-0.190474	-0.227522	0.054617	-0.338846	-0.833225	0.436944	0.935696	-0.346953	0.064007	0.098267	0.430535	0.897209
04608	4.563006	0.406561	9.273518	-0.165819	-0.236459	0.053879	-0.338116	-0.832379	0.439116	0.935705	-0.347247	0.062252	0.100664	0.431932	0.896271
04609	4.591458	0.323544	9.243282	-0.157596	-0.237158	0.044591	-0.337462	-0.831484	0.441309	0.935688	-0.347582	0.060615	0.102991	0.433382	0.895306
04610	6.167773	0.221616	9.535395	-0.073522	-0.211424	0.016221	-0.337100	-0.830609	0.443228	0.935658	-0.347795	0.059854	0.104437	0.434887	0.894408
04611	4.382983	0.938782	9.265531	-0.101012	-0.121093	-0.002777	-0.337003	-0.830049	0.444351	0.935536	-0.348282	0.058934	0.105841	0.435567	0.893912
04612	4.881921	0.730738	9.179031	-0.053562	-0.122522	-0.000605	-0.336887	-0.829499	0.445463	0.935468	-0.348548	0.058427	0.106801	0.436400	0.893392
04613	4.796501	0.590607	9.233340	-0.038302	-0.085281	-0.002365	-0.336822	-0.829095	0.446265	0.935412	-0.348760	0.058066	0.107497	0.436999	0.893015
04614	4.668193	0.606589	9.130949	-0.001857	-0.095329	-0.008345	-0.336807	-0.828635	0.447129	0.935373	-0.348865	0.058055	0.107881	0.437786	0.892583
04615	4.832279	0.588435	9.173671	-0.008435	-0.086153	-0.009898	-0.336810	-0.828199	0.447934	0.935323	-0.349008	0.057995	0.108301	0.438496	0.892184
04616	4.627757	0.659258	9.113136	0.009338	-0.075492	-0.008191	-0.336814	-0.827826	0.448620	0.935297	-0.349063	0.058084	0.108513	0.439157	0.891833
04617	4.635195	0.842441	9.165958	0.009566	-0.079817	-0.000407	-0.336735	-0.827450	0.449373	0.935299	-0.349049	0.058142	0.108744	0.439877	0.891450
04618	4.508036	0.805075	9.124404	-0.013133	-0.076578	0.009219	-0.336575	-0.827131	0.450079	0.935307	-0.349059	0.057953	0.109170	0.440468	0.891106
04619	4.720731	0.600936	9.187496	-0.037792	-0.086674	0.015499	-0.336339	-0.826779	0.450902	0.935310	-0.349122	0.057518	0.109865	0.441079	0.890718
04620	4.697380	0.569155	9.149085	-0.021902	-0.083727	0.009866	-0.336164	-0.826430	0.451671	0.935311	-0.349165	0.057247	0.110397	0.441697	0.890346
04621	4.783529	0.670450	9.126843	-0.020636	-0.078648	0.009503	-0.335992	-0.826091	0.452418	0.935312	-0.349203	0.056992	0.110905	0.442301	0.889983
04622	4.746215	0.580746	9.096487	-0.040262	-0.068313	0.014437	-0.335790	-0.825826	0.453052	0.935307	-0.349290	0.056537	0.111557	0.442728	0.889689
04623	4.784107	0.627622	9.057979	-0.018059	-0.069316	0.013474	-0.335591	-0.825541	0.453718	0.935325	-0.349284	0.056287	0.112009	0.443263	0.889366
04624	4.746600	0.714230	9.108040	-0.007557	-0.058450	0.014665	-0.335397	-0.825320	0.454264	0.935357	-0.349224	0.056122	0.112321	0.443722	0.889098
04625	4.776233	0.624077	9.103752	-0.020586	-0.049924	0.023440	-0.335126	-0.825155	0.454763	0.935405	-0.349148	0.055804	0.112732	0.444089	0.888863
04626	4.755033	0.505403	9.116572	-0.015172	-0.043840	0.025950	-0.334843	-0.825037	0.455185	0.935466	-0.349029	0.055520	0.113066	0.444401	0.888664
04627	4.709513	0.505242	9.037876	0.007831	-0.053221	0.017736	-0.334621	-0.824838	0.455709	0.935526	-0.348873	0.055481	0.113222	0.444893	0.888398
04628	4.652640	0.608967	9.093086	0.015959	-0.055217	0.018004	-0.334399	-0.824641	0.456228	0.935596	-0.348682	0.055510	0.113303	0.445407	0.888130
04629	4.705687	0.677678	9.060115	0.020189	-0.069945	0.020865	-0.334129	-0.824377	0.456902	0.935681	-0.348445	0.055565	0.113399	0.446081	0.887780
04630	4.714721	0.644247	9.046729	-0.008077	-0.061894	0.027304	-0.333812	-0.824182	0.457485	0.935754	-0.348284	0.055338	0.113726	0.446566	0.887494
04631	4.640528	0.768021	9.082999	-0.001144	-0.068929	0.043552	-0.333331	-0.824001	0.458163	0.935890	-0.347956	0.055100	0.114018	0.447156	0.887159
04632	4.690728	0.654416	9.096285	-0.023788	-0.080543	0.048598	-0.332793	-0.823796	0.458922	0.936016	-0.347690	0.054636	0.114554	0.447740	0.886795
04633	4.719788	0.608799	9.054379	-0.033678	-0.080599	0.052689	-0.332212	-0.823593	0.459707	0.936145	-0.347433	0.054067	0.115188	0.448314	0.886423
04634	4.653940	0.656580	9.092648	-0.025743	-0.100510	0.053771	-0.331601	-0.823315	0.460644	0.936285	-0.347134	0.053561	0.115808	0.449055	0.885967
04635	4.780756	0.487717	9.062110	-0.040122	-0.102860	0.051182	-0.331007	-0.823005	0.461624	0.936400	-0.346919	0.052942	0.116575	0.449789	0.885494
04636	4.851338	0.587574	9.089274	0.001213	-0.113015	0.042801	-0.330483	-0.822631	0.462665	0.936534	-0.346590	0.052724	0.116983	0.450726	0.884964
04637	4.876865	0.624785	9.019616	-0.009196	-0.103453	0.042332	-0.329970	-0.822285	0.463645	0.936655	-0.346309	0.052419	0.117461	0.451572	0.884469
04638	4.872876	0.564212	9.022460	-0.003352	-0.090437	0.044710	-0.329454	-0.822018	0.464486	0.936790	-0.345985	0.052151	0.117836	0.452307	0.884044
04639	4.844368	0.592699	9.027660	0.010972	-0.094786	0.040168	-0.328971	-0.821702	0.465386	0.936927	-0.345631	0.052034	0.118096	0.453150	0.883577
04640	4.810220	0.695492	9.030233	0.023945	-0.086745	0.042253	-0.328481	-0.821441	0.466193	0.937085	-0.345204	0.052018	0.118202	0.453949	0.883153
04641	4.847712	0.763944	9.046881	0.028815	-0.090673	0.050355	-0.327907	-0.821176	0.467061	0.937276	-0.344686	0.052010	0.118280	0.454820	0.882694
04642	4.779569	0.626920	9.051866	0.009556	-0.084621	0.063216	-0.327223	-0.820995	0.467859	0.937486	-0.344152	0.051768	0.118513	0.455551	0.882286
04643	4.755458	0.605534	8.990218	0.046026	-0.088276	0.063802	-0.326526	-0.820786	0.468713	0.937741	-0.343445	0.051848	0.118421	0.456461	0.881828
04644	4.710624	0.623987	9.093023	0.069294	-0.116214	0.069351	-0.325746	-0.820479	0.469791	0.938040	-0.342587	0.052103	0.118195	0.457655	0.881239
04645	4.635869	0.622337	9.137445	0.068663	-0.137693	0.082738	-0.324813	-0.820105	0.471089	0.938382	-0.341621	0.052292	0.118049	0.459046	0.880534
04646	4.600974	0.604797	9.123799	0.073721	-0.190943	0.084342	-0.323805	-0.819500	0.472831	0.938734	-0.340619	0.052512	0.118022	0.460867	0.879587
04647	4.102119	0.583941	9.420202	0.099831	-0.249703	0.095938	-0.322615	-0.818647	0.475118	0.939154	-0.339399	0.052908	0.117942	0.463278	0.878330
04648	4.208552	0.794592	9.414255	0.188833	-0.460586	0.115160	-0.320999	-0.816879	0.479238	0.939738	-0.337607	0.053984	0.117695	0.467687	0.876023
04649	4.438278	0.444543	9.377851	0.207353	-0.560510	0.121659	-0.319202	-0.814626	0.484247	0.940363	-0.335667	0.055185	0.117590	0.472983	0.873189
04650	4.661154	0.330748	9.278997	0.261660	-0.686487	0.102919	-0.317437	-0.811687	0.490304	0.940989	-0.333613	0.056934	0.117359	0.479444	0.869690
04651	4.851555	0.305914	9.123299	0.294376	-0.778005	0.077036	-0.315805	-0.808158	0.497139	0.941570	-0.331595	0.059082	0.117101	0.486749	0.865657
04652	4.830922	0.455544	9.072434	0.344326	-0.850471	0.054418	-0.314308	-0.804150	0.504532	0.942135	-0.329496	0.061753	0.116583	0.494747	0.861182
04653	4.987534	0.670946	9.078553	0.327761	-0.926065	0.047149	-0.312790	-0.799657	0.512553	0.942657	-0.327511	0.064301	0.116447	0.503274	0.856245
04654	4.919404	0.730439	9.072404	0.313904	-1.008614	0.045827	-0.311191	-0.794671	0.521209	0.943157	-0.325582	0.066715	0.116679	0.512343	0.850818
04655	4.704474	0.745050	9.010615	0.353599	-1.115513	0.049074	-0.309432	-0.789032	0.530736	0.943714	-0.323392	0.069429	0.116855	0.522347	0.844689
04656	4.443598	0.904175	9.218655	0.533383	-1.329368	0.068606	-0.307245	-0.782213	0.541981	0.944538	-0.320066	0.073518	0.115963	0.534510	0.837169
04657	4.344406	1.478049	9.851415	0.539021	-1.618654	0.114457	-0.304294	-0.773781	0.555579	0.945505	-0.316285	0.077353	0.115867	0.548841	0.827858
04658	4.149763	1.658790	9.796541	0.408003	-1.921864	0.172696	-0.300423	-0.763606	0.571534	0.946496	-0.312718	0.079708	0.117864	0.564901	0.816698
04659	4.386885	1.272079	9.584609	0.352203	-2.309056	0.228223	-0.295506	-0.751029	0.590451	0.947589	-0.308999	0.081212	0.121456	0.583503	0.802977
04660	4.664367	0.270685	9.214678	0.291032	-2.676869	0.224340	-0.290068	-0.735803	0.611927	0.948598	-0.305636	0.082151	0.126580	0.604302	0.786636
04661	4.647122	0.072861	9.301440	0.464811	-3.091467	0.181371	-0.284372	-0.717273	0.636123	0.949709	-0.301487	0.084609	0.131095	0.628192	0.766935
04662	5.156607	0.486991	9.271619	0.556021	-3.554102	0.173335	-0.277989	-0.694970	0.663128	0.950930	-0.296730	0.087659	0.135850	0.654957	0.743355
04663	5.483401	0.919416	9.201057	0.524947	-4.003937	0.243276	-0.270120	-0.668853	0.692583	0.952316	-0.291592	0.089820	0.141875	0.683820	0.715724
04664	6.518859	1.650250	9.778061	0.504169	-4.486634	0.382511	-0.259956	-0.638562	0.724336	0.954055	-0.285602	0.090618	0.149006	0.714612	0.683467
04665	6.589047	2.519009	10.219784	0.327821	-4.856577	0.678479	-0.246021	-0.604981	0.757279	0.956265	-0.279026	0.087756	0.158210	0.745749	0.647169
04666	9.305527	3.404671	11.280478	-0.021864	-5.009071	0.927735	-0.228914	-0.569428	0.789525	0.958423	-0.273781	0.080426	0.170361	0.775110	0.608426
04667	10.992976	3.984817	12.890021	-0.561423	-4.734311	1.134143	-0.209605	-0.535210	0.818301	0.959898	-0.271980	0.067986	0.186175	0.799736	0.570756
04668	12.571979	2.482236	12.618263	-0.750318	-4.676026	1.225460	-0.188747	-0.500600	0.844852	0.960870	-0.271757	0.053642	0.202741	0.821917	0.532305
04669	12.550565	2.175193	12.319255	-0.509452	-4.518371	1.201128	-0.167758	-0.466224	0.868615	0.961932	-0.270236	0.040733	0.215741	0.842382	0.493810
04670	12.020933	1.277596	12.006587	-0.346568	-4.431017	1.137526	-0.147024	-0.431513	0.890045	0.962946	-0.268122	0.029075	0.226095	0.861340	0.454944
04671	10.713784	1.386734	11.955043	-0.072591	-4.301679	1.092806	-0.126643	-0.396964	0.909055	0.964261	-0.264276	0.018930	0.232727	0.878964	0.416246
04672	10.224412	1.659631	11.950538	0.171161	-4.036033	1.056758	-0.106992	-0.363907	0.925270	0.965886	-0.258778	0.009912	0.235832	0.894766	0.379180
04673	9.151143	1.996124	11.781788	0.367359	-3.407350	1.017613	-0.089144	-0.335783	0.937712	0.967736	-0.251958	0.001775	0.235668	0.907616	0.347410
04674	5.308517	2.502766	10.627583	0.363859	-2.424744	1.011705	-0.073654	-0.316161	0.945842	0.969404	-0.245383	-0.006533	0.234159	0.916422	0.324562
04675	-2.510828	3.586525	7.669335	-0.138327	-2.762920	1.225107	-0.055292	-0.293716	0.954292	0.969854	-0.242975	-0.018591	0.237330	0.924497	0.298296
04676	-1.282868	2.160165	6.657612	-0.413169	-4.293918	1.567384	-0.029778	-0.257563	0.965803	0.969518	-0.242538	-0.034788	0.243204	0.935327	0.256934
04677	20.062641	0.691979	17.476993	0.683241	-4.052122	1.330692	-0.007162	-0.222597	0.974884	0.971392	-0.232971	-0.046058	0.237372	0.946665	0.217898
04678	11.929441	6.909863	18.691177	-0.025571	-0.614861	0.774726	0.001817	-0.218549	0.975824	0.971343	-0.231546	-0.053666	0.237677	0.947957	0.211865
04679	4.430080	4.672032	13.867530	-0.590930	1.200418	0.382212	0.002588	-0.230823	0.972992	0.969899	-0.236340	-0.058647	0.243494	0.943856	0.223263
04680	-0.666084	4.384445	11.024569	-0.808728	1.869045	0.068594	-0.001379	-0.248546	0.968619	0.967887	-0.243824	-0.061187	0.251381	0.937430	0.240901
04681	-2.448162	3.997701	8.597445	-0.829893	1.897082	-0.098715	-0.007241	-0.266059	0.963930	0.965748	-0.251898	-0.062273	0.259380	0.930463	0.258770
04682	-1.555969	3.059723	8.368528	-0.926563	1.985370	-0.236385	-0.014764	-0.283826	0.958762	0.963267	-0.261174	-0.062483	0.268138	0.922622	0.277256
04683	-0.080839	2.387286	9.210641	-0.838506	2.278041	-0.363563	-0.024531	-0.303824	0.952412	0.960898	-0.270013	-0.061386	0.275815	0.913665	0.298568
04684	0.697970	2.011911	9.524220	-0.768806	2.705961	-0.450977	-0.036418	-0.327146	0.944272	0.958603	-0.278461	-0.059503	0.282409	0.903014	0.323744
04685	0.972431	1.755383	9.183932	-0.677323	3.125522	-0.483172	-0.050035	-0.353868	0.933956	0.956443	-0.286255	-0.057220	0.287598	0.890413	0.352777
04686	1.150428	1.316209	8.803308	-0.586573	3.492346	-0.487882	-0.064811	-0.383277	0.921357	0.954453	-0.293275	-0.054861	0.291238	0.875836	0.384827
04687	1.426568	1.037372	8.506391	-0.443384	3.782021	-0.456338	-0.080296	-0.414805	0.906360	0.952805	-0.299020	-0.052439	0.292772	0.859374	0.419239
04688	2.110994	0.754371	8.428381	-0.275155	4.026975	-0.427726	-0.096148	-0.447741	0.888979	0.951610	-0.303245	-0.049809	0.291880	0.841172	0.455231
04689	2.978107	0.597959	8.656218	-0.094224	4.272711	-0.413421	-0.112573	-0.482062	0.868875	0.950882	-0.306028	-0.046590	0.288359	0.820952	0.492835
04690	3.704402	0.282074	8.805936	0.060541	4.523606	-0.391166	-0.129209	-0.517477	0.845886	0.950569	-0.307532	-0.042936	0.282355	0.798525	0.531633
04691	4.509332	0.063503	8.875931	0.284674	4.727497	-0.340303	-0.145677	-0.553676	0.819891	0.950867	-0.307195	-0.038502	0.273184	0.773998	0.571224
04692	5.371992	-0.154109	8.920273	0.518563	4.870008	-0.261060	-0.161172	-0.589919	0.791213	0.951839	-0.304780	-0.033348	0.260819	0.747733	0.610630
04693	6.029586	-0.235336	9.092062	0.734059	4.961315	-0.161650	-0.175374	-0.625906	0.759925	0.953401	-0.300455	-0.027442	0.245499	0.719701	0.649431
04694	6.739897	-0.483095	9.539059	0.903807	4.944529	-0.007725	-0.187162	-0.660737	0.726909	0.955515	-0.294167	-0.021365	0.227949	0.690574	0.686401
04695	7.283965	-0.731541	9.551250	1.055912	4.863840	0.181055	-0.196145	-0.694190	0.692552	0.958144	-0.285884	-0.015193	0.208537	0.660584	0.721208
04696	6.989142	-0.753661	9.286031	1.178104	4.653752	0.392568	-0.201614	-0.725331	0.658215	0.961250	-0.275524	-0.009183	0.188015	0.630858	0.752774
04697	6.826349	-0.677199	9.047221	1.383214	4.258722	0.535915	-0.204089	-0.753107	0.625441	0.964765	-0.263105	-0.001996	0.166060	0.602997	0.780269
04698	7.378491	-0.123828	9.766489	1.767952	3.724559	0.534406	-0.204657	-0.776475	0.595988	0.968567	-0.248600	0.008712	0.141398	0.579037	0.802946
04699	9.622906	0.408102	12.196250	2.214812	3.195178	0.313071	-0.205783	-0.795466	0.569989	0.972011	-0.233613	0.024900	0.113350	0.559159	0.821275
04700	16.367055	1.241339	17.623243	2.797779	3.013890	-0.116517	-0.209840	-0.811773	0.544970	0.974466	-0.219186	0.048723	0.079897	0.541278	0.837039
04701	23.513763	3.318866	21.668095	2.976489	3.843500	-0.692736	-0.219040	-0.830652	0.511896	0.974784	-0.209222	0.077605	0.042637	0.515987	0.855535
04702	23.647896	5.019459	20.626782	2.531704	5.268763	-1.217506	-0.232195	-0.854269	0.465092	0.972650	-0.206941	0.105487	0.006132	0.476865	0.878955
04703	18.797802	4.565106	16.466056	1.824654	6.267001	-1.531552	-0.246516	-0.879393	0.407307	0.968774	-0.212068	0.128471	-0.026600	0.426258	0.904210
04704	13.454086	2.237979	11.513199	1.021688	6.361111	-1.699246	-0.260437	-0.901076	0.346749	0.964059	-0.223149	0.144204	-0.052562	0.371842	0.926807
04705	11.042518	-1.357790	8.587757	0.351261	5.703878	-1.808502	-0.274384	-0.916665	0.290583	0.958980	-0.238461	0.153278	-0.071212	0.320721	0.944493
04706	10.447031	-5.589021	6.720751	-0.177361	4.777260	-1.863185	-0.288538	-0.926309	0.242273	0.953871	-0.256186	0.156520	-0.082919	0.276260	0.957499
04707	17.072915	-4.240996	6.474983	0.417618	2.881535	-1.303394	-0.298444	-0.930487	0.212428	0.949651	-0.267263	0.163503	-0.095364	0.250529	0.963401
04708	18.911067	-5.334837	5.431184	0.614880	3.651969	-1.167143	-0.305728	-0.935862	0.175192	0.945487	-0.276736	0.171672	-0.112179	0.218127	0.969452
04709	23.086598	1.294560	6.232257	0.968522	3.661790	-0.819073	-0.309029	-0.940972	0.138107	0.941767	-0.282525	0.182360	-0.132577	0.186419	0.973484
04710	19.399339	1.246234	-0.172182	-0.133808	3.506709	-0.345688	-0.307481	-0.945933	0.103277	0.940887	-0.286032	0.181433	-0.142083	0.152959	0.977965
04711	14.833546	-1.808395	-6.700415	-0.303879	2.653150	-0.138555	-0.304992	-0.949236	0.077014	0.940888	-0.287821	0.178575	-0.147344	0.126925	0.980908
04712	12.314233	-4.884344	-11.376353	0.346222	1.239051	-0.326781	-0.306209	-0.949791	0.064287	0.939369	-0.290520	0.182163	-0.154340	0.116170	0.981164
04713	14.444413	-1.663324	-9.841918	1.533136	-0.149694	-1.064333	-0.316459	-0.946463	0.063727	0.933572	-0.298827	0.197855	-0.168219	0.122107	0.978158
04714	15.360357	4.165730	-4.220181	1.150915	-1.245695	-1.525355	-0.332799	-0.940184	0.072799	0.926649	-0.311740	0.210097	-0.174835	0.137379	0.974966
04715	17.278692	6.775076	0.409750	-0.249957	-2.356270	-1.517410	-0.350864	-0.931837	0.092596	0.921873	-0.326353	0.208910	-0.164451	0.158661	0.973541
04716	12.149486	0.581529	5.926211	-1.870020	-2.303409	-1.614673	-0.369235	-0.922585	0.111818	0.918898	-0.344452	0.192302	-0.138899	0.173754	0.974945
04717	7.551758	-4.283154	10.046882	-1.332863	-2.250301	-1.862873	-0.389238	-0.911873	0.130313	0.913531	-0.363999	0.181563	-0.118128	0.189716	0.974707
04718	-2.683477	-0.652970	10.067054	-0.424843	-2.087269	-1.724436	-0.407289	-0.901304	0.147539	0.907139	-0.380496	0.179784	-0.105901	0.207063	0.972579
04719	-7.231841	0.678054	15.753344	-0.912750	-2.347636	-1.168256	-0.420174	-0.891694	0.168329	0.903177	-0.392973	0.172755	-0.087895	0.224618	0.970475
04720	-1.420814	-2.249917	10.855291	-1.779129	-2.506712	-0.528886	-0.426830	-0.883762	0.191786	0.902261	-0.401820	0.156416	-0.061171	0.239805	0.968892
04721	2.994752	-4.029958	6.769022	-1.648206	-2.744499	0.141898	-0.426895	-0.877488	0.218576	0.903642	-0.404702	0.140171	-0.034540	0.257353	0.965700
04722	6.987937	-4.983874	8.578645	-1.150659	-2.604666	0.475206	-0.423225	-0.872459	0.244329	0.905931	-0.403631	0.127948	-0.013010	0.275495	0.961214
04723	7.431705	-2.729719	12.617759	-0.912817	-2.246864	0.625102	-0.417670	-0.868582	0.266677	0.908587	-0.400806	0.117579	0.004759	0.291408	0.956587
04724	3.704962	-3.390526	11.464516	-1.501531	-2.017352	0.751323	-0.410524	-0.865580	0.286777	0.911455	-0.398776	0.101130	0.026824	0.302900	0.952645
04725	2.663479	-4.485774	9.380987	-0.983987	-2.237519	0.653545	-0.403771	-0.861208	0.308692	0.913755	-0.396215	0.089813	0.044961	0.318332	0.946912
04726	7.344569	-3.033145	11.026950	0.018987	-2.293309	0.459216	-0.398445	-0.855479	0.330752	0.915599	-0.392234	0.088489	0.054032	0.338094	0.939560
04727	9.107254	-1.602709	13.520101	0.305531	-2.000347	0.330477	-0.394291	-0.849804	0.349812	0.917076	-0.388377	0.090193	0.059213	0.356367	0.932468
04728	13.365697	-0.544025	17.063811	0.581459	-1.656117	0.321662	-0.390357	-0.844996	0.365517	0.918679	-0.383556	0.094412	0.060419	0.372647	0.926004
04729	12.082187	4.266934	14.543990	0.247077	-0.804009	0.207212	-0.387962	-0.842740	0.373194	0.919632	-0.380895	0.095895	0.061333	0.380405	0.922784
04730	4.305655	5.346022	9.365002	-0.169107	-0.583310	0.095462	-0.386725	-0.840860	0.378680	0.919888	-0.380764	0.093944	0.065194	0.384674	0.920747
04731	6.648254	1.776842	11.410934	-0.456724	-0.513551	0.096111	-0.385493	-0.839219	0.383545	0.919941	-0.381739	0.089347	0.071433	0.387282	0.919190
04732	4.427814	-0.733242	9.220365	-0.412976	-0.295004	0.065509	-0.384682	-0.838313	0.386331	0.919881	-0.382817	0.085267	0.076413	0.388179	0.918411
04733	3.950024	1.471915	9.581997	-0.030609	-0.413761	0.038828	-0.384006	-0.836822	0.390215	0.920001	-0.382631	0.084806	0.078341	0.391564	0.916810
04734	4.860612	1.611764	9.741145	-0.267917	-0.359762	0.045894	-0.383305	-0.835573	0.393567	0.919954	-0.383325	0.082138	0.082232	0.393548	0.915619
04735	4.664061	0.837346	9.618819	-0.233508	-0.283358	0.051838	-0.382593	-0.834628	0.396257	0.919951	-0.383833	0.079768	0.085520	0.395055	0.914668
04736	4.577936	0.871711	9.415775	-0.225328	-0.257661	0.036331	-0.382043	-0.833735	0.398659	0.919885	-0.384448	0.077531	0.088624	0.396341	0.913816
04737	4.614672	0.258328	9.685824	-0.213352	-0.219411	0.018146	-0.381681	-0.832907	0.400732	0.919756	-0.385164	0.075481	0.091479	0.397385	0.913081
04738	4.684587	0.038576	9.590482	-0.118084	-0.196077	-0.003582	-0.381542	-0.832100	0.402537	0.919625	-0.385690	0.074385	0.093359	0.398564	0.912376
04739	4.268243	0.507635	9.479989	-0.053874	-0.179078	-0.024309	-0.381597	-0.831264	0.404208	0.919476	-0.386127	0.073962	0.094594	0.399883	0.911672
04740	4.228521	0.924711	9.319239	-0.052440	-0.190144	-0.033135	-0.381730	-0.830361	0.405935	0.919291	-0.386639	0.073586	0.095847	0.401262	0.910935
04741	4.288822	1.270671	9.320296	-0.062907	-0.181287	-0.020792	-0.381747	-0.829525	0.407625	0.919145	-0.387084	0.073068	0.097174	0.402560	0.910221
04742	4.156780	1.064145	9.296987	-0.110133	-0.176591	-0.010075	-0.381675	-0.828761	0.409243	0.918990	-0.387638	0.072075	0.098905	0.403599	0.909574
04743	4.101180	0.852758	9.198994	-0.110802	-0.195814	-0.005704	-0.381533	-0.827919	0.411075	0.918851	-0.388154	0.071062	0.100727	0.404829	0.908828
04744	4.112928	0.853132	9.271410	-0.113825	-0.216502	0.005504	-0.381271	-0.827049	0.413064	0.918747	-0.388597	0.069973	0.102644	0.406180	0.908010
04745	4.265113	0.774683	9.246437	-0.128439	-0.227687	0.012108	-0.380925	-0.826142	0.415193	0.918653	-0.389040	0.068729	0.104747	0.407600	0.907133
04746	4.394918	0.866535	9.248149	-0.113492	-0.229968	0.020287	-0.380504	-0.825269	0.417311	0.918602	-0.389362	0.067584	0.106710	0.409058	0.906247
04747	4.447534	0.835880	9.311672	-0.137680	-0.206863	0.026222	-0.380042	-0.824495	0.419257	0.918546	-0.389731	0.066199	0.108817	0.410265	0.905451
04748	4.117493	0.757986	9.171649	-0.151698	-0.209184	0.031758	-0.379529	-0.823746	0.421189	0.918491	-0.390120	0.064660	0.111051	0.411399	0.904665
04749	4.410077	0.552033	9.365465	-0.161878	-0.238792	0.035948	-0.378932	-0.822874	0.423426	0.918438	-0.390512	0.063017	0.113498	0.412770	0.903736
04750	4.381508	0.086625	9.363812	-0.169673	-0.225616	0.022439	-0.378475	-0.822015	0.425497	0.918319	-0.391056	0.061358	0.115956	0.413964	0.902878
04751	5.303546	0.335414	9.507015	-0.050608	-0.243245	0.013001	-0.378073	-0.821028	0.427754	0.918302	-0.391181	0.060817	0.117396	0.415801	0.901847
04752	4.785410	0.631867	9.406011	-0.057051	-0.143042	0.009505	-0.377825	-0.820456	0.429068	0.918262	-0.391367	0.060231	0.118506	0.416753	0.901262
04753	4.589497	0.555824	9.244779	-0.048621	-0.138814	0.014484	-0.377527	-0.819905	0.430383	0.918251	-0.391472	0.059702	0.119533	0.417739	0.900670
04754	4.594427	0.732722	9.297773	-0.027718	-0.132315	0.017238	-0.377219	-0.819405	0.431603	0.918274	-0.391474	0.059347	0.120332	0.418716	0.900109
04755	4.636484	0.780835	9.258280	-0.032762	-0.115657	0.023012	-0.376868	-0.818981	0.432713	0.918313	-0.391444	0.058924	0.121125	0.419573	0.899604
04756	4.591043	0.655006	9.264606	-0.044157	-0.100780	0.027986	-0.376497	-0.818654	0.433654	0.918356	-0.391427	0.058374	0.121956	0.420226	0.899187
04757	4.594058	0.566473	9.233091	-0.039514	-0.089942	0.025177	-0.376155	-0.818345	0.434533	0.918395	-0.391409	0.057882	0.122713	0.420845	0.898794
04758	4.564179	0.598447	9.214791	-0.025939	-0.092115	0.021084	-0.375857	-0.818026	0.435391	0.918433	-0.391373	0.057525	0.123343	0.421499	0.898402
04759	4.504167	0.594068	9.184365	-0.033089	-0.083473	0.026691	-0.375508	-0.817749	0.436212	0.918484	-0.391315	0.057084	0.124016	0.422089	0.898032
04760	4.578145	0.754477	9.209635	-0.025633	-0.086107	0.025659	-0.375174	-0.817472	0.437018	0.918539	-0.391241	0.056710	0.124620	0.422694	0.897663
04761	4.795295	0.742132	9.205559	-0.040619	-0.068025	0.026035	-0.374850	-0.817256	0.437699	0.918579	-0.391222	0.056204	0.125304	0.423129	0.897363
04762	4.580266	0.693841	9.187271	-0.050347	-0.044525	0.033802	-0.374492	-0.817186	0.438136	0.918632	-0.391186	0.055573	0.125979	0.423297	0.897189
04763	4.219406	0.716355	9.114981	-0.061949	-0.053360	0.035074	-0.374102	-0.817067	0.438690	0.918678	-0.391183	0.054836	0.126803	0.423529	0.896964
04764	4.223986	0.585122	9.097298	-0.071055	-0.088173	0.042141	-0.373611	-0.816845	0.439521	0.918735	-0.391167	0.053983	0.127831	0.423972	0.896608
04765	4.767583	0.421940	9.225285	-0.051367	-0.111528	0.030266	-0.373190	-0.816460	0.440593	0.918774	-0.391160	0.053362	0.128775	0.424720	0.896120
04766	4.693688	0.398714	9.188219	-0.023612	-0.091719	0.018649	-0.372909	-0.816129	0.441443	0.918804	-0.391135	0.053037	0.129379	0.425377	0.895721
04767	4.831316	0.773727	9.206397	0.021159	-0.093880	0.019498	-0.372608	-0.815776	0.442350	0.918896	-0.390908	0.053113	0.129590	0.426264	0.895269
04768	4.597041	0.644957	9.107368	-0.007315	-0.068064	0.020100	-0.372343	-0.815550	0.442988	0.918952	-0.390803	0.052927	0.129956	0.426791	0.894964
04769	4.757806	0.771497	9.223874	0.017961	-0.075152	0.020987	-0.372053	-0.815281	0.443727	0.919045	-0.390577	0.052967	0.130127	0.427512	0.894595
04770	4.686577	0.562464	9.151880	-0.036795	-0.055551	0.023375	-0.371774	-0.815121	0.444255	0.919074	-0.390571	0.052503	0.130717	0.427823	0.894361
04771	4.629065	0.609562	9.244229	-0.051819	-0.042164	0.023099	-0.371506	-0.815000	0.444700	0.919084	-0.390627	0.051910	0.131405	0.428002	0.894174
04772	4.540869	0.393894	9.120930	-0.053244	-0.048634	0.019495	-0.371271	-0.814854	0.445163	0.919077	-0.390723	0.051316	0.132120	0.428191	0.893978
04773	4.582571	0.516703	9.135493	-0.032328	-0.058147	0.013537	-0.371070	-0.814627	0.445746	0.919076	-0.390774	0.050940	0.132689	0.428577	0.893709
04774	4.565034	0.575453	9.102042	-0.030140	-0.067804	0.014565	-0.370854	-0.814380	0.446377	0.919080	-0.390812	0.050575	0.133263	0.429012	0.893414
04775	4.580889	0.770891	9.165449	-0.027860	-0.074335	0.025830	-0.370518	-0.814131	0.447110	0.919131	-0.390744	0.050184	0.133850	0.429547	0.893070
04776	4.561855	0.704525	9.116193	-0.056968	-0.072654	0.029856	-0.370154	-0.813921	0.447792	0.919155	-0.390773	0.049510	0.134688	0.429917	0.892766
04777	4.622644	0.671710	9.155862	-0.058746	-0.081129	0.042896	-0.369651	-0.813709	0.448593	0.919226	-0.390699	0.048767	0.135583	0.430385	0.892404
04778	4.298770	0.683391	9.133671	-0.065557	-0.087283	0.043753	-0.369138	-0.813490	0.449412	0.919288	-0.390653	0.047955	0.136553	0.430841	0.892037
04779	4.737030	0.561543	9.192821	-0.052304	-0.130960	0.052168	-0.368479	-0.813098	0.450660	0.919400	-0.390478	0.047228	0.137572	0.431739	0.891446
04780	4.684894	0.373845	9.100963	-0.056970	-0.111390	0.036748	-0.367996	-0.812747	0.451688	0.919447	-0.390452	0.046523	0.138551	0.432423	0.890962
04781	4.702020	0.592958	9.196664	-0.003350	-0.125867	0.031188	-0.367535	-0.812292	0.452879	0.919548	-0.390237	0.046326	0.139100	0.433471	0.890368
04782	4.797809	0.484150	9.102921	-0.009535	-0.119021	0.036665	-0.367040	-0.811905	0.453973	0.919660	-0.390008	0.046044	0.139670	0.434401	0.889825
04783	4.819686	0.541191	9.091156	0.015801	-0.115787	0.034242	-0.366564	-0.811503	0.455075	0.919799	-0.389685	0.046003	0.140004	0.435440	0.889264
04784	4.799834	0.496469	9.096833	0.009856	-0.106771	0.038898	-0.366065	-0.811176	0.456060	0.919945	-0.389354	0.045883	0.140350	0.436346	0.888765
04785	4.743579	0.627866	9.059371	0.032581	-0.098993	0.041871	-0.365541	-0.810874	0.457014	0.920135	-0.388895	0.045955	0.140467	0.437314	0.888271
04786	4.801965	0.641648	9.084916	0.008438	-0.085799	0.051945	-0.364951	-0.810687	0.457818	0.920327	-0.388465	0.045762	0.140748	0.438043	0.887867
04787	4.795481	0.457603	9.071253	0.001322	-0.081902	0.056896	-0.364313	-0.810517	0.458627	0.920527	-0.388021	0.045487	0.141089	0.438750	0.887464
04788	4.692487	0.517202	9.063332	0.018758	-0.085995	0.061121	-0.363637	-0.810362	0.459436	0.920766	-0.387471	0.045343	0.141274	0.439521	0.887053
04789	4.697743	0.549337	9.069633	0.040381	-0.106885	0.068910	-0.362852	-0.810127	0.460471	0.921065	-0.386759	0.045358	0.141345	0.440581	0.886515
04790	4.666868	0.587094	9.154933	0.030580	-0.108049	0.077665	-0.361992	-0.809936	0.461481	0.921379	-0.386023	0.045241	0.141500	0.441576	0.885996
04791	4.719926	0.517229	9.151379	0.034141	-0.120972	0.080575	-0.361079	-0.809680	0.462645	0.921710	-0.385243	0.045145	0.141677	0.442725	0.885394
04792	4.419006	0.703943	9.083041	0.055966	-0.150270	0.090537	-0.360040	-0.809348	0.464034	0.922106	-0.384290	0.045191	0.141749	0.444158	0.884664
04793	4.785135	0.654439	9.232676	0.060202	-0.201268	0.101640	-0.358818	-0.808810	0.465914	0.922547	-0.383224	0.045225	0.141971	0.446055	0.883673
04794	4.812954	0.423604	9.094275	0.037563	-0.192195	0.102658	-0.357606	-0.808330	0.467676	0.922958	-0.382254	0.045047	0.142358	0.447755	0.882751
04795	4.776279	0.445930	9.169256	0.109828	-0.212835	0.093150	-0.356445	-0.807698	0.469650	0.923438	-0.381033	0.045555	0.142158	0.449931	0.881676
04796	4.796828	0.452055	9.158222	0.114963	-0.227109	0.081266	-0.355380	-0.806969	0.471707	0.923881	-0.379887	0.046155	0.141949	0.452203	0.880547
04797	4.633431	0.410315	9.184757	0.166833	-0.261583	0.075122	-0.354316	-0.806034	0.474098	0.924375	-0.378549	0.047243	0.141390	0.454983	0.879204
04798	4.376496	0.495630	9.303471	0.191510	-0.363434	0.066720	-0.353195	-0.804612	0.477340	0.924871	-0.377165	0.048577	0.140950	0.458635	0.877375
04799	4.568889	0.362681	9.127682	0.279869	-0.443704	0.072876	-0.351899	-0.802808	0.481317	0.925512	-0.375314	0.050656	0.139978	0.463290	0.875082
04800	4.681635	0.577323	9.162516	0.370278	-0.530300	0.071543	-0.350506	-0.800590	0.486005	0.926269	-0.373043	0.053515	0.138458	0.468929	0.872316
04801	4.632845	0.754626	9.158559	0.390621	-0.601147	0.084051	-0.348901	-0.798032	0.491338	0.927093	-0.370553	0.056481	0.136993	0.475222	0.869136
04802	4.619856	0.850123	9.250280	0.433350	-0.708351	0.109493	-0.346929	-0.795030	0.497562	0.928054	-0.367635	0.059668	0.135483	0.482465	0.865374
04803	4.386739	0.881420	9.481546	0.443644	-0.839216	0.133730	-0.344558	-0.791402	0.504938	0.929106	-0.364441	0.062803	0.134318	0.490781	0.860868
04804	4.123840	0.903556	9.682292	0.502002	-1.071216	0.163121	-0.341616	-0.786666	0.514252	0.930328	-0.360694	0.066250	0.133371	0.501055	0.855077
04805	3.787347	1.074079	9.800978	0.531160	-1.353168	0.192341	-0.338026	-0.780458	0.525951	0.931681	-0.356519	0.069748	0.133076	0.513595	0.847650
04806	3.789280	1.354233	10.176178	0.534456	-1.719803	0.232141	-0.333574	-0.772301	0.540630	0.933164	-0.351962	0.072987	0.133913	0.528843	0.838089
04807	4.298738	1.051961	9.733399	0.429271	-2.078200	0.260786	-0.328330	-0.762007	0.558162	0.934600	-0.347682	0.075105	0.136832	0.546317	0.826326
04808	4.812200	0.450352	9.438218	0.382705	-2.378932	0.239186	-0.322796	-0.749591	0.577854	0.935901	-0.343778	0.076856	0.141043	0.565623	0.812513
04809	5.259044	0.072585	8.935878	0.369846	-2.619455	0.184909	-0.317310	-0.735101	0.599116	0.937014	-0.340305	0.078723	0.146013	0.586360	0.796782
04810	5.809009	0.103627	8.864573	0.357396	-2.807768	0.138994	-0.311837	-0.718787	0.621372	0.937973	-0.337194	0.080667	0.151540	0.607985	0.779352
04811	5.185141	0.484434	9.311732	0.359048	-3.039824	0.111583	-0.306095	-0.700298	0.644894	0.938863	-0.334209	0.082704	0.157612	0.630783	0.759784
04812	5.178544	1.127529	9.721860	0.306665	-3.487470	0.152973	-0.299034	-0.678352	0.671132	0.939811	-0.331216	0.083969	0.165329	0.655847	0.736567
04813	6.399735	2.135782	10.154747	0.326913	-3.944978	0.313211	-0.289400	-0.652932	0.699948	0.941277	-0.326976	0.084168	0.173910	0.683203	0.709217
04814	6.447692	3.005634	10.749496	0.168330	-4.292627	0.585713	-0.276194	-0.624882	0.730232	0.943225	-0.322095	0.081127	0.184510	0.711180	0.678365
04815	8.618611	3.657625	11.539557	-0.187656	-4.539244	0.924431	-0.258778	-0.594904	0.761002	0.945327	-0.317854	0.072980	0.198472	0.738281	0.644632
04816	9.969424	4.198012	12.514702	-0.773589	-4.341987	1.239636	-0.238042	-0.566261	0.789104	0.946789	-0.316494	0.058494	0.216623	0.761039	0.611468
04817	11.374511	2.051601	11.414467	-1.044423	-4.290487	1.317467	-0.215860	-0.537308	0.815294	0.947400	-0.317322	0.041711	0.236299	0.781414	0.577542
04818	11.112128	1.641672	11.283219	-0.730615	-4.041817	1.230006	-0.194347	-0.509218	0.838407	0.948128	-0.316702	0.027427	0.251559	0.800248	0.544354
04819	10.788885	0.996219	11.153498	-0.494392	-3.896437	1.140344	-0.173513	-0.481258	0.859235	0.948937	-0.315101	0.015139	0.263460	0.817987	0.511358
04820	9.859047	1.227402	11.275173	-0.264307	-3.765928	1.080479	-0.153171	-0.453502	0.877994	0.949982	-0.312274	0.004434	0.272164	0.834758	0.478650
04821	9.289838	1.284201	11.239855	-0.143968	-3.519552	1.031138	-0.133699	-0.427032	0.894298	0.951049	-0.308995	-0.005364	0.278624	0.849804	0.447440
04822	8.043099	1.626654	10.846670	-0.037968	-3.091812	0.991971	-0.115583	-0.403583	0.907613	0.952165	-0.305240	-0.014473	0.282881	0.862525	0.419559
04823	4.912967	2.196526	9.773838	-0.094868	-2.700267	1.030783	-0.098102	-0.383265	0.918414	0.952981	-0.302059	-0.024258	0.286712	0.872851	0.394876
04824	1.061922	2.263128	8.624814	-0.404684	-3.186857	1.211429	-0.077318	-0.358908	0.930165	0.952856	-0.301157	-0.036999	0.293405	0.883453	0.365273
04825	0.350427	2.795149	8.097926	-0.576537	-3.978227	1.454793	-0.051662	-0.327897	0.943300	0.952063	-0.301344	-0.052607	0.301507	0.895363	0.327747
04826	9.483718	0.340673	14.386229	-0.368115	-4.039103	1.329128	-0.026732	-0.295473	0.954977	0.951452	-0.300558	-0.066361	0.306634	0.906841	0.289163
04827	17.166285	4.474989	18.494669	-0.039082	-1.651159	0.761709	-0.014463	-0.282752	0.959084	0.951473	-0.298767	-0.073733	0.307391	0.911476	0.273352
04828	7.070683	4.509080	16.918050	-0.696606	0.699485	0.340095	-0.013408	-0.290116	0.956898	0.949344	-0.304169	-0.078917	0.313954	0.907366	0.279498
04829	1.432301	4.041376	13.328846	-0.781432	1.836904	-0.054654	-0.019827	-0.306572	0.951641	0.946836	-0.311453	-0.080608	0.321104	0.899450	0.296449
04830	-3.690457	3.811123	8.859125	-0.907439	2.045918	-0.261776	-0.028959	-0.324030	0.945604	0.943808	-0.320439	-0.080901	0.329223	0.890126	0.315101
04831	-4.954430	2.651208	6.683680	-0.941469	1.833142	-0.385170	-0.038781	-0.339055	0.939967	0.940520	-0.330118	-0.080272	0.337517	0.880945	0.331690
04832	-2.912260	1.863192	7.668933	-0.617379	1.686169	-0.511338	-0.049323	-0.352114	0.934657	0.938181	-0.337340	-0.077577	0.342613	0.873051	0.346985
04833	0.075460	1.960888	9.834845	-0.449534	1.883073	-0.659044	-0.062074	-0.366286	0.928429	0.936245	-0.343681	-0.072994	0.345820	0.864707	0.364267
04834	1.958395	2.017039	10.818630	-0.383809	2.437447	-0.789038	-0.077911	-0.384477	0.919841	0.934347	-0.349981	-0.067146	0.347743	0.854219	0.386503
04835	1.974042	1.745433	10.388009	-0.390648	3.060834	-0.859907	-0.096699	-0.407445	0.908096	0.932212	-0.356767	-0.060807	0.348755	0.840658	0.414324
04836	1.342205	0.835844	9.238492	-0.388584	3.493856	-0.853757	-0.116838	-0.433441	0.893576	0.929930	-0.363632	-0.054793	0.348683	0.824561	0.445556
04837	1.354256	0.153560	8.416998	-0.231811	3.714103	-0.810986	-0.137389	-0.460845	0.876782	0.928067	-0.369223	-0.048643	0.346145	0.807029	0.478422
04838	2.020043	-0.143626	8.195708	-0.036075	3.841666	-0.771156	-0.157743	-0.488615	0.858121	0.926789	-0.373211	-0.042141	0.340851	0.788650	0.511715
04839	2.767212	-0.051085	8.385999	0.188502	3.954379	-0.733980	-0.177973	-0.516754	0.837431	0.926163	-0.375506	-0.034883	0.332487	0.769390	0.545428
04840	3.705782	-0.150028	9.091542	0.320703	4.064586	-0.684103	-0.197615	-0.545023	0.814800	0.925912	-0.376741	-0.027440	0.321924	0.749010	0.579093
04841	5.536923	-0.804672	10.076927	0.470364	4.216044	-0.565487	-0.216268	-0.574092	0.789713	0.926195	-0.376509	-0.020064	0.308853	0.727090	0.613148
04842	7.476640	-1.527737	10.718183	0.657049	4.476765	-0.364645	-0.233121	-0.604724	0.761554	0.927338	-0.373996	-0.013108	0.292745	0.703162	0.647969
04843	8.274383	-2.029674	10.778068	0.916784	4.758581	-0.085000	-0.247483	-0.637326	0.729772	0.929696	-0.368273	-0.006339	0.272795	0.676898	0.683661
04844	8.408481	-2.105907	10.656081	1.154920	4.916617	0.246460	-0.258038	-0.670804	0.695297	0.933323	-0.359038	-0.000015	0.249648	0.648933	0.718722
04845	8.446615	-2.031741	10.462032	1.408038	4.920489	0.535798	-0.264777	-0.703990	0.659008	0.938028	-0.346493	0.006738	0.223598	0.619952	0.752106
04846	8.078710	-1.457071	10.385350	1.642688	4.806015	0.720636	-0.268074	-0.735520	0.622212	0.943379	-0.331391	0.014706	0.195379	0.590924	0.782711
04847	7.451590	-1.039792	10.372473	1.742085	4.563187	0.785689	-0.269001	-0.764439	0.585893	0.948617	-0.315525	0.023860	0.166625	0.562206	0.810037
04848	7.686755	-1.263707	10.876886	1.974547	4.168818	0.751158	-0.268187	-0.789625	0.551877	0.953621	-0.298876	0.035785	0.136687	0.535878	0.833157
04849	10.740508	-1.098003	13.663226	2.365163	3.867272	0.617399	-0.267028	-0.811731	0.519412	0.958093	-0.281617	0.052444	0.103705	0.511649	0.852913
04850	15.648508	-0.498334	17.214249	2.806620	3.926598	0.357184	-0.266947	-0.832304	0.485807	0.961426	-0.264693	0.074813	0.066322	0.487039	0.870858
04851	20.086261	0.947599	19.788889	3.047673	4.597363	-0.000853	-0.269132	-0.854029	0.445199	0.962788	-0.250404	0.101674	0.024647	0.455996	0.889640
04852	19.846619	3.007037	19.404484	2.895056	5.534589	-0.382668	-0.273006	-0.877192	0.394970	0.961840	-0.241131	0.129303	-0.018184	0.415198	0.909549
04853	16.249371	3.759200	15.708995	2.377572	6.080537	-0.784278	-0.278304	-0.899118	0.337837	0.958751	-0.238877	0.154057	-0.057814	0.366777	0.928511
04854	6.125256	12.344204	16.485036	1.804123	4.540603	-0.947802	-0.284081	-0.912654	0.293873	0.954771	-0.241204	0.173875	-0.087804	0.329976	0.939897
04855	16.886389	-3.008624	1.802783	-4.276735	3.397614	-0.896184	-0.290261	-0.920906	0.260156	0.955264	-0.262717	0.135834	-0.056742	0.287945	0.955964
04856	15.641335	-14.478192	-3.261769	-1.153747	2.961480	-1.225544	-0.300317	-0.925665	0.230116	0.952285	-0.277203	0.127721	-0.054438	0.257493	0.964746
04857	27.497419	-6.820258	5.243079	1.956716	2.649837	-2.272758	-0.320123	-0.925753	0.201250	0.943887	-0.293452	0.151535	-0.081227	0.238468	0.967748
04858	28.604059	5.784722	2.249124	0.461086	2.974539	-2.214086	-0.338326	-0.925737	0.168958	0.936190	-0.312932	0.160070	-0.095311	0.212333	0.972538
04859	21.469395	1.954405	-9.799234	-2.859035	2.146101	-0.717366	-0.343247	-0.927684	0.146917	0.936177	-0.325282	0.133282	-0.075854	0.183289	0.980128
04860	15.206960	-8.790829	-21.544670	-3.069726	0.652120	0.449343	-0.338637	-0.930283	0.141059	0.939628	-0.326506	0.102437	-0.049239	0.167232	0.984687
04861	13.745484	-12.939013	-20.361448	-1.002216	-1.122007	-0.609522	-0.344870	-0.926341	0.151515	0.937961	-0.333910	0.093454	-0.035978	0.174344	0.984027
04862	18.442933	-3.677737	-11.444515	1.099683	-3.103810	-1.226532	-0.357465	-0.916267	0.180758	0.933258	-0.343135	0.106242	-0.035322	0.206671	0.977773
04863	4.611791	-2.737150	7.326742	0.796739	-1.980969	-0.581595	-0.363606	-0.909944	0.199481	0.930874	-0.346738	0.115098	-0.035565	0.227542	0.973119
04864	3.490121	3.190770	21.452524	2.488666	-2.853799	-0.304757	-0.367648	-0.901897	0.226754	0.928714	-0.343428	0.139816	-0.048226	0.261992	0.963864
04865	-1.058043	8.374577	18.343527	-1.252078	-2.439095	0.306272	-0.365742	-0.896325	0.250667	0.930307	-0.344086	0.127017	-0.027598	0.279653	0.959704
04866	2.657270	-0.037866	4.652695	-2.562126	-2.612719	0.831254	-0.358291	-0.891678	0.276656	0.933592	-0.344029	0.100249	0.005788	0.294202	0.955726
04867	3.768646	-3.534567	5.051263	-1.394319	-2.842669	0.702161	-0.351253	-0.885410	0.304418	0.935833	-0.342062	0.084912	0.028948	0.314710	0.948746
04868	7.845173	-0.585258	11.958271	0.305102	-2.887789	0.359209	-0.346958	-0.877149	0.332008	0.937181	-0.337919	0.086615	0.036218	0.341203	0.939292
04869	9.808242	-0.657900	15.615675	-0.568480	-2.514649	0.252352	-0.343518	-0.869146	0.355782	0.937799	-0.337738	0.080408	0.050275	0.361274	0.931104
04870	13.181903	-6.375202	17.121236	-0.469351	-2.122539	0.271401	-0.339791	-0.862203	0.375697	0.938457	-0.337149	0.075028	0.061976	0.378069	0.923701
04871	18.356607	-2.671582	16.032150	0.567162	-1.198089	0.119061	-0.337941	-0.857974	0.386880	0.939204	-0.333967	0.079767	0.060767	0.390315	0.918674
04872	4.487490	4.865814	10.997088	0.205411	-0.671145	-0.008327	-0.337620	-0.855293	0.393048	0.939294	-0.333256	0.081651	0.061150	0.396754	0.915886
04873	7.779587	2.413859	12.337121	-0.239323	-0.694854	0.016765	-0.337022	-0.852545	0.399480	0.939195	-0.334088	0.079364	0.065800	0.401936	0.913300
04874	5.916034	-1.902806	9.929887	-0.517699	-0.325888	-0.012057	-0.336921	-0.851180	0.402463	0.938791	-0.336301	0.074654	0.071805	0.402981	0.912387
04875	4.552112	0.055152	9.347682	0.141850	-0.403929	-0.060876	-0.337200	-0.849309	0.406166	0.938684	-0.336262	0.076159	0.071896	0.406942	0.910620
04876	5.188665	2.228635	9.787763	0.052102	-0.353314	-0.073114	-0.337641	-0.847607	0.409343	0.938468	-0.336697	0.076899	0.072644	0.410119	0.909134
04877	4.577384	1.735497	9.319251	-0.070428	-0.250369	-0.045584	-0.337883	-0.846392	0.411650	0.938258	-0.337391	0.076414	0.074211	0.412053	0.908133
04878	4.549280	1.288702	9.260520	-0.097186	-0.232754	-0.026775	-0.337969	-0.845328	0.413760	0.938087	-0.338046	0.075610	0.075955	0.413697	0.907241
04879	4.778241	1.066565	9.456456	-0.062895	-0.194382	-0.019050	-0.337998	-0.844425	0.415576	0.937970	-0.338487	0.075088	0.077261	0.415178	0.906454
04880	4.277259	0.502094	9.266842	-0.125746	-0.164141	-0.024560	-0.338109	-0.843647	0.417064	0.937782	-0.339244	0.074019	0.079041	0.416141	0.905858
04881	4.241842	0.514718	9.237036	-0.040410	-0.195271	-0.024644	-0.338184	-0.842716	0.418881	0.937662	-0.339640	0.073725	0.080139	0.417701	0.905043
04882	3.890958	0.558997	9.250509	-0.085390	-0.213451	-0.032196	-0.338323	-0.841700	0.420806	0.937476	-0.340296	0.073056	0.081707	0.419212	0.904204
04883	3.897711	0.403952	9.122733	-0.084227	-0.273699	-0.027935	-0.338357	-0.840422	0.423326	0.937307	-0.340904	0.072382	0.083482	0.421278	0.903081
04884	4.257109	0.984731	9.188934	-0.038083	-0.327318	-0.023913	-0.338315	-0.838944	0.426281	0.937187	-0.341293	0.072108	0.084992	0.423900	0.901712
04885	4.509573	0.911428	9.293036	-0.137212	-0.305952	-0.006886	-0.338114	-0.837587	0.429099	0.937040	-0.341954	0.070870	0.087372	0.426045	0.900473
04886	4.610432	0.877754	9.251602	-0.132798	-0.302334	0.005710	-0.337803	-0.836303	0.431842	0.936934	-0.342501	0.069619	0.089683	0.428125	0.899259
04887	4.508288	1.037306	9.157383	-0.151666	-0.301162	0.023290	-0.337309	-0.835056	0.434630	0.936870	-0.342978	0.068125	0.092180	0.430171	0.898029
04888	4.448277	1.031108	9.145994	-0.175743	-0.292340	0.031879	-0.336747	-0.833892	0.437293	0.936805	-0.343497	0.066378	0.094857	0.432011	0.896866
04889	4.569994	0.639020	9.206664	-0.204420	-0.307690	0.042845	-0.336048	-0.832673	0.440145	0.936747	-0.344046	0.064328	0.097866	0.433922	0.895620
04890	4.822355	0.613119	9.222827	-0.171658	-0.292744	0.041158	-0.335381	-0.831528	0.442809	0.936706	-0.344478	0.062579	0.100502	0.435770	0.894429
04891	4.942998	0.465669	9.250391	-0.168453	-0.268032	0.037375	-0.334757	-0.830452	0.445294	0.936654	-0.344924	0.060878	0.103036	0.437466	0.893312
04892	5.290785	0.470660	9.326651	-0.117244	-0.239917	0.029407	-0.334241	-0.829489	0.447472	0.936622	-0.345222	0.059669	0.104982	0.439056	0.892305
04893	5.124484	0.639891	9.265436	-0.088241	-0.148034	0.021639	-0.333880	-0.828878	0.448871	0.936596	-0.345451	0.058756	0.106362	0.440028	0.891663
04894	4.511796	0.698078	9.217926	-0.088474	-0.158516	0.024862	-0.333486	-0.828252	0.450317	0.936575	-0.345663	0.057824	0.107765	0.441039	0.890994
04895	5.419732	0.546585	9.156551	-0.074243	-0.102860	0.004994	-0.333326	-0.827780	0.451302	0.936506	-0.345971	0.057111	0.108862	0.441684	0.890542
04896	4.816671	0.604376	9.188563	-0.067680	-0.095745	0.001663	-0.333215	-0.827349	0.452174	0.936429	-0.346284	0.056470	0.109860	0.442245	0.890140
04897	4.750813	0.659461	9.201927	-0.059992	-0.088293	-0.002731	-0.333141	-0.826913	0.453025	0.936347	-0.346593	0.055919	0.110775	0.442818	0.889742
04898	4.881015	0.668335	9.127205	-0.041006	-0.077476	-0.002200	-0.333085	-0.826549	0.453731	0.936286	-0.346821	0.055534	0.111462	0.443319	0.889407
04899	4.719998	0.564220	9.168903	-0.058189	-0.061574	0.001234	-0.333002	-0.826244	0.454346	0.936218	-0.347091	0.054982	0.112271	0.443676	0.889127
04900	4.787557	0.685158	9.127786	-0.028952	-0.073373	0.004034	-0.332891	-0.825919	0.455019	0.936191	-0.347214	0.054675	0.112832	0.444185	0.888802
04901	4.708748	0.651783	9.140591	-0.039948	-0.058849	0.013743	-0.332693	-0.825669	0.455616	0.936185	-0.347300	0.054229	0.113460	0.444582	0.888523
04902	4.812638	0.506411	9.095745	-0.022490	-0.064422	0.006976	-0.332564	-0.825393	0.456210	0.936174	-0.347370	0.053967	0.113930	0.445039	0.888234
04903	4.703840	0.628808	9.129821	-0.014401	-0.049987	0.002457	-0.332481	-0.825143	0.456722	0.936159	-0.347436	0.053799	0.114290	0.445452	0.887981
04904	4.674867	0.639263	9.079531	-0.008109	-0.061430	0.004828	-0.332375	-0.824872	0.457288	0.936157	-0.347460	0.053674	0.114615	0.445934	0.887697
04905	4.627699	0.643899	9.103401	-0.007353	-0.068887	0.008582	-0.332213	-0.824559	0.457971	0.936171	-0.347444	0.053541	0.114972	0.446526	0.887353
04906	4.803807	0.465063	9.072973	-0.021864	-0.076717	0.009988	-0.332040	-0.824237	0.458675	0.936170	-0.347488	0.053271	0.115476	0.447086	0.887006
04907	4.723642	0.481434	9.048548	0.008424	-0.079105	0.004566	-0.331904	-0.823863	0.459445	0.936188	-0.347435	0.053296	0.115719	0.447816	0.886606
04908	4.770680	0.634467	9.090911	0.019265	-0.081861	0.004909	-0.331772	-0.823499	0.460191	0.936218	-0.347336	0.053413	0.115855	0.448561	0.886212
04909	4.780993	0.602693	9.076826	0.013766	-0.086155	0.008676	-0.331589	-0.823106	0.461025	0.936256	-0.347225	0.053467	0.116070	0.449367	0.885775
04910	4.786131	0.643148	9.059341	0.004801	-0.082316	0.008602	-0.331422	-0.822752	0.461777	0.936282	-0.347161	0.053439	0.116344	0.450064	0.885385
04911	4.819887	0.522005	9.044287	0.006274	-0.080716	0.011325	-0.331220	-0.822392	0.462564	0.936320	-0.347062	0.053414	0.116610	0.450799	0.884976
04912	4.824945	0.562696	9.026777	0.019946	-0.086805	0.010148	-0.331033	-0.822022	0.463355	0.936368	-0.346916	0.053513	0.116756	0.451586	0.884556
04913	4.935913	0.586570	8.978071	0.043788	-0.081596	0.012525	-0.330818	-0.821660	0.464149	0.936454	-0.346638	0.053814	0.116675	0.452457	0.884121
04914	4.887308	0.635873	8.987856	0.050529	-0.070454	0.014609	-0.330608	-0.821378	0.464798	0.936553	-0.346317	0.054163	0.116480	0.453214	0.883759
04915	4.856484	0.655566	9.040267	0.042981	-0.063170	0.023559	-0.330312	-0.821136	0.465435	0.936674	-0.345951	0.054405	0.116344	0.453931	0.883408
04916	4.740752	0.664800	9.039476	0.016473	-0.066784	0.032036	-0.329943	-0.820930	0.466060	0.936790	-0.345642	0.054371	0.116455	0.454540	0.883081
04917	4.815885	0.683103	8.990747	0.008234	-0.068586	0.042005	-0.329468	-0.820726	0.466754	0.936931	-0.345282	0.054220	0.116662	0.455180	0.882723
04918	4.740241	0.625245	8.970862	-0.013662	-0.073544	0.044605	-0.328973	-0.820531	0.467445	0.937054	-0.345007	0.053860	0.117078	0.455740	0.882380
04919	4.758856	0.690857	9.039087	-0.020999	-0.085481	0.056728	-0.328340	-0.820300	0.468295	0.937209	-0.344660	0.053382	0.117613	0.456418	0.881958
04920	4.814247	0.516487	9.009185	-0.026984	-0.095907	0.055964	-0.327711	-0.820041	0.469189	0.937352	-0.344353	0.052852	0.118226	0.457115	0.881515
04921	4.795758	0.644934	9.095665	-0.013027	-0.106418	0.062475	-0.326998	-0.819732	0.470225	0.937534	-0.343923	0.052416	0.118754	0.457991	0.880989
04922	4.828994	0.565323	9.042658	-0.037724	-0.108073	0.066588	-0.326254	-0.819452	0.471229	0.937698	-0.343579	0.051740	0.119506	0.458751	0.880492
04923	4.968158	0.466956	8.957289	-0.006207	-0.119442	0.066877	-0.325482	-0.819096	0.472380	0.937901	-0.343082	0.051342	0.120011	0.459757	0.879898
04924	4.834607	0.547506	9.002833	0.030487	-0.120401	0.061838	-0.324767	-0.818740	0.473489	0.938130	-0.342464	0.051288	0.120161	0.460850	0.879305
04925	5.068515	0.585739	8.980858	0.030256	-0.124439	0.056384	-0.324087	-0.818322	0.474676	0.938342	-0.341886	0.051259	0.120339	0.462021	0.878667
04926	4.865296	0.692152	8.932336	0.033957	-0.112128	0.060809	-0.323390	-0.817997	0.475710	0.938571	-0.341260	0.051238	0.120428	0.463058	0.878108
