// General information: 
//  MT Manager version: 2022.2.0 
//  XDA version: 2022.2.0 build 7381 rev 124627 built on 2023-07-19
// Device information: 
//  DeviceId: 00B4CB9F
//  ProductCode: MTW2-3A7G6
//  Firmware Version: 4.6.0
//  Hardware Version: 2.0.0
// Device settings: 
//  Filter Profile: human(46.1)
//  Option Flags: Orientation Smoother Disabled, Position/Velocity Smoother Disabled, Continuous Zero Rotation Update Disabled, AHS Disabled, ICC Disabled
// Coordinate system: ENU
PacketCounter	Acc_X	Acc_Y	Acc_Z	Gyr_X	Gyr_Y	Gyr_Z	Mat[1][1]	Mat[2][1]	Mat[3][1]	Mat[1][2]	Mat[2][2]	Mat[3][2]	Mat[1][3]	Mat[2][3]	Mat[3][3]
64408	9.358226	0.513936	2.610142	-0.076139	-0.001025	-0.032968	0.272592	-0.011405	0.962062	-0.164758	0.984606	0.058355	-0.947918	-0.174414	0.266517
64409	9.329050	0.486508	2.566476	-0.064663	-0.000421	-0.024597	0.272573	-0.011564	0.962066	-0.164242	0.984692	0.058369	-0.948013	-0.173921	0.266501
64410	9.416242	0.485402	2.577908	-0.049424	0.003284	-0.013660	0.272578	-0.011658	0.962063	-0.163791	0.984768	0.058340	-0.948089	-0.173480	0.266517
64411	9.444442	0.491171	2.678403	-0.027989	0.015668	-0.006944	0.272678	-0.011662	0.962035	-0.163549	0.984811	0.058294	-0.948103	-0.173235	0.266629
64412	9.404865	0.438222	2.658539	-0.025082	0.021027	-0.001415	0.272831	-0.011606	0.961992	-0.163362	0.984847	0.058213	-0.948091	-0.173035	0.266801
64413	9.390917	0.469327	2.662625	-0.023172	0.021198	0.001744	0.272979	-0.011528	0.961951	-0.163149	0.984889	0.058101	-0.948085	-0.172802	0.266973
64414	9.448169	0.416263	2.686945	-0.012690	0.016632	0.007720	0.273076	-0.011389	0.961925	-0.163105	0.984904	0.057964	-0.948064	-0.172724	0.267096
64415	9.450519	0.529875	2.681301	0.006409	0.019853	0.003773	0.273189	-0.011266	0.961895	-0.163255	0.984883	0.057902	-0.948006	-0.172852	0.267220
64416	9.403717	0.567273	2.676138	0.022733	0.018693	0.000693	0.273316	-0.011193	0.961859	-0.163528	0.984837	0.057927	-0.947922	-0.173124	0.267342
64417	9.347656	0.602764	2.637099	0.021420	0.005915	0.007798	0.273313	-0.011011	0.961862	-0.163953	0.984770	0.057860	-0.947850	-0.173514	0.267345
64418	9.403975	0.589781	2.621931	0.005598	-0.000460	0.003079	0.273255	-0.010947	0.961879	-0.164070	0.984753	0.057817	-0.947846	-0.173614	0.267293
64419	9.469819	0.578717	2.639687	-0.014826	-0.001189	-0.002348	0.273189	-0.010908	0.961898	-0.164028	0.984764	0.057754	-0.947873	-0.173556	0.267237
64420	9.473867	0.544831	2.604136	-0.032499	-0.010484	-0.006489	0.273052	-0.010956	0.961937	-0.163758	0.984812	0.057701	-0.947959	-0.173280	0.267111
64421	9.412191	0.521966	2.550383	-0.036963	-0.010753	-0.010319	0.272901	-0.011016	0.961979	-0.163482	0.984860	0.057656	-0.948050	-0.173001	0.266969
64422	9.347874	0.493610	2.569897	-0.029292	-0.004010	-0.009353	0.272830	-0.011081	0.961998	-0.163234	0.984902	0.057639	-0.948113	-0.172757	0.266902
64423	9.331952	0.519790	2.644818	-0.015812	0.000091	-0.005783	0.272773	-0.011067	0.962015	-0.163192	0.984911	0.057603	-0.948137	-0.172705	0.266851
64424	9.429948	0.481112	2.727399	-0.013950	0.009482	-0.007427	0.272827	-0.011090	0.961999	-0.163095	0.984927	0.057608	-0.948138	-0.172614	0.266906
64425	9.423157	0.509426	2.836534	-0.006783	0.010401	-0.007117	0.272860	-0.011027	0.961990	-0.163262	0.984900	0.057597	-0.948100	-0.172772	0.266940
64426	9.363738	0.516785	2.926429	-0.003867	0.022229	-0.002654	0.273027	-0.010980	0.961944	-0.163273	0.984899	0.057584	-0.948050	-0.172782	0.267111
64427	9.267866	0.477248	2.921411	0.002505	0.009309	-0.004120	0.273089	-0.010964	0.961926	-0.163329	0.984889	0.057594	-0.948022	-0.172839	0.267171
64428	9.241455	0.455114	2.804382	-0.001709	-0.008828	-0.002559	0.272961	-0.010970	0.961963	-0.163361	0.984884	0.057586	-0.948054	-0.172866	0.267043
64429	9.367231	0.459973	2.677024	-0.015270	-0.023131	-0.007720	0.272707	-0.011137	0.962033	-0.162995	0.984944	0.057606	-0.948189	-0.172516	0.266786
64430	9.526084	0.459390	2.557769	-0.018257	-0.025329	-0.006385	0.272429	-0.011209	0.962111	-0.162860	0.984967	0.057590	-0.948293	-0.172379	0.266508
64431	9.476956	0.553000	2.528621	-0.015482	-0.020951	-0.007244	0.272234	-0.011308	0.962165	-0.162653	0.985001	0.057597	-0.948384	-0.172178	0.266311
64432	9.403465	0.523386	2.513775	0.001989	-0.016348	-0.012162	0.272050	-0.011421	0.962215	-0.162694	0.984989	0.057690	-0.948430	-0.172241	0.266108
64433	9.401386	0.518675	2.584947	0.025243	-0.020443	-0.002820	0.271825	-0.011392	0.962279	-0.163114	0.984916	0.057736	-0.948422	-0.172656	0.265867
64434	9.422653	0.506679	2.632245	0.049168	-0.005204	0.000839	0.271726	-0.011358	0.962308	-0.163638	0.984824	0.057830	-0.948360	-0.173185	0.265743
64435	9.486113	0.491396	2.722342	0.061229	-0.001920	0.002978	0.271663	-0.011259	0.962327	-0.164356	0.984699	0.057918	-0.948255	-0.173898	0.265655
64436	9.453128	0.498008	2.713475	0.060664	0.008351	0.007056	0.271682	-0.011141	0.962323	-0.165006	0.984587	0.057983	-0.948136	-0.174542	0.265656
64437	9.428782	0.568024	2.644393	0.059012	-0.003236	0.008254	0.271581	-0.010981	0.962353	-0.165753	0.984460	0.058009	-0.948035	-0.175267	0.265541
64438	9.423040	0.619500	2.696406	0.051993	-0.003604	0.003755	0.271492	-0.010916	0.962379	-0.166311	0.984361	0.058082	-0.947962	-0.175823	0.265431
64439	9.466141	0.639734	2.682147	0.039797	-0.007883	-0.004761	0.271375	-0.010933	0.962412	-0.166727	0.984284	0.058194	-0.947923	-0.176252	0.265287
64440	9.412552	0.659298	2.623244	0.014107	-0.015830	-0.006259	0.271187	-0.010989	0.962464	-0.166899	0.984251	0.058263	-0.947946	-0.176435	0.265082
64441	9.438858	0.658578	2.524193	-0.009225	-0.021932	-0.017202	0.270931	-0.011226	0.962533	-0.166624	0.984291	0.058381	-0.948068	-0.176199	0.264804
64442	9.420786	0.678024	2.400524	-0.034129	-0.022507	-0.015863	0.270696	-0.011387	0.962598	-0.166313	0.984341	0.058414	-0.948190	-0.175905	0.264563
64443	9.393652	0.611115	2.392590	-0.041791	-0.022790	-0.017886	0.270466	-0.011559	0.962660	-0.165923	0.984406	0.058438	-0.948324	-0.175533	0.264330
64444	9.367994	0.505014	2.422585	-0.026042	-0.020138	-0.015832	0.270252	-0.011716	0.962718	-0.165689	0.984442	0.058492	-0.948425	-0.175319	0.264107
64445	9.369494	0.444256	2.513941	-0.003133	-0.023033	-0.012400	0.270013	-0.011812	0.962784	-0.165741	0.984429	0.058559	-0.948485	-0.175385	0.263851
64446	9.412025	0.419526	2.609303	0.024251	-0.019182	-0.006222	0.269793	-0.011872	0.962845	-0.166010	0.984378	0.058654	-0.948500	-0.175666	0.263607
64447	9.442040	0.471414	2.595680	0.031693	-0.023193	-0.002644	0.269538	-0.011850	0.962917	-0.166483	0.984295	0.058714	-0.948490	-0.176136	0.263332
64448	9.452194	0.474394	2.626425	0.037293	-0.023653	0.000435	0.269264	-0.011853	0.962993	-0.166894	0.984221	0.058780	-0.948495	-0.176545	0.263038
64449	9.418207	0.520063	2.577728	0.034040	-0.014449	-0.002576	0.269080	-0.011855	0.963045	-0.167276	0.984152	0.058853	-0.948480	-0.176931	0.262833
64450	9.401219	0.586848	2.613364	0.021204	-0.012175	-0.009686	0.268932	-0.011938	0.963085	-0.167507	0.984106	0.058973	-0.948481	-0.177183	0.262658
64451	9.399420	0.604986	2.630128	0.010430	-0.002254	-0.008347	0.268882	-0.011995	0.963098	-0.167598	0.984086	0.059047	-0.948479	-0.177290	0.262593
64452	9.492297	0.640550	2.709489	0.014910	0.010968	-0.006691	0.268949	-0.012007	0.963080	-0.167777	0.984051	0.059122	-0.948429	-0.177483	0.262645
64453	9.418001	0.610913	2.697842	0.016401	0.015521	-0.002610	0.269057	-0.011940	0.963050	-0.168040	0.984004	0.059147	-0.948352	-0.177745	0.262747
64454	9.421484	0.577899	2.664021	0.007533	0.012233	-0.006531	0.269136	-0.011948	0.963028	-0.168149	0.983982	0.059200	-0.948310	-0.177865	0.262816
64455	9.425673	0.566942	2.573733	0.003187	-0.006468	-0.000713	0.269023	-0.011904	0.963060	-0.168283	0.983961	0.059171	-0.948318	-0.177985	0.262705
64456	9.406924	0.563010	2.506129	-0.000585	-0.022517	-0.001107	0.268763	-0.011921	0.963133	-0.168330	0.983954	0.059151	-0.948384	-0.178022	0.262443
64457	9.415577	0.604336	2.498842	-0.004564	-0.029906	-0.002124	0.268435	-0.011933	0.963224	-0.168385	0.983947	0.059116	-0.948467	-0.178062	0.262116
64458	9.457155	0.640676	2.500346	-0.006329	-0.023062	-0.010562	0.268185	-0.012044	0.963292	-0.168353	0.983949	0.059173	-0.948543	-0.178042	0.261853
64459	9.468789	0.604017	2.569490	-0.018245	-0.018888	-0.007380	0.267960	-0.012057	0.963355	-0.168355	0.983951	0.059143	-0.948606	-0.178033	0.261630
64460	9.463502	0.568176	2.499696	-0.030873	-0.018365	-0.004366	0.267745	-0.012098	0.963414	-0.168106	0.983997	0.059075	-0.948711	-0.177772	0.261426
64461	9.454331	0.566064	2.465012	-0.027043	-0.018448	-0.008642	0.267542	-0.012171	0.963469	-0.167883	0.984037	0.059050	-0.948808	-0.177549	0.261228
64462	9.454475	0.544180	2.518615	-0.021657	-0.023631	-0.014600	0.267294	-0.012323	0.963536	-0.167694	0.984066	0.059105	-0.948911	-0.177378	0.260968
64463	9.470348	0.496268	2.497066	-0.027615	-0.021550	-0.013001	0.267059	-0.012424	0.963600	-0.167511	0.984096	0.059113	-0.949010	-0.177201	0.260731
64464	9.420160	0.458957	2.458507	-0.032933	-0.013078	-0.014965	0.266912	-0.012560	0.963639	-0.167214	0.984145	0.059143	-0.949104	-0.176920	0.260579
64465	9.443721	0.452230	2.433235	-0.019450	-0.008956	-0.011429	0.266802	-0.012638	0.963669	-0.167074	0.984168	0.059163	-0.949159	-0.176789	0.260466
64466	9.461160	0.473452	2.516440	0.007589	-0.003449	-0.000633	0.266722	-0.012616	0.963691	-0.167200	0.984146	0.059160	-0.949159	-0.176909	0.260384
64467	9.478327	0.494825	2.600632	0.033991	0.014664	-0.000111	0.266808	-0.012530	0.963668	-0.167626	0.984071	0.059206	-0.949060	-0.177333	0.260458
64468	9.483638	0.531302	2.670319	0.056841	0.021436	0.009061	0.266948	-0.012369	0.963632	-0.168245	0.983964	0.059238	-0.948911	-0.177940	0.260586
64469	9.378580	0.512331	2.577159	0.052576	0.012485	0.005875	0.267013	-0.012296	0.963614	-0.168675	0.983887	0.059293	-0.948817	-0.178369	0.260637
64470	9.322595	0.548099	2.536939	0.045536	-0.013799	0.005746	0.266824	-0.012229	0.963668	-0.169177	0.983798	0.059327	-0.948780	-0.178861	0.260432
64471	9.374057	0.522514	2.395267	0.026864	-0.034803	0.000404	0.266439	-0.012251	0.963774	-0.169467	0.983747	0.059355	-0.948837	-0.179143	0.260033
64472	9.417817	0.542389	2.377891	0.006281	-0.043037	-0.010269	0.266000	-0.012395	0.963893	-0.169555	0.983726	0.059441	-0.948944	-0.179244	0.259569
64473	9.445865	0.566565	2.490331	-0.001884	-0.049165	-0.012908	0.265525	-0.012585	0.964022	-0.169508	0.983729	0.059531	-0.949086	-0.179216	0.259072
64474	9.497401	0.605730	2.523390	-0.008334	-0.033485	-0.015221	0.265185	-0.012761	0.964113	-0.169444	0.983734	0.059627	-0.949192	-0.179175	0.258709
64475	9.441561	0.597241	2.591839	-0.021952	-0.025206	-0.016735	0.264942	-0.012914	0.964178	-0.169282	0.983758	0.059693	-0.949289	-0.179033	0.258453
64476	9.424364	0.532478	2.616793	-0.031175	-0.026870	-0.015972	0.264665	-0.013085	0.964252	-0.168999	0.983804	0.059737	-0.949416	-0.178768	0.258167
64477	9.399719	0.557677	2.656493	-0.043391	-0.024701	-0.025531	0.264425	-0.013306	0.964315	-0.168662	0.983857	0.059824	-0.949543	-0.178462	0.257912
64478	9.405715	0.485819	2.657574	-0.050272	-0.017607	-0.024721	0.264251	-0.013546	0.964359	-0.168175	0.983935	0.059904	-0.949678	-0.178011	0.257727
64479	9.397973	0.445606	2.661614	-0.043744	-0.003637	-0.024132	0.264215	-0.013739	0.964366	-0.167772	0.983999	0.059985	-0.949759	-0.177643	0.257682
64480	9.409567	0.454542	2.621867	-0.025725	0.004074	-0.024732	0.264247	-0.013941	0.964354	-0.167518	0.984034	0.060128	-0.949795	-0.177435	0.257692
64481	9.452176	0.475229	2.608579	-0.010817	0.002553	-0.018703	0.264240	-0.014058	0.964354	-0.167469	0.984036	0.060233	-0.949806	-0.177415	0.257667
64482	9.531567	0.456847	2.568998	0.007567	0.009079	-0.013393	0.264300	-0.014140	0.964337	-0.167561	0.984013	0.060352	-0.949773	-0.177536	0.257706
64483	9.465294	0.468999	2.552396	0.017500	0.007920	-0.012898	0.264358	-0.014270	0.964319	-0.167577	0.984001	0.060501	-0.949754	-0.177591	0.257738
64484	9.498285	0.597059	2.571744	0.032314	0.008704	-0.021174	0.264428	-0.014429	0.964297	-0.167883	0.983933	0.060759	-0.949680	-0.177956	0.257757
64485	9.449573	0.653773	2.582902	0.026920	0.000472	-0.023597	0.264418	-0.014615	0.964297	-0.168130	0.983875	0.061015	-0.949640	-0.178261	0.257697
64486	9.465062	0.630646	2.507414	0.013363	-0.007416	-0.029748	0.264349	-0.014887	0.964312	-0.168234	0.983839	0.061307	-0.949640	-0.178437	0.257573
64487	9.445734	0.607474	2.495420	0.001654	-0.018861	-0.035394	0.264175	-0.015199	0.964355	-0.168288	0.983811	0.061607	-0.949679	-0.178564	0.257340
64488	9.457693	0.618340	2.453677	-0.005512	-0.019802	-0.035676	0.263998	-0.015551	0.964398	-0.168197	0.983808	0.061907	-0.949745	-0.178552	0.257108
64489	9.434452	0.606625	2.532184	-0.016958	-0.010261	-0.042414	0.263925	-0.015912	0.964412	-0.168064	0.983810	0.062225	-0.949788	-0.178505	0.256978
64490	9.383984	0.549269	2.549732	-0.023255	-0.013034	-0.035061	0.263812	-0.016246	0.964437	-0.167806	0.983839	0.062474	-0.949866	-0.178320	0.256822
64491	9.358829	0.576186	2.590684	-0.031926	-0.012069	-0.040493	0.263725	-0.016599	0.964455	-0.167513	0.983872	0.062739	-0.949941	-0.178104	0.256691
64492	9.357033	0.486787	2.541891	-0.040706	-0.011208	-0.031165	0.263623	-0.016891	0.964478	-0.167100	0.983931	0.062905	-0.950043	-0.177747	0.256564
64493	9.357145	0.488524	2.541144	-0.033889	-0.008630	-0.026222	0.263555	-0.017138	0.964492	-0.166713	0.983988	0.063040	-0.950129	-0.177407	0.256478
64494	9.403903	0.475831	2.491494	-0.019762	-0.011032	-0.024103	0.263442	-0.017360	0.964519	-0.166517	0.984012	0.063192	-0.950195	-0.177256	0.256340
64495	9.448751	0.480058	2.459192	-0.010458	-0.012086	-0.021142	0.263312	-0.017526	0.964552	-0.166467	0.984012	0.063323	-0.950240	-0.177240	0.256184
64496	9.493632	0.484436	2.426694	-0.001943	-0.014051	-0.022078	0.263167	-0.017734	0.964587	-0.166446	0.984004	0.063502	-0.950284	-0.177263	0.256005
64497	9.499680	0.544685	2.437874	0.006373	-0.020310	-0.021465	0.262964	-0.017900	0.964640	-0.166610	0.983965	0.063677	-0.950311	-0.177464	0.255765
64498	9.505715	0.605336	2.448916	0.010391	-0.016087	-0.027292	0.262808	-0.018162	0.964677	-0.166693	0.983934	0.063937	-0.950340	-0.177608	0.255558
64499	9.476713	0.665967	2.524576	0.011940	-0.014710	-0.030056	0.262683	-0.018443	0.964706	-0.166773	0.983902	0.064221	-0.950360	-0.177756	0.255379
64500	9.474973	0.686393	2.540345	0.017041	-0.021440	-0.038185	0.262495	-0.018822	0.964750	-0.166890	0.983857	0.064604	-0.950392	-0.177965	0.255116
64501	9.440124	0.712589	2.547540	0.013455	-0.013795	-0.043365	0.262391	-0.019206	0.964770	-0.167022	0.983808	0.065011	-0.950397	-0.178196	0.254935
64502	9.362596	0.696865	2.624507	0.000111	-0.010501	-0.041570	0.262312	-0.019599	0.964784	-0.166970	0.983792	0.065383	-0.950428	-0.178240	0.254788
64503	9.368496	0.649852	2.571023	-0.004775	-0.005969	-0.033895	0.262273	-0.019877	0.964789	-0.166954	0.983776	0.065654	-0.950442	-0.178295	0.254699
64504	9.380009	0.637849	2.586601	-0.004161	0.007366	-0.027997	0.262341	-0.020105	0.964766	-0.166897	0.983771	0.065884	-0.950433	-0.178301	0.254728
64505	9.428506	0.586682	2.575955	-0.009879	0.000752	-0.025759	0.262333	-0.020274	0.964764	-0.166897	0.983759	0.066055	-0.950435	-0.178345	0.254689
64506	9.463406	0.566948	2.567032	-0.003127	-0.000392	-0.023470	0.262320	-0.020471	0.964764	-0.166862	0.983752	0.066244	-0.950445	-0.178359	0.254643
64507	9.468688	0.649454	2.524402	-0.004389	-0.000218	-0.018528	0.262314	-0.020591	0.964763	-0.166879	0.983741	0.066370	-0.950443	-0.178408	0.254613
64508	9.513368	0.631393	2.548479	0.001353	-0.000088	-0.019670	0.262297	-0.020750	0.964764	-0.166896	0.983727	0.066533	-0.950445	-0.178467	0.254566
64509	9.477930	0.677782	2.502247	0.006152	0.005057	-0.021606	0.262336	-0.020886	0.964751	-0.167019	0.983694	0.066712	-0.950413	-0.178633	0.254570
64510	9.467732	0.700742	2.414110	0.009683	0.003433	-0.028054	0.262367	-0.021121	0.964737	-0.167093	0.983663	0.066978	-0.950391	-0.178774	0.254551
64511	9.453727	0.735273	2.416258	0.005011	-0.001170	-0.030297	0.262354	-0.021373	0.964735	-0.167127	0.983640	0.067241	-0.950389	-0.178874	0.254489
64512	9.443889	0.736298	2.382645	-0.001775	-0.010266	-0.034122	0.262265	-0.021693	0.964752	-0.167076	0.983628	0.067536	-0.950422	-0.178900	0.254346
64513	9.420555	0.746494	2.406187	-0.002912	-0.009547	-0.033362	0.262176	-0.022000	0.964769	-0.166999	0.983622	0.067812	-0.950460	-0.178894	0.254209
64514	9.424891	0.693491	2.425304	-0.003385	-0.015400	-0.033980	0.262038	-0.022328	0.964799	-0.166933	0.983613	0.068102	-0.950510	-0.178903	0.254017
64515	9.439010	0.642333	2.477555	-0.005817	-0.008020	-0.029375	0.261956	-0.022578	0.964816	-0.166881	0.983607	0.068328	-0.950542	-0.178908	0.253894
64516	9.450804	0.630034	2.492365	-0.015252	-0.007549	-0.028135	0.261883	-0.022834	0.964829	-0.166718	0.983620	0.068531	-0.950591	-0.178802	0.253787
64517	9.412339	0.578989	2.470368	-0.023551	-0.007803	-0.027649	0.261815	-0.023085	0.964842	-0.166454	0.983653	0.068703	-0.950656	-0.178589	0.253692
64518	9.417753	0.639073	2.482665	-0.023268	-0.006250	-0.025472	0.261749	-0.023312	0.964854	-0.166222	0.983681	0.068860	-0.950714	-0.178404	0.253603
64519	9.386775	0.628623	2.455935	-0.021872	-0.008698	-0.016150	0.261643	-0.023440	0.964880	-0.166034	0.983709	0.068920	-0.950776	-0.178235	0.253489
64520	9.406934	0.547746	2.400088	-0.022847	-0.013918	-0.018483	0.261493	-0.023612	0.964917	-0.165824	0.983738	0.069011	-0.950854	-0.178052	0.253325
64521	9.512407	0.505888	2.315803	-0.026585	-0.026829	-0.012028	0.261205	-0.023743	0.964991	-0.165569	0.983780	0.069022	-0.950978	-0.177801	0.253037
64522	9.614632	0.388779	2.200641	-0.023561	-0.020867	-0.010739	0.260976	-0.023851	0.965051	-0.165373	0.983812	0.069036	-0.951075	-0.177610	0.252807
64523	9.754591	0.433566	2.172164	-0.011998	-0.033555	-0.010857	0.260626	-0.023974	0.965142	-0.165283	0.983825	0.069071	-0.951187	-0.177523	0.252447
64524	9.835870	0.530189	2.121120	-0.001307	-0.034195	-0.017035	0.260280	-0.024168	0.965231	-0.165282	0.983815	0.069203	-0.951281	-0.177547	0.252073
64525	9.783866	0.532537	2.042906	0.009246	-0.038666	-0.011136	0.259878	-0.024237	0.965337	-0.165579	0.983760	0.069275	-0.951339	-0.177843	0.251645
64526	9.668536	0.482798	2.040516	0.015209	-0.040719	-0.012740	0.259464	-0.024400	0.965445	-0.165747	0.983723	0.069407	-0.951423	-0.178028	0.251196
64527	9.556849	0.422185	1.947474	0.011228	-0.041678	-0.014804	0.259049	-0.024557	0.965552	-0.165924	0.983684	0.069534	-0.951506	-0.178221	0.250748
64528	9.493566	0.417021	1.908033	0.025796	-0.058643	-0.015174	0.258468	-0.024776	0.965702	-0.166186	0.983627	0.069715	-0.951618	-0.178505	0.250118
64529	9.572279	0.417786	1.878775	0.050608	-0.068590	-0.028705	0.257812	-0.025146	0.965868	-0.166622	0.983527	0.070081	-0.951720	-0.179002	0.249375
64530	9.535790	0.483056	1.843083	0.079745	-0.072286	-0.035357	0.257134	-0.025589	0.966037	-0.167345	0.983368	0.070591	-0.951776	-0.179813	0.248575
64531	9.456653	0.615601	1.942329	0.100263	-0.064360	-0.035341	0.256526	-0.026004	0.966187	-0.168274	0.983170	0.071138	-0.951776	-0.180833	0.247833
64532	9.373948	0.674034	2.012326	0.111922	-0.046302	-0.045543	0.256114	-0.026501	0.966283	-0.169278	0.982948	0.071825	-0.951709	-0.181966	0.247261
64533	9.264679	0.665177	2.077013	0.130928	-0.056514	-0.043139	0.255597	-0.026937	0.966408	-0.170605	0.982668	0.072512	-0.951611	-0.183408	0.246571
64534	9.480541	0.594915	2.100815	0.152645	-0.072590	-0.043103	0.254931	-0.027459	0.966569	-0.172003	0.982367	0.073274	-0.951538	-0.184933	0.245713
64535	9.585910	0.619342	2.259742	0.171769	-0.058544	-0.049740	0.254418	-0.028011	0.966689	-0.173572	0.982027	0.074137	-0.951391	-0.186651	0.244984
64536	9.691834	0.623151	2.475634	0.183858	-0.037959	-0.051422	0.254098	-0.028553	0.966757	-0.175245	0.981660	0.075054	-0.951169	-0.188491	0.244434
64537	9.652755	0.661430	2.644413	0.189587	-0.017409	-0.049504	0.253973	-0.029059	0.966775	-0.176889	0.981295	0.075964	-0.950898	-0.190305	0.244083
64538	9.631417	0.634453	2.777542	0.199749	-0.013796	-0.039947	0.253864	-0.029443	0.966792	-0.178742	0.980893	0.076807	-0.950581	-0.192305	0.243751
64539	9.599873	0.605247	2.878757	0.201421	0.002003	-0.042708	0.253911	-0.029771	0.966769	-0.180725	0.980463	0.077658	-0.950194	-0.194438	0.243570
64540	9.575963	0.596423	3.031644	0.196387	0.012428	-0.046626	0.254064	-0.030170	0.966717	-0.182528	0.980057	0.078557	-0.949808	-0.196411	0.243491
64541	9.528400	0.710008	3.201523	0.156237	0.038377	-0.066257	0.254501	-0.030714	0.966585	-0.183856	0.979730	0.079541	-0.949435	-0.197955	0.243695
64542	9.448595	0.811719	3.347790	0.095607	0.056417	-0.085957	0.255146	-0.031410	0.966392	-0.184600	0.979505	0.080574	-0.949117	-0.198954	0.244118
64543	9.410086	0.932490	3.481416	0.007413	0.069347	-0.103428	0.255950	-0.032258	0.966152	-0.184411	0.979460	0.081556	-0.948937	-0.199044	0.244744
64544	9.398990	1.014399	3.485659	-0.102213	0.096529	-0.125682	0.257048	-0.033264	0.965826	-0.183175	0.979613	0.082489	-0.948880	-0.198118	0.245715
64545	9.313572	1.154974	3.528999	-0.195329	0.134278	-0.147281	0.258536	-0.034415	0.965388	-0.180944	0.979952	0.083392	-0.948904	-0.196241	0.247125
64546	9.330990	1.272880	3.438480	-0.256325	0.157403	-0.159523	0.260267	-0.035638	0.964879	-0.178153	0.980388	0.084266	-0.948959	-0.193828	0.248814
64547	9.400148	1.391715	3.425841	-0.284094	0.178729	-0.169667	0.262215	-0.036924	0.964303	-0.175036	0.980873	0.085155	-0.949002	-0.191116	0.250737
64548	9.581371	1.395843	3.338300	-0.290837	0.211713	-0.164854	0.264462	-0.038106	0.963643	-0.171898	0.981355	0.085982	-0.948953	-0.188387	0.252981
64549	9.571267	1.330898	3.261881	-0.293686	0.256411	-0.145875	0.267090	-0.039041	0.962880	-0.168701	0.981855	0.086605	-0.948790	-0.185570	0.255658
64550	9.454357	1.236382	3.168437	-0.280223	0.314556	-0.129807	0.270243	-0.039701	0.961973	-0.165750	0.982314	0.087104	-0.948418	-0.182986	0.258883
64551	9.298715	1.156829	3.160839	-0.266338	0.375185	-0.119638	0.273955	-0.040160	0.960904	-0.162929	0.982748	0.087525	-0.947841	-0.180537	0.262686
64552	9.175187	1.094530	3.109410	-0.257364	0.405309	-0.104810	0.277917	-0.040429	0.959754	-0.160258	0.983161	0.087821	-0.947143	-0.178215	0.266758
64553	9.261986	1.037249	3.018759	-0.234267	0.428942	-0.100790	0.282091	-0.040632	0.958527	-0.157770	0.983536	0.088124	-0.946326	-0.176086	0.271036
64554	9.464824	1.056922	2.875888	-0.219064	0.433919	-0.086889	0.286283	-0.040692	0.957281	-0.155507	0.983878	0.088329	-0.945441	-0.174151	0.275340
64555	9.576974	0.971431	2.819805	-0.205468	0.439729	-0.084368	0.290533	-0.040708	0.955999	-0.153405	0.984190	0.088529	-0.944488	-0.172376	0.279695
64556	9.576271	0.981156	2.824422	-0.217932	0.439191	-0.068477	0.294736	-0.040594	0.954716	-0.151205	0.984529	0.088541	-0.943540	-0.170454	0.284038
64557	9.472609	0.920792	2.841941	-0.241961	0.444102	-0.061874	0.298979	-0.040446	0.953402	-0.148697	0.984922	0.088413	-0.942603	-0.168202	0.288457
64558	9.466593	0.760432	2.732607	-0.273357	0.442600	-0.060497	0.303190	-0.040267	0.952079	-0.145997	0.985348	0.088167	-0.941680	-0.165732	0.292869
64559	9.630977	0.734644	2.662202	-0.293128	0.424467	-0.057934	0.307225	-0.040115	0.950791	-0.143070	0.985808	0.087822	-0.940821	-0.163011	0.297126
64560	9.807915	0.769089	2.639218	-0.322203	0.405194	-0.071126	0.311089	-0.040126	0.949533	-0.139877	0.986295	0.087506	-0.940031	-0.160041	0.301213
64561	10.048739	0.939824	2.470025	-0.359658	0.367921	-0.076751	0.314602	-0.040242	0.948370	-0.136351	0.986824	0.087105	-0.939379	-0.156715	0.304970
64562	10.214368	1.178955	2.458199	-0.410910	0.338414	-0.083923	0.317846	-0.040511	0.947276	-0.132284	0.987420	0.086614	-0.938869	-0.152840	0.308489
64563	10.347722	1.390117	2.597031	-0.481833	0.296946	-0.074388	0.320678	-0.040791	0.946310	-0.127490	0.988122	0.085796	-0.938569	-0.148158	0.311668
64564	10.265380	1.325788	2.669658	-0.560424	0.263583	-0.059229	0.323179	-0.040957	0.945451	-0.122098	0.988908	0.084575	-0.938428	-0.142770	0.314594
64565	9.834558	1.085383	2.786940	-0.590846	0.246526	-0.036354	0.325485	-0.040944	0.944660	-0.116453	0.989720	0.083021	-0.938349	-0.137031	0.317371
64566	9.200833	0.823789	3.067103	-0.570591	0.228578	0.001842	0.327582	-0.040582	0.943951	-0.111163	0.990483	0.081160	-0.938260	-0.131519	0.319953
64567	8.587016	0.703938	3.509421	-0.547850	0.201098	0.048953	0.329363	-0.039751	0.943366	-0.106346	0.991194	0.078896	-0.938195	-0.126308	0.322236
64568	8.294349	0.696902	3.909715	-0.532084	0.175816	0.087790	0.330876	-0.038626	0.942883	-0.101702	0.991883	0.076322	-0.938178	-0.121146	0.324262
64569	8.235893	0.843720	4.220890	-0.548605	0.165795	0.108201	0.332272	-0.037332	0.942445	-0.096922	0.992575	0.073489	-0.938191	-0.115762	0.326187
64570	8.237624	1.214975	4.451540	-0.621143	0.191396	0.109106	0.333920	-0.035995	0.941914	-0.091516	0.993312	0.070403	-0.938148	-0.109709	0.328392
64571	8.227676	1.534060	4.534209	-0.770610	0.235352	0.092982	0.336000	-0.034800	0.941219	-0.084601	0.994163	0.066959	-0.938055	-0.102126	0.331095
64572	8.318738	1.726903	4.428282	-0.950556	0.286177	0.069691	0.338584	-0.033789	0.940329	-0.075978	0.995110	0.063115	-0.937863	-0.092814	0.334361
64573	8.493413	1.702012	4.363777	-1.138781	0.343654	0.054250	0.341732	-0.032922	0.939221	-0.065503	0.996121	0.058750	-0.937512	-0.081599	0.338250
64574	8.697389	1.494255	4.294757	-1.336030	0.394515	0.069292	0.345345	-0.031896	0.937934	-0.053278	0.997144	0.053526	-0.936962	-0.068456	0.342659
64575	8.867947	1.042707	4.152275	-1.520915	0.439013	0.101296	0.349376	-0.030625	0.936482	-0.039323	0.998106	0.047310	-0.936157	-0.053354	0.347510
64576	9.062479	0.457224	3.919174	-1.656606	0.470165	0.136102	0.353690	-0.029012	0.934913	-0.024360	0.998894	0.040213	-0.935046	-0.036998	0.352592
64577	9.158287	-0.128336	3.743951	-1.719596	0.484185	0.146161	0.358177	-0.027410	0.933251	-0.008776	0.999426	0.032722	-0.933613	-0.019911	0.357731
64578	9.172809	-0.687878	3.638260	-1.705568	0.451441	0.154520	0.362346	-0.025771	0.931687	0.006518	0.999663	0.025117	-0.932021	-0.003028	0.362392
64579	9.188524	-1.165969	3.608884	-1.669225	0.390092	0.162149	0.365974	-0.024170	0.930311	0.021525	0.999615	0.017503	-0.930376	0.013620	0.366353
64580	9.157787	-1.650809	3.584171	-1.597161	0.311973	0.178127	0.368886	-0.022413	0.929205	0.035659	0.999315	0.009948	-0.928791	0.029465	0.369432
64581	9.024367	-2.159902	3.445974	-1.442321	0.204337	0.193247	0.370853	-0.020572	0.928464	0.048435	0.998822	0.002785	-0.927428	0.043937	0.371413
64582	8.906307	-2.391251	3.421146	-1.191776	0.105555	0.214139	0.371908	-0.018441	0.928086	0.058627	0.998273	-0.003657	-0.926416	0.055771	0.372347
64583	8.822573	-2.350148	3.414996	-0.906286	0.034376	0.261200	0.372382	-0.015891	0.927943	0.066224	0.997760	-0.009489	-0.925714	0.064986	0.372600
64584	8.797439	-2.283311	3.584497	-0.604117	0.000893	0.324407	0.372575	-0.012609	0.927916	0.070548	0.997399	-0.014773	-0.925317	0.070966	0.372496
64585	8.956736	-2.337126	3.954346	-0.291413	-0.007356	0.400501	0.372764	-0.008580	0.927887	0.071785	0.997227	-0.019617	-0.925145	0.073921	0.372346
64586	9.025360	-2.437949	4.282369	-0.015314	-0.012114	0.480288	0.372955	-0.003735	0.927842	0.070076	0.997249	-0.024153	-0.925199	0.074028	0.372191
64587	8.792004	-2.505328	4.420024	0.176396	-0.083504	0.557614	0.372547	0.001912	0.928011	0.066420	0.997378	-0.028720	-0.925633	0.072338	0.371443
64588	8.642912	-2.779993	4.321325	0.277353	-0.164901	0.606608	0.371371	0.008126	0.928449	0.061536	0.997548	-0.033345	-0.926443	0.069517	0.369960
64589	8.713538	-2.986197	4.338986	0.371116	-0.227335	0.647825	0.369639	0.014794	0.929058	0.055694	0.997723	-0.038046	-0.927505	0.065807	0.367973
64590	9.078973	-3.025180	4.002002	0.538104	-0.212339	0.711745	0.367999	0.022076	0.929564	0.048016	0.997933	-0.042708	-0.928585	0.060351	0.366179
64591	9.152982	-3.171240	3.881088	0.730470	-0.156139	0.786024	0.366879	0.030075	0.929783	0.038315	0.998141	-0.047405	-0.929479	0.053016	0.365044
64592	9.178134	-3.333062	3.829814	0.929847	-0.134100	0.872431	0.365875	0.038894	0.929851	0.026413	0.998290	-0.052150	-0.930289	0.043640	0.364222
64593	9.244069	-3.239541	3.754483	1.153112	-0.112743	0.947314	0.364998	0.048447	0.929747	0.012255	0.998309	-0.056831	-0.930928	0.032137	0.363787
64594	9.231533	-3.105161	3.616534	1.394516	-0.100832	1.007871	0.364058	0.058578	0.929532	-0.004464	0.998118	-0.061152	-0.931366	0.018114	0.363635
64595	9.168661	-2.831071	3.529169	1.615620	-0.086569	1.046917	0.363067	0.069136	0.929195	-0.023404	0.997605	-0.065082	-0.931469	0.001883	0.363815
64596	8.885151	-2.556430	2.630705	1.892441	-0.080074	1.049938	0.361921	0.079643	0.928801	-0.044894	0.996677	-0.067970	-0.931127	-0.017098	0.364293
64597	8.764741	-1.659110	2.407915	2.079902	-0.043412	1.060900	0.360859	0.090335	0.928235	-0.068259	0.995187	-0.070314	-0.930119	-0.037987	0.365289
64598	8.652950	-1.044694	2.516698	2.175883	0.005814	1.075158	0.360006	0.101068	0.927459	-0.092414	0.993089	-0.072348	-0.928362	-0.059664	0.366858
64599	8.707997	-0.375485	2.336671	2.209914	0.086668	1.049083	0.359649	0.111659	0.926383	-0.116811	0.990392	-0.074025	-0.925747	-0.081589	0.369236
64600	8.561992	0.445025	2.263010	2.235536	0.158839	0.969673	0.359821	0.121434	0.925085	-0.141017	0.987182	-0.074735	-0.922303	-0.103561	0.372333
64601	8.629279	1.393735	2.531478	2.166631	0.216278	0.862471	0.360335	0.130379	0.923667	-0.164432	0.983557	-0.074685	-0.918216	-0.124968	0.375848
64602	8.450182	2.094678	2.908256	1.975739	0.264132	0.735126	0.361422	0.137988	0.922135	-0.185242	0.979901	-0.074028	-0.913816	-0.144063	0.379718
64603	8.380063	2.496142	3.008862	1.588894	0.320289	0.584782	0.363112	0.144342	0.920497	-0.202101	0.976609	-0.073417	-0.909563	-0.159375	0.383790
64604	8.398928	2.623727	3.015787	1.132242	0.360547	0.445196	0.365410	0.149313	0.918793	-0.214059	0.974077	-0.073164	-0.905900	-0.169941	0.387899
64605	8.526120	2.441118	2.870383	0.674821	0.390735	0.323491	0.368110	0.153285	0.917060	-0.221635	0.972351	-0.073562	-0.902980	-0.176173	0.391905
64606	8.685667	1.940179	2.746126	0.291271	0.407382	0.232262	0.371216	0.156299	0.915297	-0.225179	0.971460	-0.074565	-0.900829	-0.178426	0.395817
64607	8.830558	1.109691	2.646602	0.014556	0.412916	0.176122	0.374430	0.158859	0.913546	-0.226163	0.971107	-0.076172	-0.899251	-0.178089	0.399540
64608	8.896393	0.344743	2.681352	-0.155803	0.406340	0.148254	0.377699	0.161053	0.911815	-0.225379	0.971130	-0.078172	-0.898080	-0.175978	0.403092
64609	8.890889	-0.440514	2.549871	-0.232137	0.399654	0.147689	0.380851	0.163283	0.910105	-0.224018	0.971254	-0.080509	-0.897089	-0.173218	0.406482
64610	8.727161	-1.054285	2.532894	-0.221507	0.374998	0.149928	0.383830	0.165419	0.908466	-0.222664	0.971373	-0.082797	-0.896156	-0.170503	0.409675
64611	8.534255	-1.407256	2.627809	-0.149648	0.328127	0.161776	0.386293	0.167647	0.907013	-0.222118	0.971313	-0.084933	-0.895232	-0.168655	0.412449
64612	8.328652	-1.441744	2.885016	-0.066103	0.287729	0.178107	0.388423	0.169896	0.905684	-0.222276	0.971109	-0.086841	-0.894271	-0.167580	0.414965
64613	7.993744	-1.277133	3.340563	-0.000081	0.260018	0.176183	0.390280	0.172135	0.904462	-0.223118	0.970768	-0.088478	-0.893253	-0.167270	0.417278
64614	7.850648	-1.095047	3.944500	0.045071	0.236147	0.159526	0.391983	0.174114	0.903346	-0.224203	0.970401	-0.089751	-0.892234	-0.167352	0.419417
64615	7.835374	-0.786021	4.615550	0.106187	0.211494	0.137287	0.393500	0.175888	0.902342	-0.225826	0.969947	-0.090586	-0.891157	-0.168127	0.421394
64616	7.966307	-0.628441	5.324999	0.180434	0.194456	0.102508	0.394950	0.177245	0.901442	-0.227896	0.969445	-0.090768	-0.889987	-0.169586	0.423276
64617	8.042978	-0.566325	5.781031	0.264119	0.159446	0.105587	0.396031	0.178646	0.900691	-0.230854	0.968757	-0.090641	-0.888744	-0.172031	0.424899
64618	8.233740	-0.593106	6.347028	0.355804	0.119677	0.125319	0.396754	0.180103	0.900083	-0.234569	0.967899	-0.090275	-0.887448	-0.175315	0.426264
64619	8.321175	-0.534950	6.605446	0.470104	0.049392	0.165304	0.396700	0.181873	0.899751	-0.239518	0.966729	-0.089809	-0.886149	-0.179880	0.427063
64620	7.927573	-0.415792	6.735285	0.582133	0.021645	0.195084	0.396369	0.183832	0.899498	-0.245505	0.965292	-0.089095	-0.884657	-0.185517	0.427744
64621	7.335317	-0.121242	7.014638	0.663699	0.004013	0.182626	0.395883	0.185686	0.899332	-0.252223	0.963665	-0.087941	-0.882984	-0.192018	0.428333
64622	7.106800	0.573776	7.072284	0.735954	-0.043744	0.101149	0.395189	0.186608	0.899446	-0.259174	0.962019	-0.085717	-0.881280	-0.199239	0.428544
64623	7.448207	1.600022	7.210520	0.718086	-0.092747	-0.003407	0.394324	0.186458	0.899857	-0.265571	0.960542	-0.082657	-0.879762	-0.206382	0.428282
64624	7.997553	2.402348	7.535339	0.516413	-0.120622	-0.097255	0.393474	0.185305	0.900467	-0.269787	0.959625	-0.079591	-0.878859	-0.211617	0.427581
64625	8.506810	2.713548	8.016511	0.235827	-0.122961	-0.159045	0.392767	0.183587	0.901127	-0.271336	0.959384	-0.077191	-0.878698	-0.214190	0.426629
64626	8.835975	2.421519	8.357425	-0.055825	-0.093955	-0.147059	0.392290	0.182008	0.901655	-0.270327	0.959754	-0.076123	-0.879222	-0.213880	0.425704
64627	9.099564	1.515482	8.652401	-0.294595	-0.032991	-0.080439	0.392170	0.181229	0.901864	-0.267519	0.960497	-0.076682	-0.880134	-0.211193	0.425160
64628	9.104916	0.314090	8.195759	-0.399282	0.007232	-0.008202	0.392206	0.181198	0.901855	-0.264029	0.961329	-0.078325	-0.881172	-0.207396	0.424880
64629	8.602648	-0.297582	7.086678	-0.411103	-0.052411	0.046610	0.391574	0.181600	0.902048	-0.260682	0.962061	-0.080521	-0.882448	-0.203618	0.424058
64630	8.232694	-0.142029	5.852451	-0.361033	-0.215846	0.040858	0.389512	0.181590	0.902943	-0.257712	0.962699	-0.082436	-0.884231	-0.200589	0.421781
64631	8.297374	0.704365	5.131408	-0.295585	-0.320833	-0.027572	0.386704	0.180743	0.904318	-0.255072	0.963313	-0.083460	-0.886227	-0.198392	0.418620
64632	8.469637	1.463004	4.280072	-0.236288	-0.340650	-0.076061	0.383826	0.179370	0.905817	-0.252742	0.963900	-0.083777	-0.888144	-0.196782	0.415304
64633	8.664874	1.735770	3.487870	-0.364851	-0.340143	-0.049893	0.380888	0.178278	0.907271	-0.249390	0.964678	-0.084860	-0.890353	-0.193942	0.411895
64634	8.970305	1.049823	2.711715	-0.824946	-0.367768	0.039591	0.377460	0.177994	0.908758	-0.242239	0.966161	-0.088621	-0.893781	-0.186686	0.407805
64635	9.552988	0.144187	1.546060	-1.271254	-0.417585	0.077600	0.373500	0.178033	0.910386	-0.231209	0.968303	-0.094502	-0.898354	-0.175193	0.402824
64636	10.529556	-0.715778	0.925897	-1.387665	-0.409039	0.049280	0.369656	0.177855	0.911988	-0.218953	0.970543	-0.100527	-0.903003	-0.162522	0.397709
64637	10.662168	-1.764121	1.373020	-1.180092	-0.340684	0.055467	0.366420	0.177898	0.913284	-0.208542	0.972283	-0.105721	-0.906778	-0.151720	0.393363
64638	10.002788	-2.794092	2.368292	-0.857378	-0.345498	0.108121	0.363012	0.178475	0.914532	-0.201207	0.973343	-0.110086	-0.909801	-0.144048	0.389246
64639	9.827795	-3.347502	2.241430	-0.630149	-0.449551	0.151794	0.358577	0.179359	0.916107	-0.196077	0.973947	-0.113936	-0.912675	-0.138773	0.384403
64640	9.877034	-3.148586	1.473562	-0.419818	-0.543907	0.157189	0.353252	0.180181	0.918013	-0.192858	0.974226	-0.117002	-0.915434	-0.135715	0.378897
64641	9.969752	-2.380994	0.796602	-0.157186	-0.607238	0.145273	0.347368	0.180821	0.920130	-0.191999	0.974159	-0.118955	-0.917863	-0.135343	0.373109
64642	9.796913	-1.380170	0.288786	0.060386	-0.690072	0.148239	0.340692	0.181361	0.922517	-0.193123	0.973794	-0.120120	-0.920126	-0.137235	0.366789
64643	9.871949	-0.623483	0.151638	0.174224	-0.739686	0.120779	0.333604	0.181558	0.925065	-0.195206	0.973315	-0.120631	-0.922282	-0.140335	0.360143
64644	10.023280	-0.026940	0.061719	0.218102	-0.766448	0.086262	0.326309	0.181345	0.927705	-0.197562	0.972834	-0.120676	-0.924387	-0.143902	0.353271
64645	9.834924	0.442761	0.165825	0.195668	-0.797648	0.070510	0.318745	0.180910	0.930416	-0.199665	0.972405	-0.120672	-0.926572	-0.147308	0.346071
64646	9.771027	0.616500	0.381534	0.051800	-0.833518	0.061643	0.310839	0.180309	0.933203	-0.200398	0.972202	-0.121094	-0.929096	-0.149371	0.338332
64647	9.675110	0.300878	0.314870	-0.159259	-0.859432	0.072778	0.302653	0.179764	0.935995	-0.199191	0.972296	-0.122328	-0.932054	-0.149419	0.330075
64648	9.826652	-0.399476	0.735018	-0.305864	-0.887861	0.093747	0.294128	0.179391	0.938780	-0.196672	0.972567	-0.124228	-0.935312	-0.148093	0.321341
64649	9.994511	-1.270796	0.998564	-0.421435	-0.905610	0.115100	0.285376	0.179207	0.941512	-0.193102	0.972969	-0.126664	-0.938761	-0.145661	0.312267
64650	10.258175	-2.116736	1.122392	-0.429913	-0.931735	0.146447	0.276284	0.179323	0.944198	-0.189527	0.973312	-0.129394	-0.942203	-0.143202	0.302897
64651	10.715265	-2.811820	2.009583	-0.369366	-0.918932	0.184555	0.267220	0.179837	0.946706	-0.186589	0.973495	-0.132259	-0.945398	-0.141302	0.293693
64652	11.006437	-2.983241	2.810206	-0.225125	-0.862404	0.249972	0.258542	0.181091	0.948874	-0.185171	0.973347	-0.135308	-0.948086	-0.140721	0.285184
64653	9.870712	-2.277370	2.877002	-0.026323	-0.825186	0.320072	0.250072	0.183070	0.950762	-0.185782	0.972789	-0.138446	-0.950236	-0.142014	0.277279
64654	8.664833	-1.097194	2.915511	0.057720	-0.844900	0.336535	0.241358	0.185170	0.952606	-0.187214	0.972071	-0.141520	-0.952206	-0.144184	0.269284
64655	8.285908	-0.126591	2.630147	-0.026090	-0.877359	0.318580	0.232352	0.187026	0.954481	-0.187770	0.971503	-0.144652	-0.954335	-0.145613	0.260848
64656	8.199139	0.057204	2.345662	-0.194204	-0.861558	0.264098	0.223576	0.188374	0.956310	-0.186572	0.971275	-0.147703	-0.956663	-0.145397	0.252299
64657	8.300124	-0.454944	2.338906	-0.359516	-0.852575	0.218250	0.214960	0.189289	0.958103	-0.183652	0.971370	-0.150706	-0.959200	-0.143562	0.243569
64658	8.810039	-1.124683	2.267809	-0.433623	-0.827585	0.182767	0.206629	0.189924	0.959809	-0.179928	0.971625	-0.153527	-0.961733	-0.140973	0.234939
64659	9.225700	-1.823164	2.121578	-0.415571	-0.797157	0.169258	0.198607	0.190481	0.961391	-0.176312	0.971872	-0.156135	-0.964090	-0.138495	0.226605
64660	9.466834	-2.454304	2.316771	-0.301104	-0.761084	0.171528	0.190912	0.191136	0.962818	-0.173794	0.971945	-0.158487	-0.966099	-0.137075	0.218775
64661	9.594963	-2.601848	2.433049	-0.126666	-0.705245	0.201663	0.183700	0.192158	0.964017	-0.172991	0.971720	-0.160729	-0.967641	-0.137241	0.211747
64662	9.540912	-2.625591	2.571428	0.049915	-0.644798	0.216358	0.177032	0.193406	0.965015	-0.173918	0.971219	-0.162744	-0.968717	-0.139023	0.205574
64663	9.399641	-2.579054	2.900947	0.183973	-0.582723	0.223342	0.170949	0.194787	0.965834	-0.176139	0.970514	-0.164555	-0.969408	-0.141991	0.200218
64664	9.183504	-2.304876	3.315817	0.254375	-0.558029	0.232002	0.165076	0.196272	0.966554	-0.179049	0.969679	-0.166327	-0.969893	-0.145604	0.195213
64665	9.302379	-2.144215	3.464161	0.263627	-0.528887	0.216165	0.159511	0.197622	0.967213	-0.182009	0.968849	-0.167940	-0.970273	-0.149253	0.190511
64666	9.084132	-2.114451	3.618663	0.220479	-0.478455	0.190414	0.154468	0.198781	0.967794	-0.184500	0.968123	-0.169401	-0.970618	-0.152391	0.186220
64667	8.892006	-2.290752	3.795311	0.171669	-0.417372	0.144471	0.150104	0.199575	0.968317	-0.186443	0.967555	-0.170517	-0.970931	-0.154940	0.182444
64668	8.986482	-2.529590	3.923543	0.148678	-0.374313	0.102459	0.146227	0.200018	0.968819	-0.188091	0.967102	-0.171274	-0.971205	-0.157181	0.179038
64669	9.290006	-2.632476	3.836286	0.138877	-0.326052	0.076179	0.142871	0.200279	0.969266	-0.189610	0.966712	-0.171803	-0.971409	-0.159237	0.176090
64670	9.372570	-2.488017	3.737587	0.159135	-0.252099	0.061524	0.140254	0.200505	0.969601	-0.191295	0.966317	-0.172155	-0.971460	-0.161335	0.173886
64671	9.195011	-2.149416	3.418980	0.145635	-0.199969	0.045193	0.138180	0.200662	0.969867	-0.192838	0.965970	-0.172382	-0.971452	-0.163208	0.172173
64672	9.087327	-1.742747	2.763440	0.012776	-0.180666	0.018336	0.136339	0.200579	0.970144	-0.193040	0.965896	-0.172572	-0.971672	-0.163748	0.170409
64673	9.062662	-1.589328	2.115564	-0.190427	-0.203814	-0.006384	0.134326	0.200231	0.970497	-0.191248	0.966198	-0.172873	-0.972307	-0.162384	0.168079
64674	9.273370	-1.715858	1.504053	-0.402801	-0.238081	-0.059979	0.132073	0.199304	0.970997	-0.187301	0.966949	-0.172997	-0.973383	-0.159021	0.165037
64675	9.393025	-2.292116	0.874572	-0.560468	-0.269363	-0.089268	0.129568	0.198065	0.971588	-0.181792	0.967984	-0.173087	-0.974763	-0.154201	0.161426
64676	9.535743	-2.898316	0.554690	-0.615904	-0.317256	-0.112771	0.126625	0.196528	0.972287	-0.175691	0.969124	-0.173008	-0.976268	-0.148915	0.157243
64677	9.579840	-3.502106	0.243483	-0.576801	-0.342637	-0.110131	0.123422	0.195007	0.973005	-0.169988	0.970164	-0.172875	-0.977687	-0.144063	0.152889
64678	9.639427	-3.641226	0.177366	-0.426380	-0.368737	-0.087938	0.119913	0.193665	0.973712	-0.165762	0.970927	-0.172697	-0.978848	-0.140696	0.148529
64679	9.699726	-3.562860	0.316848	-0.242930	-0.383443	-0.082660	0.116247	0.192379	0.974411	-0.163361	0.971405	-0.172296	-0.979694	-0.139152	0.144350
64680	9.743100	-3.241819	0.358506	-0.036484	-0.368044	-0.082720	0.112726	0.191099	0.975076	-0.162961	0.971599	-0.171578	-0.980172	-0.139558	0.140666
64681	9.655924	-2.706365	0.477987	0.149600	-0.367804	-0.067663	0.109183	0.189982	0.975698	-0.164433	0.971495	-0.170763	-0.980327	-0.141792	0.137310
64682	9.555162	-2.081420	0.819192	0.259190	-0.378099	-0.075118	0.105551	0.188746	0.976337	-0.166944	0.971250	-0.169715	-0.980300	-0.145080	0.134027
64683	9.596213	-1.686315	1.100656	0.236752	-0.393388	-0.085629	0.101790	0.187397	0.976996	-0.169259	0.971040	-0.168620	-0.980301	-0.148201	0.130561
64684	9.472333	-1.665954	1.083922	0.176571	-0.419340	-0.090759	0.097784	0.185925	0.977686	-0.170950	0.970930	-0.167543	-0.980415	-0.150753	0.126725
64685	9.462019	-1.670642	1.126384	0.130891	-0.461084	-0.087925	0.093365	0.184429	0.978401	-0.172232	0.970870	-0.166574	-0.980622	-0.152959	0.122409
64686	9.189060	-1.920097	1.303596	0.108529	-0.471530	-0.077808	0.088825	0.182983	0.979095	-0.173276	0.970831	-0.165719	-0.980860	-0.154933	0.117940
64687	9.115600	-2.099045	1.475053	0.086782	-0.479646	-0.069942	0.084191	0.181615	0.979759	-0.174148	0.970799	-0.164989	-0.981114	-0.156733	0.113361
64688	9.523414	-2.261166	1.754865	0.105133	-0.465418	-0.076625	0.079709	0.180173	0.980400	-0.175167	0.970756	-0.164159	-0.981307	-0.158649	0.108938
64689	9.576246	-2.248720	2.000584	0.157379	-0.411857	-0.092562	0.075781	0.178675	0.980985	-0.176724	0.970646	-0.163140	-0.981339	-0.161001	0.105133
64690	9.589311	-2.055322	2.071918	0.169536	-0.362152	-0.111934	0.072376	0.177037	0.981539	-0.178355	0.970555	-0.161905	-0.981301	-0.163344	0.101820
64691	9.741357	-1.812543	2.236462	0.131651	-0.336399	-0.131456	0.069260	0.175270	0.982081	-0.179639	0.970544	-0.160542	-0.981291	-0.165301	0.098705
64692	10.235067	-1.580102	2.294926	0.067212	-0.358032	-0.160631	0.065985	0.173152	0.982682	-0.180240	0.970697	-0.158938	-0.981407	-0.166631	0.095261
64693	10.283581	-1.517767	2.241046	-0.037324	-0.402631	-0.184088	0.062317	0.170756	0.983341	-0.179843	0.971049	-0.157224	-0.981719	-0.167049	0.091222
64694	9.482587	-1.627424	2.042345	-0.115483	-0.462055	-0.178381	0.058049	0.168288	0.984027	-0.178651	0.971529	-0.155611	-0.982199	-0.166764	0.086462
64695	9.125379	-1.680712	2.112491	-0.139263	-0.517441	-0.179945	0.053237	0.165738	0.984732	-0.177269	0.972036	-0.154017	-0.982721	-0.166363	0.081128
64696	9.022990	-1.972062	2.295450	-0.159125	-0.514353	-0.177564	0.048444	0.163193	0.985404	-0.175664	0.972577	-0.152433	-0.983258	-0.165715	0.075782
64697	9.029460	-2.351229	2.596727	-0.140667	-0.463669	-0.172939	0.044139	0.160807	0.985998	-0.174290	0.973064	-0.150895	-0.983705	-0.165189	0.070977
64698	9.205910	-2.505762	3.026774	-0.100909	-0.358307	-0.152591	0.040828	0.158766	0.986472	-0.173281	0.973460	-0.149500	-0.984026	-0.164832	0.067256
64699	9.184900	-2.417245	3.367589	-0.075238	-0.247218	-0.126091	0.038569	0.157193	0.986814	-0.172586	0.973756	-0.148368	-0.984239	-0.164588	0.064686
64700	9.284515	-2.221352	3.857280	-0.080827	-0.123155	-0.134932	0.037539	0.155713	0.987089	-0.171788	0.974085	-0.147128	-0.984419	-0.164047	0.063316
64701	9.095585	-1.926361	4.744052	-0.105460	0.027614	-0.161117	0.038040	0.154257	0.987298	-0.170788	0.974480	-0.145674	-0.984573	-0.163077	0.063415
64702	8.654106	-1.563277	5.015259	-0.158882	0.143862	-0.193654	0.039736	0.152639	0.987483	-0.169197	0.975020	-0.143904	-0.984781	-0.161361	0.064569
64703	9.151822	-0.684730	4.763586	-0.292373	0.146868	-0.264012	0.041582	0.150374	0.987754	-0.166315	0.975858	-0.141562	-0.985196	-0.158392	0.065587
64704	9.835204	-0.198688	4.223050	-0.561717	0.172640	-0.359520	0.043821	0.147168	0.988140	-0.160673	0.977253	-0.138422	-0.986034	-0.152702	0.066470
64705	9.753762	-0.157714	3.871367	-0.805816	0.167231	-0.455779	0.046144	0.143032	0.988642	-0.152622	0.979086	-0.134526	-0.987207	-0.144681	0.067009
64706	9.918581	-0.559046	3.806825	-0.970864	0.139600	-0.550687	0.048287	0.137867	0.989273	-0.142820	0.981204	-0.129771	-0.988570	-0.135022	0.067070
64707	10.394569	-1.024609	4.274824	-0.941934	0.222335	-0.594142	0.051269	0.132395	0.989870	-0.133310	0.983211	-0.124600	-0.989747	-0.125572	0.068058
64708	9.624521	-0.944071	4.801399	-0.653288	0.392935	-0.571529	0.055854	0.127290	0.990292	-0.126586	0.984739	-0.119437	-0.990382	-0.118686	0.071115
64709	9.490021	0.396907	3.928596	-0.388715	0.412914	-0.550315	0.060597	0.122424	0.990626	-0.122521	0.985857	-0.114340	-0.990614	-0.114444	0.074740
64710	10.106702	1.949280	1.999616	-0.471434	0.431879	-0.542569	0.065479	0.117594	0.990901	-0.117558	0.987025	-0.109366	-0.990905	-0.109327	0.078454
64711	11.130364	2.997400	0.660728	-0.864340	0.448968	-0.557687	0.070530	0.112627	0.991131	-0.108709	0.988555	-0.104598	-0.991568	-0.100367	0.081966
64712	11.848839	3.543004	0.207572	-1.418592	0.449324	-0.602901	0.075552	0.107119	0.991371	-0.094244	0.990530	-0.099845	-0.992678	-0.085888	0.084932
64713	11.056986	2.842150	0.807023	-1.816342	0.434026	-0.738366	0.080463	0.100192	0.991709	-0.075706	0.992676	-0.094147	-0.993878	-0.067503	0.087459
64714	10.478855	0.330009	1.909220	-2.064097	0.374337	-0.940471	0.084752	0.091102	0.992229	-0.054454	0.994747	-0.086682	-0.994913	-0.046685	0.089267
64715	11.005555	-2.250966	2.722517	-2.080487	0.441351	-1.100939	0.089601	0.080355	0.992731	-0.032859	0.996436	-0.077689	-0.995436	-0.025660	0.091922
64716	11.949610	-3.885817	2.488239	-1.804602	0.645984	-1.179066	0.096262	0.068749	0.992979	-0.013852	0.997608	-0.067727	-0.995260	-0.007236	0.096985
64717	12.191681	-3.971524	2.796225	-1.167689	0.912806	-1.145442	0.105408	0.057390	0.992772	-0.001160	0.998340	-0.057588	-0.994428	0.004918	0.105299
64718	11.160527	-3.654326	2.994088	-0.397940	1.070364	-1.049975	0.115989	0.046873	0.992144	0.003904	0.998857	-0.047646	-0.993243	0.009400	0.115673
64719	10.547765	-3.381959	3.888275	0.169898	1.080909	-0.949693	0.126665	0.037364	0.991242	0.003278	0.999269	-0.038086	-0.991940	0.008074	0.126450
64720	10.703362	-3.299275	4.615091	0.165640	1.048941	-0.834787	0.136995	0.028988	0.990147	0.002684	0.999557	-0.029635	-0.990568	0.006717	0.136857
64721	11.013753	-3.068616	4.099606	-0.185388	1.065384	-0.666646	0.147497	0.022326	0.988811	0.005363	0.999712	-0.023372	-0.989048	0.008750	0.147334
64722	11.028529	-3.433609	3.049424	-0.567975	1.087181	-0.402358	0.158164	0.018221	0.987245	0.011537	0.999727	-0.020300	-0.987345	0.014600	0.157911
64723	11.205877	-4.668099	1.309431	-0.617725	1.150939	-0.180412	0.169475	0.016308	0.985399	0.017809	0.999649	-0.019606	-0.985373	0.020872	0.169126
64724	11.545024	-5.478082	0.514651	-0.341995	1.248845	0.056763	0.181737	0.016637	0.983206	0.021021	0.999563	-0.020800	-0.983122	0.024448	0.181308
64725	11.501165	-5.355347	0.116161	0.180721	1.340552	0.245547	0.194933	0.018886	0.980635	0.018649	0.999562	-0.022958	-0.980639	0.022763	0.194496
64726	10.950604	-4.553968	0.340908	0.768983	1.329381	0.379644	0.207966	0.022473	0.977878	0.010297	0.999630	-0.025163	-0.978082	0.015303	0.207658
64727	10.499471	-3.126364	0.914047	1.142656	1.250894	0.447353	0.220186	0.026949	0.975085	-0.001976	0.999629	-0.027181	-0.975456	0.004059	0.220158
64728	10.319961	-1.461446	1.078271	1.194138	1.191688	0.447604	0.231715	0.031489	0.972274	-0.014676	0.999475	-0.028872	-0.972673	-0.007579	0.232056
64729	10.071043	-0.034786	0.970648	1.020965	1.178354	0.414620	0.243055	0.035912	0.969347	-0.025737	0.999201	-0.030565	-0.969671	-0.017519	0.243785
64730	9.959816	1.032270	0.546151	0.897042	1.153714	0.360915	0.254071	0.039813	0.966366	-0.035376	0.998866	-0.031852	-0.966538	-0.026093	0.255192
64731	9.930992	1.900237	0.238881	0.833091	1.145280	0.305785	0.264978	0.043341	0.963280	-0.044365	0.998479	-0.032721	-0.963233	-0.034066	0.266498
64732	10.114136	2.639654	0.443919	0.728091	1.155288	0.241389	0.275927	0.046227	0.960066	-0.052077	0.998095	-0.033091	-0.959767	-0.040867	0.277808
64733	10.095567	3.006448	0.087602	0.473639	1.154703	0.189732	0.286861	0.048737	0.956732	-0.057295	0.997790	-0.033650	-0.956257	-0.045163	0.289019
64734	9.836686	2.894605	-1.310241	0.258214	1.052155	0.153147	0.296772	0.050794	0.953597	-0.060266	0.997590	-0.034382	-0.953045	-0.047266	0.299118
64735	10.402190	2.925964	-1.336398	-0.056053	0.978792	0.131722	0.305980	0.052675	0.950580	-0.060262	0.997538	-0.035879	-0.950129	-0.046306	0.308401
64736	11.068076	2.632400	-0.372082	-0.394822	0.945552	0.107955	0.314845	0.054211	0.947594	-0.056911	0.997649	-0.038166	-0.947436	-0.041912	0.317190
64737	10.805435	1.520323	-0.134736	-0.719017	0.941465	0.083027	0.323679	0.055495	0.944538	-0.050492	0.997869	-0.041326	-0.944819	-0.034315	0.325791
64738	9.842725	-0.170920	-0.264896	-0.955102	0.923048	0.088070	0.332305	0.056688	0.941467	-0.041829	0.998096	-0.045334	-0.942244	-0.024316	0.334044
64739	8.869242	-1.888278	-0.606467	-0.943745	0.890280	0.148395	0.340597	0.058435	0.938392	-0.033562	0.998186	-0.049977	-0.939610	-0.014472	0.341940
64740	8.054775	-2.853209	-0.854778	-0.702693	0.883168	0.242729	0.348766	0.060997	0.935223	-0.027866	0.998114	-0.054707	-0.936795	-0.006981	0.349808
64741	7.635909	-3.044464	-0.662340	-0.410591	0.865008	0.354267	0.356731	0.064673	0.931966	-0.025396	0.997904	-0.059528	-0.933862	-0.002432	0.357626
64742	7.643464	-2.831362	-0.291232	-0.204369	0.861538	0.464935	0.364605	0.069367	0.928575	-0.025228	0.997591	-0.064616	-0.930820	0.000133	0.365477
64743	7.562575	-2.581567	-0.017947	-0.073242	0.873591	0.552219	0.372545	0.074977	0.924980	-0.026712	0.997184	-0.070071	-0.927629	0.001396	0.373499
64744	7.532346	-2.256318	0.332165	-0.043273	0.894983	0.607551	0.380623	0.081061	0.921170	-0.028661	0.996706	-0.075865	-0.924286	0.002475	0.381693
64745	7.509582	-2.017566	0.740358	-0.114675	0.913992	0.656075	0.388826	0.087683	0.917129	-0.030263	0.996139	-0.082407	-0.920814	0.004287	0.389978
64746	7.445447	-2.052991	1.025069	-0.216922	0.930686	0.687204	0.397128	0.094518	0.912883	-0.031032	0.995497	-0.089572	-0.917239	0.007243	0.398272
64747	7.262149	-2.181966	1.464938	-0.359653	0.945512	0.701898	0.405527	0.101534	0.908426	-0.030697	0.994764	-0.097481	-0.913567	0.011645	0.406521
64748	7.037895	-2.584909	1.894271	-0.479844	0.945049	0.700990	0.413893	0.108413	0.903847	-0.029256	0.993954	-0.105823	-0.909855	0.017356	0.414563
64749	6.778071	-2.702697	2.326219	-0.499943	0.888720	0.684947	0.421727	0.115165	0.899379	-0.027724	0.993075	-0.114162	-0.906299	0.023211	0.422000
64750	6.467028	-2.906159	2.824740	-0.450242	0.771794	0.669844	0.428488	0.121660	0.895319	-0.026561	0.992161	-0.122107	-0.903157	0.028541	0.428361
64751	6.408459	-3.033677	3.197500	-0.313470	0.588517	0.643484	0.433583	0.127997	0.891977	-0.026661	0.991249	-0.129283	-0.900719	0.032274	0.433201
64752	6.699864	-2.891332	3.458809	-0.175922	0.359163	0.603984	0.436611	0.133908	0.889629	-0.027769	0.990395	-0.135447	-0.899222	0.034434	0.436136
64753	7.146945	-2.571217	3.363608	0.007062	0.126391	0.509556	0.437555	0.139051	0.888375	-0.030219	0.989687	-0.140025	-0.898684	0.034422	0.437245
64754	7.456338	-2.166917	3.389514	0.224167	-0.025098	0.371415	0.437171	0.142781	0.887973	-0.033922	0.989233	-0.142362	-0.898739	0.032115	0.437307
64755	7.537696	-1.878492	3.595414	0.409199	-0.115731	0.245794	0.435995	0.145392	0.888127	-0.038837	0.988984	-0.142837	-0.899111	0.027784	0.436839
64756	7.642676	-1.777329	4.112354	0.550858	-0.166137	0.180495	0.434385	0.147264	0.888607	-0.044640	0.988852	-0.142055	-0.899620	0.022039	0.436116
64757	7.928292	-1.872718	4.984075	0.770303	-0.208127	0.170372	0.432383	0.149132	0.889272	-0.052476	0.988718	-0.140295	-0.900162	0.013996	0.435330
64758	8.250583	-2.362125	6.002195	1.086992	-0.245581	0.230756	0.429997	0.151479	0.890032	-0.063321	0.988456	-0.137639	-0.900607	0.002827	0.434625
64759	8.633069	-2.810747	7.436114	1.396349	-0.200139	0.346300	0.427902	0.155040	0.890428	-0.077549	0.987842	-0.134735	-0.900492	-0.011398	0.434723
64760	8.629635	-3.252258	8.638480	1.667996	-0.132122	0.504614	0.426236	0.160040	0.890343	-0.094780	0.986710	-0.131987	-0.899633	-0.028129	0.435740
64761	8.925901	-3.015096	10.230007	2.008445	-0.040383	0.667433	0.425121	0.166756	0.889643	-0.115845	0.984823	-0.129239	-0.897693	-0.048118	0.437987
64762	8.819380	-2.279675	10.959501	2.390300	0.093528	0.778981	0.424916	0.174515	0.888252	-0.140636	0.982054	-0.125667	-0.894242	-0.071522	0.441833
64763	8.009854	-0.992054	10.698469	2.844444	0.257045	0.833761	0.425862	0.183061	0.886076	-0.169722	0.978097	-0.120502	-0.888727	-0.099069	0.447604
64764	7.285357	1.063860	10.797274	3.102559	0.400213	0.779541	0.427915	0.191162	0.883372	-0.200572	0.973092	-0.113418	-0.881283	-0.128647	0.454742
64765	7.112154	3.544805	10.470280	3.069040	0.493461	0.630729	0.430832	0.198140	0.880412	-0.230371	0.967423	-0.104989	-0.872532	-0.157589	0.462442
64766	7.282890	5.416976	10.066695	2.629682	0.535174	0.451362	0.434334	0.203440	0.877477	-0.255218	0.962034	-0.096716	-0.863839	-0.181941	0.469766
64767	7.449825	6.395594	9.409639	1.952439	0.547552	0.267739	0.438288	0.207188	0.874629	-0.273338	0.957708	-0.089895	-0.856265	-0.199669	0.476385
64768	7.316346	6.709522	8.544394	1.168753	0.535872	0.092725	0.442555	0.209207	0.871997	-0.283783	0.955103	-0.085120	-0.850654	-0.209787	0.482054
64769	7.608779	6.453212	7.814229	0.391708	0.558252	-0.023648	0.447319	0.210270	0.869306	-0.287139	0.954280	-0.083070	-0.847028	-0.212453	0.487244
64770	7.040158	5.202832	7.557990	-0.331667	0.736624	0.055496	0.453342	0.212382	0.865664	-0.284645	0.954840	-0.085194	-0.844664	-0.207785	0.493323
64771	5.370490	3.413678	5.810401	-0.875357	0.575100	0.116173	0.457837	0.214750	0.862709	-0.277899	0.956331	-0.090575	-0.844487	-0.198277	0.497523
64772	4.859218	1.758528	3.320651	-1.139655	0.037938	0.158548	0.457676	0.216377	0.862388	-0.269045	0.958167	-0.097624	-0.847436	-0.187342	0.496745
64773	6.350371	0.354250	1.452759	-1.311455	-0.470214	0.175712	0.453182	0.217290	0.864529	-0.258803	0.960134	-0.105655	-0.853022	-0.175862	0.491351
64774	8.127704	-0.926704	-0.015063	-1.335138	-0.729540	0.212321	0.446348	0.218125	0.867868	-0.248387	0.961927	-0.114018	-0.859696	-0.164675	0.483534
64775	8.792241	-1.602989	-1.472275	-1.240917	-0.887423	0.299426	0.437926	0.219667	0.871761	-0.239103	0.963223	-0.122601	-0.866632	-0.154751	0.474343
64776	8.785991	-2.747480	-3.970616	-1.291299	-1.011580	0.257756	0.428470	0.220675	0.876194	-0.229043	0.964571	-0.130928	-0.874044	-0.144587	0.463834
64777	8.995683	-3.441601	-5.503953	-1.276203	-1.151103	0.144678	0.418006	0.220538	0.881268	-0.218553	0.966007	-0.138079	-0.881763	-0.134886	0.451996
64778	10.503614	-3.779919	-3.409094	-0.811656	-1.132004	0.093045	0.407740	0.219979	0.886204	-0.211816	0.966858	-0.142543	-0.888190	-0.129592	0.440822
64779	13.728716	-4.678770	3.073025	-0.121004	-0.881240	0.160771	0.399516	0.220464	0.889822	-0.211490	0.966634	-0.144539	-0.891997	-0.130443	0.432811
64780	16.109586	-6.555070	7.550048	0.461298	-0.581633	0.375664	0.393471	0.223355	0.891792	-0.217159	0.965168	-0.145919	-0.893321	-0.136246	0.428269
64781	14.435997	-7.047239	6.880416	0.938617	-0.557981	0.534093	0.387254	0.227799	0.893388	-0.227740	0.962603	-0.146729	-0.893403	-0.146639	0.424651
64782	12.282954	-4.324921	6.174449	1.528154	-0.800224	0.555862	0.378748	0.231937	0.895966	-0.243579	0.958940	-0.145271	-0.892871	-0.163218	0.419691
64783	10.822294	-0.530735	4.959848	1.964954	-1.006425	0.546905	0.368333	0.235513	0.899369	-0.263277	0.954205	-0.142048	-0.891637	-0.184462	0.413471
64784	9.920697	3.004218	2.152371	1.819722	-1.131241	0.485994	0.356877	0.237974	0.903331	-0.281318	0.949495	-0.138996	-0.890786	-0.204519	0.405799
64785	9.941526	5.783436	-0.623913	1.401813	-1.146010	0.337920	0.345647	0.238820	0.907465	-0.295101	0.945670	-0.136472	-0.890755	-0.220622	0.397344
64786	11.770773	8.173495	-1.148426	0.976526	-1.035121	0.118805	0.336016	0.237631	0.911386	-0.304266	0.943153	-0.133735	-0.891356	-0.232367	0.389217
64787	12.455778	9.135445	-0.134136	0.257584	-0.817072	-0.075507	0.328912	0.235048	0.914642	-0.306387	0.942699	-0.132079	-0.893277	-0.236792	0.382081
64788	11.021183	7.622628	0.651717	-0.445741	-0.842871	-0.266497	0.322124	0.230580	0.918188	-0.301587	0.944348	-0.131345	-0.897375	-0.234604	0.373737
64789	10.374329	5.366621	0.804685	-1.060524	-0.967636	-0.395867	0.314547	0.224612	0.922285	-0.290812	0.947684	-0.131616	-0.903598	-0.226812	0.363411
64790	9.451720	3.034909	0.405698	-1.623751	-0.986779	-0.321089	0.306450	0.219423	0.926252	-0.275138	0.951952	-0.134482	-0.911256	-0.213635	0.352097
64791	8.948891	-0.241737	0.262866	-1.933603	-1.040616	-0.195939	0.297413	0.215406	0.930132	-0.256859	0.956350	-0.139347	-0.919548	-0.197469	0.339760
64792	8.695146	-3.452915	0.377162	-1.947849	-1.066067	-0.062395	0.287671	0.212826	0.933783	-0.238745	0.960152	-0.145286	-0.927495	-0.181142	0.327019
64793	8.581161	-5.825495	0.104499	-1.773317	-1.084257	0.061990	0.277400	0.211532	0.937179	-0.222421	0.963100	-0.151548	-0.934654	-0.166409	0.314213
64794	8.650192	-6.940614	-0.496083	-1.431149	-1.064587	0.203089	0.266929	0.211817	0.940150	-0.209612	0.964952	-0.157891	-0.940644	-0.154921	0.301973
64795	8.376781	-7.326357	-0.661324	-0.986522	-1.055454	0.333700	0.256252	0.213450	0.942748	-0.201208	0.965729	-0.163962	-0.945436	-0.147673	0.290418
64796	8.377815	-7.309306	-0.615238	-0.504805	-1.051233	0.402406	0.245443	0.215835	0.945078	-0.197493	0.965587	-0.169229	-0.949081	-0.145111	0.279622
64797	8.463077	-7.233448	-0.137258	0.046029	-1.005516	0.395084	0.235062	0.218202	0.947172	-0.198924	0.964649	-0.172861	-0.951407	-0.147782	0.270158
64798	8.585202	-6.363976	0.623318	0.539466	-1.007644	0.344545	0.224723	0.220033	0.949255	-0.204909	0.963060	-0.174724	-0.952634	-0.155246	0.261508
64799	8.992046	-4.875604	1.297393	0.929908	-1.007330	0.270143	0.214510	0.221051	0.951379	-0.214422	0.960949	-0.174928	-0.952895	-0.166472	0.253532
64800	9.308038	-3.833507	2.027222	1.175065	-0.968934	0.194151	0.204802	0.221273	0.953465	-0.226079	0.958466	-0.173872	-0.952336	-0.179949	0.246321
64801	10.251155	-3.140918	3.123758	1.358539	-0.967791	0.122580	0.195254	0.220676	0.955604	-0.239321	0.955624	-0.171781	-0.951105	-0.195155	0.239401
64802	11.889045	-2.132609	4.183014	1.485098	-0.891136	0.073031	0.186555	0.219596	0.957588	-0.253626	0.952424	-0.169001	-0.949142	-0.211342	0.233375
64803	10.377109	-0.204540	4.392960	1.603428	-0.762753	0.108012	0.178990	0.218991	0.959169	-0.269089	0.948637	-0.166372	-0.946337	-0.228323	0.228725
64804	9.101094	1.641708	5.445159	1.589940	-0.785342	0.130960	0.171155	0.218405	0.960732	-0.284395	0.944564	-0.164065	-0.943306	-0.245147	0.223780
64805	9.158968	2.497262	5.041051	1.026929	-0.810317	0.121410	0.163115	0.217556	0.962322	-0.294340	0.941698	-0.163003	-0.941678	-0.256661	0.217640
64806	9.362724	1.862383	3.974231	0.370231	-0.759937	0.090516	0.155636	0.216470	0.963804	-0.298024	0.940519	-0.163114	-0.941785	-0.261850	0.210892
64807	9.464694	0.426635	3.340118	-0.118028	-0.707792	0.054536	0.148756	0.215158	0.965183	-0.297047	0.940688	-0.163917	-0.943205	-0.262321	0.203845
64808	9.247922	-1.300896	2.813970	-0.401376	-0.687876	0.050881	0.142056	0.213872	0.966478	-0.293383	0.941605	-0.165246	-0.945382	-0.260074	0.196507
64809	9.608941	-2.618333	2.411198	-0.541216	-0.676577	0.032103	0.135512	0.212456	0.967729	-0.288354	0.942914	-0.166630	-0.947886	-0.256468	0.189038
64810	9.964647	-3.071710	1.981731	-0.532466	-0.599379	-0.021185	0.129830	0.210762	0.968877	-0.283325	0.944292	-0.167449	-0.950195	-0.252767	0.182312
64811	9.481046	-3.023674	2.026375	-0.405828	-0.535214	-0.076651	0.124909	0.208725	0.969965	-0.279421	0.945452	-0.167467	-0.952009	-0.250110	0.176417
64812	9.100664	-2.572414	2.256951	-0.273947	-0.510168	-0.149092	0.120410	0.206075	0.971100	-0.276680	0.946422	-0.166532	-0.953389	-0.248632	0.170975
64813	8.965209	-2.076666	2.120565	-0.252830	-0.530421	-0.195441	0.115840	0.202945	0.972314	-0.274094	0.947426	-0.165095	-0.954701	-0.247381	0.165376
64814	9.295271	-2.035721	1.472787	-0.308603	-0.556180	-0.190671	0.110993	0.199799	0.973530	-0.270981	0.948549	-0.163778	-0.956164	-0.245630	0.159424
64815	9.578216	-2.024433	0.966682	-0.315769	-0.574481	-0.151603	0.105857	0.196992	0.974673	-0.267854	0.949600	-0.162833	-0.957626	-0.243833	0.153287
64816	9.289039	-2.034819	0.634170	-0.356672	-0.621289	-0.114325	0.100154	0.194431	0.975790	-0.264370	0.950668	-0.162291	-0.959207	-0.241715	0.146614
64817	9.392175	-2.224214	0.320284	-0.376614	-0.708940	-0.085673	0.093525	0.191948	0.976939	-0.260730	0.951717	-0.162032	-0.960871	-0.239563	0.139056
64818	9.599635	-2.389729	0.194881	-0.362074	-0.750506	-0.066219	0.086426	0.189560	0.978058	-0.257240	0.952687	-0.161912	-0.962475	-0.237602	0.131099
64819	9.522807	-2.636109	0.001512	-0.266951	-0.755515	-0.066003	0.079270	0.187180	0.979122	-0.254674	0.953421	-0.161648	-0.963773	-0.236543	0.123247
64820	9.613963	-2.452359	-0.097386	-0.131401	-0.736151	-0.101900	0.072378	0.184500	0.980164	-0.253380	0.953901	-0.160846	-0.964655	-0.236712	0.115790
64821	9.672244	-2.061652	0.068924	0.010452	-0.710910	-0.137353	0.065817	0.181542	0.981178	-0.253447	0.954104	-0.159532	-0.965108	-0.238177	0.108808
64822	9.572693	-1.790214	0.544421	0.126145	-0.684853	-0.152915	0.059543	0.178477	0.982141	-0.254619	0.954057	-0.157937	-0.965207	-0.240668	0.102251
64823	9.301791	-1.652797	0.995126	0.182272	-0.679634	-0.138073	0.053286	0.175555	0.983027	-0.256361	0.953836	-0.156445	-0.965111	-0.243674	0.095831
64824	8.798734	-1.687008	1.509795	0.195068	-0.687500	-0.104693	0.046868	0.172903	0.983823	-0.258241	0.953520	-0.155276	-0.964943	-0.246786	0.089340
64825	8.935735	-1.870829	2.008772	0.181678	-0.712987	-0.069976	0.040119	0.170507	0.984539	-0.260024	0.953165	-0.154478	-0.964768	-0.249807	0.082576
64826	9.146825	-1.967762	2.179932	0.130227	-0.707990	-0.032787	0.033322	0.168450	0.985147	-0.261318	0.952874	-0.154093	-0.964678	-0.252302	0.075770
64827	9.253308	-1.940853	2.031073	0.048842	-0.710982	-0.016104	0.026455	0.166539	0.985680	-0.261848	0.952752	-0.153948	-0.964747	-0.254025	0.068813
64828	9.554352	-1.892144	2.050801	0.008294	-0.678272	-0.039757	0.019962	0.164466	0.986181	-0.261967	0.952776	-0.153592	-0.964870	-0.255281	0.062104
64829	9.435331	-2.050393	2.197578	-0.054152	-0.645976	-0.076030	0.013878	0.162135	0.986671	-0.261497	0.953013	-0.152926	-0.965104	-0.255889	0.055624
64830	10.011112	-2.380574	2.350804	-0.148245	-0.623555	-0.128265	0.008140	0.159350	0.987189	-0.260100	0.953578	-0.151780	-0.965547	-0.255532	0.049209
64831	10.410339	-2.609366	2.417861	-0.166769	-0.570910	-0.172099	0.003024	0.156298	0.987705	-0.258549	0.954248	-0.150212	-0.965993	-0.254916	0.043296
64832	10.823790	-2.063453	2.366347	-0.108842	-0.516956	-0.197047	-0.001515	0.153133	0.988204	-0.257543	0.954810	-0.148353	-0.966266	-0.254730	0.037992
64833	10.629437	-1.207617	2.592889	-0.047882	-0.431123	-0.205057	-0.005201	0.150125	0.988653	-0.257161	0.955215	-0.146401	-0.966355	-0.255004	0.033638
64834	9.753888	-0.352597	2.795601	-0.105341	-0.384222	-0.220171	-0.008402	0.147075	0.989090	-0.256205	0.955791	-0.144300	-0.966586	-0.254622	0.029651
64835	9.078686	0.309568	2.380884	-0.238865	-0.392083	-0.246424	-0.011611	0.143773	0.989543	-0.253993	0.956728	-0.141985	-0.967136	-0.252985	0.025409
64836	8.238314	0.106409	2.377154	-0.384753	-0.445464	-0.267118	-0.015300	0.140128	0.990015	-0.250353	0.958056	-0.139474	-0.968034	-0.249987	0.020423
64837	7.897517	-0.832781	2.314837	-0.587018	-0.539685	-0.265542	-0.019914	0.136294	0.990468	-0.244783	0.959850	-0.137002	-0.969373	-0.245178	0.014248
64838	8.787235	-1.941174	2.219224	-0.738035	-0.633406	-0.281268	-0.025433	0.132091	0.990911	-0.237733	0.961996	-0.134338	-0.970998	-0.238989	0.006936
64839	8.836435	-2.920738	1.850011	-0.841011	-0.667691	-0.282956	-0.031303	0.127844	0.991300	-0.229712	0.964318	-0.131618	-0.972755	-0.231834	-0.000818
64840	8.991368	-3.485866	1.478815	-0.837201	-0.716358	-0.300266	-0.037651	0.123344	0.991649	-0.221711	0.966589	-0.128645	-0.974385	-0.224703	-0.009046
64841	9.753186	-3.435200	1.600121	-0.758206	-0.710819	-0.341020	-0.043879	0.118526	0.991981	-0.214538	0.968654	-0.125228	-0.975730	-0.218312	-0.017075
64842	10.566483	-2.746138	1.861627	-0.667986	-0.611719	-0.378428	-0.049102	0.113574	0.992315	-0.208238	0.970517	-0.121383	-0.976845	-0.212598	-0.024004
64843	10.808468	-1.795556	2.257379	-0.578271	-0.469586	-0.407224	-0.052894	0.108692	0.992667	-0.202882	0.972157	-0.117257	-0.977774	-0.207596	-0.029370
64844	11.083131	-0.791574	2.859566	-0.503821	-0.334588	-0.448457	-0.055318	0.103678	0.993071	-0.198241	0.973653	-0.112693	-0.978591	-0.203102	-0.033308
64845	11.116616	0.217318	3.596713	-0.466002	-0.145627	-0.489153	-0.055822	0.098681	0.993552	-0.194041	0.975058	-0.107746	-0.979404	-0.198804	-0.035281
64846	11.533492	1.222962	4.375506	-0.485064	0.051228	-0.546973	-0.054321	0.093481	0.994138	-0.189635	0.976523	-0.102186	-0.980351	-0.194074	-0.035318
64847	12.054383	1.845870	5.613522	-0.533881	0.332065	-0.621396	-0.049933	0.088105	0.994859	-0.184808	0.978085	-0.095895	-0.981505	-0.188646	-0.032556
64848	11.370422	2.399427	7.147323	-0.462628	0.664612	-0.691997	-0.042192	0.082605	0.995689	-0.180630	0.979524	-0.088918	-0.982646	-0.183603	-0.026407
64849	10.722816	2.933443	8.106843	-0.675884	0.795216	-0.753366	-0.033061	0.076709	0.996505	-0.174348	0.981320	-0.081325	-0.984129	-0.176428	-0.019069
64850	10.830840	3.434079	7.264229	-1.107756	0.860910	-0.841520	-0.023207	0.069948	0.997281	-0.163718	0.983816	-0.072813	-0.986234	-0.164963	-0.011379
64851	11.184478	4.600485	5.886415	-1.387699	0.915425	-1.015292	-0.012593	0.061446	0.998031	-0.150272	0.986658	-0.062642	-0.988564	-0.150765	-0.003191
64852	11.754118	4.959166	5.078342	-1.808385	0.919691	-1.161324	-0.001895	0.051310	0.998681	-0.132503	0.989864	-0.051108	-0.991181	-0.132425	0.004923
64853	11.253995	3.707181	4.061265	-2.161048	1.038633	-1.227786	0.009895	0.040446	0.999133	-0.111064	0.993044	-0.039100	-0.993764	-0.110581	0.014319
64854	10.088962	1.893576	3.345048	-2.336918	1.211128	-1.280140	0.023170	0.028953	0.999312	-0.087652	0.995790	-0.026819	-0.995882	-0.086971	0.025610
64855	10.519918	-0.239947	2.554636	-2.293128	1.444418	-1.252086	0.038509	0.017605	0.999103	-0.064463	0.997806	-0.015098	-0.997177	-0.063824	0.039559
64856	11.055208	-2.363440	2.178027	-1.965263	1.683114	-1.020474	0.055806	0.008367	0.998407	-0.044432	0.998995	-0.005889	-0.997452	-0.044033	0.056122
64857	11.514156	-4.448803	1.926420	-1.676583	1.794645	-0.618446	0.073919	0.002876	0.997260	-0.027368	0.999625	-0.000854	-0.996889	-0.027230	0.073970
64858	12.728712	-5.840266	1.139500	-1.435555	1.804382	-0.210158	0.091896	0.001181	0.995768	-0.012943	0.999916	0.000008	-0.995684	-0.012889	0.091904
64859	13.220201	-7.076510	-0.682000	-1.211926	1.799048	0.137457	0.109781	0.002744	0.993952	-0.001101	0.999996	-0.002639	-0.993955	-0.000805	0.109784
64860	12.616984	-7.868719	-1.975099	-0.748020	1.695321	0.330659	0.126581	0.006046	0.991938	0.005882	0.999959	-0.006846	-0.991939	0.006701	0.126541
64861	12.354418	-7.850599	-2.066553	-0.155317	1.504007	0.428255	0.141509	0.010301	0.989883	0.006744	0.999913	-0.011370	-0.989914	0.008284	0.141427
64862	12.390078	-7.355078	-1.671253	0.493659	1.407035	0.462371	0.155399	0.014888	0.987740	0.001120	0.999883	-0.015247	-0.987851	0.003476	0.155364
64863	11.945817	-5.897865	-1.301673	1.080950	1.394556	0.435111	0.169133	0.019371	0.985403	-0.010382	0.999786	-0.017872	-0.985539	-0.007208	0.169298
64864	11.361017	-4.266694	-1.261877	1.404742	1.364862	0.365993	0.182460	0.023268	0.982938	-0.024908	0.999508	-0.019037	-0.982898	-0.021010	0.182950
64865	10.514107	-2.784714	-1.528124	1.463244	1.352743	0.251084	0.195644	0.026279	0.980323	-0.039891	0.999027	-0.018820	-0.979863	-0.035424	0.196502
64866	9.834838	-0.705784	-1.645074	1.564029	1.322001	0.181787	0.208445	0.028709	0.977613	-0.055615	0.998300	-0.017458	-0.976451	-0.050731	0.209688
64867	9.310868	1.042639	-0.230483	1.643681	1.236508	0.233926	0.220333	0.031894	0.974903	-0.072288	0.997251	-0.016288	-0.972742	-0.066885	0.222033
64868	8.880244	1.628398	0.084996	1.472020	1.117491	0.317152	0.230885	0.035925	0.972318	-0.087354	0.996048	-0.016059	-0.969052	-0.081228	0.233111
64869	8.688565	1.974021	-0.355421	1.144794	0.975307	0.386625	0.239941	0.040740	0.969932	-0.099484	0.994891	-0.017178	-0.965677	-0.092371	0.242768
64870	9.170512	2.359424	-0.716196	0.971979	0.875287	0.389105	0.247927	0.045500	0.967710	-0.109863	0.993773	-0.018578	-0.962529	-0.101709	0.251382
64871	9.576279	2.925997	-0.576851	0.811705	0.871651	0.314191	0.255923	0.049651	0.965421	-0.118590	0.992749	-0.019619	-0.959396	-0.109468	0.259956
64872	9.796719	3.052368	-0.401186	0.560586	0.894698	0.231157	0.264166	0.052988	0.963021	-0.124620	0.991995	-0.020398	-0.956392	-0.114623	0.268655
64873	9.707584	2.652458	-0.151676	0.227992	0.927539	0.183409	0.272769	0.055978	0.960450	-0.127413	0.991614	-0.021609	-0.953605	-0.116479	0.277614
64874	9.437947	1.951815	0.212852	-0.141966	0.933890	0.209337	0.281352	0.059174	0.957779	-0.126701	0.991649	-0.024048	-0.951204	-0.114585	0.286500
64875	9.106977	0.875079	0.146814	-0.443317	0.910137	0.270175	0.289636	0.062964	0.955063	-0.123373	0.991966	-0.027983	-0.949152	-0.109724	0.295078
64876	8.852061	-0.269880	-0.060996	-0.553326	0.913075	0.347469	0.297827	0.067427	0.952236	-0.119207	0.992321	-0.032982	-0.947148	-0.103691	0.303578
64877	8.578700	-1.253919	-0.166687	-0.504513	0.910413	0.438438	0.305897	0.072785	0.949278	-0.115868	0.992508	-0.038762	-0.944988	-0.098133	0.312039
64878	8.408217	-1.922709	-0.024785	-0.396070	0.922832	0.543971	0.313937	0.079110	0.946142	-0.113877	0.992466	-0.045199	-0.942590	-0.093554	0.320581
64879	8.301870	-2.313225	0.115419	-0.256825	0.940243	0.653131	0.322014	0.086547	0.942771	-0.113649	0.992145	-0.052261	-0.939889	-0.090316	0.329321
64880	8.170278	-2.401351	0.386113	-0.100163	0.953910	0.731254	0.330084	0.094695	0.939190	-0.115155	0.991564	-0.059504	-0.936901	-0.088511	0.338204
64881	8.201712	-2.174089	0.647936	0.018102	0.933134	0.780048	0.337870	0.103346	0.935502	-0.118049	0.990757	-0.066815	-0.933760	-0.087860	0.346947
64882	8.404333	-1.750759	0.965172	0.041241	0.926234	0.796495	0.345507	0.112087	0.931698	-0.121216	0.989854	-0.074132	-0.930555	-0.087324	0.355588
64883	8.519805	-1.407116	1.207412	0.011176	0.926928	0.814573	0.353082	0.121052	0.927728	-0.124288	0.988875	-0.081728	-0.927300	-0.086449	0.364199
64884	8.420768	-1.132408	1.409479	-0.020804	0.913030	0.814426	0.360465	0.129927	0.923680	-0.127064	0.987860	-0.089368	-0.924078	-0.085152	0.372598
64885	8.126099	-0.997774	1.503054	-0.067027	0.871209	0.787599	0.367454	0.138538	0.919665	-0.129435	0.986838	-0.096941	-0.920991	-0.083416	0.380550
64886	7.900104	-0.770545	1.496555	-0.123227	0.785574	0.728311	0.373685	0.146411	0.915928	-0.131064	0.985891	-0.104122	-0.918249	-0.081136	0.387602
64887	7.732252	-0.638309	1.412445	-0.098501	0.674171	0.644508	0.378978	0.153403	0.912603	-0.132709	0.984981	-0.110460	-0.915841	-0.079248	0.393644
64888	7.616496	-0.441214	1.437849	0.005783	0.531154	0.537510	0.383073	0.159157	0.909903	-0.134873	0.984125	-0.115357	-0.913819	-0.078531	0.398457
64889	7.640309	-0.275373	1.380673	0.158418	0.391830	0.418140	0.386038	0.163678	0.907846	-0.138047	0.983301	-0.118581	-0.912095	-0.079549	0.402187
64890	7.630455	0.056021	1.120238	0.315294	0.262733	0.290839	0.387980	0.166791	0.906450	-0.142109	0.982554	-0.119969	-0.910646	-0.082269	0.404914
64891	7.670208	0.376222	0.999396	0.432950	0.169794	0.165444	0.389243	0.168653	0.905564	-0.146808	0.981888	-0.119765	-0.909361	-0.086326	0.406953
64892	7.731475	0.387907	1.194683	0.487663	0.119201	0.107508	0.390121	0.169856	0.904961	-0.151722	0.981261	-0.118771	-0.908177	-0.090967	0.408581
64893	7.696234	0.199580	1.349493	0.443614	0.092148	0.096693	0.390764	0.170978	0.904472	-0.156236	0.980660	-0.117881	-0.907135	-0.095247	0.409920
64894	7.709440	-0.105947	1.962716	0.366006	0.102151	0.126977	0.391444	0.172363	0.903915	-0.160114	0.980075	-0.117548	-0.906165	-0.098716	0.411242
64895	7.951772	-0.601883	2.839888	0.354559	0.116220	0.184760	0.392152	0.174372	0.903223	-0.164154	0.979375	-0.117803	-0.905135	-0.102070	0.412688
64896	8.842243	-1.698105	3.658375	0.556963	0.096622	0.279144	0.392513	0.177247	0.902506	-0.170349	0.978288	-0.118042	-0.903833	-0.107408	0.414185
64897	9.910815	-2.682860	4.949945	0.887087	0.097881	0.440354	0.392579	0.181741	0.901583	-0.180192	0.976482	-0.118378	-0.901894	-0.115985	0.416095
64898	11.206773	-3.194369	8.489333	1.019721	0.263768	0.607698	0.393778	0.188027	0.899769	-0.191826	0.974113	-0.119612	-0.898967	-0.125499	0.419652
64899	11.386759	-4.058843	12.904000	0.797584	0.496388	0.798715	0.396610	0.196523	0.896704	-0.202248	0.971520	-0.123466	-0.895431	-0.132389	0.425061
64900	9.185025	-4.222190	12.837528	0.837197	0.597659	0.967051	0.399891	0.206755	0.892939	-0.213642	0.968417	-0.128555	-0.891316	-0.139361	0.431433
64901	7.116398	-2.938790	12.277555	1.030395	0.600214	0.970768	0.403043	0.217100	0.889058	-0.226822	0.964843	-0.132780	-0.886628	-0.148142	0.438116
64902	6.457680	-0.257393	11.758255	1.428112	0.612878	0.822068	0.406480	0.226000	0.885267	-0.242833	0.960799	-0.133783	-0.880799	-0.160592	0.445426
64903	6.393821	3.064864	11.580481	1.607465	0.647233	0.614074	0.410572	0.233076	0.881536	-0.259576	0.956653	-0.132041	-0.874100	-0.174613	0.453276
64904	7.039716	5.466592	11.272237	1.438102	0.696148	0.378191	0.415576	0.237982	0.877873	-0.273723	0.953144	-0.128810	-0.867394	-0.186764	0.461245
64905	6.930518	6.326434	11.502604	1.049473	0.752090	0.204618	0.421468	0.241457	0.874107	-0.283768	0.950610	-0.125765	-0.861302	-0.195038	0.469169
64906	5.538622	5.719351	10.679654	0.603041	0.534185	0.113865	0.425682	0.243628	0.871459	-0.289495	0.949123	-0.123931	-0.857314	-0.199528	0.474554
64907	4.389588	4.007990	7.810553	0.147853	0.034528	0.097207	0.425665	0.244694	0.871168	-0.291278	0.948554	-0.124108	-0.856718	-0.200923	0.475040
64908	5.098384	1.400030	3.960938	-0.373547	-0.460505	0.168226	0.421175	0.245406	0.873148	-0.288847	0.948866	-0.127359	-0.859755	-0.198565	0.470524
64909	6.774727	-1.118759	0.605121	-0.739043	-0.675678	0.269304	0.414552	0.246705	0.875947	-0.283694	0.949620	-0.133193	-0.864676	-0.193285	0.463656
64910	7.861395	-2.366166	-3.198454	-0.967163	-0.787682	0.269450	0.406914	0.247807	0.879211	-0.276471	0.950767	-0.140020	-0.870623	-0.186101	0.455392
64911	9.263080	-2.428380	-4.635203	-1.011861	-0.871765	0.260762	0.398557	0.248762	0.882762	-0.268772	0.951935	-0.146907	-0.876877	-0.178711	0.446261
64912	11.961394	-2.232626	-2.604106	-0.710856	-0.830070	0.257039	0.390523	0.249783	0.886059	-0.263597	0.952527	-0.152342	-0.882048	-0.174069	0.437826
64913	13.724962	-1.961264	-1.379565	-0.427912	-0.693405	0.222817	0.383777	0.250766	0.888725	-0.260764	0.952681	-0.156207	-0.885843	-0.171799	0.431008
64914	13.581874	-1.875991	-0.286743	-0.132761	-0.651570	0.118507	0.377638	0.250811	0.891338	-0.260099	0.952592	-0.157850	-0.888672	-0.172226	0.424970
64915	12.887607	-1.580000	2.732856	0.142324	-0.589283	0.053760	0.372220	0.250352	0.893743	-0.261646	0.952184	-0.157754	-0.890502	-0.175125	0.419925
64916	10.619035	-1.525360	4.081945	0.095767	-0.638830	0.101952	0.366207	0.250233	0.896257	-0.262938	0.951740	-0.158288	-0.892612	-0.177693	0.414329
64917	10.416065	-1.061801	1.344638	-0.127250	-0.904380	0.143181	0.357705	0.250032	0.899739	-0.262393	0.951583	-0.160121	-0.896212	-0.178809	0.405993
64918	11.542289	-0.398686	-0.173992	-0.011501	-1.027044	0.114971	0.348130	0.249314	0.903686	-0.262757	0.951296	-0.161226	-0.899869	-0.181322	0.396684
64919	11.862898	0.203104	-0.535417	0.219201	-1.038461	0.052406	0.338594	0.247946	0.907677	-0.264981	0.950741	-0.160863	-0.902851	-0.186049	0.387616
64920	11.903466	0.472821	-0.827049	0.341829	-1.040006	0.012070	0.329108	0.246132	0.911651	-0.268172	0.950044	-0.159687	-0.905412	-0.191925	0.378673
64921	11.657931	1.112551	-1.013952	0.256472	-1.047013	-0.037246	0.319675	0.243772	0.915632	-0.270432	0.949618	-0.158404	-0.908116	-0.196979	0.369493
64922	11.158471	1.331132	-0.501348	0.042227	-1.080636	-0.084161	0.310021	0.240863	0.919713	-0.270611	0.949717	-0.157502	-0.911404	-0.200056	0.359613
64923	10.486177	0.376814	-0.188557	-0.196188	-1.134623	-0.076061	0.299823	0.237883	0.923860	-0.268628	0.950279	-0.157507	-0.915393	-0.200951	0.348818
64924	10.065917	-1.160792	-0.256226	-0.301971	-1.161611	-0.011235	0.289144	0.235478	0.927872	-0.265884	0.950892	-0.158465	-0.919620	-0.200887	0.337554
64925	9.627040	-2.151684	0.501167	-0.237316	-1.146984	0.098865	0.278271	0.234122	0.931532	-0.264010	0.951126	-0.160180	-0.923506	-0.201360	0.326482
64926	9.364667	-2.654425	1.423425	-0.096632	-1.088942	0.221688	0.267561	0.234064	0.934679	-0.263780	0.950782	-0.162587	-0.926732	-0.203047	0.316133
64927	9.081465	-2.725768	2.133737	0.051120	-1.018468	0.309065	0.257250	0.234930	0.937353	-0.265097	0.949942	-0.165331	-0.929272	-0.205959	0.306652
64928	8.896321	-2.394199	2.798858	0.154422	-0.962824	0.366440	0.247265	0.236443	0.939657	-0.267516	0.948736	-0.168332	-0.931287	-0.209751	0.297842
64929	8.940849	-2.076050	2.993391	0.231814	-0.916705	0.403506	0.237591	0.238339	0.941671	-0.270690	0.947274	-0.171460	-0.932887	-0.214164	0.289580
64930	9.028040	-1.860447	3.361728	0.253359	-0.852152	0.382429	0.228542	0.240149	0.943449	-0.274004	0.945789	-0.174370	-0.934179	-0.218658	0.281955
64931	8.782886	-1.743480	3.449305	0.199049	-0.792536	0.335660	0.220165	0.241589	0.945072	-0.276653	0.944528	-0.177001	-0.935409	-0.222488	0.274789
64932	8.499322	-1.669297	3.179881	0.088171	-0.739747	0.245034	0.212509	0.242281	0.946647	-0.278065	0.943716	-0.179110	-0.936760	-0.225167	0.267918
64933	8.600736	-1.630763	2.988436	0.065925	-0.699986	0.150267	0.205484	0.242131	0.948235	-0.279033	0.943189	-0.180375	-0.938039	-0.227525	0.261373
64934	8.737858	-1.692724	3.041288	0.048707	-0.656421	0.078164	0.199052	0.241402	0.949791	-0.279705	0.942866	-0.181023	-0.939225	-0.229628	0.255200
64935	9.017027	-2.026640	2.625448	0.019680	-0.639442	0.029365	0.192916	0.240221	0.951355	-0.279984	0.942736	-0.181270	-0.940422	-0.231394	0.249127
64936	9.433019	-2.540743	2.058963	-0.010494	-0.623625	0.020213	0.186938	0.238998	0.952856	-0.279979	0.942689	-0.181520	-0.941629	-0.232846	0.243139
64937	9.671583	-2.815644	1.825439	0.038797	-0.641967	0.051474	0.180701	0.238001	0.954307	-0.280477	0.942460	-0.181937	-0.942698	-0.234785	0.237057
64938	9.987366	-2.800545	1.593412	0.041237	-0.671826	0.084930	0.174073	0.237251	0.955725	-0.281071	0.942139	-0.182685	-0.943768	-0.236827	0.230685
64939	10.119449	-2.620999	1.210951	0.005526	-0.680296	0.113744	0.167282	0.236726	0.957067	-0.281357	0.941840	-0.183782	-0.944910	-0.238534	0.224158
64940	9.891306	-2.381600	0.887282	-0.055039	-0.680937	0.131544	0.160421	0.236370	0.958329	-0.281107	0.941637	-0.185197	-0.946173	-0.239683	0.217504
64941	9.711342	-2.165789	0.475224	-0.153484	-0.677309	0.126819	0.153604	0.235961	0.959546	-0.279892	0.941690	-0.186765	-0.947664	-0.239881	0.210691
64942	9.823695	-2.097037	0.164403	-0.219179	-0.683326	0.095563	0.146804	0.235257	0.960782	-0.278011	0.941967	-0.188171	-0.949294	-0.239484	0.203688
64943	9.779326	-2.235619	0.127365	-0.238117	-0.685983	0.055087	0.140085	0.234156	0.962054	-0.275865	0.942391	-0.189201	-0.950934	-0.238893	0.196610
64944	9.695440	-2.367617	0.269274	-0.209162	-0.703904	0.009613	0.133306	0.232599	0.963393	-0.273941	0.942846	-0.189733	-0.952463	-0.238621	0.189406
64945	9.822442	-2.399614	0.518475	-0.132548	-0.714384	-0.024422	0.126514	0.230683	0.964769	-0.272683	0.943203	-0.189768	-0.953749	-0.239068	0.182232
64946	9.777073	-2.324800	0.908182	-0.034276	-0.703697	-0.035060	0.119842	0.228699	0.966092	-0.272366	0.943343	-0.189527	-0.954701	-0.240417	0.175342
64947	9.813384	-2.063003	1.308713	0.052730	-0.690614	-0.026554	0.113268	0.226802	0.967332	-0.272875	0.943260	-0.189206	-0.955358	-0.242530	0.168730
64948	9.770372	-1.567056	1.669123	0.067336	-0.670716	-0.015337	0.106847	0.225057	0.968469	-0.273555	0.943108	-0.188983	-0.955904	-0.244737	0.162334
64949	9.761943	-1.111770	1.889134	0.001201	-0.652602	-0.011644	0.100588	0.223365	0.969531	-0.273590	0.943116	-0.188895	-0.956572	-0.246253	0.155976
64950	9.957165	-1.025335	2.049446	-0.125590	-0.617093	-0.031595	0.094715	0.221580	0.970531	-0.272409	0.943473	-0.188818	-0.957508	-0.246498	0.149721
64951	9.585195	-1.166582	1.906786	-0.242367	-0.549039	-0.059656	0.089566	0.219686	0.971450	-0.270065	0.944186	-0.188621	-0.958667	-0.245461	0.143896
64952	9.300092	-1.634055	1.903303	-0.295249	-0.516179	-0.086561	0.084794	0.217639	0.972339	-0.267209	0.945075	-0.188234	-0.959901	-0.243857	0.138292
64953	9.166916	-2.211487	2.082546	-0.296754	-0.472748	-0.109847	0.080495	0.215471	0.973187	-0.264300	0.946020	-0.187594	-0.961075	-0.242113	0.133099
64954	9.193977	-2.781127	2.006303	-0.302288	-0.447985	-0.114955	0.076437	0.213336	0.973984	-0.261355	0.946973	-0.186909	-0.962212	-0.240269	0.128140
64955	9.619508	-2.963760	1.832617	-0.251497	-0.421111	-0.122023	0.072650	0.211193	0.974741	-0.258878	0.947820	-0.186065	-0.963174	-0.238821	0.123532
64956	9.561516	-2.646059	1.706515	-0.181164	-0.392545	-0.099741	0.069073	0.209345	0.975399	-0.257113	0.948440	-0.185352	-0.963910	-0.237985	0.119337
64957	9.367665	-1.940910	1.515967	-0.148046	-0.388277	-0.096291	0.065526	0.207533	0.976031	-0.255659	0.948976	-0.184617	-0.964544	-0.237434	0.115240
64958	9.265290	-1.483437	1.549714	-0.185654	-0.388227	-0.118804	0.062030	0.205519	0.976685	-0.253842	0.949640	-0.183707	-0.965255	-0.236529	0.111075
64959	8.887086	-1.418794	1.344125	-0.322051	-0.422879	-0.128571	0.058220	0.203327	0.977378	-0.250693	0.950645	-0.182832	-0.966314	-0.234378	0.106320
64960	8.633183	-1.814768	1.204058	-0.437963	-0.491133	-0.136966	0.053759	0.200915	0.978132	-0.246432	0.951920	-0.181987	-0.967668	-0.231260	0.100686
64961	8.354150	-2.472876	1.177904	-0.492030	-0.545365	-0.139402	0.048769	0.198361	0.978915	-0.241634	0.953312	-0.181135	-0.969141	-0.227706	0.094423
64962	8.574179	-3.296104	1.131273	-0.492419	-0.618602	-0.121865	0.043009	0.195835	0.979693	-0.236853	0.954644	-0.180430	-0.970593	-0.224283	0.087442
64963	9.277475	-3.961734	0.994230	-0.464546	-0.655479	-0.112471	0.036856	0.193330	0.980441	-0.232338	0.955881	-0.179753	-0.971937	-0.221169	0.080148
64964	9.578595	-4.190676	0.611357	-0.370678	-0.667800	-0.090246	0.030518	0.191033	0.981109	-0.228753	0.956850	-0.179194	-0.973006	-0.218963	0.072901
64965	10.061451	-3.452954	0.534354	-0.225521	-0.662166	-0.096633	0.024242	0.188696	0.981736	-0.226580	0.957507	-0.178443	-0.973691	-0.218116	0.065967
64966	10.056436	-2.309399	0.839574	-0.101477	-0.629645	-0.118627	0.018327	0.186221	0.982337	-0.225616	0.957931	-0.177385	-0.974044	-0.218380	0.059570
64967	10.643399	-1.128444	1.394308	-0.037916	-0.577805	-0.168667	0.013027	0.183377	0.982956	-0.225272	0.958305	-0.175793	-0.974209	-0.219142	0.053794
64968	10.378859	-0.296940	2.093521	-0.056284	-0.504655	-0.192221	0.008491	0.180463	0.983545	-0.224752	0.958759	-0.173975	-0.974379	-0.219576	0.048701
64969	9.785264	-0.187473	2.757732	-0.091568	-0.469272	-0.197541	0.004312	0.177574	0.984098	-0.223895	0.959295	-0.172117	-0.974604	-0.219593	0.043894
64970	9.734671	-0.344905	3.584830	-0.107201	-0.415362	-0.194999	0.000647	0.174826	0.984599	-0.222894	0.959855	-0.170286	-0.974842	-0.219351	0.039589
64971	9.152303	-0.837041	4.480826	-0.163753	-0.352294	-0.177159	-0.002442	0.172388	0.985026	-0.221346	0.960503	-0.168645	-0.975192	-0.218443	0.035812
64972	8.855494	-1.406982	5.189375	-0.270036	-0.291528	-0.156576	-0.004992	0.170285	0.985382	-0.218766	0.961339	-0.167238	-0.975765	-0.216403	0.032453
64973	8.354940	-1.876081	5.308625	-0.435811	-0.216413	-0.132178	-0.006862	0.168585	0.985663	-0.214568	0.962479	-0.166114	-0.976685	-0.212632	0.029568
64974	8.096955	-2.047655	4.654202	-0.689362	-0.197650	-0.154092	-0.008520	0.166723	0.985967	-0.207890	0.964164	-0.164832	-0.978115	-0.206377	0.026446
64975	8.557680	-1.803636	3.733943	-0.915892	-0.217878	-0.220853	-0.010243	0.164191	0.986375	-0.198999	0.966361	-0.162926	-0.979946	-0.197957	0.022775
64976	8.859887	-1.426529	2.686982	-1.134189	-0.233152	-0.307629	-0.011986	0.160801	0.986914	-0.187955	0.969030	-0.160170	-0.982105	-0.187415	0.018609
64977	8.990673	-1.265020	1.738636	-1.308307	-0.264144	-0.402149	-0.013890	0.156463	0.987586	-0.175201	0.972021	-0.156461	-0.984435	-0.175199	0.013911
64978	9.766246	-1.483175	1.344641	-1.375677	-0.254598	-0.492550	-0.015619	0.151276	0.988368	-0.161763	0.975084	-0.151799	-0.986706	-0.162252	0.009241
64979	10.350788	-1.961205	0.745543	-1.416207	-0.233028	-0.553812	-0.017098	0.145550	0.989203	-0.147923	0.978092	-0.146472	-0.988851	-0.148831	0.004807
64980	11.033222	-2.400679	0.580502	-1.316829	-0.198619	-0.585675	-0.018284	0.139570	0.990043	-0.135042	0.980791	-0.140760	-0.990671	-0.136271	0.000915
64981	11.445457	-2.094418	0.670073	-1.155386	-0.159046	-0.580947	-0.019142	0.133706	0.990836	-0.123756	0.983080	-0.135050	-0.992128	-0.125208	-0.002272
64982	11.464404	-1.169556	1.034478	-1.067136	-0.103092	-0.596467	-0.019506	0.127753	0.991614	-0.113326	0.985129	-0.129146	-0.993366	-0.114895	-0.004738
64983	11.203112	-0.192626	1.613138	-1.046062	0.000186	-0.626750	-0.018858	0.121622	0.992397	-0.103111	0.987045	-0.122925	-0.994491	-0.104645	-0.006073
64984	10.947532	0.663171	2.237080	-1.105068	0.090556	-0.678012	-0.017341	0.115055	0.993208	-0.092286	0.988933	-0.116171	-0.995582	-0.093674	-0.006531
64985	10.809156	0.897700	2.804643	-1.259153	0.146592	-0.744679	-0.015268	0.107859	0.994049	-0.079922	0.990852	-0.108740	-0.996684	-0.081106	-0.006508
64986	11.252245	0.743622	3.324464	-1.472879	0.170823	-0.817315	-0.013016	0.099922	0.994910	-0.065398	0.992779	-0.100563	-0.997774	-0.066374	-0.006387
64987	11.747092	0.372958	3.438519	-1.632307	0.245034	-0.906555	-0.010075	0.091102	0.995791	-0.049260	0.994587	-0.091490	-0.998735	-0.049974	-0.005532
64988	11.764089	0.053330	3.338207	-1.644995	0.397665	-1.005932	-0.005732	0.081299	0.996673	-0.032953	0.996133	-0.081444	-0.999440	-0.033310	-0.003031
64989	12.009017	-0.304417	3.591683	-1.485392	0.602769	-1.087313	0.000552	0.070661	0.997500	-0.018182	0.997336	-0.070639	-0.999835	-0.018097	0.001835
64990	11.764651	-0.460836	3.838499	-1.310524	0.870488	-1.143607	0.009346	0.059394	0.998191	-0.005071	0.998224	-0.059349	-0.999943	-0.004507	0.009631
64991	10.772256	-0.532972	4.379227	-1.147871	1.067944	-1.148694	0.020000	0.047954	0.998649	0.006526	0.998822	-0.048093	-0.999779	0.007479	0.019664
64992	10.006293	-0.291856	4.586360	-1.002646	1.135782	-1.113246	0.031183	0.036735	0.998838	0.016783	0.999164	-0.037271	-0.999373	0.017925	0.030540
64993	9.632797	-0.182912	4.084826	-1.058637	1.141009	-1.036889	0.042340	0.026155	0.998761	0.027691	0.999243	-0.027342	-0.998719	0.028814	0.041584
64994	9.251345	-0.122154	2.842887	-1.122497	1.154178	-0.983280	0.053492	0.015980	0.998440	0.039316	0.999063	-0.018096	-0.997794	0.040223	0.052814
64995	9.321343	-1.114477	1.977844	-1.189321	1.140525	-0.920004	0.064440	0.006311	0.997902	0.051669	0.998618	-0.009652	-0.996583	0.052183	0.064025
64996	10.067247	-3.084537	1.435190	-1.284975	1.158605	-0.789084	0.075478	-0.002196	0.997145	0.064964	0.997884	-0.002720	-0.995029	0.064984	0.075461
64997	10.744077	-5.026659	0.593505	-1.074220	1.263379	-0.647592	0.087577	-0.009490	0.996113	0.076116	0.997095	0.002807	-0.993246	0.075574	0.088044
64998	11.531249	-6.314252	0.712502	-0.649664	1.346458	-0.465541	0.100530	-0.015141	0.994819	0.082947	0.996531	0.006785	-0.991470	0.081835	0.101437
64999	11.966266	-7.370487	0.703942	-0.180961	1.424423	-0.239542	0.114437	-0.018635	0.993256	0.084922	0.996348	0.008909	-0.989794	0.083330	0.115602
65000	12.495968	-7.765278	0.322202	0.444869	1.501045	0.021451	0.129264	-0.019587	0.991417	0.080441	0.996717	0.009204	-0.988342	0.078561	0.130415
65001	11.926781	-6.924644	0.786497	1.169393	1.472491	0.288106	0.144022	-0.017694	0.989416	0.068396	0.997627	0.007885	-0.987208	0.066536	0.144890
65002	11.186839	-5.255446	0.683466	1.562485	1.353465	0.435182	0.157600	-0.014094	0.987402	0.052266	0.998616	0.005912	-0.986119	0.050676	0.158119
65003	10.735230	-3.789775	0.180446	1.606113	1.308970	0.459980	0.170698	-0.009951	0.985273	0.035563	0.999360	0.003932	-0.984681	0.034369	0.170943
65004	10.335309	-2.375173	0.030036	1.657700	1.234574	0.434643	0.182922	-0.005880	0.983110	0.018428	0.999827	0.002551	-0.982955	0.017651	0.182998
65005	10.211111	-1.011262	-0.173455	1.674065	1.154704	0.427126	0.194296	-0.001602	0.980942	0.001053	0.999998	0.001425	-0.980942	0.000756	0.194298
65006	10.147737	-0.448155	-0.134569	1.583504	1.135232	0.414792	0.205348	0.002674	0.978685	-0.015349	0.999882	0.000489	-0.978569	-0.015123	0.205365
65007	9.847851	-0.062118	0.218204	1.415046	1.175104	0.393853	0.216732	0.006986	0.976206	-0.030142	0.999546	-0.000462	-0.975766	-0.029325	0.216844
65008	9.393307	0.160532	0.074416	1.180016	1.230952	0.396048	0.228537	0.011423	0.973468	-0.042578	0.999092	-0.001727	-0.972604	-0.041054	0.228816
65009	8.686658	0.550863	-0.224856	1.020500	1.156216	0.442622	0.239538	0.016490	0.970747	-0.053657	0.998553	-0.003723	-0.969403	-0.051195	0.240076
65010	9.133845	1.133565	0.069108	0.856300	1.072715	0.460930	0.249608	0.021730	0.968103	-0.063132	0.997986	-0.006124	-0.966287	-0.059589	0.250477
65011	10.657907	1.486305	0.360850	0.694186	1.074515	0.429180	0.259669	0.026799	0.965326	-0.071051	0.997436	-0.008578	-0.963080	-0.066360	0.260907
65012	11.722387	1.599872	0.502824	0.576366	1.151910	0.407813	0.270396	0.031706	0.962227	-0.077733	0.996913	-0.011005	-0.959606	-0.071821	0.272026
65013	11.676053	1.141716	0.808940	0.431825	1.223429	0.411269	0.281762	0.036812	0.958778	-0.083129	0.996443	-0.013829	-0.955876	-0.075806	0.283820
65014	11.135294	0.579216	1.323869	0.268668	1.261308	0.433710	0.293382	0.042147	0.955066	-0.087000	0.996059	-0.017231	-0.952028	-0.078036	0.295893
65015	10.538704	-0.281689	1.498005	0.132182	1.270860	0.485130	0.305004	0.048077	0.951137	-0.089828	0.995725	-0.021525	-0.948105	-0.078874	0.308019
65016	10.046729	-0.837768	1.694181	0.125658	1.267882	0.543474	0.316460	0.054535	0.947037	-0.092767	0.995340	-0.026317	-0.944059	-0.079526	0.320044
65017	9.755709	-1.190932	1.729261	0.187735	1.266733	0.598917	0.327799	0.061612	0.942736	-0.096586	0.994828	-0.031432	-0.939797	-0.080752	0.332055
65018	9.390760	-1.504872	1.935217	0.276631	1.293249	0.649498	0.339237	0.069171	0.938154	-0.101409	0.994170	-0.036632	-0.935219	-0.082710	0.344274
65019	8.934513	-1.662004	2.005152	0.333741	1.330463	0.694741	0.350895	0.077297	0.933219	-0.107043	0.993366	-0.042030	-0.930276	-0.085147	0.356841
65020	8.346967	-1.428864	1.869419	0.378329	1.337519	0.727164	0.362459	0.085717	0.928050	-0.113210	0.992437	-0.047449	-0.925099	-0.087866	0.369422
65021	8.059986	-0.916381	1.745370	0.392291	1.317443	0.739691	0.373720	0.094339	0.922732	-0.119679	0.991403	-0.052888	-0.919788	-0.090666	0.381797
65022	8.011234	-0.360276	1.651387	0.381252	1.291682	0.740621	0.384612	0.102908	0.917324	-0.126047	0.990313	-0.058247	-0.914432	-0.093224	0.393857
65023	8.001752	-0.162095	1.525564	0.324565	1.280791	0.733383	0.395310	0.111481	0.911758	-0.131994	0.989200	-0.063721	-0.909015	-0.095157	0.405756
65024	7.912356	-0.193951	1.531749	0.259724	1.262051	0.725082	0.405728	0.119900	0.906095	-0.137316	0.988103	-0.069265	-0.903620	-0.096319	0.417365
65025	7.787598	-0.358563	1.442665	0.192863	1.230080	0.719135	0.415770	0.128296	0.900375	-0.142133	0.987002	-0.075006	-0.898295	-0.096788	0.428601
65026	7.646140	-0.545090	1.330891	0.118773	1.185712	0.690983	0.425351	0.136300	0.894706	-0.146168	0.985962	-0.080713	-0.893147	-0.096446	0.439302
65027	7.434779	-0.652740	1.325333	0.087960	1.128493	0.672070	0.434369	0.144113	0.889132	-0.149964	0.984911	-0.086375	-0.888164	-0.095819	0.449426
65028	7.249300	-0.675858	1.313057	0.049616	1.043436	0.648953	0.442584	0.151538	0.883830	-0.153314	0.983893	-0.091922	-0.883524	-0.094821	0.458688
65029	7.033495	-0.519956	1.232210	0.031929	0.941751	0.619807	0.449884	0.158625	0.878887	-0.156484	0.982877	-0.097292	-0.879271	-0.093761	0.467002
65030	7.031664	-0.452338	1.074679	0.025772	0.810651	0.580612	0.456035	0.165127	0.874508	-0.159405	0.981901	-0.102279	-0.875569	-0.092758	0.474103
65031	7.211034	-0.282588	1.063252	0.000268	0.651441	0.520759	0.460850	0.170940	0.870860	-0.161915	0.981000	-0.106876	-0.872583	-0.091752	0.479772
65032	7.434005	-0.241799	0.739262	-0.062328	0.461850	0.436810	0.464120	0.175687	0.868174	-0.163458	0.980287	-0.110991	-0.870560	-0.090397	0.483689
65033	7.622725	-0.234732	0.523138	-0.082579	0.279049	0.365586	0.465903	0.179618	0.866413	-0.164556	0.979686	-0.114612	-0.869399	-0.089175	0.485996
65034	7.652430	-0.281847	0.432609	-0.144315	0.119570	0.330229	0.466355	0.183000	0.865462	-0.164906	0.979202	-0.118190	-0.869091	-0.087602	0.486833
65035	7.428148	-0.500788	0.445554	-0.219756	-0.004386	0.331280	0.465723	0.186333	0.865091	-0.164653	0.978756	-0.122174	-0.869478	-0.085540	0.486510
65036	7.042970	-0.957187	0.609483	-0.251278	-0.108980	0.356652	0.464145	0.189773	0.865191	-0.164190	0.978284	-0.126497	-0.870409	-0.083343	0.485224
65037	6.661991	-1.702976	1.075244	-0.238098	-0.189580	0.372149	0.461833	0.193347	0.865637	-0.163949	0.977743	-0.130917	-0.871683	-0.081459	0.483253
65038	6.666268	-2.204048	1.942349	-0.096174	-0.269221	0.346191	0.458871	0.196555	0.866489	-0.164769	0.977133	-0.134396	-0.873091	-0.081101	0.480764
65039	7.027276	-2.328909	3.257898	0.116572	-0.325147	0.302125	0.455477	0.199331	0.867645	-0.167280	0.976414	-0.136505	-0.874390	-0.082965	0.478078
65040	7.178299	-2.290580	4.588601	0.291173	-0.345241	0.266770	0.451960	0.201685	0.868939	-0.171103	0.975618	-0.137450	-0.875475	-0.086557	0.475449
65041	7.634434	-1.929319	5.757158	0.423080	-0.376176	0.239135	0.448196	0.203777	0.870399	-0.176000	0.974729	-0.137574	-0.876438	-0.091530	0.472735
65042	8.182722	-1.854681	6.900890	0.499448	-0.370008	0.281726	0.444403	0.206214	0.871769	-0.181701	0.973666	-0.137691	-0.877206	-0.097211	0.470170
65043	8.348494	-1.640555	8.046756	0.629645	-0.327913	0.363036	0.440800	0.209513	0.872811	-0.188948	0.972248	-0.137956	-0.877493	-0.104105	0.468154
65044	8.414843	-0.956833	9.894881	0.729052	-0.236825	0.437430	0.437832	0.213547	0.873328	-0.197331	0.970521	-0.138384	-0.877134	-0.111746	0.467064
65045	9.140371	-0.322537	12.697432	0.710903	-0.163368	0.483588	0.435373	0.218145	0.873420	-0.205792	0.968624	-0.139341	-0.876413	-0.119078	0.466605
65046	10.044546	0.049217	13.127752	0.674363	-0.110198	0.533301	0.433242	0.223210	0.873200	-0.214080	0.966605	-0.140870	-0.875484	-0.125904	0.466558
65047	9.346509	-0.158351	13.648796	0.740073	0.061570	0.596811	0.432428	0.229147	0.872065	-0.223252	0.964263	-0.142670	-0.873593	-0.132996	0.468132
65048	7.937649	0.163586	13.151703	0.890026	0.223738	0.599141	0.432963	0.235263	0.870169	-0.233671	0.961634	-0.143726	-0.870598	-0.141105	0.471326
65049	7.467316	1.094544	12.174247	0.995256	0.333098	0.576051	0.434436	0.241373	0.867758	-0.244932	0.958777	-0.144067	-0.866760	-0.149953	0.475647
65050	7.127069	1.765934	10.831859	0.979850	0.337790	0.517540	0.436014	0.246888	0.865412	-0.255722	0.955983	-0.143887	-0.862843	-0.158568	0.479956
65051	7.421521	2.447772	9.454929	0.893732	0.264652	0.370203	0.437292	0.250942	0.863599	-0.265147	0.953571	-0.142825	-0.859344	-0.166525	0.483526
65052	6.978506	2.482591	10.845828	0.834687	0.742136	0.497069	0.442259	0.256971	0.859286	-0.274547	0.950873	-0.143056	-0.853833	-0.172647	0.491083
65053	1.847801	1.816226	8.135290	0.529804	0.266272	0.559477	0.442942	0.262831	0.857160	-0.281647	0.948456	-0.145283	-0.851163	-0.177064	0.494136
65054	1.897278	0.536060	2.098441	0.216457	-0.904249	0.503540	0.433752	0.266018	0.860868	-0.285764	0.946715	-0.148563	-0.854516	-0.181565	0.486658
65055	7.652548	-0.818874	-0.376319	-0.043257	-1.272358	0.406996	0.421650	0.267617	0.866367	-0.287238	0.945671	-0.152319	-0.860062	-0.184628	0.475612
65056	10.532898	-1.887557	-2.090923	-0.159221	-1.083540	0.272032	0.411473	0.268218	0.871062	-0.287061	0.945215	-0.155449	-0.865035	-0.186085	0.465925
65057	10.024475	-2.330656	-3.634671	-0.165280	-1.003386	0.250379	0.402020	0.268783	0.875292	-0.286745	0.944816	-0.158431	-0.869573	-0.187293	0.456907
65058	10.219328	-2.119065	-1.907839	0.112613	-1.037222	0.190199	0.392383	0.268653	0.879694	-0.288544	0.944070	-0.159609	-0.873371	-0.191203	0.447955
65059	13.530896	-1.713633	4.046013	0.375483	-0.719245	0.101704	0.385763	0.268284	0.882729	-0.292316	0.943034	-0.158867	-0.875065	-0.196751	0.442211
65060	14.846535	-2.437379	7.484240	0.499433	-0.405517	0.202530	0.381567	0.269419	0.884206	-0.297525	0.941469	-0.158474	-0.875149	-0.202605	0.439392
65061	11.993507	-1.754153	4.343097	0.611780	-0.743672	0.310574	0.374082	0.270867	0.886958	-0.304146	0.939333	-0.158585	-0.876104	-0.210441	0.433771
65062	11.327942	-0.527802	2.827710	0.676745	-1.147904	0.284521	0.363086	0.271101	0.891444	-0.311193	0.937082	-0.158231	-0.878252	-0.219959	0.424606
65063	11.247622	-0.007579	1.928730	0.393184	-1.297945	0.232242	0.350898	0.270431	0.896514	-0.315567	0.935540	-0.158689	-0.881639	-0.227226	0.413618
65064	10.963952	0.150431	-0.291482	0.132649	-1.202068	0.177114	0.339665	0.269363	0.901150	-0.317411	0.934733	-0.159762	-0.885369	-0.231769	0.402995
65065	10.313217	1.109502	-0.751738	0.277872	-1.090088	0.152794	0.329472	0.268281	0.905248	-0.320461	0.933641	-0.160061	-0.888118	-0.237361	0.393582
65066	10.235820	3.068125	-1.829719	0.272107	-1.094118	0.109507	0.319335	0.266710	0.909335	-0.323297	0.932670	-0.160020	-0.890788	-0.242886	0.384061
65067	10.762405	3.553304	-2.222075	0.004119	-1.153324	-0.000367	0.309001	0.263919	0.913709	-0.323392	0.932637	-0.160020	-0.894391	-0.246040	0.373535
65068	11.514477	2.675806	-2.088565	-0.260180	-1.167787	-0.118603	0.298860	0.259969	0.918204	-0.320759	0.933564	-0.159916	-0.898775	-0.246729	0.362392
65069	11.725991	1.784034	-1.148922	-0.424635	-1.123562	-0.151357	0.289178	0.255802	0.922465	-0.316527	0.934984	-0.160047	-0.903431	-0.245703	0.351345
65070	10.918555	0.652287	-0.460495	-0.479057	-1.097956	-0.080114	0.279432	0.252397	0.926398	-0.312019	0.936337	-0.160990	-0.908054	-0.244068	0.340396
65071	10.163795	-0.524970	0.371294	-0.451834	-1.111557	0.032013	0.269174	0.249994	0.930080	-0.308021	0.937346	-0.162803	-0.912507	-0.242662	0.329313
65072	9.857603	-1.677103	1.009238	-0.417270	-1.085512	0.129962	0.258795	0.248619	0.933388	-0.304607	0.938008	-0.165393	-0.916646	-0.241513	0.318483
65073	9.548949	-2.791134	1.631709	-0.365297	-1.042318	0.186586	0.248613	0.247856	0.936354	-0.301747	0.938418	-0.168285	-0.920402	-0.240704	0.308093
65074	9.386899	-3.568908	1.928989	-0.245758	-1.031670	0.225599	0.238369	0.247522	0.939102	-0.300088	0.938428	-0.171174	-0.923649	-0.241011	0.297971
65075	9.382941	-3.969628	2.109263	-0.153494	-0.998213	0.265814	0.228294	0.247608	0.941580	-0.299313	0.938131	-0.174130	-0.926441	-0.242075	0.288282
65076	9.105133	-4.508888	2.424640	-0.041975	-0.963399	0.283543	0.218455	0.247959	0.943819	-0.299615	0.937507	-0.176952	-0.928713	-0.244126	0.279096
65077	8.917473	-4.683977	1.983825	0.065425	-0.970862	0.244850	0.208647	0.247877	0.946057	-0.300776	0.936727	-0.179098	-0.930591	-0.247183	0.270001
65078	8.484274	-4.214107	0.735868	0.074044	-0.968860	0.169380	0.199059	0.247087	0.948327	-0.301868	0.936099	-0.180538	-0.932336	-0.250331	0.260927
65079	8.685474	-3.167465	1.343968	0.366923	-0.959833	0.080465	0.189812	0.245424	0.950652	-0.305482	0.934957	-0.180378	-0.933087	-0.256169	0.252438
65080	9.506836	-2.459178	1.781454	0.488213	-0.926530	0.009389	0.181083	0.243140	0.952939	-0.310112	0.933642	-0.179287	-0.933295	-0.263051	0.244467
65081	9.848621	-2.182819	1.486027	0.456133	-0.885971	-0.039247	0.172883	0.240431	0.955146	-0.314337	0.932506	-0.177836	-0.933437	-0.269493	0.236791
65082	9.916787	-2.443688	1.512213	0.446843	-0.896754	-0.047523	0.164609	0.237575	0.957320	-0.318483	0.931376	-0.176375	-0.933527	-0.275857	0.228976
65083	10.172540	-2.688668	1.094605	0.425308	-0.890075	-0.038054	0.156367	0.234755	0.959395	-0.322429	0.930262	-0.175076	-0.933589	-0.281961	0.221154
65084	10.400642	-2.644876	0.684387	0.488644	-0.889705	-0.000617	0.148009	0.232243	0.961330	-0.327044	0.928844	-0.174042	-0.933346	-0.288637	0.213431
65085	10.274382	-1.930284	0.718651	0.535162	-0.864657	0.042291	0.139745	0.230127	0.963075	-0.332135	0.927165	-0.173352	-0.932822	-0.295646	0.206000
65086	9.590082	-1.189483	0.745172	0.420395	-0.878063	0.061613	0.131295	0.228107	0.964743	-0.336193	0.925743	-0.173132	-0.932596	-0.301608	0.198233
65087	9.430852	-0.990893	0.802875	0.262062	-0.906530	0.041118	0.122643	0.225747	0.966435	-0.338724	0.924836	-0.173046	-0.932858	-0.306132	0.189891
65088	9.621153	-1.133781	0.992743	0.119386	-0.907867	0.006825	0.114093	0.223048	0.968108	-0.339898	0.924427	-0.172926	-0.933516	-0.309329	0.181284
65089	9.623396	-1.412645	1.040877	0.016193	-0.900212	-0.019108	0.105691	0.220089	0.969737	-0.340060	0.924403	-0.172737	-0.934446	-0.311512	0.172545
65090	9.738267	-1.582807	1.203298	-0.031467	-0.918711	-0.050116	0.097217	0.216787	0.971366	-0.339767	0.924585	-0.172341	-0.935472	-0.313283	0.163542
65091	9.742898	-1.787523	1.392749	-0.089028	-0.925981	-0.076525	0.088750	0.213185	0.972973	-0.338891	0.925013	-0.171764	-0.936630	-0.314488	0.154342
65092	9.433690	-1.940382	1.485540	-0.128236	-0.944528	-0.089330	0.080145	0.209414	0.974537	-0.337665	0.925580	-0.171125	-0.937848	-0.315353	0.144892
65093	9.812516	-1.749681	1.730995	-0.148436	-0.965917	-0.101169	0.071362	0.205441	0.976064	-0.336225	0.926243	-0.170373	-0.939074	-0.316019	0.135173
65094	10.030863	-1.532497	1.797002	-0.181978	-0.909454	-0.129182	0.063194	0.201399	0.977469	-0.334478	0.927056	-0.169388	-0.940282	-0.316238	0.125948
65095	9.664595	-1.520547	1.994866	-0.177230	-0.847922	-0.142723	0.055634	0.197407	0.978742	-0.332755	0.927885	-0.168235	-0.941371	-0.316321	0.117310
65096	10.276187	-1.570549	2.614512	-0.132391	-0.792286	-0.177430	0.048706	0.193283	0.979933	-0.331465	0.928626	-0.166688	-0.942209	-0.316695	0.109296
65097	9.934782	-1.854199	3.096128	-0.073997	-0.629662	-0.177200	0.043300	0.189656	0.980895	-0.330715	0.929184	-0.165059	-0.942737	-0.317250	0.102956
65098	9.066791	-1.692241	2.745467	0.027369	-0.525156	-0.186904	0.038912	0.186280	0.981726	-0.330946	0.929423	-0.163238	-0.942847	-0.318546	0.097815
65099	8.596183	-1.883296	2.585315	-0.039977	-0.513632	-0.203842	0.034686	0.182764	0.982545	-0.330526	0.929910	-0.161305	-0.943159	-0.319161	0.092663
65100	9.338388	-2.458407	2.705690	-0.177021	-0.520399	-0.225046	0.030463	0.179041	0.983370	-0.328831	0.930857	-0.159294	-0.943897	-0.318510	0.087231
65101	9.108341	-2.998692	2.725211	-0.135558	-0.404745	-0.200911	0.027245	0.175902	0.984031	-0.327528	0.931627	-0.157466	-0.944449	-0.318008	0.082995
65102	8.825735	-3.158993	3.395227	0.007685	-0.320714	-0.182394	0.024758	0.173212	0.984573	-0.327602	0.931897	-0.155707	-0.944491	-0.318693	0.079817
65103	9.028571	-3.258253	4.542884	-0.008847	-0.274439	-0.151254	0.022606	0.170952	0.985020	-0.327524	0.932165	-0.154262	-0.944572	-0.319130	0.077064
65104	8.854958	-3.009914	4.033277	-0.099134	-0.258749	-0.108772	0.020462	0.169143	0.985379	-0.326613	0.932642	-0.153308	-0.944937	-0.318700	0.074328
65105	8.863819	-2.217509	2.643071	-0.206005	-0.404948	-0.109255	0.016937	0.166867	0.985834	-0.324694	0.933456	-0.152423	-0.945667	-0.317513	0.069990
65106	8.638950	-1.550752	1.874636	-0.292731	-0.542612	-0.176916	0.012320	0.163527	0.986462	-0.321947	0.934652	-0.150918	-0.946678	-0.315729	0.064162
65107	8.346955	-1.500879	1.524017	-0.461665	-0.714761	-0.246186	0.006283	0.159012	0.987257	-0.317602	0.936474	-0.148812	-0.948203	-0.312619	0.056386
65108	8.942559	-2.129680	1.475887	-0.560617	-0.841160	-0.311861	-0.000773	0.153506	0.988147	-0.312320	0.938680	-0.146066	-0.949977	-0.308731	0.047218
65109	9.274201	-2.955590	1.601977	-0.510970	-0.910499	-0.327368	-0.008466	0.147670	0.989000	-0.307531	0.940717	-0.143094	-0.951500	-0.305360	0.037449
65110	9.721482	-3.183953	1.538256	-0.388573	-0.935964	-0.323645	-0.016442	0.141807	0.989758	-0.303919	0.942346	-0.140063	-0.952556	-0.303109	0.027604
65111	9.578585	-2.336298	1.884649	-0.240251	-0.903882	-0.297355	-0.024204	0.136308	0.990371	-0.301749	0.943460	-0.137226	-0.953080	-0.302165	0.018295
65112	9.098458	-0.929387	2.589829	-0.172967	-0.848454	-0.290932	-0.031470	0.131032	0.990879	-0.300228	0.944349	-0.134414	-0.953348	-0.301720	0.009620
65113	9.391522	0.406038	3.544170	-0.219596	-0.786350	-0.302175	-0.038113	0.125850	0.991317	-0.298300	0.945372	-0.131486	-0.953711	-0.300721	0.001510
65114	9.538045	0.925424	4.263470	-0.398829	-0.658233	-0.326844	-0.043479	0.120820	0.991722	-0.294674	0.946948	-0.128284	-0.954608	-0.297812	-0.005570
65115	9.738570	0.694141	4.864245	-0.579898	-0.546554	-0.344225	-0.047739	0.115984	0.992103	-0.289350	0.949043	-0.124873	-0.956032	-0.293027	-0.011747
65116	10.380634	0.310208	5.777251	-0.703081	-0.427140	-0.391576	-0.050760	0.111057	0.992517	-0.282861	0.951506	-0.120934	-0.957817	-0.286883	-0.016885
65117	10.610301	0.036250	6.703187	-0.830071	-0.264289	-0.454335	-0.052064	0.106022	0.993000	-0.275195	0.954325	-0.116322	-0.959978	-0.279325	-0.020510
65118	10.950847	-0.105693	7.850903	-0.992840	-0.024231	-0.536884	-0.050898	0.100857	0.993598	-0.265973	0.957589	-0.110826	-0.962636	-0.269911	-0.021914
65119	10.814030	0.074178	9.462207	-1.082763	0.304206	-0.603304	-0.046420	0.095920	0.994306	-0.255891	0.961024	-0.104656	-0.965590	-0.259292	-0.020066
65120	9.874977	0.410188	11.290956	-1.038513	0.698385	-0.632233	-0.038132	0.091643	0.995062	-0.246162	0.964237	-0.098237	-0.968478	-0.248693	-0.014209
65121	9.419241	0.582572	13.060453	-0.784681	1.050301	-0.668951	-0.026344	0.087803	0.995789	-0.238840	0.966733	-0.091560	-0.970702	-0.240246	-0.004497
65122	10.817792	2.642224	12.845277	-0.561253	1.238019	-0.691692	-0.012735	0.084080	0.996378	-0.233571	0.968642	-0.084725	-0.972256	-0.233803	0.007303
65123	11.649586	5.328098	7.046153	-1.131059	1.281343	-0.778404	0.001511	0.079503	0.996834	-0.222677	0.971833	-0.077171	-0.974891	-0.221855	0.019172
65124	11.464551	8.495389	2.722207	-2.071057	1.187850	-0.863555	0.014902	0.073636	0.997174	-0.202420	0.976857	-0.069111	-0.979185	-0.200818	0.029462
65125	13.675618	9.279143	1.092581	-2.388519	1.273653	-0.889664	0.029101	0.067370	0.997304	-0.178842	0.981978	-0.061116	-0.983447	-0.176581	0.040625
65126	12.753393	6.901794	1.649478	-2.339309	1.584695	-1.103039	0.046507	0.059161	0.997165	-0.155430	0.986515	-0.051280	-0.986752	-0.152604	0.055076
65127	12.448545	1.769456	1.185566	-2.990173	1.823110	-1.271618	0.066320	0.049117	0.996589	-0.125192	0.991305	-0.040525	-0.989913	-0.122077	0.071892
65128	12.862651	-2.791826	-0.980873	-3.359251	2.151974	-1.221601	0.088921	0.039282	0.995264	-0.091006	0.995363	-0.031155	-0.991872	-0.087805	0.092084
65129	13.504389	-6.094562	-2.856605	-2.897039	2.308319	-0.947199	0.112549	0.031556	0.993145	-0.061352	0.997809	-0.024752	-0.991750	-0.058145	0.114238
65130	14.641198	-8.021071	-3.050464	-2.161327	2.389694	-0.687311	0.136530	0.025863	0.990298	-0.039135	0.999020	-0.020695	-0.989863	-0.035930	0.137408
65131	15.262648	-10.221541	-2.256833	-1.506770	2.335614	-0.351451	0.159733	0.023055	0.986891	-0.023777	0.999527	-0.019502	-0.986874	-0.020350	0.160205
65132	15.256684	-11.847498	-2.165318	-0.720234	2.075413	-0.004671	0.180139	0.023398	0.983363	-0.016731	0.999645	-0.020721	-0.983499	-0.012720	0.180467
65133	14.744303	-11.420433	-3.149729	0.065431	1.798415	0.276066	0.197751	0.026464	0.979895	-0.017982	0.999565	-0.023366	-0.980087	-0.012999	0.198141
65134	13.875500	-9.580640	-3.684223	0.925973	1.555026	0.438852	0.212823	0.031167	0.976594	-0.028001	0.999275	-0.025789	-0.976689	-0.021857	0.213542
65135	13.003695	-6.995390	-3.348830	1.624019	1.413600	0.489646	0.226421	0.036580	0.973342	-0.045024	0.998619	-0.027056	-0.972988	-0.037698	0.227755
65136	11.717783	-4.419708	-2.709243	2.109703	1.370075	0.453305	0.239426	0.041807	0.970014	-0.066623	0.997425	-0.026544	-0.968626	-0.058270	0.241595
65137	10.369640	-1.712382	-1.506197	2.352419	1.286597	0.408445	0.251524	0.046887	0.966715	-0.090483	0.995590	-0.024746	-0.963612	-0.081247	0.254657
65138	9.261579	0.074470	-0.359640	2.321190	1.190103	0.419833	0.262486	0.052207	0.963522	-0.113929	0.993228	-0.022779	-0.958186	-0.103793	0.266656
65139	7.714231	0.978215	-1.166114	1.984459	0.998420	0.456543	0.271442	0.057979	0.960707	-0.134241	0.990707	-0.021861	-0.953047	-0.123033	0.276703
65140	7.183476	1.594789	-2.003798	1.530029	0.799249	0.443969	0.278365	0.063456	0.958377	-0.150072	0.988433	-0.021858	-0.948679	-0.137741	0.284668
65141	7.591815	1.878580	-2.022132	1.452330	0.710632	0.358787	0.284502	0.068132	0.956251	-0.164952	0.986074	-0.021180	-0.944378	-0.151710	0.291779
65142	8.250033	2.484807	-1.090947	1.412434	0.710285	0.259952	0.290700	0.071857	0.954112	-0.179068	0.983643	-0.019523	-0.939909	-0.165176	0.298812
65143	8.418303	2.243984	-1.222838	1.322399	0.730049	0.224055	0.297100	0.075405	0.951864	-0.192240	0.981188	-0.017725	-0.935294	-0.177720	0.306007
65144	8.384596	2.351810	-0.788311	1.011439	0.783007	0.213946	0.303936	0.078969	0.949414	-0.202382	0.979165	-0.016655	-0.930948	-0.187083	0.313586
65145	8.313900	1.992625	-0.610025	0.621595	0.810711	0.237929	0.310946	0.082921	0.946803	-0.208994	0.977769	-0.016995	-0.927164	-0.192591	0.321364
65146	8.454595	1.708562	-0.659292	0.348738	0.810880	0.282578	0.317806	0.087293	0.944129	-0.213172	0.976838	-0.018561	-0.923882	-0.195363	0.329054
65147	8.577732	1.321741	-0.713128	0.185173	0.780672	0.343308	0.324235	0.092252	0.941468	-0.216080	0.976145	-0.021234	-0.920968	-0.196547	0.336434
65148	8.601992	0.804195	-0.830060	0.106406	0.762424	0.393187	0.330344	0.097627	0.938798	-0.218407	0.975548	-0.024596	-0.918244	-0.196915	0.343588
65149	8.378948	0.316463	-0.781372	0.134177	0.753326	0.425861	0.336275	0.103336	0.936077	-0.221149	0.974833	-0.028169	-0.915430	-0.197540	0.350665
65150	8.011549	-0.057641	-0.698966	0.181198	0.724111	0.436099	0.341874	0.109058	0.933396	-0.224346	0.973996	-0.031630	-0.912574	-0.198590	0.357450
65151	7.642015	-0.376123	-0.503663	0.210599	0.666031	0.429831	0.346928	0.114636	0.930860	-0.227834	0.973074	-0.034922	-0.909798	-0.199966	0.363705
65152	7.587949	-0.487051	-0.321429	0.229057	0.585336	0.431870	0.351205	0.120049	0.928570	-0.231485	0.972091	-0.038123	-0.907232	-0.201561	0.369193
65153	7.854197	-0.449991	-0.093659	0.272199	0.518670	0.437190	0.354838	0.125412	0.926478	-0.235582	0.970980	-0.041209	-0.904761	-0.203639	0.374085
65154	8.230457	-0.325095	0.374669	0.318727	0.473808	0.454226	0.357989	0.130828	0.924515	-0.240143	0.969729	-0.044238	-0.902316	-0.206179	0.378570
65155	8.759647	-0.244312	1.259718	0.339903	0.467127	0.488407	0.360964	0.136592	0.922522	-0.245046	0.968347	-0.047495	-0.899809	-0.208917	0.383010
65156	9.243984	0.040315	2.181944	0.382787	0.513452	0.527078	0.364222	0.142809	0.920298	-0.250459	0.966788	-0.050900	-0.897002	-0.211958	0.387894
65157	9.120575	0.017872	2.576002	0.342706	0.555611	0.560827	0.367728	0.149470	0.917843	-0.255663	0.965214	-0.054755	-0.894099	-0.214524	0.393150
65158	8.611772	-0.001413	2.650621	0.210917	0.514340	0.559108	0.370830	0.156007	0.915504	-0.259674	0.963888	-0.059069	-0.891658	-0.215828	0.397950
65159	8.193200	0.283811	2.914930	0.024120	0.411699	0.514813	0.373103	0.161911	0.913553	-0.261884	0.962994	-0.063717	-0.890062	-0.215472	0.401698
65160	8.018663	0.664172	3.047503	-0.089784	0.291859	0.431077	0.374519	0.166725	0.912106	-0.262760	0.962460	-0.068037	-0.889209	-0.214183	0.404268
65161	7.889234	1.006294	2.977700	-0.183765	0.190262	0.314251	0.375334	0.170207	0.911128	-0.262381	0.962298	-0.071680	-0.888977	-0.212159	0.405842
65162	7.846896	1.182730	2.954059	-0.313377	0.138807	0.194185	0.376011	0.172405	0.910435	-0.260387	0.962607	-0.074745	-0.889277	-0.208961	0.406843
65163	7.904404	1.285669	3.130864	-0.483158	0.114288	0.109936	0.376692	0.173748	0.909898	-0.256575	0.963393	-0.077742	-0.890097	-0.204172	0.407481
65164	8.040594	1.068402	3.399032	-0.650695	0.119508	0.058032	0.377560	0.174585	0.909378	-0.251061	0.964581	-0.080946	-0.891301	-0.197747	0.408018
65165	8.311863	0.832782	3.704327	-0.732547	0.128514	0.031094	0.378579	0.175177	0.908840	-0.244712	0.965929	-0.084246	-0.892633	-0.190510	0.408548
65166	9.000762	0.473320	4.677182	-0.724844	0.138708	0.036519	0.379681	0.175828	0.908255	-0.238439	0.967202	-0.087564	-0.893862	-0.183317	0.409152
65167	10.073230	0.001642	6.356668	-0.675004	0.202189	0.074134	0.381266	0.176948	0.907373	-0.232749	0.968268	-0.091026	-0.894687	-0.176485	0.410352
65168	10.470234	-0.899649	6.951206	-0.703426	0.314615	0.132922	0.383727	0.178819	0.905968	-0.227026	0.969230	-0.095147	-0.895105	-0.169168	0.412517
65169	9.816614	-2.012665	6.832740	-0.802230	0.383196	0.218504	0.386623	0.181610	0.904180	-0.220750	0.970142	-0.100467	-0.895429	-0.160755	0.415169
65170	9.226289	-2.692770	7.474057	-0.793130	0.390592	0.316750	0.389383	0.185335	0.902237	-0.214940	0.970786	-0.106653	-0.895646	-0.152398	0.417843
65171	9.229569	-2.977203	8.505775	-0.683164	0.401626	0.420862	0.392040	0.190064	0.900100	-0.210536	0.970994	-0.113335	-0.895533	-0.145071	0.420684
65172	8.891515	-2.860397	8.853072	-0.456849	0.452158	0.512620	0.394966	0.195725	0.897604	-0.208527	0.970640	-0.119894	-0.894717	-0.139821	0.424184
65173	8.281885	-2.560133	9.046977	-0.192527	0.512426	0.591670	0.398269	0.202228	0.894698	-0.209230	0.969709	-0.126046	-0.893087	-0.136998	0.428517
65174	7.848049	-2.014932	9.413502	0.046244	0.573167	0.579999	0.402112	0.208673	0.891494	-0.212028	0.968437	-0.131047	-0.890702	-0.136326	0.433665
65175	7.635727	-1.327188	8.991580	0.232396	0.614971	0.501337	0.406469	0.214425	0.888147	-0.216204	0.967036	-0.134524	-0.887716	-0.137341	0.439430
65176	7.669292	-0.600989	8.328434	0.407825	0.613351	0.445007	0.410882	0.219616	0.884842	-0.221700	0.965488	-0.136684	-0.884322	-0.140008	0.445390
65177	7.843086	0.239939	7.655849	0.583351	0.610034	0.419236	0.415286	0.224588	0.881532	-0.228664	0.963703	-0.137800	-0.880483	-0.144348	0.451567
65178	7.684135	0.855767	7.530638	0.677884	0.715351	0.432458	0.420514	0.229841	0.877690	-0.236489	0.961707	-0.138538	-0.875923	-0.149307	0.458767
65179	6.827046	1.185579	6.888702	0.643029	0.589798	0.406375	0.424661	0.234698	0.874403	-0.243908	0.959763	-0.139154	-0.871879	-0.154181	0.464818
65180	7.328550	1.152118	5.351504	0.563653	0.277987	0.380283	0.426093	0.238819	0.872588	-0.250497	0.957961	-0.139864	-0.869308	-0.158986	0.468004
65181	8.008175	0.579795	3.984155	0.515975	0.051313	0.382901	0.425538	0.242618	0.871811	-0.256687	0.956183	-0.140807	-0.867772	-0.163864	0.469169
65182	8.030671	-0.385953	3.329372	0.461615	-0.089691	0.461874	0.423513	0.246919	0.871589	-0.262715	0.954265	-0.142685	-0.866959	-0.168551	0.469013
65183	7.180339	-1.334524	2.480819	0.406605	-0.286008	0.556329	0.419526	0.251780	0.872127	-0.268660	0.952160	-0.145650	-0.867076	-0.173201	0.467098
65184	6.440632	-2.281765	0.531821	0.284132	-0.574043	0.552628	0.412996	0.256068	0.873993	-0.273490	0.950237	-0.149172	-0.868699	-0.177421	0.462477
65185	6.772657	-2.707547	-1.207480	0.328274	-0.699443	0.427337	0.405703	0.258913	0.876567	-0.278167	0.948522	-0.151422	-0.870648	-0.182400	0.456839
65186	7.014414	-2.436986	-1.649593	0.397099	-0.766876	0.294219	0.398144	0.260318	0.879612	-0.282874	0.947001	-0.152222	-0.872619	-0.188213	0.450679
65187	7.520497	-2.352676	-1.701279	0.379272	-0.865963	0.273817	0.389759	0.261299	0.883069	-0.287340	0.945536	-0.152960	-0.874942	-0.194123	0.443613
65188	8.308545	-2.329990	-1.213411	0.521422	-0.870900	0.286742	0.381249	0.262322	0.886474	-0.293075	0.943732	-0.153222	-0.876787	-0.201388	0.436677
65189	8.215319	-1.961244	1.203294	0.767852	-0.821339	0.222043	0.373342	0.262767	0.889702	-0.300719	0.941540	-0.151887	-0.877601	-0.210845	0.430536
65190	8.735495	-1.581442	2.743186	0.766089	-1.029937	0.204146	0.363623	0.262499	0.893796	-0.308263	0.939327	-0.150461	-0.879063	-0.220813	0.422480
65191	11.430037	-1.367584	3.789090	0.624484	-1.166756	0.261213	0.352495	0.262364	0.898283	-0.314764	0.937208	-0.150217	-0.881290	-0.229796	0.412944
65192	14.051801	-3.053336	7.011474	0.111349	-1.164975	0.400379	0.340890	0.263447	0.902435	-0.317196	0.935873	-0.153390	-0.884975	-0.233960	0.402594
65193	15.671001	-5.706113	7.460848	-0.183822	-1.127045	0.520946	0.329192	0.265718	0.906105	-0.317379	0.934899	-0.158856	-0.889327	-0.235285	0.392094
65194	14.012802	-5.515183	5.470189	0.525115	-1.006527	0.562440	0.318377	0.268596	0.909116	-0.323935	0.932115	-0.161947	-0.890900	-0.242934	0.383772
65195	10.722788	-0.832905	3.386736	1.740122	-1.111485	0.496729	0.306786	0.270452	0.912545	-0.341045	0.926350	-0.159889	-0.888578	-0.262167	0.376428
65196	9.209815	4.772091	2.573761	2.313051	-1.268878	0.407115	0.294052	0.270757	0.916637	-0.362831	0.918870	-0.155022	-0.884244	-0.287000	0.368434
65197	9.650806	9.084926	2.408281	1.779521	-1.235966	0.220624	0.282274	0.269144	0.920805	-0.379239	0.912962	-0.150595	-0.881192	-0.306696	0.359776
65198	9.988729	10.842975	0.870987	0.640068	-0.957165	-0.040146	0.273937	0.265832	0.924279	-0.384826	0.911050	-0.147973	-0.881401	-0.315152	0.351870
65199	8.551707	9.645058	0.277205	-0.402324	-0.793789	-0.205156	0.267671	0.261471	0.927354	-0.380753	0.912840	-0.147478	-0.885087	-0.313617	0.343897
65200	8.413680	5.947292	0.524560	-1.283756	-0.884996	-0.270145	0.260764	0.256295	0.930760	-0.368688	0.917478	-0.149345	-0.892228	-0.304216	0.333738
65201	9.195791	0.600727	0.201345	-2.001651	-0.991471	-0.194623	0.252535	0.251549	0.934317	-0.350244	0.923899	-0.154077	-0.901973	-0.288329	0.321421
65202	9.641991	-4.382548	-0.363689	-2.385616	-1.032676	-0.056673	0.243304	0.248179	0.937662	-0.328515	0.930661	-0.161083	-0.912623	-0.268844	0.307964
65203	9.775183	-8.054559	-0.896058	-2.280081	-1.005830	0.094833	0.233738	0.246438	0.940550	-0.307833	0.936341	-0.168835	-0.922283	-0.250069	0.294720
65204	9.772919	-10.121654	-0.985083	-1.586404	-0.952798	0.244368	0.224129	0.246442	0.942885	-0.293763	0.939583	-0.175749	-0.929231	-0.237595	0.282983
65205	9.627199	-10.291424	-0.812152	-0.507558	-0.889377	0.342752	0.214805	0.247562	0.944760	-0.289814	0.939927	-0.180402	-0.932666	-0.235054	0.273648
65206	9.532119	-8.724856	-0.178105	0.489915	-0.855487	0.365247	0.205703	0.248986	0.946410	-0.295210	0.937828	-0.182564	-0.933026	-0.241835	0.266417
65207	9.569785	-5.763422	0.424360	1.265153	-0.799089	0.305257	0.197282	0.249871	0.947969	-0.307653	0.933903	-0.182137	-0.930822	-0.255713	0.261116
65208	9.730577	-2.588927	1.069632	1.622499	-0.726576	0.216909	0.189794	0.250005	0.949461	-0.323202	0.929049	-0.180023	-0.927102	-0.272700	0.257130
65209	9.720775	-0.137910	1.416435	1.569927	-0.690782	0.126481	0.182927	0.249255	0.951005	-0.338003	0.924305	-0.177242	-0.923196	-0.289020	0.253329
65210	10.016045	1.080201	1.651951	1.241331	-0.696477	0.084462	0.176163	0.248006	0.952607	-0.349651	0.920398	-0.174961	-0.920169	-0.302259	0.248855
65211	9.880439	1.161614	1.954612	0.774662	-0.708069	0.076340	0.169324	0.246548	0.954224	-0.356940	0.917816	-0.173803	-0.918653	-0.311172	0.243411
65212	9.719520	0.330630	1.891993	0.306822	-0.768211	0.067797	0.161968	0.244791	0.955952	-0.359926	0.916660	-0.173747	-0.918814	-0.315930	0.236577
65213	10.125061	-0.407113	1.476829	-0.066877	-0.813656	0.067137	0.154188	0.242836	0.957735	-0.359445	0.916694	-0.174562	-0.920340	-0.317337	0.228629
65214	10.300656	-0.891650	0.977481	-0.309379	-0.794251	0.077590	0.146535	0.241061	0.959384	-0.356764	0.917459	-0.176035	-0.922630	-0.316478	0.220442
65215	10.044080	-1.249659	0.664331	-0.410622	-0.756916	0.085889	0.139180	0.239463	0.960878	-0.353117	0.918536	-0.177763	-0.925169	-0.314561	0.212401
65216	9.777318	-1.568054	0.501692	-0.406598	-0.714293	0.062145	0.132290	0.237825	0.962257	-0.349488	0.919636	-0.179244	-0.927555	-0.312585	0.204775
