// General information: 
//  MT Manager version: 2022.2.0 
//  XDA version: 2022.2.0 build 7381 rev 124627 built on 2023-07-19
// Device information: 
//  DeviceId: 00B4CB9F
//  ProductCode: MTW2-3A7G6
//  Firmware Version: 4.6.0
//  Hardware Version: 2.0.0
// Device settings: 
//  Filter Profile: human(46.1)
//  Option Flags: Orientation Smoother Disabled, Position/Velocity Smoother Disabled, Continuous Zero Rotation Update Disabled, AHS Disabled, ICC Disabled
// Coordinate system: ENU
PacketCounter	Acc_X	Acc_Y	Acc_Z	Gyr_X	Gyr_Y	Gyr_Z	Mat[1][1]	Mat[2][1]	Mat[3][1]	Mat[1][2]	Mat[2][2]	Mat[3][2]	Mat[1][3]	Mat[2][3]	Mat[3][3]
43567	9.479238	-1.029228	-2.327609	0.003893	-0.010111	0.000772	-0.248597	-0.072689	0.965876	-0.618327	0.779471	-0.100484	-0.745568	-0.622207	-0.238720
43568	9.491841	-0.997470	-2.332324	0.003248	-0.011519	-0.001041	-0.248742	-0.072748	0.965834	-0.618340	0.779453	-0.100539	-0.745508	-0.622222	-0.238866
43569	9.477090	-1.008335	-2.316924	-0.001163	-0.006942	-0.001224	-0.248845	-0.072791	0.965804	-0.618344	0.779445	-0.100575	-0.745470	-0.622227	-0.238971
43570	9.455661	-0.980969	-2.318467	0.001134	-0.011686	-0.001812	-0.248982	-0.072870	0.965763	-0.618379	0.779413	-0.100614	-0.745397	-0.622258	-0.239121
43571	9.474998	-0.987211	-2.306125	-0.004040	-0.006097	0.000404	-0.249089	-0.072895	0.965733	-0.618357	0.779424	-0.100659	-0.745378	-0.622241	-0.239221
43572	9.473140	-1.011498	-2.361750	-0.003673	-0.015918	-0.002315	-0.249249	-0.072985	0.965685	-0.618301	0.779466	-0.100676	-0.745371	-0.622178	-0.239408
43573	9.437088	-0.994943	-2.347385	-0.006032	-0.009538	-0.001273	-0.249371	-0.073045	0.965649	-0.618270	0.779488	-0.100700	-0.745357	-0.622143	-0.239543
43574	9.490457	-0.996429	-2.338392	-0.010194	-0.012362	0.000038	-0.249521	-0.073100	0.965606	-0.618175	0.779560	-0.100726	-0.745386	-0.622047	-0.239705
43575	9.475641	-1.007075	-2.323387	-0.010900	-0.012134	-0.001322	-0.249662	-0.073175	0.965564	-0.618106	0.779613	-0.100738	-0.745395	-0.621972	-0.239870
43576	9.473703	-0.985843	-2.312022	-0.010962	-0.010497	-0.000868	-0.249811	-0.073237	0.965521	-0.618049	0.779654	-0.100771	-0.745392	-0.621913	-0.240031
43577	9.476840	-0.981907	-2.270958	-0.011790	-0.006995	-0.001320	-0.249914	-0.073281	0.965491	-0.617974	0.779712	-0.100780	-0.745420	-0.621835	-0.240147
43578	9.481137	-0.935931	-2.347143	-0.015892	-0.011457	-0.000463	-0.250062	-0.073343	0.965448	-0.617868	0.779794	-0.100796	-0.745458	-0.621725	-0.240314
43579	9.412792	-0.944638	-2.341929	-0.022479	-0.005411	-0.000960	-0.250155	-0.073375	0.965421	-0.617713	0.779919	-0.100783	-0.745556	-0.621565	-0.240425
43580	9.451722	-0.956500	-2.316599	-0.023649	-0.011501	-0.005494	-0.250281	-0.073452	0.965383	-0.617497	0.780096	-0.100736	-0.745692	-0.621334	-0.240599
43581	9.415833	-0.984438	-2.369146	-0.024540	-0.006362	-0.005491	-0.250353	-0.073524	0.965359	-0.617338	0.780230	-0.100674	-0.745800	-0.621157	-0.240722
43582	9.383308	-1.008735	-2.379636	-0.021542	-0.010481	-0.008031	-0.250451	-0.073644	0.965324	-0.617221	0.780331	-0.100606	-0.745863	-0.621015	-0.240889
43583	9.383081	-1.052701	-2.448290	-0.014194	-0.017538	-0.009940	-0.250579	-0.073820	0.965278	-0.617150	0.780397	-0.100526	-0.745879	-0.620911	-0.241109
43584	9.399057	-1.015960	-2.411382	0.002636	-0.011138	-0.016544	-0.250629	-0.074004	0.965250	-0.617218	0.780356	-0.100433	-0.745806	-0.620941	-0.241256
43585	9.470531	-1.001373	-2.376480	0.016826	-0.009585	-0.026643	-0.250595	-0.074261	0.965240	-0.617420	0.780217	-0.100268	-0.745651	-0.621085	-0.241369
43586	9.472376	-0.974503	-2.322246	0.020142	-0.001543	-0.035015	-0.250441	-0.074536	0.965258	-0.617671	0.780050	-0.100023	-0.745494	-0.621263	-0.241395
43587	9.552884	-1.062804	-2.348588	0.031075	0.011526	-0.044064	-0.250141	-0.074798	0.965316	-0.618023	0.779809	-0.099724	-0.745303	-0.621533	-0.241289
43588	9.567545	-1.181041	-2.379299	0.029429	0.037159	-0.041917	-0.249668	-0.074866	0.965433	-0.618315	0.779614	-0.099444	-0.745220	-0.621769	-0.240935
43589	9.517226	-1.242262	-2.464847	0.017079	0.044875	-0.039155	-0.249150	-0.074882	0.965566	-0.618550	0.779464	-0.099158	-0.745199	-0.621955	-0.240522
43590	9.555529	-1.168112	-2.526018	0.000584	0.048055	-0.028471	-0.248670	-0.074798	0.965696	-0.618644	0.779418	-0.098933	-0.745281	-0.622023	-0.240091
43591	9.564016	-0.980552	-2.353652	0.000846	0.039795	-0.023675	-0.248286	-0.074725	0.965800	-0.618719	0.779381	-0.098757	-0.745346	-0.622079	-0.239743
43592	9.519024	-0.854642	-2.087534	-0.008172	0.033506	-0.019111	-0.247986	-0.074670	0.965882	-0.618765	0.779362	-0.098614	-0.745408	-0.622109	-0.239474
43593	9.453787	-0.900247	-1.919336	-0.036470	0.032229	-0.019684	-0.247683	-0.074613	0.965964	-0.618552	0.779560	-0.098388	-0.745685	-0.621868	-0.239236
43594	9.256762	-0.945371	-2.053769	-0.097887	0.027976	-0.031270	-0.247350	-0.074680	0.966044	-0.617938	0.780106	-0.097914	-0.746304	-0.621175	-0.239107
43595	9.301218	-0.951570	-2.169793	-0.161859	-0.004854	-0.036665	-0.247219	-0.074986	0.966054	-0.616830	0.781069	-0.097223	-0.747264	-0.619927	-0.239348
43596	9.421560	-0.960270	-2.223378	-0.204416	-0.023883	-0.040193	-0.247206	-0.075454	0.966021	-0.615461	0.782250	-0.096397	-0.748396	-0.618378	-0.239816
43597	9.610158	-0.976755	-2.112511	-0.222294	-0.021107	-0.043109	-0.247158	-0.075912	0.965997	-0.613913	0.783576	-0.095498	-0.749682	-0.616641	-0.240270
43598	9.798005	-1.036382	-1.883557	-0.219186	0.007000	-0.040860	-0.246926	-0.076186	0.966035	-0.612412	0.784853	-0.094640	-0.750985	-0.614980	-0.240457
43599	9.861509	-1.108279	-1.697777	-0.212192	0.045363	-0.041328	-0.246391	-0.076221	0.966169	-0.610929	0.786111	-0.093782	-0.752368	-0.613368	-0.240256
43600	9.961880	-1.241578	-1.591839	-0.205967	0.083852	-0.036046	-0.245590	-0.075992	0.966391	-0.609515	0.787302	-0.092988	-0.753775	-0.611867	-0.239672
43601	9.918951	-1.292755	-1.591333	-0.190813	0.110733	-0.027563	-0.244646	-0.075522	0.966667	-0.608154	0.788433	-0.092315	-0.755181	-0.610467	-0.238816
43602	9.771147	-1.229848	-1.603432	-0.192763	0.121623	-0.023767	-0.243628	-0.074961	0.966967	-0.606783	0.789563	-0.091671	-0.756610	-0.609074	-0.237845
43603	9.679951	-1.166204	-1.563130	-0.198263	0.113205	-0.016298	-0.242731	-0.074390	0.967237	-0.605332	0.790743	-0.091094	-0.758060	-0.607611	-0.236969
43604	9.600071	-1.094236	-1.581472	-0.212449	0.110716	-0.017168	-0.241837	-0.073884	0.967500	-0.603899	0.791909	-0.090477	-0.759487	-0.606153	-0.236131
43605	9.594069	-1.073873	-1.644722	-0.220083	0.103856	-0.017111	-0.241003	-0.073379	0.967746	-0.602278	0.793214	-0.089843	-0.761038	-0.604505	-0.235362
43606	9.533658	-1.007392	-1.650834	-0.222702	0.099030	-0.027798	-0.240114	-0.072992	0.967997	-0.600668	0.794520	-0.089086	-0.762590	-0.602835	-0.234620
43607	9.555984	-0.918501	-1.678437	-0.219526	0.091735	-0.038435	-0.239242	-0.072734	0.968232	-0.599095	0.795799	-0.088250	-0.764100	-0.601176	-0.233963
43608	9.482707	-0.750349	-1.661734	-0.200733	0.083859	-0.042657	-0.238403	-0.072581	0.968450	-0.597757	0.796896	-0.087426	-0.765409	-0.599741	-0.233368
43609	9.473317	-0.729053	-1.542976	-0.195612	0.064765	-0.053905	-0.237644	-0.072611	0.968635	-0.596398	0.798015	-0.086499	-0.766704	-0.598248	-0.232948
43610	9.617642	-0.739475	-1.533807	-0.178888	0.038969	-0.058454	-0.237055	-0.072800	0.968765	-0.595100	0.799083	-0.085571	-0.767894	-0.596796	-0.232750
43611	9.696510	-0.757864	-1.478036	-0.165171	0.049420	-0.055193	-0.236405	-0.072935	0.968913	-0.593972	0.800014	-0.084703	-0.768967	-0.595532	-0.232449
43612	9.717790	-0.734891	-1.405567	-0.162069	0.055357	-0.042711	-0.235756	-0.072953	0.969070	-0.592899	0.800889	-0.083948	-0.769993	-0.594353	-0.232068
43613	9.824385	-0.689743	-1.311238	-0.167242	0.052968	-0.024971	-0.235258	-0.072827	0.969201	-0.591681	0.801850	-0.083369	-0.771082	-0.593071	-0.231732
43614	9.925218	-0.716829	-1.197946	-0.163315	0.075017	-0.019057	-0.234618	-0.072513	0.969379	-0.590469	0.802796	-0.082859	-0.772205	-0.591829	-0.231167
43615	9.995378	-0.725592	-0.981616	-0.154878	0.110552	-0.020431	-0.233702	-0.072011	0.969638	-0.589332	0.803683	-0.082354	-0.773351	-0.590685	-0.230261
43616	9.958959	-0.709852	-0.727828	-0.152910	0.145310	-0.017112	-0.232533	-0.071264	0.969974	-0.588184	0.804570	-0.081894	-0.774576	-0.589566	-0.229005
43617	9.923388	-0.759443	-0.595550	-0.159303	0.175136	-0.014665	-0.231148	-0.070338	0.970373	-0.586995	0.805484	-0.081439	-0.775892	-0.588428	-0.227474
43618	9.846145	-0.821391	-0.317157	-0.170754	0.191168	-0.017162	-0.229631	-0.069321	0.970806	-0.585703	0.806473	-0.080953	-0.777317	-0.587193	-0.225793
43619	9.872966	-1.063838	-0.191611	-0.161269	0.220089	-0.026103	-0.227825	-0.068228	0.971309	-0.584520	0.807387	-0.080388	-0.778738	-0.586064	-0.223823
43620	9.922497	-1.198880	0.002321	-0.141253	0.258666	-0.049741	-0.225561	-0.067102	0.971915	-0.583575	0.808145	-0.079641	-0.780104	-0.585149	-0.221445
43621	10.037626	-1.344976	0.098022	-0.092947	0.286034	-0.070480	-0.222976	-0.065986	0.972588	-0.583019	0.808628	-0.078802	-0.781262	-0.584608	-0.218775
43622	10.486917	-1.045303	0.521855	-0.034770	0.363834	-0.094150	-0.219626	-0.064586	0.973444	-0.582945	0.808772	-0.077862	-0.782265	-0.584565	-0.215278
43623	10.792913	-1.608302	0.772854	-0.026417	0.541500	-0.087713	-0.214934	-0.062117	0.974651	-0.582942	0.808857	-0.077002	-0.783570	-0.584715	-0.210061
43624	10.881230	-1.745423	1.252648	0.086262	0.726600	-0.061404	-0.208923	-0.058319	0.976192	-0.583723	0.808328	-0.076636	-0.784614	-0.585837	-0.202920
43625	10.810998	-1.540746	1.479318	0.167042	0.903343	-0.056198	-0.201561	-0.053460	0.978016	-0.585163	0.807302	-0.076469	-0.785466	-0.587712	-0.194004
43626	10.880788	-1.396309	1.582588	0.254006	1.071697	-0.077541	-0.192730	-0.047745	0.980090	-0.587345	0.805737	-0.076247	-0.786054	-0.590345	-0.183332
43627	10.992859	-1.283189	2.133521	0.389355	1.285985	-0.108833	-0.182039	-0.040992	0.982437	-0.590623	0.803368	-0.075918	-0.786146	-0.594070	-0.170455
43628	11.062668	-0.781733	3.120080	0.502603	1.543757	-0.131530	-0.169173	-0.032779	0.985041	-0.594739	0.800365	-0.075508	-0.785917	-0.598617	-0.154895
43629	11.327307	-0.968971	3.145417	0.587225	1.822353	-0.174029	-0.153876	-0.023200	0.987818	-0.599649	0.796769	-0.074696	-0.785330	-0.603838	-0.136515
43630	10.805678	0.083450	2.882059	0.691000	2.041977	-0.248207	-0.136401	-0.012751	0.990572	-0.605496	0.792477	-0.073175	-0.784072	-0.609768	-0.115816
43631	10.439186	0.253762	1.246300	0.756768	2.002687	-0.360656	-0.118583	-0.003316	0.992939	-0.611898	0.787793	-0.070446	-0.781997	-0.615931	-0.095448
43632	10.155453	0.943278	0.578176	0.822950	1.746097	-0.501197	-0.101940	0.003601	0.994784	-0.618920	0.782654	-0.066257	-0.778811	-0.622446	-0.077555
43633	10.902401	1.041973	0.380244	0.759332	1.457438	-0.677918	-0.086456	0.007436	0.996228	-0.625478	0.777925	-0.060088	-0.775437	-0.628313	-0.062605
43634	12.231542	0.631444	0.360448	0.806217	1.492115	-0.817957	-0.069820	0.010538	0.997504	-0.632469	0.772809	-0.052434	-0.771432	-0.634551	-0.047292
43635	12.628814	0.341290	0.590450	0.818564	1.785118	-0.925203	-0.050262	0.014803	0.998626	-0.639342	0.767688	-0.043559	-0.767278	-0.640653	-0.029122
43636	12.852797	0.184224	0.515444	0.888281	1.948281	-0.941624	-0.029368	0.020178	0.999365	-0.646597	0.762056	-0.034388	-0.762266	-0.647197	-0.009333
43637	12.979465	0.103292	0.485281	0.953063	2.030305	-0.943528	-0.007874	0.026233	0.999625	-0.654031	0.756054	-0.024993	-0.756426	-0.653983	0.011204
43638	12.822183	0.348314	0.375723	0.982413	2.083259	-0.934014	0.013890	0.032922	0.999361	-0.661545	0.749745	-0.015504	-0.749777	-0.660907	0.032194
43639	12.429987	0.645364	0.020797	0.835686	2.023531	-0.884046	0.034816	0.039754	0.998603	-0.667593	0.744499	-0.006363	-0.743712	-0.666439	0.052460
43640	11.820742	0.917389	-0.112257	0.605328	1.898761	-0.833917	0.054410	0.046274	0.997446	-0.671868	0.740667	0.002288	-0.738670	-0.670277	0.071390
43641	11.709800	0.934445	-0.237984	0.340451	1.803064	-0.781388	0.072895	0.052601	0.995952	-0.673904	0.738747	0.010307	-0.735214	-0.671927	0.089299
43642	11.408721	0.609394	-0.308192	0.158343	1.795617	-0.749240	0.091122	0.059157	0.994081	-0.674570	0.737993	0.017917	-0.732565	-0.672210	0.107153
43643	10.966600	0.008337	-0.504175	0.164046	1.743025	-0.715574	0.108635	0.065603	0.991915	-0.675081	0.737314	0.025171	-0.729702	-0.672357	0.124385
43644	10.560429	0.025416	-0.577202	0.231897	1.668043	-0.665450	0.125205	0.071952	0.989518	-0.676087	0.736126	0.032019	-0.726106	-0.673010	0.140812
43645	10.042758	0.498577	-1.001323	0.174623	1.596265	-0.656463	0.141148	0.077872	0.986921	-0.676505	0.735419	0.038725	-0.722785	-0.673123	0.156484
43646	9.636964	0.789902	-1.541357	0.038514	1.504653	-0.660607	0.156404	0.083165	0.984186	-0.675893	0.735609	0.045252	-0.720213	-0.672282	0.171263
43647	9.093778	0.749465	-1.899211	-0.064444	1.475509	-0.660916	0.171419	0.088213	0.981241	-0.674374	0.736585	0.051592	-0.718216	-0.670568	0.185753
43648	8.516847	0.854708	-1.795001	-0.100364	1.444239	-0.635791	0.185996	0.093223	0.978118	-0.672601	0.737762	0.057585	-0.716250	-0.668594	0.199923
43649	8.107536	0.739455	-1.352837	-0.099949	1.371227	-0.591234	0.199716	0.098018	0.974939	-0.670775	0.738971	0.063114	-0.714265	-0.666570	0.213332
43650	8.141760	0.663358	-0.988481	-0.093514	1.263025	-0.549026	0.212353	0.102388	0.971814	-0.669060	0.740070	0.068226	-0.712225	-0.664690	0.225660
43651	8.414329	0.093727	-0.910779	0.021605	1.189170	-0.520855	0.224229	0.106437	0.968707	-0.668107	0.740447	0.073292	-0.709474	-0.663634	0.237141
43652	8.164360	0.057745	-0.593211	0.255343	1.173781	-0.490476	0.235747	0.110623	0.965498	-0.668838	0.739240	0.078613	-0.705038	-0.664295	0.248263
43653	7.771495	0.225351	-0.329431	0.429987	1.099942	-0.487869	0.246680	0.114346	0.962327	-0.670713	0.736903	0.084368	-0.699495	-0.666257	0.258473
43654	7.573063	0.468351	-0.153268	0.525307	0.981400	-0.501790	0.256834	0.117227	0.959320	-0.673156	0.733937	0.090535	-0.693468	-0.669024	0.267412
43655	7.451062	0.730894	0.077922	0.598513	0.881050	-0.512401	0.266313	0.119390	0.956464	-0.675979	0.730505	0.097031	-0.687117	-0.672391	0.275249
43656	7.236778	0.979700	0.366554	0.617630	0.802481	-0.504258	0.275167	0.121143	0.953734	-0.678880	0.726913	0.103535	-0.680739	-0.675960	0.282264
43657	7.022352	1.051159	0.655788	0.593201	0.727960	-0.482058	0.283321	0.122585	0.951158	-0.681586	0.723455	0.109785	-0.674663	-0.679401	0.288522
43658	6.907429	1.080349	0.882896	0.557797	0.609869	-0.428474	0.290295	0.123660	0.948913	-0.684139	0.720157	0.115445	-0.669091	-0.682702	0.293659
43659	6.833160	1.183558	1.030542	0.469946	0.473801	-0.378993	0.295993	0.124182	0.947083	-0.686194	0.717386	0.120393	-0.664474	-0.685519	0.297555
43660	6.928382	1.364175	0.957826	0.337933	0.348327	-0.354154	0.300681	0.124047	0.945623	-0.687418	0.715473	0.124723	-0.661096	-0.687540	0.300401
43661	6.972427	1.657930	0.880775	0.188926	0.239980	-0.339991	0.304545	0.123272	0.944487	-0.687669	0.714568	0.128472	-0.659063	-0.688620	0.302388
43662	6.960803	1.912192	0.903409	0.057732	0.149860	-0.324594	0.307713	0.121993	0.943626	-0.687090	0.714540	0.131681	-0.658195	-0.688876	0.303693
43663	7.022028	2.047043	0.964035	-0.061676	0.056295	-0.305402	0.310121	0.120202	0.943067	-0.685774	0.715309	0.134340	-0.658437	-0.688393	0.304264
43664	7.016113	2.074462	1.128582	-0.151555	-0.039629	-0.289495	0.311792	0.117861	0.942812	-0.683906	0.716672	0.136579	-0.659589	-0.687380	0.304058
43665	7.136872	2.058861	1.281374	-0.242919	-0.165894	-0.271046	0.312488	0.114782	0.942962	-0.681489	0.718630	0.138364	-0.661758	-0.685855	0.302785
43666	7.131980	2.033940	1.567627	-0.300903	-0.275597	-0.234001	0.312202	0.111212	0.943484	-0.678791	0.720933	0.139635	-0.664660	-0.684023	0.300566
43667	7.418226	2.043599	1.902614	-0.394924	-0.382674	-0.208779	0.311007	0.107096	0.944354	-0.675541	0.723833	0.140391	-0.668520	-0.681613	0.297464
43668	7.788513	1.984564	2.297810	-0.439181	-0.454080	-0.175070	0.309092	0.102737	0.945467	-0.672080	0.726984	0.140720	-0.672882	-0.678925	0.293752
43669	8.150913	1.891642	2.826483	-0.450951	-0.491808	-0.132424	0.306601	0.098445	0.946734	-0.668661	0.730149	0.140623	-0.677413	-0.676159	0.289691
43670	8.508084	1.831664	3.466059	-0.422969	-0.495412	-0.077311	0.303701	0.094536	0.948066	-0.665577	0.733059	0.140113	-0.681742	-0.673563	0.285552
43671	8.822301	1.810504	4.292902	-0.405137	-0.494395	-0.002988	0.300282	0.091196	0.949481	-0.662831	0.735762	0.138957	-0.685920	-0.671072	0.281383
43672	9.151124	1.966532	5.099598	-0.427474	-0.467841	0.081477	0.296476	0.088665	0.950916	-0.660159	0.738533	0.136962	-0.690139	-0.668362	0.277490
43673	9.329751	2.149135	5.854360	-0.485709	-0.436582	0.151743	0.292395	0.086883	0.952343	-0.657276	0.741615	0.134144	-0.694617	-0.665175	0.273951
43674	9.640070	2.220474	6.432370	-0.548463	-0.411308	0.201125	0.288163	0.085654	0.953743	-0.654065	0.745060	0.130706	-0.699400	-0.661475	0.270722
43675	9.856098	2.412191	6.744619	-0.634454	-0.384682	0.244559	0.283809	0.084952	0.955110	-0.650344	0.749011	0.126628	-0.704631	-0.657088	0.267824
43676	10.173179	2.607243	7.096976	-0.725160	-0.319042	0.264033	0.279797	0.084855	0.956302	-0.645988	0.753512	0.122144	-0.710221	-0.651935	0.265646
43677	10.320365	2.542010	6.943207	-0.747170	-0.204517	0.262206	0.276593	0.085517	0.957175	-0.641424	0.758117	0.117618	-0.715592	-0.646487	0.264542
43678	10.078235	2.443684	6.777159	-0.699038	-0.040460	0.252571	0.274647	0.087189	0.957584	-0.637134	0.762376	0.113323	-0.720159	-0.641234	0.264936
43679	9.678024	1.891175	6.426135	-0.654365	0.058430	0.267436	0.273312	0.089615	0.957742	-0.633175	0.766297	0.108989	-0.724148	-0.636206	0.266180
43680	9.515445	1.284905	5.992627	-0.594414	0.089574	0.306540	0.271989	0.092553	0.957839	-0.629731	0.769761	0.104440	-0.727641	-0.631587	0.267650
43681	9.354055	0.752002	5.616294	-0.553330	0.133770	0.338775	0.270778	0.096017	0.957841	-0.626649	0.772902	0.099673	-0.730747	-0.627219	0.269454
43682	9.166390	0.245005	5.223078	-0.515241	0.132087	0.396829	0.269228	0.099936	0.957877	-0.623986	0.775707	0.094452	-0.733593	-0.623131	0.271200
43683	8.884135	-0.256636	4.760437	-0.501439	0.088588	0.451123	0.267011	0.104002	0.958065	-0.621543	0.778339	0.088731	-0.736471	-0.619171	0.272467
43684	8.799836	-0.679888	4.446657	-0.473718	0.054386	0.515028	0.264181	0.108377	0.958365	-0.619459	0.780685	0.082475	-0.739242	-0.615456	0.273377
43685	8.939194	-0.690111	4.435661	-0.436758	0.005233	0.586064	0.260536	0.113001	0.958828	-0.617795	0.782694	0.075626	-0.741923	-0.612063	0.273731
43686	10.056561	-0.584199	3.793776	-0.452644	-0.051211	0.662453	0.256032	0.117910	0.959450	-0.616188	0.784658	0.068003	-0.744822	-0.608613	0.273552
43687	11.462073	-0.042174	3.102204	-0.433991	-0.172487	0.734096	0.250167	0.122640	0.960404	-0.614840	0.786386	0.059736	-0.747922	-0.605439	0.272132
43688	13.415785	0.268961	3.476738	-0.368130	-0.214859	0.777665	0.243741	0.127494	0.961424	-0.614052	0.787601	0.051232	-0.750686	-0.602852	0.270259
43689	14.503142	-0.725422	3.710554	-0.084564	0.062734	0.788511	0.239307	0.134092	0.961640	-0.615354	0.787056	0.043385	-0.751047	-0.602132	0.270862
43690	12.185894	-1.393610	3.410820	0.454317	0.482241	0.732742	0.238352	0.142789	0.960625	-0.620560	0.783260	0.037550	-0.747057	-0.605075	0.275300
43691	9.149031	-0.741943	3.674592	1.138880	0.502881	0.559425	0.238530	0.150223	0.959446	-0.630387	0.775478	0.035304	-0.738726	-0.613243	0.279673
43692	7.832422	0.649200	4.330883	1.710425	0.029726	0.396990	0.236177	0.153497	0.959510	-0.643923	0.764231	0.036240	-0.727725	-0.626410	0.279335
43693	8.095780	1.671583	2.835650	1.930780	-0.509680	0.301810	0.230472	0.152561	0.961045	-0.658600	0.751500	0.038645	-0.716330	-0.641851	0.273677
43694	8.041996	2.521472	-0.001159	1.774040	-0.951842	0.248241	0.222009	0.148264	0.963706	-0.671836	0.739565	0.040990	-0.706646	-0.656553	0.263799
43695	7.907797	2.977287	-1.853538	1.380447	-1.250024	0.297264	0.211145	0.142172	0.967060	-0.682219	0.729961	0.041638	-0.699996	-0.668539	0.251120
43696	7.866302	3.350098	-2.395487	0.772219	-1.339688	0.528503	0.198123	0.137030	0.970551	-0.688739	0.723993	0.038376	-0.697414	-0.676060	0.237817
43697	7.419649	3.684878	-2.296654	0.032825	-1.093090	0.881822	0.184347	0.136014	0.973405	-0.690684	0.722541	0.029844	-0.699266	-0.677816	0.227141
43698	6.497015	3.537186	-2.203612	-0.794794	-0.885544	1.129301	0.170307	0.138225	0.975648	-0.687132	0.726333	0.017041	-0.706290	-0.673301	0.218678
43699	7.149206	2.743970	-0.595759	-1.411688	-0.917205	1.135947	0.155958	0.140392	0.977736	-0.678963	0.734166	0.002883	-0.717416	-0.664296	0.209820
43700	9.918449	0.922230	2.104155	-1.627956	-0.884539	1.137207	0.141857	0.142970	0.979508	-0.668901	0.743261	-0.011614	-0.729691	-0.653546	0.201069
43701	11.457185	-0.534281	3.182276	-1.416742	-0.748458	1.152894	0.128635	0.146734	0.980776	-0.660075	0.750758	-0.025748	-0.740104	-0.644074	0.193429
43702	10.267017	-1.468003	1.910096	-1.286057	-0.821310	1.077521	0.115414	0.149612	0.981986	-0.651835	0.757369	-0.038779	-0.749527	-0.635617	0.184934
43703	9.312645	-2.187887	-0.250831	-1.246423	-1.172223	0.887924	0.100763	0.148969	0.983695	-0.643421	0.763893	-0.049775	-0.758852	-0.627914	0.172821
43704	9.887901	-2.474537	-1.660292	-1.108479	-1.287385	0.655604	0.086710	0.145965	0.985482	-0.635602	0.769828	-0.058099	-0.767132	-0.621337	0.159527
43705	10.129600	-2.783818	-1.697978	-0.867613	-1.083918	0.478745	0.075272	0.142965	0.986861	-0.629332	0.774480	-0.064196	-0.773483	-0.616231	0.148269
43706	9.806219	-3.399463	-0.937751	-0.506277	-0.850086	0.373444	0.066295	0.140645	0.987838	-0.625696	0.777041	-0.068641	-0.777245	-0.613536	0.139515
43707	9.089603	-3.698550	-0.142429	-0.084440	-0.759905	0.343902	0.058174	0.138663	0.988630	-0.625279	0.777055	-0.072195	-0.778230	-0.613969	0.131907
43708	8.747899	-4.057065	0.041429	0.271319	-0.834343	0.353180	0.049428	0.136279	0.989437	-0.627608	0.774872	-0.075374	-0.776959	-0.617253	0.123830
43709	8.961248	-4.038500	-0.473012	0.509434	-0.931306	0.414020	0.039538	0.133716	0.990231	-0.631768	0.771131	-0.078905	-0.774148	-0.622476	0.114966
43710	9.491213	-3.294111	-0.791694	0.612003	-0.964074	0.505214	0.028839	0.131585	0.990885	-0.636696	0.766606	-0.083272	-0.770576	-0.628491	0.105888
43711	9.817701	-1.838959	-0.395821	0.553894	-0.963561	0.571713	0.017717	0.129882	0.991371	-0.641111	0.762338	-0.088419	-0.767243	-0.634013	0.096775
43712	9.670138	-0.312700	0.554626	0.205214	-0.933361	0.555789	0.006940	0.128197	0.991724	-0.642781	0.760288	-0.093782	-0.766019	-0.636810	0.087679
43713	9.710615	-0.300165	0.646213	-0.187213	-0.866415	0.435028	-0.002556	0.125998	0.992027	-0.641377	0.760903	-0.098295	-0.767221	-0.636515	0.078868
43714	9.172628	-0.735990	0.597013	-0.477221	-0.951998	0.434189	-0.012703	0.123272	0.992292	-0.637704	0.763364	-0.102996	-0.770177	-0.634097	0.068914
43715	8.812366	-0.982554	0.333676	-0.705157	-1.068067	0.414958	-0.023647	0.119706	0.992528	-0.632204	0.767293	-0.107603	-0.774441	-0.630025	0.057535
43716	8.756647	-1.184634	-0.334425	-0.825951	-1.164421	0.367797	-0.035056	0.115243	0.992719	-0.625706	0.772018	-0.111718	-0.779271	-0.625066	0.045045
43717	8.952141	-1.694414	-0.988929	-0.910652	-1.308510	0.356470	-0.047564	0.109872	0.992807	-0.618459	0.777260	-0.115647	-0.784376	-0.619512	0.030982
43718	9.292907	-2.268542	-1.372981	-0.919605	-1.444841	0.386277	-0.061359	0.103989	0.992684	-0.611033	0.782497	-0.119740	-0.789223	-0.613910	0.015527
43719	9.464045	-2.510530	-1.519990	-0.852872	-1.479481	0.366585	-0.075354	0.097833	0.992346	-0.604053	0.787318	-0.123488	-0.793373	-0.608735	-0.000231
43720	9.066145	-2.762871	-1.751912	-0.716192	-1.448263	0.287964	-0.088649	0.091340	0.991866	-0.598137	0.791373	-0.126336	-0.796475	-0.604472	-0.015521
43721	8.700719	-2.723856	-1.713476	-0.583208	-1.511475	0.244138	-0.102217	0.084176	0.991194	-0.593272	0.794653	-0.128666	-0.798486	-0.601200	-0.031288
43722	8.367703	-2.735310	-1.717354	-0.477962	-1.591850	0.246692	-0.116452	0.076609	0.990237	-0.589198	0.797303	-0.130972	-0.799553	-0.598697	-0.047710
43723	8.770953	-2.305666	-1.524517	-0.392249	-1.696364	0.286186	-0.131758	0.068765	0.988894	-0.585723	0.799419	-0.133630	-0.799730	-0.596825	-0.065052
43724	9.436402	-1.691826	-1.257737	-0.247005	-1.704859	0.222069	-0.146736	0.060391	0.987330	-0.583463	0.800724	-0.135690	-0.798774	-0.595981	-0.082259
43725	9.848602	-1.486134	-0.841837	-0.187434	-1.663047	0.166813	-0.161039	0.051832	0.985586	-0.581726	0.801727	-0.137214	-0.797284	-0.595438	-0.098957
43726	10.202459	-1.686667	-0.818074	-0.105217	-1.623776	0.137589	-0.174827	0.043287	0.983647	-0.580673	0.802268	-0.138510	-0.795145	-0.595392	-0.115122
43727	10.123371	-1.760724	-0.626154	-0.011590	-1.507656	0.156701	-0.187763	0.035576	0.981570	-0.580311	0.802256	-0.140084	-0.792454	-0.595919	-0.129989
43728	9.965047	-1.573077	-0.619013	0.063677	-1.439847	0.166581	-0.200174	0.028345	0.979350	-0.580508	0.801802	-0.141859	-0.789266	-0.596917	-0.144045
43729	9.785421	-1.487665	-0.625899	0.117538	-1.405448	0.134573	-0.212081	0.021037	0.977026	-0.581170	0.801048	-0.143401	-0.785661	-0.598230	-0.157662
43730	9.850977	-1.398207	-0.638365	0.139201	-1.402609	0.115826	-0.223802	0.013580	0.974540	-0.582030	0.800169	-0.144812	-0.781763	-0.599621	-0.171176
43731	9.928845	-1.241138	-0.752904	0.168837	-1.369977	0.106948	-0.235165	0.006222	0.971936	-0.583113	0.799127	-0.146202	-0.777610	-0.601130	-0.184299
43732	9.880164	-1.023854	-0.838823	0.161105	-1.337265	0.107485	-0.246203	-0.000953	0.969218	-0.584129	0.798128	-0.147597	-0.773419	-0.602488	-0.197058
43733	9.718234	-0.862267	-0.844678	0.068728	-1.313538	0.098302	-0.256970	-0.008074	0.966386	-0.584423	0.797701	-0.148738	-0.769685	-0.603000	-0.209704
43734	9.964302	-0.584341	-0.856963	-0.033325	-1.307869	0.111840	-0.267724	-0.015056	0.963378	-0.583901	0.797885	-0.149797	-0.766410	-0.602622	-0.222404
43735	9.627475	-0.209140	-0.394326	-0.286081	-1.337447	0.159636	-0.278949	-0.021812	0.960058	-0.581285	0.799618	-0.150728	-0.764392	-0.600112	-0.235731
43736	9.485640	-0.379051	-0.425371	-0.459088	-1.407953	0.122607	-0.290457	-0.029232	0.956441	-0.577446	0.802374	-0.150839	-0.763014	-0.596106	-0.249935
43737	9.894755	-0.605360	-0.393611	-0.605417	-1.451917	0.079270	-0.302043	-0.037199	0.952568	-0.572603	0.805977	-0.150088	-0.762165	-0.590777	-0.264740
43738	10.162869	-0.958635	-0.190595	-0.758943	-1.453764	0.073698	-0.313587	-0.045119	0.948487	-0.566605	0.810447	-0.148777	-0.761986	-0.584071	-0.279710
43739	10.326237	-1.274030	0.111532	-0.785223	-1.426296	0.077017	-0.324944	-0.052760	0.944260	-0.560383	0.815029	-0.147303	-0.761828	-0.577013	-0.294405
43740	10.591322	-1.548094	0.339422	-0.740552	-1.356791	0.074045	-0.335737	-0.059915	0.940048	-0.554514	0.819298	-0.145825	-0.761443	-0.570228	-0.308292
43741	10.779000	-1.753980	0.505973	-0.655711	-1.269531	0.083310	-0.345915	-0.066417	0.935912	-0.549246	0.823056	-0.144594	-0.760705	-0.564063	-0.321187
43742	10.862249	-1.783078	0.639247	-0.564369	-1.120458	0.103998	-0.355035	-0.071826	0.932090	-0.544612	0.826273	-0.143772	-0.759834	-0.558671	-0.332473
43743	10.802079	-1.747511	0.783791	-0.516743	-0.980665	0.109062	-0.363129	-0.076362	0.928604	-0.540302	0.829215	-0.143095	-0.759086	-0.553688	-0.342371
43744	10.700476	-1.953936	0.778860	-0.504441	-0.856586	0.110178	-0.370252	-0.080137	0.925468	-0.536089	0.832060	-0.142424	-0.758632	-0.548866	-0.351032
43745	10.635235	-2.203677	0.677374	-0.477590	-0.773895	0.091823	-0.376667	-0.083586	0.922570	-0.532129	0.834733	-0.141629	-0.758262	-0.544273	-0.358895
43746	10.513267	-2.464373	0.566499	-0.430797	-0.682419	0.074992	-0.382270	-0.086636	0.919981	-0.528611	0.837102	-0.140817	-0.757918	-0.540142	-0.365796
43747	10.439112	-2.478897	0.459044	-0.411897	-0.631378	0.068905	-0.387472	-0.089440	0.917533	-0.525230	0.839368	-0.139982	-0.757628	-0.536154	-0.372208
43748	10.709600	-2.502834	0.054802	-0.391816	-0.598906	0.059488	-0.392336	-0.092117	0.915198	-0.522071	0.841481	-0.139110	-0.757307	-0.532376	-0.378235
43749	11.160026	-2.104832	-0.228976	-0.357184	-0.531534	0.052478	-0.396689	-0.094478	0.913078	-0.519164	0.843414	-0.138282	-0.757038	-0.528892	-0.383622
43750	11.386261	-1.715438	-0.224913	-0.335975	-0.423308	0.045517	-0.400139	-0.096295	0.911381	-0.516480	0.845195	-0.137457	-0.757058	-0.525712	-0.387930
43751	11.587627	-1.137095	0.150759	-0.320663	-0.340284	0.040512	-0.402978	-0.097719	0.909978	-0.513893	0.846904	-0.136629	-0.757312	-0.522690	-0.391501
43752	11.811158	-0.752817	0.624082	-0.296597	-0.317512	0.001566	-0.405407	-0.099339	0.908723	-0.511694	0.848410	-0.135535	-0.757506	-0.519934	-0.394783
43753	12.661297	-0.766792	1.503772	-0.356690	-0.311760	-0.036563	-0.407637	-0.101248	0.907514	-0.509143	0.850212	-0.133842	-0.758027	-0.516613	-0.398127
43754	13.879001	-1.208679	1.860002	-0.374288	-0.210788	-0.123619	-0.408599	-0.103342	0.906845	-0.506851	0.851978	-0.131284	-0.759045	-0.513277	-0.400497
43755	14.426115	-1.634120	2.260192	-0.248482	0.035946	-0.144165	-0.407650	-0.104369	0.907154	-0.505555	0.853091	-0.129034	-0.760418	-0.511217	-0.400527
43756	14.343408	-1.417722	2.790038	0.015688	0.305815	-0.130945	-0.404650	-0.103894	0.908551	-0.506269	0.852829	-0.127960	-0.761544	-0.511750	-0.397696
43757	14.289473	-0.712987	3.988275	0.484055	0.630143	-0.208899	-0.398843	-0.102415	0.911282	-0.510799	0.850115	-0.128022	-0.761583	-0.516543	-0.391376
43758	14.148788	0.667892	5.124024	1.092423	1.214731	-0.391499	-0.387567	-0.099355	0.916471	-0.520718	0.843971	-0.128711	-0.760687	-0.527107	-0.378832
43759	12.765538	2.742676	4.426594	1.569880	1.741423	-0.573959	-0.371360	-0.094848	0.923632	-0.534830	0.835010	-0.129289	-0.758979	-0.541998	-0.360817
43760	10.939600	4.981711	3.821625	1.600757	1.774704	-0.819300	-0.353466	-0.091858	0.930926	-0.549997	0.825395	-0.127385	-0.756680	-0.557033	-0.342271
43761	11.055635	5.873046	4.421015	1.205189	1.635304	-1.124191	-0.334900	-0.091876	0.937764	-0.562986	0.817567	-0.120957	-0.755572	-0.568457	-0.325528
43762	11.899898	6.145076	4.482983	0.550229	1.863658	-1.341000	-0.313184	-0.092141	0.945212	-0.571576	0.813126	-0.110120	-0.758430	-0.574749	-0.307323
43763	12.853569	4.757606	3.335814	-0.403998	2.098534	-1.445129	-0.288964	-0.091837	0.952925	-0.572855	0.814104	-0.095253	-0.767032	-0.573412	-0.287856
43764	14.095706	1.813383	1.230747	-1.210657	2.304934	-1.410338	-0.263067	-0.090194	0.960552	-0.567446	0.819666	-0.078442	-0.780257	-0.565697	-0.266807
43765	15.438511	0.168233	-1.810412	-1.790419	2.488952	-1.144776	-0.237068	-0.085690	0.967707	-0.556204	0.828663	-0.062881	-0.796515	-0.553149	-0.244110
43766	15.476269	-0.094890	-3.918199	-2.225696	2.613046	-0.795068	-0.211634	-0.078018	0.974230	-0.540106	0.840107	-0.050051	-0.814553	-0.536780	-0.219933
43767	14.827500	-0.557674	-5.228063	-2.521413	2.584793	-0.473653	-0.187884	-0.068386	0.979808	-0.520294	0.853039	-0.040231	-0.833063	-0.517347	-0.195853
43768	15.216391	-1.577488	-6.189831	-2.784585	2.298826	-0.160592	-0.167652	-0.058077	0.984134	-0.497187	0.866995	-0.033534	-0.851292	-0.494921	-0.174228
43769	15.672876	-2.677230	-6.746519	-2.732356	2.311510	0.041445	-0.148035	-0.046515	0.987888	-0.473646	0.880220	-0.029531	-0.868185	-0.472281	-0.152335
43770	14.550376	-3.036453	-7.152930	-2.343982	2.624282	0.101130	-0.125479	-0.033419	0.991533	-0.453049	0.891067	-0.027301	-0.882611	-0.452639	-0.126951
43771	12.892843	-2.476797	-7.689416	-1.856878	2.745381	0.081520	-0.101509	-0.020457	0.994624	-0.436482	0.899336	-0.026049	-0.893969	-0.436779	-0.100220
43772	13.492604	-2.835112	-8.258091	-1.288931	2.717051	-0.204945	-0.076192	-0.010524	0.997038	-0.425156	0.904829	-0.022939	-0.901907	-0.425644	-0.073415
43773	13.364796	-4.895638	-8.274000	-0.451760	2.889119	-0.476040	-0.048120	-0.002569	0.998838	-0.421393	0.906700	-0.017968	-0.905601	-0.421768	-0.044713
43774	13.291088	-4.571847	-6.187864	0.662714	3.212090	-0.549205	-0.016712	0.006166	0.999841	-0.427644	0.903858	-0.012722	-0.903793	-0.427789	-0.012469
43775	13.213592	-3.752235	-4.492077	1.160626	3.445727	-0.471763	0.016333	0.016853	0.999725	-0.438133	0.898875	-0.007995	-0.898762	-0.437882	0.022065
43776	11.723465	-3.450658	-3.577397	1.388581	3.508723	-0.408988	0.049556	0.028828	0.998355	-0.450511	0.892764	-0.003416	-0.891395	-0.449600	0.057229
43777	10.379322	-3.021060	-3.307815	1.203460	3.267175	-0.427308	0.080449	0.039894	0.995960	-0.460945	0.887427	0.001687	-0.883775	-0.459218	0.089781
43778	9.918599	-2.826601	-3.962802	1.219466	2.919894	-0.412416	0.108043	0.049865	0.992895	-0.471370	0.881908	0.007002	-0.875292	-0.468778	0.118789
43779	9.522666	-1.832154	-4.138133	1.361692	2.688957	-0.431498	0.133452	0.058841	0.989307	-0.482734	0.875670	0.013035	-0.865540	-0.479311	0.145265
43780	8.523587	-1.391217	-4.274806	1.488874	2.553893	-0.485387	0.157775	0.067067	0.985195	-0.494923	0.868704	0.020123	-0.854493	-0.490771	0.170253
43781	7.983815	-0.368416	-4.154707	1.686668	2.399089	-0.523670	0.180697	0.074487	0.980714	-0.508377	0.860669	0.028299	-0.841963	-0.503686	0.193388
43782	7.288075	0.115516	-3.979016	1.747522	2.263893	-0.549649	0.202417	0.081403	0.975910	-0.522008	0.852129	0.037193	-0.828574	-0.516962	0.214978
43783	6.679893	0.310385	-4.040103	1.845395	2.097572	-0.551837	0.222511	0.087733	0.970975	-0.536030	0.842908	0.046676	-0.814347	-0.530857	0.234584
43784	5.895512	0.400219	-4.013806	1.851698	1.901371	-0.534028	0.240729	0.093548	0.966074	-0.549819	0.833384	0.056306	-0.799843	-0.544720	0.252054
43785	5.379484	0.615322	-3.868772	1.771518	1.702176	-0.520327	0.257062	0.098635	0.961348	-0.562604	0.824097	0.065886	-0.785746	-0.557795	0.267336
43786	4.803873	0.773617	-4.114555	1.684965	1.519684	-0.482042	0.271607	0.103313	0.956847	-0.574529	0.815033	0.075083	-0.772105	-0.570129	0.280725
43787	4.319819	0.746819	-4.252500	1.527211	1.294232	-0.469447	0.284184	0.106971	0.952784	-0.584956	0.806714	0.083902	-0.759648	-0.581180	0.291828
43788	3.745557	1.114146	-4.379924	1.487271	1.086637	-0.467087	0.295093	0.109647	0.949156	-0.594880	0.798450	0.092711	-0.747689	-0.591992	0.300844
43789	3.347052	1.448785	-4.167356	1.364149	0.847662	-0.482541	0.304220	0.110885	0.946126	-0.603596	0.790816	0.101400	-0.736968	-0.601926	0.307512
43790	3.436276	1.446649	-4.078578	1.244754	0.606482	-0.481180	0.311545	0.110817	0.943747	-0.611288	0.783759	0.109765	-0.727507	-0.611099	0.311917
43791	3.567335	1.745770	-3.735623	1.054968	0.405363	-0.442291	0.317139	0.109867	0.941994	-0.617568	0.777736	0.117206	-0.719745	-0.618915	0.314501
43792	3.574763	2.147703	-3.419263	0.838003	0.245801	-0.368683	0.321146	0.108570	0.940786	-0.622449	0.772889	0.123284	-0.713738	-0.625183	0.315790
43793	3.659589	2.737914	-3.104765	0.594674	0.027127	-0.256002	0.322880	0.106776	0.940397	-0.625893	0.769410	0.127535	-0.709934	-0.629767	0.315258
43794	3.733219	3.510061	-2.778958	0.346014	-0.239472	-0.112045	0.321842	0.104427	0.941017	-0.628030	0.767314	0.129645	-0.708517	-0.632712	0.312537
43795	4.314241	3.945129	-2.548802	0.136585	-0.586715	0.084053	0.317097	0.101364	0.942961	-0.629302	0.766339	0.129243	-0.709527	-0.634390	0.306792
43796	5.000664	3.634572	-2.027289	-0.060167	-0.982136	0.273107	0.308351	0.097236	0.946290	-0.629762	0.766426	0.126456	-0.712965	-0.634930	0.297563
43797	6.092756	2.942974	-1.140982	-0.159096	-1.317981	0.365164	0.296564	0.091676	0.950603	-0.629763	0.767068	0.122494	-0.717947	-0.634982	0.285219
43798	8.379471	2.817585	1.337123	-0.362667	-1.682814	0.431464	0.281666	0.084319	0.955800	-0.628419	0.768972	0.117352	-0.725089	-0.633698	0.269581
43799	12.590980	3.493830	6.668427	-0.850204	-1.725862	0.498061	0.265889	0.077278	0.960901	-0.623609	0.773913	0.110318	-0.735129	-0.628559	0.253967
43800	16.913407	3.204566	13.295000	-1.532250	-0.909235	0.490426	0.256078	0.075436	0.963708	-0.613557	0.783069	0.101739	-0.746975	-0.617343	0.246811
43801	18.102528	0.319940	15.500445	-1.557606	0.457988	0.453739	0.256700	0.081819	0.963022	-0.603054	0.792209	0.093441	-0.755269	-0.604740	0.252702
43802	13.051039	-2.187009	10.983373	0.073727	1.274056	0.410314	0.263788	0.092786	0.960108	-0.604710	0.791382	0.089663	-0.751493	-0.604239	0.264866
43803	9.396817	-0.305947	9.028270	1.330765	0.526694	0.416938	0.265119	0.099288	0.959090	-0.615784	0.782852	0.089176	-0.741971	-0.614235	0.268689
43804	9.322907	1.919809	8.814479	0.933910	-0.344632	0.230557	0.261111	0.098983	0.960220	-0.623341	0.776820	0.089427	-0.737067	-0.621895	0.264537
43805	10.496643	2.132506	7.736890	0.170090	-0.492179	-0.019845	0.257549	0.095774	0.961507	-0.624577	0.775757	0.090027	-0.737274	-0.623721	0.259614
43806	11.065188	2.101603	6.196259	-0.404194	-0.417688	-0.003096	0.254455	0.093182	0.962585	-0.621628	0.778242	0.088988	-0.740832	-0.621013	0.255952
43807	11.836147	1.845008	4.834495	-0.921426	-0.261010	0.188349	0.251291	0.093051	0.963428	-0.615282	0.783734	0.084788	-0.747182	-0.614086	0.254198
43808	12.894594	1.445806	3.852544	-1.218098	0.090900	0.449597	0.249201	0.097178	0.963564	-0.607309	0.790694	0.077321	-0.754370	-0.604450	0.256059
43809	13.417197	2.332286	2.133996	-1.312727	0.276463	0.693052	0.247058	0.104351	0.963366	-0.599112	0.797838	0.067223	-0.761595	-0.593772	0.259630
43810	12.485167	2.357505	-0.981551	-1.292309	-0.188039	0.793964	0.240869	0.109638	0.964345	-0.591201	0.804564	0.056195	-0.769717	-0.583657	0.258613
43811	13.466391	0.642224	-1.639235	-1.042500	-1.036933	0.728084	0.228504	0.109514	0.967364	-0.584874	0.809791	0.046480	-0.778273	-0.576407	0.249093
43812	14.436554	-0.653999	0.541707	-0.325244	-0.514731	0.544840	0.221281	0.110994	0.968873	-0.583604	0.811034	0.040377	-0.781307	-0.574373	0.244243
43813	11.160272	-0.781825	0.135113	0.520555	0.026077	0.308237	0.219620	0.113653	0.968943	-0.588376	0.807665	0.038625	-0.778191	-0.578585	0.244250
43814	7.885974	-1.268595	-1.169348	1.399158	-0.561798	0.163854	0.214266	0.111711	0.970366	-0.599610	0.799273	0.040385	-0.771076	-0.590494	0.238240
43815	6.329939	-0.700769	-1.980850	1.696453	-1.213310	0.266832	0.203281	0.106587	0.973302	-0.613214	0.788816	0.041690	-0.763312	-0.605317	0.225712
43816	4.907149	0.292095	-3.524404	1.136877	-1.373665	0.459069	0.189954	0.101826	0.976498	-0.622808	0.781368	0.039674	-0.758965	-0.615707	0.211842
43817	3.840097	-0.104786	-5.818509	-0.103671	-1.205349	0.593598	0.177032	0.099051	0.979208	-0.623140	0.781388	0.033617	-0.761811	-0.616135	0.200054
43818	3.087195	-1.422122	-8.082098	-0.882314	-1.221374	0.595456	0.163950	0.096243	0.981762	-0.617431	0.786194	0.026037	-0.769350	-0.610440	0.188320
43819	5.641448	-0.748442	-6.254755	-1.039650	-2.025609	0.642935	0.144263	0.089026	0.985526	-0.610404	0.791890	0.017818	-0.778842	-0.604140	0.168583
43820	11.534429	-1.266344	-0.347550	-0.944075	-2.425268	0.877010	0.119894	0.081416	0.989443	-0.604191	0.796803	0.007647	-0.787768	-0.598730	0.144723
43821	15.247122	-2.248206	3.162426	-0.205532	-1.403725	1.041968	0.102464	0.081331	0.991406	-0.603756	0.797163	-0.002997	-0.790557	-0.598261	0.130785
43822	11.938695	-2.509662	0.824622	0.216636	-0.809985	1.098306	0.089370	0.085231	0.992345	-0.606548	0.794930	-0.013650	-0.790008	-0.600685	0.122740
43823	8.958721	-2.063390	-1.595215	0.218494	-1.351260	0.880000	0.073289	0.084093	0.993759	-0.609016	0.792848	-0.022177	-0.789764	-0.603590	0.109321
43824	9.698915	-1.071831	-2.170024	0.135216	-1.676604	0.547486	0.056657	0.078303	0.995318	-0.610467	0.791563	-0.027523	-0.790013	-0.606050	0.092649
43825	9.998592	-0.514191	-1.391438	0.069191	-1.354698	0.282336	0.044169	0.072327	0.996402	-0.611182	0.790910	-0.030318	-0.790257	-0.607644	0.079139
43826	9.566235	-1.190665	-0.289940	0.045283	-1.099068	0.219368	0.034089	0.067389	0.997144	-0.611649	0.790461	-0.032510	-0.790394	-0.608794	0.068164
43827	9.145312	-2.186478	0.717085	0.106493	-1.108206	0.347222	0.023147	0.063388	0.997721	-0.612615	0.789564	-0.035950	-0.790043	-0.610386	0.057108
43828	9.073552	-3.042976	0.813409	0.100317	-1.249552	0.488121	0.010231	0.059615	0.998169	-0.613513	0.788629	-0.040812	-0.789618	-0.611972	0.044643
43829	9.642192	-3.804179	-0.079786	0.061766	-1.440674	0.623201	-0.005027	0.055712	0.998434	-0.614041	0.787871	-0.047054	-0.789258	-0.613316	0.030249
43830	9.697955	-3.892666	-0.520936	0.173468	-1.314046	0.691433	-0.019697	0.053097	0.998395	-0.615352	0.786403	-0.053963	-0.788007	-0.615427	0.017184
43831	9.087636	-2.286228	-0.687936	0.232432	-1.169154	0.652105	-0.032977	0.051021	0.998153	-0.617031	0.784610	-0.060491	-0.786247	-0.617887	0.005607
43832	8.898661	-0.994757	-0.536843	0.099098	-1.247344	0.528932	-0.046102	0.047469	0.997808	-0.617632	0.783708	-0.065820	-0.785115	-0.619312	-0.006812
43833	9.058680	-0.400152	-0.320443	-0.100907	-1.317295	0.426483	-0.059135	0.042666	0.997338	-0.616636	0.784121	-0.070107	-0.785025	-0.619140	-0.020060
43834	9.240485	-0.206916	-0.299603	-0.257950	-1.352394	0.303746	-0.071686	0.036703	0.996752	-0.614440	0.785568	-0.073117	-0.785700	-0.617686	-0.033762
43835	9.649557	-0.222073	-0.373278	-0.378715	-1.431884	0.276503	-0.084698	0.030063	0.995953	-0.611266	0.787791	-0.075763	-0.786880	-0.615209	-0.048348
43836	10.062819	-0.668738	-0.807976	-0.463694	-1.442547	0.291377	-0.097895	0.023527	0.994919	-0.607375	0.790532	-0.078456	-0.788361	-0.611969	-0.063099
43837	10.062113	-0.478665	-0.923209	-0.501129	-1.435889	0.325166	-0.111253	0.017353	0.993641	-0.603099	0.793504	-0.081383	-0.789870	-0.608318	-0.077814
43838	9.427474	-0.918629	-1.276495	-0.626817	-1.409539	0.362518	-0.124636	0.011711	0.992133	-0.597739	0.797225	-0.084501	-0.791943	-0.603569	-0.092363
43839	9.298248	-1.367627	-1.706664	-0.632083	-1.485013	0.330865	-0.138437	0.005440	0.990356	-0.592310	0.800978	-0.087196	-0.793728	-0.598669	-0.107663
43840	9.755450	-1.595456	-1.890242	-0.582235	-1.570903	0.261596	-0.152517	-0.001812	0.988299	-0.587329	0.804422	-0.089164	-0.794848	-0.594056	-0.123752
43841	10.194473	-1.739839	-2.037558	-0.451828	-1.518901	0.210192	-0.165880	-0.009100	0.986104	-0.583419	0.807092	-0.090693	-0.795051	-0.590356	-0.139190
43842	10.727759	-1.492143	-1.998043	-0.267497	-1.397948	0.178558	-0.178088	-0.015878	0.983887	-0.581010	0.808667	-0.092115	-0.794174	-0.588052	-0.153239
43843	10.311458	-1.255361	-1.981370	-0.128788	-1.149510	0.154066	-0.188161	-0.021371	0.981906	-0.579721	0.809436	-0.093474	-0.792792	-0.586819	-0.164693
43844	9.619629	-0.986324	-2.261245	-0.039434	-1.029659	0.154085	-0.197267	-0.026146	0.980001	-0.579134	0.809681	-0.094974	-0.791005	-0.586287	-0.174866
43845	9.192331	-0.874925	-2.365591	-0.024245	-1.104769	0.130575	-0.206808	-0.031550	0.977873	-0.578693	0.809845	-0.096258	-0.788888	-0.585795	-0.185740
43846	9.168490	-0.901456	-2.316274	-0.032364	-1.201466	0.109251	-0.216964	-0.037683	0.975452	-0.578228	0.810050	-0.097319	-0.786498	-0.585148	-0.197541
43847	9.231374	-1.011411	-2.133722	-0.057287	-1.266868	0.081246	-0.227439	-0.044418	0.972779	-0.577611	0.810403	-0.098044	-0.783988	-0.584186	-0.209974
43848	9.066429	-1.276663	-2.198983	-0.060374	-1.295555	0.067599	-0.238029	-0.051416	0.969896	-0.577001	0.810767	-0.098626	-0.781289	-0.583106	-0.222653
43849	8.969522	-1.331370	-2.384179	-0.035000	-1.325202	0.050802	-0.248713	-0.058711	0.966796	-0.576616	0.810984	-0.099088	-0.778239	-0.582115	-0.235556
43850	9.065777	-1.387131	-2.499207	-0.011160	-1.383467	0.038471	-0.259737	-0.066430	0.963392	-0.576450	0.811053	-0.099489	-0.774753	-0.581189	-0.248954
43851	9.532024	-1.366412	-2.218275	-0.052281	-1.486495	0.036971	-0.271497	-0.074745	0.959533	-0.575959	0.811368	-0.099762	-0.771078	-0.579736	-0.263334
43852	9.913517	-1.336025	-1.470116	-0.104638	-1.553628	0.060462	-0.283855	-0.083229	0.955248	-0.575005	0.812002	-0.100116	-0.767331	-0.577690	-0.278348
43853	10.414158	-1.165968	-0.810600	-0.114281	-1.599554	0.085087	-0.296642	-0.091747	0.950571	-0.573892	0.812722	-0.100651	-0.763316	-0.575383	-0.293740
43854	10.695964	-0.812861	0.059527	-0.157783	-1.553765	0.111786	-0.309170	-0.099739	0.945762	-0.572372	0.813714	-0.101295	-0.759476	-0.572645	-0.308664
43855	10.687620	-0.409254	0.959143	-0.176408	-1.471610	0.142764	-0.321192	-0.106968	0.940953	-0.570593	0.814857	-0.102137	-0.755817	-0.569707	-0.322761
43856	10.515262	0.151501	2.011421	-0.213587	-1.392848	0.170576	-0.332720	-0.113472	0.936174	-0.568446	0.816236	-0.103094	-0.752440	-0.566466	-0.336081
43857	10.413704	0.563945	2.688466	-0.325034	-1.304268	0.167794	-0.343524	-0.119447	0.931517	-0.565444	0.818254	-0.103600	-0.749843	-0.562310	-0.348631
43858	10.438252	0.802157	2.993375	-0.450149	-1.134246	0.106439	-0.352667	-0.124905	0.927375	-0.561725	0.820881	-0.103054	-0.748393	-0.557274	-0.359659
43859	10.587113	0.311548	2.535882	-0.597869	-0.943054	0.018092	-0.359881	-0.129967	0.923902	-0.557192	0.824207	-0.101096	-0.748347	-0.551173	-0.369033
43860	10.753859	-1.035250	1.660728	-0.651459	-0.792194	-0.065269	-0.365488	-0.134826	0.921000	-0.552579	0.827665	-0.098122	-0.749050	-0.544787	-0.377003
43861	10.922793	-2.483027	0.774254	-0.579965	-0.715208	-0.110654	-0.370292	-0.139603	0.918365	-0.548645	0.830646	-0.094950	-0.749581	-0.539016	-0.384174
43862	11.241379	-3.588148	0.166507	-0.418501	-0.675147	-0.105108	-0.374809	-0.144077	0.915838	-0.545934	0.832715	-0.092424	-0.749316	-0.534629	-0.390766
43863	11.558413	-3.503992	0.014937	-0.219101	-0.579970	-0.069431	-0.378828	-0.147732	0.913600	-0.544560	0.833773	-0.090980	-0.748294	-0.531976	-0.396306
43864	11.634035	-2.594707	0.214442	-0.095892	-0.405987	-0.051906	-0.381610	-0.150296	0.912023	-0.544082	0.834171	-0.090189	-0.747227	-0.530632	-0.400101
43865	11.432274	-1.297524	0.180298	-0.012775	-0.201934	-0.043422	-0.382936	-0.151713	0.911232	-0.544158	0.834164	-0.089795	-0.746494	-0.530239	-0.401987
43866	11.243424	-0.339914	0.168662	0.012063	-0.122429	-0.071673	-0.383483	-0.152933	0.910798	-0.544570	0.833952	-0.089257	-0.745912	-0.530222	-0.403089
43867	11.751317	-0.032689	0.585911	0.010364	-0.208047	-0.117020	-0.384450	-0.154995	0.910041	-0.545102	0.833708	-0.088286	-0.745025	-0.530007	-0.405007
43868	13.025414	-0.329617	1.560678	-0.049226	-0.323942	-0.187351	-0.385858	-0.158243	0.908885	-0.545508	0.833635	-0.086448	-0.743999	-0.529161	-0.407988
43869	14.255646	-1.075477	2.846873	-0.100668	-0.258847	-0.209402	-0.386695	-0.161341	0.907985	-0.545573	0.833824	-0.084187	-0.743517	-0.527926	-0.410459
43870	14.511586	-1.615410	4.256046	0.043305	0.084518	-0.178186	-0.385103	-0.162349	0.908481	-0.546640	0.833263	-0.082813	-0.743559	-0.528504	-0.409639
43871	14.213876	-1.004680	5.505840	0.463248	0.599626	-0.188448	-0.379666	-0.160716	0.911057	-0.550809	0.830490	-0.083036	-0.743279	-0.533344	-0.403833
43872	13.725474	0.564186	5.725681	1.027441	1.155094	-0.268271	-0.369598	-0.156681	0.915887	-0.559512	0.824478	-0.084742	-0.741851	-0.543770	-0.392391
43873	12.721371	2.719141	5.026653	1.437054	1.741213	-0.410899	-0.354427	-0.150442	0.922902	-0.571653	0.815919	-0.086533	-0.739996	-0.558250	-0.375185
43874	11.371435	5.287738	4.128656	1.594502	2.064213	-0.652746	-0.335385	-0.144007	0.931010	-0.585762	0.805869	-0.086363	-0.737835	-0.574315	-0.354630
43875	10.537489	6.394040	3.487434	1.152723	1.984182	-0.893977	-0.315516	-0.139647	0.938588	-0.597182	0.797900	-0.082034	-0.737444	-0.586391	-0.335145
43876	11.331355	6.670210	3.292582	0.322724	1.912679	-1.149075	-0.294457	-0.137489	0.945723	-0.603143	0.794348	-0.072310	-0.741292	-0.591699	-0.316827
43877	13.304127	4.342784	1.878991	-0.649095	2.023466	-1.296976	-0.271600	-0.135843	0.952775	-0.601981	0.796397	-0.058055	-0.750901	-0.589320	-0.298077
43878	15.353144	1.463536	-0.435327	-1.502856	2.329045	-1.224705	-0.246583	-0.131973	0.960094	-0.593823	0.803495	-0.042065	-0.765879	-0.580498	-0.276497
43879	17.285427	0.698525	-2.982097	-2.249131	2.627275	-0.956909	-0.220653	-0.124646	0.967355	-0.578627	0.815147	-0.026950	-0.785177	-0.565684	-0.251988
43880	17.610626	-0.096583	-5.427888	-2.779949	2.914571	-0.451459	-0.194849	-0.112102	0.974406	-0.557501	0.830023	-0.015990	-0.806986	-0.546348	-0.224226
43881	15.556932	-0.411397	-7.116418	-2.926838	2.797678	-0.095027	-0.171512	-0.097897	0.980306	-0.533760	0.845589	-0.008942	-0.828060	-0.524782	-0.197282
43882	15.564448	-0.991650	-8.832193	-2.719595	2.190280	0.060192	-0.153464	-0.086064	0.984399	-0.510970	0.859587	-0.004506	-0.845789	-0.503690	-0.175891
43883	15.419484	-1.195010	-7.488574	-2.174947	2.221726	0.040611	-0.134775	-0.074690	0.988057	-0.492380	0.870379	-0.001368	-0.859882	-0.486684	-0.154081
43884	13.827475	-1.245584	-7.276234	-1.624468	2.721316	-0.034279	-0.111030	-0.061853	0.991890	-0.478433	0.878123	0.001204	-0.871077	-0.474419	-0.127091
43885	12.117675	0.510840	-6.390232	-1.212391	2.647174	-0.100699	-0.087439	-0.050281	0.994900	-0.467942	0.883752	0.003538	-0.879423	-0.465246	-0.100803
43886	14.312881	-1.503181	-7.724427	-1.054355	2.445935	-0.261002	-0.064618	-0.041254	0.997057	-0.458903	0.888459	0.007019	-0.886133	-0.457099	-0.076342
43887	14.196974	-1.929012	-5.716089	-0.199857	3.046319	-0.383072	-0.035886	-0.030721	0.998884	-0.457346	0.889222	0.010918	-0.888564	-0.456444	-0.045960
43888	13.683124	-3.842970	-5.741686	0.228283	3.448099	-0.414418	-0.003342	-0.018551	0.999822	-0.459528	0.888038	0.014941	-0.888157	-0.459396	-0.011492
43889	12.074163	-2.474755	-4.771653	0.637955	3.599336	-0.319739	0.029990	-0.004717	0.999539	-0.465168	0.885037	0.018134	-0.884714	-0.465497	0.024348
43890	11.296463	-2.237475	-4.669954	0.410245	3.219112	-0.303702	0.059836	0.007708	0.998178	-0.468731	0.883084	0.021279	-0.881312	-0.469151	0.056454
43891	10.365699	-2.696938	-4.455229	0.452136	3.001477	-0.301566	0.087589	0.019206	0.995972	-0.472514	0.880981	0.024566	-0.876960	-0.472762	0.086239
43892	10.083249	-2.599286	-4.421904	0.598597	2.834805	-0.319444	0.113878	0.029933	0.993044	-0.477505	0.878174	0.028288	-0.871218	-0.477404	0.114298
43893	9.131229	-1.950464	-4.425853	0.793003	2.766833	-0.369585	0.139605	0.040007	0.989399	-0.483948	0.874477	0.032925	-0.863889	-0.483414	0.141442
43894	8.101536	-1.816294	-4.439306	0.987665	2.585958	-0.405476	0.163793	0.049139	0.985270	-0.491904	0.869802	0.038395	-0.855104	-0.490947	0.166640
43895	7.423460	-1.280154	-4.405714	1.243880	2.390661	-0.417389	0.186131	0.057392	0.980847	-0.501780	0.863841	0.044675	-0.844732	-0.500484	0.189586
43896	6.918127	-0.912796	-4.208549	1.379083	2.157519	-0.377617	0.206126	0.065124	0.976356	-0.512692	0.857052	0.051072	-0.833462	-0.511097	0.210049
43897	6.313369	-1.187324	-4.227729	1.460307	1.918945	-0.356895	0.223802	0.072012	0.971971	-0.524046	0.849733	0.057709	-0.821760	-0.522272	0.227910
43898	6.137047	-1.350782	-4.355470	1.542577	1.702819	-0.312239	0.239314	0.078431	0.967769	-0.535984	0.841774	0.064321	-0.809599	-0.534102	0.243486
43899	5.659940	-1.302520	-4.697543	1.692695	1.570496	-0.232190	0.253130	0.084993	0.963691	-0.549042	0.832794	0.070767	-0.796541	-0.547020	0.257470
43900	4.966219	-1.211182	-4.870913	1.754570	1.386667	-0.173936	0.265010	0.091292	0.959914	-0.562526	0.823185	0.077011	-0.783157	-0.560385	0.269506
43901	4.512107	-0.828223	-5.059917	1.799035	1.133151	-0.165316	0.274694	0.096382	0.956689	-0.576085	0.813114	0.083493	-0.769850	-0.574069	0.278882
43902	3.792645	-0.212765	-5.160503	1.827411	0.928478	-0.174412	0.282749	0.100424	0.953922	-0.589618	0.802622	0.090271	-0.756573	-0.587974	0.286152
43903	3.270281	0.313477	-4.929123	1.694982	0.670182	-0.222858	0.289051	0.102642	0.951795	-0.601739	0.792750	0.097251	-0.744554	-0.600842	0.290909
43904	3.157399	0.641598	-4.758581	1.473451	0.379470	-0.200416	0.293020	0.103411	0.950497	-0.612117	0.783976	0.103410	-0.734474	-0.612117	0.293021
43905	3.161042	1.136644	-4.622633	1.282277	0.171437	-0.145438	0.295112	0.103345	0.949857	-0.621089	0.776191	0.108517	-0.726056	-0.621970	0.293250
43906	3.062939	2.071535	-4.348658	1.075308	0.047961	-0.061302	0.295786	0.103210	0.949662	-0.628736	0.769481	0.112201	-0.719167	-0.630275	0.292493
43907	2.802438	3.137759	-4.166509	0.719325	-0.108044	0.037498	0.294717	0.102823	0.950036	-0.634040	0.764865	0.113908	-0.714937	-0.635932	0.290613
43908	3.266658	4.080855	-4.097665	0.375354	-0.390670	0.160428	0.290849	0.101584	0.951361	-0.637240	0.762273	0.113423	-0.713675	-0.639234	0.286440
43909	3.767595	4.108754	-3.829917	0.042991	-0.775750	0.344603	0.283050	0.099256	0.953956	-0.638571	0.761628	0.110227	-0.715619	-0.640368	0.278960
43910	4.505532	3.488255	-3.223740	-0.033438	-1.245819	0.515003	0.270761	0.095207	0.957927	-0.639795	0.761315	0.105174	-0.719271	-0.641354	0.267048
43911	6.420828	2.686551	-2.386901	0.063232	-1.685412	0.617566	0.254589	0.089087	0.962937	-0.641907	0.760317	0.099371	-0.723284	-0.643414	0.250754
43912	9.983834	2.808087	0.824984	0.186379	-1.965277	0.667044	0.235987	0.081481	0.968334	-0.644923	0.758526	0.093344	-0.726901	-0.646529	0.231551
43913	15.357579	4.300157	8.441762	0.005228	-1.612707	0.658674	0.219924	0.076047	0.972548	-0.646495	0.757950	0.086926	-0.730533	-0.647865	0.215855
43914	20.285751	5.776874	18.312001	-1.219334	-0.198619	0.517082	0.215085	0.078710	0.973418	-0.638687	0.765376	0.079235	-0.738795	-0.638752	0.214892
43915	15.977587	1.955686	17.190070	-1.622137	1.037737	0.356101	0.220481	0.088023	0.971411	-0.627445	0.775310	0.072158	-0.746794	-0.625417	0.226171
43916	11.923275	-1.633166	12.288635	0.633663	1.224393	0.414199	0.226930	0.098923	0.968874	-0.633118	0.770922	0.069577	-0.740044	-0.629201	0.237575
43917	9.436236	0.370774	11.083927	1.740575	0.547825	0.402177	0.228318	0.105492	0.967854	-0.646839	0.759424	0.069817	-0.727647	-0.641986	0.241627
43918	10.184481	1.540069	10.254237	0.905443	0.017660	0.084689	0.227857	0.106274	0.967877	-0.653639	0.753455	0.071149	-0.721690	-0.648854	0.241145
43919	11.236682	0.466116	9.459893	0.389222	-0.061319	-0.071786	0.227828	0.105344	0.967986	-0.656312	0.750975	0.072744	-0.719270	-0.651874	0.240231
43920	11.696163	0.598705	8.064440	0.154843	-0.032180	0.016130	0.227457	0.105291	0.968079	-0.657513	0.749906	0.072926	-0.718290	-0.653112	0.239802
43921	11.771648	0.264635	5.796010	-0.186753	0.079894	0.183772	0.226766	0.107199	0.968032	-0.656620	0.750905	0.070661	-0.719325	-0.651652	0.240669
43922	11.491111	0.409015	2.968009	-0.377542	0.371960	0.344082	0.227158	0.112246	0.967368	-0.654738	0.752936	0.066381	-0.720915	-0.648451	0.244527
43923	12.382418	2.857828	0.055174	-0.425612	0.189896	0.535379	0.224971	0.117520	0.967252	-0.652907	0.755049	0.060121	-0.723257	-0.645051	0.246593
43924	13.763482	6.127693	-0.256588	-0.687546	-0.392055	0.611725	0.218110	0.119669	0.968559	-0.649324	0.758699	0.052482	-0.728564	-0.640356	0.243184
43925	15.637432	4.978558	1.802903	-0.737213	-0.071819	0.242802	0.215957	0.121067	0.968868	-0.644494	0.763082	0.048302	-0.733478	-0.634861	0.242820
43926	12.975290	3.541925	2.119828	-0.826415	0.997114	0.042037	0.222988	0.127711	0.966419	-0.638555	0.768211	0.045820	-0.736562	-0.627330	0.252852
43927	8.478236	0.943268	1.620579	-0.258147	0.555433	-0.074744	0.227498	0.130623	0.964978	-0.636518	0.769898	0.045846	-0.736946	-0.624655	0.258294
43928	10.428382	-1.468075	0.602064	0.823333	-0.429981	-0.140252	0.225208	0.126871	0.966015	-0.642290	0.764875	0.049284	-0.732628	-0.631561	0.253744
43929	9.394543	-2.975906	-3.428503	1.283410	-0.721883	-0.108035	0.220585	0.121460	0.967776	-0.651441	0.756810	0.053499	-0.725925	-0.642250	0.246065
43930	5.485168	-1.823138	-5.462827	1.344144	-0.996008	0.180120	0.212172	0.116385	0.970277	-0.661584	0.747854	0.054964	-0.719229	-0.653581	0.235672
43931	3.810953	-1.446458	-7.451192	0.305887	-1.271420	0.431259	0.200105	0.111279	0.973435	-0.664705	0.745334	0.051437	-0.719810	-0.657339	0.223112
43932	3.076813	-3.854914	-10.735678	-0.916861	-0.945435	0.520559	0.189776	0.109001	0.975758	-0.659118	0.750732	0.044329	-0.727701	-0.651552	0.214315
43933	2.528241	-4.290933	-11.650227	-1.144224	-1.232358	0.586761	0.176843	0.105450	0.978574	-0.651841	0.757492	0.036171	-0.737448	-0.644271	0.202693
43934	6.432301	-2.513457	-5.914255	-1.029096	-2.926784	0.982956	0.148657	0.094146	0.984397	-0.645821	0.763094	0.024547	-0.748876	-0.639394	0.174241
43935	14.838463	-1.906530	4.301265	0.057308	-3.294824	1.163046	0.116333	0.081898	0.989828	-0.647821	0.761679	0.013116	-0.752857	-0.642757	0.141664
43936	18.098398	-0.798497	4.874329	0.868835	-0.720099	0.999884	0.104354	0.084837	0.990915	-0.655472	0.755207	0.004372	-0.747975	-0.649974	0.134417
43937	10.927768	-0.940781	-1.978012	0.926850	-0.100003	0.928866	0.097424	0.091174	0.991058	-0.663341	0.748308	-0.003633	-0.741948	-0.657055	0.133383
43938	8.467807	0.850269	-2.479320	0.723522	-1.303715	0.711114	0.082976	0.087876	0.992670	-0.669365	0.742869	-0.009811	-0.738286	-0.663644	0.120461
43939	10.420707	1.402202	-0.991914	0.404301	-1.525933	0.382212	0.069097	0.080557	0.994352	-0.672663	0.739831	-0.013194	-0.736716	-0.667952	0.105308
43940	10.274148	1.005426	-0.233432	0.168915	-0.963539	0.273711	0.060096	0.076138	0.995285	-0.674105	0.738467	-0.015789	-0.736187	-0.669978	0.095703
43941	8.588901	0.186694	0.262939	-0.076560	-0.761669	0.282298	0.052523	0.073127	0.995939	-0.673725	0.738746	-0.018712	-0.737114	-0.670006	0.088068
43942	8.597792	-1.122260	0.420609	-0.245233	-1.058785	0.410390	0.041883	0.069074	0.996732	-0.672127	0.740077	-0.023045	-0.739251	-0.668965	0.077423
43943	9.556169	-2.764373	0.202801	-0.377855	-1.288960	0.537618	0.028669	0.064456	0.997509	-0.669541	0.742220	-0.028717	-0.742221	-0.667050	0.064434
43944	9.798811	-3.758482	-0.279754	-0.335366	-1.271291	0.692546	0.014524	0.061136	0.998024	-0.667217	0.743999	-0.035866	-0.744722	-0.665378	0.051597
43945	9.798160	-3.669277	-1.113905	-0.309840	-1.306896	0.781788	-0.000490	0.058280	0.998300	-0.664984	0.745569	-0.043853	-0.746858	-0.663875	0.038390
43946	9.590071	-2.974665	-1.343945	-0.134427	-1.259530	0.700693	-0.014627	0.055153	0.998371	-0.663948	0.746042	-0.050941	-0.747636	-0.663611	0.025706
43947	9.409682	-1.931526	-1.650794	0.009468	-1.182830	0.560124	-0.027247	0.051484	0.998302	-0.663923	0.745658	-0.056576	-0.747304	-0.664337	0.013865
43948	9.449117	-0.248138	-1.507965	0.008982	-1.204679	0.438776	-0.039232	0.046755	0.998136	-0.663866	0.745359	-0.061008	-0.746822	-0.665021	0.001797
43949	9.587324	0.336005	-1.366291	-0.207694	-1.229473	0.327727	-0.050651	0.041037	0.997873	-0.662187	0.746574	-0.064315	-0.747625	-0.664036	-0.010641
43950	9.485688	0.166913	-1.308095	-0.403549	-1.235101	0.307909	-0.062004	0.035159	0.997456	-0.659010	0.749111	-0.067371	-0.749574	-0.661511	-0.023278
43951	9.233525	0.268878	-1.307434	-0.526439	-1.362608	0.401093	-0.074930	0.029188	0.996762	-0.654802	0.752434	-0.071257	-0.752077	-0.658021	-0.037267
43952	8.935690	0.829251	-1.019636	-0.878151	-1.465584	0.363143	-0.088424	0.022337	0.995832	-0.647896	0.758074	-0.074533	-0.756579	-0.651786	-0.052560
43953	9.306236	-0.318151	-1.725278	-1.115848	-1.633644	0.275227	-0.102660	0.013861	0.994620	-0.639177	0.765231	-0.076637	-0.762177	-0.643606	-0.069699
43954	9.792226	-1.172367	-1.851186	-1.250275	-1.777194	0.197585	-0.117584	0.004030	0.993055	-0.629404	0.773188	-0.077663	-0.768131	-0.634164	-0.088378
43955	10.771634	-1.691717	-1.962881	-1.223791	-1.767351	0.227133	-0.132686	-0.005319	0.991144	-0.619703	0.780873	-0.078770	-0.773539	-0.624667	-0.106907
43956	10.025658	-1.743328	-1.561315	-1.080928	-1.449821	0.318360	-0.145967	-0.011812	0.989219	-0.610883	0.787594	-0.080736	-0.778149	-0.616082	-0.122178
43957	9.955822	-1.781882	-1.875492	-0.829222	-1.371673	0.245876	-0.158213	-0.018262	0.987236	-0.604061	0.792694	-0.082143	-0.781076	-0.609347	-0.136445
43958	9.835340	-1.787950	-1.910998	-0.622746	-1.287238	0.172773	-0.169391	-0.024692	0.985240	-0.598918	0.796496	-0.083010	-0.782690	-0.604139	-0.149708
43959	9.743930	-2.140734	-2.159645	-0.439427	-1.227777	0.128614	-0.179830	-0.031047	0.983208	-0.595269	0.799162	-0.083640	-0.783145	-0.600314	-0.162195
43960	9.577120	-2.163168	-2.201862	-0.255504	-1.207597	0.097495	-0.189938	-0.037494	0.981080	-0.593098	0.800713	-0.084223	-0.782405	-0.597874	-0.174323
43961	9.458013	-2.147861	-2.194719	-0.137189	-1.196782	0.090200	-0.199884	-0.043904	0.978835	-0.591865	0.801553	-0.084910	-0.780860	-0.596310	-0.186203
43962	9.433631	-2.058897	-2.185960	-0.054687	-1.199500	0.085934	-0.209823	-0.050353	0.976442	-0.591273	0.801905	-0.085703	-0.778698	-0.595326	-0.198030
43963	9.216141	-1.840584	-2.146362	0.058680	-1.207590	0.084939	-0.219768	-0.056847	0.973894	-0.591560	0.801586	-0.086702	-0.775731	-0.595171	-0.209792
43964	9.270989	-1.559136	-2.101217	0.107066	-1.260545	0.056870	-0.229939	-0.063884	0.971106	-0.592271	0.800968	-0.087546	-0.772232	-0.595289	-0.222011
43965	9.548987	-1.388431	-1.858855	0.145571	-1.325475	0.056046	-0.240538	-0.071315	0.968016	-0.593273	0.800125	-0.088473	-0.768224	-0.595579	-0.234770
43966	9.918083	-1.131376	-1.481285	0.175620	-1.347704	0.077902	-0.251401	-0.078711	0.964677	-0.594438	0.799122	-0.089712	-0.763833	-0.595994	-0.247689
43967	9.985590	-0.384589	-0.795695	0.210127	-1.298790	0.133473	-0.262143	-0.085378	0.961245	-0.595706	0.797964	-0.091582	-0.759220	-0.596627	-0.260041
43968	10.389852	0.390189	-0.072715	0.045765	-1.328296	0.172772	-0.273307	-0.091907	0.957526	-0.595601	0.797829	-0.093423	-0.755356	-0.595837	-0.272792
43969	10.419687	1.169913	0.708136	-0.124027	-1.304561	0.229347	-0.284563	-0.097823	0.953653	-0.594036	0.798771	-0.095321	-0.752426	-0.593629	-0.285411
43970	10.008220	1.844175	1.721910	-0.344328	-1.306198	0.248311	-0.295921	-0.103552	0.949583	-0.590738	0.801043	-0.096739	-0.750640	-0.589582	-0.298217
43971	9.989430	1.772158	2.255902	-0.599043	-1.406850	0.219415	-0.307823	-0.110027	0.945060	-0.585590	0.804778	-0.097042	-0.749887	-0.583289	-0.312160
43972	10.333766	1.291372	2.705851	-0.780268	-1.384216	0.147762	-0.319127	-0.116840	0.940482	-0.579284	0.809452	-0.096002	-0.750058	-0.575443	-0.326002
43973	10.757745	0.536142	2.690083	-0.947376	-1.165409	0.098698	-0.328502	-0.122678	0.936502	-0.571859	0.814968	-0.093837	-0.751707	-0.566372	-0.337873
43974	10.725971	-0.519976	1.953293	-1.008308	-0.917239	0.038091	-0.335679	-0.127502	0.933307	-0.564152	0.820664	-0.090793	-0.754356	-0.557004	-0.347410
43975	10.733013	-1.771836	1.354635	-0.989632	-0.680854	-0.068138	-0.340500	-0.131809	0.930960	-0.556908	0.826033	-0.086737	-0.757571	-0.547993	-0.354669
43976	11.122237	-3.527714	0.107986	-0.875021	-0.663527	-0.053638	-0.345285	-0.135842	0.928615	-0.550470	0.830703	-0.083161	-0.760106	-0.539888	-0.361607
43977	11.349527	-3.738574	0.092882	-0.617411	-0.595127	0.005277	-0.349897	-0.138977	0.926422	-0.545761	0.834015	-0.081012	-0.761391	-0.533951	-0.367667
43978	11.539850	-3.206022	-0.033061	-0.411830	-0.389385	0.036550	-0.353105	-0.140719	0.924940	-0.542522	0.836234	-0.079890	-0.762225	-0.530010	-0.371622
43979	11.330371	-2.231358	-0.261134	-0.244732	-0.149915	0.059034	-0.354623	-0.141001	0.924317	-0.540453	0.837602	-0.079577	-0.762990	-0.527770	-0.373237
43980	10.831305	-0.847945	-0.428590	-0.094704	0.019217	0.078615	-0.354940	-0.140214	0.924315	-0.539484	0.838185	-0.080015	-0.763528	-0.527054	-0.373148
43981	10.212633	0.479180	-0.429850	-0.067560	0.037697	0.051097	-0.354982	-0.139570	0.924396	-0.538794	0.838603	-0.080289	-0.763996	-0.526560	-0.372888
43982	9.959921	0.953883	-0.250691	-0.154972	-0.110608	-0.004417	-0.355838	-0.140160	0.923978	-0.537660	0.839383	-0.079733	-0.764396	-0.525158	-0.374043
43983	10.460687	1.011350	0.333721	-0.282137	-0.362915	-0.094019	-0.358162	-0.142833	0.922669	-0.535846	0.840718	-0.077858	-0.764584	-0.522294	-0.377650
43984	12.074670	0.384194	1.253983	-0.429398	-0.573332	-0.206527	-0.361472	-0.147524	0.920638	-0.533341	0.842624	-0.074383	-0.764778	-0.517901	-0.383265
43985	13.857878	-0.694232	2.357900	-0.549473	-0.602461	-0.271645	-0.364691	-0.152902	0.918489	-0.530129	0.845038	-0.069816	-0.765482	-0.512379	-0.389235
43986	14.721983	-2.118797	3.487869	-0.502501	-0.361522	-0.249511	-0.366162	-0.156825	0.917241	-0.527231	0.847184	-0.065623	-0.766781	-0.507627	-0.392890
43987	14.633960	-2.573084	4.811771	-0.141521	0.034649	-0.199574	-0.364899	-0.158322	0.917487	-0.526882	0.847579	-0.063290	-0.767623	-0.506501	-0.392698
43988	14.447664	-1.665484	5.833657	0.389574	0.509804	-0.218133	-0.359842	-0.157540	0.919617	-0.530713	0.845216	-0.062872	-0.767370	-0.510676	-0.387753
43989	14.106461	0.158625	5.815002	0.956356	1.154019	-0.318844	-0.349341	-0.154258	0.924211	-0.539185	0.839780	-0.063640	-0.766316	-0.520552	-0.376543
43990	12.648245	2.747305	4.811876	1.454495	1.833229	-0.452647	-0.332836	-0.148318	0.931248	-0.551924	0.831369	-0.064852	-0.764592	-0.535563	-0.358569
43991	10.739674	5.239314	3.591980	1.479426	2.132550	-0.658317	-0.312922	-0.142160	0.939080	-0.565360	0.822366	-0.063899	-0.763183	-0.550913	-0.337708
43992	10.005943	6.652922	2.726610	1.049969	1.951713	-0.863520	-0.293085	-0.138323	0.946027	-0.576051	0.815263	-0.059260	-0.763064	-0.562328	-0.318623
43993	10.414575	6.415472	2.709300	0.276676	1.667127	-1.122607	-0.273897	-0.138031	0.951802	-0.581359	0.812139	-0.049519	-0.766161	-0.566902	-0.302688
43994	12.681178	4.782759	2.280387	-0.613380	1.803915	-1.328715	-0.252260	-0.138584	0.957684	-0.580186	0.813729	-0.035072	-0.774435	-0.564482	-0.285676
43995	14.973761	2.553497	-0.137768	-1.644212	2.239144	-1.252918	-0.227601	-0.136287	0.964170	-0.570349	0.821193	-0.018559	-0.789240	-0.554137	-0.264635
43996	16.208029	1.757655	-3.000542	-2.395000	2.586045	-0.784418	-0.202505	-0.128608	0.970800	-0.552959	0.833194	-0.004967	-0.808225	-0.537818	-0.239840
43997	15.962948	-0.267830	-5.542917	-3.096672	2.672826	-0.401885	-0.178491	-0.117898	0.976853	-0.528372	0.848993	0.005922	-0.830039	-0.515084	-0.213831
43998	15.612744	-0.472681	-6.966827	-3.090186	2.501143	-0.008642	-0.157399	-0.105330	0.981902	-0.502479	0.864504	0.012189	-0.850142	-0.491466	-0.188998
43999	14.850784	-0.032035	-6.966104	-3.079956	2.057147	0.114617	-0.140339	-0.094453	0.985588	-0.475861	0.879365	0.016515	-0.868252	-0.466685	-0.168356
44000	15.439289	-1.925970	-7.211867	-2.815952	2.041316	0.200916	-0.123356	-0.083326	0.988858	-0.450980	0.892333	0.018934	-0.883968	-0.443620	-0.147653
44001	14.068687	-2.803064	-6.827858	-1.944953	2.555235	0.125847	-0.101232	-0.071035	0.992324	-0.433555	0.900899	0.020261	-0.895423	-0.428176	-0.121997
44002	12.936268	-1.819053	-6.684277	-1.492040	2.681481	0.016649	-0.077153	-0.059498	0.995242	-0.420175	0.907184	0.021661	-0.904157	-0.416505	-0.094992
44003	14.299225	-4.110730	-8.198696	-0.921863	2.567752	-0.071663	-0.053621	-0.049519	0.997333	-0.411886	0.910943	0.023085	-0.909656	-0.409549	-0.069242
44004	13.383955	-4.326994	-5.694850	0.140548	2.985144	-0.063526	-0.026183	-0.037768	0.998943	-0.413257	0.910309	0.023585	-0.910238	-0.412203	-0.039443
44005	14.052460	-4.535337	-5.309783	0.858096	3.312061	-0.112958	0.004331	-0.024969	0.999679	-0.421094	0.906687	0.024470	-0.907007	-0.421064	-0.006588
44006	12.374024	-3.605746	-4.302217	1.092138	3.601627	-0.148255	0.037535	-0.010883	0.999236	-0.431015	0.901970	0.026014	-0.901564	-0.431662	0.029165
44007	11.044152	-4.138876	-4.425717	1.050810	3.364095	-0.166966	0.068433	0.002324	0.997653	-0.440397	0.897363	0.028118	-0.895191	-0.441287	0.062433
44008	10.884943	-4.322897	-4.302768	1.302422	3.062683	-0.154143	0.096401	0.014711	0.995234	-0.451957	0.891515	0.030600	-0.886816	-0.452752	0.092592
44009	10.060895	-3.328162	-4.062948	1.515987	2.946047	-0.143571	0.122982	0.026987	0.992042	-0.465199	0.884568	0.033606	-0.876622	-0.465630	0.121341
44010	8.674288	-2.818661	-4.222762	1.609413	2.806655	-0.183970	0.148274	0.038702	0.988189	-0.479052	0.876983	0.037534	-0.865173	-0.478959	0.148574
44011	7.928893	-1.828525	-4.264825	1.862664	2.531854	-0.215904	0.171011	0.049158	0.984042	-0.494735	0.867998	0.042616	-0.852052	-0.494128	0.172757
44012	7.691701	-1.369348	-4.338702	2.049217	2.243558	-0.250734	0.191196	0.058344	0.979816	-0.511681	0.857790	0.048769	-0.837631	-0.510678	0.193860
44013	7.231029	-1.065583	-4.212166	2.194016	2.069880	-0.284015	0.209797	0.066694	0.975468	-0.529354	0.846553	0.055970	-0.822052	-0.528110	0.212909
44014	6.889001	-0.741927	-3.999748	2.290077	1.873174	-0.281491	0.226516	0.074464	0.971157	-0.547462	0.834401	0.063714	-0.805590	-0.546104	0.229771
44015	6.721328	-1.243966	-4.142901	2.259751	1.631685	-0.270899	0.240978	0.081290	0.967120	-0.564884	0.822053	0.071656	-0.789199	-0.563578	0.244016
44016	6.147342	-0.904411	-4.326426	2.366795	1.528793	-0.224578	0.254150	0.088282	0.963127	-0.582882	0.808640	0.079689	-0.771788	-0.581642	0.256974
44017	5.355490	-0.454634	-4.580412	2.347557	1.367252	-0.204728	0.265739	0.094727	0.959380	-0.600299	0.794943	0.087786	-0.754337	-0.599243	0.268112
44018	4.834004	0.163530	-4.726371	2.358602	1.091485	-0.228382	0.275211	0.099627	0.956208	-0.617344	0.780773	0.096332	-0.736984	-0.616821	0.276381
44019	4.334060	0.749940	-4.561800	2.232957	0.824921	-0.202210	0.282431	0.103229	0.953717	-0.633091	0.766996	0.104463	-0.720714	-0.633293	0.281977
44020	3.897409	1.484680	-4.139634	1.960812	0.567171	-0.220012	0.287823	0.105240	0.951884	-0.646525	0.754618	0.112060	-0.706515	-0.647670	0.285237
44021	4.156610	1.766134	-4.317470	1.612776	0.364679	-0.253624	0.291975	0.105731	0.950564	-0.657125	0.744321	0.119052	-0.694937	-0.659400	0.286802
44022	3.970192	2.305537	-4.215896	1.320369	0.291902	-0.246064	0.295550	0.105891	0.949440	-0.665576	0.735767	0.125127	-0.685317	-0.668906	0.287934
44023	4.027201	3.276433	-3.922541	0.971608	0.178199	-0.183844	0.297938	0.105749	0.948710	-0.671689	0.729403	0.129637	-0.678283	-0.675861	0.288347
44024	4.210040	3.804281	-3.649436	0.578682	-0.009997	-0.000526	0.297806	0.105706	0.948756	-0.675653	0.725441	0.131256	-0.674392	-0.680119	0.287461
44025	4.232904	4.241507	-3.468663	0.252770	-0.243998	0.194628	0.294787	0.105461	0.949726	-0.677967	0.723488	0.130097	-0.673395	-0.682234	0.284774
44026	3.820652	4.354854	-3.146970	0.021562	-0.537847	0.374913	0.288549	0.104517	0.951743	-0.679249	0.722915	0.126547	-0.674804	-0.682986	0.279589
44027	3.983369	4.443561	-2.843945	-0.103315	-1.036965	0.507052	0.278029	0.101105	0.955237	-0.680020	0.723074	0.121393	-0.678434	-0.683331	0.269789
44028	5.310719	4.494879	-2.174957	-0.091429	-1.534475	0.577434	0.263585	0.094791	0.959967	-0.680994	0.723109	0.115583	-0.683205	-0.684198	0.255153
44029	6.972542	3.745959	-0.734667	0.125263	-1.725054	0.491467	0.248359	0.086523	0.964796	-0.683143	0.721780	0.111126	-0.686756	-0.686693	0.238368
44030	12.367231	3.573942	3.884038	0.498824	-1.455440	0.323446	0.236079	0.078816	0.968532	-0.687377	0.718057	0.109115	-0.686862	-0.691507	0.223695
44031	18.431208	4.901088	11.179211	0.464608	-0.389367	0.270026	0.231490	0.078056	0.969701	-0.691226	0.714600	0.107490	-0.684558	-0.695165	0.219377
44032	19.164939	6.020274	16.836552	-0.705792	0.949858	0.312830	0.235788	0.086870	0.967914	-0.687140	0.719209	0.102842	-0.687199	-0.689342	0.229273
44033	13.705782	1.760537	14.792401	-1.057110	1.664703	0.337819	0.244887	0.100717	0.964306	-0.680702	0.726106	0.097027	-0.690416	-0.680166	0.246372
44034	9.731701	-0.156119	11.449204	0.272330	1.130829	0.497222	0.249227	0.112027	0.961944	-0.683838	0.723697	0.092892	-0.685749	-0.680965	0.256973
44035	9.035805	1.387583	10.552338	0.302066	0.487320	0.434891	0.249522	0.118497	0.961092	-0.687021	0.721110	0.089458	-0.682452	-0.682611	0.261343
44036	10.449792	-1.038659	8.442191	-0.200649	0.115476	0.201338	0.248886	0.120759	0.960975	-0.686192	0.722203	0.086965	-0.683517	-0.681058	0.262611
44037	11.325650	-0.932603	7.839231	-0.051759	-0.001255	0.157561	0.247739	0.121895	0.961128	-0.686262	0.722338	0.085279	-0.683864	-0.680713	0.262603
44038	11.372169	-0.232769	7.433194	-0.365703	0.014434	0.229794	0.246223	0.123687	0.961289	-0.684372	0.724499	0.082074	-0.686302	-0.678087	0.263036
44039	10.599411	-0.563460	5.665443	-0.638539	0.183867	0.322116	0.245231	0.127276	0.961074	-0.680801	0.728383	0.077255	-0.690197	-0.673245	0.265272
44040	9.594251	-0.789845	3.488859	-0.549564	0.481795	0.429838	0.245603	0.133685	0.960108	-0.678108	0.731464	0.071616	-0.692711	-0.668646	0.270303
44041	9.739732	0.217310	2.604217	-0.355100	0.628524	0.534749	0.246278	0.141800	0.958770	-0.676994	0.733070	0.065480	-0.693560	-0.665208	0.276537
44042	10.727303	3.010363	1.949916	-0.233902	0.406734	0.490916	0.245737	0.148143	0.957949	-0.676634	0.733864	0.060084	-0.694104	-0.662946	0.280576
44043	11.392530	3.199204	-0.629030	-0.477466	-0.328717	0.305645	0.241327	0.148224	0.959057	-0.674087	0.736542	0.055786	-0.698118	-0.659951	0.277663
44044	11.567003	1.706480	-2.619244	-0.620591	-0.893446	0.190048	0.233744	0.143779	0.961609	-0.670236	0.740308	0.052228	-0.704378	-0.656712	0.269409
44045	12.527448	1.957624	-0.564487	-0.127549	-0.881966	0.028707	0.227269	0.138207	0.963975	-0.669434	0.741079	0.051577	-0.707254	-0.657039	0.260944
44046	13.236726	0.931992	-0.034089	0.754539	-0.272041	-0.231943	0.226867	0.134723	0.964563	-0.674270	0.736379	0.055737	-0.702775	-0.663020	0.257900
44047	9.588852	-1.460995	-2.188311	1.882269	0.019518	-0.295695	0.228957	0.132702	0.964349	-0.686735	0.724138	0.063398	-0.689909	-0.676767	0.256927
44048	5.295000	-2.002288	-2.923785	2.309390	-0.884904	-0.108208	0.223618	0.125878	0.966514	-0.702300	0.708409	0.070225	-0.675847	-0.694487	0.246817
44049	5.665366	-1.241562	-4.345001	1.534566	-1.760467	0.246437	0.209979	0.115275	0.970886	-0.713182	0.697328	0.071449	-0.668790	-0.707422	0.228636
44050	5.980243	-1.875740	-6.625788	-0.035583	-1.647393	0.566928	0.194832	0.107573	0.974920	-0.714127	0.696915	0.065817	-0.672356	-0.709040	0.212602
44051	4.942636	-3.741065	-9.615608	-0.893072	-1.075273	0.799072	0.181810	0.105571	0.977650	-0.709619	0.702347	0.056123	-0.680725	-0.703963	0.202609
44052	5.498026	-1.840582	-9.041787	-0.505478	-1.706346	0.998843	0.162994	0.100607	0.981484	-0.707914	0.704844	0.045312	-0.687235	-0.702192	0.186106
44053	10.361967	-0.467853	-1.055933	-0.260511	-3.147306	1.253413	0.132327	0.087331	0.987352	-0.707993	0.705471	0.032488	-0.693711	-0.703337	0.155182
44054	16.051128	0.725471	4.720990	0.362659	-2.003919	1.219798	0.109692	0.081775	0.990596	-0.712009	0.701859	0.020903	-0.693549	-0.707606	0.135213
44055	11.642572	0.785820	0.434975	0.461246	-0.635179	1.016850	0.097974	0.084389	0.991605	-0.716284	0.697716	0.011393	-0.690897	-0.711386	0.128804
44056	8.589854	1.659315	-2.094453	0.460861	-1.237327	0.804759	0.083586	0.081158	0.993190	-0.720215	0.693740	0.003924	-0.688697	-0.715639	0.116438
44057	10.101720	1.536478	-1.339480	-0.118906	-1.721011	0.548700	0.067704	0.072648	0.995057	-0.719835	0.694144	-0.001701	-0.690836	-0.716161	0.099291
44058	10.732416	0.625703	-1.161233	-0.214438	-1.349562	0.382984	0.055537	0.065641	0.996297	-0.718603	0.695397	-0.005759	-0.693199	-0.715622	0.085790
44059	9.148774	-0.002503	-0.572521	-0.400932	-1.048370	0.257807	0.046343	0.059949	0.997125	-0.715972	0.698075	-0.008694	-0.696590	-0.713510	0.075273
44060	8.387694	-1.596814	-0.183631	-0.500108	-1.256562	0.305731	0.035305	0.053131	0.997963	-0.712616	0.701449	-0.012135	-0.700665	-0.710736	0.062627
44061	8.560579	-3.078782	-0.100040	-0.527687	-1.462367	0.488669	0.021495	0.046200	0.998701	-0.709069	0.704926	-0.017348	-0.704811	-0.707775	0.047911
44062	9.053942	-4.617153	-1.036518	-0.466845	-1.594276	0.698082	0.005213	0.039862	0.999192	-0.705878	0.707908	-0.024558	-0.708315	-0.705179	0.031828
44063	10.284197	-4.835986	-1.554092	-0.316104	-1.778545	0.895285	-0.013773	0.033685	0.999338	-0.703618	0.709782	-0.033622	-0.710445	-0.703615	0.013925
44064	10.427333	-4.561507	-1.468639	-0.187657	-1.635914	0.841608	-0.031404	0.028156	0.999110	-0.702110	0.710823	-0.042100	-0.711376	-0.702807	-0.002553
44065	10.095636	-3.199655	-1.666067	0.131848	-1.426543	0.663095	-0.046259	0.022836	0.998668	-0.702809	0.709704	-0.048783	-0.709873	-0.704130	-0.016781
44066	9.134262	-1.098030	-1.448512	0.325651	-1.285626	0.474833	-0.058798	0.017131	0.998123	-0.704883	0.707291	-0.053663	-0.706883	-0.706715	-0.029512
44067	8.253172	0.452863	-1.305595	0.241856	-1.252637	0.252746	-0.069480	0.010056	0.997533	-0.706446	0.705523	-0.056318	-0.704348	-0.708616	-0.041916
44068	9.627052	0.554390	-1.794924	0.100024	-1.556825	0.179631	-0.081791	0.000283	0.996649	-0.707027	0.704786	-0.058223	-0.702441	-0.709420	-0.057445
44069	10.942120	1.918533	0.180842	-0.206409	-1.690301	0.303156	-0.095865	-0.009553	0.995349	-0.705325	0.706241	-0.061154	-0.702372	-0.707907	-0.074441
44070	9.773898	1.446755	0.510692	-0.693716	-1.367243	0.395038	-0.108357	-0.016400	0.993977	-0.700047	0.711170	-0.064580	-0.705827	-0.702829	-0.088541
44071	9.020675	0.140024	-0.624891	-0.959230	-1.476197	0.375661	-0.121488	-0.024034	0.992302	-0.692838	0.717933	-0.067436	-0.710786	-0.695697	-0.103872
44072	9.205044	-1.107056	-1.303591	-1.035893	-1.743791	0.377280	-0.136611	-0.033376	0.990062	-0.684970	0.725194	-0.070067	-0.715649	-0.687735	-0.121931
44073	9.528467	-1.689760	-1.167102	-0.951149	-1.748320	0.346382	-0.151577	-0.042804	0.987518	-0.677661	0.731812	-0.072296	-0.719584	-0.680161	-0.139933
44074	10.070702	-1.826066	-1.437363	-0.723352	-1.622990	0.264142	-0.165144	-0.051855	0.984905	-0.672036	0.736822	-0.073890	-0.721869	-0.674095	-0.156530
44075	10.340809	-1.844706	-1.852362	-0.493311	-1.421450	0.195010	-0.176776	-0.059958	0.982423	-0.668154	0.740228	-0.075051	-0.722717	-0.669677	-0.170916
44076	10.180123	-1.624939	-1.996757	-0.279067	-1.252012	0.150284	-0.186912	-0.067209	0.980075	-0.665872	0.742175	-0.076095	-0.722273	-0.666828	-0.183474
44077	9.839656	-1.479967	-2.194176	-0.153156	-1.155135	0.155797	-0.196343	-0.073736	0.977759	-0.664482	0.743288	-0.077380	-0.721050	-0.664896	-0.194935
44078	9.446671	-1.196625	-2.138060	-0.119048	-1.179196	0.169762	-0.206051	-0.080301	0.975241	-0.663290	0.744195	-0.078865	-0.719437	-0.663118	-0.206605
44079	9.036192	-1.026864	-1.879138	-0.159576	-1.270294	0.142319	-0.216181	-0.087642	0.972412	-0.661855	0.745355	-0.079962	-0.717784	-0.660882	-0.219138
44080	9.057276	-1.323295	-1.828265	-0.187193	-1.380672	0.091683	-0.226772	-0.096061	0.969199	-0.660317	0.746661	-0.080495	-0.715930	-0.658232	-0.232753
44081	9.520854	-1.247280	-1.588618	-0.148018	-1.495354	0.080794	-0.238050	-0.105273	0.965531	-0.659082	0.747699	-0.080973	-0.713402	-0.655640	-0.247373
44082	10.090519	-1.011589	-1.140826	-0.111808	-1.562451	0.115338	-0.250019	-0.114630	0.961431	-0.658012	0.748544	-0.081867	-0.710290	-0.653101	-0.262578
44083	10.777890	-0.409814	-0.311231	-0.092658	-1.619222	0.148129	-0.262523	-0.124067	0.956916	-0.656985	0.749311	-0.083089	-0.706719	-0.650493	-0.278221
44084	11.207082	0.236194	0.792012	-0.176187	-1.613595	0.170561	-0.275104	-0.133250	0.952136	-0.655292	0.750659	-0.084281	-0.703499	-0.647113	-0.293827
44085	11.193047	0.821042	1.800509	-0.303951	-1.494631	0.237986	-0.287215	-0.141092	0.947418	-0.652496	0.752933	-0.085679	-0.701253	-0.642795	-0.308316
44086	10.548171	1.148246	2.617125	-0.455156	-1.385916	0.247195	-0.298610	-0.148089	0.942816	-0.648592	0.756189	-0.086648	-0.700115	-0.637376	-0.321855
44087	9.955493	0.922209	2.950675	-0.547640	-1.405792	0.198384	-0.309786	-0.155492	0.938006	-0.644163	0.759951	-0.086766	-0.699347	-0.631108	-0.335585
44088	9.659804	1.044234	3.246985	-0.297128	-1.394285	0.011907	-0.319663	-0.164158	0.933203	-0.642063	0.761821	-0.085925	-0.696829	-0.626642	-0.348926
44089	10.486305	0.930022	3.903299	-0.777209	-1.358099	0.016485	-0.329292	-0.172476	0.928342	-0.636598	0.766676	-0.083367	-0.697359	-0.618433	-0.362258
44090	11.064819	-0.760656	2.846777	-0.922211	-0.988026	-0.101699	-0.335606	-0.179309	0.924779	-0.630509	0.772141	-0.079101	-0.699876	-0.609628	-0.372192
44091	11.507457	-2.222339	1.776402	-0.903166	-0.762944	-0.168972	-0.339953	-0.185226	0.922021	-0.624751	0.777291	-0.074197	-0.702935	-0.601257	-0.379963
44092	12.073600	-4.196581	0.448014	-0.907480	-0.688145	-0.170445	-0.343789	-0.190643	0.919491	-0.618962	0.782365	-0.069213	-0.706183	-0.592925	-0.386970
44093	12.612827	-5.131576	-0.104873	-0.624691	-0.610577	-0.072975	-0.347712	-0.194804	0.917141	-0.614804	0.785900	-0.066160	-0.707893	-0.586866	-0.393033
44094	12.808869	-4.112128	0.414179	-0.270179	-0.317329	0.032988	-0.350205	-0.196376	0.915857	-0.612807	0.787516	-0.065468	-0.708395	-0.584171	-0.396132
44095	12.280356	-1.976599	1.075014	-0.087919	0.072293	0.079239	-0.350233	-0.195316	0.916072	-0.611912	0.788176	-0.065899	-0.709155	-0.583636	-0.395561
44096	11.500011	-0.095773	1.270398	-0.024690	0.300471	0.064963	-0.348535	-0.193018	0.917206	-0.611550	0.788408	-0.066473	-0.710303	-0.584086	-0.392828
44097	11.345889	1.059444	1.540067	-0.046024	0.208319	-0.001793	-0.347098	-0.191803	0.918006	-0.611235	0.788665	-0.066330	-0.711276	-0.584140	-0.390981
44098	12.565387	1.356405	2.317231	-0.102022	-0.124415	-0.136183	-0.347180	-0.193568	0.917604	-0.611026	0.788957	-0.064754	-0.711416	-0.583162	-0.392185
44099	14.139975	0.762265	3.805281	-0.143993	-0.285139	-0.229748	-0.347860	-0.197029	0.916610	-0.610806	0.789338	-0.062134	-0.711273	-0.581485	-0.394926
44100	14.974946	-0.031089	5.464398	-0.094385	-0.105773	-0.244830	-0.347134	-0.199538	0.916342	-0.611035	0.789358	-0.059589	-0.711432	-0.580602	-0.395937
44101	15.276895	0.150991	6.761808	0.325518	0.286366	-0.186304	-0.344012	-0.199326	0.917564	-0.613999	0.787082	-0.059219	-0.710395	-0.583755	-0.393152
44102	15.679866	1.918942	6.444892	1.102961	1.055234	-0.265666	-0.334891	-0.195147	0.921827	-0.622776	0.780009	-0.061125	-0.707105	-0.594562	-0.382751
44103	14.297836	4.803531	4.557092	1.638485	2.064807	-0.346891	-0.318201	-0.185374	0.929723	-0.635473	0.769460	-0.064073	-0.703507	-0.611202	-0.362643
44104	11.388299	7.160457	3.022466	1.545423	2.389964	-0.579064	-0.297686	-0.174948	0.938497	-0.648172	0.758787	-0.064149	-0.700896	-0.627404	-0.339277
44105	10.122811	8.273818	2.738804	0.812119	2.038079	-0.948924	-0.277262	-0.169220	0.945775	-0.656603	0.752008	-0.057937	-0.701426	-0.637063	-0.319614
44106	11.279061	6.859334	2.245549	-0.299870	1.769742	-1.257674	-0.256495	-0.167346	0.951948	-0.657906	0.751748	-0.045116	-0.708075	-0.637864	-0.302917
44107	14.338492	4.113129	2.019739	-1.411966	1.755563	-1.320515	-0.235359	-0.166177	0.957597	-0.651070	0.758486	-0.028396	-0.721605	-0.630146	-0.286710
44108	16.969583	1.069395	-0.531579	-2.386889	2.510945	-1.173698	-0.209381	-0.159456	0.964745	-0.636263	0.771399	-0.010591	-0.742515	-0.616049	-0.262972
44109	16.705007	0.091956	-3.695291	-3.220861	3.304408	-0.809111	-0.179403	-0.145732	0.972922	-0.613504	0.789675	0.005156	-0.769043	-0.595966	-0.231077
44110	16.059812	-1.044179	-7.896417	-3.871005	3.232630	-0.410341	-0.151577	-0.130114	0.979844	-0.583918	0.811625	0.017447	-0.797537	-0.569504	-0.199000
44111	16.420790	-2.008175	-11.110959	-3.857830	1.968855	0.236247	-0.137028	-0.117229	0.983606	-0.552345	0.833315	0.022369	-0.822276	-0.540225	-0.178939
44112	16.527168	-2.094840	-9.167143	-3.042509	1.273835	0.362974	-0.128363	-0.107381	0.985897	-0.526633	0.849755	0.023985	-0.840346	-0.516127	-0.165627
44113	16.914686	-3.290749	-6.764480	-1.913128	2.135691	0.302621	-0.111907	-0.093902	0.989272	-0.510092	0.859787	0.023910	-0.852809	-0.501944	-0.144115
44114	14.755089	-1.937520	-7.113959	-0.920838	3.204751	0.189402	-0.085385	-0.076195	0.993430	-0.502084	0.864509	0.023153	-0.860593	-0.496809	-0.112072
44115	12.402538	-1.709630	-8.082122	-0.202769	3.230300	-0.060371	-0.057283	-0.060640	0.996515	-0.500402	0.865463	0.023900	-0.863896	-0.497289	-0.079921
44116	12.578750	-2.127985	-5.798866	0.294539	2.826390	-0.110074	-0.032304	-0.047406	0.998353	-0.503065	0.863894	0.024744	-0.863645	-0.501437	-0.051756
44117	14.554996	-1.620261	-3.655590	0.641749	3.316505	-0.250197	-0.002494	-0.032798	0.999459	-0.508669	0.860540	0.026970	-0.860959	-0.508326	-0.018830
44118	13.119011	-2.610151	-4.530579	0.640898	3.929903	-0.232764	0.032461	-0.014618	0.999366	-0.514212	0.857164	0.029240	-0.857049	-0.514835	0.020308
44119	11.415549	-1.961743	-5.321035	0.764827	3.702946	-0.247960	0.065321	0.002472	0.997861	-0.520653	0.853170	0.031968	-0.851266	-0.521627	0.057017
44120	9.776336	-1.927611	-4.943535	0.618586	3.345884	-0.253777	0.095025	0.017924	0.995314	-0.525772	0.849910	0.034891	-0.845301	-0.526623	0.090186
44121	9.727465	-2.346499	-5.007748	0.660766	3.011174	-0.272162	0.121760	0.031565	0.992058	-0.531071	0.846464	0.038248	-0.838533	-0.531510	0.119829
44122	9.253638	-1.579602	-4.938351	0.926701	2.894878	-0.264011	0.147299	0.044897	0.988073	-0.538521	0.841563	0.042041	-0.829638	-0.538290	0.148139
44123	8.240124	-0.844891	-4.861497	1.051629	2.805267	-0.306464	0.172037	0.057549	0.983408	-0.546736	0.836001	0.046723	-0.819441	-0.545702	0.175287
44124	7.157338	-0.791312	-5.099978	1.238758	2.604026	-0.310737	0.194908	0.069357	0.978366	-0.556318	0.829339	0.052036	-0.807788	-0.554425	0.200229
44125	6.535839	-0.415490	-4.963059	1.418682	2.319050	-0.281797	0.215021	0.080021	0.973326	-0.567145	0.821591	0.057744	-0.795055	-0.564433	0.222043
44126	6.069800	-0.357904	-4.509318	1.484928	2.078647	-0.259469	0.232855	0.089806	0.968356	-0.578342	0.813308	0.063644	-0.781856	-0.574861	0.241322
44127	5.545394	-0.666262	-4.552105	1.505437	1.831692	-0.196724	0.248148	0.098855	0.963665	-0.589575	0.804738	0.069266	-0.768650	-0.585341	0.257977
44128	5.135008	-0.909568	-4.922337	1.562231	1.587070	-0.112827	0.260864	0.107388	0.959384	-0.601259	0.795580	0.074434	-0.755274	-0.596255	0.272106
44129	4.776557	-1.092646	-5.350119	1.673459	1.368400	-0.076066	0.271510	0.115039	0.955536	-0.613615	0.785564	0.079779	-0.741457	-0.607992	0.283878
44130	4.445715	-0.462052	-5.485668	1.736628	1.137766	-0.042635	0.280072	0.121745	0.952228	-0.626316	0.774906	0.085140	-0.727522	-0.620241	0.293281
44131	3.706798	0.229032	-5.624901	1.746613	0.924929	-0.071575	0.287134	0.126999	0.949434	-0.638736	0.764029	0.090972	-0.713842	-0.632559	0.300498
44132	3.434817	0.436693	-5.550196	1.688372	0.672064	-0.144592	0.292754	0.130235	0.947277	-0.650318	0.753392	0.097400	-0.700986	-0.644546	0.305253
44133	3.551816	0.719151	-5.486285	1.645309	0.470690	-0.153704	0.296976	0.132155	0.945696	-0.661333	0.742866	0.103867	-0.688799	-0.656266	0.308012
44134	3.526996	1.398577	-5.240203	1.520210	0.264603	-0.171841	0.299857	0.132668	0.944714	-0.671259	0.732996	0.110125	-0.677862	-0.667170	0.308849
44135	3.445921	2.104636	-4.703759	1.313820	0.123736	-0.144032	0.301606	0.132457	0.944187	-0.679706	0.724333	0.115507	-0.668606	-0.676607	0.308495
44136	3.162549	3.020888	-4.304072	1.072256	-0.029140	-0.045590	0.301648	0.131947	0.944245	-0.686743	0.717063	0.119185	-0.661357	-0.684405	0.306914
44137	3.022665	3.824195	-4.424411	0.771168	-0.235114	0.085458	0.299452	0.130948	0.945083	-0.692116	0.711623	0.120699	-0.656737	-0.690250	0.303728
44138	2.856459	4.133136	-4.433092	0.495172	-0.734097	0.317987	0.292351	0.128124	0.947689	-0.696342	0.707755	0.119127	-0.655469	-0.694743	0.296131
44139	3.463799	3.863772	-3.819723	0.312354	-1.435424	0.442859	0.279780	0.121256	0.952376	-0.699692	0.704999	0.115789	-0.657384	-0.698766	0.282086
44140	5.616021	2.727394	-2.729187	0.189326	-1.988831	0.506548	0.263036	0.110878	0.958394	-0.702342	0.703065	0.111423	-0.661458	-0.702429	0.262805
44141	9.404636	1.914620	0.276623	0.145086	-2.133701	0.593495	0.244641	0.100027	0.964440	-0.704844	0.701391	0.106047	-0.665842	-0.705723	0.242092
44142	16.036207	4.253987	8.509279	-0.346871	-1.718298	0.815382	0.227318	0.093615	0.969310	-0.704468	0.703033	0.097311	-0.672347	-0.704969	0.225761
44143	23.630354	7.121253	19.776194	-2.038049	0.030381	0.717826	0.222453	0.098927	0.969911	-0.692266	0.716537	0.085690	-0.686500	-0.690499	0.227880
44144	17.116882	1.390517	19.189021	-2.732563	1.871372	0.446267	0.232321	0.114877	0.965831	-0.674347	0.734613	0.074832	-0.700916	-0.668691	0.248133
44145	10.240548	-2.025962	14.051659	0.248124	1.429991	0.572712	0.238379	0.128648	0.962614	-0.677460	0.732230	0.069906	-0.695862	-0.668796	0.261702
44146	8.641773	1.780631	13.481653	1.083765	0.246418	0.593000	0.235985	0.134638	0.962384	-0.686401	0.724130	0.067006	-0.687870	-0.676394	0.263299
44147	11.114339	0.748559	10.022819	-0.169172	-0.215449	0.124982	0.233586	0.134094	0.963045	-0.685561	0.725078	0.065323	-0.689524	-0.675485	0.261298
44148	11.347329	-0.404296	8.607790	-0.173266	0.089017	-0.073049	0.234655	0.134190	0.962772	-0.684237	0.726309	0.065536	-0.690476	-0.674143	0.262250
44149	10.713751	0.132510	7.589093	-0.227587	0.138102	-0.040412	0.235827	0.134833	0.962396	-0.682601	0.727869	0.065290	-0.691694	-0.672330	0.263688
44150	10.096878	-0.739123	5.761261	-0.589249	0.069854	0.103331	0.235566	0.136090	0.962283	-0.678805	0.731637	0.062700	-0.695509	-0.667973	0.264727
44151	10.095303	-1.069364	4.142328	-0.647142	0.241736	0.353766	0.234799	0.140301	0.961865	-0.675156	0.735427	0.057539	-0.699309	-0.662919	0.267403
44152	10.290896	0.607240	3.746910	-0.782458	0.379666	0.700325	0.232705	0.148011	0.961219	-0.671356	0.739536	0.048655	-0.703655	-0.656642	0.271462
44153	11.212886	3.065733	-0.815344	-0.744114	-0.096700	0.656072	0.227572	0.152252	0.961785	-0.667643	0.743391	0.040294	-0.708847	-0.651298	0.270824
44154	12.646242	0.768733	-5.191729	-0.831124	-0.820071	0.393639	0.219067	0.149904	0.964126	-0.662649	0.748147	0.034243	-0.716175	-0.646378	0.263228
44155	13.756754	-0.588870	-3.568544	-0.291451	-1.236013	0.369057	0.207686	0.144689	0.967436	-0.661374	0.749460	0.029893	-0.720729	-0.646045	0.251346
44156	15.217667	0.743328	2.247640	0.931953	-0.513810	0.067989	0.203493	0.141883	0.968741	-0.668249	0.743270	0.031512	-0.715565	-0.653773	0.246064
44157	12.806141	-0.729288	0.084649	2.426407	0.515688	-0.175388	0.208267	0.144017	0.967411	-0.685070	0.727422	0.039194	-0.698071	-0.670907	0.250160
44158	6.171556	-1.111217	-2.986329	3.151022	0.017788	-0.224004	0.209894	0.142554	0.967276	-0.706294	0.706208	0.049183	-0.676087	-0.693504	0.248913
44159	5.438160	1.008494	-5.545605	2.829583	-1.053379	-0.073205	0.203332	0.134631	0.969810	-0.725048	0.686357	0.056733	-0.657998	-0.714694	0.237172
44160	6.506087	1.409841	-7.236344	1.359265	-1.085850	0.185328	0.194817	0.128085	0.972441	-0.734342	0.676294	0.058039	-0.650221	-0.725411	0.225812
44161	4.366425	-0.755338	-9.275065	-0.209436	-0.280284	0.387670	0.190087	0.128680	0.973298	-0.733753	0.677286	0.053760	-0.652283	-0.724379	0.223163
44162	3.637241	-2.345819	-11.156921	-0.380020	-0.677399	0.515791	0.181806	0.127273	0.975063	-0.732251	0.679351	0.047858	-0.656319	-0.722692	0.216706
44163	5.916417	0.453400	-4.335643	-0.035640	-2.833267	0.964038	0.156012	0.113298	0.981236	-0.733673	0.678422	0.038317	-0.661351	-0.725884	0.188966
44164	11.684426	1.415315	5.374948	-0.602599	-3.825365	1.119864	0.122241	0.093131	0.988121	-0.731233	0.681624	0.026218	-0.671085	-0.725752	0.151423
44165	15.442781	-1.740392	3.491440	-0.868113	-1.847550	1.114956	0.101577	0.087393	0.990982	-0.726644	0.686873	0.013908	-0.679463	-0.721504	0.133275
44166	12.039668	-3.168746	-2.461899	-0.166969	-0.890697	1.056305	0.087763	0.088216	0.992228	-0.726526	0.687132	0.003171	-0.681511	-0.721157	0.124396
44167	10.078120	-1.017136	-3.265421	0.091211	-1.325381	0.829384	0.072637	0.084342	0.993786	-0.727838	0.685731	-0.004999	-0.681892	-0.722952	0.111197
44168	10.422160	-0.436516	-1.601305	-0.203619	-1.566259	0.464705	0.058472	0.076196	0.995377	-0.726766	0.686814	-0.009883	-0.684392	-0.722828	0.095536
44169	10.208944	-0.816904	-0.216252	-0.065310	-1.266702	0.260870	0.047840	0.068832	0.996481	-0.726481	0.687072	-0.012582	-0.685520	-0.723322	0.082875
44170	8.955922	-1.135341	0.690849	-0.295060	-1.229717	0.281152	0.037266	0.061865	0.997389	-0.724586	0.689006	-0.015664	-0.688176	-0.722110	0.070503
44171	8.525492	-2.116657	0.127973	-0.428211	-1.442469	0.401266	0.024352	0.054237	0.998231	-0.721778	0.691836	-0.019982	-0.691696	-0.720014	0.055995
44172	8.657190	-3.325081	-1.020988	-0.589953	-1.661974	0.542467	0.008823	0.046050	0.998900	-0.717786	0.695788	-0.025736	-0.696208	-0.716769	0.039193
44173	9.612509	-5.304724	-3.088720	-0.455736	-1.823000	0.660350	-0.008688	0.037613	0.999255	-0.714628	0.698749	-0.032515	-0.699451	-0.714377	0.020808
44174	10.466710	-4.677482	-3.074602	0.036183	-1.869076	0.699927	-0.026857	0.029132	0.999215	-0.714768	0.698241	-0.039569	-0.698845	-0.715270	0.002070
44175	10.452012	-2.681555	-1.795239	0.371516	-1.561445	0.544258	-0.041701	0.021737	0.998894	-0.717192	0.695416	-0.045074	-0.695627	-0.718278	-0.013410
44176	10.039235	-0.653234	-1.454432	0.549673	-1.166993	0.395058	-0.052739	0.016062	0.998479	-0.720828	0.691366	-0.049195	-0.691105	-0.722326	-0.024884
44177	9.370289	1.646885	-1.295030	0.421778	-1.130917	0.270682	-0.062548	0.009746	0.997994	-0.723597	0.688255	-0.052072	-0.687382	-0.725403	-0.035997
44178	9.396902	2.487715	-1.118837	-0.018775	-1.190309	0.364354	-0.073467	0.003609	0.997291	-0.723228	0.688353	-0.055769	-0.686690	-0.725366	-0.047961
44179	8.718290	2.957589	-0.716648	-0.578026	-1.330570	0.367251	-0.085333	-0.003478	0.996346	-0.718976	0.692512	-0.059160	-0.689776	-0.721398	-0.061594
44180	9.056975	1.267126	-0.904817	-0.955875	-1.674938	0.276610	-0.099011	-0.013593	0.994993	-0.712106	0.699390	-0.061307	-0.695056	-0.714611	-0.078927
44181	9.759313	-0.449931	-0.881941	-1.063314	-1.840304	0.241667	-0.113625	-0.024969	0.993210	-0.704445	0.706973	-0.062817	-0.700604	-0.706799	-0.097919
44182	10.147915	-2.038988	-0.998517	-1.036719	-1.802570	0.219191	-0.127937	-0.036094	0.991125	-0.696891	0.714320	-0.063943	-0.705673	-0.698887	-0.116541
44183	10.431711	-2.901757	-1.306147	-0.778289	-1.682894	0.213704	-0.141381	-0.046265	0.988874	-0.691115	0.719804	-0.065134	-0.708782	-0.692634	-0.133741
44184	10.614861	-2.916470	-1.509378	-0.448598	-1.497892	0.232824	-0.153712	-0.054940	0.986587	-0.687591	0.723013	-0.066865	-0.709641	-0.688647	-0.148912
44185	10.421734	-2.230615	-1.739994	-0.133187	-1.284890	0.227174	-0.164442	-0.062128	0.984428	-0.686300	0.724043	-0.068947	-0.708485	-0.686951	-0.161701
44186	10.182019	-1.303353	-1.888378	0.036631	-1.131288	0.220382	-0.174061	-0.068308	0.982363	-0.686188	0.723927	-0.071245	-0.706292	-0.686487	-0.172880
44187	9.941553	-0.604054	-1.960572	0.038365	-1.101645	0.198362	-0.183249	-0.074426	0.980245	-0.686118	0.723787	-0.073310	-0.704033	-0.685998	-0.183698
44188	9.537938	-0.438733	-1.809720	-0.019300	-1.139620	0.168933	-0.192523	-0.081022	0.977942	-0.685666	0.724043	-0.074998	-0.701995	-0.684980	-0.194949
44189	9.104427	-0.282507	-1.325924	-0.063308	-1.225245	0.145868	-0.202170	-0.088343	0.975358	-0.684947	0.724582	-0.076346	-0.699982	-0.683503	-0.206999
44190	9.162486	-0.302985	-1.088975	-0.153366	-1.357106	0.129461	-0.212647	-0.096670	0.972336	-0.683606	0.725741	-0.077349	-0.698187	-0.681142	-0.220410
44191	9.692684	-0.219938	-0.973192	-0.171259	-1.478074	0.131200	-0.223905	-0.105758	0.968856	-0.682137	0.727022	-0.078284	-0.696100	-0.678421	-0.234925
44192	10.066431	0.022234	-0.550178	-0.191126	-1.517486	0.123128	-0.235391	-0.115139	0.965057	-0.680525	0.728445	-0.079081	-0.693885	-0.675360	-0.249824
44193	10.413299	0.212569	0.041590	-0.282088	-1.510638	0.129108	-0.246795	-0.124363	0.961055	-0.678269	0.730484	-0.079650	-0.692129	-0.671511	-0.264632
44194	10.391031	0.546908	0.870070	-0.399783	-1.503223	0.156620	-0.258347	-0.133278	0.956815	-0.675108	0.733354	-0.080133	-0.691003	-0.666656	-0.279436
44195	10.605465	0.336969	1.686553	-0.581496	-1.552509	0.212243	-0.270559	-0.142009	0.952172	-0.670539	0.737490	-0.080542	-0.690779	-0.660259	-0.294757
44196	10.733539	0.102905	2.679339	-0.633193	-1.537035	0.254833	-0.282966	-0.150219	0.947293	-0.665460	0.742013	-0.081114	-0.690719	-0.653339	-0.309929
44197	10.735458	0.218772	3.696867	-0.715762	-1.417177	0.250308	-0.294475	-0.157552	0.942582	-0.659800	0.747035	-0.081264	-0.691338	-0.645846	-0.323936
44198	10.487821	0.045985	3.673826	-0.748686	-1.182724	0.178431	-0.303910	-0.163803	0.938513	-0.654090	0.752117	-0.080538	-0.692680	-0.638348	-0.335718
44199	10.499958	0.979076	3.947976	-0.567094	-0.915536	0.010632	-0.310382	-0.169531	0.935373	-0.650134	0.755727	-0.078761	-0.693534	-0.632563	-0.344781
44200	10.927250	-0.134372	3.519115	-1.185580	-0.812296	-0.003176	-0.316082	-0.174639	0.932520	-0.641901	0.763145	-0.074657	-0.698610	-0.622183	-0.353317
44201	11.170894	-2.395861	2.134517	-1.087364	-0.615436	-0.086108	-0.319904	-0.179088	0.930370	-0.634558	0.769696	-0.070030	-0.703561	-0.612777	-0.359870
44202	11.532977	-3.942711	1.352105	-0.891590	-0.534386	-0.099640	-0.323102	-0.183092	0.928484	-0.628605	0.774925	-0.065936	-0.707433	-0.604953	-0.365472
44203	12.032306	-4.391220	1.285913	-0.590328	-0.445802	-0.062669	-0.325924	-0.186252	0.926868	-0.624632	0.778354	-0.063237	-0.709654	-0.599562	-0.370023
44204	12.383675	-3.486363	1.970337	-0.370176	-0.219668	0.001458	-0.327545	-0.187527	0.926039	-0.622022	0.780545	-0.061949	-0.711198	-0.596308	-0.372310
44205	12.468049	-2.260769	2.443906	-0.272987	0.057113	0.035600	-0.327416	-0.186897	0.926212	-0.619969	0.782227	-0.061316	-0.713048	-0.594298	-0.371984
44206	12.938047	-1.203424	2.581131	-0.183316	0.165722	0.009608	-0.326336	-0.185804	0.926813	-0.618662	0.783301	-0.060801	-0.714677	-0.593225	-0.370569
44207	13.837576	-0.741319	3.006644	-0.101334	0.141285	-0.026208	-0.325219	-0.185159	0.927334	-0.618029	0.783844	-0.060236	-0.715732	-0.592710	-0.369355
44208	14.419191	-0.415923	4.221840	-0.022735	0.166183	-0.018140	-0.323950	-0.184277	0.927954	-0.617965	0.783908	-0.060061	-0.716362	-0.592900	-0.367824
44209	14.598292	0.350891	5.632363	0.127614	0.281121	0.009791	-0.322053	-0.182519	0.928961	-0.618855	0.783158	-0.060673	-0.716450	-0.594432	-0.365171
44210	14.886553	2.217546	6.267798	0.677367	0.517060	-0.016176	-0.318273	-0.179509	0.930848	-0.623798	0.779038	-0.063054	-0.713847	-0.600730	-0.359924
44211	14.723944	5.457938	5.608155	1.512247	1.286668	-0.196233	-0.307945	-0.173197	0.935507	-0.635174	0.769490	-0.066622	-0.708325	-0.614726	-0.346971
44212	12.550720	8.529548	4.111994	1.728519	2.105231	-0.401736	-0.290505	-0.163096	0.942871	-0.648630	0.757994	-0.068731	-0.703481	-0.631542	-0.325990
44213	10.338557	10.269420	3.119315	1.186230	2.063321	-0.799479	-0.270838	-0.155954	0.949908	-0.659217	0.749142	-0.064964	-0.701484	-0.643790	-0.305704
44214	10.970916	9.884126	3.084231	-0.090970	1.653526	-1.278616	-0.250735	-0.154814	0.955596	-0.661959	0.747695	-0.052556	-0.706359	-0.645743	-0.289954
44215	12.794549	7.522311	2.466740	-1.518856	1.791296	-1.533191	-0.227916	-0.154835	0.961291	-0.654802	0.755052	-0.033633	-0.720617	-0.637121	-0.273475
44216	15.308760	4.584247	-0.235346	-2.756798	2.236790	-1.538226	-0.201564	-0.152461	0.967537	-0.637970	0.769974	-0.011577	-0.743213	-0.619593	-0.252465
44217	16.205743	2.518326	-2.946612	-3.543105	2.914121	-1.376423	-0.170942	-0.145464	0.974484	-0.613722	0.789456	0.010186	-0.770794	-0.596321	-0.224226
44218	16.482557	1.456517	-5.692958	-4.279258	3.269938	-0.959720	-0.139452	-0.134084	0.981109	-0.581608	0.812972	0.028437	-0.801427	-0.566655	-0.191355
44219	16.654439	0.356897	-9.666852	-4.913564	2.724499	-0.193418	-0.116159	-0.120729	0.985866	-0.541722	0.839652	0.038996	-0.832493	-0.529536	-0.162935
44220	17.221150	-3.001775	-11.980910	-4.624034	1.244852	0.462305	-0.108012	-0.110380	0.988003	-0.502156	0.863776	0.041603	-0.858005	-0.491638	-0.148726
44221	17.004894	-2.871748	-7.390916	-2.848679	1.114757	0.366592	-0.100214	-0.101817	0.989743	-0.477137	0.877825	0.041992	-0.873096	-0.468035	-0.136551
44222	16.136343	-1.504175	-5.185390	-2.030269	2.474319	0.260438	-0.079661	-0.088070	0.992924	-0.459103	0.887395	0.041877	-0.884804	-0.452519	-0.111124
44223	13.842948	-0.849668	-7.392691	-1.465037	3.120685	0.176774	-0.052766	-0.072514	0.995971	-0.445983	0.894080	0.041467	-0.893485	-0.441998	-0.079517
44224	12.698796	-2.026244	-8.427586	-0.753243	2.910107	0.032307	-0.026827	-0.059370	0.997875	-0.439273	0.897391	0.041583	-0.897953	-0.437224	-0.050154
44225	13.688897	-1.444933	-6.484179	0.205696	2.840358	-0.073702	-0.001058	-0.047540	0.998869	-0.441157	0.896437	0.042198	-0.897429	-0.440613	-0.021921
44226	15.126126	-1.468407	-4.776375	0.497660	3.186992	-0.213230	0.028449	-0.035253	0.998973	-0.445640	0.894118	0.044244	-0.894760	-0.446441	0.009727
44227	13.405777	-2.087692	-4.697352	0.554537	3.901311	-0.237933	0.064288	-0.019817	0.997735	-0.450510	0.891547	0.046736	-0.890454	-0.452494	0.048388
44228	10.293675	-1.512445	-5.255619	0.625846	3.854514	-0.159724	0.099213	-0.003618	0.995060	-0.455989	0.888652	0.048696	-0.884438	-0.458568	0.086516
44229	9.205244	-1.281354	-4.633256	0.360279	3.297823	-0.186034	0.129090	0.009928	0.991583	-0.458986	0.886986	0.050872	-0.879015	-0.461690	0.119058
44230	9.255556	-2.605911	-4.774479	0.372057	2.973760	-0.138685	0.155759	0.022532	0.987538	-0.462105	0.885259	0.052687	-0.873039	-0.464553	0.148299
44231	8.467512	-2.534415	-4.884461	0.789440	2.915647	-0.131657	0.181649	0.035026	0.982740	-0.468776	0.881589	0.055227	-0.864438	-0.470717	0.176559
44232	7.349865	-1.252406	-4.354942	1.016259	2.769146	-0.164615	0.206190	0.046783	0.977393	-0.477250	0.876804	0.058713	-0.854235	-0.478567	0.203116
44233	6.560800	-1.043472	-4.219312	1.054413	2.390173	-0.205854	0.227423	0.056539	0.972153	-0.485794	0.871804	0.062943	-0.843969	-0.486580	0.225735
44234	5.997964	-1.432984	-4.156643	1.151028	2.118369	-0.135763	0.245810	0.065816	0.967081	-0.495185	0.866207	0.066914	-0.833288	-0.495332	0.245513
44235	5.427324	-1.063496	-3.894937	1.433370	1.923155	-0.068878	0.262010	0.074874	0.962156	-0.506905	0.859057	0.071187	-0.821217	-0.506374	0.263036
44236	5.088540	-1.237104	-3.934999	1.448335	1.656546	-0.061564	0.275777	0.082881	0.957642	-0.518606	0.851661	0.075637	-0.809317	-0.517498	0.277851
44237	5.068123	-1.471450	-4.551375	1.520076	1.346638	-0.038822	0.286745	0.089618	0.953806	-0.530748	0.843718	0.080286	-0.797548	-0.529252	0.289497
44238	5.079652	-1.374777	-4.904275	1.698786	1.160297	-0.017084	0.295954	0.095740	0.950392	-0.544198	0.834600	0.085389	-0.785022	-0.542473	0.299105
44239	4.540159	-0.999928	-5.096154	1.792916	1.030554	0.027571	0.303771	0.101647	0.947307	-0.558278	0.824700	0.090530	-0.772042	-0.556361	0.307267
44240	3.752958	-0.694207	-5.298028	1.833129	0.819317	0.016421	0.309876	0.106440	0.944800	-0.572418	0.814322	0.096002	-0.759154	-0.570570	0.313267
44241	3.562895	-0.382758	-5.161262	1.780668	0.547997	-0.033855	0.314144	0.109345	0.943058	-0.585762	0.804053	0.101896	-0.747126	-0.584417	0.316638
44242	3.647291	-0.028039	-5.094967	1.716629	0.336965	-0.088676	0.317084	0.110661	0.941919	-0.598263	0.793972	0.108118	-0.735893	-0.597798	0.317960
44243	3.619855	0.401411	-5.074062	1.651181	0.161428	-0.105392	0.318844	0.110817	0.941307	-0.610030	0.784088	0.114324	-0.725398	-0.610677	0.317603
44244	3.705273	1.090460	-4.666673	1.488244	-0.037248	-0.087328	0.319022	0.109929	0.941350	-0.620528	0.774980	0.119795	-0.716359	-0.622352	0.315449
44245	3.774263	2.164606	-4.267251	1.303627	-0.172740	-0.020756	0.317865	0.108696	0.941885	-0.629788	0.766798	0.124049	-0.708752	-0.632618	0.312193
44246	4.007946	3.529193	-3.893409	1.017399	-0.358355	0.085383	0.314697	0.107077	0.943133	-0.637285	0.760202	0.126336	-0.703444	-0.640802	0.307472
44247	4.265150	4.454153	-3.710083	0.769531	-0.631715	0.271273	0.308469	0.105073	0.945413	-0.643568	0.754933	0.126080	-0.700476	-0.647330	0.300495
44248	4.444009	4.809143	-3.125965	0.542847	-1.005856	0.442266	0.298470	0.101862	0.948968	-0.648747	0.750926	0.123440	-0.700031	-0.652483	0.290211
44249	5.597699	3.907813	-2.381224	0.489508	-1.464703	0.506900	0.284850	0.096073	0.953745	-0.653690	0.747193	0.119968	-0.701106	-0.657627	0.275640
44250	9.610245	3.385812	0.266258	0.559316	-2.001957	0.654764	0.266397	0.087708	0.959865	-0.659449	0.742880	0.115140	-0.702965	-0.663654	0.255740
44251	18.205340	5.525312	9.736687	0.319889	-1.616621	0.902018	0.248989	0.083644	0.964888	-0.664059	0.739953	0.107215	-0.705004	-0.667437	0.239785
44252	22.403676	8.242939	21.286371	-1.301407	0.590173	0.667991	0.248665	0.092504	0.964162	-0.656523	0.747970	0.097561	-0.712140	-0.657254	0.246725
44253	12.909908	4.172980	20.410457	-2.046062	1.556948	0.385954	0.257261	0.105527	0.960563	-0.642866	0.760839	0.088590	-0.721485	-0.640303	0.263574
44254	9.968035	1.594753	14.772979	0.027890	0.589271	0.525844	0.258053	0.113296	0.959465	-0.644451	0.760064	0.083578	-0.719786	-0.639896	0.269151
44255	11.324117	1.469589	10.384990	0.472613	0.051374	0.446655	0.255476	0.117022	0.959707	-0.649026	0.756492	0.080529	-0.716587	-0.643448	0.269216
44256	11.624606	0.850783	8.427836	0.366996	0.288216	0.036514	0.257241	0.119167	0.958971	-0.651778	0.754057	0.081135	-0.713451	-0.645908	0.271645
44257	10.728711	0.951773	8.303209	0.586477	0.479132	-0.069493	0.261045	0.121757	0.957617	-0.655801	0.750316	0.083371	-0.708365	-0.649770	0.275714
44258	10.606933	1.037243	7.238465	0.521052	0.312475	0.041230	0.262928	0.124119	0.956799	-0.659627	0.746841	0.084382	-0.704103	-0.653316	0.278238
44259	10.961987	1.387889	6.596034	-0.043081	0.134877	0.208406	0.262445	0.126565	0.956611	-0.659905	0.746836	0.082233	-0.704023	-0.652854	0.279524
44260	10.639438	1.339354	5.385152	-0.817288	0.250447	0.466039	0.261101	0.131706	0.956284	-0.655392	0.751512	0.075443	-0.708723	-0.646439	0.282540
44261	10.084089	1.159366	3.064269	-1.225283	0.331235	0.731506	0.258634	0.139364	0.955869	-0.648599	0.758356	0.064928	-0.715841	-0.636768	0.286527
44262	11.106750	2.903703	3.126859	-1.514214	0.073959	0.949915	0.252999	0.147098	0.956218	-0.640158	0.766518	0.051459	-0.725389	-0.625150	0.288094
44263	11.469234	1.892583	-0.549991	-2.058181	-0.397458	0.810677	0.244894	0.150915	0.957733	-0.627135	0.777994	0.037767	-0.739411	-0.609877	0.285170
44264	11.023565	-2.633036	-4.581599	-1.864808	-0.691842	0.493961	0.236619	0.150632	0.959855	-0.614450	0.788468	0.027736	-0.752637	-0.596346	0.279123
44265	11.316886	-3.658179	-1.667935	-0.724602	-0.819944	0.321482	0.228397	0.148315	0.962205	-0.609755	0.792267	0.022616	-0.758969	-0.591874	0.271387
44266	12.578999	-3.319837	1.397251	0.747478	-0.360865	-0.003063	0.225625	0.146162	0.963187	-0.615444	0.787796	0.024621	-0.755196	-0.598343	0.267701
44267	11.195932	-2.452603	-2.410324	2.479092	0.333243	-0.278023	0.229794	0.146029	0.962222	-0.633366	0.773108	0.033929	-0.738947	-0.617235	0.270145
44268	6.460544	-0.963452	-4.953486	3.411948	0.079444	-0.267046	0.232029	0.144510	0.961914	-0.657623	0.751963	0.045660	-0.716725	-0.643171	0.269510
44269	4.134272	1.014352	-6.002612	3.453019	-0.598943	0.028119	0.227554	0.140795	0.963533	-0.682095	0.729228	0.054530	-0.694957	-0.669630	0.261975
44270	4.852333	1.727202	-7.079127	2.270435	-0.905677	0.239234	0.219595	0.136380	0.966012	-0.698286	0.713465	0.058009	-0.681304	-0.687291	0.251905
44271	5.440117	-0.126367	-7.987276	0.628494	-0.817269	0.451762	0.210813	0.133957	0.968304	-0.703562	0.708489	0.055161	-0.678644	-0.692891	0.243606
44272	6.339181	0.269550	-7.174885	0.147007	-1.376034	0.787905	0.195823	0.129966	0.971989	-0.706187	0.706408	0.047818	-0.680406	-0.695770	0.230111
44273	9.113914	3.053088	-1.809268	0.042264	-2.812437	1.146162	0.168451	0.118435	0.978569	-0.708593	0.704663	0.036693	-0.685216	-0.699588	0.202623
44274	13.741643	3.909031	5.669460	-0.042026	-3.436656	1.289598	0.135563	0.103388	0.985360	-0.710280	0.703513	0.023903	-0.690742	-0.703122	0.168805
44275	14.355317	2.391461	4.573584	-0.589038	-1.442337	1.280577	0.116417	0.102297	0.987918	-0.707834	0.706304	0.010276	-0.696719	-0.700479	0.154635
44276	9.420830	0.496588	-0.982850	-0.815438	-0.593500	1.086665	0.104511	0.105834	0.988877	-0.703340	0.710851	-0.001745	-0.703129	-0.695334	0.148729
44277	7.438443	0.628749	-3.740870	-1.007476	-1.326935	0.764340	0.089714	0.102108	0.990720	-0.696983	0.717007	-0.010783	-0.711454	-0.689547	0.135493
44278	8.596772	0.122538	-3.516484	-1.179442	-1.942355	0.375275	0.073111	0.091458	0.993121	-0.688848	0.724729	-0.016030	-0.721210	-0.682938	0.115986
44279	9.855319	-1.287901	-1.414214	-1.228892	-1.708222	0.165320	0.059518	0.081067	0.994930	-0.680061	0.732908	-0.019035	-0.730736	-0.675480	0.098752
44280	9.725862	-2.688089	0.103317	-0.972601	-1.350283	0.187763	0.048237	0.073341	0.996140	-0.673024	0.739298	-0.021840	-0.738046	-0.669373	0.085022
44281	9.402275	-4.087969	0.372953	-0.810964	-1.365301	0.351242	0.035707	0.066850	0.997124	-0.667187	0.744436	-0.026017	-0.744034	-0.664339	0.071183
44282	9.093918	-5.806628	-1.091796	-0.667899	-1.482261	0.641795	0.020276	0.061801	0.997883	-0.662387	0.748440	-0.032893	-0.748888	-0.660317	0.056111
44283	9.875291	-6.672886	-3.128005	-0.379427	-1.753948	0.812132	0.001689	0.056329	0.998411	-0.659653	0.750439	-0.041223	-0.751568	-0.658535	0.038426
44284	10.964812	-5.481798	-2.588656	0.123172	-1.910877	0.767213	-0.017838	0.049463	0.998617	-0.660523	0.749211	-0.048909	-0.750594	-0.660482	0.019307
44285	10.996751	-4.143054	-2.011469	0.526877	-1.553686	0.608770	-0.033562	0.043723	0.998480	-0.664333	0.745412	-0.054971	-0.746683	-0.665168	0.004029
44286	10.371763	-1.500255	-1.435582	0.930482	-1.112558	0.484589	-0.045187	0.039864	0.998183	-0.671066	0.738975	-0.059891	-0.740020	-0.672553	-0.006640
44287	9.637433	1.089129	-1.236166	0.783037	-0.982584	0.403053	-0.055205	0.036200	0.997819	-0.676656	0.733508	-0.064048	-0.734227	-0.678716	-0.015998
44288	9.239645	2.113685	-1.224267	0.397305	-1.080001	0.452943	-0.066308	0.032152	0.997281	-0.679295	0.730641	-0.068721	-0.730864	-0.682004	-0.026606
44289	8.771249	3.236512	-0.333413	-0.077134	-1.253040	0.460930	-0.078652	0.026983	0.996537	-0.678416	0.731008	-0.073337	-0.730456	-0.681835	-0.039190
44290	8.983894	2.224491	-0.797805	-0.542816	-1.538336	0.342965	-0.092343	0.019015	0.995546	-0.674150	0.734615	-0.076563	-0.732799	-0.678218	-0.055018
44291	9.588389	0.844177	-0.798357	-0.772518	-1.814573	0.211687	-0.107151	0.008325	0.994208	-0.668283	0.739783	-0.078219	-0.736150	-0.672794	-0.073705
44292	10.172508	-0.832227	-1.039613	-0.858982	-1.914671	0.173009	-0.122544	-0.003234	0.992458	-0.661741	0.745529	-0.079280	-0.739649	-0.666466	-0.093500
44293	10.251399	-1.553440	-0.940486	-0.793949	-1.777719	0.188647	-0.137021	-0.013608	0.990475	-0.655629	0.750792	-0.080383	-0.742547	-0.660399	-0.111796
44294	10.218724	-2.027406	-1.225063	-0.610649	-1.621500	0.198887	-0.150488	-0.022799	0.988349	-0.650799	0.754844	-0.081679	-0.744187	-0.655508	-0.128433
44295	10.131037	-1.722667	-1.323944	-0.311197	-1.451619	0.234443	-0.162870	-0.030514	0.986176	-0.648132	0.756923	-0.083620	-0.743908	-0.652791	-0.143057
44296	10.073821	-1.101955	-1.399118	-0.141857	-1.349926	0.241964	-0.174584	-0.037500	0.983928	-0.646663	0.757929	-0.085854	-0.742528	-0.651259	-0.156573
44297	10.038667	-0.492869	-1.292556	-0.085244	-1.335388	0.204984	-0.185870	-0.044626	0.981560	-0.645676	0.758549	-0.087780	-0.740645	-0.650086	-0.169806
44298	9.863492	-0.222880	-1.085868	-0.140563	-1.349629	0.140903	-0.196878	-0.052334	0.979030	-0.644359	0.759529	-0.088976	-0.738945	-0.648365	-0.183256
44299	9.559194	-0.526280	-0.712838	-0.265669	-1.337184	0.059007	-0.207190	-0.060528	0.976427	-0.642292	0.761264	-0.089099	-0.737925	-0.645611	-0.196602
44300	9.220466	-1.289543	-0.579600	-0.316719	-1.361326	0.025692	-0.217506	-0.069113	0.973609	-0.639894	0.763319	-0.088768	-0.737039	-0.642314	-0.210251
44301	9.308973	-1.669410	-0.447418	-0.282649	-1.470728	0.022850	-0.228538	-0.078352	0.970377	-0.637774	0.765130	-0.088426	-0.735537	-0.639090	-0.224832
44302	9.885002	-1.747880	-0.147131	-0.235725	-1.570963	0.059317	-0.240564	-0.087924	0.966643	-0.635897	0.766681	-0.088517	-0.733324	-0.635979	-0.240346
44303	10.537999	-1.480181	0.229204	-0.233253	-1.553507	0.114762	-0.252724	-0.096888	0.962675	-0.633918	0.768251	-0.089097	-0.730944	-0.632774	-0.255574
44304	10.809683	-1.013255	0.738660	-0.269941	-1.398300	0.177669	-0.264161	-0.104352	0.958817	-0.631482	0.770130	-0.090162	-0.729005	-0.629293	-0.269335
44305	10.304804	-0.547361	1.104354	-0.326371	-1.206599	0.227645	-0.274441	-0.110156	0.955274	-0.628502	0.772408	-0.091494	-0.727782	-0.625501	-0.281214
44306	9.799803	0.017796	1.706441	-0.198459	-1.143878	0.159969	-0.283858	-0.116060	0.951816	-0.626610	0.773822	-0.092516	-0.725799	-0.622679	-0.292380
44307	10.115306	0.627057	2.720688	-0.451032	-1.348394	0.253014	-0.295275	-0.122449	0.947533	-0.622615	0.776907	-0.093623	-0.724681	-0.617593	-0.305640
44308	10.532076	0.830073	3.208525	-0.557589	-1.352422	0.197742	-0.306388	-0.129219	0.943095	-0.617980	0.780577	-0.093815	-0.724035	-0.611558	-0.319014
44309	11.243956	1.067329	3.630696	-0.695585	-1.132234	0.108921	-0.315316	-0.135240	0.939301	-0.612610	0.784938	-0.092634	-0.724765	-0.604634	-0.330353
44310	11.586975	0.297312	2.986062	-0.923085	-0.794120	0.042202	-0.321419	-0.139669	0.936580	-0.605774	0.790530	-0.090003	-0.727824	-0.596284	-0.338699
44311	11.553014	-1.456062	1.701268	-0.980812	-0.551532	-0.005804	-0.325465	-0.142967	0.934683	-0.598641	0.796317	-0.086650	-0.731916	-0.587742	-0.344759
44312	11.494606	-2.832556	0.838076	-0.817826	-0.519032	-0.009676	-0.329282	-0.146063	0.932866	-0.592681	0.801069	-0.083777	-0.735053	-0.580478	-0.350346
44313	11.791239	-3.173090	0.869241	-0.618605	-0.550340	0.007552	-0.333433	-0.149167	0.930898	-0.588111	0.804642	-0.081716	-0.736850	-0.574718	-0.356020
44314	12.316616	-2.598037	1.528874	-0.451413	-0.427394	0.034982	-0.336851	-0.151312	0.929320	-0.584677	0.807264	-0.080489	-0.738028	-0.570464	-0.360396
44315	12.398541	-1.419195	2.139012	-0.335920	-0.098834	0.073183	-0.338063	-0.151268	0.928887	-0.581955	0.809275	-0.080009	-0.739623	-0.567619	-0.361618
44316	11.968592	-0.129183	2.357722	-0.277171	0.219953	0.078208	-0.336941	-0.149362	0.929603	-0.579656	0.810944	-0.079803	-0.741937	-0.565739	-0.359819
44317	11.882998	0.773966	2.455814	-0.205832	0.225735	0.023807	-0.335457	-0.147878	0.930377	-0.578054	0.812132	-0.079339	-0.743856	-0.564423	-0.357917
44318	12.745738	1.085740	3.376117	-0.195955	-0.088751	-0.085028	-0.335668	-0.149039	0.930115	-0.576903	0.813089	-0.077911	-0.744654	-0.562738	-0.358909
44319	14.141576	0.496118	5.391188	-0.305215	-0.409536	-0.189118	-0.337684	-0.152861	0.928764	-0.575274	0.814505	-0.075105	-0.745003	-0.559656	-0.362983
44320	14.817505	-0.467377	7.534065	-0.299254	-0.348448	-0.171340	-0.339323	-0.156167	0.927616	-0.573651	0.815887	-0.072485	-0.745510	-0.556723	-0.366434
44321	15.343621	0.188979	8.931263	0.387387	0.308526	-0.180375	-0.336042	-0.155898	0.928855	-0.577153	0.813431	-0.072278	-0.744292	-0.560380	-0.363324
44322	15.266232	2.846977	7.528195	1.372488	1.660035	-0.339064	-0.321737	-0.149180	0.935003	-0.588503	0.805097	-0.074052	-0.741721	-0.574077	-0.346822
44323	12.793155	5.924170	4.531148	1.580268	2.594235	-0.532304	-0.299398	-0.138319	0.944049	-0.601876	0.795118	-0.074383	-0.740342	-0.590470	-0.321308
44324	10.302338	8.389180	2.490298	1.238643	2.507143	-0.896755	-0.275375	-0.130392	0.952453	-0.613662	0.786481	-0.069753	-0.739991	-0.603693	-0.296594
44325	9.694974	9.594363	2.080362	0.136970	1.955967	-1.310917	-0.252841	-0.128829	0.958892	-0.618152	0.783940	-0.057670	-0.744284	-0.607323	-0.277848
44326	13.279308	6.535599	0.841049	-1.436346	1.373530	-1.530152	-0.233097	-0.132556	0.963377	-0.611128	0.790566	-0.039089	-0.756431	-0.597859	-0.265287
44327	16.347633	3.138089	-0.176048	-2.224714	2.031542	-1.575921	-0.208078	-0.133095	0.969015	-0.597589	0.801595	-0.018222	-0.774332	-0.582864	-0.246331
44328	17.920637	1.768125	-2.516460	-3.033932	3.003053	-1.271406	-0.176960	-0.126147	0.976101	-0.576218	0.817295	0.001159	-0.797909	-0.562241	-0.217316
44329	16.260371	1.059336	-5.696576	-3.697863	3.301706	-0.686030	-0.146381	-0.113677	0.982675	-0.547351	0.836764	0.015264	-0.824002	-0.535633	-0.184707
44330	17.136172	-0.346542	-9.463043	-4.356897	2.386901	-0.085163	-0.125898	-0.101974	0.986788	-0.511020	0.859245	0.023596	-0.850299	-0.501298	-0.160288
44331	16.290081	-2.327784	-9.130433	-4.110486	1.282019	0.435976	-0.117062	-0.091955	0.988858	-0.475107	0.879557	0.025548	-0.872107	-0.466822	-0.146651
44332	16.556777	-1.800780	-5.652970	-2.987362	1.534380	0.304239	-0.104931	-0.082238	0.991073	-0.448518	0.893377	0.026644	-0.887593	-0.441718	-0.130628
44333	16.349745	-2.488218	-6.388160	-2.255473	2.641365	0.182163	-0.082174	-0.069150	0.994216	-0.428210	0.903263	0.027431	-0.899935	-0.423479	-0.103836
44334	14.165966	-1.924196	-7.609246	-1.473594	3.076741	0.109721	-0.054791	-0.055247	0.996968	-0.414851	0.909471	0.027599	-0.908238	-0.412081	-0.072750
44335	13.406443	-2.941155	-8.580402	-0.719546	2.960594	-0.115216	-0.027418	-0.044145	0.998649	-0.408374	0.912350	0.029118	-0.912403	-0.407024	-0.043042
44336	13.896537	-2.721815	-6.581174	0.255991	3.021402	-0.213179	0.001026	-0.033682	0.999432	-0.410780	0.911203	0.031130	-0.911734	-0.410578	-0.012901
44337	14.692589	-3.322224	-5.708474	0.843695	3.537596	-0.217897	0.034059	-0.020959	0.999200	-0.418446	0.907631	0.033302	-0.907603	-0.419246	0.022143
44338	13.309604	-2.158542	-4.564710	1.227463	3.834027	-0.275100	0.069887	-0.007093	0.997530	-0.429447	0.902354	0.036504	-0.900384	-0.430938	0.060017
44339	10.938193	-2.247307	-4.638715	0.930564	3.730385	-0.286899	0.104532	0.006582	0.994500	-0.437575	0.898290	0.040048	-0.893085	-0.439354	0.096781
44340	9.572912	-2.325229	-4.675550	0.898340	3.408311	-0.198338	0.135697	0.019966	0.990549	-0.445373	0.894313	0.042986	-0.885002	-0.446997	0.130248
44341	9.295870	-2.625793	-4.713379	0.928920	3.004644	-0.168247	0.162862	0.032033	0.986129	-0.453337	0.890154	0.045954	-0.876334	-0.454533	0.159494
44342	8.646320	-2.290168	-4.876916	1.175336	2.833956	-0.161973	0.188265	0.043666	0.981147	-0.463344	0.884793	0.049530	-0.865949	-0.463933	0.186808
44343	7.620140	-1.046746	-4.637164	1.382831	2.679609	-0.187934	0.212139	0.054610	0.975712	-0.474897	0.878378	0.054090	-0.854090	-0.474837	0.212273
44344	6.776167	-0.792234	-4.509283	1.440231	2.376053	-0.230809	0.233357	0.064059	0.970279	-0.486648	0.871569	0.059499	-0.841854	-0.486069	0.234561
44345	6.149640	-0.872859	-4.249450	1.508075	2.127219	-0.249730	0.252307	0.072376	0.964937	-0.498680	0.864303	0.065565	-0.829252	-0.497737	0.254163
44346	5.857883	-1.027319	-4.106286	1.553206	1.841825	-0.231660	0.268582	0.079708	0.959953	-0.510910	0.856629	0.071817	-0.816599	-0.509739	0.270799
44347	5.735205	-1.069792	-4.166165	1.618889	1.605143	-0.207352	0.282605	0.086242	0.955352	-0.523493	0.848427	0.078267	-0.803797	-0.522239	0.284917
44348	5.411996	-1.591744	-4.426223	1.651999	1.443566	-0.172396	0.294966	0.092458	0.951024	-0.536218	0.839823	0.084664	-0.790863	-0.534929	0.297297
44349	4.761222	-1.552751	-5.057554	1.844717	1.321099	-0.115382	0.305894	0.098673	0.946939	-0.550370	0.829913	0.091310	-0.776866	-0.549098	0.308172
44350	4.236492	-0.847703	-5.324467	1.979206	1.090846	-0.117128	0.314869	0.103816	0.943440	-0.565290	0.818985	0.098543	-0.762433	-0.564345	0.316559
44351	3.692579	-0.185268	-5.422308	1.990495	0.869906	-0.154044	0.322267	0.107554	0.940519	-0.579873	0.807740	0.106323	-0.748259	-0.579646	0.322675
44352	3.592741	0.563307	-5.460866	1.917511	0.625040	-0.236941	0.328209	0.109348	0.938255	-0.593370	0.796713	0.114713	-0.734976	-0.594383	0.326372
44353	3.934397	1.219359	-5.434376	1.732015	0.367289	-0.311412	0.332698	0.109103	0.936701	-0.605009	0.786619	0.123265	-0.723379	-0.607722	0.327715
44354	4.231081	1.965624	-5.222661	1.502260	0.281161	-0.274991	0.336303	0.108691	0.935461	-0.614924	0.777678	0.130710	-0.713280	-0.619196	0.328372
44355	3.780084	2.973581	-4.786389	1.270096	0.288283	-0.150813	0.339225	0.109334	0.934330	-0.623456	0.769893	0.136264	-0.704436	-0.628737	0.329332
44356	3.487012	4.049686	-4.358645	0.962538	0.148821	-0.022144	0.340310	0.110106	0.933845	-0.630169	0.763808	0.139587	-0.697909	-0.635983	0.329317
44357	3.543338	4.928068	-3.959312	0.645241	-0.138917	0.184121	0.338122	0.110631	0.934577	-0.635322	0.759460	0.139952	-0.694291	-0.641078	0.327077
44358	3.601870	5.226635	-3.595332	0.367509	-0.592216	0.309242	0.331942	0.109153	0.936963	-0.638942	0.756739	0.138203	-0.693951	-0.644540	0.320936
44359	4.700342	4.806686	-2.407620	0.314728	-1.242132	0.341462	0.321066	0.103713	0.941361	-0.642280	0.754316	0.135954	-0.695983	-0.648268	0.308798
44360	7.837038	3.750952	-0.541223	0.464324	-1.796060	0.365524	0.306087	0.094743	0.947277	-0.646690	0.750916	0.133856	-0.698643	-0.653567	0.291115
44361	13.280250	4.601382	5.582524	0.449794	-2.052636	0.484207	0.288514	0.084910	0.953703	-0.651315	0.747505	0.130483	-0.701818	-0.658807	0.270969
44362	21.648022	6.406976	16.530643	-0.697548	-0.962096	0.471070	0.278569	0.082089	0.956902	-0.647751	0.751679	0.124087	-0.709097	-0.654401	0.262568
44363	17.747884	5.967275	18.888875	-2.006390	1.298504	0.473662	0.284742	0.094080	0.953976	-0.634800	0.764204	0.114110	-0.718297	-0.638076	0.277324
44364	9.785366	3.209268	14.841086	-1.598615	1.576013	0.566200	0.292464	0.108360	0.950117	-0.624930	0.773706	0.104125	-0.723828	-0.624210	0.293998
44365	8.009511	-0.404707	10.735298	-0.588801	0.785738	0.557135	0.294626	0.117574	0.948352	-0.622335	0.776711	0.097047	-0.725186	-0.618786	0.302009
