// General information: 
//  MT Manager version: 2022.2.0 
//  XDA version: 2022.2.0 build 7381 rev 124627 built on 2023-07-19
// Device information: 
//  DeviceId: 00B4CAF0
//  ProductCode: MTW2-3A7G6
//  Firmware Version: 4.6.0
//  Hardware Version: 2.0.0
// Device settings: 
//  Filter Profile: human(46.1)
//  Option Flags: Orientation Smoother Disabled, Position/Velocity Smoother Disabled, Continuous Zero Rotation Update Disabled, AHS Disabled, ICC Disabled
// Coordinate system: ENU
PacketCounter	Acc_X	Acc_Y	Acc_Z	Gyr_X	Gyr_Y	Gyr_Z	Mat[1][1]	Mat[2][1]	Mat[3][1]	Mat[1][2]	Mat[2][2]	Mat[3][2]	Mat[1][3]	Mat[2][3]	Mat[3][3]
58735	5.239137	-0.072054	8.729086	-0.003355	0.003423	0.007569	0.795216	0.322970	0.513149	-0.371391	0.928435	-0.008809	-0.479271	-0.183574	0.858254
58736	5.229051	-0.081998	8.761276	-0.005546	0.008542	0.006463	0.795235	0.323004	0.513098	-0.371375	0.928441	-0.008886	-0.479252	-0.183485	0.858284
58737	5.210137	-0.028960	8.715716	-0.008330	0.007610	0.008284	0.795239	0.323060	0.513057	-0.371369	0.928442	-0.008994	-0.479249	-0.183381	0.858308
58738	5.259012	-0.101558	8.728927	-0.002915	0.005542	0.008263	0.795237	0.323105	0.513031	-0.371380	0.928437	-0.009058	-0.479244	-0.183326	0.858322
58739	5.211611	-0.076026	8.778880	-0.008101	0.006013	0.008861	0.795238	0.323150	0.513002	-0.371363	0.928442	-0.009169	-0.479255	-0.183219	0.858339
58740	5.259868	-0.080830	8.755560	-0.006611	0.010992	0.007779	0.795264	0.323200	0.512929	-0.371352	0.928446	-0.009262	-0.479221	-0.183112	0.858381
58741	5.252788	-0.063714	8.740843	-0.005332	0.012256	0.006580	0.795304	0.323232	0.512847	-0.371327	0.928455	-0.009338	-0.479174	-0.183007	0.858429
58742	5.212286	-0.051696	8.733354	-0.005275	0.012038	0.010319	0.795326	0.323308	0.512766	-0.371342	0.928448	-0.009433	-0.479126	-0.182909	0.858477
58743	5.217302	-0.070710	8.749287	-0.005942	0.011514	0.009049	0.795349	0.323372	0.512689	-0.371347	0.928445	-0.009525	-0.479084	-0.182810	0.858521
58744	5.227894	-0.039948	8.743975	-0.006951	0.013746	0.014103	0.795365	0.323486	0.512593	-0.371384	0.928429	-0.009654	-0.479029	-0.182691	0.858577
58745	5.214999	-0.073201	8.750639	-0.009847	0.013249	0.008447	0.795402	0.323541	0.512501	-0.371356	0.928439	-0.009777	-0.478989	-0.182544	0.858631
58746	5.235630	-0.101205	8.750029	-0.005045	0.010439	0.010895	0.795413	0.323619	0.512434	-0.371377	0.928429	-0.009873	-0.478954	-0.182453	0.858670
58747	5.212874	-0.075598	8.751885	-0.010684	0.014102	0.010339	0.795453	0.323680	0.512333	-0.371343	0.928442	-0.010015	-0.478913	-0.182285	0.858728
58748	5.251221	-0.089872	8.760660	-0.007218	0.010246	0.010247	0.795467	0.323752	0.512267	-0.371349	0.928438	-0.010127	-0.478887	-0.182175	0.858766
58749	5.232522	-0.104769	8.751846	-0.004432	0.011178	0.008428	0.795492	0.323805	0.512194	-0.371350	0.928437	-0.010203	-0.478843	-0.182087	0.858809
58750	5.225413	-0.087726	8.737165	-0.007670	0.013436	0.009095	0.795525	0.323872	0.512101	-0.371344	0.928438	-0.010312	-0.478793	-0.181962	0.858864
58751	5.232397	-0.084101	8.779071	-0.006831	0.012582	0.007203	0.795564	0.323910	0.512015	-0.371317	0.928448	-0.010405	-0.478750	-0.181842	0.858913
58752	5.213387	-0.098879	8.770431	-0.005109	0.015963	0.006700	0.795618	0.323960	0.511901	-0.371305	0.928452	-0.010480	-0.478670	-0.181733	0.858981
58753	5.227820	-0.108617	8.754609	-0.003708	0.011477	0.013437	0.795625	0.324065	0.511824	-0.371356	0.928430	-0.010574	-0.478619	-0.181656	0.859026
58754	5.242264	-0.118434	8.738783	-0.007280	0.015771	0.006051	0.795680	0.324108	0.511710	-0.371328	0.928441	-0.010664	-0.478549	-0.181527	0.859092
58755	5.225237	-0.110656	8.756125	-0.007225	0.015550	0.009790	0.795717	0.324191	0.511601	-0.371338	0.928435	-0.010771	-0.478481	-0.181406	0.859156
58756	5.199980	-0.107471	8.732299	-0.003997	0.018599	0.008667	0.795776	0.324263	0.511463	-0.371346	0.928431	-0.010847	-0.478376	-0.181298	0.859237
58757	5.231820	-0.103224	8.726094	-0.003770	0.017002	0.009243	0.795827	0.324333	0.511340	-0.371355	0.928427	-0.010922	-0.478284	-0.181196	0.859309
58758	5.198976	-0.086210	8.760050	-0.000983	0.017933	0.007425	0.795887	0.324392	0.511208	-0.371368	0.928421	-0.010965	-0.478173	-0.181119	0.859387
58759	5.219038	-0.113714	8.759782	-0.004661	0.018075	0.007396	0.795951	0.324446	0.511075	-0.371357	0.928425	-0.011039	-0.478076	-0.181005	0.859465
58760	5.217382	-0.114343	8.760760	-0.001206	0.019527	0.006850	0.796021	0.324503	0.510929	-0.371364	0.928421	-0.011081	-0.477954	-0.180920	0.859551
58761	5.249018	-0.109694	8.754711	0.002302	0.020758	0.010043	0.796088	0.324585	0.510772	-0.371406	0.928404	-0.011108	-0.477809	-0.180861	0.859644
58762	5.213564	-0.115186	8.763022	-0.004275	0.025717	0.003896	0.796199	0.324626	0.510574	-0.371376	0.928416	-0.011162	-0.477648	-0.180728	0.859761
58763	5.191895	-0.066126	8.791381	-0.000094	0.022161	0.008817	0.796272	0.324708	0.510407	-0.371408	0.928402	-0.011203	-0.477501	-0.180649	0.859860
58764	5.197611	-0.148076	8.771388	-0.001207	0.024829	0.006394	0.796369	0.324771	0.510216	-0.371412	0.928400	-0.011242	-0.477336	-0.180547	0.859973
58765	5.219105	-0.084701	8.760819	-0.000092	0.022158	0.008817	0.796442	0.324852	0.510050	-0.371442	0.928387	-0.011285	-0.477190	-0.180467	0.860071
58766	5.199314	-0.098939	8.752601	0.000302	0.024494	0.005774	0.796540	0.324908	0.509862	-0.371448	0.928385	-0.011308	-0.477022	-0.180380	0.860182
58767	5.187478	-0.108431	8.785668	0.001193	0.023418	0.007622	0.796621	0.324987	0.509684	-0.371485	0.928370	-0.011331	-0.476858	-0.180314	0.860287
58768	5.155738	-0.086482	8.746809	0.000305	0.024491	0.005775	0.796719	0.325043	0.509496	-0.371491	0.928367	-0.011355	-0.476690	-0.180227	0.860398
58769	5.210764	-0.085919	8.765771	0.000529	0.022894	0.006351	0.796808	0.325099	0.509322	-0.371501	0.928363	-0.011378	-0.476534	-0.180148	0.860501
58770	5.147938	-0.114213	8.796295	0.001593	0.020445	0.005036	0.796889	0.325140	0.509168	-0.371507	0.928360	-0.011386	-0.476394	-0.180086	0.860592
58771	5.189375	-0.100371	8.758482	-0.001147	0.019292	0.010588	0.796946	0.325227	0.509023	-0.371541	0.928346	-0.011445	-0.476272	-0.180002	0.860677
58772	5.205402	-0.087067	8.768945	-0.001194	0.019512	0.006850	0.797015	0.325284	0.508878	-0.371548	0.928343	-0.011487	-0.476149	-0.179917	0.860762
58773	5.191780	-0.119434	8.775889	-0.000750	0.021626	0.007546	0.797099	0.325336	0.508714	-0.371545	0.928344	-0.011530	-0.476012	-0.179820	0.860859
58774	5.184055	-0.101682	8.761617	0.002487	0.019366	0.006885	0.797168	0.325392	0.508569	-0.371570	0.928333	-0.011540	-0.475877	-0.179770	0.860944
58775	5.176417	-0.084013	8.747294	-0.002698	0.019841	0.007468	0.797239	0.325448	0.508422	-0.371566	0.928334	-0.011599	-0.475761	-0.179665	0.861030
58776	5.186551	-0.120426	8.778967	0.005549	0.018478	0.009388	0.797295	0.325526	0.508285	-0.371626	0.928310	-0.011596	-0.475621	-0.179647	0.861111
58777	5.218184	-0.115720	8.773047	-0.003805	0.022508	0.005043	0.797384	0.325572	0.508116	-0.371608	0.928317	-0.011651	-0.475486	-0.179530	0.861210
58778	5.194695	-0.089113	8.775271	0.005328	0.020069	0.008813	0.797449	0.325648	0.507965	-0.371662	0.928295	-0.011646	-0.475334	-0.179504	0.861299
58779	5.159428	-0.094268	8.783318	0.002982	0.021253	0.011321	0.797512	0.325745	0.507804	-0.371721	0.928271	-0.011673	-0.475182	-0.179452	0.861394
58780	5.214552	-0.093617	8.802326	0.004223	0.022735	0.006389	0.797598	0.325804	0.507630	-0.371751	0.928259	-0.011666	-0.475014	-0.179407	0.861496
58781	5.186905	-0.112084	8.752757	0.004890	0.023253	0.007662	0.797683	0.325872	0.507453	-0.371792	0.928243	-0.011659	-0.474839	-0.179367	0.861600
58782	5.192648	-0.107396	8.795308	0.005336	0.025365	0.008358	0.797775	0.325953	0.507257	-0.371842	0.928223	-0.011653	-0.474646	-0.179324	0.861716
58783	5.148938	-0.116915	8.762372	0.007068	0.028738	0.007862	0.797883	0.326036	0.507034	-0.371898	0.928201	-0.011628	-0.474420	-0.179287	0.861848
58784	5.187927	-0.107234	8.798096	0.004052	0.024100	0.009552	0.797964	0.326126	0.506848	-0.371952	0.928179	-0.011638	-0.474241	-0.179236	0.861957
58785	5.185585	-0.107102	8.799477	0.007029	0.028956	0.004123	0.798084	0.326179	0.506625	-0.371983	0.928167	-0.011595	-0.474014	-0.179202	0.862089
58786	5.147609	-0.134320	8.781962	0.010753	0.028586	0.007903	0.798193	0.326262	0.506400	-0.372056	0.928139	-0.011540	-0.473775	-0.179198	0.862221
58787	5.180408	-0.106335	8.802536	0.006014	0.031175	0.009175	0.798310	0.326358	0.506154	-0.372114	0.928115	-0.011529	-0.473532	-0.179143	0.862366
58788	5.154186	-0.102079	8.779216	0.005571	0.029060	0.008479	0.798418	0.326447	0.505925	-0.372167	0.928094	-0.011521	-0.473307	-0.179090	0.862500
58789	5.133827	-0.115945	8.771246	0.003847	0.030983	0.008518	0.798531	0.326550	0.505681	-0.372225	0.928071	-0.011524	-0.473071	-0.179025	0.862644
58790	5.182381	-0.097082	8.775438	0.007083	0.028722	0.007864	0.798640	0.326632	0.505455	-0.372280	0.928049	-0.011500	-0.472844	-0.178987	0.862776
58791	5.174063	-0.078736	8.761534	0.007927	0.027867	0.005975	0.798750	0.326700	0.505238	-0.372331	0.928029	-0.011456	-0.472618	-0.178966	0.862904
58792	5.116478	-0.124617	8.807353	0.004063	0.024086	0.009551	0.798831	0.326790	0.505052	-0.372385	0.928007	-0.011466	-0.472439	-0.178915	0.863013
58793	5.159672	-0.087741	8.795924	0.006860	0.025010	0.007745	0.798928	0.326853	0.504858	-0.372424	0.927992	-0.011443	-0.472244	-0.178879	0.863127
58794	5.145586	-0.119321	8.803055	0.006158	0.024711	0.002732	0.799037	0.326881	0.504668	-0.372434	0.927989	-0.011401	-0.472052	-0.178846	0.863238
58795	5.159330	-0.127912	8.787869	0.006634	0.021303	0.007626	0.799110	0.326950	0.504507	-0.372488	0.927967	-0.011377	-0.471886	-0.178832	0.863333
58796	5.141724	-0.118665	8.805320	0.008987	0.020115	0.005124	0.799188	0.326992	0.504356	-0.372530	0.927951	-0.011322	-0.471720	-0.178839	0.863422
58797	5.130255	-0.059406	8.801507	0.007480	0.020448	0.005738	0.799261	0.327047	0.504204	-0.372581	0.927931	-0.011281	-0.471556	-0.178840	0.863511
58798	5.138024	-0.118014	8.807489	0.004248	0.022706	0.006388	0.799347	0.327105	0.504030	-0.372611	0.927919	-0.011274	-0.471387	-0.178795	0.863612
58799	5.130474	-0.099857	8.793120	0.005745	0.017075	0.006233	0.799406	0.327150	0.503907	-0.372644	0.927906	-0.011253	-0.471260	-0.178783	0.863685
58800	5.134551	-0.117790	8.809517	0.005132	0.021630	0.008240	0.799480	0.327223	0.503743	-0.372693	0.927887	-0.011247	-0.471096	-0.178750	0.863781
58801	5.160322	-0.094775	8.788453	0.003588	0.022183	0.005114	0.799567	0.327268	0.503575	-0.372709	0.927880	-0.011238	-0.470935	-0.178702	0.863878
58802	5.158599	-0.094752	8.789464	0.005784	0.016851	0.009973	0.799612	0.327349	0.503451	-0.372775	0.927854	-0.011235	-0.470807	-0.178690	0.863950
58803	5.121474	-0.122316	8.771348	0.005763	0.022365	0.005775	0.799700	0.327397	0.503280	-0.372804	0.927842	-0.011210	-0.470635	-0.178661	0.864051
58804	5.099839	-0.072263	8.799346	0.009444	0.022215	0.005824	0.799785	0.327449	0.503111	-0.372854	0.927823	-0.011155	-0.470450	-0.178666	0.864150
58805	5.148772	-0.120998	8.839890	0.006826	0.019918	0.004466	0.799865	0.327482	0.502962	-0.372879	0.927813	-0.011113	-0.470294	-0.178655	0.864237
58806	5.139558	-0.125012	8.799489	0.013291	0.015397	0.003171	0.799929	0.327498	0.502851	-0.372926	0.927796	-0.011012	-0.470150	-0.178718	0.864303
58807	5.118462	-0.074224	8.827151	0.014584	0.016654	0.001981	0.800002	0.327504	0.502731	-0.372970	0.927779	-0.010891	-0.469990	-0.178791	0.864374
58808	5.175896	-0.136175	8.809888	0.007889	0.017471	0.003156	0.800074	0.327523	0.502603	-0.372991	0.927772	-0.010836	-0.469850	-0.178797	0.864450
58809	5.150915	-0.130792	8.785811	0.021067	0.017424	0.000230	0.800157	0.327517	0.502476	-0.373055	0.927748	-0.010649	-0.469659	-0.178930	0.864526
58810	5.116276	-0.066179	8.756795	0.014338	0.018461	-0.002336	0.800255	0.327486	0.502339	-0.373062	0.927747	-0.010511	-0.469486	-0.178992	0.864607
58811	5.114184	-0.132643	8.794482	0.017174	0.019162	-0.000399	0.800352	0.327470	0.502196	-0.373092	0.927737	-0.010356	-0.469297	-0.179077	0.864692
58812	5.137983	-0.112610	8.846275	0.014109	0.014756	-0.002453	0.800433	0.327431	0.502092	-0.373097	0.927736	-0.010219	-0.469155	-0.179150	0.864754
58813	5.136687	-0.111074	8.847047	0.017790	0.014605	-0.002402	0.800511	0.327397	0.501989	-0.373125	0.927727	-0.010047	-0.468998	-0.179262	0.864815
58814	5.100481	-0.069252	8.791917	0.016282	0.014938	-0.001790	0.800591	0.327365	0.501883	-0.373146	0.927720	-0.009894	-0.468846	-0.179354	0.864879
58815	5.138338	-0.080746	8.801464	0.018240	0.016712	-0.001706	0.800679	0.327335	0.501761	-0.373175	0.927710	-0.009723	-0.468671	-0.179460	0.864952
58816	5.103600	-0.084057	8.808910	0.016052	0.011235	-0.001906	0.800742	0.327296	0.501687	-0.373194	0.927704	-0.009572	-0.468550	-0.179562	0.864996
58817	5.115993	-0.095781	8.866237	0.016268	0.009644	-0.001327	0.800791	0.327265	0.501629	-0.373226	0.927693	-0.009420	-0.468441	-0.179678	0.865031
58818	5.134988	-0.076288	8.803459	0.013716	0.017714	0.000126	0.800876	0.327256	0.501499	-0.373250	0.927684	-0.009299	-0.468276	-0.179737	0.865108
58819	5.123530	-0.084150	8.836002	0.012159	0.012974	-0.002538	0.800943	0.327223	0.501413	-0.373257	0.927682	-0.009176	-0.468155	-0.179807	0.865159
58820	5.075725	-0.074915	8.786501	0.008938	0.009727	0.002307	0.800983	0.327220	0.501352	-0.373276	0.927675	-0.009108	-0.468072	-0.179848	0.865195
58821	5.110398	-0.046795	8.806057	0.004393	0.005443	0.004603	0.800994	0.327231	0.501328	-0.373293	0.927669	-0.009088	-0.468040	-0.179863	0.865210
58822	5.097988	-0.078672	8.812208	0.002251	0.005042	0.007679	0.800991	0.327269	0.501306	-0.373324	0.927656	-0.009104	-0.468020	-0.179858	0.865222
58823	5.124734	-0.123816	8.827176	0.002699	0.007152	0.008373	0.800996	0.327315	0.501268	-0.373360	0.927642	-0.009119	-0.467982	-0.179849	0.865244
58824	5.102700	-0.097141	8.828255	0.000294	0.003268	0.007594	0.800986	0.327350	0.501263	-0.373381	0.927633	-0.009152	-0.467984	-0.179831	0.865247
58825	5.104086	-0.074611	8.854370	0.002037	0.006632	0.007099	0.800993	0.327386	0.501227	-0.373408	0.927622	-0.009165	-0.467950	-0.179822	0.865267
58826	5.156710	-0.119819	8.821369	-0.000981	0.007303	0.008319	0.800998	0.327435	0.501187	-0.373429	0.927613	-0.009212	-0.467924	-0.179779	0.865290
58827	5.111187	-0.089050	8.797451	0.000713	0.005593	0.004549	0.801008	0.327448	0.501162	-0.373431	0.927612	-0.009224	-0.467905	-0.179761	0.865304
58828	5.094855	-0.080359	8.814005	0.000743	0.005376	0.008289	0.801005	0.327492	0.501138	-0.373460	0.927600	-0.009257	-0.467887	-0.179740	0.865318
58829	5.072822	-0.054010	8.815080	-0.002908	0.005312	0.011974	0.800989	0.327569	0.501115	-0.373499	0.927584	-0.009338	-0.467885	-0.179686	0.865330
58830	5.092321	-0.104646	8.788533	-0.003591	-0.000497	0.011164	0.800947	0.327630	0.501141	-0.373530	0.927570	-0.009422	-0.467931	-0.179645	0.865314
58831	5.150944	-0.081927	8.832833	-0.001847	0.002866	0.010669	0.800927	0.327682	0.501139	-0.373554	0.927560	-0.009489	-0.467946	-0.179602	0.865315
58832	5.144206	-0.132571	8.854439	-0.002458	0.007420	0.012669	0.800917	0.327771	0.501097	-0.373603	0.927540	-0.009571	-0.467924	-0.179545	0.865338
58833	5.190219	-0.141265	8.904991	0.004631	0.009138	0.004720	0.800944	0.327788	0.501042	-0.373620	0.927533	-0.009551	-0.467864	-0.179549	0.865370
58834	5.208668	-0.190418	8.879076	0.011345	0.019108	-0.001114	0.801040	0.327770	0.500900	-0.373623	0.927533	-0.009445	-0.467697	-0.179582	0.865454
58835	5.325527	-0.273180	8.969420	0.021294	0.026813	-0.007587	0.801199	0.327701	0.500692	-0.373614	0.927538	-0.009219	-0.467432	-0.179679	0.865576
58836	5.425962	-0.209597	9.003507	0.037611	0.058022	-0.018245	0.801541	0.327594	0.500215	-0.373602	0.927547	-0.008800	-0.466856	-0.179828	0.865857
58837	5.640343	-0.183898	9.066501	0.044138	0.107729	-0.021024	0.802125	0.327548	0.499307	-0.373595	0.927555	-0.008308	-0.465856	-0.179874	0.866385
58838	5.257989	-0.092383	8.885770	0.065344	0.179289	-0.022280	0.803045	0.327622	0.497778	-0.373679	0.927527	-0.007628	-0.464201	-0.179883	0.867271
58839	4.921086	0.168385	8.806946	0.059407	0.185825	-0.020313	0.803984	0.327725	0.496191	-0.373749	0.927503	-0.007008	-0.462516	-0.179817	0.868185
58840	4.716372	0.176486	8.848313	0.050950	0.161663	-0.009307	0.804768	0.327888	0.494811	-0.373868	0.927459	-0.006517	-0.461054	-0.179749	0.868976
58841	4.525926	0.300724	8.943409	0.016939	0.114752	-0.003217	0.805312	0.328020	0.493837	-0.373878	0.927456	-0.006350	-0.460095	-0.179521	0.869531
58842	4.295338	0.451342	9.011051	-0.044697	0.054842	0.007528	0.805539	0.328147	0.493383	-0.373692	0.927528	-0.006774	-0.459849	-0.178917	0.869786
58843	4.534309	0.344191	9.270543	-0.115517	-0.007061	-0.000111	0.805514	0.328083	0.493467	-0.373109	0.927755	-0.007774	-0.460367	-0.177854	0.869730
58844	3.434520	-0.343041	9.957117	-0.117357	-0.043395	0.025625	0.805221	0.328202	0.493865	-0.372733	0.927896	-0.008919	-0.461183	-0.176898	0.869493
58845	1.705016	-1.133344	10.016881	0.066991	-0.478211	0.123704	0.802544	0.328463	0.498031	-0.374006	0.927383	-0.008946	-0.464804	-0.179087	0.867113
58846	3.114389	-0.966752	10.275684	0.122816	-0.814040	0.164200	0.798123	0.328470	0.505081	-0.375853	0.926638	-0.008704	-0.470887	-0.182889	0.863028
58847	3.806063	-3.027656	10.267402	0.416346	-1.020233	0.311273	0.792111	0.329408	0.513859	-0.380262	0.924854	-0.006703	-0.477453	-0.190091	0.857848
58848	4.926277	-3.399226	10.953607	0.634359	-1.188163	0.365505	0.784998	0.330425	0.524020	-0.386154	0.922429	-0.003174	-0.484420	-0.199861	0.851700
58849	3.685229	0.258902	11.776518	1.259930	-1.197889	0.438798	0.777457	0.331933	0.534211	-0.395671	0.918378	0.005199	-0.488882	-0.215414	0.845335
58850	3.066326	2.416621	11.886003	1.054517	-1.290166	0.608532	0.768677	0.334597	0.545143	-0.405521	0.914022	0.010797	-0.494660	-0.229366	0.838274
58851	5.065134	4.859332	14.463975	0.486214	-1.302640	0.826887	0.758799	0.339050	0.556119	-0.414220	0.910118	0.010311	-0.502639	-0.238180	0.831038
58852	3.881007	3.186507	14.273189	-0.128427	-0.965027	0.934713	0.750012	0.345193	0.564202	-0.420581	0.907246	0.004017	-0.510483	-0.240305	0.825627
58853	1.660524	1.318991	12.911643	-0.163109	-0.709435	0.871801	0.742677	0.351349	0.570075	-0.426225	0.904614	-0.002260	-0.516492	-0.241302	0.821590
58854	0.235672	1.130266	11.975101	0.030717	-0.587419	0.725715	0.736520	0.356438	0.574882	-0.431712	0.901991	-0.006156	-0.520733	-0.243649	0.818213
58855	-0.304232	1.776532	11.789148	0.177932	-0.508105	0.564063	0.731413	0.360242	0.579017	-0.436761	0.899542	-0.007945	-0.523712	-0.247081	0.815277
58856	-0.242825	2.251660	11.958894	0.171653	-0.402830	0.413853	0.727487	0.362917	0.582283	-0.440641	0.897639	-0.008944	-0.525926	-0.250071	0.812937
58857	-0.336593	1.650437	11.880549	0.115166	-0.253941	0.274601	0.724942	0.364703	0.584337	-0.443207	0.896368	-0.009599	-0.527282	-0.252024	0.811454
58858	-0.341548	0.606145	11.716561	0.153962	-0.099790	0.122886	0.723874	0.365510	0.585157	-0.444870	0.895549	-0.009061	-0.527349	-0.253759	0.810869
58859	-0.232033	0.041608	11.577928	0.277981	0.067698	-0.027882	0.724371	0.365384	0.584621	-0.446081	0.894968	-0.006635	-0.525642	-0.255982	0.811279
58860	0.000007	0.107817	11.513680	0.367635	0.239999	-0.147648	0.726291	0.364637	0.582701	-0.446897	0.894581	-0.002781	-0.522288	-0.258387	0.812682
58861	0.443329	0.080455	11.591152	0.366655	0.404921	-0.230404	0.729433	0.363593	0.579421	-0.447101	0.894482	0.001559	-0.517715	-0.260197	0.815027
58862	1.252972	-0.310670	11.798818	0.348386	0.616933	-0.294713	0.733929	0.362522	0.574392	-0.446698	0.894664	0.006111	-0.511672	-0.261065	0.818558
58863	1.658404	-0.574332	11.811363	0.346564	0.867116	-0.340943	0.739861	0.361696	0.567259	-0.445909	0.895012	0.010910	-0.503757	-0.261017	0.823468
58864	1.731096	-0.687126	11.554321	0.328225	1.093548	-0.355683	0.746906	0.361318	0.558194	-0.444863	0.895462	0.015630	-0.494194	-0.259994	0.829563
58865	1.705248	-0.923790	11.095206	0.302026	1.261058	-0.348410	0.754622	0.361432	0.547643	-0.443697	0.895952	0.020082	-0.483403	-0.258142	0.836471
58866	1.944813	-1.098319	10.873879	0.307435	1.388255	-0.338272	0.762755	0.361926	0.535924	-0.442559	0.896405	0.024503	-0.471537	-0.255868	0.843910
58867	2.351668	-1.057997	10.866252	0.312796	1.504447	-0.324915	0.771209	0.362795	0.523083	-0.441471	0.896810	0.028884	-0.458628	-0.253201	0.851792
58868	2.738596	-0.849381	10.905345	0.296266	1.620329	-0.301664	0.779865	0.364123	0.509142	-0.440430	0.897181	0.032980	-0.444784	-0.249961	0.860050
58869	2.978976	-0.746802	10.787092	0.259094	1.716672	-0.269956	0.788575	0.365926	0.494215	-0.439419	0.897537	0.036590	-0.430187	-0.246021	0.868569
58870	2.963805	-0.801865	10.491776	0.217086	1.773795	-0.242099	0.797142	0.368033	0.478661	-0.438377	0.897915	0.039664	-0.415200	-0.241452	0.877103
58871	2.874078	-0.841895	10.136607	0.197633	1.775180	-0.229654	0.805400	0.370179	0.462924	-0.437308	0.898307	0.042500	-0.400116	-0.236670	0.885378
58872	2.984149	-0.679071	10.078711	0.179018	1.732531	-0.221376	0.813178	0.372206	0.447442	-0.436180	0.898729	0.045100	-0.385342	-0.231839	0.893175
58873	3.406517	-0.520254	10.336396	0.107880	1.663460	-0.223874	0.820455	0.373975	0.432431	-0.434730	0.899331	0.047057	-0.371301	-0.226599	0.900438
58874	4.803651	-0.822099	10.989640	0.058749	1.664828	-0.253285	0.827627	0.375379	0.417282	-0.432816	0.900168	0.048663	-0.357357	-0.220881	0.907473
58875	5.759308	-0.747702	11.586710	0.034220	1.806854	-0.307654	0.835289	0.376502	0.400672	-0.430338	0.901269	0.050234	-0.342200	-0.214384	0.914844
58876	5.911237	-0.531852	11.575964	-0.004458	1.997485	-0.370358	0.843554	0.377327	0.382153	-0.427174	0.902694	0.051640	-0.325482	-0.206807	0.922655
58877	5.472431	-0.315451	11.032835	-0.083169	2.132146	-0.426149	0.852125	0.377762	0.362185	-0.423270	0.904484	0.052458	-0.307774	-0.198002	0.930629
58878	5.151865	-0.472683	10.319819	-0.167724	2.165673	-0.469978	0.860586	0.377648	0.341722	-0.418704	0.906602	0.052540	-0.289964	-0.188295	0.938331
58879	4.946871	-0.569728	9.614155	-0.208901	2.115653	-0.514108	0.868692	0.376820	0.321529	-0.413628	0.908944	0.052272	-0.272555	-0.178402	0.945456
58880	5.063217	-0.409490	9.318549	-0.247855	2.011059	-0.554800	0.876296	0.375218	0.302185	-0.408092	0.911479	0.051644	-0.256057	-0.168575	0.951849
58881	5.432927	-0.412477	8.981725	-0.307624	1.891377	-0.574468	0.883336	0.373029	0.283842	-0.402231	0.914151	0.050380	-0.240682	-0.158672	0.957547
58882	5.530771	-0.362155	8.526129	-0.369169	1.760000	-0.564601	0.889712	0.370525	0.266689	-0.396323	0.916836	0.048381	-0.226584	-0.148741	0.962567
58883	5.208400	-0.290015	7.954928	-0.454190	1.580468	-0.517887	0.895247	0.368003	0.251209	-0.390659	0.919419	0.045330	-0.214284	-0.138719	0.966871
58884	5.073921	-0.654848	7.310781	-0.548125	1.341432	-0.437165	0.899762	0.365732	0.238050	-0.385548	0.921773	0.041081	-0.204404	-0.128743	0.970384
58885	5.121724	-1.446034	6.733801	-0.537813	1.050678	-0.339858	0.903187	0.363864	0.227718	-0.381364	0.923699	0.036634	-0.197013	-0.119931	0.973038
58886	6.610834	-2.290467	7.108904	-0.366382	0.768736	-0.256999	0.905667	0.362347	0.220165	-0.378288	0.925077	0.033631	-0.191483	-0.113744	0.974883
58887	9.134951	-2.537210	7.754775	-0.029167	0.715993	-0.181827	0.907714	0.361429	0.213129	-0.376544	0.925785	0.033726	-0.185122	-0.110866	0.976442
58888	10.643211	-1.324555	8.202214	0.282416	0.904323	-0.042342	0.909516	0.361997	0.204300	-0.376629	0.925642	0.036564	-0.175873	-0.110201	0.978225
58889	10.307735	-0.477362	7.319896	0.390283	1.146142	0.188407	0.910765	0.364961	0.193160	-0.378966	0.924546	0.039997	-0.163988	-0.109629	0.980352
58890	8.511170	0.099860	5.741995	0.422570	1.235715	0.449781	0.911008	0.370426	0.181244	-0.383689	0.922447	0.043290	-0.151152	-0.108979	0.982485
58891	7.024999	0.440399	4.212269	0.393646	1.060087	0.728904	0.909741	0.378253	0.171160	-0.390859	0.919307	0.045862	-0.140001	-0.108621	0.984175
58892	6.997418	0.712853	3.490571	0.396152	0.727275	0.959207	0.906949	0.387805	0.164473	-0.400071	0.915219	0.048140	-0.131860	-0.109461	0.985206
58893	8.188419	1.452506	3.627995	0.437721	0.425206	1.135756	0.902906	0.398603	0.160860	-0.410875	0.910287	0.050590	-0.126264	-0.111771	0.985680
58894	9.213677	2.349294	3.822329	0.496966	0.249095	1.257836	0.897986	0.410261	0.159083	-0.422779	0.904654	0.053463	-0.121981	-0.115266	0.985817
58895	9.233516	3.371248	3.673242	0.560892	0.116255	1.334672	0.892413	0.422392	0.158692	-0.435363	0.898458	0.056856	-0.118562	-0.119828	0.985690
58896	8.678804	4.332061	3.396883	0.593718	-0.070639	1.372910	0.886279	0.434557	0.160217	-0.448234	0.891866	0.060505	-0.116600	-0.125439	0.985226
58897	8.673589	4.741035	3.216806	0.622910	-0.291238	1.369522	0.879729	0.446311	0.163962	-0.461015	0.885052	0.064405	-0.116370	-0.132248	0.984362
58898	8.787063	5.193815	3.121389	0.695778	-0.494720	1.275756	0.873208	0.456845	0.169703	-0.472973	0.878363	0.069109	-0.117489	-0.140611	0.983069
58899	5.378899	6.874306	3.854509	0.800959	-0.636320	1.102799	0.867197	0.465533	0.176771	-0.483480	0.872132	0.075053	-0.119228	-0.150551	0.981386
58900	-9.042830	23.800512	13.688782	-1.407289	-1.248702	0.603440	0.862687	0.468915	0.189449	-0.486861	0.871407	0.060134	-0.136889	-0.144112	0.980047
58901	-4.201235	-3.980153	12.622313	-1.941707	-2.051252	0.403413	0.857651	0.469512	0.209746	-0.487372	0.872263	0.040322	-0.164022	-0.136807	0.976924
58902	-4.611099	1.287263	5.112411	-1.115440	-1.770165	-0.739980	0.858155	0.460592	0.226770	-0.479041	0.877243	0.031048	-0.184632	-0.135276	0.973453
58903	-0.197461	2.088110	6.541515	-0.512253	-2.904445	-1.532893	0.859644	0.442991	0.254502	-0.464820	0.884905	0.029763	-0.212025	-0.143883	0.966614
58904	7.208242	1.319223	12.804197	-0.833392	-3.050264	-1.469138	0.859452	0.425416	0.283484	-0.450259	0.892528	0.025683	-0.242091	-0.149715	0.958633
58905	11.593609	-8.013897	13.025356	-0.796279	-2.660290	-1.128237	0.857686	0.411235	0.308642	-0.438500	0.898476	0.021418	-0.268500	-0.153709	0.950937
58906	11.107275	-9.020744	12.978897	-0.418095	-2.195713	-0.565916	0.854038	0.402670	0.329356	-0.432451	0.901452	0.019255	-0.289145	-0.158875	0.944010
58907	11.557271	-10.833775	13.249795	-0.090724	-1.895843	0.118393	0.847897	0.400620	0.347238	-0.433149	0.901143	0.017998	-0.305700	-0.165666	0.937604
58908	9.287080	-3.336121	12.355900	0.307354	-1.391943	0.307632	0.842240	0.400985	0.360336	-0.436664	0.899407	0.019780	-0.316157	-0.174005	0.932613
58909	5.685551	3.239061	10.717591	0.314065	-1.206618	0.163050	0.837667	0.400264	0.371620	-0.439001	0.898215	0.022101	-0.324949	-0.181655	0.928122
58910	3.524553	4.357297	9.533419	0.135240	-1.255803	-0.093918	0.833945	0.397060	0.383248	-0.438622	0.898359	0.023704	-0.334882	-0.187869	0.923341
58911	2.959206	0.883226	8.563272	0.021929	-1.370234	-0.150196	0.829945	0.393056	0.395851	-0.437407	0.898930	0.024489	-0.346217	-0.193473	0.917988
58912	2.644118	-1.196263	8.311432	0.084936	-1.462996	-0.063681	0.825081	0.389564	0.409245	-0.437139	0.899032	0.025520	-0.357983	-0.199953	0.912067
58913	4.191098	1.289933	9.130753	0.114718	-1.677264	0.086588	0.818593	0.386884	0.424530	-0.438229	0.898482	0.026201	-0.371296	-0.207489	0.905035
58914	12.176176	5.476126	12.899697	-0.329895	-1.716796	0.427883	0.810214	0.387091	0.440130	-0.440423	0.897536	0.021377	-0.386757	-0.211163	0.897680
58915	7.397979	1.029736	9.599032	-0.500817	-0.897587	0.379299	0.805034	0.388562	0.448263	-0.441486	0.897139	0.015208	-0.396245	-0.210145	0.893772
58916	4.816016	-2.475101	9.312358	-0.459445	-1.025342	0.330957	0.799463	0.389335	0.457468	-0.442257	0.896837	0.009613	-0.406531	-0.210004	0.889174
58917	7.203212	-0.664170	10.168499	-0.319038	-0.984308	0.239631	0.794362	0.389370	0.466241	-0.442815	0.896595	0.005679	-0.415818	-0.210970	0.884640
58918	6.085475	-0.673405	9.533097	-0.323873	-0.696082	0.151720	0.790778	0.389221	0.472416	-0.442619	0.896707	0.002109	-0.422798	-0.210768	0.881373
58919	5.552860	-1.693352	9.490253	-0.236750	-0.670457	0.082657	0.787562	0.388505	0.478340	-0.442223	0.896905	-0.000364	-0.429168	-0.211246	0.878174
58920	6.114916	-0.396264	9.357355	-0.139774	-0.562883	0.029168	0.785010	0.387534	0.483299	-0.441809	0.897108	-0.001729	-0.434241	-0.212169	0.875454
58921	5.585180	-0.395637	9.162805	-0.125067	-0.431322	0.006297	0.783106	0.386632	0.487095	-0.441273	0.897369	-0.002850	-0.438206	-0.212710	0.873344
58922	6.138165	-0.292484	9.307302	-0.073097	-0.374623	-0.011784	0.781516	0.385686	0.490387	-0.440819	0.897590	-0.003428	-0.441488	-0.213493	0.871498
58923	5.075426	-0.036528	8.837378	-0.023595	-0.220896	-0.016129	0.780615	0.385027	0.492337	-0.440549	0.897722	-0.003551	-0.443348	-0.214126	0.870398
58924	5.495828	0.055032	8.927902	-0.020559	-0.228493	-0.019848	0.779693	0.384317	0.494348	-0.440262	0.897862	-0.003629	-0.445251	-0.214813	0.869257
58925	5.367884	0.015794	8.877003	0.007141	-0.173898	-0.015622	0.778991	0.383760	0.495884	-0.440132	0.897926	-0.003487	-0.446606	-0.215539	0.868382
58926	5.319128	0.101227	8.940110	0.008847	-0.139046	-0.011542	0.778426	0.383315	0.497115	-0.440042	0.897971	-0.003350	-0.447679	-0.216144	0.867678
58927	5.322491	0.096708	8.892395	0.016775	-0.107560	-0.005487	0.777973	0.382990	0.498073	-0.440035	0.897975	-0.003174	-0.448473	-0.216700	0.867129
58928	5.247325	-0.002348	8.874534	0.019110	-0.079015	0.001042	0.777619	0.382786	0.498781	-0.440088	0.897949	-0.003011	-0.449033	-0.217167	0.866723
58929	5.254794	-0.041686	8.862318	0.027469	-0.060140	-0.000517	0.777356	0.382608	0.499327	-0.440168	0.897911	-0.002766	-0.449410	-0.217637	0.866409
58930	5.130312	-0.107711	8.894085	0.032898	-0.048719	-0.002822	0.777155	0.382435	0.499772	-0.440254	0.897870	-0.002465	-0.449673	-0.218111	0.866153
58931	5.178692	-0.095379	8.853091	0.031845	-0.037962	0.000364	0.776988	0.382313	0.500126	-0.440360	0.897819	-0.002187	-0.449859	-0.218536	0.865950
58932	5.100597	-0.128177	8.871873	0.029745	-0.039460	-0.003440	0.776831	0.382154	0.500491	-0.440427	0.897786	-0.001910	-0.450064	-0.218946	0.865740
58933	5.185213	-0.089629	8.849334	0.030223	-0.030309	-0.007744	0.776734	0.381976	0.500779	-0.440463	0.897769	-0.001605	-0.450197	-0.219327	0.865574
58934	5.057504	-0.030283	8.835129	0.031918	-0.025440	-0.008929	0.776664	0.381798	0.501022	-0.440497	0.897753	-0.001282	-0.450283	-0.219703	0.865434
58935	5.113702	0.030490	8.771348	0.028382	-0.026725	-0.008380	0.776585	0.381622	0.501278	-0.440520	0.897742	-0.000990	-0.450397	-0.220054	0.865285
58936	5.020949	-0.033107	8.797973	0.022555	-0.034784	-0.011045	0.776483	0.381404	0.501602	-0.440496	0.897754	-0.000737	-0.450597	-0.220381	0.865098
58937	5.049507	0.114333	8.798427	0.036177	-0.038631	-0.012683	0.776370	0.381162	0.501962	-0.440520	0.897743	-0.000357	-0.450768	-0.220847	0.864890
58938	5.069904	0.065685	8.771913	0.026988	-0.049571	-0.014174	0.776214	0.380884	0.502413	-0.440492	0.897757	-0.000050	-0.451063	-0.221271	0.864628
58939	5.040777	0.066462	8.776054	0.029122	-0.056172	-0.016048	0.776036	0.380573	0.502924	-0.440459	0.897773	0.000287	-0.451402	-0.221740	0.864331
58940	5.032273	0.038731	8.780284	0.021519	-0.067714	-0.014377	0.775799	0.380252	0.503532	-0.440405	0.897799	0.000548	-0.451862	-0.222183	0.863977
58941	5.003755	0.080173	8.791848	0.017733	-0.080981	-0.015769	0.775507	0.379887	0.504256	-0.440322	0.897839	0.000784	-0.452443	-0.222644	0.863554
58942	5.063929	0.097906	8.789316	0.012274	-0.099133	-0.015963	0.775134	0.379481	0.505134	-0.440214	0.897892	0.000974	-0.453187	-0.223122	0.863040
58943	5.084801	-0.018520	8.799893	0.004166	-0.105915	-0.016135	0.774730	0.379057	0.506073	-0.440068	0.897964	0.001095	-0.454020	-0.223555	0.862490
58944	5.049995	0.056553	8.777174	0.000305	-0.110919	-0.015596	0.774300	0.378627	0.507052	-0.439909	0.898042	0.001180	-0.454907	-0.223970	0.861915
58945	5.027993	0.012923	8.769772	-0.012732	-0.126883	-0.016510	0.773799	0.378152	0.508170	-0.439683	0.898152	0.001158	-0.455976	-0.224330	0.861256
58946	5.136603	-0.045744	8.781747	-0.014516	-0.145210	-0.020380	0.773231	0.377601	0.509442	-0.439419	0.898281	0.001140	-0.457192	-0.224740	0.860504
58947	5.149694	-0.046158	8.774075	-0.019579	-0.152848	-0.021736	0.772631	0.377019	0.510781	-0.439122	0.898427	0.001087	-0.458490	-0.225135	0.859710
58948	5.133314	-0.025686	8.797855	-0.025956	-0.161688	-0.021862	0.771990	0.376416	0.512193	-0.438793	0.898587	0.000979	-0.459882	-0.225503	0.858870
58949	5.211555	-0.045751	8.750223	-0.029863	-0.166559	-0.025054	0.771338	0.375772	0.513647	-0.438423	0.898769	0.000855	-0.461329	-0.225854	0.858001
58950	5.180888	-0.099969	8.918439	-0.045093	-0.188197	-0.022221	0.770570	0.375106	0.515283	-0.438003	0.898973	0.000586	-0.463006	-0.226147	0.857020
58951	5.292408	-0.289696	8.714143	-0.039907	-0.169522	-0.033296	0.769934	0.374380	0.516760	-0.437521	0.899208	0.000421	-0.464517	-0.226418	0.856130
58952	5.192343	0.089745	8.714160	-0.083660	-0.184716	-0.025701	0.769192	0.373689	0.518363	-0.436894	0.899513	-0.000158	-0.466333	-0.226348	0.855161
58953	5.196047	0.010226	8.703544	-0.111888	-0.186868	-0.019088	0.768406	0.373051	0.519985	-0.436185	0.899857	-0.001011	-0.468289	-0.226033	0.854175
58954	5.135078	-0.011828	8.741221	-0.138475	-0.185363	-0.020535	0.767631	0.372406	0.521590	-0.435337	0.900265	-0.002082	-0.470345	-0.225469	0.853194
58955	5.104465	-0.099071	8.811097	-0.149358	-0.192923	-0.022524	0.766824	0.371726	0.523260	-0.434420	0.900705	-0.003233	-0.472505	-0.224835	0.852167
58956	5.119254	-0.407892	8.918096	-0.108077	-0.214469	-0.029274	0.765940	0.370938	0.525110	-0.433644	0.901076	-0.003996	-0.474647	-0.224650	0.851025
58957	5.200058	-0.306791	8.891700	-0.033464	-0.259103	-0.039840	0.764884	0.369954	0.527340	-0.433140	0.901318	-0.004066	-0.476805	-0.225302	0.849645
58958	5.093886	-0.335922	9.071453	0.012545	-0.277972	-0.052280	0.763786	0.368813	0.529724	-0.432760	0.901502	-0.003679	-0.478904	-0.226433	0.848162
58959	4.727693	-0.416747	9.084621	0.132338	-0.358623	-0.043183	0.762256	0.367564	0.532788	-0.433026	0.901379	-0.002324	-0.481098	-0.228940	0.846246
58960	4.523014	-0.701477	9.371361	0.186350	-0.434776	-0.060491	0.760425	0.365974	0.536485	-0.433424	0.901190	-0.000421	-0.483629	-0.232205	0.843910
58961	4.657893	-0.699662	9.332961	0.251365	-0.578370	-0.120718	0.758145	0.363488	0.541380	-0.433687	0.901060	0.002352	-0.486961	-0.236573	0.840775
58962	4.801828	-0.307001	9.258811	0.371040	-0.681740	-0.142711	0.755437	0.360527	0.547115	-0.434381	0.900708	0.006247	-0.490538	-0.242375	0.837034
58963	4.726698	-0.533613	9.200783	0.469728	-0.818918	-0.162207	0.752112	0.357009	0.553960	-0.435432	0.900154	0.011067	-0.494698	-0.249535	0.832470
58964	4.808010	-0.565473	9.323607	0.608124	-0.981042	-0.177004	0.748013	0.352882	0.562096	-0.437087	0.899257	0.017106	-0.499432	-0.258480	0.826895
58965	4.780205	-0.266503	9.448265	0.857043	-1.210676	-0.195616	0.742795	0.347880	0.572044	-0.439892	0.897695	0.025278	-0.504727	-0.270414	0.819833
58966	4.419129	-0.208233	9.859617	1.052006	-1.460316	-0.192846	0.736236	0.342053	0.583915	-0.443769	0.895458	0.034978	-0.510907	-0.284876	0.811061
58967	3.920124	-0.227931	10.015853	1.244337	-1.827676	-0.224570	0.727832	0.334637	0.598565	-0.448492	0.892585	0.046335	-0.518764	-0.302176	0.799733
58968	3.203440	-0.686167	10.623093	1.407775	-2.321606	-0.321526	0.717120	0.324478	0.616809	-0.453506	0.889268	0.059452	-0.529217	-0.322361	0.784865
58969	2.718150	-0.619232	10.900525	1.471126	-2.911956	-0.469633	0.703649	0.310553	0.639089	-0.458020	0.885872	0.073817	-0.543227	-0.344657	0.765582
58970	3.193622	0.066258	10.964503	1.485440	-3.663954	-0.568618	0.686022	0.292407	0.666237	-0.462239	0.882305	0.088727	-0.561880	-0.368829	0.740443
58971	3.620644	0.713085	11.541179	1.372250	-4.403224	-0.541469	0.663280	0.270813	0.697653	-0.466421	0.878618	0.102381	-0.585245	-0.393308	0.709082
58972	3.819647	0.921174	11.372744	1.174288	-5.100667	-0.368630	0.634448	0.246869	0.732483	-0.471027	0.874833	0.113140	-0.612870	-0.416800	0.671318
58973	3.744267	1.309091	10.824084	1.013968	-5.859998	-0.248030	0.598778	0.219568	0.770230	-0.475837	0.871087	0.121597	-0.644239	-0.439314	0.626067
58974	5.452657	1.539222	10.865634	0.828865	-6.670832	-0.135993	0.555285	0.188328	0.810057	-0.480501	0.867653	0.127660	-0.678806	-0.460120	0.572286
58975	8.776252	1.548296	12.150835	0.609683	-7.391791	-0.117005	0.504311	0.152582	0.849935	-0.484097	0.865008	0.131952	-0.715067	-0.477996	0.510098
58976	11.601911	2.521868	11.978022	0.385372	-7.577825	-0.110477	0.449335	0.114831	0.885953	-0.486359	0.863302	0.134775	-0.749368	-0.491451	0.443760
58977	12.405414	4.552182	11.463733	-0.194891	-8.026864	0.078677	0.387385	0.075758	0.918800	-0.485161	0.864205	0.133298	-0.783933	-0.497404	0.371535
58978	19.880549	2.837060	15.146538	-0.819854	-8.083965	-0.018998	0.322745	0.035420	0.945823	-0.478499	0.868297	0.130763	-0.816624	-0.494778	0.297187
58979	19.695412	1.333600	17.747340	-0.794889	-6.845867	-0.389135	0.267848	-0.001699	0.963460	-0.470731	0.872285	0.132404	-0.840637	-0.488994	0.232841
58980	11.322185	0.200785	15.228140	-0.474680	-6.009962	-0.712370	0.220133	-0.037207	0.974760	-0.464933	0.874465	0.138376	-0.857542	-0.483660	0.175200
58981	7.101498	-1.994214	17.223352	0.245242	-5.757258	-0.858449	0.174454	-0.072573	0.981987	-0.465329	0.872817	0.147172	-0.867776	-0.482622	0.118496
58982	-0.168112	-2.094045	15.474691	1.276773	-5.117693	-0.725180	0.133393	-0.103800	0.985613	-0.475283	0.865978	0.155525	-0.869662	-0.489191	0.066181
58983	11.117952	-5.310204	9.340601	2.980200	-5.852553	0.279832	0.081364	-0.130621	0.988088	-0.501363	0.851450	0.153843	-0.861403	-0.507908	0.003789
58984	34.340287	11.211674	32.962489	2.069201	-1.506896	1.258834	0.062023	-0.127778	0.989862	-0.519973	0.842411	0.141324	-0.851928	-0.523467	-0.014192
58985	11.249998	11.921400	23.597530	0.236774	1.292137	1.899227	0.063132	-0.105015	0.992465	-0.523153	0.843386	0.122519	-0.849897	-0.526946	-0.001694
58986	-3.962210	7.734882	12.972327	-1.450797	1.972929	2.324771	0.067925	-0.075048	0.994864	-0.512281	0.853055	0.099327	-0.856128	-0.516396	0.019498
58987	-3.551104	2.152767	9.410049	-2.293291	1.617317	2.563701	0.068980	-0.044839	0.996610	-0.494258	0.866230	0.073182	-0.866574	-0.497630	0.037591
58988	-1.373733	-2.501118	7.539625	-1.929061	1.558913	2.455261	0.070601	-0.015860	0.997379	-0.479152	0.876426	0.047854	-0.874888	-0.481275	0.054277
58989	0.186874	-3.367902	7.655240	-0.964577	1.905206	2.144395	0.077127	0.012044	0.996949	-0.472260	0.881079	0.025891	-0.878079	-0.472815	0.073643
58990	0.261777	-0.825731	7.828341	-0.098319	2.356124	1.785818	0.089355	0.038856	0.995242	-0.472863	0.881099	0.008055	-0.876594	-0.471332	0.097104
58991	-0.209039	2.944980	7.906621	0.168816	2.750888	1.514790	0.106268	0.065130	0.992202	-0.475800	0.879528	-0.006775	-0.873110	-0.471370	0.124454
58992	-0.253339	4.983260	8.010945	-0.124867	3.061023	1.312566	0.126699	0.091002	0.987758	-0.476218	0.879102	-0.019907	-0.870151	-0.467866	0.154718
58993	0.488601	4.448050	8.200295	-0.563861	3.321719	1.091357	0.150428	0.115980	0.981794	-0.472807	0.880600	-0.031583	-0.868231	-0.459448	0.187303
58994	1.914485	2.713652	8.460756	-0.732813	3.659434	0.813075	0.178329	0.139714	0.974001	-0.467766	0.882901	-0.041003	-0.865675	-0.448293	0.222800
58995	3.075247	1.654343	8.500271	-0.627049	4.075823	0.476984	0.211330	0.161938	0.963906	-0.463259	0.884970	-0.047110	-0.860657	-0.436582	0.262040
58996	3.823264	1.455203	8.523617	-0.419227	4.452756	0.135942	0.248843	0.182285	0.951236	-0.459954	0.886558	-0.049567	-0.852361	-0.425190	0.304457
58997	5.265063	1.912000	8.726904	-0.292481	4.757503	-0.136043	0.289790	0.201004	0.935745	-0.457085	0.888061	-0.049206	-0.840889	-0.413456	0.349227
58998	7.098416	2.129116	8.965895	-0.271428	5.049281	-0.304010	0.333274	0.218807	0.917089	-0.453846	0.889820	-0.047371	-0.826409	-0.400429	0.395858
58999	8.468256	3.026999	9.046828	-0.433356	5.305384	-0.337748	0.378244	0.236595	0.894961	-0.449070	0.892307	-0.046100	-0.809486	-0.384463	0.443757
59000	8.665138	1.100193	8.510024	-0.451500	5.484020	-0.418936	0.423967	0.253414	0.869502	-0.443746	0.895047	-0.044490	-0.789519	-0.366976	0.491922
59001	8.974919	0.480634	8.738314	-0.443019	5.719049	-0.428738	0.470387	0.269994	0.840142	-0.438351	0.897771	-0.043085	-0.765888	-0.348011	0.540652
59002	9.522845	-0.042093	8.703727	-0.198862	5.714062	-0.432381	0.515269	0.285448	0.808095	-0.434689	0.899664	-0.040621	-0.738610	-0.330339	0.587650
59003	9.656905	0.610915	8.646921	0.058714	5.685221	-0.375593	0.558065	0.300365	0.773528	-0.433063	0.900593	-0.037269	-0.707828	-0.314188	0.632666
59004	10.214340	2.223425	8.938646	0.145969	5.628262	-0.297564	0.598267	0.314877	0.736837	-0.432315	0.901080	-0.034050	-0.674670	-0.298175	0.675212
59005	10.698647	3.755900	9.592633	0.010025	5.553948	-0.272347	0.636006	0.328462	0.698290	-0.430664	0.901945	-0.032007	-0.640332	-0.280371	0.715099
59006	11.134947	4.367683	10.379277	-0.217693	5.464328	-0.370029	0.671642	0.339849	0.658331	-0.426849	0.903789	-0.031081	-0.605555	-0.260132	0.752087
59007	11.833546	3.947641	11.476518	-0.396944	5.354320	-0.596160	0.705691	0.347762	0.617302	-0.420370	0.906846	-0.030317	-0.570341	-0.238101	0.786142
59008	13.282755	2.288969	12.768913	-0.398572	5.299915	-0.889859	0.738661	0.351665	0.575075	-0.411702	0.910882	-0.028200	-0.533743	-0.215930	0.817614
59009	14.481285	0.351081	13.321653	-0.098389	5.330973	-1.159172	0.770811	0.352036	0.530963	-0.402407	0.915182	-0.022596	-0.493882	-0.196246	0.847094
59010	15.301771	0.076041	13.556092	0.365402	5.345710	-1.270565	0.801122	0.350420	0.485190	-0.394103	0.918975	-0.012990	-0.450429	-0.180808	0.874312
59011	17.005604	1.227719	13.460513	0.676201	5.299143	-1.201988	0.828506	0.348577	0.438259	-0.387158	0.922012	-0.001437	-0.404581	-0.168485	0.898847
59012	19.399367	2.403994	12.754552	0.741679	5.232461	-1.044385	0.852475	0.347412	0.390631	-0.381164	0.924457	0.009639	-0.357772	-0.157112	0.920497
59013	22.065526	2.894279	11.296495	0.653182	5.177355	-0.851730	0.873030	0.347319	0.342328	-0.375956	0.926446	0.018838	-0.310606	-0.145147	0.939391
59014	24.800306	1.874454	9.149520	0.585794	5.152881	-0.699732	0.890435	0.347947	0.293358	-0.371424	0.928082	0.026608	-0.263002	-0.132653	0.955632
59015	25.369716	-1.604873	5.019981	0.693618	5.167666	-0.712494	0.905412	0.347849	0.243372	-0.366639	0.929697	0.035195	-0.214019	-0.121095	0.969294
59016	23.530263	-6.612524	-0.791648	1.235724	4.988848	-1.011685	0.918530	0.344289	0.194340	-0.359707	0.931755	0.049443	-0.164055	-0.115321	0.979687
59017	22.166992	-4.661011	-5.825901	1.951012	4.313490	-1.265982	0.929112	0.337489	0.151166	-0.350712	0.933803	0.070800	-0.117265	-0.118797	0.985970
59018	23.866529	0.010484	-10.424464	1.755971	3.213672	-0.988085	0.935742	0.332124	0.118660	-0.343202	0.934992	0.089460	-0.081234	-0.124436	0.988897
59019	25.507150	0.879940	-14.416402	0.909858	1.940179	-0.220024	0.937880	0.332462	0.099251	-0.341742	0.934598	0.098690	-0.059949	-0.126477	0.990156
59020	22.008689	0.030410	-12.167188	0.209670	0.654448	0.575718	0.936279	0.338622	0.093364	-0.347217	0.932417	0.100196	-0.053126	-0.126229	0.990578
59021	18.456004	1.041147	-21.278572	-0.814382	-1.761438	1.297118	0.930608	0.348445	0.112051	-0.358774	0.928999	0.090787	-0.072461	-0.124688	0.989547
59022	15.147131	6.153234	-11.998729	-2.033588	-3.889720	1.988046	0.919657	0.362079	0.152082	-0.375215	0.924436	0.068055	-0.115949	-0.119651	0.986022
59023	3.272758	-6.891569	13.452920	-1.893974	-4.983723	2.139557	0.904365	0.375776	0.202277	-0.391998	0.918833	0.045649	-0.168705	-0.120576	0.978264
59024	16.185739	-8.027940	24.199700	-1.052267	-2.906124	1.149225	0.894479	0.382755	0.231099	-0.400360	0.915768	0.032884	-0.199046	-0.121937	0.972374
59025	1.411117	2.287110	4.417675	0.287533	-1.641107	0.001555	0.891106	0.380655	0.247045	-0.400926	0.915416	0.035662	-0.212574	-0.130826	0.968348
59026	-7.460423	7.809506	7.300342	-0.233759	-3.894322	-0.275636	0.883246	0.372750	0.284488	-0.397902	0.916793	0.034134	-0.248093	-0.143347	0.958072
59027	20.089950	-2.579335	17.801871	-0.282828	-4.671144	-0.433536	0.872397	0.361693	0.328789	-0.393294	0.918829	0.032771	-0.290248	-0.157900	0.943835
59028	18.991888	-6.945118	15.110737	-0.127656	-3.101176	-0.176588	0.863670	0.354977	0.357863	-0.391332	0.919687	0.032174	-0.317701	-0.167831	0.933220
59029	13.709842	-4.350906	14.096330	0.344287	-2.317755	-0.040445	0.856256	0.350542	0.379403	-0.392069	0.919250	0.035519	-0.336315	-0.179165	0.924550
59030	8.421082	0.685228	11.469468	0.427076	-1.911182	-0.046780	0.849878	0.346545	0.397006	-0.393097	0.918643	0.039630	-0.350973	-0.189742	0.916960
59031	6.826680	5.555559	10.941718	0.365875	-2.014334	-0.112940	0.843100	0.341540	0.415371	-0.393413	0.918336	0.043427	-0.366618	-0.200025	0.908615
59032	14.704231	4.551585	13.934197	-0.545873	-1.793355	0.374474	0.834901	0.341339	0.431772	-0.394465	0.918170	0.036900	-0.383845	-0.201127	0.901228
59033	6.496976	-0.182237	9.222211	-0.283290	-0.788539	0.256302	0.830836	0.342062	0.438982	-0.395461	0.917881	0.033237	-0.391564	-0.201215	0.897881
59034	4.689640	-0.676423	9.050517	-0.244831	-1.002046	0.242379	0.825911	0.342223	0.448056	-0.396458	0.917564	0.029969	-0.400864	-0.202387	0.893503
59035	7.410622	1.187791	9.894413	-0.173515	-0.920697	0.165584	0.821529	0.341828	0.456338	-0.397078	0.917367	0.027675	-0.409170	-0.203938	0.889376
59036	6.298617	-0.196278	9.510662	-0.163516	-0.534639	0.131667	0.818809	0.341902	0.461144	-0.397444	0.917269	0.025620	-0.414234	-0.204257	0.886955
59037	5.143582	-0.804112	9.418866	-0.105928	-0.520053	0.110593	0.816206	0.341808	0.465806	-0.397866	0.917125	0.024172	-0.418940	-0.205057	0.884557
59038	6.198945	-0.636740	9.581935	-0.075548	-0.414246	0.079677	0.814150	0.341646	0.469507	-0.398157	0.917026	0.023133	-0.422647	-0.205771	0.882626
59039	5.284879	-0.842482	9.339604	-0.047621	-0.272449	0.050163	0.812798	0.341501	0.471950	-0.398322	0.916970	0.022479	-0.425087	-0.206259	0.881339
59040	5.031419	-0.325999	9.197850	-0.027708	-0.256624	0.027942	0.811598	0.341185	0.474238	-0.398390	0.916950	0.022104	-0.427311	-0.206871	0.880119
59041	5.205340	-0.085023	9.109755	-0.036091	-0.227923	0.017306	0.810554	0.340828	0.476275	-0.398335	0.916983	0.021707	-0.429338	-0.207312	0.879029
59042	5.151004	-0.210126	9.100332	-0.019170	-0.189188	0.004506	0.809727	0.340435	0.477960	-0.398248	0.917025	0.021519	-0.430976	-0.207771	0.878118
59043	5.027055	0.028261	9.060891	-0.017189	-0.161569	-0.007033	0.809060	0.339990	0.479405	-0.398076	0.917103	0.021404	-0.432386	-0.208157	0.877333
59044	5.053321	0.165937	9.014922	-0.020898	-0.154298	-0.015821	0.808459	0.339482	0.480777	-0.397817	0.917218	0.021298	-0.433747	-0.208480	0.876584
59045	5.023187	0.326681	8.974751	-0.025876	-0.131361	-0.014511	0.807948	0.339031	0.481953	-0.397546	0.917339	0.021144	-0.434946	-0.208682	0.875942
59046	4.997153	0.469313	8.951582	-0.031851	-0.136888	-0.007246	0.807385	0.338636	0.483172	-0.397308	0.917447	0.020902	-0.436207	-0.208844	0.875276
59047	4.700967	0.400655	8.860542	-0.035816	-0.116703	0.000324	0.806875	0.338352	0.484222	-0.397113	0.917539	0.020590	-0.437326	-0.208905	0.874703
59048	4.688865	0.703384	8.824781	-0.062051	-0.167495	0.014060	0.806090	0.338089	0.485711	-0.396914	0.917638	0.019981	-0.438952	-0.208892	0.873891
59049	4.682156	0.567631	8.796706	-0.092212	-0.210050	0.033401	0.805034	0.337912	0.487581	-0.396736	0.917736	0.019017	-0.441044	-0.208750	0.872871
59050	4.844015	0.340731	8.839693	-0.109178	-0.239063	0.040151	0.803822	0.337740	0.489696	-0.396536	0.917845	0.017870	-0.443429	-0.208546	0.871710
59051	5.097913	0.074255	8.957700	-0.116115	-0.259322	0.043523	0.802497	0.337555	0.491990	-0.396328	0.917958	0.016649	-0.446007	-0.208350	0.870441
59052	5.020562	0.092661	8.899285	-0.106811	-0.261753	0.040008	0.801172	0.337335	0.494296	-0.396130	0.918063	0.015525	-0.448558	-0.208243	0.869155
59053	5.100006	0.189189	8.874484	-0.109669	-0.273008	0.035466	0.799805	0.337048	0.496701	-0.395880	0.918189	0.014400	-0.451212	-0.208151	0.867803
59054	5.180703	0.178468	8.879746	-0.103074	-0.265581	0.028861	0.798493	0.336718	0.499030	-0.395603	0.918324	0.013365	-0.453771	-0.208090	0.866482
59055	4.996112	0.311916	8.795369	-0.100131	-0.270219	0.027643	0.797154	0.336365	0.501401	-0.395327	0.918457	0.012364	-0.456357	-0.208074	0.865126
59056	5.049299	0.279891	8.823057	-0.114650	-0.288236	0.022786	0.795749	0.335933	0.503918	-0.394943	0.918637	0.011261	-0.459134	-0.207980	0.863678
59057	5.134648	0.031906	8.788756	-0.113044	-0.288332	0.010981	0.794378	0.335390	0.506436	-0.394469	0.918852	0.010235	-0.461907	-0.207903	0.862217
59058	5.037206	0.142805	8.764695	-0.141050	-0.297087	0.029162	0.792890	0.334999	0.509020	-0.394006	0.919065	0.008875	-0.464849	-0.207593	0.860709
59059	5.101767	0.156926	8.694700	-0.175245	-0.303719	0.034834	0.791337	0.334645	0.511663	-0.393423	0.919329	0.007195	-0.467979	-0.206994	0.859156
59060	5.118810	0.130058	8.711162	-0.213548	-0.317795	0.044140	0.789674	0.334352	0.514416	-0.392728	0.919640	0.005139	-0.471359	-0.206084	0.857526
59061	5.898995	-0.868818	9.333782	-0.278100	-0.307408	0.013628	0.788166	0.333802	0.517079	-0.391479	0.920183	0.002691	-0.474909	-0.204546	0.855934
59062	5.117993	-0.055197	8.538431	-0.151448	-0.185882	-0.031627	0.787408	0.333089	0.518690	-0.390468	0.920615	0.001563	-0.476994	-0.203763	0.854961
59063	5.465562	-0.084263	8.811065	-0.251632	-0.210672	-0.029848	0.786516	0.332343	0.520519	-0.388989	0.921242	-0.000427	-0.479666	-0.202140	0.853850
59064	5.277517	-0.169212	8.720771	-0.168196	-0.174527	-0.040938	0.785839	0.331571	0.522031	-0.387817	0.921735	-0.001645	-0.481720	-0.201160	0.852925
59065	5.219977	0.020652	8.815827	-0.162271	-0.178850	-0.032846	0.785103	0.330865	0.523586	-0.386735	0.922187	-0.002852	-0.483787	-0.200250	0.851968
59066	5.213298	-0.225440	8.812525	-0.114979	-0.186068	-0.030190	0.784320	0.330173	0.525193	-0.385900	0.922533	-0.003668	-0.485720	-0.199795	0.850975
59067	5.022610	-0.309113	8.942899	-0.053295	-0.207228	-0.019693	0.783387	0.329533	0.526985	-0.385445	0.922722	-0.004013	-0.487583	-0.199980	0.849865
59068	4.979164	-0.362892	9.009516	0.005155	-0.265935	-0.015082	0.782148	0.328818	0.529267	-0.385311	0.922779	-0.003885	-0.489673	-0.200894	0.848447
59069	5.237747	-0.025201	8.945597	0.089197	-0.315463	0.005348	0.780578	0.328187	0.531969	-0.385749	0.922598	-0.003152	-0.491828	-0.202746	0.846758
59070	4.975751	-0.416094	9.001161	0.114584	-0.315725	-0.020815	0.779105	0.327309	0.534662	-0.386111	0.922450	-0.002067	-0.493876	-0.204828	0.845063
59071	4.938856	-0.764772	9.090448	0.188925	-0.450190	-0.067212	0.777134	0.325716	0.538490	-0.386483	0.922297	-0.000107	-0.496683	-0.208034	0.842632
59072	5.060512	-0.269300	9.118395	0.232671	-0.497015	-0.086236	0.774994	0.323835	0.542693	-0.386932	0.922106	0.002322	-0.499668	-0.211784	0.839928
59073	4.915264	-0.408360	9.014228	0.321678	-0.595314	-0.110155	0.772435	0.321500	0.547706	-0.387651	0.921789	0.005625	-0.503061	-0.216664	0.836652
59074	5.137005	-0.374337	8.989209	0.407342	-0.685909	-0.128329	0.769472	0.318768	0.553444	-0.388678	0.921322	0.009737	-0.506796	-0.222603	0.832830
59075	4.799708	-0.645992	9.099875	0.529280	-0.825658	-0.166310	0.765916	0.315323	0.560307	-0.390054	0.920669	0.015065	-0.511107	-0.230088	0.828148
59076	4.939245	-0.315831	8.989382	0.724717	-1.011446	-0.178365	0.761422	0.311262	0.568641	-0.392373	0.919542	0.022058	-0.516023	-0.239915	0.822290
59077	5.069828	0.300242	9.284387	0.893963	-1.163115	-0.163476	0.756032	0.306856	0.578148	-0.395729	0.917867	0.030322	-0.521358	-0.251714	0.815369
59078	3.991039	0.074540	9.805254	1.106384	-1.395621	-0.164800	0.749371	0.301689	0.589429	-0.400250	0.915521	0.040265	-0.527487	-0.266093	0.806816
59079	3.715116	0.184000	10.260127	1.231755	-1.807369	-0.195355	0.740546	0.294898	0.603843	-0.405305	0.912741	0.051307	-0.536022	-0.282736	0.795450
59080	3.307047	-0.061389	10.442452	1.355109	-2.252608	-0.263846	0.729425	0.285868	0.621465	-0.410664	0.909565	0.063613	-0.547077	-0.301615	0.780855
59081	2.800276	-0.090141	11.003536	1.414656	-2.845752	-0.339265	0.715049	0.273863	0.643199	-0.416018	0.906117	0.076681	-0.561813	-0.322413	0.761850
59082	2.990251	0.130366	10.756589	1.395118	-3.623299	-0.334052	0.695733	0.258710	0.670093	-0.421599	0.902371	0.089342	-0.581558	-0.344668	0.736881
59083	3.597667	-0.128245	11.225260	1.381260	-4.397896	-0.324446	0.670999	0.240069	0.701518	-0.427544	0.898274	0.101542	-0.605778	-0.368064	0.705380
59084	3.569261	-0.333944	11.570183	1.352821	-5.137661	-0.223603	0.640117	0.218491	0.736554	-0.434424	0.893661	0.112450	-0.633660	-0.391958	0.666966
59085	3.116565	0.623451	11.483149	1.256887	-6.047127	-0.123814	0.601362	0.192919	0.775336	-0.441786	0.888856	0.121491	-0.665725	-0.415592	0.619753
59086	4.817691	1.375492	11.831600	1.166076	-7.100918	-0.042815	0.552987	0.162154	0.817259	-0.449477	0.883966	0.128743	-0.701552	-0.438532	0.561706
59087	8.508098	2.527987	13.630169	0.789224	-7.941574	-0.015151	0.495802	0.126401	0.859187	-0.455052	0.880468	0.133060	-0.739668	-0.456946	0.494057
59088	13.016487	2.095793	13.058018	0.472155	-8.380059	-0.030207	0.432375	0.087224	0.897465	-0.458459	0.878324	0.135510	-0.776445	-0.470042	0.419754
59089	13.640637	4.765378	12.950112	-0.123013	-8.579408	0.100011	0.363777	0.047510	0.930274	-0.457847	0.878851	0.134154	-0.811198	-0.474725	0.341458
59090	21.909941	2.227836	16.822643	-0.271863	-8.674108	-0.129694	0.292667	0.005123	0.956201	-0.455144	0.880187	0.134592	-0.840946	-0.474600	0.259933
59091	19.172582	3.025715	18.052715	-0.580226	-7.162544	-0.352005	0.233241	-0.031810	0.971899	-0.449245	0.882887	0.136709	-0.862426	-0.468506	0.191635
59092	11.156813	0.967879	17.346678	-0.066317	-6.380985	-0.517158	0.180075	-0.066212	0.981422	-0.447573	0.882951	0.141691	-0.875929	-0.464773	0.129363
59093	2.986221	-0.474862	17.295268	0.479918	-6.081321	-0.462170	0.128665	-0.098570	0.986777	-0.451055	0.880349	0.146751	-0.883173	-0.463972	0.068810
59094	-6.233044	-4.518768	13.618457	1.550539	-5.794761	-0.104764	0.077979	-0.126634	0.988880	-0.464614	0.872985	0.148431	-0.882073	-0.471022	0.009239
59095	24.185200	-0.613760	16.456550	3.387749	-6.741868	1.113770	0.013609	-0.149461	0.988674	-0.494774	0.858226	0.136552	-0.868915	-0.491029	-0.062270
59096	28.708479	9.519677	29.804111	1.556534	-1.407149	1.723814	-0.007213	-0.141747	0.989877	-0.508277	0.853009	0.118445	-0.861163	-0.502278	-0.078199
59097	13.174989	10.076038	24.567185	0.085182	1.213355	2.021656	-0.007002	-0.118390	0.992943	-0.508845	0.855218	0.098380	-0.860830	-0.504565	-0.066230
59098	-1.319696	6.501041	15.041301	-1.015267	2.266435	2.072430	0.002112	-0.089272	0.996005	-0.500010	0.862467	0.078363	-0.866017	-0.498178	-0.042816
59099	-4.737090	2.265982	9.869078	-1.439765	2.273934	2.006058	0.012038	-0.060692	0.998084	-0.487610	0.871076	0.058850	-0.872979	-0.487384	-0.019108
59100	-2.087365	-0.745217	7.906755	-1.116924	2.152582	1.736814	0.022495	-0.035158	0.999129	-0.478112	0.877311	0.041636	-0.878011	-0.478632	0.002925
59101	0.656777	-0.985703	7.718876	-0.453014	2.489534	1.359901	0.037960	-0.011349	0.999215	-0.474521	0.879798	0.028019	-0.879425	-0.475212	0.028012
59102	1.474926	0.866227	7.892845	0.069208	3.014913	0.984036	0.059770	0.011598	0.998145	-0.475591	0.879477	0.018260	-0.877634	-0.475800	0.058082
59103	1.411881	3.023656	7.938124	0.148344	3.515912	0.697786	0.087318	0.034460	0.995584	-0.477382	0.878621	0.011457	-0.874347	-0.476274	0.093170
59104	1.126130	3.981431	7.648301	-0.109901	3.924369	0.486158	0.119242	0.057324	0.991209	-0.476903	0.878931	0.006540	-0.870830	-0.473491	0.132144
59105	1.149336	3.249619	7.317921	-0.453690	4.231053	0.311734	0.154612	0.079948	0.984735	-0.473364	0.880862	0.002807	-0.867192	-0.466572	0.174036
59106	1.423515	1.668333	7.102205	-0.626059	4.458619	0.137755	0.192524	0.101709	0.976007	-0.468164	0.883642	0.000265	-0.862414	-0.456982	0.217739
59107	2.043108	0.096053	7.031063	-0.574975	4.639102	-0.016825	0.232533	0.122515	0.964841	-0.463164	0.886272	-0.000913	-0.855224	-0.446667	0.262832
59108	3.083050	-0.951630	7.390984	-0.328296	4.829492	-0.130128	0.274182	0.142664	0.951037	-0.460016	0.887910	-0.000573	-0.844517	-0.437335	0.309077
59109	4.417901	-0.926007	7.864906	-0.040568	5.025706	-0.159259	0.317081	0.163023	0.934282	-0.459177	0.888344	0.000830	-0.829829	-0.429264	0.356534
59110	5.989868	-0.099429	8.624126	0.132193	5.230299	-0.082670	0.360391	0.184492	0.914375	-0.459952	0.887941	0.002127	-0.811518	-0.421335	0.404864
59111	7.324489	0.411003	9.248860	0.143213	5.452038	0.084409	0.403756	0.207955	0.890918	-0.461390	0.887195	0.002013	-0.790000	-0.411874	0.454159
59112	8.350139	-0.161542	9.785869	0.118170	5.637759	0.297671	0.446237	0.233453	0.863928	-0.463543	0.886075	-0.000008	-0.765507	-0.400464	0.503615
59113	9.441539	-1.570022	9.994456	0.268789	5.814670	0.480995	0.487779	0.260648	0.833147	-0.467776	0.883843	-0.002641	-0.737060	-0.388438	0.553045
59114	10.116993	-2.005595	10.000638	0.638330	5.965990	0.572183	0.528073	0.288510	0.798687	-0.475248	0.879844	-0.003603	-0.703760	-0.377672	0.601736
59115	10.212724	-0.527132	10.223655	0.941309	6.031292	0.545328	0.566863	0.315773	0.760890	-0.484649	0.874706	-0.001944	-0.666170	-0.367663	0.648878
59116	10.423531	1.200847	10.965988	0.951912	5.992316	0.386085	0.603718	0.340795	0.720682	-0.493028	0.870012	0.001601	-0.626457	-0.356283	0.693264
59117	10.835383	1.643034	12.015520	0.747549	5.906876	0.088947	0.639175	0.362188	0.678436	-0.498076	0.867110	0.006340	-0.585983	-0.341965	0.734632
59118	11.838769	0.840065	13.542907	0.557727	5.785724	-0.336480	0.673592	0.378537	0.634810	-0.498985	0.866517	0.012765	-0.545241	-0.325359	0.772563
59119	13.709482	-0.843048	15.343871	0.518370	5.707187	-0.853790	0.707838	0.389193	0.589486	-0.495764	0.868176	0.022108	-0.503173	-0.307895	0.807476
59120	16.460345	-1.653448	16.936357	0.657580	5.713171	-1.308306	0.741771	0.394887	0.542069	-0.489403	0.871358	0.034935	-0.458541	-0.291205	0.839607
59121	20.154958	-0.368738	17.715144	0.680205	5.830873	-1.535174	0.774640	0.397941	0.491503	-0.480674	0.875546	0.048697	-0.410955	-0.273975	0.869513
59122	23.219996	1.476781	16.984854	0.321053	6.060576	-1.524616	0.805315	0.400467	0.437143	-0.469828	0.880810	0.058616	-0.361566	-0.252587	0.897480
59123	25.062275	1.308714	14.479316	-0.280636	6.259815	-1.345782	0.832684	0.403496	0.379248	-0.457812	0.886916	0.061558	-0.311523	-0.224883	0.923245
59124	26.126914	-0.926069	10.700409	-0.642091	6.329503	-1.130312	0.855931	0.406638	0.319416	-0.446387	0.892860	0.059501	-0.260999	-0.193512	0.945745
59125	25.084793	-0.793960	7.045860	-0.707588	5.979901	-0.913962	0.874162	0.409079	0.261717	-0.436759	0.897872	0.055393	-0.212328	-0.162730	0.963554
59126	28.074004	-4.851173	-1.679904	-0.382628	5.704616	-0.824147	0.888471	0.410141	0.205922	-0.428735	0.901839	0.053597	-0.163726	-0.135905	0.977100
59127	28.462477	-2.089528	-3.798524	-0.088473	5.345872	-0.686511	0.898905	0.410563	0.152996	-0.422432	0.904788	0.053944	-0.116281	-0.113121	0.986753
59128	29.992374	-1.900403	-11.701792	0.194710	4.399770	-0.337345	0.904566	0.412088	0.109287	-0.419539	0.905990	0.056299	-0.075813	-0.096777	0.992415
59129	30.597714	-3.918059	-20.518676	0.801882	3.159770	-0.066263	0.906754	0.414418	0.077819	-0.419378	0.905531	0.064308	-0.043817	-0.090947	0.994891
59130	25.633429	-0.634245	-22.570673	1.321039	1.518796	0.240808	0.906276	0.417981	0.062901	-0.421975	0.903309	0.077266	-0.024523	-0.096567	0.995024
59131	17.396647	4.891300	-21.055148	0.994901	-1.023003	0.746136	0.902842	0.423612	0.073680	-0.428955	0.899163	0.086625	-0.029555	-0.109814	0.993513
59132	15.830895	10.603775	-17.328565	-0.112117	-4.122062	1.400478	0.894769	0.431257	0.115780	-0.441454	0.893328	0.084170	-0.067130	-0.126424	0.989702
59133	5.132226	3.399018	7.360248	-1.175872	-5.321334	1.786406	0.881794	0.440059	0.169671	-0.456189	0.887125	0.070007	-0.119712	-0.139133	0.983011
59134	17.479070	4.903793	28.424363	-0.919134	-3.696400	1.216723	0.871097	0.445494	0.206700	-0.465548	0.883074	0.058697	-0.156382	-0.147360	0.976642
59135	3.594166	4.664567	5.768123	-1.246176	-1.749575	0.354845	0.866538	0.446039	0.223965	-0.466513	0.883329	0.045775	-0.177417	-0.144149	0.973522
59136	-11.487975	7.050567	2.093498	-0.384538	-3.045863	-0.798774	0.864414	0.434384	0.253177	-0.458824	0.887440	0.043941	-0.205592	-0.154147	0.966422
59137	10.975910	0.631979	15.489587	-0.318292	-5.660251	-1.393271	0.857673	0.412604	0.306846	-0.446050	0.893886	0.044793	-0.255803	-0.175287	0.950705
59138	24.193674	-11.668603	17.333234	-0.854281	-3.730766	-0.713437	0.850626	0.399489	0.341824	-0.437578	0.898333	0.039029	-0.291480	-0.182774	0.938953
59139	18.472984	-11.926899	15.371956	0.324100	-2.747413	-0.244131	0.843393	0.392042	0.367411	-0.436451	0.898704	0.042922	-0.313366	-0.196557	0.929068
59140	13.304972	-3.349520	13.312767	0.591520	-2.231534	0.153269	0.835557	0.388834	0.388139	-0.439599	0.896921	0.047810	-0.329540	-0.210573	0.920360
59141	8.362225	9.498204	12.375452	0.572719	-1.899853	0.030238	0.829041	0.384944	0.405598	-0.441737	0.895582	0.052932	-0.342870	-0.223050	0.912518
59142	12.504421	8.220195	12.843554	-0.546289	-1.765380	0.272709	0.821641	0.383391	0.421803	-0.442028	0.895778	0.046836	-0.359885	-0.224932	0.905477
59143	7.143558	-4.179489	9.663851	-0.451533	-1.052369	0.292721	0.816505	0.383600	0.431474	-0.442737	0.895690	0.041511	-0.370543	-0.224924	0.901170
59144	4.829088	-0.364024	9.447207	-0.193420	-1.124740	0.326928	0.810839	0.383941	0.441735	-0.444631	0.894893	0.038345	-0.380583	-0.227501	0.896326
59145	5.978759	3.250594	9.307750	-0.276846	-1.135361	0.282251	0.805203	0.383827	0.452023	-0.445804	0.894461	0.034610	-0.391033	-0.229382	0.891335
59146	6.956633	-0.526641	9.572356	-0.331290	-0.881367	0.218847	0.800750	0.383719	0.459955	-0.446212	0.894402	0.030666	-0.399617	-0.229793	0.887412
59147	5.587218	-0.675307	9.409631	-0.156471	-0.720900	0.197106	0.796966	0.383774	0.466437	-0.447117	0.894026	0.028370	-0.406118	-0.231162	0.884100
59148	6.082728	0.594598	9.417175	-0.183833	-0.652219	0.153738	0.793617	0.383596	0.472257	-0.447547	0.893881	0.026027	-0.412158	-0.232013	0.881077
59149	6.075111	-1.213261	9.496324	-0.180238	-0.463108	0.121444	0.791153	0.383560	0.476401	-0.447723	0.893854	0.023868	-0.416678	-0.232179	0.878904
59150	5.287064	-0.431885	9.242291	-0.082514	-0.374234	0.093241	0.789177	0.383482	0.479730	-0.448075	0.893708	0.022699	-0.420034	-0.232869	0.877122
59151	5.256192	-0.012580	9.113171	-0.115401	-0.344984	0.065091	0.787429	0.383213	0.482807	-0.448062	0.893747	0.021377	-0.423315	-0.233160	0.875466
59152	5.610275	-0.654321	9.225036	-0.101070	-0.284593	0.047125	0.786016	0.382929	0.485328	-0.447963	0.893822	0.020267	-0.426036	-0.233339	0.874097
59153	5.400767	-0.282781	9.125396	-0.054536	-0.214649	0.028843	0.784969	0.382639	0.487249	-0.447918	0.893859	0.019652	-0.428012	-0.233674	0.873042
59154	5.136758	0.117726	8.961855	-0.040806	-0.173023	0.017801	0.784154	0.382352	0.488784	-0.447842	0.893906	0.019211	-0.429581	-0.233963	0.872193
59155	5.178388	0.092118	8.995962	-0.041504	-0.158210	0.009586	0.783428	0.382021	0.490205	-0.447699	0.893986	0.018805	-0.431053	-0.234196	0.871404
59156	5.310511	0.149601	8.985873	-0.031946	-0.135066	0.001622	0.782844	0.381678	0.491404	-0.447534	0.894075	0.018521	-0.432283	-0.234419	0.870735
59157	4.976430	0.217796	8.854227	-0.016092	-0.100378	0.000028	0.782407	0.381396	0.492317	-0.447425	0.894132	0.018382	-0.433186	-0.234658	0.870222
59158	5.022636	0.242367	8.866937	-0.026341	-0.108720	-0.000207	0.781943	0.381097	0.493285	-0.447269	0.894215	0.018156	-0.434184	-0.234829	0.869678
59159	4.831688	0.432767	8.791132	-0.038748	-0.124301	0.007675	0.781365	0.380827	0.494407	-0.447121	0.894297	0.017784	-0.435374	-0.234956	0.869048
59160	4.828078	0.603871	8.756926	-0.066094	-0.159370	0.026528	0.780558	0.380648	0.495818	-0.447000	0.894371	0.017081	-0.436944	-0.234964	0.868258
59161	4.855488	0.436048	8.759597	-0.095230	-0.192020	0.034083	0.779562	0.380456	0.497530	-0.446810	0.894484	0.016088	-0.438913	-0.234843	0.867297
59162	5.076215	0.190223	8.810903	-0.104173	-0.219867	0.036500	0.778438	0.380224	0.499464	-0.446596	0.894610	0.015006	-0.441120	-0.234739	0.866205
59163	5.154499	0.094741	8.803322	-0.092188	-0.221653	0.027423	0.777332	0.379902	0.501427	-0.446362	0.894742	0.014073	-0.443301	-0.234757	0.865086
59164	5.110540	0.064150	8.822267	-0.089143	-0.215459	0.017486	0.776303	0.379511	0.503314	-0.446061	0.894905	0.013218	-0.445402	-0.234770	0.864003
59165	5.000185	0.236795	8.747319	-0.083712	-0.225916	0.008268	0.775254	0.379008	0.505306	-0.445712	0.895090	0.012456	-0.447573	-0.234878	0.862850
59166	4.970907	0.279300	8.766071	-0.094376	-0.244647	0.001876	0.774154	0.378408	0.507437	-0.445263	0.895324	0.011636	-0.449918	-0.234951	0.861610
59167	5.063187	0.150091	8.716384	-0.102599	-0.256803	0.002409	0.772981	0.377779	0.509689	-0.444779	0.895576	0.010744	-0.452406	-0.235004	0.860292
59168	5.242353	0.020981	8.822831	-0.115237	-0.270403	-0.005254	0.771784	0.377055	0.512035	-0.444176	0.895886	0.009783	-0.455036	-0.234984	0.858909
59169	5.234575	-0.032164	8.735237	-0.103394	-0.248718	-0.011940	0.770698	0.376316	0.514209	-0.443572	0.896194	0.008961	-0.457458	-0.234995	0.857618
59170	5.104798	0.168842	8.733194	-0.109520	-0.264886	-0.003222	0.769503	0.375623	0.516500	-0.443005	0.896483	0.008043	-0.460013	-0.235001	0.856249
59171	5.127776	0.159141	8.719904	-0.115526	-0.261826	-0.001386	0.768297	0.374948	0.518781	-0.442422	0.896779	0.007065	-0.462583	-0.234948	0.854878
59172	4.949789	0.218126	8.693376	-0.138070	-0.289917	0.006524	0.766928	0.374284	0.521279	-0.441791	0.897099	0.005856	-0.465447	-0.234788	0.853366
59173	5.632082	-0.347201	8.918255	-0.172155	-0.320619	0.010594	0.765380	0.373580	0.524053	-0.441029	0.897483	0.004337	-0.468709	-0.234442	0.851674
59174	5.801237	-0.617275	8.765981	-0.114265	-0.217709	-0.021888	0.764459	0.372831	0.525928	-0.440284	0.897852	0.003484	-0.470906	-0.234221	0.850522
59175	5.308331	0.153105	8.829702	-0.129551	-0.209078	-0.013822	0.763528	0.372171	0.527745	-0.439527	0.898226	0.002459	-0.473119	-0.233836	0.849399
59176	5.421870	-0.105157	8.705627	-0.102768	-0.180728	-0.007311	0.762708	0.371641	0.529301	-0.438944	0.898513	0.001630	-0.474978	-0.233577	0.848433
59177	5.109125	-0.318511	8.902669	-0.067502	-0.195656	0.008484	0.761735	0.371213	0.531001	-0.438648	0.898658	0.001017	-0.476811	-0.233697	0.847371
59178	4.938744	-0.410131	9.035257	0.042371	-0.272458	0.009975	0.760394	0.370622	0.533329	-0.438886	0.898542	0.001327	-0.478727	-0.235080	0.845907
59179	4.927451	-0.431061	9.150543	0.094906	-0.329967	0.005626	0.758781	0.369846	0.536158	-0.439345	0.898316	0.002103	-0.480862	-0.237154	0.844115
59180	4.991939	-0.522646	9.083610	0.181929	-0.413647	-0.024405	0.756899	0.368597	0.539666	-0.439997	0.897991	0.003772	-0.483225	-0.240307	0.841871
59181	4.750184	-0.929539	9.167613	0.219210	-0.523030	-0.086981	0.754741	0.366503	0.544097	-0.440362	0.897800	0.006090	-0.486258	-0.244196	0.839001
59182	5.159534	-0.443135	9.113938	0.322204	-0.630166	-0.130262	0.752246	0.363736	0.549384	-0.440913	0.897500	0.009505	-0.489615	-0.249380	0.835516
59183	5.041819	-0.757278	9.052497	0.437523	-0.734218	-0.166758	0.749368	0.360338	0.555522	-0.441771	0.897017	0.014076	-0.493240	-0.255962	0.831383
59184	4.754056	-0.658970	9.146119	0.607466	-0.872146	-0.210504	0.745985	0.356138	0.562735	-0.443166	0.896210	0.020294	-0.497102	-0.264524	0.826388
59185	4.828045	-0.153627	9.341163	0.817194	-1.070479	-0.221773	0.741621	0.351215	0.571530	-0.445557	0.894807	0.028283	-0.501476	-0.275624	0.820093
59186	4.426959	0.176441	9.562904	1.104502	-1.274459	-0.192308	0.736066	0.345850	0.581889	-0.449660	0.892373	0.038414	-0.505977	-0.289928	0.812361
59187	3.678215	-0.052365	10.296931	1.332031	-1.630831	-0.216566	0.728740	0.339004	0.594991	-0.454815	0.889156	0.050446	-0.511939	-0.307373	0.802148
59188	3.277678	-0.019187	10.836065	1.559625	-2.087915	-0.277758	0.719244	0.329860	0.611458	-0.460812	0.885148	0.064535	-0.519943	-0.328184	0.788641
59189	2.390406	-0.841327	11.075232	1.721859	-2.695835	-0.414392	0.706992	0.316985	0.632204	-0.466869	0.880651	0.080542	-0.531221	-0.352099	0.770604
59190	2.202144	-0.804204	10.948207	1.859421	-3.513630	-0.544104	0.690608	0.299312	0.658386	-0.473054	0.875547	0.098169	-0.547065	-0.379248	0.746251
59191	2.820757	-1.361244	11.039595	2.146462	-4.436859	-0.672765	0.669094	0.275870	0.690078	-0.480401	0.869022	0.118387	-0.567034	-0.410726	0.713986
59192	3.630274	-1.205966	11.737887	2.230875	-5.289651	-0.683627	0.641778	0.247300	0.725923	-0.488801	0.861295	0.138725	-0.590927	-0.443862	0.673640
59193	1.887955	0.012049	11.436006	2.021381	-6.026437	-0.613464	0.608344	0.214299	0.764195	-0.497158	0.853440	0.156441	-0.618669	-0.475096	0.625725
59194	2.092591	0.709599	11.386587	1.906160	-7.392227	-0.652640	0.564613	0.172441	0.807141	-0.505414	0.845369	0.172940	-0.652510	-0.505584	0.564461
59195	7.750895	2.990653	13.923337	1.543979	-8.571305	-0.682033	0.510485	0.122199	0.851159	-0.512086	0.838385	0.186760	-0.690777	-0.531205	0.490559
59196	11.082322	3.659134	12.899031	0.651470	-8.911427	-0.529891	0.449848	0.069720	0.890380	-0.514138	0.835399	0.194344	-0.730273	-0.545204	0.411648
59197	17.472764	7.453235	12.052846	-0.047301	-9.674247	-0.278114	0.378630	0.014401	0.925436	-0.512596	0.835792	0.196716	-0.770639	-0.548857	0.323838
59198	25.051590	3.194164	18.478757	-1.204440	-9.391203	-0.344706	0.306153	-0.039593	0.951159	-0.501866	0.842306	0.196599	-0.808951	-0.537543	0.238004
59199	21.074781	3.519847	20.365498	-0.544058	-7.861579	-0.834358	0.245740	-0.088561	0.965282	-0.495060	0.844684	0.203529	-0.833383	-0.527888	0.163730
59200	11.906219	1.786172	19.582787	-0.578743	-6.479253	-1.095494	0.196549	-0.131701	0.971609	-0.487737	0.846505	0.213408	-0.850577	-0.515834	0.102145
59201	1.668589	-0.345129	19.082275	0.352764	-6.262212	-0.901328	0.147420	-0.171440	0.974103	-0.489171	0.843341	0.222457	-0.859639	-0.509297	0.040462
59202	-8.120588	-4.129589	16.908894	1.573318	-5.784431	-0.286607	0.099117	-0.203429	0.974060	-0.502319	0.834773	0.225454	-0.858983	-0.511635	-0.019446
59203	23.310008	0.283712	17.351181	3.839445	-7.105330	1.390276	0.031424	-0.228888	0.972945	-0.535900	0.817824	0.209704	-0.843697	-0.527991	-0.096962
59204	29.157167	13.905604	31.615526	1.299951	-1.358640	2.392236	0.007049	-0.216613	0.976232	-0.547267	0.816241	0.185065	-0.836928	-0.535564	-0.112791
59205	14.680302	11.998141	26.909246	-0.735229	1.490750	3.018095	0.003214	-0.183845	0.982950	-0.541221	0.826226	0.156302	-0.840874	-0.532495	-0.096846
59206	-1.959167	7.011115	15.939925	-1.804825	2.727765	3.240221	0.008988	-0.142493	0.989755	-0.526137	0.841035	0.125860	-0.850352	-0.521878	-0.067412
59207	-5.599806	4.547266	10.854563	-2.201599	2.677195	3.208121	0.015435	-0.101469	0.994719	-0.507651	0.856284	0.095225	-0.861424	-0.506440	-0.038294
59208	-3.326355	2.389052	8.873946	-2.125434	2.497297	2.944201	0.022389	-0.063664	0.997720	-0.489770	0.869315	0.066461	-0.871564	-0.490142	-0.011718
59209	-0.060165	1.284478	8.534610	-1.684251	2.748266	2.487938	0.034562	-0.028603	0.998993	-0.475709	0.878618	0.041614	-0.878923	-0.476669	0.016761
59210	2.000107	1.607845	8.676095	-1.100667	3.313639	1.998178	0.054330	0.004606	0.998512	-0.466882	0.884062	0.021325	-0.882649	-0.467347	0.050181
59211	2.709293	3.097602	8.778186	-0.692996	3.971575	1.608970	0.082066	0.037313	0.995928	-0.461838	0.886951	0.004826	-0.883160	-0.460353	0.090021
59212	2.723750	4.501878	8.637083	-0.603827	4.538315	1.349052	0.115907	0.069966	0.990793	-0.457823	0.888995	-0.009219	-0.881455	-0.452539	0.135072
59213	2.882225	4.740471	8.275550	-0.730921	4.977866	1.185383	0.154460	0.102814	0.982635	-0.452974	0.891251	-0.022050	-0.878042	-0.441702	0.184234
59214	3.043815	3.443716	7.670615	-0.825069	5.303327	1.041868	0.196192	0.135135	0.971209	-0.447553	0.893613	-0.033929	-0.872471	-0.428011	0.235800
59215	3.569306	1.636893	7.173699	-0.696033	5.509191	0.887378	0.240228	0.166291	0.956367	-0.443427	0.895216	-0.044274	-0.863518	-0.413443	0.288793
59216	4.188289	0.167324	6.744425	-0.314725	5.621215	0.759068	0.285037	0.195922	0.938280	-0.442696	0.895138	-0.052428	-0.850161	-0.400429	0.341881
59217	5.293488	-0.134509	6.804377	0.205064	5.667532	0.682405	0.329838	0.224470	0.916963	-0.446501	0.892903	-0.057971	-0.831772	-0.390304	0.394739
59218	6.853661	0.586215	7.234875	0.681633	5.703669	0.646718	0.373716	0.252239	0.892587	-0.454338	0.888743	-0.060927	-0.808649	-0.382767	0.446739
59219	8.548098	2.573292	7.997168	0.959182	5.781801	0.591436	0.417135	0.279449	0.864816	-0.464285	0.883544	-0.061558	-0.781305	-0.375843	0.498301
59220	9.669356	4.062613	8.778406	0.856352	5.881614	0.486294	0.459945	0.305519	0.833732	-0.472950	0.878962	-0.061181	-0.751511	-0.366174	0.548769
59221	10.662935	3.849811	9.096402	0.659903	5.971073	0.313439	0.502540	0.329769	0.799191	-0.479292	0.875608	-0.059916	-0.719536	-0.352936	0.598084
59222	11.008543	3.689289	9.380916	0.607592	6.056488	0.060929	0.544791	0.351176	0.761498	-0.483844	0.873322	-0.056593	-0.684907	-0.337615	0.645692
59223	10.974247	4.145506	9.907264	0.534148	6.075682	-0.289315	0.586840	0.368658	0.720909	-0.485742	0.872623	-0.050834	-0.647822	-0.320345	0.691163
59224	10.996858	4.260102	10.717251	0.413158	6.037087	-0.713439	0.628258	0.381153	0.678244	-0.483967	0.874035	-0.042883	-0.609154	-0.301306	0.733585
59225	11.371951	3.632727	11.867538	0.290733	5.926624	-1.169793	0.668950	0.388170	0.633900	-0.478061	0.877707	-0.032971	-0.569177	-0.280987	0.772712
59226	12.580086	1.937628	13.337047	0.287450	5.808508	-1.612571	0.708459	0.389668	0.588426	-0.468491	0.883223	-0.020831	-0.527828	-0.260914	0.808283
59227	14.874782	-0.144240	15.172874	0.476259	5.701803	-1.993675	0.746655	0.386355	0.541513	-0.456356	0.889780	-0.005597	-0.483989	-0.242944	0.840674
59228	18.663590	-0.791668	16.936760	0.851348	5.742551	-2.210223	0.783038	0.380111	0.492308	-0.443324	0.896265	0.013121	-0.436251	-0.228526	0.870322
59229	22.966209	0.625654	17.433663	1.108613	5.991987	-2.199801	0.817310	0.373631	0.438639	-0.430216	0.902115	0.033198	-0.383300	-0.215843	0.898050
59230	25.891252	3.006313	16.291762	0.993027	6.327239	-1.988180	0.848205	0.368796	0.380181	-0.417138	0.907445	0.050387	-0.326411	-0.201326	0.923539
59231	27.671763	4.157717	13.017760	0.533090	6.571519	-1.650473	0.874579	0.366349	0.317647	-0.404449	0.912514	0.061153	-0.267454	-0.181955	0.946235
59232	27.407468	2.132119	7.538378	0.086679	6.603825	-1.360501	0.895740	0.365104	0.253672	-0.392568	0.917362	0.065861	-0.208663	-0.158578	0.965045
59233	25.701855	-3.287256	0.715003	0.113172	6.244038	-1.424774	0.912541	0.361190	0.191863	-0.379837	0.922390	0.070149	-0.151636	-0.136890	0.978911
59234	24.647727	-6.307790	-6.310366	0.917573	5.383509	-1.693824	0.925607	0.352563	0.137663	-0.365375	0.927246	0.081950	-0.098755	-0.126152	0.987083
59235	28.083052	-3.772671	-12.175014	1.593017	4.122760	-1.559309	0.934389	0.343249	0.095381	-0.352044	0.930678	0.099518	-0.054610	-0.126567	0.990454
59236	32.229119	-2.963292	-18.002085	1.826445	2.859354	-0.974440	0.938880	0.337857	0.066013	-0.343573	0.931635	0.118382	-0.021504	-0.133827	0.990771
59237	32.500162	0.099439	-20.585982	1.788906	1.588942	-0.125317	0.939501	0.338867	0.050071	-0.342546	0.929582	0.136157	-0.000405	-0.145072	0.989421
59238	27.462463	2.291299	-19.616127	1.329872	0.069559	1.025939	0.935950	0.348440	0.050865	-0.352100	0.924064	0.148768	0.004835	-0.157149	0.987563
59239	17.382185	9.416767	-8.622325	0.755248	-1.281536	1.587779	0.930260	0.360930	0.065919	-0.366874	0.917218	0.155289	-0.004414	-0.168643	0.985667
59240	-1.242424	25.941709	-5.230369	-4.269299	-3.693493	1.978915	0.921752	0.373282	0.105043	-0.383904	0.916624	0.111432	-0.054689	-0.143039	0.988205
59241	5.779629	-14.623019	15.748250	-3.739160	-6.162827	1.489530	0.910409	0.378417	0.167202	-0.394142	0.916181	0.072557	-0.125731	-0.131958	0.983249
59242	4.124296	-4.421726	11.993667	-1.649569	-2.764095	-0.587341	0.908801	0.369401	0.193970	-0.386425	0.920532	0.057417	-0.157345	-0.127135	0.979326
59243	-3.719041	4.929473	1.196078	-0.664018	-3.111838	-1.844599	0.910400	0.348271	0.223336	-0.368457	0.928028	0.054798	-0.188177	-0.132178	0.973200
59244	-1.933977	-1.848448	13.450238	-1.628914	-6.142353	-1.612759	0.902751	0.324906	0.281915	-0.350222	0.935673	0.043126	-0.249768	-0.137665	0.958470
59245	35.825426	-25.252872	17.996989	-0.352663	-5.480235	-0.979627	0.891076	0.307741	0.333586	-0.340422	0.939298	0.042811	-0.300161	-0.151708	0.941747
59246	21.838085	-13.647227	17.792789	0.360102	-3.605659	0.094578	0.879380	0.302858	0.367379	-0.342354	0.938452	0.045844	-0.330883	-0.166088	0.928941
59247	13.247641	-2.333133	12.286933	1.086143	-2.822864	0.305363	0.868685	0.300723	0.393639	-0.348690	0.935640	0.054703	-0.351854	-0.184777	0.917636
59248	16.958666	22.511221	18.095366	0.447485	-3.027755	0.542418	0.855755	0.299954	0.421557	-0.354955	0.933170	0.056568	-0.376417	-0.198042	0.905036
59249	14.147953	0.685321	9.363142	-1.546411	-1.306086	0.574237	0.848687	0.302747	0.433676	-0.353859	0.934436	0.040162	-0.393083	-0.187545	0.900173
59250	3.705981	-6.783218	10.238661	-0.538506	-1.398747	0.463957	0.841450	0.304422	0.446418	-0.355584	0.934051	0.033289	-0.406843	-0.186750	0.894205
59251	6.580640	2.459472	9.418627	-0.169101	-1.479544	0.389958	0.833930	0.305228	0.459780	-0.358111	0.933196	0.030019	-0.419902	-0.189686	0.887526
59252	8.641157	2.176298	9.721441	-0.555140	-1.079150	0.244172	0.828468	0.305428	0.469419	-0.357738	0.933514	0.023972	-0.430888	-0.187789	0.882650
59253	5.501782	-2.557265	9.411286	-0.350114	-0.775939	0.216389	0.824305	0.305942	0.476362	-0.357963	0.933524	0.019872	-0.438616	-0.186901	0.879025
59254	6.987713	1.133128	9.477753	-0.189649	-0.744353	0.171327	0.820404	0.306106	0.482946	-0.358492	0.933371	0.017389	-0.445445	-0.187398	0.875478
59255	6.254714	-1.016249	9.276507	-0.295560	-0.441490	0.139579	0.817909	0.306532	0.486890	-0.358271	0.933511	0.014134	-0.450185	-0.185999	0.873349
59256	5.458442	-0.608030	9.123218	-0.105936	-0.381969	0.116130	0.815769	0.306863	0.490260	-0.358699	0.933368	0.012645	-0.453713	-0.186171	0.871484
59257	5.648101	0.214488	9.008556	-0.144157	-0.313994	0.104858	0.813945	0.307206	0.493070	-0.358856	0.933330	0.010880	-0.456855	-0.185796	0.869922
59258	5.445648	-0.766601	9.085386	-0.124857	-0.285702	0.084772	0.812334	0.307425	0.495584	-0.358931	0.933317	0.009378	-0.459654	-0.185498	0.868509
59259	5.541656	-0.497481	9.021289	-0.061688	-0.229440	0.058178	0.811049	0.307490	0.497645	-0.359078	0.933268	0.008559	-0.461804	-0.185635	0.867339
59260	5.314189	-0.282331	9.008639	-0.047357	-0.193049	0.038757	0.810019	0.307451	0.499343	-0.359131	0.933253	0.007958	-0.463567	-0.185776	0.866368
59261	5.309164	-0.193687	8.961550	-0.041813	-0.168083	0.021373	0.809141	0.307286	0.500865	-0.359069	0.933281	0.007493	-0.465145	-0.185908	0.865493
59262	5.306633	-0.076482	8.868254	-0.019374	-0.148983	0.009163	0.808417	0.307052	0.502177	-0.359011	0.933305	0.007282	-0.466448	-0.186174	0.864734
59263	5.184757	0.123967	8.873168	-0.013441	-0.127499	0.000432	0.807799	0.306767	0.503343	-0.358911	0.933344	0.007168	-0.467594	-0.186446	0.864057
59264	5.164942	0.121705	8.800321	-0.004949	-0.119546	-0.005462	0.807261	0.306451	0.504398	-0.358802	0.933386	0.007156	-0.468605	-0.186756	0.863442
59265	5.005322	0.407388	8.686851	-0.003196	-0.126795	-0.004978	0.806663	0.306116	0.505556	-0.358705	0.933423	0.007158	-0.469707	-0.187120	0.862764
59266	4.842570	0.665112	8.620635	-0.030475	-0.152418	0.008937	0.805917	0.305871	0.506894	-0.358592	0.933469	0.006853	-0.471073	-0.187291	0.861981
59267	4.851852	0.456338	8.610945	-0.059273	-0.193417	0.021230	0.804907	0.305655	0.508626	-0.358442	0.933531	0.006240	-0.472911	-0.187336	0.860965
59268	5.091975	0.249703	8.671947	-0.076512	-0.222058	0.029649	0.803750	0.305474	0.510560	-0.358276	0.933600	0.005434	-0.474999	-0.187289	0.859825
59269	5.176742	0.160787	8.658496	-0.077017	-0.233515	0.033119	0.802499	0.305293	0.512633	-0.358134	0.933659	0.004609	-0.477217	-0.187290	0.858596
59270	5.260063	0.067804	8.717350	-0.082483	-0.235490	0.036763	0.801242	0.305153	0.514677	-0.357993	0.933717	0.003716	-0.479429	-0.187228	0.857376
59271	5.294119	-0.021610	8.799420	-0.083862	-0.224703	0.036414	0.800011	0.305019	0.516668	-0.357840	0.933779	0.002817	-0.481594	-0.187138	0.856181
59272	5.244755	0.002968	8.738844	-0.108141	-0.223715	0.028095	0.798832	0.304821	0.518605	-0.357501	0.933911	0.001749	-0.483798	-0.186799	0.855012
59273	5.349861	0.019794	8.649001	-0.110312	-0.213035	0.019011	0.797710	0.304548	0.520490	-0.357076	0.934075	0.000715	-0.485959	-0.186425	0.853867
59274	5.293089	0.009024	8.782875	-0.118323	-0.217530	0.025085	0.796562	0.304336	0.522368	-0.356658	0.934235	-0.000422	-0.488143	-0.185971	0.852720
59275	5.973189	-1.040746	8.734962	-0.127929	-0.165946	-0.009136	0.795761	0.303889	0.523847	-0.355918	0.934516	-0.001457	-0.489987	-0.185288	0.851811
59276	5.298771	0.209608	8.800821	-0.109204	-0.146377	0.004014	0.795030	0.303614	0.525116	-0.355373	0.934722	-0.002404	-0.491567	-0.184701	0.851027
59277	5.341004	-0.209622	8.575180	-0.121721	-0.135035	0.003656	0.794329	0.303346	0.526330	-0.354761	0.934951	-0.003452	-0.493139	-0.183979	0.850274
59278	5.295965	0.015027	8.711176	-0.126320	-0.132724	0.008705	0.793644	0.303142	0.527480	-0.354164	0.935172	-0.004567	-0.494669	-0.183190	0.849555
59279	5.377250	-0.113705	8.616066	-0.121467	-0.145117	0.018977	0.792834	0.303001	0.528776	-0.353671	0.935352	-0.005692	-0.496317	-0.182500	0.848742
59280	5.365645	-0.038875	8.719501	-0.116272	-0.129712	0.016969	0.792131	0.302881	0.529898	-0.353186	0.935529	-0.006764	-0.497783	-0.181794	0.848035
59281	5.326435	-0.136230	8.747474	-0.105608	-0.132356	0.016298	0.791390	0.302741	0.531084	-0.352747	0.935687	-0.007739	-0.499271	-0.181213	0.847284
59282	5.177300	-0.196581	8.939609	-0.068873	-0.144109	0.009759	0.790636	0.302529	0.532326	-0.352438	0.935798	-0.008370	-0.500681	-0.180994	0.846498
59283	4.708112	-0.671723	9.232557	0.051555	-0.233092	0.028309	0.789344	0.302318	0.534360	-0.352878	0.935634	-0.008078	-0.502408	-0.182188	0.845218
59284	5.042358	-0.234603	9.133278	0.125765	-0.302585	0.019912	0.787751	0.301907	0.536936	-0.353627	0.935360	-0.007118	-0.504377	-0.184268	0.843593
59285	4.609580	-0.798554	9.212478	0.156170	-0.402598	-0.028080	0.785791	0.300845	0.540393	-0.354154	0.935170	-0.005645	-0.507058	-0.186947	0.841394
59286	5.065407	-0.604406	9.224384	0.249430	-0.524452	-0.064400	0.783353	0.299210	0.544823	-0.354876	0.934908	-0.003195	-0.510316	-0.190841	0.838545
59287	5.104275	-0.628378	9.177661	0.325391	-0.625689	-0.104426	0.780495	0.296972	0.550122	-0.355684	0.934606	0.000105	-0.514116	-0.195752	0.835084
59288	5.034568	-0.889107	9.083175	0.433118	-0.736081	-0.148099	0.777224	0.294082	0.556272	-0.356725	0.934198	0.004538	-0.518334	-0.201963	0.830988
59289	4.928747	-0.781798	9.069561	0.597857	-0.911436	-0.204693	0.773185	0.290241	0.563866	-0.358211	0.933580	0.010641	-0.523326	-0.210211	0.825798
59290	5.024331	0.272876	9.372802	0.859314	-1.086793	-0.207414	0.768215	0.285918	0.572797	-0.361091	0.932339	0.018896	-0.528638	-0.221348	0.819479
59291	4.204550	-0.344985	9.433120	1.003489	-1.256666	-0.197179	0.762226	0.281167	0.583058	-0.364877	0.930628	0.028226	-0.534674	-0.234259	0.811940
59292	3.914183	0.580975	10.093114	1.368425	-1.636255	-0.206344	0.754176	0.275232	0.596209	-0.370639	0.927894	0.040492	-0.542074	-0.251516	0.801807
59293	3.096912	0.054971	10.679001	1.518176	-2.012183	-0.232880	0.744022	0.267766	0.612154	-0.377157	0.924575	0.053980	-0.551529	-0.271040	0.788894
59294	1.919980	-0.150952	11.772341	1.580911	-2.725557	-0.313355	0.729989	0.257145	0.633240	-0.383638	0.920956	0.068271	-0.565630	-0.292772	0.770939
59295	1.949659	-0.181807	11.513930	1.544582	-3.659874	-0.311721	0.710099	0.243087	0.660809	-0.390251	0.917049	0.082011	-0.586058	-0.316117	0.746060
59296	2.478293	-0.266900	11.576317	1.491379	-4.678332	-0.247704	0.683026	0.225408	0.694742	-0.397427	0.912746	0.094585	-0.612803	-0.340714	0.713012
59297	2.946023	-0.327430	11.849531	1.574916	-5.586910	-0.186759	0.648652	0.203885	0.733268	-0.406043	0.907588	0.106832	-0.643723	-0.367035	0.671495
59298	2.807702	-0.481731	11.646433	1.612066	-6.495177	-0.050253	0.605922	0.178659	0.775203	-0.416346	0.901563	0.117648	-0.677875	-0.394038	0.620660
59299	2.420802	0.898454	11.258294	1.440564	-7.546071	0.120352	0.552805	0.148996	0.819882	-0.427049	0.895520	0.125196	-0.715567	-0.419339	0.558676
59300	6.352414	2.076241	12.564399	1.379100	-9.350446	0.106313	0.483395	0.109518	0.868525	-0.437734	0.889440	0.131474	-0.758102	-0.443737	0.477890
59301	14.888284	3.241765	15.338309	0.719804	-9.553042	0.094838	0.408614	0.067194	0.910231	-0.443726	0.886121	0.133780	-0.797585	-0.458557	0.391897
59302	16.049749	5.763938	12.678734	-0.044467	-9.618835	0.148681	0.329452	0.024131	0.943864	-0.443881	0.886269	0.132276	-0.833325	-0.462542	0.302694
59303	26.666670	4.365154	18.861862	-0.529758	-9.819473	0.015655	0.245998	-0.020993	0.969043	-0.439396	0.888720	0.130796	-0.863954	-0.457969	0.209399
59304	22.489560	4.877415	21.670829	-1.172499	-7.501223	-0.242371	0.181413	-0.057068	0.981750	-0.428593	0.893927	0.131161	-0.885098	-0.444565	0.137711
59305	10.562354	1.267423	20.062363	-0.893858	-6.666468	-0.441709	0.123833	-0.090263	0.988189	-0.419911	0.897528	0.134602	-0.899077	-0.431620	0.073242
59306	0.151448	-0.469762	21.630049	-0.129708	-6.058379	-0.429763	0.070946	-0.120097	0.990224	-0.418300	0.897636	0.138837	-0.905534	-0.424061	0.013448
59307	-4.429095	-10.312630	7.673746	1.505273	-6.298522	0.164485	0.013385	-0.145505	0.989267	-0.431945	0.891440	0.136960	-0.901800	-0.429142	-0.050918
59308	40.327217	5.510621	31.483851	3.551832	-5.432704	0.997669	-0.039647	-0.160675	0.986211	-0.463544	0.877313	0.124298	-0.885187	-0.452224	-0.109263
59309	24.472072	11.390643	29.289434	1.562078	0.057650	1.460597	-0.045893	-0.147605	0.987981	-0.476660	0.872404	0.108196	-0.877889	-0.465965	-0.110395
59310	4.499678	12.155004	21.038458	-0.261126	2.548127	1.744063	-0.031785	-0.120516	0.992202	-0.473671	0.875965	0.091224	-0.880128	-0.467078	-0.084928
59311	-7.034658	9.602944	12.536156	-1.638058	2.600068	1.882489	-0.017396	-0.091907	0.995616	-0.458690	0.885532	0.073730	-0.888426	-0.455396	-0.057561
59312	-6.039787	4.435527	9.249773	-2.365004	1.981829	1.880508	-0.008110	-0.066354	0.997763	-0.437291	0.897566	0.056136	-0.899284	-0.435858	-0.036295
59313	-1.263706	0.439726	8.283478	-2.215134	1.970418	1.542780	0.003310	-0.043992	0.999026	-0.417199	0.907874	0.041361	-0.908809	-0.416929	-0.015348
59314	1.666059	-1.214828	8.550061	-1.503921	2.517960	1.051240	0.021947	-0.024123	0.999468	-0.403600	0.914413	0.030933	-0.914672	-0.404064	0.010333
59315	2.121415	-0.270713	8.521034	-0.739640	3.268614	0.611133	0.049642	-0.005381	0.998753	-0.397020	0.917478	0.024676	-0.916466	-0.397750	0.043409
59316	0.979370	2.055561	8.038915	-0.366877	3.884128	0.332926	0.083897	0.013012	0.996390	-0.393861	0.918926	0.021163	-0.915333	-0.394214	0.082220
59317	0.304283	3.448552	7.462560	-0.458097	4.243183	0.219878	0.122053	0.031699	0.992017	-0.389873	0.920682	0.018548	-0.912744	-0.389025	0.124730
59318	1.110544	2.927540	7.382613	-0.721040	4.472607	0.194032	0.162045	0.050654	0.985482	-0.383555	0.923386	0.015607	-0.909190	-0.380516	0.169059
59319	2.735677	1.506764	7.766824	-0.840444	4.729447	0.199327	0.204407	0.070289	0.976359	-0.376272	0.926430	0.012081	-0.903680	-0.369846	0.215816
59320	4.579606	0.403694	8.107283	-0.762406	5.092303	0.238282	0.249316	0.091006	0.964137	-0.369928	0.929026	0.007968	-0.894983	-0.358648	0.265287
59321	5.440040	-0.516511	7.914501	-0.559111	5.500246	0.319376	0.297270	0.113455	0.948029	-0.365803	0.930686	0.003324	-0.881940	-0.347780	0.318167
59322	6.087962	-0.886774	7.795826	-0.264785	5.792163	0.481354	0.346089	0.137757	0.928033	-0.365009	0.931002	-0.002076	-0.864286	-0.338022	0.372492
59323	6.962882	-1.009493	7.805909	0.080873	5.972782	0.705286	0.394717	0.164316	0.903990	-0.368282	0.929678	-0.008178	-0.841764	-0.329695	0.427474
59324	8.237343	-0.713551	8.028273	0.456160	6.106023	0.915361	0.441887	0.192702	0.876129	-0.375858	0.926568	-0.014227	-0.814535	-0.323013	0.481867
59325	9.590499	0.540615	8.375191	0.754661	6.243992	1.063734	0.487948	0.222571	0.844020	-0.386804	0.921956	-0.019502	-0.782489	-0.316954	0.535958
59326	10.602361	1.948334	8.752899	0.862975	6.372550	1.108769	0.532324	0.252697	0.807945	-0.399027	0.916631	-0.023787	-0.746598	-0.309730	0.588777
59327	11.657226	2.968989	8.868767	0.887682	6.465244	1.048467	0.575311	0.282055	0.767765	-0.411261	0.911131	-0.026552	-0.707023	-0.300476	0.640182
59328	11.954292	4.560931	9.101310	0.819242	6.520595	0.829664	0.616593	0.308767	0.724207	-0.421791	0.906283	-0.027280	-0.664759	-0.288643	0.689043
59329	11.683404	5.701554	9.811029	0.567349	6.474280	0.431522	0.656602	0.330885	0.677783	-0.428158	0.903324	-0.026213	-0.620931	-0.272987	0.734795
59330	11.821748	5.395034	10.787352	0.249361	6.365407	-0.109834	0.695209	0.346617	0.629715	-0.428870	0.903058	-0.023599	-0.576849	-0.253660	0.776467
59331	12.491382	3.576575	12.029297	0.081426	6.204214	-0.706228	0.732814	0.355325	0.580282	-0.424245	0.905356	-0.018616	-0.531976	-0.232540	0.814203
59332	13.806001	1.051951	13.433762	0.243116	6.049364	-1.278645	0.768977	0.357163	0.530197	-0.415838	0.909389	-0.009488	-0.485544	-0.213180	0.847822
59333	16.229974	-0.228890	14.778439	0.675137	5.898161	-1.679527	0.803223	0.353982	0.479093	-0.405705	0.913991	0.004874	-0.436162	-0.198285	0.877751
59334	20.747445	0.947599	15.996104	1.079611	5.876789	-1.833687	0.834672	0.348475	0.426484	-0.395069	0.918368	0.022801	-0.383723	-0.187522	0.904208
59335	24.772523	3.024555	15.759728	1.075061	6.059752	-1.731043	0.863102	0.343553	0.370170	-0.384147	0.922422	0.039597	-0.327849	-0.176376	0.928120
59336	27.364820	3.926056	13.354731	0.747499	6.259544	-1.423315	0.887232	0.340942	0.310771	-0.373882	0.926048	0.051458	-0.270245	-0.161846	0.949091
59337	28.277317	2.577218	8.984998	0.453960	6.313046	-1.072497	0.906492	0.340636	0.249479	-0.365301	0.929027	0.058852	-0.211726	-0.144484	0.966590
59338	26.972321	-2.202358	2.809098	0.427398	6.069945	-0.953040	0.921071	0.339992	0.189824	-0.357333	0.931706	0.065096	-0.154728	-0.127789	0.979658
59339	24.898640	-10.865495	-4.799618	1.261766	5.403269	-1.482550	0.933206	0.332847	0.135426	-0.345139	0.935140	0.079952	-0.100031	-0.121352	0.987556
59340	26.535580	-7.504557	-10.014284	2.549887	4.248659	-1.943715	0.942990	0.319965	0.091608	-0.328796	0.938279	0.107362	-0.051601	-0.131362	0.989991
59341	31.399038	-0.020602	-14.111895	2.236495	2.998731	-1.503797	0.948868	0.309914	0.060028	-0.315272	0.939966	0.130644	-0.015935	-0.142889	0.989610
59342	33.135012	2.828547	-17.740859	0.905140	1.784460	-0.377726	0.950172	0.308899	0.041880	-0.311702	0.939843	0.139775	0.003816	-0.145864	0.989297
59343	29.138199	-0.420771	-19.302184	-0.206054	0.334511	1.006484	0.946985	0.318786	0.039935	-0.321215	0.936996	0.137331	0.006360	-0.142879	0.989720
59344	19.260192	3.131319	-8.946523	-0.314813	-1.034938	1.705152	0.941394	0.333198	0.052507	-0.337280	0.931903	0.133410	-0.004479	-0.143300	0.989669
59345	0.199367	20.094900	-8.355549	-4.316588	-3.466820	2.201405	0.932787	0.349178	0.089348	-0.356659	0.929978	0.089080	-0.051986	-0.114960	0.992009
59346	5.265721	-18.861608	18.598521	-3.598722	-6.170445	1.806781	0.920850	0.359187	0.151726	-0.370236	0.927523	0.051259	-0.122318	-0.103376	0.987093
59347	5.162018	-11.087116	14.327852	-0.986407	-2.220286	-0.329654	0.919090	0.353798	0.173493	-0.365838	0.929726	0.042094	-0.146408	-0.102159	0.983935
59348	-7.261665	3.516417	-1.568925	0.893672	-2.580867	-1.668830	0.921045	0.335343	0.198044	-0.351843	0.934503	0.053953	-0.166980	-0.119373	0.978707
59349	-2.016483	4.851071	11.471762	-0.717086	-6.435926	-1.441615	0.913290	0.313637	0.259873	-0.337158	0.940104	0.050300	-0.228532	-0.133556	0.964332
59350	31.378077	-16.665820	19.200267	-0.571698	-5.215586	-0.692849	0.902398	0.299826	0.309487	-0.329377	0.943038	0.046792	-0.277828	-0.144163	0.949752
59351	17.171843	-10.203188	14.842008	0.739914	-3.874649	-0.315999	0.892040	0.290855	0.345930	-0.328677	0.942851	0.054810	-0.310219	-0.162592	0.936658
59352	15.499747	-0.554436	14.445323	0.776656	-3.414639	0.069776	0.880747	0.285625	0.377761	-0.331771	0.941335	0.061779	-0.337954	-0.179742	0.923840
59353	15.805230	17.057218	17.439640	0.711106	-3.077356	0.167164	0.869391	0.281381	0.406182	-0.335687	0.939542	0.067639	-0.362593	-0.195155	0.911285
59354	21.587478	4.974573	13.248037	-1.657075	-1.708102	0.641732	0.860875	0.284131	0.422095	-0.335019	0.940887	0.049929	-0.382958	-0.184392	0.905176
59355	2.647926	-5.286531	9.459307	-0.506682	-1.252224	0.370128	0.854730	0.285251	0.433668	-0.336184	0.940778	0.043787	-0.395495	-0.183218	0.900008
59356	5.883639	-0.911302	9.290348	-0.182006	-1.396404	0.432092	0.847664	0.286697	0.446397	-0.339088	0.939893	0.040252	-0.408025	-0.185489	0.893929
59357	8.713612	4.138698	9.831936	-0.387838	-1.217300	0.284131	0.841630	0.287052	0.457450	-0.339844	0.939811	0.035519	-0.419721	-0.185355	0.888526
59358	5.738598	-2.161079	9.388185	-0.375903	-0.768825	0.262905	0.837481	0.288061	0.464377	-0.340417	0.939764	0.030974	-0.427482	-0.184022	0.885096
59359	6.160788	-0.018408	9.506461	-0.099569	-0.864336	0.222126	0.832960	0.288490	0.472176	-0.341803	0.939322	0.029064	-0.435141	-0.185601	0.881025
59360	6.671418	-0.056781	9.442614	-0.206462	-0.578724	0.176108	0.829826	0.289029	0.477338	-0.342321	0.939212	0.026413	-0.440687	-0.185321	0.878323
59361	5.400273	-0.991785	9.214807	-0.109411	-0.472190	0.157143	0.827158	0.289568	0.481622	-0.343099	0.938974	0.024709	-0.445076	-0.185682	0.876030
59362	5.802966	-0.005329	9.267701	-0.092557	-0.407923	0.124101	0.824911	0.289932	0.485243	-0.343668	0.938802	0.023301	-0.448792	-0.185984	0.874069
59363	5.764635	-0.889806	9.248852	-0.105886	-0.288748	0.095741	0.823242	0.290234	0.487890	-0.343940	0.938736	0.021917	-0.451638	-0.185848	0.872630
59364	5.756030	-0.611897	9.228090	-0.041948	-0.201460	0.060649	0.822124	0.290387	0.489682	-0.344208	0.938653	0.021257	-0.453468	-0.186028	0.871642
59365	5.318098	-0.186075	9.074623	-0.024938	-0.122124	0.035374	0.821406	0.290432	0.490857	-0.344345	0.938611	0.020871	-0.454663	-0.186168	0.870990
59366	5.232307	0.045648	8.951491	-0.013798	-0.095575	0.018143	0.820911	0.290382	0.491715	-0.344389	0.938600	0.020664	-0.455523	-0.186305	0.870511
59367	5.017302	0.329508	8.858000	-0.015734	-0.086684	0.013304	0.820428	0.290286	0.492577	-0.344386	0.938605	0.020466	-0.456394	-0.186427	0.870028
59368	4.906841	0.340115	8.799070	-0.027636	-0.106506	0.016953	0.819885	0.290204	0.493528	-0.344357	0.938623	0.020144	-0.457391	-0.186466	0.869497
59369	4.872623	0.456398	8.755747	-0.041921	-0.125140	0.023075	0.819191	0.290127	0.494725	-0.344314	0.938648	0.019670	-0.458666	-0.186454	0.868827
59370	4.751843	0.586161	8.724215	-0.068094	-0.163782	0.036600	0.818314	0.290123	0.496176	-0.344259	0.938684	0.018900	-0.460269	-0.186279	0.868016
59371	4.728428	0.723603	8.630710	-0.101336	-0.214184	0.047848	0.817119	0.290114	0.498146	-0.344142	0.938749	0.017789	-0.462474	-0.185969	0.866911
59372	4.843484	0.587359	8.634888	-0.126019	-0.262124	0.057477	0.815708	0.290124	0.500449	-0.343985	0.938832	0.016413	-0.465075	-0.185535	0.865611
59373	4.838722	0.436332	8.630668	-0.136508	-0.305779	0.061877	0.814026	0.290078	0.503206	-0.343812	0.938920	0.014929	-0.468140	-0.185161	0.864038
59374	5.302231	0.240686	8.777734	-0.157647	-0.330827	0.057804	0.812275	0.289967	0.506092	-0.343500	0.939059	0.013279	-0.471399	-0.184629	0.862377
59375	5.340897	-0.011473	8.717688	-0.146321	-0.290273	0.043433	0.810711	0.289778	0.508701	-0.343119	0.939218	0.011806	-0.474360	-0.184116	0.860862
59376	5.231833	0.129840	8.779534	-0.138762	-0.285319	0.039327	0.809220	0.289581	0.511182	-0.342736	0.939374	0.010415	-0.477175	-0.183628	0.859410
59377	5.342854	-0.013657	8.736054	-0.136657	-0.278298	0.035196	0.807724	0.289340	0.513678	-0.342325	0.939538	0.009069	-0.479995	-0.183170	0.857935
59378	5.256961	0.105539	8.725783	-0.143496	-0.270480	0.027864	0.806328	0.289065	0.516021	-0.341818	0.939735	0.007699	-0.482697	-0.182593	0.856542
59379	5.193972	0.111156	8.653534	-0.144640	-0.281390	0.036934	0.804795	0.288837	0.518534	-0.341374	0.939907	0.006279	-0.485560	-0.182067	0.855034
59380	6.007270	-0.946471	9.433529	-0.231635	-0.312961	0.008482	0.803242	0.288307	0.521230	-0.340271	0.940318	0.004260	-0.488894	-0.180781	0.853406
59381	5.214870	-0.125359	8.279689	-0.084609	-0.145371	-0.036691	0.802610	0.287638	0.522571	-0.339521	0.940591	0.003737	-0.490451	-0.180423	0.852587
59382	5.485691	0.011928	8.649972	-0.217558	-0.201782	-0.012372	0.801661	0.287117	0.524312	-0.338310	0.941033	0.001952	-0.492835	-0.178945	0.851524
59383	5.337778	0.082473	8.692134	-0.155644	-0.162857	-0.002092	0.800818	0.286746	0.525801	-0.337483	0.941331	0.000646	-0.494768	-0.177966	0.850607
59384	5.413803	-0.057427	8.627246	-0.178270	-0.167159	0.007669	0.799964	0.286479	0.527244	-0.336619	0.941641	-0.000906	-0.496734	-0.176755	0.849713
59385	5.264763	-0.058846	8.780942	-0.146757	-0.151116	0.017673	0.799107	0.286318	0.528630	-0.335987	0.941864	-0.002238	-0.498539	-0.175825	0.848849
59386	5.350555	-0.083402	8.845941	-0.109139	-0.156463	0.033836	0.798212	0.286320	0.529979	-0.335671	0.941973	-0.003339	-0.500182	-0.175233	0.848004
59387	4.465911	-0.774270	9.347468	-0.011181	-0.210432	0.027234	0.797020	0.286147	0.531864	-0.335790	0.941930	-0.003570	-0.502000	-0.175749	0.846822
59388	4.964597	-0.275236	9.092654	0.126763	-0.343199	-0.000792	0.795296	0.285490	0.534789	-0.336379	0.941723	-0.002489	-0.504334	-0.177912	0.844982
59389	4.874660	-0.550696	9.177025	0.165972	-0.444790	-0.022840	0.793077	0.284417	0.538642	-0.336996	0.941506	-0.000959	-0.507407	-0.180759	0.842534
59390	4.880488	-0.866699	9.361841	0.237602	-0.519678	-0.073423	0.790680	0.282735	0.543035	-0.337582	0.941295	0.001441	-0.510749	-0.184458	0.839709
59391	4.913902	-0.557120	9.278475	0.378440	-0.677571	-0.125717	0.787584	0.280224	0.548804	-0.338489	0.940955	0.005303	-0.514914	-0.189941	0.835934
59392	4.942667	-0.919921	9.173189	0.477430	-0.805408	-0.173109	0.784005	0.276996	0.555527	-0.339557	0.940530	0.010245	-0.519652	-0.196665	0.831436
59393	5.033570	-0.910089	8.992113	0.633948	-0.988640	-0.237610	0.779602	0.272716	0.563780	-0.340971	0.939923	0.016831	-0.525319	-0.205354	0.825754
59394	4.715575	-0.279321	9.267851	0.892294	-1.205685	-0.257840	0.774112	0.267705	0.573659	-0.343642	0.938751	0.025641	-0.531659	-0.216982	0.818693
59395	4.492581	0.245085	9.385338	1.136616	-1.435806	-0.238311	0.767204	0.262193	0.585366	-0.347850	0.936848	0.036280	-0.538886	-0.231454	0.809957
59396	3.711331	0.402220	10.033382	1.476448	-1.757286	-0.240211	0.758504	0.255673	0.599419	-0.353994	0.933932	0.049588	-0.547138	-0.249803	0.798898
59397	2.712418	0.470920	11.044004	1.625349	-2.260530	-0.277752	0.746955	0.247143	0.617234	-0.360851	0.930415	0.064147	-0.558431	-0.270644	0.784160
59398	2.104962	0.284651	11.355125	1.640452	-2.929496	-0.338232	0.731596	0.235702	0.639696	-0.367600	0.926624	0.078986	-0.574141	-0.292939	0.764558
59399	2.198140	0.163638	11.496906	1.585585	-3.868817	-0.313296	0.710075	0.220960	0.668558	-0.374586	0.922521	0.092952	-0.596220	-0.316435	0.737828
59400	3.096913	-0.079703	11.760521	1.583803	-4.851957	-0.245372	0.681395	0.202697	0.703289	-0.382504	0.917847	0.106061	-0.624013	-0.341280	0.702948
59401	2.924424	-0.259505	12.263498	1.514348	-5.597207	-0.130168	0.646048	0.181657	0.741365	-0.391295	0.912755	0.117334	-0.655370	-0.365896	0.660765
59402	2.165400	-0.256693	11.722766	1.455731	-6.556626	0.056328	0.601683	0.157325	0.783088	-0.401408	0.907168	0.126168	-0.690542	-0.390251	0.608979
59403	1.761677	1.208239	11.170653	1.340252	-7.936719	0.245393	0.544230	0.127582	0.829178	-0.412310	0.901442	0.131919	-0.730626	-0.413673	0.543195
59404	7.327247	1.724756	12.623504	1.293630	-9.855315	0.189560	0.469171	0.087341	0.878778	-0.422984	0.895751	0.136799	-0.775218	-0.435891	0.457204
59405	17.306626	3.748143	16.778733	0.609016	-9.845718	0.079335	0.390471	0.044476	0.919540	-0.428140	0.893019	0.138611	-0.815002	-0.447816	0.367740
59406	16.920745	5.161537	12.393162	-0.155771	-9.821136	0.095718	0.308229	0.001227	0.951312	-0.427146	0.893706	0.137244	-0.850024	-0.448652	0.275990
59407	28.874710	6.066514	20.416331	-0.240160	-9.953448	-0.090420	0.222571	-0.044092	0.973919	-0.424801	0.894770	0.137589	-0.877500	-0.444345	0.180420
59408	23.585130	3.537407	22.527680	-1.387308	-7.240977	-0.392560	0.159927	-0.079241	0.983943	-0.411709	0.900584	0.139445	-0.897173	-0.427399	0.111403
59409	8.941803	0.917942	21.660727	-0.597527	-6.238741	-0.611600	0.106142	-0.111089	0.988126	-0.405469	0.902532	0.145020	-0.907925	-0.416048	0.050753
59410	-4.317353	-4.693594	21.025613	0.425251	-5.557639	-0.519567	0.057699	-0.138861	0.988630	-0.408890	0.900123	0.150294	-0.910758	-0.412913	-0.004842
59411	4.786327	-11.400240	6.310685	3.186638	-6.870729	0.631752	-0.007086	-0.162201	0.986732	-0.437865	0.887633	0.142767	-0.899013	-0.431044	-0.077312
59412	40.849511	9.695299	35.923082	3.632806	-3.043426	1.417053	-0.040629	-0.163298	0.985740	-0.469864	0.873789	0.125386	-0.881803	-0.458069	-0.112229
59413	19.585540	14.028688	28.547112	1.776293	0.960299	1.940362	-0.041312	-0.141859	0.989025	-0.484628	0.868477	0.104325	-0.873745	-0.474999	-0.104627
59414	-1.103402	12.585769	18.032280	-0.440893	2.912473	2.147322	-0.026178	-0.109370	0.993656	-0.480027	0.873273	0.083474	-0.876863	-0.474797	-0.075361
59415	-7.131804	8.771502	11.760978	-1.847990	2.564198	2.148325	-0.013481	-0.078436	0.996828	-0.463275	0.883952	0.063290	-0.886112	-0.460953	-0.048254
59416	-4.209461	2.884869	9.352698	-2.283059	2.151067	1.913321	-0.002978	-0.051745	0.998656	-0.442748	0.895512	0.045081	-0.896641	-0.442018	-0.025577
59417	0.199590	-0.900424	8.630266	-1.785285	2.416513	1.378626	0.013048	-0.028786	0.999500	-0.426712	0.903836	0.031601	-0.904294	-0.426911	-0.000490
59418	1.769819	-1.486889	8.681568	-0.901509	3.100169	0.802833	0.037732	-0.008442	0.999252	-0.418730	0.907807	0.023480	-0.907327	-0.419302	0.030718
59419	1.297317	0.183530	8.349330	-0.220712	3.788014	0.365256	0.070835	0.010791	0.997430	-0.416900	0.908737	0.019775	-0.906188	-0.417229	0.068869
59420	0.372859	2.145491	7.721556	-0.048058	4.247989	0.124997	0.108731	0.029579	0.993631	-0.416556	0.908921	0.018526	-0.902585	-0.415917	0.111149
59421	0.730093	2.270657	7.493400	-0.229271	4.524462	0.030296	0.149634	0.048662	0.987543	-0.414502	0.909871	0.017971	-0.897662	-0.412028	0.156319
59422	1.903830	0.394955	7.443098	-0.383755	4.780517	0.008982	0.192354	0.068247	0.978949	-0.411060	0.911445	0.017228	-0.891083	-0.405721	0.203374
59423	3.297463	-1.822846	7.587570	-0.248170	5.070966	0.006319	0.237583	0.088801	0.967300	-0.408843	0.912453	0.016651	-0.881137	-0.399429	0.253089
59424	4.522785	-3.319807	7.671991	0.140696	5.409937	0.031827	0.284729	0.110548	0.952212	-0.410128	0.911874	0.016771	-0.866444	-0.395304	0.304976
59425	5.569155	-3.169574	7.674363	0.640659	5.733114	0.121830	0.333641	0.134378	0.933073	-0.415956	0.909211	0.017792	-0.845969	-0.394054	0.359246
59426	6.716893	-1.371823	7.775180	0.991384	5.990820	0.304077	0.382286	0.160709	0.909962	-0.425276	0.904867	0.018854	-0.820364	-0.394193	0.414264
59427	7.632997	0.548448	8.276014	0.957270	6.157013	0.498996	0.430073	0.189517	0.882678	-0.434981	0.900247	0.018649	-0.791094	-0.391968	0.469608
59428	8.678884	1.247616	8.660042	0.713269	6.248646	0.663860	0.475621	0.219737	0.851763	-0.443487	0.896130	0.016459	-0.759674	-0.385574	0.523668
59429	9.991312	0.524309	9.187759	0.486921	6.314027	0.734477	0.519549	0.250412	0.816923	-0.450721	0.892570	0.013050	-0.725892	-0.374984	0.576600
59430	11.195338	-0.301519	9.360839	0.520443	6.423519	0.704243	0.561800	0.280338	0.778326	-0.458176	0.888798	0.010586	-0.688807	-0.362558	0.627771
59431	11.660641	0.592995	9.634390	0.658321	6.512976	0.562804	0.603010	0.308590	0.735630	-0.465816	0.884818	0.010665	-0.647607	-0.349099	0.677300
59432	11.601244	2.195398	10.169716	0.623133	6.535412	0.308321	0.642480	0.333587	0.689883	-0.471600	0.881719	0.012848	-0.603997	-0.333603	0.723807
59433	11.541371	2.989157	10.981764	0.383907	6.464567	-0.021342	0.680435	0.354418	0.641401	-0.473649	0.880570	0.015899	-0.559164	-0.314617	0.767041
59434	12.121849	1.828764	11.861969	0.144054	6.355001	-0.412319	0.716504	0.370049	0.591342	-0.471503	0.881647	0.019584	-0.514108	-0.292851	0.806183
59435	13.402640	0.090382	12.659359	0.217524	6.207967	-0.784237	0.750865	0.380682	0.539706	-0.466768	0.884002	0.025858	-0.467257	-0.271334	0.841456
59436	16.177312	0.013704	13.783404	0.490395	6.077128	-1.082068	0.782811	0.386973	0.487298	-0.460600	0.886893	0.035624	-0.418395	-0.252336	0.872509
59437	20.128190	1.660003	14.637975	0.653881	6.045137	-1.256856	0.812465	0.390544	0.432870	-0.453086	0.890214	0.047240	-0.366898	-0.234508	0.900218
59438	23.649482	3.440370	14.000976	0.497950	6.141372	-1.273906	0.839105	0.392937	0.376169	-0.444219	0.894107	0.056938	-0.313963	-0.214878	0.924800
59439	26.125157	4.449863	11.780013	0.201310	6.195599	-1.153884	0.862085	0.395206	0.317209	-0.434921	0.898273	0.062849	-0.260102	-0.192142	0.946271
59440	28.002840	4.810348	8.266498	-0.122933	6.104050	-0.965983	0.880531	0.397425	0.258298	-0.426174	0.902342	0.064448	-0.207460	-0.166828	0.963913
59441	28.218798	2.707166	3.605671	-0.333932	5.787421	-0.865673	0.894813	0.398473	0.201318	-0.417824	0.906326	0.063221	-0.157268	-0.140686	0.977484
59442	28.236920	-2.306811	-2.153579	0.002019	5.217358	-1.077005	0.906256	0.395449	0.149400	-0.408087	0.910618	0.065117	-0.110296	-0.119981	0.986630
59443	27.294613	-5.360122	-8.035331	0.955588	4.386443	-1.412611	0.915847	0.387595	0.104851	-0.396009	0.915064	0.076383	-0.066340	-0.111477	0.991550
59444	29.617881	-5.090515	-12.966989	1.934912	3.228093	-1.556678	0.923464	0.376966	0.071492	-0.382577	0.918824	0.096939	-0.029146	-0.116871	0.992719
59445	32.178423	-2.088683	-17.311721	2.406801	2.117181	-1.298367	0.928688	0.367610	0.048999	-0.370861	0.920694	0.121597	-0.000413	-0.131097	0.991369
59446	29.882038	3.691849	-18.936806	2.053005	0.857643	-0.540991	0.930633	0.363783	0.039813	-0.365644	0.919836	0.142149	0.015090	-0.146845	0.989044
59447	17.288896	16.123916	-13.051874	0.108860	-0.889576	0.328419	0.929541	0.365435	0.049103	-0.368649	0.918491	0.143083	0.007187	-0.151103	0.988492
59448	0.892757	14.039168	-15.789377	-4.030474	-3.719709	1.452655	0.923451	0.373554	0.087729	-0.381364	0.918762	0.102172	-0.042435	-0.127807	0.990891
59449	3.719356	-11.439030	17.082508	-3.598933	-7.070347	1.271898	0.912762	0.376383	0.158747	-0.390062	0.918485	0.065083	-0.121310	-0.121327	0.985172
59450	11.300069	-9.869306	19.657371	-1.825831	-3.205900	-0.265348	0.909331	0.370089	0.190135	-0.385059	0.921664	0.047586	-0.157629	-0.116484	0.980604
59451	1.340229	-2.048574	1.164832	0.247689	-2.535012	-1.639200	0.911250	0.351785	0.214174	-0.370517	0.927293	0.053347	-0.179835	-0.127968	0.975338
59452	-4.434808	3.263901	9.403652	-0.576679	-5.231348	-1.532165	0.906112	0.330465	0.264111	-0.355370	0.933311	0.051412	-0.229508	-0.140442	0.963121
59453	26.629786	-17.407176	18.014407	-0.603675	-5.508966	-0.862856	0.895064	0.314264	0.316382	-0.346015	0.936991	0.048180	-0.281306	-0.152597	0.947407
59454	21.994082	-11.148427	16.679153	0.475010	-3.686547	-0.174966	0.884729	0.306664	0.351015	-0.345827	0.936787	0.053229	-0.312503	-0.168484	0.934856
59455	16.200112	-2.772602	14.257164	0.620700	-3.034633	0.372104	0.873546	0.304752	0.379531	-0.351078	0.934571	0.057625	-0.337137	-0.183583	0.923383
59456	19.106713	22.319018	20.038204	0.382070	-3.047236	0.753299	0.860220	0.305949	0.407942	-0.358904	0.931561	0.058161	-0.362229	-0.196443	0.911153
59457	10.180544	1.579674	7.742393	-1.655800	-1.226798	0.592791	0.853508	0.309069	0.419523	-0.357812	0.932908	0.040671	-0.378806	-0.184823	0.906833
59458	4.972657	-8.761094	10.583883	-0.745786	-1.822562	0.487332	0.844696	0.310217	0.436181	-0.359015	0.932788	0.031850	-0.396984	-0.183499	0.899295
59459	8.619196	1.967324	9.755175	-0.022933	-1.537537	0.328694	0.837255	0.310360	0.450201	-0.361649	0.931825	0.030190	-0.410139	-0.188092	0.892417
59460	7.629201	2.946326	9.621628	-0.514928	-1.019527	0.186764	0.832349	0.310149	0.459350	-0.361028	0.932226	0.024758	-0.420539	-0.186445	0.887910
59461	5.190826	-3.183246	9.172296	-0.289525	-0.923599	0.171376	0.827748	0.309953	0.467720	-0.361182	0.932250	0.021409	-0.429396	-0.186653	0.883617
59462	7.145659	1.575214	9.489826	-0.116141	-0.803175	0.159662	0.823697	0.309895	0.474857	-0.361956	0.931989	0.019634	-0.436477	-0.188049	0.879844
59463	6.045638	-1.041910	9.323170	-0.305579	-0.504499	0.142463	0.820904	0.310207	0.479467	-0.361746	0.932135	0.016277	-0.441878	-0.186807	0.877409
59464	6.516575	-1.230736	9.307949	-0.060489	-0.368616	0.117205	0.818848	0.310567	0.482738	-0.362397	0.931900	0.015184	-0.445148	-0.187376	0.875633
59465	4.801684	0.387984	9.093043	-0.096442	-0.291706	0.100811	0.817115	0.310891	0.485458	-0.362751	0.931783	0.013856	-0.448034	-0.187423	0.874150
59466	5.776046	-0.898483	9.258868	-0.113360	-0.254055	0.072387	0.815714	0.311047	0.487709	-0.362791	0.931786	0.012516	-0.450548	-0.187146	0.872916
59467	5.492822	-0.532593	9.129047	-0.041399	-0.176744	0.037794	0.814713	0.310999	0.489409	-0.362872	0.931762	0.011973	-0.452289	-0.187348	0.871972
59468	5.277211	-0.125416	8.943976	-0.023558	-0.142592	0.013982	0.814020	0.310820	0.490676	-0.362838	0.931779	0.011701	-0.453564	-0.187561	0.871264
59469	5.198391	0.042747	8.856903	-0.005129	-0.130882	0.001577	0.813353	0.310521	0.491969	-0.362788	0.931799	0.011650	-0.454799	-0.187956	0.870535
59470	5.059581	0.275224	8.786395	-0.011507	-0.121272	0.005992	0.812782	0.310306	0.493047	-0.362742	0.931818	0.011523	-0.455855	-0.188215	0.869926
59471	5.019216	0.297761	8.713297	-0.033920	-0.130104	0.024638	0.812032	0.310222	0.494335	-0.362748	0.931821	0.011108	-0.457186	-0.188339	0.869201
59472	5.054445	0.287730	8.731900	-0.069215	-0.147023	0.044084	0.811201	0.310314	0.495639	-0.362747	0.931831	0.010291	-0.458658	-0.188139	0.868468
59473	4.957427	0.324093	8.737642	-0.079370	-0.147614	0.045726	0.810290	0.310393	0.497078	-0.362713	0.931854	0.009377	-0.460293	-0.187894	0.867655
59474	4.879151	0.503988	8.749568	-0.105678	-0.182150	0.055676	0.809250	0.310528	0.498684	-0.362634	0.931896	0.008186	-0.462180	-0.187465	0.866745
59475	4.888248	0.418476	8.737035	-0.123914	-0.216211	0.059574	0.807965	0.310609	0.500713	-0.362501	0.931958	0.006818	-0.464526	-0.187018	0.865586
59476	5.061953	0.129536	8.777970	-0.130334	-0.239214	0.052717	0.806663	0.310611	0.502808	-0.362278	0.932054	0.005429	-0.466958	-0.186536	0.864381
59477	5.256524	0.121460	8.748249	-0.107055	-0.242353	0.040607	0.805314	0.310468	0.505054	-0.362064	0.932143	0.004305	-0.469446	-0.186328	0.863077
59478	5.493123	-0.182490	8.820303	-0.109059	-0.226236	0.027233	0.804153	0.310259	0.507029	-0.361728	0.932278	0.003229	-0.471690	-0.186003	0.861923
59479	5.268729	-0.097105	8.812920	-0.078193	-0.192643	0.011679	0.803132	0.309939	0.508839	-0.361411	0.932403	0.002501	-0.473668	-0.185909	0.860858
59480	5.609659	-0.510957	8.908826	-0.103278	-0.168984	-0.004347	0.802348	0.309543	0.510315	-0.360844	0.932625	0.001638	-0.475426	-0.185458	0.859986
59481	5.310069	0.029405	8.688153	-0.100710	-0.137543	0.000840	0.801621	0.309226	0.511648	-0.360330	0.932825	0.000771	-0.477039	-0.184981	0.859195
59482	5.277567	0.118055	8.619532	-0.124905	-0.125363	0.013317	0.800976	0.309077	0.512747	-0.359798	0.933030	-0.000366	-0.478521	-0.184192	0.858540
59483	5.290568	-0.003254	8.640524	-0.151557	-0.116869	0.021323	0.800270	0.308991	0.513900	-0.359201	0.933259	-0.001772	-0.480149	-0.183175	0.857848
59484	5.391263	-0.124604	8.745682	-0.142239	-0.103561	0.023668	0.799689	0.308981	0.514810	-0.358665	0.933461	-0.003110	-0.481516	-0.182157	0.857299
59485	5.251587	-0.079009	8.747338	-0.129612	-0.104511	0.023172	0.799032	0.308937	0.515854	-0.358183	0.933641	-0.004336	-0.482963	-0.181306	0.856665
59486	5.366793	-0.095533	8.736012	-0.124019	-0.102551	0.015803	0.798481	0.308857	0.516754	-0.357668	0.933833	-0.005476	-0.484253	-0.180454	0.856116
59487	5.365542	-0.114684	8.762505	-0.093614	-0.094249	0.013237	0.797907	0.308741	0.517710	-0.357277	0.933977	-0.006341	-0.485487	-0.179906	0.855533
59488	5.315543	-0.126756	8.812498	-0.071445	-0.107101	0.007475	0.797362	0.308576	0.518647	-0.356948	0.934098	-0.006987	-0.486624	-0.179559	0.854960
59489	5.283555	-0.141126	8.772547	-0.037074	-0.112529	0.003272	0.796732	0.308335	0.519758	-0.356751	0.934171	-0.007317	-0.487799	-0.179595	0.854282
59490	5.140071	-0.048543	8.858474	-0.019788	-0.115135	0.012093	0.796128	0.308199	0.520763	-0.356709	0.934185	-0.007545	-0.488814	-0.179754	0.853668
59491	4.880821	-0.292360	9.093550	0.044042	-0.148050	0.028521	0.795232	0.308129	0.522171	-0.357109	0.934034	-0.007313	-0.489979	-0.180656	0.852809
59492	4.885750	-0.385777	9.127342	0.121163	-0.243327	0.030108	0.793932	0.307926	0.524265	-0.357901	0.933737	-0.006434	-0.491507	-0.182527	0.851531
59493	4.640298	-0.633113	9.186027	0.126744	-0.304181	-0.007133	0.792390	0.307232	0.526998	-0.358426	0.933543	-0.005315	-0.493609	-0.184679	0.849850
59494	5.020131	-0.606368	9.125212	0.234936	-0.436043	-0.042645	0.790386	0.305979	0.530723	-0.359210	0.933252	-0.003091	-0.496244	-0.188198	0.847540
59495	4.966423	-0.769075	9.190608	0.287134	-0.508652	-0.078649	0.788068	0.304208	0.535170	-0.359977	0.932961	-0.000240	-0.499366	-0.192459	0.844744
59496	4.989638	-0.913207	9.237726	0.388480	-0.629887	-0.130158	0.785381	0.301722	0.540500	-0.360858	0.932613	0.003739	-0.502949	-0.197980	0.841336
59497	4.897126	-0.614316	9.210101	0.526114	-0.770911	-0.186546	0.782092	0.298362	0.547094	-0.362013	0.932128	0.009168	-0.507227	-0.205226	0.837021
59498	4.805611	-0.201481	9.178350	0.667811	-0.947758	-0.206815	0.778013	0.294404	0.554997	-0.363762	0.931356	0.015885	-0.512224	-0.214246	0.831700
59499	4.473082	0.049107	9.503576	0.840179	-1.130046	-0.194277	0.772831	0.290046	0.564452	-0.366545	0.930092	0.023931	-0.518052	-0.225392	0.825119
59500	4.240927	0.042675	9.554394	1.122867	-1.410831	-0.194504	0.766192	0.284913	0.575998	-0.370862	0.928056	0.034265	-0.524796	-0.239869	0.816733
59501	3.537853	0.553856	10.324568	1.377997	-1.746428	-0.189184	0.757592	0.278750	0.590215	-0.376674	0.925176	0.046546	-0.533078	-0.257581	0.805903
59502	2.479268	-0.239053	11.250470	1.484799	-2.281255	-0.229014	0.746169	0.270487	0.608332	-0.382912	0.921848	0.059786	-0.544619	-0.277548	0.791428
59503	2.183662	-0.111165	11.465452	1.540088	-3.042441	-0.290269	0.730399	0.258968	0.632023	-0.389252	0.918185	0.073619	-0.561249	-0.299787	0.771445
59504	2.626542	0.343512	11.349528	1.401783	-3.948680	-0.223795	0.708660	0.244583	0.661801	-0.395631	0.914402	0.085706	-0.584189	-0.322565	0.744765
59505	3.157830	-0.123378	11.542323	1.225693	-4.818633	-0.136697	0.680296	0.227184	0.696839	-0.401987	0.910646	0.095555	-0.612865	-0.345126	0.710833
59506	3.206884	0.071365	11.263694	1.364833	-5.587776	-0.056345	0.645388	0.206651	0.735370	-0.410157	0.905905	0.105395	-0.644395	-0.369637	0.669420
59507	3.718296	0.380507	11.493547	1.305310	-6.415053	0.079882	0.602532	0.182817	0.776874	-0.419266	0.900778	0.113202	-0.679096	-0.393925	0.619397
59508	4.547810	1.782043	11.303496	1.175832	-7.415695	0.286614	0.549530	0.155264	0.820920	-0.429092	0.895538	0.117861	-0.716866	-0.417018	0.558748
59509	8.275990	2.597682	11.996673	1.041021	-8.733359	0.295982	0.483771	0.120484	0.866862	-0.438273	0.890689	0.120792	-0.757550	-0.438358	0.483694
59510	16.388157	3.402755	14.884897	0.729740	-9.028275	0.258295	0.412502	0.082424	0.907220	-0.445066	0.887181	0.121762	-0.794832	-0.454000	0.402648
59511	15.670621	4.463106	13.292788	0.063900	-8.712618	0.307410	0.340379	0.045261	0.939198	-0.446715	0.886705	0.119165	-0.827398	-0.460115	0.322034
59512	25.212284	5.592993	19.578137	-0.064597	-8.469029	0.211341	0.268210	0.008028	0.963327	-0.446786	0.886957	0.117003	-0.853490	-0.461783	0.241477
59513	17.186819	3.673157	18.083620	-0.995904	-6.410839	0.077781	0.212484	-0.020634	0.976947	-0.438345	0.891526	0.114169	-0.873329	-0.452499	0.180390
59514	7.852150	-0.232720	17.364381	-0.202964	-6.231664	-0.083032	0.158013	-0.049505	0.986195	-0.436381	0.892419	0.114716	-0.885779	-0.448483	0.119411
59515	-0.979080	-1.684149	18.144783	0.565194	-5.536999	-0.071710	0.109166	-0.075041	0.991187	-0.441279	0.889845	0.115969	-0.890705	-0.450050	0.064027
59516	-2.068655	-12.312782	4.812747	2.377215	-6.107116	0.662096	0.051929	-0.097204	0.993909	-0.462904	0.879531	0.110204	-0.884886	-0.465807	0.000677
59517	37.608382	4.454324	31.389425	4.173463	-4.377073	1.384179	0.006990	-0.106224	0.994318	-0.499836	0.860842	0.095479	-0.866092	-0.497663	-0.047078
59518	21.753118	11.644896	26.922091	2.621296	0.278055	1.801623	0.000169	-0.089450	0.995991	-0.522412	0.849267	0.076361	-0.852693	-0.520331	-0.046587
59519	3.136632	14.626434	19.714346	0.376071	2.532899	2.000164	0.011419	-0.059163	0.998183	-0.525702	0.848802	0.056323	-0.850592	-0.525390	-0.021410
59520	-6.264314	10.540847	12.325190	-1.446609	2.490461	2.059448	0.021988	-0.028695	0.999346	-0.513671	0.857235	0.035917	-0.857705	-0.514125	0.004109
59521	-6.031922	3.465572	8.729032	-2.233194	1.989947	1.900526	0.029807	-0.002198	0.999553	-0.494863	0.868811	0.016667	-0.868460	-0.495138	0.024809
59522	-2.047167	-1.868570	7.461654	-1.846656	1.883332	1.413776	0.039354	0.019274	0.999039	-0.479217	0.877694	0.001944	-0.876814	-0.478833	0.043777
59523	0.390048	-3.517829	7.605678	-0.774563	2.291157	0.791439	0.055957	0.037182	0.997741	-0.472773	0.881161	-0.006322	-0.879406	-0.471351	0.066886
59524	0.985561	-1.353923	7.959486	0.206715	2.833843	0.225093	0.079769	0.052482	0.995431	-0.474721	0.880097	-0.008360	-0.876514	-0.471885	0.095119
59525	0.676751	2.233183	8.076885	0.526557	3.282627	-0.136017	0.109368	0.066902	0.991747	-0.479174	0.877697	-0.006366	-0.870880	-0.474523	0.128050
59526	1.015878	4.066292	8.299299	0.213174	3.606478	-0.319757	0.142211	0.081150	0.986504	-0.480600	0.876935	-0.002856	-0.865332	-0.473708	0.163710
59527	2.295825	3.454025	8.744891	-0.292083	3.918112	-0.415586	0.178307	0.096028	0.979278	-0.477389	0.878691	0.000759	-0.860410	-0.467632	0.202519
59528	3.491712	1.559481	9.048484	-0.613093	4.286753	-0.483922	0.217370	0.111558	0.969693	-0.471148	0.882044	0.004140	-0.854851	-0.457769	0.244290
59529	4.721389	-0.176414	9.207687	-0.644221	4.690203	-0.519047	0.260019	0.128262	0.957047	-0.464399	0.885595	0.007486	-0.846595	-0.446398	0.289836
59530	5.542902	-1.262761	8.973186	-0.462701	5.091572	-0.512339	0.305185	0.146120	0.941016	-0.459033	0.888352	0.010928	-0.834357	-0.435292	0.338186
59531	6.068949	-1.311329	8.643118	-0.204053	5.410329	-0.408143	0.352067	0.165861	0.921162	-0.455971	0.889884	0.014043	-0.817398	-0.424967	0.388927
59532	6.596907	-0.868025	8.629958	0.014158	5.596854	-0.223509	0.398254	0.187342	0.897940	-0.455216	0.890234	0.016163	-0.796349	-0.415193	0.439821
59533	7.592971	-0.521302	8.927898	0.156283	5.709436	-0.020197	0.443432	0.210684	0.871195	-0.456317	0.889652	0.017115	-0.771455	-0.405131	0.490639
59534	9.014800	-0.521108	9.522720	0.275336	5.822260	0.135580	0.486914	0.235131	0.841206	-0.459000	0.888266	0.017398	-0.743124	-0.394585	0.540434
59535	10.308437	-0.338281	9.817439	0.447010	6.003677	0.240394	0.529754	0.260724	0.807084	-0.463430	0.885951	0.017986	-0.710347	-0.383555	0.590163
59536	10.811093	1.028006	9.928977	0.584774	6.170741	0.299113	0.571075	0.286639	0.769228	-0.469090	0.882941	0.019241	-0.673668	-0.371825	0.638685
59537	10.755134	2.930721	10.300108	0.534916	6.235638	0.271212	0.610864	0.311868	0.727725	-0.474147	0.880200	0.020795	-0.634058	-0.357752	0.685554
59538	10.987400	4.009311	11.102090	0.287047	6.219212	0.090552	0.648622	0.334330	0.683749	-0.476443	0.878925	0.022201	-0.593542	-0.340167	0.729380
59539	11.486560	3.772264	12.178197	0.014453	6.143873	-0.224951	0.685155	0.352672	0.637326	-0.474978	0.879675	0.023845	-0.552230	-0.319054	0.770225
59540	12.712924	2.135579	13.537788	-0.096308	6.040406	-0.651931	0.720340	0.365480	0.589521	-0.469844	0.882333	0.027095	-0.510251	-0.296500	0.807299
59541	14.844890	-0.186310	14.700944	0.121309	5.980968	-1.098834	0.754864	0.372910	0.539554	-0.462278	0.886070	0.034349	-0.465274	-0.275353	0.841250
59542	18.082380	-0.372104	15.936302	0.613075	6.020569	-1.401510	0.787833	0.376487	0.487418	-0.454127	0.889707	0.046804	-0.416038	-0.258223	0.871913
59543	22.165241	1.985327	16.430460	0.883859	6.210711	-1.480779	0.818833	0.378861	0.431249	-0.445607	0.893116	0.061474	-0.361865	-0.242505	0.900136
59544	24.860434	4.353695	14.980394	0.694913	6.461177	-1.356668	0.846381	0.381755	0.371352	-0.436585	0.896675	0.073264	-0.305013	-0.224136	0.925597
