// General information: 
//  MT Manager version: 2022.2.0 
//  XDA version: 2022.2.0 build 7381 rev 124627 built on 2023-07-19
// Device information: 
//  DeviceId: 00B4CB9F
//  ProductCode: MTW2-3A7G6
//  Firmware Version: 4.6.0
//  Hardware Version: 2.0.0
// Device settings: 
//  Filter Profile: human(46.1)
//  Option Flags: Orientation Smoother Disabled, Position/Velocity Smoother Disabled, Continuous Zero Rotation Update Disabled, AHS Disabled, ICC Disabled
// Coordinate system: ENU
PacketCounter	Acc_X	Acc_Y	Acc_Z	Gyr_X	Gyr_Y	Gyr_Z	Mat[1][1]	Mat[2][1]	Mat[3][1]	Mat[1][2]	Mat[2][2]	Mat[3][2]	Mat[1][3]	Mat[2][3]	Mat[3][3]
65107	9.703727	0.238890	-1.590310	0.021407	-0.025728	-0.018111	-0.147003	-0.071074	0.986579	-0.252667	0.967024	0.032017	-0.956321	-0.244569	-0.160113
65108	9.721195	0.275196	-1.609015	0.014536	-0.016455	-0.024097	-0.147156	-0.071323	0.986538	-0.252843	0.966972	0.032193	-0.956251	-0.244702	-0.160329
65109	9.679036	0.329678	-1.581727	0.023274	-0.013952	-0.017912	-0.147331	-0.071498	0.986500	-0.253160	0.966886	0.032268	-0.956140	-0.244988	-0.160553
65110	9.703176	0.344080	-1.529765	0.006272	-0.007590	-0.016734	-0.147419	-0.071654	0.986475	-0.253247	0.966860	0.032384	-0.956104	-0.245048	-0.160679
65111	9.687053	0.295412	-1.544058	0.005189	0.003222	-0.017793	-0.147321	-0.071789	0.986480	-0.253507	0.966787	0.032497	-0.956050	-0.245292	-0.160627
65112	9.663777	0.309870	-1.435219	-0.015203	-0.000990	-0.019691	-0.147338	-0.071957	0.986465	-0.253393	0.966811	0.032677	-0.956077	-0.245149	-0.160681
65113	9.729952	0.272359	-1.411028	-0.017436	-0.000869	-0.021756	-0.147252	-0.072017	0.986474	-0.253181	0.966863	0.032793	-0.956146	-0.244928	-0.160606
65114	9.717686	0.243047	-1.453594	0.000429	0.006074	-0.021579	-0.147196	-0.072186	0.986470	-0.253220	0.966847	0.032966	-0.956145	-0.244941	-0.160595
65115	9.693386	0.232118	-1.505967	0.004069	0.008125	-0.021150	-0.147113	-0.072193	0.986482	-0.253080	0.966882	0.033017	-0.956195	-0.244801	-0.160512
65116	9.669084	0.221074	-1.558457	0.007592	0.003876	-0.020590	-0.147081	-0.072358	0.986474	-0.253185	0.966849	0.033169	-0.956172	-0.244882	-0.160525
65117	9.642942	0.225808	-1.580381	0.010692	0.005612	-0.024211	-0.146890	-0.072488	0.986493	-0.253405	0.966787	0.033308	-0.956143	-0.245090	-0.160381
65118	9.670877	0.209284	-1.588819	0.025813	-0.006985	-0.020832	-0.146961	-0.072681	0.986468	-0.253685	0.966709	0.033432	-0.956058	-0.245339	-0.160506
65119	9.670748	0.260784	-1.557291	0.025540	-0.014054	-0.015825	-0.147053	-0.072831	0.986444	-0.254097	0.966599	0.033487	-0.955934	-0.245728	-0.160647
65120	9.690015	0.280809	-1.606455	0.021792	-0.022406	-0.016114	-0.147282	-0.073017	0.986396	-0.254331	0.966534	0.033571	-0.955837	-0.245927	-0.160924
65121	9.684070	0.279204	-1.549175	0.015629	-0.021734	-0.018261	-0.147518	-0.073202	0.986347	-0.254561	0.966471	0.033655	-0.955739	-0.246121	-0.161206
65122	9.664074	0.211522	-1.536388	0.018194	-0.018543	-0.014234	-0.147715	-0.073360	0.986306	-0.254759	0.966416	0.033726	-0.955656	-0.246288	-0.161443
65123	9.663809	0.262525	-1.505834	0.026898	-0.021939	-0.010356	-0.147920	-0.073420	0.986270	-0.255048	0.966341	0.033685	-0.955547	-0.246564	-0.161667
65124	9.698831	0.282014	-1.574050	0.030135	-0.023579	-0.009446	-0.148177	-0.073544	0.986222	-0.255352	0.966261	0.033689	-0.955426	-0.246842	-0.161958
65125	9.718115	0.351162	-1.590878	0.042998	-0.014928	-0.005759	-0.148350	-0.073514	0.986199	-0.255697	0.966174	0.033558	-0.955307	-0.247190	-0.162129
65126	9.705710	0.369514	-1.602647	0.042009	-0.013407	-0.004591	-0.148523	-0.073566	0.986169	-0.256108	0.966068	0.033495	-0.955170	-0.247591	-0.162324
65127	9.721346	0.369702	-1.622449	0.034008	-0.008930	-0.009285	-0.148525	-0.073632	0.986164	-0.256620	0.965933	0.033473	-0.955032	-0.248097	-0.162360
65128	9.717561	0.401874	-1.562146	0.022582	-0.009498	-0.012311	-0.148640	-0.073749	0.986138	-0.256856	0.965868	0.033518	-0.954951	-0.248313	-0.162509
65129	9.706981	0.355439	-1.636090	0.013282	-0.000893	-0.015513	-0.148623	-0.073821	0.986135	-0.257033	0.965820	0.033562	-0.954906	-0.248481	-0.162518
65130	9.675121	0.306645	-1.631756	0.004843	-0.006030	-0.022019	-0.148680	-0.074023	0.986111	-0.257114	0.965792	0.033731	-0.954875	-0.248528	-0.162627
65131	9.671347	0.239889	-1.635351	-0.003515	0.006587	-0.021658	-0.148601	-0.074221	0.986108	-0.257282	0.965741	0.033917	-0.954842	-0.248667	-0.162606
65132	9.641432	0.225744	-1.628840	-0.003885	-0.006773	-0.016497	-0.148679	-0.074372	0.986085	-0.257272	0.965739	0.034046	-0.954833	-0.248630	-0.162719
65133	9.667486	0.224828	-1.607226	0.010323	-0.007779	-0.019042	-0.148661	-0.074528	0.986076	-0.257570	0.965656	0.034153	-0.954755	-0.248906	-0.162752
65134	9.679555	0.258067	-1.565205	0.016201	-0.005837	-0.016551	-0.148730	-0.074676	0.986054	-0.257752	0.965604	0.034250	-0.954695	-0.249064	-0.162862
65135	9.711137	0.259525	-1.602702	0.024800	0.000066	-0.014911	-0.148539	-0.074807	0.986073	-0.258362	0.965438	0.034323	-0.954560	-0.249665	-0.162733
65136	9.684924	0.313085	-1.592541	0.042194	0.002966	-0.011822	-0.148535	-0.074888	0.986067	-0.258786	0.965325	0.034331	-0.954446	-0.250081	-0.162765
65137	9.688565	0.332243	-1.621277	0.041581	0.002260	-0.013427	-0.148545	-0.074896	0.986065	-0.259128	0.965235	0.034277	-0.954352	-0.250425	-0.162789
65138	9.702616	0.298482	-1.641296	0.049568	0.007459	-0.013394	-0.148495	-0.074981	0.986067	-0.259624	0.965101	0.034289	-0.954225	-0.250915	-0.162779
65139	9.642967	0.267201	-1.627750	0.038519	0.004649	-0.019189	-0.148406	-0.075054	0.986074	-0.260048	0.964986	0.034311	-0.954123	-0.251335	-0.162728
65140	9.643003	0.268261	-1.627358	0.035124	0.005526	-0.015227	-0.148369	-0.075161	0.986072	-0.260409	0.964887	0.034364	-0.954030	-0.251684	-0.162732
65141	9.686850	0.301165	-1.621785	0.038969	-0.001323	-0.014978	-0.148440	-0.075206	0.986058	-0.260722	0.964803	0.034337	-0.953934	-0.251990	-0.162823
65142	9.686874	0.251543	-1.654035	0.041316	0.004866	-0.013058	-0.148415	-0.075294	0.986055	-0.261139	0.964690	0.034358	-0.953824	-0.252398	-0.162836
65143	9.702717	0.302552	-1.639957	0.043644	0.005133	-0.013417	-0.148458	-0.075317	0.986046	-0.261474	0.964600	0.034312	-0.953725	-0.252732	-0.162896
65144	9.690511	0.321409	-1.650172	0.042468	-0.000019	-0.009665	-0.148488	-0.075385	0.986037	-0.261896	0.964486	0.034298	-0.953605	-0.253147	-0.162958
65145	9.699049	0.335236	-1.578550	0.048302	0.005666	-0.014132	-0.148391	-0.075443	0.986047	-0.262469	0.964331	0.034282	-0.953462	-0.253720	-0.162900
65146	9.683386	0.285540	-1.591352	0.034959	0.014424	-0.015023	-0.148270	-0.075525	0.986059	-0.262828	0.964232	0.034333	-0.953382	-0.254073	-0.162816
65147	9.706762	0.323544	-1.665958	0.036167	0.025497	-0.016489	-0.148042	-0.075564	0.986090	-0.263239	0.964119	0.034360	-0.953304	-0.254490	-0.162621
65148	9.659563	0.323984	-1.608080	0.047142	0.022022	-0.010506	-0.147860	-0.075583	0.986116	-0.263707	0.963991	0.034347	-0.953203	-0.254967	-0.162467
65149	9.679382	0.342750	-1.653582	0.056447	0.023092	-0.011944	-0.147554	-0.075533	0.986166	-0.264329	0.963823	0.034271	-0.953078	-0.255615	-0.162182
65150	9.691948	0.324758	-1.641052	0.050976	0.024826	-0.014923	-0.147333	-0.075587	0.986194	-0.264840	0.963682	0.034295	-0.952970	-0.256131	-0.162001
65151	9.656925	0.307137	-1.572728	0.030937	0.024241	-0.017350	-0.147148	-0.075606	0.986221	-0.265110	0.963607	0.034317	-0.952924	-0.256407	-0.161837
65152	9.655484	0.273815	-1.572192	0.017914	0.020734	-0.013898	-0.146969	-0.075660	0.986243	-0.265304	0.963551	0.034384	-0.952898	-0.256601	-0.161685
65153	9.673395	0.309273	-1.587183	0.023186	0.021981	-0.013004	-0.146784	-0.075705	0.986267	-0.265634	0.963459	0.034421	-0.952834	-0.256934	-0.161530
65154	9.667937	0.358134	-1.493622	0.013804	0.020536	-0.009128	-0.146619	-0.075714	0.986291	-0.265783	0.963417	0.034448	-0.952818	-0.257088	-0.161379
65155	9.724432	0.322043	-1.507749	0.003201	0.023596	-0.006210	-0.146470	-0.075661	0.986317	-0.265829	0.963405	0.034428	-0.952828	-0.257149	-0.161223
65156	9.698426	0.375537	-1.495608	0.006016	0.027926	-0.009492	-0.146234	-0.075655	0.986353	-0.265903	0.963383	0.034471	-0.952844	-0.257234	-0.160996
65157	9.741093	0.323553	-1.520985	0.014317	0.030525	-0.009774	-0.145952	-0.075606	0.986398	-0.266099	0.963329	0.034464	-0.952832	-0.257450	-0.160718
65158	9.721076	0.328694	-1.599671	0.034479	0.037415	-0.007470	-0.145631	-0.075555	0.986450	-0.266442	0.963235	0.034441	-0.952786	-0.257816	-0.160408
65159	9.717720	0.360888	-1.535061	0.046738	0.039469	-0.007635	-0.145309	-0.075491	0.986502	-0.266939	0.963100	0.034381	-0.952696	-0.258340	-0.160098
65160	9.688705	0.294582	-1.556960	0.031644	0.036802	-0.011139	-0.144984	-0.075476	0.986551	-0.267261	0.963010	0.034399	-0.952655	-0.258679	-0.159792
65161	9.661142	0.313505	-1.545331	0.031353	0.039409	-0.010802	-0.144544	-0.075359	0.986625	-0.267603	0.962917	0.034343	-0.952626	-0.259060	-0.159350
65162	9.679005	0.399127	-1.526905	0.023358	0.034200	-0.010848	-0.144244	-0.075348	0.986669	-0.267845	0.962849	0.034372	-0.952603	-0.259316	-0.159067
65163	9.702172	0.328776	-1.504216	0.007161	0.032687	-0.010791	-0.143906	-0.075246	0.986726	-0.267907	0.962832	0.034352	-0.952637	-0.259408	-0.158717
65164	9.748516	0.345679	-1.525375	0.013265	0.047245	-0.008597	-0.143488	-0.075180	0.986792	-0.268050	0.962792	0.034375	-0.952660	-0.259577	-0.158301
65165	9.705170	0.364459	-1.494051	0.009250	0.053349	-0.003999	-0.143007	-0.074941	0.986880	-0.268073	0.962789	0.034265	-0.952725	-0.259656	-0.157776
65166	9.688364	0.330243	-1.471483	0.006741	0.061984	-0.003469	-0.142462	-0.074786	0.986971	-0.268146	0.962769	0.034247	-0.952787	-0.259773	-0.157212
65167	9.691383	0.314554	-1.495753	0.000978	0.066315	-0.006137	-0.141732	-0.074631	0.987088	-0.268372	0.962706	0.034253	-0.952832	-0.260052	-0.156475
65168	9.715452	0.193465	-1.501624	0.001702	0.067395	-0.006939	-0.141126	-0.074496	0.987185	-0.268402	0.962697	0.034278	-0.952913	-0.260125	-0.155856
65169	9.744264	0.226338	-1.470376	0.011259	0.081063	-0.008636	-0.140342	-0.074355	0.987307	-0.268679	0.962619	0.034304	-0.952951	-0.260455	-0.155074
65170	9.663526	0.215385	-1.501472	-0.000065	0.077108	-0.007198	-0.139643	-0.074197	0.987418	-0.268693	0.962614	0.034334	-0.953050	-0.260518	-0.154358
65171	9.696025	0.266272	-1.500142	0.010850	0.052162	-0.001012	-0.139232	-0.073986	0.987492	-0.268743	0.962603	0.034230	-0.953096	-0.260616	-0.153909
65172	9.716090	0.335191	-1.511220	0.012344	0.039124	-0.002658	-0.138907	-0.073883	0.987546	-0.268869	0.962570	0.034196	-0.953108	-0.260770	-0.153572
65173	9.735026	0.319045	-1.555683	0.024136	0.052693	-0.002260	-0.138450	-0.073753	0.987619	-0.269208	0.962477	0.034136	-0.953078	-0.261149	-0.153110
65174	9.637492	0.358140	-1.538848	0.010285	0.061084	-0.007284	-0.137903	-0.073637	0.987705	-0.269321	0.962445	0.034151	-0.953126	-0.261300	-0.152556
65175	9.630362	0.322378	-1.476242	-0.019464	0.034584	-0.010284	-0.137564	-0.073533	0.987760	-0.269124	0.962499	0.034171	-0.953230	-0.261129	-0.152195
65176	9.705635	0.270730	-1.536871	-0.015785	0.042576	-0.007542	-0.137192	-0.073467	0.987816	-0.268989	0.962535	0.034228	-0.953322	-0.261015	-0.151814
65177	9.690270	0.271641	-1.513852	-0.026279	0.051926	-0.004825	-0.136774	-0.073328	0.987885	-0.268734	0.962605	0.034245	-0.953454	-0.260795	-0.151365
65178	9.741645	0.256774	-1.593886	-0.029178	0.060581	-0.010756	-0.136222	-0.073246	0.987967	-0.268475	0.962674	0.034353	-0.953606	-0.260565	-0.150802
65179	9.707145	0.189321	-1.553782	-0.033992	0.068943	-0.009861	-0.135563	-0.073117	0.988067	-0.268246	0.962735	0.034439	-0.953764	-0.260376	-0.150124
65180	9.635572	0.227281	-1.513581	-0.017596	0.061559	-0.010006	-0.135003	-0.073026	0.988150	-0.268096	0.962773	0.034523	-0.953886	-0.260259	-0.149556
65181	9.670353	0.189125	-1.446136	-0.007628	0.044439	-0.002850	-0.134762	-0.072874	0.988195	-0.267880	0.962835	0.034473	-0.953981	-0.260072	-0.149275
65182	9.647470	0.175537	-1.495164	0.008165	0.042271	-0.002330	-0.134407	-0.072759	0.988251	-0.267966	0.962813	0.034442	-0.954007	-0.260188	-0.148906
65183	9.665828	0.210046	-1.508233	0.025259	0.035972	-0.003291	-0.134035	-0.072651	0.988310	-0.268355	0.962707	0.034375	-0.953950	-0.260611	-0.148532
65184	9.675984	0.207834	-1.464317	0.022785	0.023480	-0.005097	-0.133852	-0.072612	0.988338	-0.268584	0.962644	0.034349	-0.953911	-0.260854	-0.148354
65185	9.719908	0.240248	-1.456418	0.027323	0.017725	-0.005634	-0.133714	-0.072575	0.988359	-0.268933	0.962548	0.034296	-0.953832	-0.261216	-0.148224
65186	9.770335	0.275116	-1.507488	0.026788	0.032576	-0.009617	-0.133432	-0.072555	0.988399	-0.269206	0.962471	0.034310	-0.953795	-0.261505	-0.147957
65187	9.652951	0.245590	-1.477729	0.018734	0.042560	-0.009679	-0.133030	-0.072443	0.988461	-0.269392	0.962420	0.034279	-0.953798	-0.261724	-0.147546
65188	9.723700	0.225677	-1.477483	0.021716	0.028347	-0.008451	-0.132791	-0.072422	0.988495	-0.269615	0.962357	0.034288	-0.953768	-0.261960	-0.147319
65189	9.693480	0.260162	-1.436236	0.038166	0.038751	-0.001707	-0.132479	-0.072228	0.988551	-0.269914	0.962279	0.034137	-0.953727	-0.262302	-0.146977
65190	9.661648	0.260064	-1.396199	0.032697	0.034542	-0.007024	-0.132185	-0.072178	0.988594	-0.270240	0.962188	0.034116	-0.953676	-0.262648	-0.146693
65191	9.731465	0.290448	-1.364539	0.024252	0.025640	-0.006679	-0.131933	-0.072122	0.988631	-0.270578	0.962095	0.034078	-0.953615	-0.263006	-0.146447
65192	9.720530	0.258451	-1.404858	0.021499	0.021682	-0.005865	-0.131765	-0.072094	0.988656	-0.270796	0.962034	0.034062	-0.953576	-0.263236	-0.146285
65193	9.755678	0.242671	-1.469714	0.030946	0.023128	-0.009629	-0.131677	-0.072109	0.988667	-0.271085	0.961953	0.034056	-0.953506	-0.263529	-0.146215
65194	9.707457	0.243082	-1.412481	0.047602	0.028341	-0.010011	-0.131434	-0.072103	0.988699	-0.271557	0.961820	0.034043	-0.953405	-0.264014	-0.145996
65195	9.698272	0.245516	-1.450799	0.048038	0.032027	-0.010474	-0.131181	-0.072089	0.988734	-0.272083	0.961672	0.034017	-0.953290	-0.264556	-0.145768
65196	9.683390	0.195061	-1.461480	0.054518	0.028785	-0.008558	-0.130938	-0.072068	0.988768	-0.272619	0.961522	0.033980	-0.953170	-0.265108	-0.145547
65197	9.650389	0.245811	-1.391046	0.049302	0.018262	-0.007263	-0.130740	-0.072017	0.988797	-0.273193	0.961362	0.033897	-0.953033	-0.265701	-0.145364
65198	9.738701	0.259730	-1.409234	0.057218	0.017182	-0.006962	-0.130613	-0.072011	0.988815	-0.273753	0.961205	0.033841	-0.952890	-0.266271	-0.145259
65199	9.745654	0.261683	-1.466645	0.059521	0.026714	-0.009519	-0.130344	-0.071977	0.988853	-0.274437	0.961012	0.033776	-0.952730	-0.266976	-0.145015
65200	9.743518	0.278126	-1.433543	0.055110	0.032829	-0.011416	-0.130055	-0.071972	0.988891	-0.274983	0.960856	0.033767	-0.952612	-0.267536	-0.144755
65201	9.697828	0.262492	-1.406145	0.043551	0.031838	-0.012182	-0.129728	-0.071936	0.988937	-0.275490	0.960712	0.033744	-0.952510	-0.268065	-0.144448
65202	9.668338	0.246998	-1.397086	0.038281	0.030578	-0.013133	-0.129455	-0.071953	0.988971	-0.275877	0.960599	0.033777	-0.952435	-0.268462	-0.144204
65203	9.667114	0.213411	-1.395731	0.036651	0.025453	-0.015883	-0.129213	-0.072009	0.988999	-0.276351	0.960461	0.033826	-0.952331	-0.268940	-0.144004
65204	9.657908	0.216232	-1.434780	0.048101	0.020150	-0.014937	-0.129035	-0.072071	0.989018	-0.276834	0.960321	0.033862	-0.952215	-0.269425	-0.143866
65205	9.704275	0.232560	-1.457553	0.075585	0.015663	-0.008990	-0.128854	-0.072059	0.989042	-0.277703	0.960073	0.033769	-0.951986	-0.270309	-0.143720
65206	9.754918	0.279123	-1.378680	0.071240	0.018449	-0.006370	-0.128715	-0.072043	0.989061	-0.278395	0.959876	0.033687	-0.951803	-0.271014	-0.143607
65207	9.693825	0.212138	-1.365792	0.062441	0.021410	-0.007957	-0.128526	-0.072045	0.989086	-0.279126	0.959665	0.033631	-0.951614	-0.271757	-0.143451
65208	9.767534	0.260412	-1.364059	0.069969	0.022585	-0.004869	-0.128352	-0.072003	0.989111	-0.279804	0.959471	0.033536	-0.951439	-0.272453	-0.143297
65209	9.730078	0.280099	-1.395678	0.073481	0.027616	-0.006463	-0.128155	-0.071997	0.989137	-0.280631	0.959232	0.033461	-0.951222	-0.273294	-0.143135
65210	9.694795	0.211640	-1.358964	0.062376	0.028038	-0.016962	-0.127896	-0.072056	0.989167	-0.281252	0.959049	0.033497	-0.951073	-0.273921	-0.142924
65211	9.693533	0.178120	-1.357862	0.056361	0.019757	-0.019378	-0.127694	-0.072128	0.989187	-0.281871	0.958866	0.033530	-0.950917	-0.274542	-0.142772
65212	9.720964	0.211489	-1.332314	0.062915	0.013214	-0.012888	-0.127587	-0.072188	0.989197	-0.282492	0.958684	0.033526	-0.950747	-0.275163	-0.142708
65213	9.784742	0.176722	-1.404511	0.074494	0.023463	-0.014315	-0.127390	-0.072229	0.989219	-0.283292	0.958449	0.033500	-0.950535	-0.275970	-0.142558
65214	9.699568	0.146822	-1.413081	0.083703	0.021560	-0.019939	-0.127183	-0.072334	0.989238	-0.284119	0.958202	0.033536	-0.950316	-0.276796	-0.142419
65215	9.727009	0.180364	-1.387372	0.090750	0.016426	-0.023127	-0.127028	-0.072497	0.989246	-0.285118	0.957904	0.033589	-0.950038	-0.277785	-0.142351
65216	9.679871	0.216301	-1.330318	0.099031	0.018687	-0.020812	-0.126846	-0.072618	0.989261	-0.286092	0.957613	0.033611	-0.949769	-0.278756	-0.142245
65217	9.669482	0.269602	-1.338988	0.097016	0.015806	-0.020776	-0.126582	-0.072665	0.989291	-0.287152	0.957297	0.033573	-0.949484	-0.279827	-0.142042
65218	9.692868	0.371177	-1.252771	0.083618	0.012614	-0.026440	-0.126441	-0.072856	0.989295	-0.287986	0.957042	0.033673	-0.949251	-0.280645	-0.141991
65219	9.718866	0.456651	-1.196959	0.074976	0.012606	-0.025959	-0.126374	-0.072974	0.989295	-0.288620	0.956850	0.033712	-0.949067	-0.281270	-0.141983
65220	9.736942	0.578404	-1.181300	0.052608	0.017957	-0.028626	-0.126176	-0.073170	0.989306	-0.289162	0.956680	0.033878	-0.948928	-0.281795	-0.141868
65221	9.697971	0.651844	-1.182843	0.035345	0.021581	-0.034676	-0.125879	-0.073414	0.989325	-0.289711	0.956506	0.034117	-0.948800	-0.282323	-0.141673
65222	9.665307	0.655707	-1.145117	0.029855	0.011364	-0.042257	-0.125703	-0.073760	0.989322	-0.290054	0.956390	0.034450	-0.948719	-0.282626	-0.141616
65223	9.770481	0.636934	-1.082293	0.010647	0.006495	-0.052985	-0.125580	-0.074163	0.989308	-0.290157	0.956344	0.034860	-0.948704	-0.282677	-0.141616
65224	9.809443	0.571914	-1.077041	-0.038620	0.032496	-0.062644	-0.125144	-0.074643	0.989327	-0.289876	0.956406	0.035492	-0.948847	-0.282341	-0.141326
65225	9.756853	0.461753	-1.151250	-0.087159	0.052620	-0.061591	-0.124523	-0.075015	0.989377	-0.289143	0.956603	0.036138	-0.949152	-0.281572	-0.140810
65226	9.763778	0.398478	-1.105703	-0.117250	0.061986	-0.060230	-0.123816	-0.075390	0.989437	-0.288112	0.956887	0.036856	-0.949558	-0.280505	-0.140199
65227	9.879921	0.196136	-1.188869	-0.144985	0.092752	-0.056906	-0.122800	-0.075626	0.989546	-0.286895	0.957226	0.037553	-0.950059	-0.279284	-0.139244
65228	9.803403	0.002894	-1.312628	-0.130264	0.119567	-0.059315	-0.121549	-0.075833	0.989684	-0.285736	0.957543	0.038277	-0.950569	-0.278136	-0.138057
65229	9.666456	-0.124089	-1.262293	-0.094687	0.087063	-0.057309	-0.120562	-0.076118	0.989783	-0.285074	0.957715	0.038927	-0.950893	-0.277469	-0.137163
65230	9.692948	-0.119362	-1.232545	-0.029535	0.050811	-0.058473	-0.119967	-0.076509	0.989825	-0.284871	0.957751	0.039504	-0.951029	-0.277234	-0.136694
65231	9.627334	-0.075615	-1.255566	0.028909	0.035931	-0.063689	-0.119503	-0.076982	0.989845	-0.285302	0.957601	0.040030	-0.950958	-0.277621	-0.136399
65232	9.664370	0.033809	-1.285353	0.051940	0.032400	-0.073072	-0.119041	-0.077564	0.989855	-0.285890	0.957400	0.040639	-0.950840	-0.278152	-0.136145
65233	9.660552	0.179589	-1.319354	0.049918	0.035453	-0.070788	-0.118497	-0.078076	0.989880	-0.286574	0.957172	0.041191	-0.950702	-0.278793	-0.135797
65234	9.631638	0.289286	-1.277014	0.053189	0.033854	-0.069774	-0.118030	-0.078622	0.989893	-0.287170	0.956969	0.041766	-0.950580	-0.279338	-0.135529
65235	9.656077	0.416883	-1.318129	0.023988	0.035312	-0.069437	-0.117593	-0.079152	0.989903	-0.287524	0.956837	0.042352	-0.950527	-0.279640	-0.135275
65236	9.673503	0.337837	-1.364773	-0.010947	0.037723	-0.067375	-0.117095	-0.079664	0.989920	-0.287506	0.956813	0.042991	-0.950594	-0.279574	-0.134942
65237	9.773902	0.221746	-1.401459	-0.046935	0.044954	-0.068696	-0.116565	-0.080161	0.989943	-0.287190	0.956878	0.043667	-0.950755	-0.279212	-0.134560
65238	9.756053	-0.007992	-1.545317	-0.063229	0.055201	-0.064396	-0.115910	-0.080596	0.989984	-0.286672	0.957002	0.044346	-0.950991	-0.278661	-0.134031
65239	9.619773	-0.184483	-1.632552	-0.032310	0.046372	-0.055166	-0.115253	-0.080941	0.990033	-0.286662	0.956981	0.044868	-0.951074	-0.278634	-0.133498
65240	9.640491	-0.233204	-1.578421	0.018362	0.010884	-0.051693	-0.115056	-0.081378	0.990020	-0.286904	0.956887	0.045312	-0.951025	-0.278828	-0.133444
65241	9.628410	-0.211347	-1.589302	0.066042	-0.007782	-0.042711	-0.114978	-0.081732	0.990000	-0.287741	0.956624	0.045559	-0.950782	-0.279625	-0.133508
65242	9.672359	-0.140993	-1.582812	0.103236	-0.010198	-0.042585	-0.115006	-0.082141	0.989963	-0.288779	0.956300	0.045800	-0.950463	-0.280614	-0.133701
65243	9.650149	0.049222	-1.472048	0.129344	-0.021894	-0.048316	-0.115070	-0.082581	0.989919	-0.290180	0.955865	0.046010	-0.950029	-0.281961	-0.133955
65244	9.619228	0.203474	-1.304432	0.152125	-0.033003	-0.041317	-0.115318	-0.083042	0.989851	-0.291681	0.955401	0.046171	-0.949539	-0.283397	-0.134396
65245	9.649526	0.460553	-1.148208	0.143973	-0.034692	-0.054809	-0.115556	-0.083594	0.989777	-0.293144	0.954940	0.046428	-0.949059	-0.284783	-0.134854
65246	9.741562	0.581254	-1.067458	0.095415	-0.023477	-0.062874	-0.115649	-0.084234	0.989712	-0.294131	0.954615	0.046878	-0.948742	-0.285684	-0.135176
65247	9.794392	0.533320	-1.052860	0.052106	0.010515	-0.070160	-0.115376	-0.084774	0.989698	-0.294731	0.954404	0.047392	-0.948589	-0.286227	-0.135101
65248	9.717549	0.472487	-1.021585	0.017243	0.031982	-0.077542	-0.114899	-0.085395	0.989700	-0.294993	0.954288	0.048092	-0.948566	-0.286428	-0.134837
65249	9.839999	0.409702	-1.104319	0.003334	0.046117	-0.080551	-0.114229	-0.085990	0.989726	-0.295302	0.954156	0.048817	-0.948551	-0.286692	-0.134386
65250	9.764510	0.301175	-1.201108	-0.009698	0.061666	-0.086761	-0.113443	-0.086614	0.989762	-0.295318	0.954108	0.049646	-0.948640	-0.286662	-0.133815
65251	9.704931	0.241740	-1.183672	-0.003058	0.064803	-0.084894	-0.112622	-0.087201	0.989804	-0.295524	0.954004	0.050422	-0.948674	-0.286833	-0.133212
65252	9.705799	0.166774	-1.309448	0.011401	0.067237	-0.091456	-0.111768	-0.087854	0.989843	-0.295744	0.953890	0.051269	-0.948706	-0.287010	-0.132597
65253	9.633447	0.161657	-1.403979	0.041931	0.045938	-0.088203	-0.111099	-0.088474	0.989863	-0.296303	0.953678	0.051984	-0.948610	-0.287524	-0.132167
65254	9.645535	0.188306	-1.489142	0.067747	0.027351	-0.088841	-0.110630	-0.089215	0.989849	-0.297053	0.953404	0.052730	-0.948430	-0.288205	-0.131977
65255	9.675920	0.247173	-1.492749	0.070596	0.009850	-0.089394	-0.110309	-0.089919	0.989822	-0.297803	0.953133	0.053398	-0.948233	-0.288882	-0.131917
65256	9.625504	0.220061	-1.439664	0.075976	-0.010300	-0.088143	-0.110198	-0.090761	0.989757	-0.298630	0.952833	0.054126	-0.947986	-0.289606	-0.132104
65257	9.657495	0.192975	-1.477627	0.077972	-0.013691	-0.087907	-0.110057	-0.091563	0.989699	-0.299614	0.952485	0.054803	-0.947692	-0.290496	-0.132261
65258	9.629516	0.216515	-1.372255	0.084487	-0.022508	-0.096899	-0.110033	-0.092524	0.989612	-0.300530	0.952150	0.055606	-0.947404	-0.291290	-0.132575
65259	9.698990	0.290190	-1.243870	0.090818	-0.016740	-0.094695	-0.109943	-0.093438	0.989536	-0.301666	0.951747	0.056353	-0.947054	-0.292313	-0.132825
65260	9.659129	0.366838	-1.148725	0.072791	-0.005216	-0.102257	-0.109738	-0.094399	0.989468	-0.302477	0.951437	0.057224	-0.946819	-0.293011	-0.132962
65261	9.755093	0.356797	-1.127114	0.067149	0.001996	-0.100696	-0.109503	-0.095260	0.989411	-0.303200	0.951159	0.058021	-0.946614	-0.293636	-0.133038
65262	9.780760	0.400098	-1.102460	0.061869	0.019438	-0.108616	-0.109044	-0.096209	0.989370	-0.303914	0.950873	0.058969	-0.946438	-0.294253	-0.132926
65263	9.769419	0.343400	-1.242921	0.049924	0.036380	-0.111659	-0.108404	-0.097077	0.989356	-0.304561	0.950607	0.059904	-0.946304	-0.294826	-0.132615
65264	9.671731	0.373747	-1.362294	0.065774	0.037427	-0.112835	-0.107760	-0.098011	0.989334	-0.305315	0.950303	0.060889	-0.946134	-0.295497	-0.132329
65265	9.664390	0.417819	-1.300423	0.064602	0.011093	-0.117637	-0.107410	-0.099038	0.989270	-0.306080	0.949993	0.061873	-0.945927	-0.296150	-0.132352
65266	9.651389	0.446087	-1.311686	0.057782	-0.001750	-0.121129	-0.107110	-0.100166	0.989189	-0.306766	0.949701	0.062951	-0.945739	-0.296707	-0.132450
65267	9.608789	0.457593	-1.318053	0.038098	-0.014615	-0.122085	-0.106876	-0.101280	0.989101	-0.307361	0.949438	0.064007	-0.945572	-0.297171	-0.132601
65268	9.628818	0.347475	-1.268343	0.024988	-0.021024	-0.125694	-0.106742	-0.102508	0.988988	-0.307742	0.949235	0.065173	-0.945463	-0.297396	-0.132870
65269	9.636591	0.255151	-1.229472	0.024466	-0.003235	-0.125416	-0.106419	-0.103645	0.988905	-0.308241	0.948996	0.066292	-0.945337	-0.297766	-0.132939
65270	9.752980	0.231746	-1.255603	0.045467	-0.004348	-0.118675	-0.106149	-0.104757	0.988817	-0.308807	0.948737	0.067361	-0.945183	-0.298203	-0.133057
65271	9.784190	0.209223	-1.393029	0.073380	-0.001574	-0.114884	-0.105782	-0.105789	0.988746	-0.309839	0.948332	0.068316	-0.944886	-0.299126	-0.133094
65272	9.645456	0.305840	-1.420753	0.126850	-0.011589	-0.113332	-0.105594	-0.106871	0.988650	-0.311168	0.947831	0.069223	-0.944471	-0.300326	-0.133340
65273	9.549553	0.435313	-1.344770	0.137455	-0.049270	-0.116647	-0.105804	-0.108040	0.988500	-0.312579	0.947303	0.070081	-0.943981	-0.301570	-0.133999
65274	9.604297	0.668460	-1.231900	0.165281	-0.068135	-0.125191	-0.106109	-0.109404	0.988318	-0.314282	0.946667	0.071051	-0.943381	-0.303071	-0.134834
65275	9.519799	0.953993	-1.147968	0.159638	-0.067255	-0.123375	-0.106405	-0.110686	0.988143	-0.315967	0.946038	0.071946	-0.942785	-0.304565	-0.135637
65276	9.502460	1.102975	-1.036431	0.093677	-0.068661	-0.146536	-0.106643	-0.112254	0.987940	-0.317016	0.945589	0.073222	-0.942405	-0.305385	-0.136427
65277	9.565187	1.202673	-0.884276	0.035631	-0.062188	-0.154075	-0.106778	-0.113821	0.987747	-0.317598	0.945287	0.074595	-0.942194	-0.305741	-0.137085
65278	9.552760	1.338133	-0.699133	-0.031193	-0.040144	-0.166200	-0.106683	-0.115487	0.987563	-0.317492	0.945192	0.076234	-0.942241	-0.305410	-0.137502
65279	9.529988	1.372092	-0.653138	-0.115316	-0.018267	-0.179956	-0.106396	-0.117168	0.987396	-0.316598	0.945342	0.078063	-0.942574	-0.304302	-0.137676
65280	9.571204	1.562690	-0.444473	-0.191127	-0.000247	-0.191040	-0.105850	-0.118948	0.987242	-0.315009	0.945697	0.080168	-0.943168	-0.302504	-0.137572
65281	9.633571	1.617985	-0.511455	-0.296927	0.023510	-0.192542	-0.105056	-0.120617	0.987124	-0.312468	0.946349	0.082380	-0.944101	-0.299791	-0.137109
65282	9.604732	1.556010	-0.857884	-0.344924	0.062847	-0.204071	-0.103882	-0.122334	0.987037	-0.309434	0.947130	0.084821	-0.945230	-0.296611	-0.136244
65283	9.483461	1.476710	-1.023040	-0.413659	0.064976	-0.218378	-0.102618	-0.124139	0.986944	-0.305826	0.948063	0.087450	-0.946541	-0.292859	-0.135254
65284	9.352040	1.279045	-1.202457	-0.507316	0.051234	-0.218489	-0.101524	-0.126035	0.986817	-0.301254	0.949264	0.090245	-0.948124	-0.288120	-0.134342
65285	9.328302	1.223064	-1.346054	-0.577994	0.058238	-0.218496	-0.100397	-0.127892	0.986694	-0.296069	0.950619	0.093091	-0.949876	-0.282783	-0.133304
65286	9.268161	1.117400	-1.525649	-0.624295	0.065754	-0.206409	-0.099221	-0.129642	0.986584	-0.290350	0.952102	0.095911	-0.951763	-0.276939	-0.132110
65287	9.220657	1.000320	-1.795156	-0.666001	0.073821	-0.207297	-0.097897	-0.131384	0.986486	-0.284454	0.953588	0.098774	-0.953678	-0.270940	-0.130726
65288	9.415602	0.744675	-1.820574	-0.727255	0.067549	-0.201760	-0.096738	-0.133099	0.986370	-0.277718	0.955268	0.101665	-0.955779	-0.264098	-0.129375
65289	9.702142	0.436742	-1.770412	-0.750958	0.069449	-0.187849	-0.095526	-0.134652	0.986278	-0.270856	0.956941	0.104413	-0.957868	-0.257165	-0.127884
65290	9.893970	0.324095	-1.896086	-0.711718	0.060810	-0.149832	-0.094595	-0.135902	0.986196	-0.264186	0.958546	0.106751	-0.959822	-0.250441	-0.126577
65291	9.931996	0.244516	-1.830843	-0.650720	0.042199	-0.133440	-0.093823	-0.137012	0.986116	-0.258194	0.959946	0.108811	-0.961527	-0.244400	-0.125440
65292	9.815175	0.385239	-1.822620	-0.564806	0.014638	-0.118667	-0.093431	-0.138086	0.986004	-0.252882	0.961150	0.110642	-0.962975	-0.239005	-0.124721
65293	9.755516	0.703125	-1.643869	-0.539291	-0.043543	-0.121725	-0.093623	-0.139290	0.985816	-0.247851	0.962253	0.112423	-0.964264	-0.233810	-0.124612
65294	9.784438	0.848473	-1.469553	-0.496873	-0.072619	-0.117728	-0.094087	-0.140560	0.985591	-0.243179	0.963240	0.114158	-0.965407	-0.228935	-0.124810
65295	9.817518	1.002662	-1.223981	-0.492657	-0.086757	-0.116099	-0.094678	-0.141808	0.985356	-0.238631	0.964178	0.115831	-0.966484	-0.224169	-0.125127
65296	9.792494	0.977054	-1.155168	-0.475452	-0.113353	-0.104883	-0.095579	-0.143039	0.985091	-0.234145	0.965085	0.117416	-0.967492	-0.219432	-0.125734
65297	9.830866	0.987724	-0.926225	-0.392539	-0.137015	-0.094219	-0.096678	-0.144155	0.984821	-0.230477	0.965805	0.118746	-0.968263	-0.215499	-0.126597
65298	9.916946	0.923378	-0.833185	-0.314388	-0.154673	-0.085539	-0.098032	-0.145280	0.984522	-0.227528	0.966356	0.119944	-0.968825	-0.212248	-0.127789
65299	9.893681	0.767866	-0.756512	-0.225599	-0.173735	-0.091105	-0.099534	-0.146429	0.984201	-0.225416	0.966716	0.121031	-0.969165	-0.209808	-0.129228
65300	9.836839	0.818415	-0.685455	-0.082874	-0.208542	-0.087113	-0.101410	-0.147675	0.983823	-0.224713	0.966764	0.121951	-0.969134	-0.208711	-0.131224
65301	9.834003	0.974209	-0.621643	0.073363	-0.260553	-0.087257	-0.103682	-0.148973	0.983391	-0.225600	0.966472	0.122624	-0.968687	-0.209139	-0.133814
65302	9.768872	1.080932	-0.626467	0.226799	-0.291437	-0.086347	-0.106360	-0.150386	0.982889	-0.227898	0.965869	0.123121	-0.967858	-0.210904	-0.137002
65303	9.589945	1.110415	-0.616382	0.339631	-0.325323	-0.085548	-0.109298	-0.151844	0.982343	-0.231464	0.964984	0.123408	-0.966684	-0.213889	-0.140617
65304	9.545919	1.169126	-0.681558	0.433663	-0.334517	-0.081006	-0.112391	-0.153314	0.981765	-0.235755	0.963928	0.123540	-0.965292	-0.217571	-0.144482
65305	9.457014	1.209733	-0.593372	0.495855	-0.333216	-0.069227	-0.115470	-0.154621	0.981203	-0.240641	0.962739	0.123393	-0.963721	-0.221869	-0.148375
65306	9.481497	1.277780	-0.370922	0.520013	-0.336737	-0.060657	-0.118616	-0.155927	0.980621	-0.245730	0.961482	0.123160	-0.962053	-0.226359	-0.152363
65307	9.558542	1.285030	-0.209334	0.530990	-0.312645	-0.044833	-0.121583	-0.156988	0.980088	-0.250921	0.960203	0.122675	-0.960342	-0.231010	-0.156136
65308	9.533295	1.403964	-0.186894	0.520940	-0.277915	-0.045587	-0.124186	-0.158042	0.979592	-0.255987	0.958918	0.122254	-0.958670	-0.235580	-0.159541
65309	9.580530	1.521207	-0.327099	0.491398	-0.263992	-0.046296	-0.126583	-0.159080	0.979117	-0.261025	0.957612	0.121840	-0.956997	-0.240151	-0.162741
65310	9.435507	1.562715	-0.508884	0.453992	-0.238943	-0.050182	-0.128788	-0.160107	0.978662	-0.265442	0.956435	0.121540	-0.955486	-0.244125	-0.165677
65311	9.310519	1.545221	-0.580649	0.396724	-0.248432	-0.052917	-0.131065	-0.161137	0.978191	-0.269326	0.955380	0.121293	-0.954089	-0.247555	-0.168615
65312	9.363052	1.381612	-0.675792	0.325472	-0.253143	-0.058417	-0.133373	-0.162294	0.977687	-0.272517	0.954478	0.121265	-0.952862	-0.250263	-0.171529
65313	9.295369	1.128639	-0.814977	0.269471	-0.257130	-0.054789	-0.135734	-0.163392	0.977179	-0.275236	0.953702	0.121235	-0.951747	-0.252499	-0.174421
65314	9.333305	0.927753	-0.891613	0.232654	-0.281113	-0.038328	-0.138355	-0.164438	0.976636	-0.277512	0.953052	0.121154	-0.950708	-0.254267	-0.177493
65315	9.369302	0.759961	-0.968402	0.212854	-0.320923	-0.026253	-0.141366	-0.165414	0.976040	-0.279578	0.952477	0.120928	-0.949659	-0.255784	-0.180894
65316	9.438861	0.765262	-1.036353	0.199162	-0.360682	-0.020599	-0.144784	-0.166504	0.975353	-0.281508	0.951935	0.120718	-0.948573	-0.257092	-0.184697
65317	9.498318	0.683117	-1.123727	0.215926	-0.399594	-0.004240	-0.148567	-0.167524	0.974609	-0.283741	0.951329	0.120269	-0.947322	-0.258669	-0.188869
65318	9.589555	0.514763	-1.227318	0.247962	-0.440653	0.004718	-0.152805	-0.168591	0.973770	-0.286092	0.950696	0.119703	-0.945940	-0.260296	-0.193503
65319	9.669376	0.407520	-1.212388	0.303722	-0.474950	0.020558	-0.157396	-0.169577	0.972867	-0.289083	0.949903	0.118805	-0.944276	-0.262540	-0.198533
65320	9.519279	0.409444	-1.219133	0.384120	-0.514346	0.038997	-0.162415	-0.170534	0.971874	-0.292654	0.948959	0.117606	-0.942324	-0.265322	-0.204032
65321	9.350614	0.548351	-1.264615	0.460295	-0.570518	0.044741	-0.167941	-0.171532	0.970759	-0.296941	0.947811	0.116106	-0.940012	-0.268759	-0.210111
65322	9.383810	0.663149	-1.407895	0.522719	-0.646472	0.049092	-0.174209	-0.172787	0.969431	-0.301773	0.946483	0.114467	-0.937328	-0.272607	-0.217029
65323	9.405228	0.838679	-1.378748	0.579275	-0.710568	0.064931	-0.181113	-0.174083	0.967933	-0.307305	0.944944	0.112448	-0.934217	-0.277085	-0.224638
65324	9.391823	1.130731	-1.286361	0.599127	-0.763676	0.081930	-0.188542	-0.175412	0.966273	-0.312750	0.943417	0.110238	-0.930935	-0.281418	-0.232734
65325	9.468142	1.286230	-1.081357	0.582341	-0.777213	0.095865	-0.196143	-0.176613	0.964539	-0.318028	0.941933	0.107802	-0.927570	-0.285606	-0.240921
65326	9.608763	1.377642	-0.959822	0.562528	-0.781520	0.105393	-0.203770	-0.177839	0.962731	-0.323034	0.940504	0.105360	-0.924190	-0.289526	-0.249095
65327	9.742178	1.401116	-1.061046	0.569057	-0.771537	0.121695	-0.211256	-0.178886	0.960922	-0.328174	0.939022	0.102661	-0.920691	-0.293662	-0.257080
65328	9.721696	1.364671	-1.274171	0.608446	-0.776626	0.127926	-0.218869	-0.179954	0.959017	-0.333498	0.937454	0.099796	-0.916993	-0.297987	-0.265194
65329	9.528208	1.371708	-1.398108	0.685528	-0.806694	0.120763	-0.226725	-0.181149	0.956964	-0.339556	0.935606	0.096658	-0.912851	-0.303028	-0.273636
65330	9.317593	1.482434	-1.385938	0.737182	-0.866425	0.121672	-0.235086	-0.182632	0.954662	-0.345995	0.933576	0.093396	-0.908307	-0.308352	-0.282660
65331	9.285351	1.737318	-1.405720	0.743677	-0.924852	0.130072	-0.243856	-0.184304	0.952138	-0.352682	0.931409	0.089964	-0.903410	-0.313864	-0.292130
65332	9.357425	1.821891	-1.450951	0.706956	-0.939069	0.144332	-0.252884	-0.185903	0.949468	-0.358700	0.929442	0.086445	-0.898546	-0.318713	-0.301724
65333	9.366483	1.786399	-1.421323	0.630647	-0.933048	0.137048	-0.261738	-0.187580	0.946735	-0.364135	0.927629	0.083125	-0.893812	-0.322982	-0.311100
65334	9.358418	1.820687	-1.432153	0.545248	-0.944091	0.128964	-0.270681	-0.189422	0.943849	-0.368659	0.926104	0.080135	-0.889282	-0.326267	-0.320511
65335	9.378343	2.121591	-1.347567	0.503592	-0.961099	0.117549	-0.279688	-0.191398	0.940819	-0.372859	0.924665	0.077267	-0.884732	-0.329182	-0.329983
65336	9.464932	2.388138	-1.369264	0.427320	-0.965450	0.101266	-0.288642	-0.193623	0.937654	-0.376347	0.923451	0.074838	-0.880368	-0.331282	-0.339417
65337	9.666141	2.222840	-1.507553	0.354194	-0.921933	0.071172	-0.297016	-0.196057	0.934528	-0.379469	0.922329	0.072893	-0.876233	-0.332974	-0.348344
65338	9.913225	1.678652	-1.683764	0.330504	-0.839389	0.042436	-0.304571	-0.198439	0.931589	-0.382235	0.921311	0.071283	-0.872429	-0.334376	-0.356455
65339	9.805994	1.396736	-1.641437	0.361398	-0.745543	0.035071	-0.311247	-0.200492	0.928939	-0.385265	0.920184	0.069517	-0.868732	-0.336251	-0.363647
65340	9.830145	1.182181	-1.689865	0.311271	-0.747834	0.049027	-0.317974	-0.202534	0.926214	-0.387813	0.919236	0.067870	-0.865155	-0.337617	-0.370838
65341	10.081513	0.931589	-1.861149	0.229481	-0.742029	0.055268	-0.324624	-0.204485	0.923474	-0.389707	0.918542	0.066401	-0.861828	-0.338329	-0.377870
65342	10.250113	0.565146	-1.903742	0.267914	-0.704886	0.056140	-0.330960	-0.206331	0.920811	-0.391830	0.917752	0.064813	-0.858449	-0.339351	-0.384586
65343	10.388916	0.465180	-1.808611	0.367038	-0.681971	0.059554	-0.336987	-0.208113	0.918220	-0.394924	0.916565	0.062801	-0.854678	-0.341464	-0.391059
65344	10.484995	0.466933	-1.714633	0.404094	-0.662354	0.062031	-0.342935	-0.209788	0.915634	-0.398161	0.915312	0.060589	-0.850801	-0.343792	-0.397422
65345	10.422721	0.818057	-1.311976	0.391689	-0.644217	0.051686	-0.348553	-0.211541	0.913105	-0.401456	0.914008	0.058506	-0.846962	-0.346179	-0.403505
65346	10.599438	1.262471	-0.963957	0.355899	-0.659377	0.051199	-0.354385	-0.213336	0.910439	-0.404285	0.912884	0.056542	-0.843187	-0.348039	-0.409761
65347	10.679361	1.344380	-1.026375	0.385058	-0.598500	0.028571	-0.359518	-0.215121	0.908003	-0.407533	0.911557	0.054603	-0.839443	-0.350410	-0.415390
65348	10.698848	1.676470	-0.997796	0.502019	-0.556209	0.006024	-0.364254	-0.216999	0.905666	-0.411716	0.909804	0.052400	-0.835350	-0.353790	-0.420742
65349	10.946298	1.735799	-1.001756	0.555724	-0.519081	0.003141	-0.368498	-0.218912	0.903486	-0.416530	0.907743	0.050056	-0.831090	-0.357884	-0.425685
65350	11.229268	1.504990	-1.314670	0.646439	-0.430733	-0.003921	-0.372106	-0.220474	0.901625	-0.421904	0.905407	0.047276	-0.826761	-0.362808	-0.429926
65351	11.419505	1.209932	-1.494219	0.723462	-0.352419	0.013357	-0.375009	-0.221674	0.900127	-0.427968	0.902722	0.044014	-0.822321	-0.368720	-0.433399
65352	11.909551	0.909792	-1.280264	0.778716	-0.297978	0.039566	-0.377677	-0.222401	0.898831	-0.434206	0.899915	0.040222	-0.817817	-0.375087	-0.436445
65353	12.524673	0.583875	-0.858079	0.783265	-0.155783	0.077761	-0.379225	-0.222316	0.898200	-0.440451	0.897052	0.036071	-0.813751	-0.381934	-0.438104
65354	12.958753	0.309413	-0.395040	0.769308	0.028418	0.099073	-0.379487	-0.221295	0.898342	-0.446323	0.894308	0.031761	-0.810423	-0.388898	-0.438148
65355	12.924693	0.030548	0.122163	0.756388	0.203377	0.100678	-0.378223	-0.219681	0.899271	-0.452230	0.891475	0.027574	-0.807735	-0.396248	-0.436523
65356	12.705267	-0.595052	0.759993	0.786826	0.328624	0.060265	-0.375901	-0.217807	0.900699	-0.458350	0.888460	0.023558	-0.805366	-0.403980	-0.433804
65357	12.330417	-1.384355	2.115606	0.845416	0.505483	0.052758	-0.372022	-0.215222	0.902928	-0.465082	0.885056	0.019341	-0.803305	-0.412740	-0.429356
65358	12.059754	-2.142858	3.975076	0.837057	0.739574	0.085192	-0.366538	-0.211362	0.906077	-0.471487	0.881746	0.014954	-0.802091	-0.421723	-0.422848
65359	11.573681	-2.767043	5.851024	0.661381	1.049067	0.163221	-0.358846	-0.205529	0.910487	-0.476387	0.879170	0.010703	-0.802673	-0.429904	-0.413398
65360	11.343814	-2.972000	6.987694	0.487089	1.335285	0.254890	-0.349385	-0.197482	0.915932	-0.479402	0.877572	0.006342	-0.805049	-0.436884	-0.401284
65361	11.627115	-2.241884	7.083717	0.534626	1.613081	0.314284	-0.337811	-0.187651	0.922318	-0.482877	0.875687	0.001304	-0.807907	-0.444925	-0.386429
65362	11.985017	-1.028320	6.213466	0.745877	1.833627	0.309432	-0.324532	-0.176677	0.929228	-0.487890	0.872894	-0.004429	-0.810335	-0.454799	-0.369480
65363	11.959906	0.914431	4.754640	1.292615	2.020534	0.298779	-0.309523	-0.164656	0.936528	-0.497722	0.867254	-0.012021	-0.810227	-0.469851	-0.350388
65364	11.965882	2.940560	2.788290	1.655181	2.159542	0.150241	-0.292859	-0.153001	0.943835	-0.510670	0.859564	-0.019114	-0.808362	-0.487586	-0.329864
65365	11.868969	4.528170	0.330022	1.939744	2.322959	-0.076747	-0.273528	-0.142211	0.951293	-0.526867	0.849595	-0.024484	-0.804732	-0.507902	-0.307314
65366	12.120823	5.092372	-2.640166	1.953055	2.337105	-0.349021	-0.252959	-0.133040	0.958286	-0.543469	0.838996	-0.026981	-0.800408	-0.527624	-0.284534
65367	13.155343	4.880807	-4.630919	1.673839	2.352012	-0.547162	-0.231059	-0.125104	0.964863	-0.558399	0.829158	-0.026213	-0.796745	-0.544836	-0.261442
65368	14.604480	3.713374	-4.678946	0.977676	2.488394	-0.713275	-0.207273	-0.117285	0.971227	-0.567761	0.822905	-0.021794	-0.796671	-0.555942	-0.237156
65369	15.250561	2.396891	-3.728877	0.177929	2.714372	-0.828534	-0.180798	-0.108953	0.977467	-0.570983	0.820840	-0.014118	-0.800806	-0.560670	-0.210617
65370	15.513430	1.375642	-2.521485	-0.646808	2.830499	-0.917221	-0.152849	-0.100643	0.983111	-0.567318	0.823490	-0.003901	-0.809189	-0.558333	-0.182966
65371	15.257703	0.293789	-2.376737	-1.210111	2.941784	-0.948314	-0.123471	-0.092201	0.988056	-0.558960	0.829161	0.007524	-0.819950	-0.551355	-0.153914
65372	14.489682	-0.332567	-2.420846	-1.536592	3.020826	-0.912846	-0.093531	-0.083287	0.992127	-0.547275	0.836745	0.018650	-0.831711	-0.541221	-0.123842
65373	14.975112	-1.043357	-2.401131	-1.706929	2.961964	-0.806714	-0.064271	-0.074349	0.995159	-0.533832	0.845104	0.028662	-0.843144	-0.529406	-0.094006
65374	15.613141	-1.808999	-2.589449	-1.444236	3.047543	-0.683845	-0.034882	-0.064156	0.997330	-0.521946	0.852195	0.036565	-0.852265	-0.519277	-0.063212
65375	15.176196	-1.778792	-2.735242	-1.122633	3.199977	-0.666011	-0.003977	-0.053446	0.998563	-0.512748	0.857419	0.043849	-0.858530	-0.511836	-0.030814
65376	13.874856	-1.919812	-3.243355	-0.772330	3.271638	-0.695229	0.027655	-0.042738	0.998703	-0.506042	0.861008	0.050859	-0.862065	-0.506792	0.002184
65377	12.629613	-1.905861	-3.586270	-0.234995	3.086042	-0.716870	0.058015	-0.033148	0.997765	-0.503961	0.861781	0.057933	-0.861776	-0.506196	0.033291
65378	11.911045	-1.490244	-3.849271	0.269360	2.818217	-0.731976	0.085894	-0.025122	0.995988	-0.505776	0.860189	0.065315	-0.858378	-0.509356	0.061179
65379	11.652188	-0.924422	-4.041059	0.622361	2.581249	-0.683660	0.111515	-0.017608	0.993607	-0.510703	0.856695	0.072499	-0.852494	-0.515523	0.086542
65380	11.079801	-0.708993	-4.332917	0.821605	2.442734	-0.667788	0.135625	-0.010614	0.990703	-0.516880	0.852322	0.079891	-0.845246	-0.522910	0.110110
65381	10.656031	-0.010562	-4.612418	0.973833	2.367427	-0.688436	0.159168	-0.003760	0.987244	-0.524310	0.846994	0.087758	-0.836520	-0.531590	0.132843
65382	9.962596	0.659331	-4.623319	0.947971	2.260515	-0.750916	0.181884	0.002022	0.983318	-0.530946	0.841896	0.096477	-0.827656	-0.539637	0.154201
65383	9.829239	1.814141	-4.845072	0.811502	2.180496	-0.718367	0.203691	0.008058	0.979002	-0.536487	0.837385	0.104729	-0.818957	-0.546555	0.174891
65384	8.747212	2.099491	-4.729836	0.499559	2.169997	-0.689022	0.225032	0.014216	0.974248	-0.539114	0.834706	0.112345	-0.811614	-0.550512	0.195500
65385	7.899066	1.752973	-4.630478	0.078295	2.048857	-0.683038	0.245290	0.020005	0.969243	-0.538339	0.834282	0.119020	-0.806241	-0.550976	0.215410
65386	7.325015	0.837106	-4.537047	-0.466515	1.982108	-0.670332	0.264780	0.025297	0.963977	-0.532906	0.836978	0.124412	-0.803681	-0.546651	0.235096
65387	6.744749	-0.381848	-4.685688	-0.912174	1.913370	-0.644079	0.283558	0.030453	0.958471	-0.523992	0.842009	0.128268	-0.803135	-0.538603	0.254716
65388	6.467503	-0.610154	-4.927813	-1.101293	1.805145	-0.547152	0.300843	0.035479	0.953013	-0.513580	0.848051	0.130554	-0.803572	-0.528725	0.273352
65389	6.066000	-1.064226	-4.883240	-1.328661	1.633282	-0.457618	0.316299	0.040284	0.947804	-0.501643	0.855089	0.131064	-0.805177	-0.516914	0.290672
65390	5.912030	-1.245710	-4.676431	-1.540553	1.417789	-0.341542	0.329372	0.044599	0.943146	-0.488148	0.863075	0.129662	-0.808224	-0.503102	0.306044
65391	5.645376	-1.112755	-4.106571	-1.839953	1.249398	-0.201953	0.340455	0.049181	0.938974	-0.472710	0.872205	0.125712	-0.812795	-0.486662	0.320195
65392	5.381053	-1.154630	-3.684110	-2.270955	1.132665	-0.071253	0.349975	0.053973	0.935203	-0.453968	0.883046	0.118923	-0.819409	-0.466172	0.333546
65393	5.264990	-1.201885	-3.263565	-2.705479	1.120629	0.028082	0.359058	0.059452	0.931420	-0.431935	0.895249	0.109366	-0.827351	-0.441581	0.347126
65394	5.365624	-1.038666	-2.736632	-3.210835	1.145243	0.117827	0.368041	0.065426	0.927505	-0.405686	0.908865	0.096868	-0.836639	-0.411927	0.361042
65395	5.689503	-1.019961	-2.181590	-3.628593	1.118072	0.206252	0.376619	0.071873	0.923576	-0.376057	0.923003	0.081522	-0.846604	-0.378020	0.374649
65396	5.999953	-1.963048	-1.834663	-3.786623	0.955623	0.312577	0.383581	0.078248	0.920186	-0.345034	0.936392	0.064202	-0.856631	-0.342122	0.386180
65397	7.072215	-2.048521	-0.677596	-3.552407	0.739828	0.450861	0.388431	0.085045	0.917545	-0.316333	0.947528	0.046091	-0.865479	-0.308153	0.394952
65398	8.510797	-2.277860	1.032737	-3.365798	0.696971	0.539750	0.392807	0.092251	0.914982	-0.289224	0.956861	0.027692	-0.872956	-0.275513	0.402543
65399	9.785081	-1.598472	3.111636	-2.725666	0.927587	0.527800	0.399417	0.099905	0.911309	-0.267625	0.963452	0.011676	-0.876837	-0.248552	0.411557
65400	9.791514	-0.656004	5.243028	-1.683452	1.207825	0.509242	0.408628	0.107752	0.906318	-0.254967	0.966950	-0.000004	-0.876365	-0.231080	0.422596
65401	7.311581	-0.385578	6.463490	-0.671579	1.216016	0.457750	0.418070	0.115112	0.901092	-0.251157	0.967920	-0.007122	-0.873005	-0.223338	0.433569
65402	5.387766	-0.466409	6.629198	-0.007440	0.640561	0.376942	0.422657	0.120223	0.898280	-0.252720	0.967482	-0.010575	-0.870341	-0.222544	0.439296
65403	5.235168	-1.114213	5.820994	0.196769	0.022821	0.186252	0.422343	0.122253	0.898154	-0.255402	0.966767	-0.011493	-0.869710	-0.224536	0.439531
65404	5.941126	-1.888158	5.288919	0.257266	-0.388933	-0.059673	0.419065	0.120832	0.899880	-0.257433	0.966246	-0.009860	-0.870697	-0.227527	0.436026
65405	7.017268	-2.369950	5.518016	0.449675	-0.747933	-0.195621	0.413016	0.117410	0.903124	-0.260730	0.965391	-0.006268	-0.872604	-0.232882	0.429334
65406	8.696707	-2.220174	6.096987	0.751686	-0.978774	-0.193595	0.404928	0.113256	0.907307	-0.266548	0.963821	-0.001351	-0.874634	-0.241294	0.420467
65407	10.772987	-1.535938	6.661877	0.992049	-0.808600	-0.098594	0.398083	0.110525	0.910667	-0.275050	0.961423	0.003548	-0.875144	-0.251891	0.413127
65408	11.763372	-0.790960	6.751545	1.011995	-0.265225	0.000953	0.395714	0.109887	0.911776	-0.283944	0.958810	0.007677	-0.873376	-0.261932	0.410617
65409	10.899199	0.338817	6.983459	0.929930	0.277566	0.028693	0.398013	0.111119	0.910625	-0.292385	0.956236	0.011110	-0.869538	-0.270675	0.413084
65410	9.192659	1.254900	6.848525	0.847965	0.469904	-0.060706	0.402221	0.111862	0.908683	-0.299540	0.953963	0.015152	-0.865156	-0.278282	0.417211
65411	7.844555	1.737826	6.860051	0.716389	0.468280	-0.227904	0.406916	0.111227	0.906669	-0.305024	0.952133	0.020092	-0.861034	-0.284732	0.421365
65412	7.598063	1.572287	6.372468	0.551973	0.367383	-0.402442	0.411259	0.108485	0.905040	-0.308166	0.950976	0.026042	-0.857846	-0.289612	0.424529
65413	8.115577	0.983260	5.117097	0.519098	0.341634	-0.475527	0.415626	0.105178	0.903434	-0.310864	0.949901	0.032426	-0.854762	-0.294322	0.427500
65414	7.613689	0.162912	3.989276	0.699029	0.501138	-0.541306	0.421544	0.101563	0.901103	-0.314603	0.948368	0.040284	-0.850486	-0.300471	0.431731
65415	6.974456	0.019152	4.090011	1.078287	0.657970	-0.551723	0.428843	0.098559	0.897987	-0.321609	0.945562	0.049807	-0.844193	-0.310160	0.437195
65416	5.067533	0.221117	3.308094	1.475838	0.573149	-0.448945	0.435079	0.096171	0.895241	-0.332120	0.941309	0.060288	-0.836900	-0.323557	0.441484
65417	4.766710	0.014536	1.339101	1.748429	-0.451855	-0.186154	0.431910	0.093141	0.897095	-0.346131	0.935608	0.069506	-0.832855	-0.340533	0.436337
65418	8.214343	-1.260832	-0.351551	1.688618	-1.839846	0.142674	0.416015	0.088076	0.905082	-0.360861	0.929566	0.075409	-0.834692	-0.357980	0.418497
65419	13.866088	-2.779154	0.066291	1.267238	-2.477510	0.223938	0.394417	0.081315	0.915327	-0.372588	0.924679	0.078404	-0.840008	-0.371963	0.395006
65420	17.849508	-3.202586	3.474120	0.858486	-1.642238	0.071669	0.380275	0.075820	0.921760	-0.380134	0.921375	0.081037	-0.843142	-0.381209	0.379198
65421	16.430859	-0.126618	7.627821	0.521059	-0.345818	-0.290553	0.378434	0.072033	0.922821	-0.383642	0.919511	0.085551	-0.842381	-0.386408	0.375609
65422	13.372690	4.791796	11.372689	0.165438	0.145769	-0.654713	0.382118	0.066606	0.921710	-0.382588	0.919309	0.092180	-0.841197	-0.387859	0.376767
65423	9.891035	7.229977	11.278752	-0.425559	-0.300263	-0.506245	0.381481	0.061006	0.922361	-0.377293	0.921196	0.095116	-0.843873	-0.384286	0.374437
65424	8.356931	3.437693	7.757457	-0.741641	-0.918007	-0.157576	0.374244	0.056082	0.925633	-0.370460	0.924101	0.093792	-0.850118	-0.378011	0.366615
65425	8.754209	-0.493619	3.575860	-0.523947	-1.091455	-0.041831	0.365066	0.051793	0.929540	-0.366044	0.926023	0.092162	-0.856001	-0.373898	0.357018
65426	8.390151	-2.108190	0.081453	-0.347930	-1.056582	-0.116570	0.356369	0.046806	0.933172	-0.362680	0.927363	0.091989	-0.861083	-0.371225	0.347459
65427	8.510913	-3.443158	-2.358329	-0.352295	-1.126552	-0.285604	0.347648	0.040198	0.936763	-0.358852	0.928718	0.093323	-0.866237	-0.368602	0.337292
65428	9.345830	-3.905281	-4.408545	0.519484	-1.081743	-0.416790	0.339719	0.032344	0.939971	-0.361967	0.926927	0.098925	-0.868085	-0.373845	0.326602
65429	9.310310	-2.755927	-4.792637	1.726637	-1.042522	-0.447780	0.332308	0.024440	0.942854	-0.375652	0.920383	0.108541	-0.865134	-0.390254	0.315032
65430	8.626902	-1.435518	-3.707663	2.194853	-1.268746	-0.428961	0.322956	0.015457	0.946288	-0.393231	0.911665	0.119313	-0.860854	-0.410643	0.300506
65431	8.077388	0.570469	-2.558862	2.107395	-1.533206	-0.328169	0.311071	0.006241	0.950366	-0.410513	0.902764	0.128439	-0.857155	-0.430091	0.283385
65432	8.035388	2.660160	-2.712150	1.692636	-1.772617	-0.158811	0.296501	-0.002921	0.955028	-0.424567	0.895343	0.134550	-0.855471	-0.445368	0.264230
65433	8.914756	4.753050	-3.785248	1.367479	-1.957008	-0.033188	0.279869	-0.011875	0.959965	-0.436360	0.889093	0.138215	-0.855139	-0.457572	0.243648
65434	9.689563	6.418984	-3.573043	0.958052	-1.992184	-0.051395	0.262993	-0.021504	0.964558	-0.444459	0.884647	0.140907	-0.856324	-0.465764	0.223098
65435	10.288692	7.349733	-2.033833	0.372336	-1.850061	-0.069338	0.247392	-0.030636	0.968431	-0.447618	0.882834	0.142275	-0.859323	-0.468685	0.204693
65436	10.344843	5.877217	-0.965133	-0.401084	-1.574381	-0.042495	0.233953	-0.038335	0.971492	-0.444097	0.884678	0.141856	-0.864895	-0.464624	0.189949
65437	10.496360	4.502783	-0.269738	-0.890319	-1.390687	0.013062	0.221777	-0.044543	0.974080	-0.436490	0.888747	0.140020	-0.871947	-0.456229	0.177661
65438	10.277436	2.766293	-0.074666	-1.058692	-1.257117	0.034638	0.210565	-0.049882	0.976306	-0.427333	0.893528	0.137818	-0.879232	-0.446228	0.166830
65439	10.507748	2.197715	0.580976	-1.084922	-1.191011	0.079057	0.199674	-0.054367	0.978353	-0.417994	0.898329	0.135229	-0.886235	-0.435947	0.156648
65440	10.397173	1.394072	0.518576	-1.163038	-1.112997	0.144963	0.189118	-0.057825	0.980250	-0.407965	0.903405	0.132000	-0.893196	-0.424872	0.147260
65441	9.947030	0.777457	0.505553	-1.099823	-1.043317	0.207247	0.178886	-0.060272	0.982022	-0.398555	0.908121	0.128338	-0.899530	-0.414347	0.138429
65442	9.872812	0.687852	0.324772	-0.975458	-1.022314	0.227406	0.168711	-0.062362	0.983691	-0.390185	0.912246	0.124753	-0.905148	-0.404869	0.129573
65443	9.479645	0.207646	-0.047363	-0.807763	-1.022271	0.196388	0.158628	-0.064611	0.985222	-0.383243	0.915588	0.121749	-0.909924	-0.396892	0.120476
65444	9.397434	0.346767	-0.088586	-0.515164	-1.102884	0.145885	0.147963	-0.067592	0.986680	-0.378806	0.917706	0.119673	-0.913571	-0.391468	0.110182
65445	9.420891	0.455727	-0.243140	-0.288304	-1.199558	0.100449	0.136562	-0.071289	0.988063	-0.376381	0.918879	0.118317	-0.916345	-0.388046	0.098652
65446	9.414956	0.771114	-0.135576	-0.099485	-1.286062	0.072350	0.124438	-0.075573	0.989345	-0.375599	0.919308	0.117466	-0.918390	-0.386214	0.086012
65447	9.332052	0.954504	-0.199297	0.013504	-1.358353	0.048428	0.111723	-0.080313	0.990489	-0.375847	0.919274	0.116933	-0.919922	-0.385337	0.072519
65448	9.341954	1.098990	-0.140095	0.167011	-1.427110	0.038178	0.098391	-0.085435	0.991474	-0.377459	0.918654	0.116619	-0.920784	-0.385715	0.058139
65449	9.293585	1.043189	-0.218337	0.280266	-1.481567	0.046153	0.084523	-0.090684	0.992286	-0.380146	0.917593	0.116239	-0.921056	-0.387039	0.043085
65450	9.267300	0.800887	-0.234529	0.286793	-1.536055	0.053571	0.070116	-0.096118	0.992897	-0.382863	0.916524	0.115762	-0.921141	-0.388260	0.027463
65451	9.473392	0.363732	-0.238986	0.298343	-1.574480	0.070717	0.055293	-0.101542	0.993293	-0.385717	0.915415	0.115053	-0.920959	-0.389492	0.011449
65452	9.623053	-0.005664	-0.165461	0.343852	-1.586285	0.120629	0.040167	-0.106601	0.993490	-0.388973	0.914191	0.113818	-0.920373	-0.391012	-0.004745
65453	9.545047	-0.103091	-0.178844	0.400716	-1.582551	0.175727	0.024873	-0.111148	0.993493	-0.392777	0.912794	0.111953	-0.919297	-0.393006	-0.020952
65454	9.414286	-0.014089	-0.141331	0.486973	-1.609687	0.224822	0.009146	-0.115416	0.993275	-0.397319	0.911121	0.109529	-0.917635	-0.395649	-0.037524
65455	9.463481	0.399185	-0.018693	0.598022	-1.610306	0.267717	-0.006731	-0.119324	0.992833	-0.402875	0.909035	0.106522	-0.915230	-0.399270	-0.054192
65456	9.650649	0.706004	0.203802	0.642095	-1.588554	0.261009	-0.022362	-0.123300	0.992117	-0.408733	0.906768	0.103481	-0.912380	-0.403197	-0.070674
65457	9.602560	0.478917	0.386304	0.745342	-1.574836	0.304869	-0.038008	-0.126870	0.991191	-0.415502	0.904102	0.099790	-0.908798	-0.408049	-0.087078
65458	9.737206	0.717522	0.630845	0.861265	-1.545778	0.333202	-0.053476	-0.130188	0.990046	-0.423185	0.900983	0.095618	-0.904464	-0.413860	-0.103274
65459	9.843505	0.888788	0.698250	0.920062	-1.481105	0.343756	-0.068350	-0.133215	0.988727	-0.431354	0.897570	0.091114	-0.899590	-0.420264	-0.118812
65460	9.720414	1.432381	0.754915	0.927829	-1.410689	0.343955	-0.082558	-0.136081	0.987252	-0.439443	0.894097	0.086493	-0.894469	-0.426700	-0.133615
65461	9.738429	2.004969	0.534767	0.802597	-1.341483	0.349261	-0.096114	-0.138666	0.985664	-0.446369	0.891099	0.081836	-0.889672	-0.432104	-0.147544
65462	9.644698	2.388524	0.262182	0.569829	-1.279232	0.361765	-0.109150	-0.140969	0.983979	-0.451080	0.889126	0.077343	-0.885784	-0.435411	-0.160636
65463	9.535273	2.538828	0.102792	0.268595	-1.304342	0.349537	-0.122308	-0.143490	0.982065	-0.453128	0.888420	0.073375	-0.883015	-0.436027	-0.173680
65464	9.795420	2.408338	0.230149	0.024167	-1.343217	0.331560	-0.135714	-0.146363	0.979877	-0.452936	0.888789	0.070025	-0.881153	-0.434319	-0.186914
65465	10.020821	2.173731	0.364219	-0.187615	-1.334404	0.296783	-0.148845	-0.149445	0.977503	-0.450933	0.890009	0.067405	-0.880059	-0.430755	-0.199864
65466	9.971246	1.670979	-0.080518	-0.269421	-1.248742	0.235832	-0.160947	-0.152671	0.975084	-0.448219	0.891513	0.065603	-0.879316	-0.426492	-0.211916
65467	9.811582	1.060954	-0.740868	-0.217032	-1.173842	0.156076	-0.171994	-0.156215	0.972633	-0.446115	0.892650	0.064481	-0.878293	-0.422816	-0.223220
65468	9.705738	0.640037	-1.202717	-0.079226	-1.153346	0.117455	-0.182693	-0.160002	0.970063	-0.445232	0.893163	0.063467	-0.876580	-0.420308	-0.234412
65469	9.453341	0.341222	-1.501374	0.077487	-1.187312	0.060518	-0.193388	-0.164397	0.967251	-0.445866	0.892907	0.062617	-0.873959	-0.419155	-0.245977
65470	9.520197	0.220571	-1.423504	0.167849	-1.290208	0.049680	-0.204919	-0.169331	0.964020	-0.447250	0.892281	0.061659	-0.870618	-0.418523	-0.258579
65471	9.777967	0.335165	-1.028649	0.139426	-1.314897	0.072738	-0.216701	-0.174129	0.960583	-0.448382	0.891792	0.060506	-0.867176	-0.417596	-0.271329
65472	9.810179	0.703241	-0.917108	0.144090	-1.226627	0.085361	-0.227756	-0.178458	0.957225	-0.449457	0.891336	0.059233	-0.863780	-0.416741	-0.283216
65473	9.908360	1.156218	-1.121098	0.200809	-1.121581	0.091345	-0.237863	-0.182267	0.954044	-0.451053	0.890630	0.057695	-0.860217	-0.416601	-0.294060
65474	10.214524	1.426713	-1.574669	0.321149	-1.000236	0.103393	-0.246970	-0.185492	0.951104	-0.453575	0.889476	0.055694	-0.856315	-0.417642	-0.303808
65475	10.172860	1.669141	-1.807743	0.492886	-0.858488	0.129358	-0.254914	-0.187894	0.948533	-0.457530	0.887621	0.052869	-0.851872	-0.420505	-0.312234
65476	9.938511	2.043367	-1.852241	0.609723	-0.791256	0.152667	-0.262392	-0.189857	0.946100	-0.462330	0.885329	0.049439	-0.846996	-0.424438	-0.320080
65477	9.886017	2.356391	-1.747334	0.562299	-0.829498	0.149712	-0.270116	-0.192015	0.943487	-0.466759	0.883182	0.046111	-0.842125	-0.427925	-0.328186
65478	10.336558	2.318178	-1.699946	0.402579	-0.889240	0.139154	-0.278292	-0.194575	0.940582	-0.469773	0.881720	0.043405	-0.837775	-0.429781	-0.336781
65479	10.782516	1.969465	-1.651600	0.312741	-0.834693	0.123573	-0.285873	-0.197038	0.937792	-0.472102	0.880585	0.041105	-0.833904	-0.430982	-0.344757
65480	10.690914	1.468314	-1.329539	0.327733	-0.731756	0.101806	-0.292498	-0.199275	0.935272	-0.474548	0.879367	0.038953	-0.830210	-0.432438	-0.351779
65481	10.647431	0.985788	-1.140369	0.395053	-0.631955	0.082783	-0.298144	-0.201246	0.933065	-0.477640	0.877789	0.036703	-0.826420	-0.434726	-0.357831
65482	10.446757	0.691848	-0.942020	0.499329	-0.549770	0.067318	-0.303054	-0.203029	0.931095	-0.481567	0.875741	0.034218	-0.822345	-0.438014	-0.363169
65483	10.543737	0.574931	-0.589991	0.623151	-0.542919	0.055670	-0.307794	-0.204897	0.929129	-0.486576	0.873076	0.031346	-0.817622	-0.442443	-0.368426
65484	10.960804	0.553528	-0.184843	0.711978	-0.531508	0.049589	-0.312424	-0.206804	0.927159	-0.492237	0.870005	0.028187	-0.812461	-0.447576	-0.373607
65485	11.272100	0.406424	-0.019048	0.726329	-0.470497	0.016256	-0.316324	-0.208738	0.925401	-0.498152	0.866723	0.025222	-0.807331	-0.453012	-0.378149
65486	11.452336	0.252653	0.109172	0.800303	-0.411360	-0.013466	-0.319622	-0.210706	0.923821	-0.504646	0.863040	0.022246	-0.801981	-0.459092	-0.382178
65487	11.707288	0.259312	0.398905	0.916591	-0.370348	-0.022065	-0.322471	-0.212562	0.922405	-0.512142	0.858694	0.018836	-0.796067	-0.466328	-0.385765
65488	11.885113	0.536917	0.884821	1.032809	-0.288702	-0.020611	-0.324709	-0.214073	0.921269	-0.520409	0.853786	0.014969	-0.789771	-0.474576	-0.388637
65489	12.232614	0.828333	1.352518	1.121810	-0.188496	-0.023343	-0.326061	-0.215128	0.920546	-0.529416	0.848295	0.010722	-0.783200	-0.483856	-0.390488
65490	12.704833	0.772003	1.771411	1.259029	-0.017357	-0.038521	-0.326046	-0.215516	0.920460	-0.539370	0.842047	0.006100	-0.776385	-0.494480	-0.390789
65491	13.289206	0.299677	2.094075	1.505286	0.277090	-0.065666	-0.323528	-0.214625	0.921556	-0.551343	0.834279	0.000741	-0.768993	-0.507854	-0.388245
65492	13.579224	-0.635497	3.235002	1.769824	0.724509	-0.043527	-0.317797	-0.211227	0.924331	-0.565036	0.825047	-0.005728	-0.761406	-0.524100	-0.381549
65493	12.931872	-1.760578	5.225136	1.667331	1.230634	0.030873	-0.308609	-0.204363	0.928976	-0.577741	0.816126	-0.012390	-0.755630	-0.540531	-0.369933
65494	12.312247	-2.800995	6.900181	1.141663	1.670221	0.138624	-0.296865	-0.194083	0.934988	-0.585950	0.810150	-0.017874	-0.754012	-0.553162	-0.354228
65495	11.450290	-3.472064	6.366941	0.580349	2.002958	0.279605	-0.283337	-0.180570	0.941868	-0.589728	0.807285	-0.022636	-0.756268	-0.561859	-0.335221
65496	11.043861	-2.515119	5.118178	0.363726	2.156495	0.345821	-0.269087	-0.165574	0.948777	-0.591543	0.805817	-0.027144	-0.760046	-0.568546	-0.314779
65497	11.102070	-1.007038	3.390835	0.689860	2.312934	0.289966	-0.253151	-0.149870	0.955748	-0.596290	0.802125	-0.032161	-0.761809	-0.578044	-0.292424
65498	11.469124	1.732479	1.610188	1.392638	2.442036	0.154043	-0.235561	-0.134328	0.962532	-0.606521	0.794178	-0.037601	-0.759370	-0.592653	-0.268550
65499	11.343492	4.103985	-1.056833	1.974551	2.488749	-0.183209	-0.215562	-0.120652	0.969008	-0.622133	0.781834	-0.041051	-0.752651	-0.611701	-0.243595
65500	11.302608	5.581532	-4.669966	2.319882	2.321314	-0.491813	-0.195158	-0.110005	0.974583	-0.640507	0.766819	-0.041706	-0.742741	-0.632366	-0.220110
65501	13.182377	5.915688	-6.898124	1.981318	2.154584	-0.768073	-0.174220	-0.101898	0.979420	-0.656790	0.753092	-0.038479	-0.733672	-0.649977	-0.198129
65502	14.485603	4.661715	-6.647827	0.876724	2.325831	-0.997083	-0.150650	-0.094140	0.984095	-0.664851	0.746358	-0.030381	-0.731627	-0.658853	-0.175028
65503	14.225928	3.912479	-4.735756	-0.239185	2.490231	-1.056220	-0.125307	-0.085495	0.988427	-0.664744	0.746812	-0.019676	-0.736487	-0.659517	-0.150413
65504	14.279368	4.421256	-2.739498	-1.216009	2.518965	-1.001080	-0.100062	-0.076470	0.992038	-0.656871	0.753959	-0.008138	-0.747334	-0.652455	-0.125674
65505	14.105627	3.336689	-2.071547	-1.979716	2.683756	-0.894439	-0.073953	-0.065821	0.995087	-0.642874	0.765967	0.002888	-0.762394	-0.639502	-0.098960
65506	12.868551	1.507277	-2.065898	-2.472382	2.759482	-0.780452	-0.047789	-0.054436	0.997373	-0.624308	0.781075	0.012717	-0.779715	-0.622060	-0.071311
65507	13.426743	-0.665899	-2.564603	-2.651314	2.616358	-0.704413	-0.022805	-0.043861	0.998777	-0.603817	0.796840	0.021206	-0.796796	-0.602596	-0.044656
65508	14.571263	-1.949715	-3.078818	-2.327149	2.623667	-0.613492	0.001875	-0.033194	0.999447	-0.585202	0.810404	0.028013	-0.810886	-0.584931	-0.017906
65509	14.811275	-2.397218	-3.282699	-2.040726	2.669748	-0.633054	0.027353	-0.022833	0.999365	-0.568612	0.821889	0.034342	-0.822151	-0.569190	0.009498
65510	14.221736	-2.405851	-3.636039	-1.712583	2.771908	-0.680002	0.054021	-0.012845	0.998457	-0.554213	0.831380	0.040681	-0.830620	-0.555556	0.037793
65511	12.884415	-2.567153	-3.835485	-1.187192	2.715726	-0.712450	0.080571	-0.003701	0.996742	-0.544017	0.837752	0.047086	-0.835197	-0.546038	0.065485
65512	11.780332	-2.101423	-3.611954	-0.581974	2.544456	-0.682357	0.105469	0.004426	0.994413	-0.538554	0.840899	0.053377	-0.835964	-0.541175	0.091072
65513	11.021395	-2.215327	-3.619560	-0.072353	2.367364	-0.679044	0.128890	0.011655	0.991590	-0.537325	0.841241	0.059955	-0.833468	-0.540534	0.114690
65514	10.420185	-1.353635	-3.676430	0.392537	2.156172	-0.651834	0.150259	0.017888	0.988485	-0.539715	0.839189	0.066855	-0.828330	-0.543546	0.135750
65515	10.076719	-0.650650	-3.875392	0.672137	1.946457	-0.624513	0.169699	0.023428	0.985217	-0.544425	0.835547	0.073906	-0.821464	-0.548919	0.154546
65516	9.753973	-0.218385	-4.208668	0.755535	1.864082	-0.638695	0.188379	0.028412	0.981685	-0.549499	0.831522	0.081379	-0.813981	-0.554765	0.172253
65517	9.233740	0.813673	-4.115481	0.746075	1.820486	-0.645011	0.206677	0.033339	0.977841	-0.554416	0.827470	0.088970	-0.806168	-0.560519	0.189503
65518	8.186227	1.043986	-3.932980	0.575529	1.794973	-0.645971	0.224619	0.038123	0.973701	-0.557683	0.824440	0.096371	-0.799084	-0.564663	0.206445
65519	7.512661	1.193652	-3.654561	0.391709	1.634399	-0.638726	0.241182	0.042218	0.969561	-0.559438	0.822404	0.103352	-0.793007	-0.567336	0.221967
65520	7.008260	1.076906	-3.467388	0.058636	1.514973	-0.598925	0.256455	0.045907	0.965465	-0.558453	0.822312	0.109241	-0.788898	-0.567183	0.236523
65521	6.484259	0.452096	-3.688001	-0.266832	1.494101	-0.556531	0.271302	0.049862	0.961202	-0.554985	0.824026	0.113900	-0.786376	-0.564354	0.251232
65522	5.875633	-0.082545	-3.869777	-0.506164	1.399469	-0.518097	0.285104	0.053470	0.957004	-0.549609	0.827114	0.117523	-0.785268	-0.559485	0.265201
65523	5.554918	-0.411282	-3.829886	-0.694429	1.205359	-0.485608	0.297199	0.056214	0.953159	-0.542826	0.831194	0.120234	-0.785502	-0.553133	0.277544
65524	5.530805	-0.416246	-3.728500	-0.879957	1.013826	-0.443717	0.307505	0.058104	0.949771	-0.534610	0.836257	0.121930	-0.787168	-0.545250	0.288216
65525	5.534263	-0.551566	-3.377010	-1.161559	0.817566	-0.389646	0.315990	0.059300	0.946908	-0.524302	0.842720	0.122188	-0.790733	-0.535076	0.297382
65526	5.506619	-0.637606	-2.967222	-1.426668	0.691165	-0.328677	0.323120	0.060196	0.944441	-0.511979	0.850439	0.120958	-0.795909	-0.522618	0.305613
65527	5.577280	-0.551915	-2.382244	-1.722297	0.601560	-0.266355	0.329240	0.061058	0.942270	-0.497406	0.859440	0.118109	-0.802614	-0.507577	0.313333
65528	5.752513	-0.419443	-1.855486	-2.094085	0.499718	-0.224948	0.334317	0.061628	0.940443	-0.479808	0.869994	0.113555	-0.811182	-0.489196	0.320424
65529	6.075230	-0.568983	-1.586948	-2.438523	0.384790	-0.189891	0.338315	0.061840	0.938999	-0.459319	0.881752	0.107420	-0.821321	-0.467642	0.326714
65530	6.444721	-0.572112	-1.355358	-2.675031	0.204024	-0.172690	0.340722	0.061264	0.938166	-0.436658	0.894030	0.100203	-0.832609	-0.443799	0.331368
65531	7.285921	-0.192159	-0.556664	-2.945310	-0.008412	-0.124181	0.341141	0.060142	0.938086	-0.411577	0.906766	0.091539	-0.845120	-0.417323	0.334088
65532	8.025444	-0.240803	0.278869	-3.269796	-0.066665	-0.046851	0.340708	0.059477	0.938286	-0.383614	0.919936	0.080983	-0.858346	-0.387531	0.336245
65533	9.215176	-0.488957	0.992275	-3.470651	0.041657	0.062973	0.340797	0.060247	0.938205	-0.353865	0.932774	0.068641	-0.870998	-0.355391	0.339206
65534	10.382275	-0.146773	1.972404	-3.464505	0.416569	0.251389	0.343545	0.064054	0.936949	-0.324418	0.944349	0.054392	-0.881323	-0.322649	0.345206
65535	10.853008	0.744521	3.129024	-3.056740	1.069081	0.346113	0.351881	0.070666	0.933373	-0.298642	0.953510	0.040397	-0.887126	-0.292960	0.356626
00000	9.402962	0.705116	5.630944	-2.374930	1.412376	0.264767	0.363612	0.077208	0.928345	-0.278549	0.959976	0.029263	-0.888930	-0.269230	0.370565
00001	7.789376	-0.563319	7.599892	-1.570347	1.173112	0.166318	0.373551	0.081910	0.923986	-0.265255	0.963932	0.021786	-0.888875	-0.253231	0.381805
00002	6.222984	-1.258431	8.630247	-0.829623	0.568918	0.078032	0.378358	0.084120	0.921829	-0.258226	0.965920	0.017844	-0.888912	-0.244792	0.387185
00003	6.197343	-1.357604	9.032207	-0.536761	-0.124252	-0.037165	0.377315	0.083517	0.922312	-0.253382	0.967233	0.016073	-0.890747	-0.239762	0.386113
00004	7.581394	-1.800929	8.870614	-0.566346	-0.547869	-0.146519	0.372746	0.080839	0.924405	-0.247831	0.968684	0.015221	-0.894226	-0.234769	0.381108
00005	8.997950	-2.367298	8.366201	-0.370678	-0.596295	-0.161125	0.367772	0.077970	0.926641	-0.244012	0.969652	0.015256	-0.897330	-0.231722	0.375637
00006	10.181223	-1.570854	8.199727	0.030032	-0.443679	-0.095987	0.363976	0.076050	0.928298	-0.243982	0.969644	0.016226	-0.898885	-0.232394	0.371482
00007	11.120767	-0.336221	7.895571	0.298844	-0.129200	-0.025444	0.362851	0.075606	0.928775	-0.246698	0.968934	0.017504	-0.898599	-0.235478	0.370230
00008	11.148081	0.475798	7.229317	0.350021	0.320949	-0.034186	0.365771	0.076076	0.927591	-0.249767	0.968118	0.019089	-0.896565	-0.238664	0.373110
00009	10.128562	0.207952	6.237241	0.207222	0.652928	-0.155618	0.371980	0.076246	0.925104	-0.251178	0.967708	0.021240	-0.893611	-0.240267	0.379120
00010	8.614877	-0.481402	5.260606	0.176445	0.761175	-0.296158	0.379469	0.075254	0.922139	-0.251692	0.967494	0.024618	-0.890312	-0.241436	0.386074
00011	7.253224	-0.605479	4.370870	0.352228	0.704475	-0.395133	0.386703	0.073262	0.919290	-0.253443	0.966899	0.029556	-0.886695	-0.244417	0.392470
00012	7.092250	-0.457045	3.708349	0.513880	0.537199	-0.466273	0.392600	0.070121	0.917032	-0.256227	0.965952	0.035835	-0.883297	-0.249037	0.397200
00013	8.738467	-0.460432	3.053789	0.706497	0.356104	-0.421931	0.396808	0.067073	0.915448	-0.260934	0.964423	0.042443	-0.880032	-0.255713	0.400193
00014	10.601266	-0.147522	3.019245	1.053071	0.428411	-0.436953	0.401680	0.064020	0.913540	-0.268486	0.961952	0.050640	-0.875539	-0.265614	0.403585
00015	11.917239	-0.411764	3.595861	1.416058	0.615426	-0.536579	0.408493	0.060671	0.910743	-0.278809	0.958394	0.061209	-0.869137	-0.278927	0.408413
00016	12.299834	-0.745663	5.252250	1.864505	0.679362	-0.555323	0.415911	0.057354	0.907595	-0.292704	0.953344	0.073888	-0.861013	-0.296387	0.413294
00017	11.105723	-0.959747	5.513207	2.165923	0.339776	-0.498369	0.420297	0.053794	0.905791	-0.309332	0.946939	0.087296	-0.853032	-0.316880	0.414636
00018	10.068507	-0.230548	4.855177	2.207217	-0.498270	-0.403034	0.417293	0.048396	0.907483	-0.326472	0.939902	0.099999	-0.848105	-0.337997	0.408014
00019	11.446817	0.979347	4.949432	1.740716	-1.052724	-0.368532	0.409573	0.041437	0.911336	-0.339856	0.933990	0.110271	-0.846610	-0.354887	0.396620
00020	11.952155	2.449035	4.908887	1.118488	-0.731335	-0.322520	0.404445	0.035831	0.913860	-0.348061	0.930070	0.117574	-0.845741	-0.365631	0.388634
00021	8.940896	1.969552	4.235527	0.207943	-0.359328	-0.247193	0.402240	0.032351	0.914962	-0.348975	0.929345	0.120559	-0.846415	-0.367792	0.385110
00022	6.729936	-1.129485	0.937218	-0.347894	-0.749073	-0.163840	0.396404	0.028117	0.917645	-0.345421	0.930653	0.120699	-0.850616	-0.364820	0.378627
00023	7.613387	-2.847256	-2.032431	-0.264353	-1.107265	-0.080835	0.387209	0.023473	0.921693	-0.343002	0.931590	0.120372	-0.855815	-0.362752	0.368771
00024	8.995836	-3.056465	-3.134143	0.148319	-0.932023	-0.037415	0.379298	0.019770	0.925063	-0.344182	0.931044	0.121225	-0.858878	-0.364371	0.359948
00025	8.793505	-2.760469	-4.822512	1.096267	-0.702021	0.034999	0.373117	0.017644	0.927616	-0.353883	0.926938	0.124712	-0.857642	-0.374800	0.352100
00026	8.640120	-2.205725	-4.490027	2.012279	-0.913092	0.045133	0.365090	0.014586	0.930858	-0.371321	0.919184	0.131233	-0.853715	-0.393559	0.341001
00027	9.081716	-0.288244	-3.224960	2.178449	-1.336931	-0.048071	0.353840	0.008888	0.935264	-0.389865	0.910344	0.138847	-0.850178	-0.413756	0.325581
00028	9.783949	1.375570	-2.865101	1.872982	-1.670533	-0.052687	0.339808	0.001386	0.940494	-0.405642	0.902420	0.145232	-0.848519	-0.430854	0.307212
00029	9.951197	3.065870	-2.849728	1.671755	-1.798143	0.033336	0.324371	-0.006079	0.945910	-0.420068	0.895043	0.149802	-0.847541	-0.445938	0.287773
00030	10.095773	4.747486	-2.840578	1.517096	-1.975164	0.065059	0.307302	-0.014410	0.951503	-0.433179	0.888166	0.153353	-0.847302	-0.459297	0.266693
00031	10.521506	5.945718	-2.818838	1.095865	-2.126554	0.047446	0.289004	-0.023777	0.957033	-0.442715	0.883053	0.155629	-0.848811	-0.468670	0.244679
00032	10.399758	6.601991	-1.995823	0.500289	-2.014150	0.081130	0.271458	-0.032512	0.961901	-0.447245	0.880705	0.155985	-0.852222	-0.472549	0.224533
00033	9.930664	6.070020	-1.164663	-0.122415	-1.838701	0.105589	0.255206	-0.040221	0.966050	-0.446531	0.881302	0.154654	-0.857602	-0.470839	0.206954
00034	10.189090	4.908485	-0.429762	-0.606661	-1.610604	0.142137	0.240654	-0.046473	0.969498	-0.441706	0.884186	0.152026	-0.864281	-0.464819	0.192255
00035	10.434111	3.708555	-0.165361	-0.903408	-1.435844	0.134827	0.227537	-0.051885	0.972386	-0.434200	0.888407	0.149006	-0.871606	-0.456115	0.179617
00036	10.075391	2.222865	-0.261067	-1.065422	-1.290757	0.141958	0.215575	-0.056413	0.974856	-0.425234	0.893275	0.145726	-0.879036	-0.445957	0.168579
00037	9.793018	1.730123	-0.237664	-0.982386	-1.252499	0.198859	0.203619	-0.060166	0.977200	-0.416985	0.897727	0.142160	-0.885812	-0.436424	0.157706
00038	9.755371	1.035601	-0.291347	-0.933716	-1.267772	0.234526	0.191326	-0.063500	0.979470	-0.409192	0.901891	0.138400	-0.892164	-0.427271	0.146571
00039	9.750678	0.763135	-0.089124	-0.828390	-1.261228	0.239209	0.178998	-0.066685	0.981587	-0.402217	0.905556	0.134866	-0.897876	-0.418952	0.135272
00040	9.863352	0.571545	-0.032074	-0.649090	-1.267928	0.228737	0.166616	-0.069848	0.983545	-0.396813	0.908398	0.131733	-0.902651	-0.412232	0.123637
00041	9.590308	1.012702	-0.196061	-0.524069	-1.242795	0.224969	0.154415	-0.072898	0.985313	-0.392428	0.910709	0.128878	-0.906728	-0.406565	0.112020
00042	9.231790	0.966021	-0.059686	-0.435722	-1.340876	0.202035	0.141389	-0.076442	0.986998	-0.388811	0.912609	0.126379	-0.910404	-0.401624	0.099311
00043	9.281784	0.872693	-0.376153	-0.443997	-1.440059	0.176888	0.127495	-0.080580	0.988560	-0.384990	0.914526	0.124197	-0.914072	-0.396421	0.085575
00044	9.618027	0.972185	-0.438741	-0.412575	-1.479771	0.168508	0.113245	-0.084834	0.989939	-0.381456	0.916280	0.122159	-0.917424	-0.391452	0.071404
00045	9.829052	0.755906	0.009396	-0.391823	-1.486982	0.178091	0.098829	-0.088992	0.991117	-0.378034	0.917966	0.120119	-0.920502	-0.386547	0.057080
00046	9.563008	0.550728	0.401424	-0.409604	-1.469740	0.192454	0.084502	-0.092835	0.992089	-0.374474	0.919704	0.117957	-0.923379	-0.381479	0.042953
00047	9.136143	0.234211	0.483815	-0.382826	-1.505937	0.174476	0.069851	-0.096938	0.992836	-0.371059	0.921328	0.116062	-0.925978	-0.376508	0.028386
00048	9.148495	0.328858	0.593352	-0.313128	-1.589190	0.166741	0.054449	-0.101316	0.993363	-0.368299	0.922656	0.114291	-0.928112	-0.372077	0.012923
00049	9.342665	0.313073	0.674511	-0.265906	-1.645857	0.152301	0.038525	-0.105994	0.993620	-0.365895	0.923803	0.112733	-0.929859	-0.367903	-0.003193
00050	9.598368	0.539895	0.636273	-0.190110	-1.644597	0.158507	0.022591	-0.110517	0.993617	-0.364211	0.924662	0.111129	-0.931042	-0.364397	-0.019363
00051	9.745661	0.439966	0.302003	-0.090322	-1.558492	0.201115	0.007271	-0.114305	0.993419	-0.363400	0.925221	0.109118	-0.931605	-0.361802	-0.034811
00052	9.319653	0.918482	0.498327	0.091982	-1.549230	0.248089	-0.008115	-0.117574	0.993031	-0.364292	0.925168	0.106562	-0.931250	-0.360888	-0.050339
00053	9.338453	0.821760	0.932198	0.120229	-1.643057	0.237975	-0.024351	-0.121280	0.992320	-0.365376	0.925022	0.104089	-0.930542	-0.360035	-0.066838
00054	9.678960	0.014895	1.262186	0.201033	-1.704033	0.253158	-0.041177	-0.125038	0.991297	-0.367196	0.924603	0.101373	-0.929232	-0.359826	-0.083986
00055	9.827933	-0.753231	1.413858	0.395732	-1.693878	0.254298	-0.057906	-0.128775	0.989982	-0.370753	0.923499	0.098441	-0.926924	-0.361339	-0.101220
00056	9.900850	-1.289379	1.189447	0.701739	-1.681683	0.266427	-0.074512	-0.132396	0.988392	-0.377101	0.921289	0.094979	-0.923170	-0.365646	-0.118574
00057	10.191985	-1.035912	0.998912	1.055524	-1.624207	0.288495	-0.090630	-0.135711	0.986595	-0.386607	0.917771	0.090730	-0.917781	-0.373201	-0.135644
00058	10.292800	0.083728	0.696142	1.288222	-1.517304	0.296875	-0.105724	-0.138697	0.984675	-0.398127	0.913300	0.085897	-0.911218	-0.382944	-0.151777
00059	10.235520	1.462017	0.260457	1.283538	-1.430072	0.278817	-0.119895	-0.141663	0.982628	-0.409506	0.908701	0.081040	-0.904395	-0.392676	-0.166960
00060	10.143047	2.700064	-0.093284	1.132798	-1.366026	0.273220	-0.133392	-0.144575	0.980461	-0.419397	0.904588	0.076328	-0.897949	-0.401021	-0.181299
00061	9.810272	3.820331	-0.240625	0.856984	-1.297080	0.257034	-0.146150	-0.147457	0.978211	-0.426747	0.901490	0.072133	-0.892484	-0.406906	-0.194680
00062	9.597230	4.270841	-0.403578	0.455693	-1.208255	0.216964	-0.157896	-0.150402	0.975934	-0.430502	0.899945	0.069041	-0.888671	-0.409241	-0.206846
00063	9.535377	3.895035	-0.618705	0.047912	-1.096103	0.142099	-0.168296	-0.153574	0.973700	-0.430716	0.899960	0.067498	-0.886657	-0.408029	-0.217606
00064	9.517624	2.929163	-0.764887	-0.282394	-1.005850	0.029404	-0.177392	-0.157362	0.971478	-0.428188	0.901144	0.067782	-0.886108	-0.403951	-0.227236
00065	9.617013	1.769357	-0.922412	-0.441323	-1.004134	-0.037609	-0.186187	-0.161706	0.969116	-0.424353	0.902855	0.069122	-0.886148	-0.398378	-0.236720
00066	9.458981	0.907554	-0.989499	-0.405488	-0.996069	-0.061094	-0.194809	-0.166168	0.966663	-0.420901	0.904352	0.070634	-0.885941	-0.393109	-0.246116
00067	9.180220	0.275964	-1.161424	-0.246933	-1.033653	-0.056479	-0.203779	-0.170698	0.964021	-0.418834	0.905223	0.071752	-0.884902	-0.389144	-0.255959
00068	9.160295	-0.197163	-1.395444	0.024304	-1.113779	-0.015939	-0.213608	-0.175135	0.961093	-0.419106	0.905095	0.071782	-0.882452	-0.387466	-0.266736
00069	9.289439	-0.290556	-1.391637	0.318414	-1.133282	0.037098	-0.223796	-0.179168	0.958026	-0.421842	0.903924	0.070507	-0.878615	-0.388356	-0.277875
00070	9.355020	-0.162541	-1.296260	0.528880	-1.106556	0.090706	-0.233930	-0.182630	0.954947	-0.426290	0.902021	0.068081	-0.873815	-0.391158	-0.288863
00071	9.525863	0.122618	-1.376837	0.670609	-1.072104	0.147676	-0.243952	-0.185484	0.951884	-0.431801	0.899649	0.064642	-0.868352	-0.395255	-0.299564
00072	9.655934	0.594718	-1.616563	0.751009	-1.005364	0.156272	-0.253387	-0.188048	0.948912	-0.437933	0.896949	0.060809	-0.862560	-0.400151	-0.309627
00073	9.628099	1.110715	-1.847651	0.761562	-0.939457	0.124470	-0.262059	-0.190683	0.946026	-0.444186	0.894108	0.057175	-0.856752	-0.405228	-0.319008
00074	9.598571	1.599641	-1.849471	0.696439	-0.950217	0.093357	-0.270645	-0.193691	0.942993	-0.449903	0.891444	0.053978	-0.851081	-0.409647	-0.328407
00075	9.941168	1.979997	-1.446304	0.600513	-0.960127	0.072388	-0.279163	-0.196965	0.939826	-0.454825	0.889106	0.051236	-0.845696	-0.413153	-0.337790
00076	10.576937	1.907392	-1.236056	0.500343	-0.866825	0.046142	-0.286738	-0.200119	0.936874	-0.458931	0.887118	0.049031	-0.840930	-0.415902	-0.346211
00077	10.690434	1.641883	-1.315666	0.518602	-0.670005	0.039884	-0.292584	-0.202532	0.934545	-0.463189	0.885024	0.046787	-0.836570	-0.419182	-0.352755
00078	10.465115	1.416720	-1.211752	0.654268	-0.528721	0.027568	-0.297178	-0.204488	0.932668	-0.468583	0.882316	0.044143	-0.831935	-0.423914	-0.358024
00079	10.506099	1.256318	-0.835379	0.761374	-0.500160	0.023124	-0.301474	-0.206389	0.930869	-0.474854	0.879103	0.041124	-0.826817	-0.429629	-0.363031
00080	10.872146	1.132183	-0.215916	0.782535	-0.445523	0.013025	-0.305263	-0.208173	0.929235	-0.481281	0.875739	0.038083	-0.821695	-0.435598	-0.367520
00081	11.283878	0.978409	0.237827	0.754054	-0.392995	0.001401	-0.308522	-0.209854	0.927780	-0.487487	0.872420	0.035224	-0.816805	-0.441413	-0.371462
00082	11.823167	0.705378	0.501753	0.800097	-0.331190	-0.036532	-0.311095	-0.211616	0.926520	-0.494131	0.868779	0.032516	-0.811822	-0.447706	-0.374839
00083	12.391815	0.681805	0.952880	0.921114	-0.274940	-0.049864	-0.313095	-0.213256	0.925469	-0.501784	0.864491	0.029447	-0.806340	-0.455166	-0.377677
00084	13.181877	0.618781	1.455813	1.071122	-0.182495	-0.062098	-0.314302	-0.214603	0.924748	-0.510599	0.859429	0.025903	-0.800314	-0.464034	-0.379697
00085	13.592444	0.652853	2.035089	1.229856	0.039509	-0.086532	-0.313554	-0.215122	0.924882	-0.520739	0.853433	0.021962	-0.794049	-0.474735	-0.379620
00086	13.862272	0.234409	2.592845	1.427876	0.278043	-0.114936	-0.310806	-0.214736	0.925898	-0.532403	0.846309	0.017560	-0.787367	-0.487493	-0.377364
00087	14.287170	-0.583907	3.581671	1.643866	0.668226	-0.112109	-0.304963	-0.212329	0.928393	-0.545724	0.837874	0.012364	-0.780501	-0.502876	-0.371394
00088	14.168603	-1.562301	5.410591	1.562834	1.184319	-0.042664	-0.295571	-0.206613	0.932711	-0.558025	0.829794	0.006980	-0.775400	-0.518413	-0.360558
00089	13.527734	-2.800431	6.628500	1.108290	1.689449	0.070086	-0.282859	-0.197111	0.938689	-0.566539	0.824032	0.002318	-0.773967	-0.531148	-0.344756
00090	12.313450	-3.480612	6.493550	0.622888	1.943441	0.241576	-0.269231	-0.184693	0.945200	-0.570714	0.821146	-0.002110	-0.775758	-0.540007	-0.326484
00091	11.822309	-3.536808	5.438883	0.477790	2.106703	0.343351	-0.254789	-0.170337	0.951876	-0.573713	0.819026	-0.007002	-0.778419	-0.547888	-0.306403
00092	11.634095	-2.333580	3.916354	0.842236	2.316650	0.352111	-0.238833	-0.154622	0.958671	-0.579422	0.814925	-0.012914	-0.779249	-0.558560	-0.284223
00093	11.766331	0.233213	2.842020	1.330134	2.350142	0.241221	-0.221916	-0.139261	0.965070	-0.589445	0.807585	-0.019006	-0.776729	-0.573073	-0.261303
00094	12.317942	2.329462	0.515889	1.963379	2.544617	0.028106	-0.202457	-0.124188	0.971385	-0.604593	0.796166	-0.024223	-0.770375	-0.592197	-0.236273
00095	11.907888	4.009944	-4.676359	2.450912	2.664850	-0.295047	-0.180206	-0.110310	0.977424	-0.624152	0.780838	-0.026950	-0.760237	-0.614918	-0.209562
00096	12.266607	5.231043	-8.301487	2.478032	2.348781	-0.596430	-0.158764	-0.100204	0.982218	-0.643879	0.764683	-0.026064	-0.748474	-0.636568	-0.185923
00097	13.638551	5.029410	-8.167531	1.822717	2.168010	-0.867246	-0.136951	-0.092698	0.986231	-0.658916	0.751928	-0.020824	-0.739645	-0.652695	-0.164057
00098	14.468392	5.534465	-5.784988	0.950900	2.199120	-0.980976	-0.114280	-0.085570	0.989756	-0.667188	0.744782	-0.012645	-0.736071	-0.661798	-0.142205
00099	15.432020	6.343969	-3.093390	-0.352676	2.274731	-1.026486	-0.090619	-0.078087	0.992819	-0.665782	0.746143	-0.002083	-0.740623	-0.661191	-0.119604
00100	15.206501	5.418004	-1.542523	-1.365434	2.686156	-0.967154	-0.064241	-0.067678	0.995637	-0.656368	0.754388	0.008929	-0.751701	-0.652930	-0.092885
00101	12.788014	3.344242	-1.544807	-2.074051	2.889113	-0.835769	-0.036862	-0.055295	0.997789	-0.641169	0.767168	0.018827	-0.766514	-0.639058	-0.063733
00102	12.129061	0.791121	-2.366592	-2.576447	2.666852	-0.725802	-0.011671	-0.044107	0.998959	-0.621406	0.783012	0.027312	-0.783401	-0.620441	-0.036547
00103	13.390801	-0.740457	-3.081477	-2.392787	2.561504	-0.566663	0.012073	-0.032843	0.999388	-0.602602	0.797339	0.033483	-0.797950	-0.602637	-0.010165
00104	14.409319	-1.315557	-3.068110	-2.211742	2.456593	-0.478137	0.034610	-0.022071	0.999157	-0.584735	0.810327	0.038154	-0.810486	-0.585563	0.015140
00105	14.708733	-1.896587	-3.191126	-2.013068	2.581457	-0.521718	0.058689	-0.011337	0.998212	-0.568189	0.821788	0.042739	-0.820803	-0.569681	0.041789
00106	13.513250	-2.203522	-3.705084	-1.507976	2.698562	-0.572357	0.084086	-0.000833	0.996458	-0.555389	0.830230	0.047560	-0.827329	-0.557421	0.069348
00107	11.871779	-1.961690	-3.596258	-0.865536	2.604893	-0.608389	0.109028	0.008613	0.994001	-0.547750	0.834972	0.052845	-0.829508	-0.550225	0.095753
00108	10.429340	-2.188594	-3.284582	-0.381366	2.363717	-0.624419	0.131977	0.016381	0.991117	-0.543874	0.837119	0.058586	-0.828724	-0.546775	0.119390
00109	10.120878	-2.011064	-3.312352	0.090852	2.038510	-0.608223	0.152141	0.022528	0.988102	-0.543878	0.836669	0.064667	-0.825257	-0.547246	0.139544
00110	10.036376	-1.076217	-3.511984	0.446207	1.887417	-0.553362	0.170625	0.028289	0.984930	-0.546697	0.834337	0.070744	-0.819762	-0.550529	0.157824
00111	9.772384	-0.470624	-3.720360	0.580450	1.859927	-0.562458	0.188886	0.033967	0.981411	-0.550535	0.831236	0.077188	-0.813163	-0.554881	0.175709
00112	9.149354	0.377596	-3.428078	0.622052	1.847031	-0.576185	0.206966	0.039501	0.977550	-0.554473	0.827958	0.083936	-0.806055	-0.559398	0.193261
00113	8.603711	1.059702	-3.103391	0.520874	1.806773	-0.564512	0.224588	0.045044	0.973412	-0.557530	0.825215	0.090449	-0.799200	-0.563020	0.210447
00114	7.562367	0.995439	-2.822184	0.261405	1.791344	-0.545803	0.241842	0.050663	0.968992	-0.558383	0.823977	0.096281	-0.793550	-0.564353	0.227562
00115	6.958216	1.136907	-2.723237	-0.079497	1.701191	-0.513258	0.258149	0.056072	0.964477	-0.556545	0.824653	0.101020	-0.789694	-0.562853	0.244089
00116	6.332385	0.488872	-3.047571	-0.524468	1.662345	-0.472709	0.273825	0.061502	0.959811	-0.551196	0.827843	0.104205	-0.788165	-0.557578	0.260583
00117	5.807212	-0.005237	-3.299319	-0.808242	1.570437	-0.419516	0.288473	0.066749	0.955158	-0.543704	0.832553	0.106026	-0.788143	-0.549910	0.276461
00118	5.634293	-0.429946	-3.529563	-1.013946	1.380542	-0.387178	0.301395	0.071066	0.950847	-0.534611	0.838322	0.106803	-0.789527	-0.540523	0.290659
00119	5.541392	-0.475254	-3.459784	-1.198060	1.187221	-0.353952	0.312628	0.074460	0.946953	-0.524095	0.844964	0.106585	-0.792205	-0.529614	0.303184
00120	5.479565	-0.603959	-3.139784	-1.452021	1.011145	-0.312866	0.322225	0.077119	0.943517	-0.511616	0.852772	0.105023	-0.796505	-0.516559	0.314240
00121	5.565005	-0.631814	-2.558730	-1.721487	0.869851	-0.275098	0.330532	0.079197	0.940466	-0.496990	0.861728	0.102104	-0.802340	-0.501151	0.324189
00122	5.637755	-0.661458	-1.914184	-1.991870	0.794623	-0.244855	0.338078	0.081013	0.937625	-0.480169	0.871705	0.097816	-0.809408	-0.483288	0.333604
00123	5.751723	-0.842263	-1.331908	-2.264988	0.724518	-0.214582	0.344945	0.082563	0.934985	-0.461038	0.882582	0.092155	-0.817592	-0.462852	0.342507
00124	5.924511	-0.855759	-1.049757	-2.391530	0.584556	-0.161433	0.350425	0.083802	0.932834	-0.440869	0.893505	0.085347	-0.826339	-0.441165	0.350052
00125	6.402799	-0.744600	-0.784049	-2.456668	0.410388	-0.129103	0.354350	0.084410	0.931295	-0.420027	0.904165	0.077866	-0.835472	-0.418761	0.355846
00126	7.169986	-0.765339	-0.481418	-2.534074	0.234448	-0.066305	0.356540	0.084794	0.930424	-0.398550	0.914519	0.069381	-0.845007	-0.395557	0.359858
00127	7.626182	-0.583031	0.121252	-2.527288	0.153892	-0.019061	0.357879	0.085215	0.929871	-0.377033	0.924228	0.060411	-0.854265	-0.372212	0.362891
00128	8.293799	-0.100311	1.071904	-2.561739	0.146681	0.047156	0.358916	0.086216	0.929379	-0.355256	0.933398	0.050607	-0.863118	-0.348331	0.365641
00129	8.746902	-0.226498	1.794874	-2.610466	0.339126	0.156571	0.361274	0.088830	0.928219	-0.333209	0.942024	0.039537	-0.870892	-0.323575	0.369927
00130	8.752765	-0.914587	2.510135	-2.571889	0.585689	0.191126	0.365728	0.092499	0.926114	-0.311479	0.949836	0.028137	-0.877054	-0.298755	0.376194
00131	8.733155	-1.156261	3.622529	-2.153085	0.762102	0.240643	0.371655	0.096999	0.923290	-0.293468	0.955805	0.017715	-0.880766	-0.277540	0.383695
00132	8.316782	-1.102050	5.451091	-1.660482	0.673661	0.265274	0.376789	0.101395	0.920733	-0.279872	0.959997	0.008813	-0.883007	-0.261008	0.390093
00133	7.740246	-1.294242	6.568721	-1.216585	0.379450	0.222298	0.379488	0.104523	0.919273	-0.269997	0.962859	0.001979	-0.884924	-0.248952	0.393615
00134	7.812688	-1.515518	7.126744	-0.763269	0.009290	0.132847	0.379170	0.105868	0.919251	-0.263794	0.964576	-0.002279	-0.886929	-0.241628	0.393666
00135	7.868140	-1.548526	7.711071	-0.168863	-0.266798	0.033011	0.376674	0.105585	0.920309	-0.262476	0.964933	-0.003275	-0.888382	-0.240325	0.391178
00136	8.343242	-1.606428	8.433288	0.289398	-0.377462	-0.064186	0.373443	0.104094	0.921794	-0.264862	0.964285	-0.001589	-0.889038	-0.243555	0.387676
00137	9.149605	-1.454790	8.622899	0.464668	-0.332869	-0.150890	0.370847	0.101881	0.923089	-0.268508	0.963276	0.001556	-0.889031	-0.248433	0.384584
00138	10.072974	-0.880332	8.400027	0.516177	-0.227285	-0.210490	0.369350	0.099325	0.923967	-0.272371	0.962177	0.005447	-0.888479	-0.253674	0.382434
00139	10.892683	0.383380	8.108903	0.468968	-0.035871	-0.239865	0.369653	0.097002	0.924093	-0.275743	0.961185	0.009406	-0.887312	-0.258289	0.382053
00140	10.897498	0.865383	7.446392	0.341247	0.291776	-0.273133	0.372949	0.095177	0.922957	-0.277808	0.960546	0.013204	-0.885286	-0.261330	0.384675
00141	9.612898	0.719613	6.780943	0.301976	0.563135	-0.339403	0.378839	0.093475	0.920730	-0.279299	0.960046	0.017452	-0.882311	-0.263770	0.389810
00142	8.180290	0.411048	6.131488	0.391714	0.618532	-0.402655	0.385368	0.091292	0.918236	-0.281265	0.959363	0.022661	-0.878852	-0.267000	0.395385
00143	7.203035	0.306869	5.263900	0.520391	0.524348	-0.452779	0.391218	0.088445	0.916038	-0.284172	0.958340	0.028834	-0.875326	-0.271593	0.400053
00144	6.693586	0.539287	4.219596	0.567190	0.367075	-0.488601	0.395775	0.084811	0.914423	-0.287261	0.957192	0.035552	-0.872263	-0.276749	0.403196
00145	6.628453	0.759999	3.253700	0.545837	0.205985	-0.497025	0.398977	0.080716	0.913402	-0.290143	0.956050	0.042251	-0.869847	-0.281874	0.404861
00146	7.347320	0.721665	2.386581	0.469670	0.014170	-0.486786	0.400471	0.076144	0.913140	-0.292335	0.955082	0.048567	-0.868425	-0.286393	0.404743
00147	8.726049	0.319024	1.524134	0.549891	-0.143446	-0.477183	0.400602	0.071254	0.913478	-0.295295	0.953816	0.055100	-0.867363	-0.291818	0.403141
00148	11.053627	-0.017491	1.678360	0.772339	-0.263169	-0.592874	0.400038	0.064866	0.914200	-0.299672	0.951921	0.063589	-0.866122	-0.299398	0.400243
00149	13.186322	-1.003656	2.684272	1.053368	-0.295810	-0.715081	0.399614	0.057243	0.914894	-0.306019	0.949123	0.074281	-0.864095	-0.309659	0.396801
00150	14.493521	-1.591575	4.663923	1.428469	-0.062358	-0.665834	0.401100	0.050777	0.914626	-0.315723	0.944946	0.085996	-0.859906	-0.323261	0.395049
00151	13.717405	-0.160454	6.289825	1.620655	0.112652	-0.518117	0.403698	0.046351	0.913718	-0.327631	0.939805	0.097079	-0.854217	-0.338552	0.394583
00152	13.403642	2.711466	8.113968	1.217382	-0.181814	-0.352564	0.403271	0.042455	0.914095	-0.336643	0.935754	0.105055	-0.850908	-0.350089	0.391654
00153	13.428704	3.924060	8.486175	0.504321	-0.321186	-0.087914	0.400803	0.040587	0.915265	-0.340685	0.933980	0.107772	-0.850465	-0.355012	0.388170
00154	9.897124	1.514856	7.081814	-0.230589	-0.157873	0.186277	0.398778	0.041805	0.916094	-0.339522	0.934703	0.105141	-0.851881	-0.352962	0.386932
00155	6.650176	-2.371223	2.796482	-0.919548	-0.444534	0.217314	0.394220	0.042374	0.918039	-0.332632	0.937787	0.099552	-0.856707	-0.344615	0.383790
00156	7.026468	-4.469917	-1.949076	-1.104061	-0.890102	0.004907	0.386499	0.039433	0.921446	-0.323209	0.941519	0.095277	-0.863802	-0.334644	0.376641
00157	8.182494	-3.995967	-3.709147	-0.759348	-0.959353	-0.146835	0.378618	0.034976	0.924892	-0.316189	0.944054	0.093736	-0.869869	-0.327931	0.368495
00158	8.447007	-3.550030	-6.531541	0.799316	-0.920539	-0.242394	0.371333	0.029673	0.928026	-0.322292	0.941465	0.098857	-0.870770	-0.335804	0.359160
00159	8.798773	-2.892223	-6.291621	2.324766	-1.023918	-0.346201	0.363540	0.022986	0.931295	-0.341348	0.933454	0.110209	-0.866788	-0.357961	0.347194
00160	8.124913	-0.743878	-4.589687	2.710853	-1.218285	-0.409208	0.354403	0.014705	0.934977	-0.363361	0.923465	0.123208	-0.861607	-0.383400	0.332622
00161	7.488591	1.412490	-2.736749	2.464087	-1.625083	-0.360608	0.341718	0.005077	0.939789	-0.383415	0.913733	0.134478	-0.858034	-0.406283	0.314186
00162	8.165119	3.398485	-2.469132	2.248465	-2.036931	-0.180597	0.324918	-0.005018	0.945729	-0.402137	0.904350	0.142958	-0.855987	-0.426762	0.291822
00163	10.197745	5.052172	-3.381771	2.049488	-2.344525	-0.017354	0.304867	-0.015321	0.952272	-0.419710	0.895382	0.148775	-0.854926	-0.445035	0.266543
00164	11.072403	7.069066	-3.395079	1.716534	-2.327748	-0.005551	0.284942	-0.025873	0.958196	-0.434416	0.887597	0.153150	-0.854453	-0.459895	0.241674
00165	11.121414	8.008872	-2.202698	0.911633	-2.148645	-0.016907	0.266564	-0.035957	0.963146	-0.442215	0.883350	0.155367	-0.856382	-0.467333	0.219568
00166	10.687401	7.169636	-0.863135	0.077789	-1.755732	0.035229	0.251281	-0.043822	0.966922	-0.443022	0.882983	0.155150	-0.860575	-0.467354	0.202463
00167	10.201734	5.081800	-0.168748	-0.573901	-1.434992	0.063952	0.238530	-0.049938	0.969850	-0.438222	0.885683	0.153383	-0.866640	-0.461596	0.189378
00168	9.926445	3.351365	-0.203872	-0.909009	-1.330637	0.056118	0.226654	-0.055494	0.972393	-0.430490	0.889853	0.151126	-0.873674	-0.452859	0.177799
00169	9.860124	2.449092	-0.168905	-1.042827	-1.285787	0.075694	0.214971	-0.060609	0.974738	-0.421485	0.894580	0.148580	-0.880987	-0.442778	0.166763
00170	9.829024	1.693972	-0.024654	-1.064264	-1.231038	0.148064	0.203412	-0.064637	0.976957	-0.412428	0.899316	0.145372	-0.887990	-0.432495	0.156274
00171	9.738190	0.813677	0.039834	-1.031839	-1.201175	0.194554	0.191830	-0.068054	0.979066	-0.403583	0.903872	0.141902	-0.894607	-0.422356	0.145924
00172	9.920723	0.767290	0.089544	-0.925120	-1.187667	0.238065	0.180165	-0.070827	0.981083	-0.395768	0.907889	0.138222	-0.900504	-0.413184	0.135539
00173	9.795056	0.626010	-0.051068	-0.894856	-1.157143	0.247142	0.168660	-0.073341	0.982942	-0.388082	0.911740	0.134618	-0.906061	-0.404167	0.125312
00174	9.790695	0.162451	-0.297101	-0.799551	-1.190322	0.238022	0.156877	-0.075896	0.984698	-0.381250	0.915104	0.131271	-0.911064	-0.396010	0.114623
00175	9.949173	0.581137	-0.621204	-0.664111	-1.237893	0.215143	0.144671	-0.078811	0.986336	-0.375476	0.917893	0.128415	-0.915472	-0.388923	0.103201
00176	9.778186	0.375982	-0.786285	-0.528733	-1.306822	0.215149	0.131827	-0.081844	0.987888	-0.370967	0.920095	0.125730	-0.919242	-0.383049	0.090932
00177	9.474968	0.570979	-0.589981	-0.451336	-1.408512	0.204194	0.118012	-0.085345	0.989338	-0.367031	0.921998	0.123317	-0.922693	-0.377670	0.077482
00178	9.425236	0.582537	-0.951485	-0.471808	-1.500057	0.175148	0.103454	-0.089318	0.990616	-0.362907	0.923909	0.121203	-0.926065	-0.372040	0.063168
00179	9.439450	0.233520	-0.792703	-0.364052	-1.585409	0.126101	0.088200	-0.094033	0.991654	-0.359615	0.925387	0.119734	-0.928923	-0.367174	0.047804
00180	9.504742	0.203628	-0.310963	-0.215969	-1.631607	0.119214	0.072547	-0.098856	0.992454	-0.357744	0.926281	0.118416	-0.930997	-0.363635	0.031834
00181	9.665869	0.156832	-0.134654	-0.184776	-1.651854	0.113161	0.056655	-0.103802	0.992983	-0.356061	0.927081	0.117228	-0.932744	-0.360204	0.015564
00182	9.420390	0.060045	-0.094581	-0.117909	-1.639742	0.126798	0.040847	-0.108474	0.993260	-0.355062	0.927629	0.115909	-0.933950	-0.357403	-0.000624
00183	9.350529	0.110785	-0.020115	-0.014786	-1.677039	0.189709	0.024410	-0.112700	0.993329	-0.354956	0.927906	0.114000	-0.934564	-0.355371	-0.017354
00184	9.287851	-0.154717	-0.154406	0.073226	-1.673556	0.217771	0.007943	-0.116581	0.993149	-0.355714	0.927888	0.111765	-0.934561	-0.354165	-0.034099
00185	9.439115	-0.373258	-0.112014	0.242429	-1.681356	0.251016	-0.008755	-0.120210	0.992710	-0.357954	0.927339	0.109137	-0.933698	-0.354389	-0.051149
00186	9.470449	-0.551701	0.010876	0.425514	-1.715829	0.304295	-0.025908	-0.123452	0.992012	-0.361907	0.926190	0.105809	-0.931854	-0.356275	-0.068674
00187	9.457843	-0.702614	0.081141	0.652621	-1.757471	0.357926	-0.043660	-0.126427	0.991015	-0.367839	0.924310	0.101712	-0.928864	-0.360093	-0.086861
00188	9.419809	-0.559053	0.374904	0.908331	-1.838637	0.389663	-0.062201	-0.129473	0.989630	-0.376085	0.921502	0.096922	-0.924495	-0.366156	-0.106012
00189	9.516581	-0.129141	0.614420	1.162142	-1.913254	0.433233	-0.081580	-0.132556	0.987813	-0.386479	0.917774	0.091240	-0.918683	-0.374326	-0.126102
00190	9.677679	0.603650	0.884612	1.361456	-1.907086	0.459306	-0.100889	-0.135551	0.985620	-0.398552	0.913217	0.084797	-0.911580	-0.384266	-0.146158
00191	9.967807	1.655874	1.033478	1.371604	-1.777291	0.448044	-0.118927	-0.138367	0.983215	-0.410514	0.908495	0.078197	-0.904065	-0.394324	-0.164847
00192	10.367924	2.483744	0.764205	1.188470	-1.564366	0.424017	-0.134833	-0.140727	0.980824	-0.420710	0.904340	0.071919	-0.897120	-0.402945	-0.181140
00193	10.478446	3.274964	0.246539	0.934606	-1.342941	0.411747	-0.148676	-0.142444	0.978573	-0.428484	0.901130	0.066071	-0.891233	-0.409480	-0.195011
00194	10.432071	3.984321	-0.472978	0.621126	-1.132096	0.377189	-0.160420	-0.143675	0.976536	-0.433451	0.899105	0.061078	-0.886784	-0.413482	-0.206511
00195	10.304076	4.347151	-0.952891	0.268347	-0.970946	0.267373	-0.170262	-0.145275	0.974631	-0.435373	0.898389	0.057853	-0.884003	-0.414478	-0.216211
00196	10.198552	4.163260	-1.094541	-0.135074	-0.899392	0.123717	-0.178800	-0.147848	0.972713	-0.433990	0.899120	0.056888	-0.882996	-0.411977	-0.224928
00197	10.171111	3.171521	-1.163584	-0.414587	-0.846505	0.014269	-0.186420	-0.151176	0.970770	-0.430274	0.900855	0.057661	-0.883239	-0.406948	-0.232984
00198	9.877619	2.072227	-0.868826	-0.516783	-0.786222	-0.070844	-0.193118	-0.154959	0.968862	-0.425868	0.902826	0.059512	-0.883936	-0.401114	-0.240344
00199	9.458489	1.044933	-0.526366	-0.517327	-0.810274	-0.125467	-0.199831	-0.159311	0.966792	-0.421504	0.904708	0.061958	-0.884535	-0.395126	-0.247939
00200	9.240281	0.204572	-0.330434	-0.418870	-0.886935	-0.141041	-0.207137	-0.164037	0.964462	-0.418111	0.906116	0.064316	-0.884465	-0.389929	-0.256276
00201	9.202832	-0.395532	-0.236485	-0.208479	-0.942000	-0.119858	-0.215040	-0.168768	0.961912	-0.416490	0.906743	0.065980	-0.883342	-0.386439	-0.265276
00202	9.199484	-0.714855	-0.044569	0.043113	-0.964564	-0.083993	-0.223253	-0.173218	0.959246	-0.417078	0.906426	0.066610	-0.881024	-0.385210	-0.274608
00203	9.365207	-0.606321	0.010876	0.244293	-0.949761	-0.048350	-0.231474	-0.177299	0.956548	-0.419319	0.905411	0.066350	-0.877833	-0.385740	-0.283924
00204	9.492423	-0.246604	0.001199	0.399269	-0.886716	-0.017381	-0.239222	-0.180853	0.953973	-0.422880	0.903830	0.065304	-0.874040	-0.387794	-0.292695
00205	9.521089	0.277855	-0.286812	0.525178	-0.826757	-0.002729	-0.246485	-0.184074	0.951505	-0.427461	0.901785	0.063722	-0.869783	-0.391025	-0.300960
00206	9.719655	0.858874	-0.785473	0.659174	-0.765374	0.016375	-0.253247	-0.186904	0.949175	-0.433160	0.899217	0.061496	-0.865008	-0.395571	-0.308684
00207	9.979138	1.332909	-1.472613	0.754318	-0.673567	0.020846	-0.259209	-0.189374	0.947073	-0.439615	0.896254	0.058892	-0.859970	-0.401082	-0.315569
00208	10.220559	1.548526	-2.009717	0.815782	-0.600604	0.027224	-0.264533	-0.191527	0.945167	-0.446559	0.893002	0.055973	-0.854756	-0.407265	-0.321756
00209	10.686999	1.426304	-2.465440	0.840274	-0.539303	0.020971	-0.269282	-0.193528	0.943416	-0.453665	0.889595	0.052997	-0.849515	-0.413724	-0.327349
00210	11.237445	1.012478	-2.839363	0.875310	-0.434145	0.031501	-0.273157	-0.195029	0.941992	-0.461012	0.885998	0.049753	-0.844306	-0.420680	-0.331928
00211	10.864760	0.806728	-2.467534	0.938627	-0.339745	0.028861	-0.276208	-0.196192	0.940860	-0.468835	0.882072	0.046297	-0.838989	-0.428320	-0.335617
00212	10.536814	0.909484	-1.515551	0.886250	-0.420544	0.007446	-0.279815	-0.197913	0.939433	-0.476245	0.878252	0.043172	-0.833603	-0.435320	-0.340003
00213	10.816529	0.870129	-0.560692	0.837628	-0.524921	-0.004197	-0.284211	-0.200227	0.937621	-0.483221	0.874571	0.040289	-0.828083	-0.441628	-0.345317
00214	11.101537	0.786346	0.303861	0.829996	-0.547238	-0.044065	-0.288568	-0.203016	0.935689	-0.490215	0.870784	0.037751	-0.822446	-0.447795	-0.350802
00215	11.403657	0.710856	1.087790	0.974438	-0.500035	-0.074503	-0.292344	-0.205895	0.933886	-0.498430	0.866225	0.034949	-0.816151	-0.455259	-0.355860
00216	11.983093	0.741530	1.771895	1.216910	-0.366394	-0.100731	-0.294869	-0.208422	0.932530	-0.508630	0.860410	0.031473	-0.808917	-0.465033	-0.359718
00217	12.429881	0.863645	2.584306	1.503665	-0.110842	-0.122509	-0.295167	-0.209965	0.932090	-0.521125	0.853049	0.027134	-0.800815	-0.477726	-0.361210
00218	13.001566	0.738174	3.664670	1.716187	0.218600	-0.127585	-0.292808	-0.209961	0.932834	-0.535188	0.844444	0.022076	-0.792362	-0.492778	-0.359629
00219	13.730492	0.171662	4.496939	1.630335	0.589017	-0.073192	-0.287787	-0.207596	0.934924	-0.548314	0.836102	0.016871	-0.785194	-0.507776	-0.354447
00220	14.035866	-0.634346	4.954947	1.361699	1.019635	0.023665	-0.279993	-0.202128	0.938482	-0.558923	0.829135	0.011824	-0.780518	-0.521229	-0.345126
00221	13.317725	-1.321727	5.310671	1.027051	1.425068	0.132459	-0.269632	-0.193480	0.943326	-0.566654	0.823926	0.007023	-0.778589	-0.532646	-0.331793
00222	12.688677	-1.904234	5.335323	0.712658	1.685228	0.218631	-0.257810	-0.182606	0.948783	-0.571645	0.820497	0.002584	-0.778945	-0.541701	-0.315918
00223	12.447223	-2.333478	5.375804	0.531398	1.999425	0.275875	-0.243785	-0.169374	0.954925	-0.575227	0.817992	-0.001765	-0.780822	-0.549729	-0.296843
00224	12.195405	-2.112145	5.111560	0.500502	2.315053	0.301651	-0.227477	-0.154069	0.961518	-0.578450	0.815695	-0.006147	-0.783358	-0.557588	-0.274673
00225	12.234765	-0.490455	4.471146	0.637102	2.437517	0.289942	-0.210022	-0.137925	0.967919	-0.582983	0.812414	-0.010731	-0.784870	-0.566534	-0.251033
00226	12.732496	1.452794	2.222036	1.108173	2.478606	0.144954	-0.191496	-0.122536	0.973814	-0.591403	0.806240	-0.014846	-0.783309	-0.578759	-0.226860
00227	12.182373	3.267606	-2.231594	1.811086	2.569389	-0.099777	-0.170822	-0.108139	0.979350	-0.605904	0.795337	-0.017864	-0.776982	-0.596443	-0.201383
00228	11.883816	5.230049	-6.623092	2.171933	2.310465	-0.345809	-0.150915	-0.096839	0.983792	-0.623255	0.781796	-0.018652	-0.767319	-0.615968	-0.178340
00229	13.192540	6.098496	-8.084765	1.843483	2.108588	-0.653197	-0.130683	-0.088655	0.987452	-0.638400	0.769551	-0.015396	-0.758530	-0.632401	-0.157165
00230	14.416771	6.109578	-6.820539	1.118143	2.137171	-0.872951	-0.108966	-0.081695	0.990683	-0.647926	0.761656	-0.008458	-0.753869	-0.642811	-0.135927
00231	14.664325	6.565855	-3.968898	-0.064285	2.230585	-0.978788	-0.085761	-0.074728	0.993509	-0.648507	0.761208	0.001275	-0.756362	-0.644188	-0.113744
00232	14.549211	5.542464	-1.605637	-1.318443	2.462726	-0.922284	-0.061128	-0.066005	0.995945	-0.639171	0.768975	0.011732	-0.766632	-0.635862	-0.089195
00233	12.951569	3.573109	-1.162437	-2.171971	2.707963	-0.800889	-0.035093	-0.055150	0.997861	-0.622830	0.782067	0.021320	-0.781570	-0.620750	-0.061794
00234	11.741176	1.704324	-1.629434	-2.786593	2.654398	-0.691201	-0.009940	-0.044390	0.998965	-0.600989	0.798712	0.029511	-0.799196	-0.600073	-0.034617
00235	12.048236	-0.242665	-2.330910	-3.047266	2.484599	-0.568249	0.013504	-0.034313	0.999320	-0.576431	0.816360	0.035820	-0.817034	-0.576523	-0.008755
00236	13.778902	-2.145103	-3.123675	-2.749871	2.353344	-0.502302	0.035689	-0.025119	0.999047	-0.553667	0.831743	0.040691	-0.831973	-0.554592	0.015777
00237	15.091182	-3.508735	-3.497605	-2.267136	2.361403	-0.493166	0.058165	-0.016319	0.998174	-0.534529	0.843954	0.044945	-0.843147	-0.536167	0.040366
00238	15.036003	-3.964285	-3.466680	-1.702751	2.515222	-0.500293	0.082044	-0.007229	0.996603	-0.519797	0.852885	0.048978	-0.850341	-0.522049	0.066216
00239	13.393691	-3.990253	-3.429386	-1.074468	2.656788	-0.539855	0.107459	0.001966	0.994208	-0.510225	0.858378	0.053451	-0.853301	-0.513014	0.093244
00240	11.449731	-3.470191	-3.038013	-0.411434	2.592405	-0.525972	0.132184	0.010724	0.991167	-0.506127	0.860494	0.058188	-0.852269	-0.509348	0.119172
00241	10.050938	-3.284220	-2.792865	0.128874	2.327674	-0.509806	0.154549	0.018279	0.987816	-0.506594	0.859854	0.063348	-0.848220	-0.510212	0.142150
00242	9.587485	-2.296185	-3.035484	0.723416	2.104057	-0.449465	0.174554	0.025246	0.984324	-0.512008	0.856218	0.068836	-0.841058	-0.515997	0.162382
00243	9.009936	-1.182317	-3.146527	1.074665	1.923286	-0.389752	0.192636	0.032006	0.980748	-0.520386	0.850679	0.074452	-0.831919	-0.524710	0.180527
00244	9.007642	-0.553103	-3.432575	1.210387	1.779827	-0.379285	0.209289	0.038242	0.977106	-0.529678	0.844379	0.080406	-0.821973	-0.534380	0.196975
00245	8.714488	0.390857	-3.189468	1.270194	1.709589	-0.359495	0.225146	0.044511	0.973308	-0.539366	0.837621	0.086460	-0.811415	-0.544435	0.212595
00246	8.040371	1.231314	-2.820552	1.134300	1.707058	-0.342487	0.240715	0.051045	0.969253	-0.547759	0.831535	0.092245	-0.801259	-0.553122	0.228124
00247	7.448441	1.735666	-2.673747	0.769210	1.641840	-0.338005	0.255629	0.057423	0.965068	-0.553129	0.827396	0.097283	-0.792907	-0.558676	0.243269
00248	6.741298	1.560309	-2.762585	0.199606	1.647577	-0.352081	0.270540	0.063745	0.960596	-0.553826	0.826467	0.101134	-0.787455	-0.559364	0.258896
00249	5.975110	0.925584	-2.977674	-0.335393	1.620801	-0.362056	0.285243	0.069819	0.955909	-0.550242	0.828544	0.103676	-0.784774	-0.555554	0.274754
00250	5.646065	-0.012438	-3.267541	-0.682673	1.447614	-0.364037	0.298535	0.074813	0.951462	-0.543870	0.832551	0.105184	-0.784272	-0.548873	0.289234
00251	5.640755	-0.158462	-3.489689	-0.817535	1.232151	-0.351662	0.310060	0.078612	0.947461	-0.536430	0.837251	0.106081	-0.784924	-0.541138	0.301768
00252	5.713918	-0.184663	-3.460959	-1.061684	1.016965	-0.327182	0.319740	0.081341	0.944008	-0.527101	0.843181	0.105878	-0.787357	-0.531441	0.312473
00253	5.941478	-0.426323	-3.160033	-1.400511	0.788317	-0.293540	0.327448	0.083001	0.941216	-0.515122	0.850761	0.104186	-0.792103	-0.518957	0.321336
00254	6.360802	-0.489608	-2.774979	-1.740249	0.649280	-0.233575	0.333744	0.084349	0.938882	-0.500556	0.859829	0.100686	-0.798785	-0.503567	0.329185
00255	6.592213	-0.380193	-2.270629	-2.050422	0.586354	-0.185237	0.339312	0.085643	0.936767	-0.483492	0.870115	0.095579	-0.806910	-0.485350	0.336648
00256	6.802398	-0.235212	-1.658735	-2.380308	0.512544	-0.153140	0.344144	0.086764	0.934899	-0.463698	0.881524	0.088881	-0.816424	-0.464099	0.343603
00257	7.030000	-0.295454	-1.107091	-2.707915	0.399038	-0.124533	0.347932	0.087452	0.933432	-0.441023	0.893865	0.080644	-0.827310	-0.439724	0.349573
00258	7.553232	-0.663533	-0.806126	-2.924634	0.250513	-0.069290	0.350264	0.087928	0.932515	-0.416465	0.906378	0.070966	-0.838971	-0.413217	0.354091
00259	7.776987	-0.622833	-0.280518	-2.953336	0.214069	0.009455	0.351976	0.088859	0.931782	-0.391562	0.918171	0.060350	-0.850172	-0.386091	0.357968
00260	8.473968	-0.302442	0.447230	-2.943349	0.246098	0.128980	0.353541	0.091001	0.930982	-0.366893	0.928997	0.048521	-0.860464	-0.358725	0.361827
00261	8.995633	-0.348761	1.156256	-2.852686	0.530574	0.270839	0.357107	0.095352	0.929184	-0.343194	0.938590	0.035580	-0.868730	-0.331597	0.367901
00262	9.025413	-0.265440	2.247784	-2.522202	0.837602	0.400308	0.363025	0.101837	0.926198	-0.322710	0.946232	0.022447	-0.874112	-0.307042	0.376370
00263	9.096298	-0.131261	4.409441	-2.012822	0.783990	0.463177	0.368373	0.108554	0.923319	-0.306778	0.951723	0.010501	-0.877604	-0.287122	0.383891
00264	8.931399	-1.338829	5.801177	-1.443869	0.568929	0.413349	0.372080	0.114128	0.921158	-0.295675	0.955288	0.001075	-0.879848	-0.272763	0.389188
00265	8.136605	-1.921550	6.600104	-0.861826	0.330418	0.307319	0.374032	0.117955	0.919884	-0.289246	0.957241	-0.005135	-0.881157	-0.264152	0.392157
00266	7.841174	-2.111364	6.845627	-0.596090	-0.099946	0.201551	0.372525	0.119665	0.920275	-0.284795	0.958543	-0.009356	-0.883242	-0.258604	0.391161
00267	7.811101	-2.159123	6.666285	-0.368244	-0.380809	0.099100	0.368819	0.119657	0.921767	-0.281938	0.959361	-0.011728	-0.885711	-0.255556	0.387566
00268	8.039657	-2.187946	6.873704	-0.105790	-0.513835	-0.001517	0.364220	0.118371	0.923760	-0.281049	0.959616	-0.012153	-0.887894	-0.255195	0.382780
00269	8.757340	-1.909295	7.323790	0.213039	-0.563644	-0.080062	0.359381	0.116197	0.925929	-0.282705	0.959148	-0.010639	-0.889339	-0.257941	0.377549
00270	9.815442	-1.357655	7.294605	0.474128	-0.459586	-0.105853	0.355548	0.114025	0.927677	-0.286599	0.958018	-0.007911	-0.889633	-0.263058	0.373301
00271	10.366426	-0.751462	6.921135	0.585919	-0.179754	-0.106964	0.354204	0.112578	0.928367	-0.291497	0.956560	-0.004781	-0.888577	-0.268923	0.371634
00272	10.168898	-0.007621	6.300625	0.551022	0.184863	-0.129988	0.356180	0.111878	0.927696	-0.295980	0.955193	-0.001555	-0.886302	-0.274026	0.373334
00273	8.917324	0.312321	5.480224	0.529228	0.438522	-0.204093	0.360615	0.111202	0.926062	-0.300007	0.953934	0.002276	-0.883149	-0.278646	0.377365
00274	7.678698	0.548910	4.793532	0.597140	0.454796	-0.313629	0.365524	0.109531	0.924335	-0.304187	0.952584	0.007411	-0.879694	-0.283879	0.381511
00275	7.228710	0.531303	4.401912	0.680136	0.349816	-0.396834	0.369762	0.106820	0.922966	-0.308777	0.951037	0.013635	-0.876318	-0.290032	0.384641
00276	7.546073	0.291708	3.890882	0.777277	0.235399	-0.429400	0.373111	0.103470	0.921999	-0.314036	0.949188	0.020561	-0.873023	-0.297212	0.386646
00277	8.205693	-0.167609	3.288367	0.910873	0.133671	-0.434160	0.375605	0.099818	0.921389	-0.320425	0.946859	0.028044	-0.869626	-0.305770	0.387629
00278	8.897158	-0.576025	2.777376	1.174150	0.119296	-0.451195	0.378057	0.095963	0.920795	-0.328966	0.943628	0.036723	-0.865364	-0.316794	0.388313
00279	10.011666	-1.088406	2.657296	1.518637	0.049660	-0.448482	0.379936	0.091964	0.920430	-0.340448	0.939103	0.046700	-0.860084	-0.331102	0.388108
00280	10.006330	-1.020538	2.976038	1.789312	-0.200038	-0.398147	0.379556	0.087594	0.921013	-0.354332	0.933365	0.057254	-0.854627	-0.348075	0.385301
00281	10.152156	-1.202601	3.021504	1.741703	-0.742594	-0.368140	0.374497	0.081588	0.923632	-0.367883	0.927438	0.067239	-0.851125	-0.364970	0.377338
00282	11.784576	-1.442064	2.805829	1.726466	-1.269101	-0.404644	0.365172	0.073142	0.928062	-0.381120	0.921284	0.077355	-0.849351	-0.381951	0.364303
00283	13.613611	-0.306305	4.070729	1.696336	-1.160225	-0.548128	0.357396	0.063655	0.931781	-0.393619	0.915007	0.088469	-0.846955	-0.398385	0.352075
00284	13.250661	2.374073	6.598310	1.252958	-0.544913	-0.658423	0.355357	0.055475	0.933083	-0.401919	0.910314	0.098946	-0.843909	-0.410185	0.345783
00285	11.848039	5.324036	7.619127	0.514650	-0.153385	-0.606625	0.356450	0.049399	0.933007	-0.404191	0.908474	0.106319	-0.842361	-0.415011	0.343792
00286	10.152167	5.512106	6.574476	-0.211079	-0.133144	-0.233551	0.356218	0.046757	0.933232	-0.401632	0.909441	0.107740	-0.843683	-0.413195	0.342738
00287	8.559268	1.730660	5.068584	-0.518636	-0.394074	0.125582	0.352334	0.046338	0.934727	-0.397770	0.911486	0.104749	-0.847136	-0.408712	0.339579
00288	7.267898	-1.486774	2.258758	-0.434313	-0.652092	0.195909	0.345969	0.045505	0.937142	-0.394819	0.913144	0.101417	-0.851131	-0.405088	0.333886
00289	7.175989	-3.096103	-0.929481	-0.539098	-0.814799	0.044984	0.338787	0.042698	0.939894	-0.390454	0.915266	0.099162	-0.856019	-0.400580	0.326752
00290	8.243387	-4.084040	-2.775915	-0.581790	-0.828963	-0.130312	0.332125	0.038237	0.942460	-0.385075	0.917617	0.098472	-0.861052	-0.395623	0.319487
00291	8.511610	-3.703675	-4.161669	0.191525	-0.822997	-0.160320	0.325589	0.033577	0.944915	-0.386294	0.916882	0.100524	-0.863000	-0.397744	0.311498
00292	8.695054	-2.581303	-4.109828	1.339283	-1.155816	-0.129556	0.316080	0.027756	0.948327	-0.397478	0.911492	0.105803	-0.861455	-0.410381	0.299136
00293	9.200789	-0.490325	-3.389500	2.020427	-1.453480	-0.135469	0.304063	0.020503	0.952431	-0.414523	0.903009	0.112897	-0.857739	-0.429132	0.283070
00294	8.984666	1.449180	-2.885507	1.955037	-1.478135	-0.171794	0.292086	0.012514	0.956310	-0.430794	0.894454	0.119872	-0.853875	-0.446985	0.266648
00295	8.772180	2.719568	-2.601298	1.626343	-1.529069	-0.141968	0.279589	0.004364	0.960110	-0.444334	0.887047	0.125361	-0.851115	-0.461659	0.249948
00296	8.619431	3.915492	-2.120123	1.369617	-1.750416	-0.078165	0.265001	-0.004485	0.964238	-0.455818	0.880621	0.129368	-0.849708	-0.473800	0.231321
00297	9.391808	4.879581	-2.148631	1.131364	-2.009454	-0.092065	0.248263	-0.014877	0.968578	-0.465250	0.875177	0.132694	-0.849652	-0.483574	0.210352
00298	10.733177	4.763013	-1.944109	0.735809	-1.961146	-0.118189	0.232086	-0.025425	0.972363	-0.471270	0.871554	0.135272	-0.850906	-0.489640	0.190293
00299	10.740305	4.032852	-1.326743	0.411014	-1.699839	-0.075365	0.217869	-0.034424	0.975371	-0.474625	0.869507	0.136705	-0.852798	-0.492719	0.173100
00300	10.556938	3.535172	-0.675600	0.119933	-1.613439	-0.004669	0.204053	-0.042390	0.978042	-0.475686	0.868896	0.136904	-0.855620	-0.493176	0.157137
00301	10.665317	3.112520	-0.428656	-0.058926	-1.560974	0.070603	0.190238	-0.049476	0.980491	-0.475322	0.869224	0.136085	-0.858999	-0.491937	0.141842
00302	10.543244	3.060365	-0.449818	-0.169665	-1.489777	0.143617	0.176677	-0.055512	0.982702	-0.474169	0.870115	0.134401	-0.862525	-0.489713	0.127407
00303	9.912180	3.287812	-0.505882	-0.294789	-1.406944	0.189813	0.163516	-0.060746	0.984669	-0.471931	0.871676	0.132145	-0.866339	-0.486304	0.113865
00304	9.397869	3.507769	-0.395244	-0.505905	-1.378388	0.208719	0.150506	-0.065563	0.986433	-0.467908	0.874238	0.129498	-0.870867	-0.481050	0.100901
00305	9.359472	3.270023	-0.562962	-0.719819	-1.386638	0.220183	0.137266	-0.070285	0.988037	-0.461908	0.877843	0.126619	-0.876241	-0.473763	0.088033
00306	9.446908	3.005020	-0.620433	-0.819563	-1.381762	0.221643	0.124049	-0.074796	0.989453	-0.455036	0.881838	0.123709	-0.881790	-0.465583	0.075356
00307	9.626921	2.442373	-0.761424	-0.844006	-1.392820	0.217585	0.110641	-0.079337	0.990689	-0.447781	0.885924	0.120956	-0.887271	-0.456994	0.062494
00308	9.910737	2.162463	-0.803526	-0.841894	-1.394082	0.202464	0.097281	-0.083820	0.991721	-0.440541	0.889887	0.118427	-0.892446	-0.448415	0.049643
00309	10.044554	1.512606	-0.608973	-0.894643	-1.384773	0.182997	0.083980	-0.088376	0.992541	-0.432644	0.894043	0.116212	-0.897645	-0.439177	0.036846
00310	9.929946	0.847294	-0.561533	-1.025019	-1.355894	0.170917	0.070985	-0.092697	0.993161	-0.423588	0.898634	0.114150	-0.903069	-0.428794	0.024524
00311	9.617171	0.009962	-0.545853	-0.993842	-1.379164	0.145068	0.057777	-0.097272	0.993579	-0.414622	0.903011	0.112516	-0.908158	-0.418461	0.011842
00312	9.698573	-0.393417	0.090518	-0.709209	-1.422995	0.100194	0.044362	-0.102233	0.993771	-0.408259	0.906039	0.111432	-0.911788	-0.410659	-0.001544
00313	9.624317	-0.591393	0.433197	-0.546160	-1.413984	0.118860	0.030856	-0.106946	0.993786	-0.403262	0.908415	0.110279	-0.914564	-0.404159	-0.015097
00314	9.229553	-0.719229	0.348149	-0.342755	-1.370808	0.155767	0.017628	-0.111006	0.993663	-0.400200	0.909952	0.108754	-0.916258	-0.399581	-0.028384
00315	9.194806	-0.401920	0.375265	-0.152742	-1.387572	0.181331	0.004073	-0.114898	0.993369	-0.398775	0.910787	0.106981	-0.917040	-0.396567	-0.042109
00316	9.305819	-0.218435	0.337965	0.001286	-1.412438	0.216943	-0.009798	-0.118479	0.992908	-0.398818	0.911025	0.104772	-0.916978	-0.394963	-0.056178
00317	9.366982	-0.003132	0.385779	0.162861	-1.427411	0.251672	-0.023996	-0.121832	0.992261	-0.400232	0.910704	0.102139	-0.916100	-0.394683	-0.070614
00318	9.461395	0.137871	0.314244	0.362816	-1.473807	0.271800	-0.038630	-0.125153	0.991385	-0.403502	0.909596	0.099106	-0.914163	-0.396198	-0.085637
00319	9.626095	0.146062	-0.084311	0.663530	-1.550764	0.265623	-0.053968	-0.128919	0.990186	-0.409404	0.907308	0.095815	-0.910756	-0.400215	-0.101745
00320	9.719901	0.097057	-0.451108	1.043416	-1.578049	0.234170	-0.069322	-0.133140	0.988670	-0.418769	0.903391	0.092293	-0.905443	-0.407626	-0.118380
00321	9.621712	0.194630	-0.727043	1.343752	-1.557018	0.196512	-0.084309	-0.137792	0.986866	-0.430714	0.898128	0.088606	-0.898542	-0.417587	-0.135069
00322	9.473893	0.188006	-0.939409	1.430552	-1.532066	0.156330	-0.098755	-0.142841	0.984807	-0.443402	0.892287	0.084958	-0.890866	-0.428275	-0.151454
00323	9.324097	0.326996	-1.248376	1.373407	-1.505653	0.148432	-0.112884	-0.148039	0.982518	-0.455406	0.886568	0.081259	-0.883098	-0.438272	-0.167497
00324	9.157944	0.680653	-1.607029	1.173370	-1.471663	0.176907	-0.126698	-0.152955	0.980078	-0.465543	0.881633	0.077409	-0.875909	-0.446461	-0.182909
00325	9.234219	1.368039	-2.160170	0.850076	-1.466223	0.263324	-0.140840	-0.157214	0.977470	-0.472591	0.878240	0.073160	-0.869955	-0.451640	-0.197990
00326	9.577623	2.108321	-2.494796	0.450609	-1.457673	0.341359	-0.155165	-0.160785	0.974716	-0.476024	0.876734	0.068844	-0.865636	-0.453306	-0.212576
00327	9.827378	2.612809	-2.450863	0.075202	-1.390730	0.344089	-0.168932	-0.164055	0.971879	-0.476088	0.876971	0.065280	-0.863019	-0.451672	-0.226253
00328	10.098457	2.538796	-2.219213	-0.196775	-1.316324	0.300567	-0.181767	-0.167307	0.969004	-0.473889	0.878345	0.062762	-0.861620	-0.447793	-0.238939
00329	10.118046	2.233021	-1.821846	-0.338662	-1.183508	0.233510	-0.193171	-0.170520	0.966234	-0.470496	0.880271	0.061287	-0.860999	-0.442770	-0.250272
00330	9.766044	1.715261	-1.469228	-0.396696	-1.065342	0.148813	-0.203095	-0.173867	0.963599	-0.466810	0.882265	0.060803	-0.860721	-0.437469	-0.260347
00331	9.404481	1.252769	-1.121271	-0.379390	-1.038048	0.080838	-0.212510	-0.177662	0.960872	-0.463333	0.884083	0.060992	-0.860327	-0.432243	-0.270193
00332	9.322775	0.710133	-0.868856	-0.322884	-1.060154	0.039735	-0.221865	-0.181838	0.957972	-0.460494	0.885534	0.061438	-0.859489	-0.427509	-0.280204
00333	9.392741	0.323451	-0.705991	-0.256981	-1.057879	0.024068	-0.231164	-0.186116	0.954947	-0.458190	0.886696	0.061901	-0.858269	-0.423239	-0.290249
00334	9.499250	0.057657	-0.738627	-0.198649	-1.036449	0.025215	-0.240221	-0.190230	0.951896	-0.456450	0.887574	0.062185	-0.856707	-0.419554	-0.300044
00335	9.605333	-0.015911	-0.931665	-0.129313	-1.014713	0.029415	-0.249136	-0.194197	0.948799	-0.455237	0.888191	0.062255	-0.854804	-0.416418	-0.309686
00336	9.786835	-0.002922	-1.168743	-0.022553	-1.046237	0.031982	-0.258266	-0.198227	0.945518	-0.454984	0.888341	0.061962	-0.852225	-0.414193	-0.319619
00337	10.451509	0.054296	-1.219390	0.114827	-1.098334	0.047874	-0.267919	-0.202327	0.941957	-0.455809	0.887979	0.061088	-0.848798	-0.412986	-0.330128
00338	10.541700	0.180697	-0.899032	0.278531	-1.043544	0.059270	-0.277080	-0.206082	0.938487	-0.458025	0.886943	0.059535	-0.844654	-0.413355	-0.340145
00339	10.058495	0.825983	-0.423117	0.421584	-1.034535	0.079277	-0.286244	-0.209642	0.934941	-0.461336	0.885374	0.057284	-0.839782	-0.414925	-0.350149
00340	10.130912	1.569941	-0.167789	0.513298	-1.074362	0.095936	-0.295736	-0.213233	0.931167	-0.465371	0.883436	0.054502	-0.834248	-0.417220	-0.360496
00341	10.385472	2.055744	-0.167122	0.551826	-0.977113	0.099213	-0.304404	-0.216424	0.927631	-0.469650	0.881349	0.051509	-0.828714	-0.419982	-0.369930
00342	10.218609	2.114445	-0.485693	0.572188	-0.811750	0.100615	-0.311639	-0.218931	0.924635	-0.474084	0.879150	0.048376	-0.823483	-0.423279	-0.377769
00343	10.385956	2.152184	-0.822315	0.607429	-0.717885	0.086634	-0.318018	-0.221199	0.921920	-0.478788	0.876766	0.045206	-0.818307	-0.427028	-0.384735
00344	10.736781	1.779126	-1.288898	0.697850	-0.555953	0.084839	-0.323016	-0.222814	0.919790	-0.484225	0.873951	0.041658	-0.813134	-0.431929	-0.390192
00345	10.819365	1.587455	-1.513242	0.796911	-0.428120	0.082814	-0.326956	-0.223930	0.918126	-0.490406	0.870677	0.037718	-0.807838	-0.437923	-0.394490
00346	10.907297	1.340827	-1.356725	0.856967	-0.410786	0.057645	-0.330602	-0.225213	0.916505	-0.497131	0.867020	0.033728	-0.802224	-0.444472	-0.398599
00347	11.176266	1.247221	-0.754190	0.866277	-0.414647	0.010746	-0.334031	-0.226953	0.914831	-0.504015	0.863170	0.030107	-0.796487	-0.451032	-0.402714
00348	11.727335	1.049657	-0.240851	0.785626	-0.435297	-0.029191	-0.337393	-0.229153	0.913047	-0.510363	0.859531	0.027130	-0.791009	-0.456832	-0.406951
00349	12.145823	0.863580	0.310804	0.780954	-0.406769	-0.062517	-0.340330	-0.231535	0.911354	-0.516735	0.855796	0.024454	-0.785595	-0.462607	-0.410895
00350	12.532353	0.990287	0.887492	0.940084	-0.367397	-0.071481	-0.342888	-0.233831	0.909808	-0.524349	0.851240	0.021161	-0.779414	-0.469801	-0.414489
00351	13.040821	1.495395	1.778108	1.148258	-0.275274	-0.071862	-0.344684	-0.235720	0.908641	-0.533524	0.845615	0.016983	-0.772364	-0.478928	-0.417232
00352	13.324560	1.938477	2.564399	1.299571	-0.121981	-0.091347	-0.345185	-0.237054	0.908104	-0.543841	0.839098	0.012318	-0.764908	-0.489612	-0.418564
00353	13.841520	2.004505	2.860682	1.522301	0.117050	-0.139276	-0.343552	-0.237609	0.908578	-0.555938	0.831193	0.007160	-0.756905	-0.502653	-0.417654
00354	14.221293	1.533778	3.581450	1.779455	0.604056	-0.176320	-0.338067	-0.235957	0.911063	-0.569950	0.821679	0.001317	-0.748911	-0.518815	-0.412266
00355	13.962628	0.268188	6.049652	1.646913	1.187216	-0.187225	-0.328134	-0.231200	0.915901	-0.582917	0.812523	-0.003733	-0.743327	-0.535119	-0.401387
00356	13.197986	-1.270734	8.299762	0.850511	1.806118	-0.105630	-0.314139	-0.222269	0.922991	-0.589595	0.807676	-0.006169	-0.744107	-0.546129	-0.384771
00357	11.854599	-2.508184	7.395359	0.138251	2.247289	0.057674	-0.297668	-0.209419	0.931417	-0.590549	0.806969	-0.007294	-0.750097	-0.552218	-0.363881
00358	11.203393	-2.423150	5.853351	-0.009262	2.357169	0.152328	-0.280863	-0.195095	0.939710	-0.590054	0.807317	-0.008748	-0.756936	-0.556936	-0.341861
00359	11.976132	-1.478165	4.649107	0.486098	2.421697	0.102580	-0.263054	-0.180613	0.947724	-0.593606	0.804675	-0.011413	-0.760549	-0.565577	-0.318886
00360	12.989662	0.194491	1.426517	1.009056	2.884195	-0.040339	-0.240917	-0.164413	0.956518	-0.601406	0.798818	-0.014169	-0.761754	-0.578670	-0.291328
00361	11.967745	0.437239	-4.985488	1.366311	3.066862	-0.303095	-0.215685	-0.148750	0.965066	-0.612665	0.790198	-0.015129	-0.760343	-0.594526	-0.261568
00362	11.630171	1.699848	-8.120342	1.498594	2.637764	-0.437516	-0.193031	-0.136279	0.971683	-0.624945	0.780531	-0.014680	-0.756428	-0.610082	-0.235834
00363	12.848030	2.841695	-7.816970	1.279609	2.410566	-0.510870	-0.171583	-0.125299	0.977169	-0.635681	0.771848	-0.012649	-0.752641	-0.623338	-0.212086
00364	13.875332	3.612773	-5.354547	1.070614	2.350287	-0.630203	-0.149955	-0.115341	0.981942	-0.644758	0.764337	-0.008682	-0.749534	-0.634417	-0.188983
00365	14.811902	5.004251	-2.778312	0.300161	2.412108	-0.808731	-0.126600	-0.106077	0.986266	-0.648251	0.761425	-0.001317	-0.750828	-0.639515	-0.165161
00366	14.881643	6.005201	-1.265058	-0.413675	2.720268	-0.886113	-0.100421	-0.095423	0.990359	-0.646164	0.763157	0.008011	-0.756563	-0.639129	-0.138296
00367	12.642578	5.425300	-1.109951	-1.167252	2.928466	-0.783859	-0.073052	-0.082741	0.993890	-0.638061	0.769794	0.017187	-0.766513	-0.632907	-0.109029
00368	12.134565	3.615247	-1.732002	-2.053791	2.679812	-0.675424	-0.048117	-0.071188	0.996302	-0.622604	0.782111	0.025815	-0.781056	-0.619060	-0.081954
00369	14.294360	0.970683	-2.845940	-2.511567	2.606051	-0.580585	-0.023955	-0.059814	0.997922	-0.603085	0.796982	0.033293	-0.797317	-0.601035	-0.055165
00370	15.609797	-0.801449	-3.607880	-2.489832	2.762574	-0.554350	0.001511	-0.047902	0.998851	-0.583138	0.811398	0.039794	-0.812372	-0.582528	-0.026708
00371	15.748215	-1.906878	-4.039236	-2.395813	2.784986	-0.588961	0.027728	-0.036691	0.998942	-0.563520	0.824824	0.045937	-0.825637	-0.564198	0.002195
