// General information: 
//  MT Manager version: 2022.2.0 
//  XDA version: 2022.2.0 build 7381 rev 124627 built on 2023-07-19
// Device information: 
//  DeviceId: 00B4CB9F
//  ProductCode: MTW2-3A7G6
//  Firmware Version: 4.6.0
//  Hardware Version: 2.0.0
// Device settings: 
//  Filter Profile: human(46.1)
//  Option Flags: Orientation Smoother Disabled, Position/Velocity Smoother Disabled, Continuous Zero Rotation Update Disabled, AHS Disabled, ICC Disabled
// Coordinate system: ENU
PacketCounter	Acc_X	Acc_Y	Acc_Z	Gyr_X	Gyr_Y	Gyr_Z	Mat[1][1]	Mat[2][1]	Mat[3][1]	Mat[1][2]	Mat[2][2]	Mat[3][2]	Mat[1][3]	Mat[2][3]	Mat[3][3]
59682	9.635544	-1.423874	-1.252910	0.009587	0.007155	0.001727	-0.189986	0.047136	0.980655	-0.510181	0.848657	-0.139631	-0.838821	-0.526839	-0.137185
59683	9.634301	-1.414000	-1.274182	0.008381	0.008612	0.001899	-0.189942	0.047225	0.980659	-0.510326	0.848557	-0.139708	-0.838743	-0.526992	-0.137076
59684	9.639760	-1.392727	-1.263060	0.004335	0.019724	0.006819	-0.189872	0.047394	0.980664	-0.510350	0.848524	-0.139820	-0.838744	-0.527030	-0.136923
59685	9.645239	-1.371787	-1.251413	0.008461	0.019531	0.008805	-0.189792	0.047655	0.980667	-0.510382	0.848474	-0.140007	-0.838743	-0.527087	-0.136711
59686	9.638763	-1.384191	-1.281104	0.003097	0.023150	0.006033	-0.189689	0.047836	0.980678	-0.510397	0.848448	-0.140110	-0.838757	-0.527113	-0.136526
59687	9.592675	-1.386359	-1.250005	-0.001893	0.021957	0.007845	-0.189595	0.048054	0.980686	-0.510413	0.848416	-0.140250	-0.838768	-0.527145	-0.136329
59688	9.609969	-1.403168	-1.283230	-0.000381	0.019630	0.010351	-0.189544	0.048252	0.980686	-0.510391	0.848406	-0.140391	-0.838793	-0.527143	-0.136183
59689	9.616694	-1.392628	-1.249461	-0.000110	0.020731	0.012076	-0.189444	0.048473	0.980694	-0.510473	0.848331	-0.140540	-0.838766	-0.527242	-0.135967
59690	9.582272	-1.433044	-1.263725	-0.001485	0.015168	0.013375	-0.189445	0.048674	0.980684	-0.510436	0.848326	-0.140709	-0.838788	-0.527233	-0.135867
59691	9.579721	-1.414179	-1.306426	0.010552	0.017427	0.015712	-0.189483	0.048952	0.980663	-0.510487	0.848250	-0.140978	-0.838748	-0.527329	-0.135740
59692	9.592815	-1.463660	-1.327451	0.020367	0.012786	0.013216	-0.189504	0.049139	0.980650	-0.510634	0.848129	-0.141175	-0.838654	-0.527506	-0.135632
59693	9.628533	-1.436314	-1.287610	0.024732	0.015662	0.015976	-0.189513	0.049367	0.980636	-0.510891	0.847934	-0.141419	-0.838496	-0.527799	-0.135474
59694	9.563720	-1.413540	-1.244011	0.033647	0.011605	0.016328	-0.189560	0.049574	0.980617	-0.511143	0.847741	-0.141664	-0.838332	-0.528089	-0.135359
59695	9.562340	-1.405466	-1.264791	0.038742	0.006872	0.017368	-0.189653	0.049809	0.980587	-0.511422	0.847523	-0.141963	-0.838141	-0.528417	-0.135262
59696	9.580567	-1.433894	-1.276794	0.042664	0.001623	0.019531	-0.189800	0.049990	0.980549	-0.511743	0.847280	-0.142252	-0.837911	-0.528789	-0.135232
59697	9.553976	-1.411867	-1.317192	0.048032	-0.002011	0.022293	-0.189964	0.050163	0.980509	-0.512225	0.846935	-0.142568	-0.837579	-0.529324	-0.135193
59698	9.577430	-1.419126	-1.319840	0.053579	0.001366	0.023911	-0.190136	0.050380	0.980464	-0.512630	0.846632	-0.142915	-0.837293	-0.529788	-0.135149
59699	9.555773	-1.437994	-1.271480	0.064914	-0.005631	0.023909	-0.190356	0.050496	0.980416	-0.513306	0.846166	-0.143245	-0.836828	-0.530521	-0.135153
59700	9.652331	-1.335231	-1.255310	0.064926	-0.005649	0.023888	-0.190587	0.050675	0.980361	-0.513805	0.845802	-0.143606	-0.836469	-0.531084	-0.135162
59701	9.632279	-1.302069	-1.264419	0.049605	-0.006354	0.025697	-0.190801	0.050898	0.980308	-0.514218	0.845487	-0.143982	-0.836167	-0.531564	-0.135147
59702	9.608463	-1.238461	-1.340814	0.037076	-0.014743	0.021845	-0.191097	0.051011	0.980245	-0.514488	0.845271	-0.144286	-0.835933	-0.531897	-0.135284
59703	9.693559	-1.312420	-1.352057	0.023194	-0.013817	0.024269	-0.191359	0.051198	0.980184	-0.514647	0.845118	-0.144617	-0.835775	-0.532122	-0.135372
59704	9.766666	-1.419927	-1.404030	0.009671	0.001146	0.024401	-0.191535	0.051418	0.980138	-0.514682	0.845047	-0.144909	-0.835713	-0.532215	-0.135392
59705	9.750256	-1.487793	-1.431615	0.010280	0.018248	0.022865	-0.191561	0.051720	0.980117	-0.514776	0.844940	-0.145198	-0.835650	-0.532355	-0.135233
59706	9.692160	-1.453728	-1.355514	0.024548	0.029331	0.029004	-0.191526	0.052128	0.980102	-0.514927	0.844786	-0.145555	-0.835565	-0.532559	-0.134956
59707	9.560943	-1.459148	-1.211556	0.035116	0.031864	0.039661	-0.191568	0.052646	0.980066	-0.515183	0.844542	-0.146066	-0.835397	-0.532895	-0.134664
59708	9.563073	-1.483746	-1.163935	0.048262	0.021649	0.044843	-0.191679	0.053147	0.980018	-0.515502	0.844253	-0.146610	-0.835175	-0.533303	-0.134428
59709	9.526790	-1.517772	-1.199422	0.051913	0.015275	0.045277	-0.191813	0.053661	0.979963	-0.515870	0.843928	-0.147186	-0.834917	-0.533766	-0.134194
59710	9.515345	-1.566748	-1.216252	0.059318	0.013462	0.053007	-0.192035	0.054187	0.979891	-0.516265	0.843575	-0.147824	-0.834621	-0.534271	-0.134020
59711	9.495090	-1.536511	-1.223689	0.078925	0.005989	0.056938	-0.192347	0.054781	0.979797	-0.516782	0.843123	-0.148591	-0.834229	-0.534923	-0.133863
59712	9.419768	-1.571575	-1.177366	0.098874	-0.004343	0.064484	-0.192778	0.055309	0.979682	-0.517484	0.842550	-0.149395	-0.833695	-0.535770	-0.133804
59713	9.528139	-1.583488	-1.103920	0.118534	-0.013840	0.069327	-0.193358	0.055871	0.979536	-0.518310	0.841876	-0.150332	-0.833047	-0.536771	-0.133825
59714	9.714220	-1.382296	-1.127109	0.120630	-0.012042	0.064312	-0.193853	0.056354	0.979411	-0.519191	0.841184	-0.151163	-0.832383	-0.537804	-0.133807
59715	9.701604	-1.136169	-1.200821	0.097602	-0.010029	0.055707	-0.194277	0.056704	0.979307	-0.520098	0.840501	-0.151845	-0.831718	-0.538835	-0.133798
59716	9.574553	-0.977862	-1.255499	0.062569	-0.018014	0.048739	-0.194741	0.057023	0.979196	-0.520525	0.840128	-0.152446	-0.831342	-0.539383	-0.133925
59717	9.493787	-1.032836	-1.221657	0.045026	-0.031412	0.048735	-0.195356	0.057283	0.979058	-0.520802	0.839845	-0.153055	-0.831024	-0.539796	-0.134236
59718	9.547706	-1.188645	-1.160805	0.026607	-0.046164	0.052541	-0.196074	0.057481	0.978903	-0.520922	0.839663	-0.153646	-0.830780	-0.540058	-0.134693
59719	9.515444	-1.344957	-1.176967	0.034167	-0.057838	0.055145	-0.196905	0.057648	0.978726	-0.521147	0.839405	-0.154289	-0.830442	-0.540441	-0.135240
59720	9.540192	-1.457849	-1.204246	0.053296	-0.071582	0.067393	-0.197911	0.057833	0.978512	-0.521458	0.839069	-0.155060	-0.830007	-0.540942	-0.135904
59721	9.569987	-1.467755	-1.159898	0.084510	-0.081243	0.070977	-0.199000	0.057963	0.978284	-0.522134	0.838495	-0.155892	-0.829322	-0.541818	-0.136597
59722	9.666132	-1.452763	-1.215008	0.104970	-0.081621	0.068071	-0.200094	0.058097	0.978053	-0.522870	0.837878	-0.156741	-0.828595	-0.542757	-0.137277
59723	9.673003	-1.397489	-1.247297	0.117136	-0.079588	0.070167	-0.201163	0.058318	0.977820	-0.523687	0.837194	-0.157667	-0.827820	-0.543788	-0.137872
59724	9.591700	-1.394188	-1.297245	0.107746	-0.079701	0.077187	-0.202288	0.058536	0.977575	-0.524424	0.836554	-0.158610	-0.827079	-0.544749	-0.138527
59725	9.582628	-1.415013	-1.335217	0.103418	-0.084598	0.075363	-0.203476	0.058748	0.977316	-0.525108	0.835941	-0.159577	-0.826353	-0.545667	-0.139245
59726	9.527268	-1.435940	-1.344512	0.095536	-0.088999	0.075984	-0.204671	0.058903	0.977057	-0.525744	0.835366	-0.160493	-0.825653	-0.546530	-0.140007
59727	9.549864	-1.459099	-1.333005	0.091837	-0.095617	0.079499	-0.205956	0.059074	0.976777	-0.526363	0.834787	-0.161471	-0.824939	-0.547395	-0.140835
59728	9.556260	-1.558060	-1.327194	0.094970	-0.102375	0.085323	-0.207310	0.059231	0.976481	-0.526971	0.834208	-0.162479	-0.824211	-0.548260	-0.141727
59729	9.584281	-1.560310	-1.307600	0.106969	-0.107442	0.088504	-0.208730	0.059418	0.976167	-0.527685	0.833543	-0.163570	-0.823396	-0.549250	-0.142632
59730	9.665400	-1.551218	-1.285922	0.139433	-0.109027	0.096623	-0.210199	0.059630	0.975839	-0.528631	0.832710	-0.164753	-0.822415	-0.550489	-0.143512
59731	9.663829	-1.572334	-1.271304	0.150145	-0.098852	0.103027	-0.211644	0.059989	0.975504	-0.529622	0.831820	-0.166060	-0.821405	-0.551794	-0.144278
59732	9.615573	-1.524010	-1.329046	0.149252	-0.084550	0.108799	-0.212976	0.060433	0.975187	-0.530617	0.830921	-0.167377	-0.820418	-0.553098	-0.144900
59733	9.576834	-1.450139	-1.189906	0.133945	-0.085096	0.110703	-0.214303	0.060944	0.974864	-0.531461	0.830109	-0.168725	-0.819526	-0.554260	-0.145506
59734	9.631687	-1.386182	-1.087746	0.119796	-0.085128	0.111499	-0.215655	0.061402	0.974537	-0.532203	0.829368	-0.170027	-0.818690	-0.555319	-0.146178
59735	9.658485	-1.473902	-1.128311	0.111580	-0.088652	0.109499	-0.217007	0.061873	0.974207	-0.532888	0.828659	-0.171331	-0.817887	-0.556323	-0.146854
59736	9.730375	-1.655298	-1.237681	0.120056	-0.091324	0.114069	-0.218423	0.062315	0.973863	-0.533621	0.827911	-0.172659	-0.817031	-0.557387	-0.147582
59737	9.756590	-1.710745	-1.157247	0.135416	-0.073313	0.112953	-0.219709	0.062856	0.973539	-0.534485	0.827068	-0.174022	-0.816121	-0.558576	-0.148118
59738	9.552933	-1.726366	-1.149910	0.132934	-0.050648	0.113377	-0.220789	0.063516	0.973251	-0.535321	0.826244	-0.175363	-0.815282	-0.559720	-0.148424
59739	9.448557	-1.730278	-1.169626	0.119855	-0.054092	0.105227	-0.221795	0.064064	0.972987	-0.536165	0.825439	-0.176570	-0.814453	-0.560844	-0.148729
59740	9.397850	-1.824297	-1.204679	0.098935	-0.063684	0.108719	-0.222957	0.064610	0.972685	-0.536729	0.824805	-0.177815	-0.813764	-0.561714	-0.149218
59741	9.447248	-1.917214	-1.246250	0.094920	-0.071397	0.110588	-0.224195	0.065113	0.972367	-0.537316	0.824150	-0.179075	-0.813036	-0.562616	-0.149784
59742	9.466377	-1.924862	-1.277353	0.100380	-0.073314	0.112137	-0.225455	0.065630	0.972041	-0.537880	0.823502	-0.180356	-0.812314	-0.563504	-0.150362
59743	9.508987	-1.937922	-1.312308	0.105213	-0.077473	0.110312	-0.226713	0.066093	0.971717	-0.538579	0.822768	-0.181618	-0.811501	-0.564521	-0.150936
59744	9.592926	-2.027009	-1.460286	0.115967	-0.073313	0.109658	-0.227959	0.066586	0.971391	-0.539270	0.822031	-0.182899	-0.810692	-0.565536	-0.151482
59745	9.569377	-2.096073	-1.512676	0.122579	-0.060896	0.113090	-0.229111	0.067132	0.971083	-0.540113	0.821187	-0.184201	-0.809806	-0.566696	-0.151884
59746	9.488918	-2.071018	-1.415966	0.125552	-0.051904	0.111134	-0.230192	0.067755	0.970784	-0.540874	0.820391	-0.185511	-0.808991	-0.567775	-0.152200
59747	9.425792	-1.901976	-1.419533	0.133726	-0.042803	0.100089	-0.231158	0.068370	0.970511	-0.541725	0.819545	-0.186763	-0.808146	-0.568922	-0.152406
59748	9.306313	-1.827489	-1.484988	0.117425	-0.050383	0.099132	-0.232162	0.068900	0.970234	-0.542444	0.818798	-0.187945	-0.807375	-0.569932	-0.152720
59749	9.354287	-1.808723	-1.532312	0.112957	-0.065179	0.092487	-0.233207	0.069255	0.969958	-0.543278	0.817997	-0.189025	-0.806513	-0.571038	-0.153138
59750	9.332157	-1.929115	-1.659090	0.112477	-0.075444	0.092873	-0.234381	0.069588	0.969651	-0.543968	0.817280	-0.190139	-0.805708	-0.572024	-0.153701
59751	9.271930	-2.191246	-1.815005	0.128013	-0.100361	0.100297	-0.235817	0.069881	0.969282	-0.544743	0.816470	-0.191395	-0.804764	-0.573143	-0.154471
59752	9.357638	-2.466174	-1.985773	0.159229	-0.123228	0.114118	-0.237491	0.070109	0.968856	-0.545754	0.815467	-0.192788	-0.803586	-0.574542	-0.155404
59753	9.376968	-2.749814	-2.234534	0.206102	-0.154087	0.129301	-0.239593	0.070246	0.968329	-0.547111	0.814165	-0.194433	-0.802038	-0.576369	-0.156636
59754	9.504672	-2.469800	-2.634997	0.241645	-0.171544	0.116807	-0.241668	0.070209	0.967816	-0.548767	0.812678	-0.195984	-0.800282	-0.578468	-0.157870
59755	9.776989	-2.028380	-3.009846	0.255443	-0.175609	0.094946	-0.243674	0.069895	0.967335	-0.550685	0.811055	-0.197322	-0.798354	-0.580779	-0.159143
59756	10.215597	-1.107995	-2.764832	0.206351	-0.138029	0.052895	-0.245128	0.069524	0.966995	-0.552202	0.809808	-0.198203	-0.796860	-0.582561	-0.160115
59757	10.075113	-0.893191	-2.388280	0.093292	-0.068992	0.046711	-0.246012	0.069429	0.966777	-0.552952	0.809146	-0.198816	-0.796067	-0.583492	-0.160669
59758	9.600444	-1.051705	-2.104882	-0.010902	-0.048239	0.057658	-0.246775	0.069617	0.966569	-0.552724	0.809159	-0.199396	-0.795989	-0.583451	-0.161201
59759	9.746147	-1.363748	-1.689053	-0.101648	-0.050210	0.054188	-0.247528	0.069714	0.966370	-0.551878	0.809644	-0.199767	-0.796342	-0.582766	-0.161936
59760	10.156419	-1.881142	-1.372912	-0.159310	-0.022550	0.046793	-0.248026	0.069965	0.966224	-0.550494	0.810529	-0.200000	-0.797145	-0.581505	-0.162517
59761	10.351559	-2.317558	-1.245587	-0.188996	0.009746	0.054476	-0.248268	0.070362	0.966133	-0.549016	0.811486	-0.200180	-0.798088	-0.580121	-0.162836
59762	10.115694	-2.832789	-1.144121	-0.220717	0.025933	0.104018	-0.248691	0.071360	0.965950	-0.546995	0.812680	-0.200866	-0.799343	-0.578324	-0.163073
59763	9.834496	-2.796130	-0.897459	-0.231874	0.067928	0.139235	-0.249006	0.072805	0.965762	-0.544847	0.813883	-0.201835	-0.800711	-0.576450	-0.162994
59764	9.500531	-2.155488	-0.480780	-0.310254	0.111064	0.125523	-0.248858	0.074470	0.965673	-0.542048	0.815564	-0.202582	-0.802654	-0.573855	-0.162594
59765	9.247118	-1.799324	-0.233718	-0.430883	0.121555	0.106375	-0.248506	0.076010	0.965644	-0.538384	0.817900	-0.202932	-0.805225	-0.570317	-0.162330
59766	9.121078	-1.626996	-0.176720	-0.534777	0.089999	0.098681	-0.248369	0.077334	0.965574	-0.533826	0.820852	-0.203056	-0.808296	-0.565881	-0.162591
59767	9.150651	-1.542808	-0.434386	-0.620730	0.061806	0.091814	-0.248368	0.078428	0.965486	-0.528682	0.824200	-0.202953	-0.811670	-0.560842	-0.163241
59768	9.021633	-1.719734	-0.797351	-0.688415	0.036110	0.088478	-0.248599	0.079366	0.965349	-0.522863	0.827961	-0.202719	-0.815360	-0.555142	-0.164333
59769	8.979556	-2.178583	-1.135821	-0.682683	0.012281	0.083325	-0.248998	0.080142	0.965182	-0.517112	0.831628	-0.202457	-0.818898	-0.549519	-0.165632
59770	9.048035	-2.642913	-1.411849	-0.594736	0.000334	0.090293	-0.249520	0.080902	0.964984	-0.512009	0.834799	-0.202380	-0.821940	-0.544579	-0.166877
59771	9.089488	-2.858201	-1.604260	-0.469771	0.015833	0.100891	-0.249948	0.081838	0.964795	-0.507974	0.837203	-0.202615	-0.824311	-0.540734	-0.167686
59772	8.986477	-2.909392	-1.683237	-0.343141	0.031120	0.101308	-0.250265	0.082861	0.964625	-0.504890	0.838960	-0.203056	-0.826107	-0.537848	-0.168126
59773	8.928069	-2.853114	-1.656925	-0.244338	0.056752	0.096815	-0.250272	0.084049	0.964520	-0.502742	0.840104	-0.203658	-0.827414	-0.535874	-0.168000
59774	8.916275	-2.676581	-1.681002	-0.180895	0.076839	0.078189	-0.250088	0.085124	0.964474	-0.501050	0.840995	-0.204149	-0.828496	-0.534305	-0.167671
59775	8.957932	-2.478985	-1.722665	-0.138632	0.081699	0.055937	-0.249757	0.086032	0.964479	-0.499832	0.841632	-0.204509	-0.829330	-0.533155	-0.167202
59776	8.982181	-2.315516	-1.669615	-0.086548	0.085465	0.039030	-0.249303	0.086823	0.964526	-0.499019	0.842048	-0.204781	-0.829957	-0.532369	-0.166599
59777	9.150920	-2.217321	-1.572039	-0.022004	0.094218	0.025133	-0.248681	0.087575	0.964618	-0.498866	0.842071	-0.205059	-0.830235	-0.532210	-0.165719
59778	9.111151	-2.259669	-1.444676	0.051190	0.089871	0.030110	-0.248145	0.088314	0.964689	-0.499218	0.841761	-0.205474	-0.830184	-0.532578	-0.164791
59779	9.074749	-2.194964	-1.753366	0.089376	0.041529	0.037664	-0.248035	0.088860	0.964667	-0.499966	0.841179	-0.206037	-0.829766	-0.533405	-0.164215
59780	9.084317	-1.954736	-2.501314	0.084437	-0.061428	0.034468	-0.248777	0.088829	0.964479	-0.500583	0.840687	-0.206548	-0.829172	-0.534186	-0.164678
59781	9.071479	-1.921779	-3.218324	0.069528	-0.156543	0.030362	-0.250287	0.088276	0.964139	-0.501142	0.840236	-0.207026	-0.828380	-0.534987	-0.166061
59782	9.161997	-2.130284	-3.412186	0.106355	-0.197253	0.025568	-0.252108	0.087441	0.963740	-0.501960	0.839633	-0.207490	-0.827332	-0.536069	-0.167786
59783	9.154099	-2.303546	-3.045165	0.174226	-0.171838	0.015815	-0.253648	0.086656	0.963407	-0.503467	0.838608	-0.207984	-0.825944	-0.537798	-0.169083
59784	9.128350	-2.463237	-2.370210	0.256155	-0.140046	0.009316	-0.254910	0.085986	0.963134	-0.505559	0.837209	-0.208548	-0.824276	-0.540082	-0.169942
59785	9.372210	-2.452436	-1.575641	0.376764	-0.111187	0.008327	-0.255967	0.085540	0.962893	-0.508588	0.835161	-0.209391	-0.822082	-0.543314	-0.170269
59786	9.602248	-2.267476	-0.968237	0.490307	-0.103482	0.002204	-0.256888	0.085000	0.962696	-0.512608	0.832473	-0.210288	-0.819293	-0.547506	-0.170280
59787	9.673177	-2.208355	-0.649636	0.551609	-0.123425	0.004368	-0.257942	0.084382	0.962469	-0.517234	0.829343	-0.211329	-0.816049	-0.552332	-0.170277
59788	9.856790	-2.077076	-0.524003	0.569571	-0.155951	0.008881	-0.259317	0.083596	0.962167	-0.521851	0.826164	-0.212426	-0.812666	-0.557193	-0.170614
59789	9.982098	-2.038549	-0.598987	0.542240	-0.176125	0.003763	-0.260858	0.082612	0.961836	-0.526267	0.823100	-0.213423	-0.809319	-0.561855	-0.171236
59790	9.858091	-2.150029	-0.855276	0.499506	-0.177454	0.009584	-0.262401	0.081695	0.961494	-0.530278	0.820264	-0.214413	-0.806195	-0.566121	-0.171918
59791	9.660188	-2.289375	-1.197287	0.462439	-0.208215	0.015198	-0.264223	0.080647	0.961084	-0.534020	0.817568	-0.215418	-0.803124	-0.570157	-0.172954
59792	9.611882	-2.412246	-1.437257	0.445969	-0.229961	0.022631	-0.266248	0.079520	0.960619	-0.537537	0.814987	-0.216450	-0.800104	-0.573997	-0.174244
59793	9.566573	-2.498888	-1.423081	0.468654	-0.213692	0.027799	-0.268208	0.078582	0.960151	-0.541173	0.812256	-0.217649	-0.796992	-0.577983	-0.175327
59794	9.471520	-2.367996	-1.289438	0.464892	-0.206599	0.036204	-0.270108	0.077682	0.959691	-0.544775	0.809520	-0.218854	-0.793891	-0.581930	-0.176339
59795	9.571019	-2.084437	-1.297358	0.421345	-0.224086	0.024120	-0.272138	0.076587	0.959206	-0.548009	0.807046	-0.219915	-0.790966	-0.585500	-0.177657
59796	9.644927	-2.030702	-1.396753	0.348651	-0.192178	0.017329	-0.273811	0.075602	0.958808	-0.550716	0.804975	-0.220743	-0.788505	-0.588472	-0.178776
59797	9.449324	-1.946247	-1.330668	0.279646	-0.162558	0.019004	-0.275264	0.074800	0.958454	-0.552928	0.803253	-0.221486	-0.786448	-0.590923	-0.179747
59798	9.253219	-1.986940	-1.365333	0.207479	-0.162811	0.015589	-0.276689	0.073965	0.958109	-0.554516	0.802001	-0.222050	-0.784828	-0.592725	-0.180891
59799	9.601276	-2.051540	-1.613896	0.179509	-0.193722	0.018308	-0.278373	0.072963	0.957698	-0.555936	0.800863	-0.222608	-0.783226	-0.594387	-0.182375
59800	9.794030	-1.946723	-1.971322	0.120288	-0.187916	0.019132	-0.280010	0.072001	0.957293	-0.556825	0.800121	-0.223052	-0.782011	-0.595501	-0.183950
59801	9.750743	-1.970038	-2.438968	0.045374	-0.218049	0.020484	-0.281905	0.070844	0.956823	-0.557173	0.799788	-0.223375	-0.781081	-0.596087	-0.185992
59802	9.925651	-1.964255	-2.735927	-0.010354	-0.237027	0.020605	-0.283930	0.069598	0.956316	-0.557035	0.799824	-0.223593	-0.780446	-0.596186	-0.188325
59803	9.746425	-1.998203	-2.807912	-0.106976	-0.199676	0.025036	-0.285687	0.068702	0.955857	-0.556165	0.800384	-0.223754	-0.780425	-0.595538	-0.190450
59804	9.549267	-2.234670	-2.429539	-0.149109	-0.179235	0.019945	-0.287257	0.067798	0.955451	-0.554944	0.801246	-0.223700	-0.780718	-0.594481	-0.192539
59805	9.585932	-2.536239	-1.700434	-0.141216	-0.114032	0.031978	-0.288376	0.067420	0.955141	-0.553806	0.802001	-0.223815	-0.781113	-0.593506	-0.193940
59806	9.461339	-2.861717	-0.983239	-0.066616	-0.053179	0.053389	-0.289146	0.067535	0.954900	-0.553132	0.802348	-0.224236	-0.781306	-0.593023	-0.194640
59807	9.474532	-2.738129	-0.440758	0.018487	-0.026446	0.057409	-0.289743	0.067821	0.954699	-0.553149	0.802162	-0.224860	-0.781074	-0.593242	-0.194906
59808	9.269396	-2.344830	-0.452700	0.025227	-0.008924	0.065952	-0.290237	0.068299	0.954514	-0.553155	0.801956	-0.225580	-0.780885	-0.593466	-0.194977
59809	9.120002	-2.260887	-0.799942	-0.019089	-0.039713	0.067455	-0.291040	0.068679	0.954243	-0.552762	0.802020	-0.226314	-0.780865	-0.593335	-0.195457
59810	9.250071	-2.260132	-1.183424	-0.070677	-0.057919	0.061477	-0.291892	0.068832	0.953971	-0.552031	0.802385	-0.226803	-0.781064	-0.592824	-0.196212
59811	9.293254	-2.273999	-1.592664	-0.115406	-0.048274	0.054018	-0.292632	0.068939	0.953737	-0.551048	0.802972	-0.227118	-0.781481	-0.592017	-0.196986
59812	9.161937	-2.207253	-1.822968	-0.160611	-0.030794	0.048211	-0.293198	0.069148	0.953548	-0.549652	0.803876	-0.227301	-0.782252	-0.590764	-0.197688
59813	9.100642	-2.263038	-1.923154	-0.170180	-0.015158	0.041127	-0.293606	0.069338	0.953408	-0.548265	0.804803	-0.227371	-0.783072	-0.589477	-0.198280
59814	9.095321	-2.544205	-1.826143	-0.135492	-0.003342	0.044123	-0.293934	0.069676	0.953283	-0.547074	0.805559	-0.227563	-0.783781	-0.588405	-0.198663
59815	9.114161	-2.626203	-1.624036	-0.090434	0.031708	0.045130	-0.293953	0.070182	0.953240	-0.546373	0.805960	-0.227825	-0.784262	-0.587795	-0.198569
59816	8.778213	-2.510091	-1.782425	-0.100992	0.016588	0.043456	-0.294120	0.070633	0.953155	-0.545454	0.806511	-0.228080	-0.784840	-0.586985	-0.198684
59817	8.897909	-2.196018	-2.624975	-0.135632	-0.095220	0.024669	-0.295101	0.070290	0.952877	-0.544308	0.807273	-0.228119	-0.785267	-0.585977	-0.199967
59818	9.099562	-2.066885	-3.560779	-0.191566	-0.182646	-0.003148	-0.296578	0.069199	0.952498	-0.542814	0.808385	-0.227744	-0.785745	-0.584573	-0.202187
59819	9.099870	-2.266730	-3.771613	-0.170157	-0.214130	-0.014012	-0.298238	0.067860	0.952076	-0.541590	0.809319	-0.227337	-0.785961	-0.583436	-0.204618
59820	9.111775	-2.307986	-3.153222	-0.104598	-0.174833	-0.031953	-0.299499	0.066585	0.951770	-0.540864	0.809939	-0.226859	-0.785981	-0.582723	-0.206562
59821	9.090774	-2.303304	-2.400139	-0.032102	-0.117523	-0.046370	-0.300211	0.065513	0.951620	-0.540846	0.810082	-0.226391	-0.785722	-0.582646	-0.207763
59822	8.887396	-2.093783	-1.803969	0.020312	-0.095460	-0.050191	-0.300749	0.064553	0.951516	-0.541158	0.809984	-0.225997	-0.785302	-0.582889	-0.208668
59823	8.792877	-1.899384	-1.647877	0.047256	-0.142453	-0.040850	-0.301719	0.063363	0.951289	-0.541675	0.809711	-0.225736	-0.784572	-0.583399	-0.209982
59824	9.015648	-1.775611	-1.610796	0.060117	-0.193002	-0.028230	-0.303139	0.062012	0.950927	-0.542233	0.809365	-0.225635	-0.783639	-0.584023	-0.211725
59825	9.268625	-1.708126	-1.604148	0.026760	-0.218188	-0.028995	-0.304749	0.060535	0.950507	-0.542603	0.809155	-0.225500	-0.782758	-0.584469	-0.213743
59826	9.391014	-1.553671	-1.710384	-0.050922	-0.217283	-0.039913	-0.306293	0.058945	0.950111	-0.542327	0.809464	-0.225053	-0.782347	-0.584203	-0.215965
59827	9.359811	-1.595675	-1.800477	-0.131246	-0.208593	-0.039628	-0.307749	0.057399	0.949735	-0.541516	0.810178	-0.224436	-0.782337	-0.583367	-0.218249
59828	9.219418	-1.842902	-1.669573	-0.183164	-0.195649	-0.024926	-0.309205	0.056061	0.949342	-0.540161	0.811248	-0.223839	-0.782700	-0.582009	-0.220560
59829	9.110083	-2.219176	-1.141868	-0.181766	-0.161389	-0.001913	-0.310578	0.055141	0.948947	-0.538671	0.812330	-0.223502	-0.783182	-0.580586	-0.222589
59830	8.988449	-2.648396	-0.389591	-0.124444	-0.105608	0.029798	-0.311625	0.054774	0.948625	-0.537605	0.813024	-0.223549	-0.783499	-0.579648	-0.223911
59831	8.845522	-2.816524	0.186854	-0.065656	-0.071441	0.055249	-0.312532	0.054800	0.948325	-0.536986	0.813317	-0.223969	-0.783562	-0.579235	-0.224761
59832	9.064650	-2.660177	0.270466	-0.040550	-0.093931	0.067023	-0.313687	0.054806	0.947943	-0.536459	0.813503	-0.224554	-0.783462	-0.578973	-0.225785
59833	9.503406	-2.341964	-0.007807	-0.055500	-0.140992	0.070793	-0.315267	0.054597	0.947431	-0.535801	0.813762	-0.225187	-0.783277	-0.578629	-0.227300
59834	9.909547	-2.012022	-0.441800	-0.105696	-0.170782	0.066053	-0.317018	0.054151	0.946872	-0.534765	0.814325	-0.225613	-0.783279	-0.577878	-0.229198
59835	9.907431	-1.832534	-0.890873	-0.151175	-0.186519	0.060932	-0.318842	0.053603	0.946291	-0.533506	0.815063	-0.225929	-0.783397	-0.576887	-0.231278
59836	9.959204	-1.808670	-1.041458	-0.193480	-0.194728	0.049638	-0.320692	0.052891	0.945706	-0.531832	0.816139	-0.225990	-0.783780	-0.575430	-0.233600
59837	9.831183	-1.913314	-1.036923	-0.213420	-0.180105	0.044409	-0.322333	0.052247	0.945183	-0.530228	0.817181	-0.225993	-0.784194	-0.574008	-0.235702
59838	9.580451	-2.027129	-0.886048	-0.206406	-0.176726	0.044180	-0.324013	0.051600	0.944645	-0.528467	0.818330	-0.225964	-0.784690	-0.572428	-0.237880
59839	9.488250	-2.104952	-0.767128	-0.169866	-0.193937	0.050927	-0.325863	0.050918	0.944045	-0.527035	0.819213	-0.226106	-0.784887	-0.571224	-0.240116
59840	9.435941	-2.177585	-0.705170	-0.139840	-0.211668	0.058342	-0.327891	0.050193	0.943381	-0.525747	0.819970	-0.226361	-0.784906	-0.570201	-0.242472
59841	9.388182	-2.099263	-0.687325	-0.138695	-0.231933	0.073584	-0.330144	0.049520	0.942631	-0.524532	0.820621	-0.226820	-0.784775	-0.569323	-0.244948
59842	9.407736	-2.111688	-0.718946	-0.165521	-0.248526	0.080519	-0.332575	0.048772	0.941815	-0.522967	0.821511	-0.227213	-0.784793	-0.568103	-0.247708
59843	9.379506	-2.153086	-0.703701	-0.197549	-0.243886	0.095080	-0.335026	0.048215	0.940974	-0.521227	0.822475	-0.227722	-0.784907	-0.566754	-0.250420
59844	9.347744	-2.155466	-0.643863	-0.217364	-0.235926	0.097822	-0.337446	0.047690	0.940136	-0.519193	0.823646	-0.228136	-0.785219	-0.565095	-0.253176
59845	9.290173	-2.112579	-0.532545	-0.259045	-0.217388	0.106952	-0.339765	0.047267	0.939322	-0.516815	0.825052	-0.228456	-0.785788	-0.563076	-0.255895
59846	9.192347	-2.086128	-0.555968	-0.318313	-0.207751	0.109562	-0.342022	0.047010	0.938515	-0.513939	0.826777	-0.228707	-0.786694	-0.560562	-0.258615
59847	9.387262	-2.008995	-0.710012	-0.385882	-0.222642	0.096739	-0.344307	0.046567	0.937702	-0.510687	0.828799	-0.228673	-0.787815	-0.557606	-0.261580
59848	9.608911	-1.840528	-1.047184	-0.463236	-0.226570	0.072083	-0.346519	0.045912	0.936919	-0.506785	0.831328	-0.228172	-0.789363	-0.553882	-0.264803
59849	9.586890	-1.633332	-1.441992	-0.545784	-0.237943	0.041937	-0.348612	0.045055	0.936184	-0.502614	0.834094	-0.227303	-0.791106	-0.549780	-0.268130
59850	9.523799	-1.345281	-1.769962	-0.640315	-0.251624	0.009670	-0.350712	0.043766	0.935460	-0.497508	0.837581	-0.225707	-0.793402	-0.544557	-0.271976
59851	9.244660	-1.192665	-2.158179	-0.752432	-0.280960	-0.007235	-0.352922	0.042210	0.934700	-0.491753	0.841515	-0.223678	-0.796005	-0.538582	-0.276232
59852	9.135317	-1.116103	-2.508457	-0.834329	-0.356994	-0.019153	-0.355734	0.040146	0.933725	-0.485169	0.845976	-0.221215	-0.798790	-0.531707	-0.281464
59853	9.363372	-1.357325	-2.752204	-0.901915	-0.426620	-0.001738	-0.359158	0.037854	0.932509	-0.478086	0.850658	-0.218667	-0.801523	-0.524356	-0.287423
59854	9.648510	-1.895671	-2.894202	-0.927210	-0.467350	0.010509	-0.363017	0.035520	0.931105	-0.470604	0.855469	-0.216113	-0.804208	-0.516635	-0.293834
59855	9.824737	-2.326782	-2.810045	-0.887439	-0.484498	0.024382	-0.367038	0.033300	0.929610	-0.463618	0.859841	-0.213851	-0.806438	-0.509475	-0.300155
59856	9.811460	-2.656442	-2.672330	-0.822266	-0.497709	0.030998	-0.371256	0.031059	0.928011	-0.456865	0.863981	-0.211687	-0.808358	-0.502566	-0.306568
59857	9.860436	-2.758065	-2.537490	-0.753764	-0.494503	0.024130	-0.375377	0.028773	0.926425	-0.450826	0.867650	-0.209618	-0.809844	-0.496343	-0.312724
59858	9.955062	-2.714963	-2.386526	-0.712126	-0.478641	0.002672	-0.379326	0.026447	0.924885	-0.445045	0.871152	-0.207437	-0.811201	-0.490301	-0.318680
59859	10.094280	-2.574995	-2.415609	-0.696424	-0.474540	-0.032994	-0.382957	0.023750	0.923461	-0.439870	0.874374	-0.204901	-0.812316	-0.484672	-0.324401
59860	10.150177	-2.401931	-2.552922	-0.676150	-0.495281	-0.073616	-0.386717	0.020731	0.921965	-0.434658	0.877637	-0.202052	-0.813340	-0.478876	-0.330387
59861	10.302863	-2.235636	-2.633669	-0.673099	-0.540793	-0.109166	-0.390623	0.017197	0.920390	-0.429911	0.880687	-0.198914	-0.813996	-0.473386	-0.336624
59862	10.760530	-2.407914	-2.528461	-0.672930	-0.609411	-0.129866	-0.395086	0.013197	0.918549	-0.424942	0.883863	-0.195475	-0.814451	-0.467560	-0.343594
59863	10.908519	-2.548851	-2.286961	-0.637503	-0.631008	-0.135733	-0.399600	0.009117	0.916644	-0.420784	0.886555	-0.192253	-0.814408	-0.462534	-0.350431
59864	10.738064	-2.536114	-1.732509	-0.635203	-0.640040	-0.151407	-0.404234	0.004844	0.914643	-0.416219	0.889476	-0.188662	-0.814467	-0.456956	-0.357541
59865	10.687794	-2.488939	-1.121341	-0.641633	-0.645540	-0.176451	-0.408683	0.000308	0.912676	-0.412221	0.892127	-0.184888	-0.814280	-0.451785	-0.364470
59866	10.876147	-2.591128	-0.658445	-0.641795	-0.647641	-0.186934	-0.413245	-0.004254	0.910610	-0.407764	0.894995	-0.180866	-0.814222	-0.446056	-0.371587
59867	11.280452	-2.756273	-0.379551	-0.654159	-0.616802	-0.184680	-0.417451	-0.008594	0.908659	-0.403845	0.897532	-0.177044	-0.814029	-0.440865	-0.378146
59868	11.570286	-2.873096	-0.156031	-0.641431	-0.555130	-0.182325	-0.421292	-0.012648	0.906837	-0.399388	0.900314	-0.172988	-0.814249	-0.435058	-0.384347
59869	11.613458	-2.849382	0.236732	-0.641248	-0.460665	-0.176070	-0.424301	-0.016190	0.905376	-0.395412	0.902792	-0.169165	-0.814627	-0.429773	-0.389457
59870	11.543249	-2.638158	0.712241	-0.642911	-0.359094	-0.184106	-0.426559	-0.019370	0.904253	-0.390955	0.905495	-0.165026	-0.815599	-0.423915	-0.393819
59871	11.628923	-2.228426	1.084295	-0.644730	-0.227818	-0.189050	-0.427572	-0.022009	0.903714	-0.387306	0.907760	-0.161137	-0.816809	-0.418911	-0.396657
59872	11.399686	-1.644058	1.297772	-0.666791	-0.082684	-0.191051	-0.427566	-0.024071	0.903664	-0.382669	0.910481	-0.156806	-0.818994	-0.412849	-0.398502
59873	11.182993	-1.054497	1.505127	-0.696458	0.042492	-0.198472	-0.426288	-0.025762	0.904220	-0.378787	0.912821	-0.152569	-0.821461	-0.407546	-0.398884
59874	10.987048	-0.680156	1.823451	-0.745939	0.168608	-0.218766	-0.424131	-0.027061	0.905197	-0.373578	0.915770	-0.147663	-0.824956	-0.400790	-0.398516
59875	10.676301	-0.262173	2.320546	-0.765111	0.301063	-0.244131	-0.420645	-0.028081	0.906790	-0.368980	0.918414	-0.142723	-0.828801	-0.394624	-0.396688
59876	10.545567	0.226846	2.928710	-0.691872	0.482242	-0.283004	-0.415653	-0.028775	0.909068	-0.364416	0.921034	-0.137468	-0.833327	-0.388418	-0.393316
59877	10.030815	0.762818	2.931901	-0.715936	0.634997	-0.322611	-0.409082	-0.029277	0.912028	-0.360541	0.923345	-0.132077	-0.838250	-0.382853	-0.388279
59878	10.016818	1.014703	3.054842	-0.775506	0.707445	-0.354976	-0.401914	-0.029854	0.915191	-0.355461	0.926174	-0.125891	-0.843868	-0.375912	-0.382854
59879	10.437123	0.913008	3.362753	-0.846113	0.864539	-0.386428	-0.393064	-0.030237	0.919014	-0.350995	0.928712	-0.119566	-0.849884	-0.369567	-0.375656
59880	10.822354	0.670993	2.968041	-0.951665	1.057751	-0.404685	-0.382681	-0.030114	0.923390	-0.344447	0.932059	-0.112352	-0.857270	-0.361053	-0.367054
59881	10.926424	0.674080	2.324998	-1.032969	1.269312	-0.410239	-0.370205	-0.029396	0.928485	-0.338028	0.935241	-0.105169	-0.865266	-0.352788	-0.356167
59882	10.875196	0.763893	1.239634	-1.121915	1.459189	-0.406562	-0.356208	-0.028106	0.933984	-0.329753	0.939018	-0.097505	-0.874287	-0.342717	-0.343754
59883	11.132690	0.784643	0.826098	-1.140972	1.630790	-0.386564	-0.340422	-0.026189	0.939908	-0.322135	0.942366	-0.090415	-0.883369	-0.333557	-0.329239
59884	11.407114	0.794948	0.905505	-1.138083	1.824238	-0.353232	-0.323149	-0.023507	0.946056	-0.313208	0.946009	-0.083479	-0.893015	-0.323288	-0.313064
59885	11.801926	0.022075	0.307681	-1.131952	1.985629	-0.320402	-0.304004	-0.020110	0.952459	-0.305718	0.948959	-0.077543	-0.902285	-0.314758	-0.294635
59886	12.228257	-0.091486	-0.239448	-1.115491	2.222402	-0.229716	-0.283202	-0.015383	0.958937	-0.296285	0.952365	-0.072224	-0.912147	-0.304573	-0.274269
59887	11.900934	-0.710685	-1.003137	-1.288412	2.312609	-0.140924	-0.261331	-0.009611	0.965201	-0.286384	0.955697	-0.068023	-0.921786	-0.294195	-0.252506
59888	11.788396	-1.441501	-2.261722	-1.419087	2.273503	-0.023325	-0.240250	-0.003267	0.970706	-0.273308	0.959768	-0.064413	-0.931441	-0.280777	-0.231477
59889	11.808915	-1.913342	-3.655400	-1.571669	2.211017	0.103395	-0.219559	0.003978	0.975591	-0.260103	0.963558	-0.062466	-0.940287	-0.267469	-0.210523
59890	12.142267	-2.293265	-4.620098	-1.514627	2.078102	0.222791	-0.200547	0.011567	0.979616	-0.245349	0.967472	-0.061651	-0.948464	-0.252712	-0.191186
59891	12.440970	-3.016354	-4.641129	-1.300813	1.952601	0.311852	-0.182500	0.019740	0.983008	-0.233646	0.970288	-0.062862	-0.955041	-0.241148	-0.172465
59892	12.491789	-2.942351	-5.183484	-0.871567	1.901192	0.383552	-0.165221	0.028000	0.985859	-0.224653	0.972251	-0.065263	-0.960330	-0.232259	-0.154346
59893	11.923804	-2.068684	-5.361977	-0.592438	1.836315	0.327389	-0.148110	0.035730	0.988325	-0.219607	0.973209	-0.068093	-0.964280	-0.227128	-0.136295
59894	12.311354	-1.506022	-4.636363	-0.412580	1.828638	0.221197	-0.130975	0.042029	0.990494	-0.215337	0.974042	-0.069806	-0.967717	-0.222433	-0.118525
59895	13.141189	-1.788807	-3.939555	-0.225592	1.982427	0.169202	-0.111961	0.048456	0.992531	-0.214515	0.974082	-0.071753	-0.970282	-0.220946	-0.098664
59896	13.274350	-2.561392	-3.621476	0.002293	2.226755	0.227714	-0.090866	0.055618	0.994309	-0.214334	0.973948	-0.074066	-0.972525	-0.219844	-0.076578
59897	12.298864	-2.462529	-3.371355	0.148681	2.395551	0.288272	-0.068102	0.064075	0.995619	-0.216335	0.973244	-0.077433	-0.973941	-0.220660	-0.052418
59898	11.152771	-2.699548	-3.392709	0.249411	2.350040	0.340456	-0.045993	0.072620	0.996299	-0.218601	0.972449	-0.080973	-0.974730	-0.221516	-0.028851
59899	10.661946	-3.006958	-3.596707	0.436707	2.199384	0.368568	-0.025325	0.081521	0.996350	-0.223170	0.971056	-0.085124	-0.974451	-0.224511	-0.006399
59900	10.385691	-2.562506	-3.369461	0.657799	2.076534	0.410615	-0.006080	0.090251	0.995900	-0.229544	0.969199	-0.089233	-0.973279	-0.229146	0.014824
59901	10.106701	-2.540457	-3.200194	0.697020	1.938292	0.447779	0.011740	0.099440	0.994974	-0.236553	0.967074	-0.093860	-0.971548	-0.234262	0.034877
59902	10.121000	-2.615736	-3.471409	0.883510	1.874495	0.469196	0.028749	0.108461	0.993685	-0.245255	0.964474	-0.098177	-0.969032	-0.240884	0.054328
59903	9.912972	-2.288468	-3.489539	1.024556	1.864544	0.501691	0.045552	0.118256	0.991938	-0.255878	0.961223	-0.102844	-0.965635	-0.249130	0.074045
59904	9.417716	-2.078942	-3.707704	1.278275	1.894535	0.522137	0.062386	0.128115	0.989795	-0.268512	0.957317	-0.106987	-0.961254	-0.259097	0.094124
59905	8.948023	-2.080579	-4.053192	1.607491	1.906288	0.480363	0.079307	0.138060	0.987243	-0.284322	0.952358	-0.110342	-0.955443	-0.271945	0.114783
59906	8.541571	-1.720729	-4.367221	2.003434	1.860460	0.396770	0.095796	0.147074	0.984476	-0.303775	0.946162	-0.111791	-0.947915	-0.288351	0.135316
59907	8.344480	-1.178966	-4.463709	2.325706	1.785033	0.273514	0.111772	0.155218	0.981537	-0.326381	0.938666	-0.111273	-0.938607	-0.307917	0.155576
59908	8.165975	-0.541794	-4.257847	2.448814	1.748606	0.158198	0.127507	0.162290	0.978470	-0.349469	0.930608	-0.108812	-0.928231	-0.328070	0.175375
59909	7.831440	-0.465056	-4.071314	2.475791	1.711651	0.061306	0.143050	0.168856	0.975205	-0.372562	0.922048	-0.105002	-0.916916	-0.348304	0.194808
59910	7.388726	-0.260201	-3.822745	2.449420	1.639020	0.011971	0.157882	0.174867	0.971851	-0.394936	0.913233	-0.100160	-0.905041	-0.368005	0.213244
59911	6.900789	-0.082589	-3.464126	2.353992	1.552640	-0.013988	0.171836	0.180752	0.968401	-0.416102	0.904346	-0.094961	-0.892934	-0.386636	0.230610
59912	6.404458	0.343942	-3.046103	2.269749	1.424492	-0.038569	0.184578	0.186068	0.965044	-0.436204	0.895414	-0.089212	-0.880714	-0.404489	0.246438
59913	6.146587	0.486343	-2.904372	2.127273	1.238453	-0.064474	0.195644	0.190757	0.961943	-0.454878	0.886648	-0.083310	-0.868798	-0.421268	0.260239
59914	6.040604	1.026844	-2.854725	1.977097	1.036864	-0.083829	0.204927	0.194491	0.959259	-0.471818	0.878302	-0.077282	-0.857550	-0.436759	0.271752
59915	5.818422	1.843704	-2.630910	1.705677	0.841759	-0.118137	0.212601	0.197307	0.957011	-0.486193	0.870917	-0.071548	-0.847595	-0.450081	0.281088
59916	5.725180	2.535956	-2.272567	1.335701	0.602446	-0.149591	0.218363	0.198776	0.955409	-0.497181	0.865106	-0.066355	-0.839719	-0.460522	0.287735
59917	5.764173	3.484377	-1.581183	0.944640	0.397668	-0.190715	0.222588	0.199095	0.954367	-0.504826	0.861001	-0.061876	-0.834029	-0.468016	0.292157
59918	5.794275	3.864945	-1.254027	0.531117	0.220263	-0.245976	0.225612	0.198039	0.953876	-0.508738	0.858965	-0.058006	-0.830834	-0.472186	0.294542
59919	6.083513	4.255670	-0.456932	0.165791	0.035054	-0.291499	0.227332	0.195779	0.953934	-0.509564	0.858686	-0.054797	-0.829858	-0.473633	0.294968
59920	6.801886	4.765308	1.053552	-0.333144	-0.071803	-0.310340	0.228254	0.192795	0.954322	-0.506131	0.860836	-0.052852	-0.831704	-0.470948	0.294069
59921	7.714369	4.050748	2.660294	-1.004770	-0.035236	-0.231993	0.229083	0.190679	0.954549	-0.497299	0.865920	-0.053627	-0.836788	-0.462411	0.293191
59922	8.192634	1.685163	3.717262	-1.498117	0.102181	0.003105	0.229870	0.191196	0.954256	-0.484759	0.872717	-0.058085	-0.843901	-0.449232	0.293295
59923	7.814704	-1.302722	4.594795	-1.551488	0.203971	0.317478	0.230053	0.194908	0.953460	-0.472380	0.878943	-0.065698	-0.850842	-0.435282	0.294274
59924	7.491015	-4.081203	5.118374	-1.160372	0.097178	0.616013	0.227942	0.200778	0.952749	-0.463931	0.882689	-0.075019	-0.856043	-0.424910	0.294349
59925	8.239751	-5.091305	5.588370	-0.325602	-0.093917	0.828590	0.223253	0.207732	0.952368	-0.463060	0.882346	-0.083908	-0.857749	-0.422271	0.293179
59926	9.720239	-4.807637	8.002574	0.457300	-0.203846	0.825972	0.217602	0.214165	0.952251	-0.468842	0.878636	-0.090472	-0.856059	-0.426769	0.291603
59927	12.124464	-3.252262	12.756198	1.252989	-0.083832	0.698237	0.213528	0.220014	0.951840	-0.481173	0.871622	-0.093530	-0.850223	-0.438028	0.291981
59928	13.860091	-2.473701	16.578183	1.728327	0.571161	0.573133	0.215497	0.227550	0.949622	-0.497056	0.862622	-0.093907	-0.840534	-0.451779	0.298998
59929	11.756336	-3.422479	15.996739	2.061346	1.255916	0.476435	0.223508	0.237540	0.945314	-0.515464	0.851936	-0.092201	-0.827249	-0.466668	0.312858
59930	8.078281	-0.824908	12.194431	2.102090	1.222929	0.305181	0.231883	0.245945	0.941138	-0.533446	0.841202	-0.088396	-0.813428	-0.481549	0.326259
59931	7.975057	2.904529	9.186098	1.549579	0.767964	0.179093	0.237058	0.251373	0.938411	-0.546625	0.833046	-0.085062	-0.803121	-0.492794	0.334887
59932	8.620993	4.792822	6.344609	0.548369	0.413975	0.156412	0.239458	0.254743	0.936892	-0.551433	0.829907	-0.084713	-0.799113	-0.496348	0.339202
59933	8.814557	4.311978	4.048853	-0.422362	0.216727	0.159762	0.240270	0.257291	0.935987	-0.548603	0.831467	-0.087732	-0.800815	-0.492406	0.340927
59934	11.250193	1.386563	3.280592	-0.915017	0.302205	0.108251	0.242049	0.259690	0.934865	-0.541560	0.835623	-0.091906	-0.805062	-0.484040	0.342900
59935	15.931609	0.694437	3.361729	-0.669928	0.160400	0.032495	0.243122	0.260889	0.934253	-0.536431	0.838627	-0.094589	-0.808167	-0.478166	0.343837
59936	17.231773	-1.086183	1.766300	0.018555	-0.457677	0.255747	0.237991	0.260864	0.935580	-0.537239	0.837839	-0.096949	-0.809157	-0.479558	0.339544
59937	13.587644	-4.967225	2.237027	1.097677	-0.847981	0.338438	0.229271	0.259694	0.938080	-0.547044	0.831523	-0.096495	-0.805095	-0.491048	0.332708
59938	8.410724	-7.045726	-1.243366	1.962904	-1.150017	0.443047	0.217541	0.257617	0.941440	-0.563798	0.820517	-0.094250	-0.796748	-0.510279	0.323740
59939	7.688911	-3.483106	-2.544516	2.528163	-1.320544	0.714518	0.202940	0.256668	0.944953	-0.585477	0.805336	-0.093007	-0.784877	-0.534374	0.313708
59940	8.367993	0.809845	-3.182918	2.024546	-0.859946	0.899066	0.190832	0.259192	0.946785	-0.603074	0.791977	-0.095258	-0.774523	-0.552803	0.307447
59941	6.524123	3.946226	-5.137261	0.963165	-0.346729	0.804221	0.183221	0.263703	0.947043	-0.612146	0.784398	-0.099985	-0.769225	-0.561409	0.305143
59942	5.379964	3.304898	-4.550158	-0.235286	-0.446700	0.592560	0.176095	0.265860	0.947791	-0.611437	0.784115	-0.106346	-0.771450	-0.560787	0.300636
59943	6.901624	1.090917	-1.826633	-0.625988	-0.785894	0.592280	0.166367	0.266168	0.949461	-0.607690	0.785971	-0.113855	-0.776553	-0.558036	0.292507
59944	8.544961	-2.315289	-1.046564	-0.715007	-1.141513	0.648769	0.153479	0.264937	0.951973	-0.603191	0.788194	-0.122108	-0.782690	-0.555481	0.280779
59945	9.312289	-4.757441	-2.737539	-0.892849	-1.456558	0.585571	0.138478	0.261530	0.955210	-0.597087	0.791546	-0.130160	-0.790133	-0.552319	0.265768
59946	10.481277	-5.083466	-3.233639	-0.774265	-1.567053	0.526832	0.122853	0.257086	0.958548	-0.591670	0.794414	-0.137233	-0.796765	-0.550284	0.249706
59947	10.475597	-4.096980	-2.214397	-0.479517	-1.435785	0.568172	0.107990	0.253736	0.961227	-0.588552	0.795553	-0.143881	-0.801214	-0.550194	0.235248
59948	10.279769	-1.468878	-1.215707	-0.396279	-1.322705	0.623303	0.093647	0.251435	0.963333	-0.586035	0.796125	-0.150824	-0.804856	-0.550423	0.221905
59949	10.279721	1.073255	-0.388707	-0.742820	-1.213217	0.555779	0.080566	0.249234	0.965086	-0.580577	0.798765	-0.157814	-0.810209	-0.547593	0.209053
59950	9.794024	1.325438	-0.455382	-1.195530	-1.069370	0.377089	0.069629	0.246456	0.966649	-0.571164	0.804302	-0.163922	-0.817878	-0.540701	0.196770
59951	9.438999	0.144359	-1.170945	-1.554660	-1.076753	0.214687	0.059525	0.242422	0.968343	-0.558525	0.812095	-0.168973	-0.827349	-0.530785	0.183738
59952	9.829997	-1.886921	-1.670773	-1.545453	-1.197310	0.163269	0.048603	0.237477	0.970177	-0.545791	0.819799	-0.173325	-0.836511	-0.521089	0.169458
59953	9.840729	-3.757664	-1.246380	-1.223888	-1.286926	0.182975	0.036770	0.232309	0.971947	-0.535576	0.825709	-0.177095	-0.843686	-0.514039	0.154781
59954	9.025089	-5.710326	-1.126062	-0.889479	-1.376462	0.195975	0.024021	0.226905	0.973621	-0.528143	0.829782	-0.180353	-0.848816	-0.509878	0.139770
59955	8.699916	-6.122396	-1.781138	-0.530372	-1.524264	0.224045	0.009846	0.221001	0.975224	-0.523668	0.831980	-0.183252	-0.851866	-0.508889	0.123923
59956	9.181731	-5.123741	-2.277761	-0.276965	-1.616538	0.231186	-0.005203	0.214710	0.976664	-0.521345	0.832857	-0.185872	-0.853330	-0.510146	0.107604
59957	10.024235	-3.093295	-1.508371	-0.037315	-1.579487	0.174518	-0.019640	0.208090	0.977912	-0.521034	0.832654	-0.187645	-0.853310	-0.513211	0.092068
59958	10.604091	-1.427184	-0.488206	-0.057190	-1.477582	0.122811	-0.032946	0.201532	0.978928	-0.520545	0.832667	-0.188940	-0.853198	-0.515801	0.077473
59959	10.466494	-0.249327	0.544565	-0.257837	-1.392512	0.130673	-0.045553	0.195440	0.979657	-0.518298	0.833729	-0.190428	-0.853986	-0.516429	0.063317
59960	9.651725	-0.484777	0.848487	-0.604554	-1.364006	0.140924	-0.058003	0.189611	0.980145	-0.513086	0.836543	-0.192194	-0.856375	-0.514046	0.048764
59961	9.473211	-1.144712	0.721333	-0.912865	-1.427050	0.132353	-0.070970	0.183419	0.980470	-0.505162	0.840963	-0.193887	-0.860101	-0.509057	0.032973
59962	9.436303	-2.423904	0.367010	-1.057535	-1.475811	0.136633	-0.084436	0.177127	0.980559	-0.495968	0.846039	-0.195535	-0.864226	-0.502836	0.016413
59963	9.412302	-3.700346	-0.180205	-0.951481	-1.529890	0.171154	-0.098568	0.170932	0.980340	-0.487581	0.850489	-0.197315	-0.867496	-0.497444	-0.000488
59964	9.554486	-4.035846	-0.454363	-0.732246	-1.530347	0.173387	-0.112755	0.164847	0.979853	-0.481067	0.853800	-0.198999	-0.869402	-0.493813	-0.016968
59965	9.702167	-3.885801	-0.576590	-0.478150	-1.495958	0.175101	-0.126648	0.158982	0.979125	-0.476690	0.855871	-0.200628	-0.869901	-0.492148	-0.032609
59966	9.821466	-2.950209	-0.237529	-0.366625	-1.399695	0.151332	-0.139599	0.153419	0.978251	-0.473327	0.857411	-0.202012	-0.869755	-0.491233	-0.047076
59967	9.711669	-2.079526	0.038190	-0.367818	-1.295170	0.103287	-0.151395	0.147970	0.977335	-0.469994	0.859041	-0.202865	-0.869589	-0.490054	-0.060509
59968	9.443195	-1.663556	0.098234	-0.478473	-1.234560	0.059799	-0.162468	0.142472	0.976374	-0.465765	0.861268	-0.203179	-0.869866	-0.487770	-0.073570
59969	9.628965	-1.560025	0.097555	-0.631721	-1.211613	0.053781	-0.173315	0.137061	0.975283	-0.460198	0.864241	-0.203236	-0.870735	-0.484047	-0.086711
59970	9.509481	-1.737646	-0.071551	-0.719692	-1.151641	0.050670	-0.183637	0.131976	0.974094	-0.453861	0.867615	-0.203111	-0.871945	-0.479403	-0.099427
59971	9.480150	-1.996470	-0.141348	-0.775297	-1.101403	0.064228	-0.193587	0.127303	0.972789	-0.446978	0.871216	-0.202960	-0.873347	-0.474106	-0.111755
59972	9.508477	-2.337619	-0.200351	-0.789093	-1.034033	0.072337	-0.203002	0.123085	0.971412	-0.439962	0.874821	-0.202788	-0.874771	-0.468550	-0.123437
59973	9.380076	-2.399181	-0.204015	-0.742204	-0.960432	0.086339	-0.211828	0.119389	0.969987	-0.433323	0.878145	-0.202715	-0.875991	-0.463258	-0.134281
59974	9.142301	-2.091760	-0.316265	-0.691266	-0.924658	0.100216	-0.220418	0.116035	0.968479	-0.427071	0.881188	-0.202775	-0.876941	-0.458304	-0.144675
59975	9.046570	-1.529403	-0.522206	-0.668320	-0.936964	0.100570	-0.229108	0.112675	0.966858	-0.421016	0.884093	-0.202795	-0.877642	-0.453525	-0.155115
59976	9.122455	-1.033766	-0.653130	-0.699911	-0.952344	0.095614	-0.237923	0.109253	0.965120	-0.414670	0.887120	-0.202649	-0.878317	-0.448421	-0.165763
59977	9.164537	-0.811486	-0.895265	-0.751579	-0.941633	0.077221	-0.246550	0.105780	0.963340	-0.407917	0.890356	-0.202165	-0.879100	-0.442807	-0.176368
59978	9.243309	-0.727014	-1.024503	-0.825113	-0.918446	0.056795	-0.254912	0.102275	0.961540	-0.400539	0.893902	-0.201267	-0.880107	-0.436440	-0.186901
59979	9.276116	-0.930457	-1.048633	-0.870869	-0.881066	0.033872	-0.262851	0.098789	0.959766	-0.392793	0.897623	-0.199967	-0.881262	-0.429551	-0.197138
59980	9.217921	-1.451523	-1.047034	-0.890966	-0.852258	0.027772	-0.270528	0.095436	0.957970	-0.384883	0.901370	-0.198487	-0.882428	-0.422403	-0.207114
59981	9.147282	-1.937534	-1.144176	-0.843646	-0.826298	0.027604	-0.277965	0.092254	0.956151	-0.377383	0.904858	-0.197015	-0.883356	-0.415598	-0.216703
59982	9.023470	-2.307427	-1.250008	-0.746687	-0.817751	0.015146	-0.285299	0.089046	0.954293	-0.370763	0.907904	-0.195562	-0.883821	-0.409610	-0.226010
59983	9.039778	-2.431724	-1.526605	-0.665135	-0.821259	0.005846	-0.292603	0.085795	0.952377	-0.364917	0.910573	-0.194144	-0.883866	-0.404346	-0.235128
59984	9.209209	-2.309799	-1.704877	-0.583835	-0.830599	-0.008163	-0.299965	0.082411	0.950384	-0.359802	0.912908	-0.192723	-0.883495	-0.399760	-0.244188
59985	9.521904	-1.947298	-1.634814	-0.539647	-0.833515	-0.022781	-0.307280	0.078916	0.948341	-0.355138	0.915048	-0.191217	-0.882868	-0.395549	-0.253150
59986	9.764571	-1.555481	-1.382222	-0.538371	-0.808111	-0.040913	-0.314319	0.075392	0.946319	-0.350533	0.917179	-0.189499	-0.882230	-0.391279	-0.261859
59987	9.874134	-1.197567	-1.041389	-0.596967	-0.762607	-0.052816	-0.320879	0.071987	0.944381	-0.345501	0.919499	-0.187483	-0.881854	-0.386444	-0.270177
59988	9.828308	-0.869203	-0.693422	-0.682374	-0.722071	-0.068507	-0.327062	0.068616	0.942508	-0.339724	0.922147	-0.185023	-0.881826	-0.380707	-0.278289
59989	9.716668	-0.789904	-0.485950	-0.830699	-0.701738	-0.071180	-0.333035	0.065357	0.940647	-0.332690	0.925292	-0.182079	-0.882273	-0.373582	-0.286411
59990	9.731888	-0.846470	-0.210436	-0.992223	-0.686743	-0.069093	-0.338920	0.062212	0.938756	-0.324181	0.928982	-0.178604	-0.883199	-0.364859	-0.294682
59991	9.572823	-1.309428	-0.071821	-1.133455	-0.685129	-0.066631	-0.344776	0.059155	0.936819	-0.314444	0.933073	-0.174642	-0.884452	-0.354790	-0.303100
59992	9.504080	-1.692351	0.110492	-1.202158	-0.686264	-0.095285	-0.350604	0.055898	0.934854	-0.304152	0.937311	-0.170113	-0.885758	-0.343981	-0.311624
59993	9.744719	-1.982579	0.277246	-1.211772	-0.663290	-0.147395	-0.356078	0.052313	0.932991	-0.293972	0.941467	-0.164984	-0.887011	-0.333020	-0.319857
59994	10.179288	-2.289216	0.386846	-1.187891	-0.617608	-0.184641	-0.361074	0.048582	0.931271	-0.284107	0.945437	-0.159475	-0.888205	-0.322163	-0.327570
59995	10.482539	-2.477903	0.423368	-1.127250	-0.548753	-0.200990	-0.365376	0.044998	0.929772	-0.274945	0.949050	-0.153977	-0.889329	-0.311896	-0.334388
59996	10.753738	-2.447267	0.832332	-1.010902	-0.502694	-0.206593	-0.369336	0.041525	0.928368	-0.266726	0.952231	-0.148705	-0.890195	-0.302542	-0.340618
59997	11.169747	-2.259479	1.335762	-0.888731	-0.424118	-0.208596	-0.372554	0.038348	0.927218	-0.259741	0.954903	-0.143856	-0.890920	-0.294430	-0.345792
59998	11.428925	-1.876614	2.518495	-0.770678	-0.331589	-0.202338	-0.375036	0.035485	0.926331	-0.253645	0.957206	-0.139358	-0.891635	-0.287223	-0.349987
59999	12.347023	-2.408971	3.873945	-0.781021	-0.217940	-0.178358	-0.376517	0.033216	0.925814	-0.247498	0.959427	-0.135076	-0.892737	-0.279995	-0.353020
60000	14.073168	-3.520527	4.815997	-0.872324	-0.015074	-0.147046	-0.376340	0.031798	0.925936	-0.240272	0.961868	-0.130689	-0.894784	-0.271660	-0.354349
60001	14.664175	-3.383757	5.441409	-0.812829	0.261689	-0.175595	-0.373554	0.030890	0.927094	-0.233855	0.964027	-0.126348	-0.897646	-0.264003	-0.352892
60002	14.744588	-1.759843	5.508084	-0.612238	0.576143	-0.301613	-0.367719	0.029521	0.929468	-0.229484	0.965704	-0.121461	-0.901177	-0.257961	-0.348333
60003	14.624261	0.837181	5.127450	-0.404587	1.008450	-0.525739	-0.357413	0.027061	0.933554	-0.227839	0.966854	-0.115254	-0.905729	-0.253893	-0.339400
60004	13.732928	3.412272	4.580453	-0.320188	1.443463	-0.740386	-0.342657	0.023577	0.939165	-0.227540	0.967837	-0.107315	-0.911489	-0.250470	-0.326271
60005	12.889620	4.547977	4.252172	-0.573293	1.761998	-0.784318	-0.324704	0.020395	0.945596	-0.225104	0.969373	-0.098205	-0.918638	-0.244745	-0.310168
60006	12.744392	3.646010	3.660311	-1.108096	1.957663	-0.653301	-0.305237	0.018774	0.952091	-0.216956	0.972141	-0.088725	-0.927233	-0.233644	-0.292660
60007	13.224355	1.010246	2.898882	-1.610964	2.210998	-0.449026	-0.283611	0.019431	0.958742	-0.203432	0.975819	-0.079956	-0.937113	-0.217715	-0.272800
60008	13.286926	-2.057129	0.656954	-2.024430	2.496258	-0.245823	-0.259651	0.022249	0.965446	-0.185043	0.980063	-0.072352	-0.947808	-0.197435	-0.250357
60009	12.686003	-4.560459	-2.768568	-2.236538	2.634766	-0.103603	-0.234251	0.026170	0.971824	-0.164183	0.984214	-0.066079	-0.958212	-0.175036	-0.226257
60010	12.916958	-5.845842	-5.637149	-1.980810	2.559806	-0.000235	-0.209653	0.030433	0.977302	-0.145143	0.987473	-0.061886	-0.966943	-0.154823	-0.202609
60011	12.882815	-6.007481	-6.756499	-1.248748	2.437261	0.054806	-0.185984	0.034664	0.981941	-0.133163	0.989267	-0.060144	-0.973487	-0.141944	-0.179372
60012	12.740568	-5.070077	-6.429884	-0.351755	2.244678	0.034212	-0.164170	0.038185	0.985693	-0.129702	0.989739	-0.059944	-0.977868	-0.137688	-0.157533
60013	13.089132	-4.080375	-4.961743	0.367122	2.080847	-0.028360	-0.143686	0.040854	0.988780	-0.133560	0.989206	-0.060280	-0.980569	-0.140723	-0.136679
60014	13.608336	-3.206477	-3.726611	0.800934	2.056676	-0.084381	-0.123429	0.043030	0.991420	-0.141567	0.988078	-0.060510	-0.982204	-0.147821	-0.115866
60015	12.267507	-2.074500	-4.468159	1.027172	2.086115	-0.100488	-0.102714	0.045245	0.993681	-0.152002	0.986519	-0.060631	-0.983029	-0.157269	-0.094452
60016	10.893289	0.318858	-4.376695	0.917946	1.897464	-0.168360	-0.083838	0.046691	0.995385	-0.161220	0.985106	-0.059788	-0.983351	-0.165488	-0.075062
60017	11.692466	1.114290	-3.846622	0.586544	1.759799	-0.171619	-0.066197	0.047978	0.996652	-0.167337	0.984163	-0.058491	-0.983675	-0.170649	-0.057120
60018	12.295483	1.020783	-2.733805	0.257150	1.928881	-0.084220	-0.047119	0.050499	0.997612	-0.169953	0.983754	-0.057825	-0.984325	-0.172272	-0.037771
60019	11.794287	-0.375535	-2.868554	-0.102947	2.059401	0.093876	-0.027022	0.054938	0.998124	-0.169002	0.983865	-0.058729	-0.985245	-0.170272	-0.017301
60020	10.930068	-1.696846	-3.684385	-0.286533	2.055616	0.265867	-0.007251	0.061057	0.998108	-0.166172	0.984183	-0.061412	-0.986070	-0.166303	0.003010
60021	10.047605	-2.305800	-4.297656	-0.312274	1.902516	0.378675	0.010889	0.067895	0.997633	-0.163266	0.984424	-0.065214	-0.986522	-0.162169	0.021804
60022	9.916162	-2.877119	-4.870549	-0.131024	1.756196	0.457714	0.027424	0.075270	0.996786	-0.162103	0.984297	-0.069867	-0.986393	-0.159666	0.039194
60023	9.964319	-2.989490	-4.965915	0.083137	1.672174	0.500207	0.043089	0.082931	0.995623	-0.163290	0.983733	-0.074874	-0.985637	-0.159349	0.055930
60024	9.947627	-3.395703	-5.203727	0.315457	1.641990	0.519457	0.058360	0.090713	0.994166	-0.166704	0.982765	-0.079887	-0.984278	-0.161070	0.072476
60025	9.537763	-3.498222	-5.288743	0.593937	1.632303	0.551355	0.073452	0.098919	0.992381	-0.173118	0.981227	-0.084993	-0.982158	-0.165556	0.089198
60026	9.043995	-3.861516	-5.225537	0.879664	1.639257	0.604647	0.088409	0.107659	0.990249	-0.182280	0.979103	-0.090173	-0.979264	-0.172530	0.106186
60027	8.619916	-3.904599	-5.070267	1.251247	1.598063	0.626792	0.102827	0.116796	0.987818	-0.195350	0.976114	-0.095077	-0.975328	-0.183194	0.123187
60028	8.232554	-3.834484	-5.135877	1.659821	1.551591	0.614738	0.116622	0.125780	0.985179	-0.212218	0.972195	-0.099000	-0.970238	-0.197527	0.140073
60029	8.056756	-3.732519	-5.384345	2.127401	1.526056	0.535378	0.130152	0.134308	0.982355	-0.233688	0.967025	-0.101250	-0.963561	-0.216387	0.157247
60030	7.914754	-3.003299	-5.112124	2.553689	1.560179	0.444948	0.143977	0.142188	0.979313	-0.258846	0.960580	-0.101413	-0.955128	-0.238890	0.175106
60031	7.657240	-2.098911	-4.639706	2.834437	1.564764	0.346816	0.157854	0.149624	0.976061	-0.286536	0.952865	-0.099728	-0.944976	-0.263934	0.193286
60032	7.491513	-1.255399	-3.870194	2.939006	1.525612	0.256933	0.171363	0.156321	0.972727	-0.314616	0.944319	-0.096330	-0.933623	-0.289528	0.211002
60033	7.331410	-0.731193	-3.105400	2.814757	1.439916	0.192544	0.184036	0.162652	0.969368	-0.341295	0.935427	-0.092162	-0.921764	-0.313879	0.227665
60034	7.185342	-0.449862	-2.450133	2.536369	1.308599	0.172577	0.195363	0.168542	0.966140	-0.364907	0.926885	-0.087907	-0.910317	-0.335377	0.242581
60035	6.975183	0.013458	-1.987105	2.236232	1.151236	0.185303	0.205025	0.174387	0.963096	-0.385718	0.918762	-0.084247	-0.899548	-0.354211	0.255634
60036	6.761067	0.681822	-1.522832	1.922387	0.944088	0.201630	0.212624	0.179685	0.960471	-0.403390	0.911418	-0.081207	-0.889982	-0.370178	0.266273
60037	6.472975	1.418051	-1.309295	1.649098	0.737268	0.184416	0.218333	0.184288	0.958315	-0.418576	0.904772	-0.078627	-0.881547	-0.383961	0.274680
60038	6.292343	2.215701	-0.970619	1.383533	0.515154	0.128224	0.222258	0.187483	0.956792	-0.431056	0.899115	-0.076049	-0.874524	-0.395528	0.280651
60039	6.382394	3.065700	-0.634787	1.070408	0.294790	0.055870	0.224521	0.189288	0.955908	-0.440666	0.894644	-0.073654	-0.869140	-0.404699	0.284279
60040	6.561625	3.465488	-0.257310	0.693561	0.101892	-0.011868	0.225403	0.189628	0.955633	-0.446705	0.891812	-0.071600	-0.865822	-0.410747	0.285725
60041	7.036877	3.625164	0.239101	0.357016	-0.059544	-0.059094	0.225093	0.188950	0.955840	-0.449781	0.890385	-0.070090	-0.864309	-0.414142	0.285406
60042	7.845162	3.339988	0.770560	0.132284	-0.147469	-0.078310	0.224117	0.187670	0.956322	-0.450797	0.889956	-0.069001	-0.864034	-0.415642	0.284055
60043	8.587369	2.852801	1.390713	-0.000983	-0.135511	-0.065349	0.223186	0.186590	0.956751	-0.450731	0.890033	-0.068434	-0.864309	-0.415964	0.282745
60044	8.874794	2.185593	1.956809	-0.020874	-0.016020	-0.029079	0.223124	0.186294	0.956823	-0.450534	0.890146	-0.068251	-0.864427	-0.415853	0.282545
60045	9.024892	1.578125	2.407910	0.031496	0.125081	0.059831	0.223885	0.187391	0.956431	-0.451007	0.889867	-0.068776	-0.863984	-0.415959	0.283742
60046	8.801194	0.365297	2.477782	0.074321	0.275751	0.177522	0.225409	0.190147	0.955529	-0.452096	0.889195	-0.070297	-0.863018	-0.416145	0.286398
60047	8.744539	-0.978185	2.451235	0.115259	0.347884	0.360017	0.226730	0.194828	0.954272	-0.453960	0.887991	-0.073438	-0.861693	-0.416550	0.289778
60048	8.725809	-2.153885	2.235175	0.238345	0.373346	0.573237	0.227277	0.201500	0.952756	-0.457361	0.885832	-0.078244	-0.859748	-0.417970	0.293487
60049	9.039979	-3.031365	2.417803	0.578291	0.362903	0.751439	0.226878	0.209703	0.951079	-0.464089	0.881823	-0.083726	-0.856240	-0.422390	0.297387
60050	9.447317	-3.147215	3.021100	0.972837	0.332900	0.850484	0.225674	0.218626	0.949355	-0.474366	0.875824	-0.088930	-0.850910	-0.430272	0.301359
60051	9.876214	-2.849827	3.771165	1.249907	0.294615	0.859227	0.223986	0.227451	0.947680	-0.486964	0.868421	-0.093333	-0.844214	-0.440580	0.305274
60052	10.496890	-2.413259	4.936535	1.411192	0.386697	0.802291	0.223217	0.236138	0.945734	-0.500664	0.860233	-0.096620	-0.836367	-0.451927	0.310245
60053	10.703285	-1.764107	5.996128	1.467699	0.620472	0.714840	0.224692	0.245155	0.943087	-0.514559	0.851742	-0.098815	-0.827492	-0.463071	0.317526
60054	10.071611	-0.571939	6.532495	1.489588	0.787279	0.616439	0.227898	0.254092	0.939947	-0.528256	0.843193	-0.099857	-0.817929	-0.473776	0.326388
60055	9.102939	0.075494	6.617015	1.475286	0.724171	0.505278	0.231024	0.261868	0.937045	-0.541505	0.834756	-0.099776	-0.808332	-0.484364	0.334651
60056	8.361585	0.300472	6.642589	1.431123	0.562465	0.374598	0.233436	0.267757	0.934780	-0.553925	0.826722	-0.098478	-0.799171	-0.494810	0.341304
60057	8.100598	0.183639	6.816110	1.296909	0.475800	0.233302	0.235853	0.272126	0.932910	-0.564881	0.819540	-0.096246	-0.790748	-0.504283	0.347010
60058	8.026798	-0.032550	6.524465	1.098188	0.443018	0.110643	0.238653	0.275303	0.931264	-0.573834	0.813620	-0.093470	-0.783428	-0.512084	0.352151
60059	7.727860	0.014024	5.884395	0.899726	0.338851	0.022557	0.241108	0.277311	0.930035	-0.581017	0.808839	-0.090548	-0.777359	-0.518535	0.356140
60060	7.728861	0.322635	5.108632	0.660625	0.173263	-0.026270	0.242546	0.278023	0.929448	-0.586121	0.805433	-0.087975	-0.773068	-0.523431	0.358310
60061	7.878686	0.669843	4.317418	0.346930	0.006270	-0.037457	0.242756	0.277837	0.929449	-0.588820	0.803629	-0.086437	-0.770948	-0.526295	0.358682
60062	8.228288	0.903381	3.324813	0.026382	-0.134094	-0.049152	0.241953	0.276758	0.929981	-0.588950	0.803589	-0.085917	-0.771101	-0.526924	0.357428
60063	8.689353	0.741076	2.686603	-0.209375	-0.228888	-0.039019	0.240361	0.275316	0.930821	-0.587346	0.804716	-0.086350	-0.772820	-0.525959	0.355128
60064	9.879663	0.138033	2.417172	-0.230231	-0.180907	-0.009426	0.238958	0.274311	0.931479	-0.585589	0.805914	-0.087109	-0.774587	-0.524648	0.353213
60065	8.448658	-0.444945	0.956973	-0.045637	-0.256832	0.058768	0.236571	0.273502	0.932325	-0.585471	0.805918	-0.087861	-0.775408	-0.525064	0.350785
60066	11.315882	-0.190995	-0.631112	0.140611	-1.139515	0.092208	0.227126	0.268259	0.936190	-0.586822	0.804890	-0.088269	-0.777209	-0.529328	0.340232
60067	19.397243	1.402360	0.373693	0.434604	-1.449037	0.074612	0.215370	0.261183	0.940956	-0.590444	0.802315	-0.087557	-0.777812	-0.536725	0.327009
60068	20.615850	-0.036287	2.998638	1.355008	-0.695100	0.104014	0.209308	0.258259	0.943129	-0.601204	0.794649	-0.084176	-0.771196	-0.549395	0.321593
60069	13.661446	-1.525437	7.150369	2.383747	-0.157933	0.401596	0.205604	0.260553	0.943313	-0.620295	0.780246	-0.080313	-0.756942	-0.568619	0.322041
60070	7.475908	-1.022046	7.561793	2.405387	-0.785150	0.894754	0.194015	0.262933	0.945106	-0.640170	0.763939	-0.081115	-0.743331	-0.589291	0.316537
60071	6.733183	1.458242	4.816170	1.507086	-1.434343	1.123512	0.176088	0.262914	0.948614	-0.653456	0.751936	-0.087105	-0.736198	-0.604540	0.304210
60072	7.413642	3.204150	0.593855	0.321048	-1.571732	0.999574	0.157900	0.260870	0.952373	-0.657531	0.747327	-0.095688	-0.736696	-0.611106	0.289533
60073	8.140578	3.323360	-3.179776	-0.829767	-1.410975	0.784690	0.142270	0.258156	0.955571	-0.652610	0.750308	-0.105539	-0.744218	-0.608600	0.275221
60074	8.152630	0.945199	-5.083821	-1.668505	-1.159172	0.666236	0.129201	0.256199	0.957951	-0.641033	0.758630	-0.116434	-0.756560	-0.599035	0.262248
60075	7.564174	-2.746482	-4.514221	-1.730364	-1.054034	0.569633	0.117510	0.254267	0.959969	-0.628543	0.767446	-0.126333	-0.768847	-0.588536	0.250000
60076	6.873051	-6.845559	-3.555617	-1.044364	-1.159575	0.434967	0.105772	0.250838	0.962233	-0.620998	0.772429	-0.133097	-0.776643	-0.583467	0.237471
60077	7.000777	-9.572770	-2.853720	-0.085689	-1.458628	0.290642	0.092583	0.244527	0.965212	-0.620615	0.772213	-0.136103	-0.778630	-0.586425	0.223251
60078	9.468386	-8.628385	-2.651506	0.717037	-1.660234	0.292125	0.077799	0.236977	0.968395	-0.626475	0.767232	-0.137420	-0.775549	-0.595984	0.208150
60079	11.539214	-4.137896	-2.481844	1.173616	-1.572107	0.398778	0.063083	0.230544	0.971015	-0.635830	0.759219	-0.138951	-0.769247	-0.608635	0.194481
60080	11.372450	0.616084	-1.611257	1.023069	-1.390502	0.476776	0.049315	0.225622	0.972966	-0.643974	0.751810	-0.141698	-0.763456	-0.619577	0.182371
60081	10.299752	2.808840	-0.876101	0.515902	-1.230660	0.467185	0.036862	0.221437	0.974478	-0.648097	0.747557	-0.145357	-0.760665	-0.626198	0.171069
60082	9.377403	2.825163	-0.375288	-0.101689	-1.144653	0.377546	0.025643	0.217096	0.975813	-0.647476	0.747329	-0.149249	-0.761655	-0.627988	0.159728
60083	9.389838	1.328576	0.150612	-0.604135	-1.166025	0.289514	0.014819	0.211910	0.977177	-0.642881	0.750528	-0.153010	-0.765823	-0.625941	0.147355
60084	9.788306	-0.445036	0.278358	-0.914482	-1.247955	0.265061	0.003469	0.206136	0.978517	-0.635909	0.755641	-0.156930	-0.771756	-0.621703	0.133705
60085	9.399316	-2.690339	-0.027556	-0.971397	-1.355845	0.287975	-0.008906	0.199872	0.979782	-0.628321	0.761117	-0.160977	-0.777903	-0.617051	0.118805
60086	9.350417	-3.449048	-0.106914	-0.834206	-1.461421	0.280067	-0.022122	0.193033	0.980943	-0.621801	0.765663	-0.164693	-0.782863	-0.613594	0.103090
60087	9.245586	-3.923691	-0.161921	-0.648055	-1.576798	0.254534	-0.036124	0.185283	0.982021	-0.616588	0.769194	-0.167809	-0.786457	-0.611564	0.086457
60088	9.617113	-3.219214	-0.044866	-0.592215	-1.696405	0.250313	-0.051088	0.176866	0.982908	-0.611845	0.772323	-0.170774	-0.789326	-0.610112	0.068758
60089	10.196551	-2.827151	-0.052161	-0.680846	-1.706651	0.286230	-0.066387	0.168652	0.983437	-0.606241	0.776012	-0.174005	-0.792505	-0.607752	0.050727
60090	10.455529	-2.231366	0.337030	-0.789778	-1.645327	0.353064	-0.081644	0.161445	0.983499	-0.599737	0.780181	-0.177856	-0.796021	-0.604362	0.033127
60091	10.352658	-1.161043	0.884562	-0.977809	-1.532115	0.396526	-0.096296	0.155298	0.983163	-0.591528	0.785473	-0.182008	-0.800513	-0.599095	0.016225
60092	9.953390	-1.614934	1.050259	-1.158327	-1.422879	0.365707	-0.109929	0.149724	0.982598	-0.581877	0.791781	-0.185747	-0.805813	-0.592170	0.000081
60093	9.671545	-1.769973	1.622969	-1.239664	-1.254588	0.238388	-0.121509	0.144215	0.982058	-0.571525	0.798756	-0.188011	-0.811538	-0.584116	-0.014634
60094	9.434917	-1.864785	1.869792	-1.207395	-1.128487	0.101220	-0.131330	0.138499	0.981616	-0.561595	0.805585	-0.188798	-0.816923	-0.576065	-0.028017
60095	9.575379	-1.897585	1.694161	-1.093580	-1.091226	0.048842	-0.140600	0.132629	0.981143	-0.552526	0.811804	-0.188917	-0.821551	-0.568668	-0.040858
60096	9.798419	-2.129184	1.565192	-1.076954	-1.059821	0.047270	-0.149647	0.127047	0.980543	-0.543614	0.817797	-0.188925	-0.825887	-0.561309	-0.053317
60097	9.975216	-2.196799	1.399290	-1.073901	-0.980796	0.072059	-0.158215	0.122159	0.979819	-0.534577	0.823711	-0.189017	-0.830178	-0.553694	-0.065020
60098	10.053369	-2.304633	1.080923	-1.045058	-0.893963	0.086547	-0.166171	0.117979	0.979014	-0.525767	0.829325	-0.189181	-0.834240	-0.546169	-0.075780
60099	9.973713	-2.560495	0.529833	-0.977551	-0.810805	0.116487	-0.173615	0.114546	0.978129	-0.517371	0.834503	-0.189558	-0.837965	-0.538966	-0.085619
60100	9.524942	-2.791755	-0.146164	-0.899558	-0.744596	0.134923	-0.180616	0.111708	0.977189	-0.509606	0.839140	-0.190119	-0.841237	-0.532320	-0.094635
60101	9.199920	-2.893211	-0.725728	-0.871995	-0.713400	0.119595	-0.187290	0.108943	0.976245	-0.502021	0.843625	-0.190455	-0.844333	-0.525765	-0.103311
60102	9.058460	-3.101700	-0.950253	-0.849556	-0.711114	0.081186	-0.193765	0.105937	0.975311	-0.494707	0.847949	-0.190386	-0.847183	-0.519384	-0.111896
60103	9.116040	-3.180871	-0.973110	-0.793458	-0.698452	0.046502	-0.199977	0.102733	0.974400	-0.487874	0.851996	-0.189954	-0.849699	-0.513371	-0.120259
60104	9.099977	-2.920155	-0.948412	-0.724013	-0.669731	0.024761	-0.205851	0.099548	0.973507	-0.481690	0.855641	-0.189350	-0.851822	-0.507906	-0.128183
60105	8.901389	-2.437583	-1.122843	-0.644448	-0.644576	0.010404	-0.211455	0.096392	0.972623	-0.476171	0.858881	-0.188642	-0.853551	-0.503024	-0.135715
60106	9.079769	-1.842881	-1.265005	-0.565693	-0.662904	-0.005374	-0.217147	0.093050	0.971694	-0.471376	0.861693	-0.187855	-0.854782	-0.498825	-0.143253
60107	9.344585	-1.087556	-1.371427	-0.539231	-0.650228	-0.008290	-0.222728	0.089762	0.970739	-0.466781	0.864371	-0.187026	-0.855867	-0.494779	-0.150620
60108	9.312203	-0.595344	-1.412163	-0.580130	-0.630517	0.000890	-0.228187	0.086690	0.969750	-0.461836	0.867202	-0.186195	-0.857110	-0.490353	-0.157848
60109	9.158363	-0.416934	-1.340325	-0.662608	-0.641286	0.010494	-0.233794	0.083666	0.968680	-0.456121	0.870419	-0.185266	-0.858658	-0.485149	-0.165337
60110	9.104333	-0.704648	-1.319745	-0.736594	-0.662744	0.018080	-0.239627	0.080654	0.967509	-0.449772	0.873932	-0.184250	-0.860398	-0.479310	-0.173142
60111	8.995686	-1.272334	-1.297521	-0.784975	-0.663213	0.027671	-0.245518	0.077751	0.966269	-0.442931	0.877646	-0.183164	-0.862283	-0.472961	-0.181040
60112	8.856036	-1.843559	-1.311115	-0.799523	-0.657047	0.025537	-0.251357	0.074916	0.964991	-0.435991	0.881358	-0.181988	-0.864137	-0.466471	-0.188873
60113	8.776278	-2.312353	-1.387271	-0.757528	-0.655009	0.027113	-0.257194	0.072134	0.963664	-0.429358	0.884847	-0.180827	-0.865738	-0.460264	-0.196606
60114	8.786321	-2.564190	-1.484156	-0.688310	-0.674525	0.018659	-0.263171	0.069241	0.962261	-0.423370	0.887959	-0.179683	-0.866890	-0.454680	-0.204370
60115	8.945195	-2.627386	-1.535342	-0.631140	-0.682454	0.011834	-0.269194	0.066279	0.960803	-0.417859	0.890799	-0.178524	-0.867714	-0.449538	-0.212103
60116	8.949964	-2.614489	-1.435264	-0.585999	-0.680708	0.014660	-0.275217	0.063394	0.959290	-0.412756	0.893388	-0.177457	-0.868267	-0.444792	-0.219709
60117	8.887979	-2.724679	-1.200274	-0.539185	-0.680060	0.028994	-0.281296	0.060665	0.957702	-0.407994	0.895746	-0.176576	-0.868570	-0.440407	-0.227219
60118	9.080706	-2.751834	-1.051927	-0.489391	-0.670729	0.045579	-0.287359	0.058161	0.956055	-0.403636	0.897843	-0.175940	-0.868621	-0.436457	-0.234528
60119	9.331161	-2.553597	-0.961280	-0.454405	-0.614496	0.056068	-0.292976	0.056020	0.954477	-0.399538	0.899771	-0.175447	-0.868639	-0.432752	-0.241229
60120	9.443726	-1.986818	-0.892354	-0.465298	-0.552841	0.046521	-0.298016	0.054086	0.953027	-0.395381	0.901729	-0.174812	-0.868827	-0.428905	-0.247344
60121	9.396547	-1.329030	-0.910700	-0.518033	-0.518713	0.022962	-0.302666	0.052109	0.951671	-0.390830	0.903907	-0.173792	-0.869279	-0.424542	-0.253216
60122	9.594269	-0.831644	-0.949262	-0.608488	-0.517907	-0.006505	-0.307196	0.049895	0.950337	-0.385579	0.906458	-0.172229	-0.870034	-0.419339	-0.259222
60123	9.823103	-0.596216	-0.876207	-0.703653	-0.505579	-0.044409	-0.311477	0.047416	0.949070	-0.379613	0.909388	-0.170020	-0.871135	-0.413237	-0.265254
60124	9.889279	-0.705232	-0.694619	-0.767594	-0.497340	-0.081481	-0.315557	0.044666	0.947855	-0.373198	0.912552	-0.167246	-0.872437	-0.406513	-0.271293
60125	9.978112	-1.024678	-0.489126	-0.800210	-0.479040	-0.097986	-0.319424	0.041870	0.946686	-0.366545	0.915800	-0.164181	-0.873849	-0.399447	-0.277181
60126	9.999390	-1.492114	-0.262382	-0.768958	-0.464972	-0.101666	-0.323172	0.039127	0.945531	-0.360168	0.918868	-0.161125	-0.875122	-0.392621	-0.282860
60127	10.030421	-1.723302	-0.075355	-0.730992	-0.433566	-0.095576	-0.326670	0.036591	0.944430	-0.354107	0.921728	-0.158194	-0.876296	-0.386106	-0.288144
60128	10.062023	-1.845578	0.042674	-0.680243	-0.405795	-0.103859	-0.329913	0.034110	0.943395	-0.348504	0.924353	-0.155296	-0.877327	-0.380011	-0.293069
60129	10.019564	-1.756270	0.215926	-0.647346	-0.394423	-0.125850	-0.332979	0.031493	0.942408	-0.343280	0.926809	-0.152262	-0.878227	-0.374210	-0.297798
60130	10.172007	-1.713937	0.128200	-0.668165	-0.402537	-0.158295	-0.336027	0.028562	0.941419	-0.337959	0.929319	-0.148825	-0.879130	-0.368171	-0.302624
60131	10.491763	-1.712502	0.096319	-0.704951	-0.399523	-0.198012	-0.338912	0.025299	0.940478	-0.332481	0.931915	-0.144882	-0.880111	-0.361793	-0.307426
60132	10.792306	-1.664531	0.452347	-0.705924	-0.362710	-0.236017	-0.341377	0.021829	0.939673	-0.327087	0.934485	-0.140538	-0.881178	-0.355332	-0.311872
60133	11.146019	-1.638399	1.200061	-0.692901	-0.322628	-0.270062	-0.343376	0.018207	0.939022	-0.321970	0.936945	-0.135903	-0.882286	-0.349003	-0.315862
60134	11.786304	-2.092807	2.300784	-0.688562	-0.248656	-0.284572	-0.344711	0.014712	0.938594	-0.316890	0.939357	-0.131106	-0.883604	-0.342624	-0.319145
60135	12.891638	-2.757551	3.458434	-0.655520	-0.137857	-0.255808	-0.345148	0.011883	0.938473	-0.312064	0.941576	-0.126692	-0.885149	-0.336591	-0.321275
60136	13.682457	-2.953077	4.423295	-0.513329	0.039959	-0.221212	-0.344156	0.009967	0.938859	-0.308298	0.943301	-0.123026	-0.886853	-0.331789	-0.321570
60137	13.897600	-2.536089	5.718719	-0.370693	0.257854	-0.232759	-0.341164	0.008674	0.939964	-0.305929	0.944493	-0.119754	-0.888827	-0.328418	-0.319573
60138	14.267564	-1.301974	6.345988	-0.337389	0.571430	-0.361935	-0.335021	0.007156	0.942183	-0.304170	0.945609	-0.115339	-0.891763	-0.325225	-0.314622
60139	14.100371	0.940607	5.019079	-0.255856	1.071711	-0.587954	-0.323652	0.005129	0.946162	-0.303982	0.946409	-0.109113	-0.896016	-0.322931	-0.304748
60140	12.915928	3.341415	3.589295	-0.289432	1.456865	-0.792370	-0.308198	0.002347	0.951319	-0.303907	0.947355	-0.100793	-0.901474	-0.320176	-0.291260
60141	12.379360	4.224977	3.380365	-0.571628	1.669623	-0.825211	-0.290580	-0.000111	0.956851	-0.301372	0.949115	-0.091412	-0.908151	-0.314930	-0.275827
60142	12.628501	3.096722	3.560418	-0.931669	1.935481	-0.706400	-0.270866	-0.000779	0.962617	-0.294880	0.951992	-0.082204	-0.916339	-0.306123	-0.258092
60143	13.018066	0.534739	3.215284	-1.315612	2.266830	-0.535282	-0.248411	0.000981	0.968654	-0.284309	0.955882	-0.073879	-0.925992	-0.293749	-0.237173
60144	13.068471	-2.554056	1.111357	-1.721829	2.551569	-0.367239	-0.223676	0.004784	0.974652	-0.269166	0.960796	-0.066487	-0.936760	-0.277215	-0.213620
60145	12.912574	-4.574468	-2.189861	-1.937244	2.662372	-0.175646	-0.198106	0.010305	0.980126	-0.251463	0.965944	-0.060982	-0.947376	-0.258546	-0.188768
60146	12.624154	-5.575418	-5.184775	-1.858007	2.584443	-0.052750	-0.173419	0.016280	0.984714	-0.233903	0.970574	-0.057239	-0.956669	-0.240253	-0.164508
60147	12.665462	-5.453615	-6.731975	-1.365609	2.326465	0.061929	-0.151195	0.022417	0.988250	-0.220898	0.973695	-0.055883	-0.963506	-0.226751	-0.142265
60148	12.982460	-4.992454	-6.663972	-0.632821	2.031488	0.104448	-0.131851	0.028015	0.990874	-0.214674	0.975071	-0.056134	-0.967745	-0.220116	-0.122550
60149	13.354430	-4.272935	-5.547828	0.068626	1.890332	0.092528	-0.113716	0.033203	0.992958	-0.215453	0.974833	-0.057271	-0.969870	-0.220448	-0.103701
60150	13.369515	-3.343014	-4.038070	0.585320	1.890808	0.055010	-0.095537	0.037996	0.994700	-0.221111	0.973497	-0.058424	-0.970558	-0.225521	-0.084604
60151	12.936006	-2.478608	-3.774859	0.771570	1.949962	0.069609	-0.076756	0.043275	0.996110	-0.228780	0.971637	-0.059840	-0.970447	-0.232483	-0.064678
60152	11.309509	-1.275116	-4.554759	0.718618	1.930653	0.102352	-0.058308	0.048857	0.997102	-0.235723	0.969885	-0.061308	-0.970070	-0.238615	-0.045035
60153	10.760520	0.825727	-4.187687	0.479450	1.806536	0.072941	-0.040953	0.054053	0.997698	-0.240576	0.968626	-0.062353	-0.969766	-0.242575	-0.026665
60154	11.105842	0.980779	-3.363515	0.131100	1.793943	0.051406	-0.023725	0.058945	0.997979	-0.241872	0.968265	-0.062940	-0.970018	-0.242876	-0.008715
60155	11.304398	-0.217175	-3.051053	-0.021368	1.906876	0.129198	-0.005538	0.064952	0.997873	-0.241863	0.968173	-0.064361	-0.970295	-0.241705	0.010348
60156	10.736573	-0.469957	-3.152761	-0.078737	1.938270	0.256377	0.012604	0.072140	0.997315	-0.241151	0.968173	-0.066985	-0.970406	-0.239659	0.029599
60157	10.095361	-1.071525	-3.907152	-0.104800	1.798692	0.379527	0.029137	0.080240	0.996350	-0.240420	0.968074	-0.070933	-0.970232	-0.237475	0.047498
60158	10.016391	-1.014567	-4.208366	0.030677	1.621439	0.474949	0.043672	0.088720	0.995099	-0.240935	0.967585	-0.075693	-0.969558	-0.236449	0.063632
60159	10.315274	-1.452341	-4.468285	0.134160	1.458109	0.545240	0.056468	0.097574	0.993625	-0.242704	0.966701	-0.081138	-0.968455	-0.236575	0.078270
60160	10.418693	-2.134164	-4.668476	0.393632	1.482781	0.610063	0.069273	0.107033	0.991839	-0.246943	0.965125	-0.086903	-0.966551	-0.238907	0.093288
60161	9.635567	-2.595032	-4.568986	0.733080	1.659230	0.644319	0.083644	0.117383	0.989558	-0.254697	0.962572	-0.092653	-0.963397	-0.244287	0.110411
60162	8.769761	-3.022414	-4.375734	1.165906	1.682355	0.685169	0.097980	0.128193	0.986897	-0.266573	0.958812	-0.098079	-0.958822	-0.253470	0.128117
60163	8.497179	-2.881170	-4.149297	1.664950	1.676325	0.697336	0.112047	0.139358	0.983883	-0.283400	0.953478	-0.102777	-0.952434	-0.267317	0.146328
60164	8.075913	-2.756977	-4.104791	2.138070	1.664690	0.640994	0.125900	0.150086	0.980624	-0.304488	0.946623	-0.105790	-0.944159	-0.285269	0.164880
60165	7.887534	-2.282466	-3.994110	2.602943	1.632360	0.532678	0.139491	0.160077	0.977199	-0.329815	0.938010	-0.106577	-0.933683	-0.307428	0.183640
60166	7.845845	-1.310597	-3.818751	2.787300	1.618319	0.354560	0.153238	0.168587	0.973702	-0.356244	0.928509	-0.104698	-0.921742	-0.330832	0.202341
60167	7.724827	-0.877539	-3.589503	2.744370	1.595962	0.178312	0.167134	0.175821	0.970130	-0.381816	0.918733	-0.100727	-0.909001	-0.353577	0.220683
60168	7.495359	-0.303419	-2.775349	2.612129	1.574490	0.044555	0.181116	0.181995	0.966475	-0.405519	0.909116	-0.095200	-0.895964	-0.374682	0.238458
60169	7.124243	-0.234249	-2.159616	2.441332	1.530608	-0.033891	0.194809	0.187683	0.962717	-0.427313	0.899719	-0.088933	-0.882866	-0.394056	0.255473
60170	6.892498	-0.254939	-1.538252	2.242199	1.388417	-0.051064	0.207149	0.192850	0.959113	-0.446915	0.890756	-0.082580	-0.870262	-0.411536	0.270707
60171	6.859361	-0.139708	-1.124947	1.932962	1.207251	-0.027169	0.217645	0.197763	0.955783	-0.463694	0.882640	-0.077040	-0.858847	-0.426423	0.283804
60172	6.895092	0.182131	-0.945003	1.590365	0.980122	0.014123	0.225894	0.202156	0.952945	-0.477357	0.875704	-0.072613	-0.849177	-0.438493	0.294317
60173	7.031205	0.356950	-0.755513	1.207158	0.737722	0.070188	0.231724	0.206119	0.950694	-0.487831	0.870147	-0.069751	-0.841621	-0.447615	0.302185
60174	6.954968	0.610094	-0.555450	0.889837	0.501354	0.115290	0.235307	0.209409	0.949093	-0.495614	0.865863	-0.068168	-0.836060	-0.454344	0.307530
60175	6.722419	1.085675	-0.242613	0.617688	0.292811	0.134366	0.237012	0.211975	0.948099	-0.501174	0.862703	-0.067595	-0.832256	-0.459142	0.310707
60176	6.726051	1.866298	0.108262	0.323297	0.117670	0.128303	0.237289	0.213650	0.947654	-0.504216	0.860909	-0.067839	-0.830338	-0.461724	0.312010
60177	6.913148	2.544426	0.574763	-0.033506	-0.026210	0.090524	0.236548	0.214356	0.947679	-0.504222	0.860825	-0.068853	-0.830545	-0.461553	0.311710
60178	7.358523	2.791692	0.855734	-0.352306	-0.140271	0.025379	0.235198	0.213957	0.948106	-0.501402	0.862360	-0.070223	-0.832633	-0.458865	0.310104
60179	7.872239	2.694485	1.318658	-0.540519	-0.172018	-0.021717	0.233810	0.213010	0.948662	-0.496889	0.864845	-0.071726	-0.835724	-0.454609	0.308052
60180	8.298480	2.408447	1.848593	-0.633734	-0.137331	-0.057410	0.232888	0.211920	0.949133	-0.491498	0.867800	-0.073162	-0.839162	-0.449458	0.306258
60181	8.765160	1.735853	2.314149	-0.610030	-0.049866	-0.056081	0.232685	0.211218	0.949339	-0.486265	0.870628	-0.074521	-0.842261	-0.444290	0.305290
60182	9.011836	0.740602	2.655718	-0.471200	0.100384	0.000195	0.233475	0.211692	0.949039	-0.482342	0.872680	-0.075997	-0.844296	-0.440018	0.305857
60183	9.043078	-0.563697	3.095828	-0.274122	0.236698	0.112522	0.234878	0.213710	0.948241	-0.480305	0.873633	-0.077924	-0.845068	-0.437142	0.307843
60184	8.916396	-1.759574	3.315322	-0.034541	0.328290	0.276476	0.236268	0.217587	0.947013	-0.480715	0.873157	-0.080685	-0.844447	-0.436180	0.310896
60185	8.786400	-2.641399	3.291325	0.318101	0.362900	0.425093	0.237222	0.222881	0.945542	-0.484422	0.870818	-0.083733	-0.842058	-0.438178	0.314545
60186	8.690747	-2.811595	3.430784	0.727741	0.342263	0.535445	0.237427	0.229070	0.944010	-0.491855	0.866367	-0.086523	-0.837680	-0.443773	0.318368
60187	8.736457	-2.664517	3.700487	1.079579	0.281086	0.612490	0.236671	0.235628	0.942585	-0.502348	0.860086	-0.088872	-0.831645	-0.452473	0.321925
60188	8.888505	-2.509297	4.040679	1.374191	0.208215	0.684234	0.234857	0.242467	0.941303	-0.515388	0.852122	-0.090905	-0.824146	-0.463787	0.325091
60189	9.295424	-2.119831	4.989970	1.573326	0.181265	0.756326	0.232328	0.249751	0.940026	-0.530096	0.842831	-0.092915	-0.815489	-0.476718	0.328205
60190	9.992133	-1.504279	5.241727	1.661240	0.153473	0.771173	0.229368	0.256980	0.938803	-0.545396	0.832810	-0.094715	-0.806185	-0.490295	0.331176
60191	10.018553	-0.641561	5.558231	1.708786	0.198251	0.712093	0.226955	0.263889	0.937472	-0.560764	0.822421	-0.095746	-0.796263	-0.503971	0.334632
60192	8.787637	-0.400221	5.627307	1.715656	0.213458	0.579736	0.225292	0.269740	0.936207	-0.575696	0.812075	-0.095438	-0.786014	-0.517470	0.338242
60193	7.902532	0.137078	5.830015	1.540161	0.108519	0.410650	0.223686	0.273658	0.935455	-0.588711	0.802848	-0.094093	-0.776778	-0.529666	0.340691
60194	7.591750	0.687643	5.750337	1.263263	-0.080004	0.279809	0.221347	0.275488	0.935474	-0.599147	0.795285	-0.092437	-0.769434	-0.540026	0.341091
60195	7.460778	1.327215	5.358189	0.913325	-0.289673	0.185385	0.217946	0.275418	0.936293	-0.606623	0.789752	-0.091106	-0.764531	-0.548121	0.339198
60196	7.410645	1.523931	4.626872	0.534011	-0.502143	0.135324	0.213229	0.273739	0.937870	-0.611037	0.786399	-0.090606	-0.762343	-0.553754	0.334948
60197	7.250420	1.459936	3.544679	0.167159	-0.719485	0.153498	0.206745	0.270984	0.940119	-0.612697	0.784999	-0.091531	-0.762796	-0.557085	0.328326
60198	7.193277	0.985586	2.391371	-0.195975	-0.956185	0.197556	0.198168	0.267223	0.943038	-0.611644	0.785522	-0.094059	-0.765912	-0.558164	0.319111
60199	7.503207	0.505103	0.920499	-0.447931	-1.201627	0.241794	0.187405	0.262448	0.946573	-0.608725	0.787333	-0.097780	-0.770931	-0.557878	0.307308
60200	7.808421	-0.297528	-0.873614	-0.607190	-1.503183	0.276883	0.174029	0.256272	0.950809	-0.604569	0.789961	-0.102263	-0.777310	-0.557033	0.292410
60201	9.718267	-0.805143	-2.526858	-0.609864	-1.970602	0.287437	0.156858	0.247583	0.956085	-0.600324	0.792599	-0.106757	-0.784223	-0.557215	0.272956
60202	16.180033	0.806777	-2.432804	-0.383564	-2.455137	0.121640	0.136743	0.234852	0.962365	-0.597527	0.794411	-0.108962	-0.790103	-0.560139	0.248961
60203	21.206638	0.676243	-2.409112	-0.200946	-2.469078	-0.185836	0.118237	0.219483	0.968425	-0.595706	0.795954	-0.107663	-0.794452	-0.564167	0.224858
60204	21.602535	-3.279511	-1.334883	0.794108	-2.100805	-0.375358	0.103760	0.204556	0.973340	-0.601630	0.792190	-0.102351	-0.792007	-0.574971	0.205265
60205	20.257924	-4.822510	3.659121	2.449947	-1.221236	-0.136358	0.094950	0.196294	0.975937	-0.620705	0.778130	-0.096119	-0.778273	-0.596643	0.195724
60206	15.247328	-1.442357	7.855513	3.144579	-0.232760	0.337907	0.090962	0.197489	0.976076	-0.645225	0.758275	-0.093293	-0.758559	-0.621302	0.196399
60207	10.101310	0.808138	7.653978	2.448199	0.057286	0.654707	0.087048	0.202734	0.975357	-0.664173	0.741537	-0.094857	-0.742494	-0.639548	0.199199
60208	7.067605	1.742800	5.421169	1.763546	-0.096358	0.804480	0.080878	0.208038	0.974771	-0.677877	0.728449	-0.099223	-0.730713	-0.652749	0.199940
60209	5.548232	1.838340	2.559936	1.072833	-0.507292	0.908800	0.070937	0.211266	0.974851	-0.686372	0.719487	-0.105979	-0.723783	-0.661593	0.196045
60210	5.485583	1.078309	-1.017791	0.628952	-1.079592	0.955290	0.056499	0.210942	0.975864	-0.691557	0.713247	-0.114136	-0.720109	-0.668417	0.186177
60211	5.638704	0.104845	-4.095437	0.531515	-1.553182	0.868411	0.039263	0.206651	0.977627	-0.695787	0.707865	-0.121685	-0.717174	-0.675442	0.171578
60212	5.233026	-1.665729	-6.394419	0.737927	-1.925065	0.602124	0.021233	0.197815	0.980009	-0.701279	0.701588	-0.126422	-0.712571	-0.684575	0.153620
60213	6.562852	-3.227260	-6.717389	1.025462	-2.330181	0.428733	0.001633	0.184673	0.982799	-0.708566	0.693720	-0.129177	-0.705642	-0.696167	0.131986
60214	10.875226	-3.158950	-4.177069	0.733226	-2.361706	0.559519	-0.019010	0.171995	0.984914	-0.713703	0.687542	-0.133841	-0.700190	-0.705481	0.109683
60215	12.954259	-2.126190	-0.924589	-0.149998	-1.668256	0.679734	-0.035605	0.164827	0.985680	-0.712410	0.687514	-0.140701	-0.700860	-0.707218	0.092946
60216	10.914952	-1.477691	0.175829	-0.970173	-0.985667	0.562918	-0.046597	0.161777	0.985727	-0.705377	0.693391	-0.147144	-0.707299	-0.702165	0.081804
60217	8.082780	-1.678166	-0.231035	-1.439643	-0.806454	0.354285	-0.054883	0.158566	0.985822	-0.694880	0.702932	-0.151750	-0.717028	-0.693356	0.071605
60218	6.869797	-2.693474	-1.000848	-1.406226	-1.033753	0.179949	-0.063645	0.152726	0.986217	-0.684656	0.712305	-0.154492	-0.726083	-0.685052	0.059230
60219	7.929448	-3.967876	-1.511744	-0.876002	-1.377373	0.120843	-0.074570	0.144130	0.986745	-0.678121	0.718171	-0.156147	-0.731158	-0.680776	0.044183
60220	9.668592	-4.526267	-1.018510	-0.210101	-1.466153	0.137015	-0.086281	0.135140	0.987063	-0.676503	0.719374	-0.157625	-0.731368	-0.681351	0.029355
60221	10.737677	-4.219344	-0.021324	0.271507	-1.329162	0.168338	-0.097194	0.127222	0.987101	-0.678263	0.717358	-0.159241	-0.728363	-0.684991	0.016567
60222	10.973128	-2.701546	1.006479	0.422714	-1.136428	0.168654	-0.106656	0.120630	0.986951	-0.681188	0.714207	-0.160907	-0.724297	-0.689462	0.005998
60223	10.598298	-1.445096	1.629475	0.203272	-0.997391	0.176896	-0.115149	0.114963	0.986673	-0.682402	0.712646	-0.162674	-0.721851	-0.692039	-0.003610
60224	9.885265	-0.659925	2.047467	-0.134889	-0.906138	0.186859	-0.123024	0.110035	0.986285	-0.681232	0.713333	-0.164556	-0.721657	-0.692133	-0.012798
60225	9.538320	-0.360415	2.034726	-0.437676	-0.891435	0.228166	-0.131090	0.105471	0.985744	-0.677725	0.716157	-0.166754	-0.723536	-0.689923	-0.022401
60226	9.759260	0.059242	1.925940	-0.756076	-0.924988	0.322010	-0.140034	0.101435	0.984937	-0.671829	0.720988	-0.169770	-0.727349	-0.685483	-0.032816
60227	9.754767	0.224967	1.545264	-1.043272	-0.878847	0.418266	-0.149315	0.098441	0.983877	-0.663556	0.727727	-0.173515	-0.733075	-0.678766	-0.043340
60228	9.332798	-0.084629	1.107791	-1.339921	-0.799622	0.507286	-0.158607	0.096775	0.982588	-0.652926	0.736232	-0.177905	-0.740629	-0.669774	-0.053585
60229	8.854335	-0.837423	0.482483	-1.540294	-0.724273	0.509499	-0.167366	0.095714	0.981238	-0.640571	0.746012	-0.182029	-0.749438	-0.659018	-0.063546
60230	8.488320	-1.614327	-0.326188	-1.645484	-0.708761	0.439758	-0.175559	0.094402	0.979932	-0.627434	0.756309	-0.185266	-0.758621	-0.647368	-0.073546
60231	8.571224	-2.281737	-1.134248	-1.646242	-0.743779	0.340849	-0.183417	0.092206	0.978701	-0.614211	0.766585	-0.187330	-0.767531	-0.635489	-0.083971
60232	9.027253	-2.952447	-1.751805	-1.539948	-0.781840	0.252132	-0.191041	0.089241	0.977517	-0.601883	0.776025	-0.188475	-0.775397	-0.624357	-0.094540
60233	9.472875	-3.246026	-1.860823	-1.370363	-0.756899	0.207144	-0.198238	0.086153	0.976360	-0.590759	0.784362	-0.189158	-0.782116	-0.614291	-0.104595
60234	9.518856	-3.437825	-1.921476	-1.185456	-0.704500	0.191026	-0.204945	0.083379	0.975216	-0.581093	0.791400	-0.189782	-0.787609	-0.605586	-0.113743
60235	9.430632	-3.383592	-1.841835	-0.993310	-0.671859	0.190079	-0.211418	0.080833	0.974048	-0.572805	0.797251	-0.190489	-0.791958	-0.598211	-0.122251
60236	9.173396	-3.166671	-1.592897	-0.852736	-0.647020	0.182024	-0.217647	0.078457	0.972869	-0.565670	0.802150	-0.191239	-0.795391	-0.591945	-0.130205
60237	8.887976	-2.850202	-1.363504	-0.763850	-0.615311	0.163692	-0.223542	0.076141	0.971716	-0.559177	0.806548	-0.191837	-0.798342	-0.586245	-0.137721
60238	8.759718	-2.767378	-1.313392	-0.729592	-0.592551	0.144711	-0.229143	0.073873	0.970586	-0.553038	0.810668	-0.192267	-0.801026	-0.580828	-0.144904
60239	8.755822	-2.493255	-1.205936	-0.727022	-0.583727	0.129525	-0.234610	0.071549	0.969453	-0.546863	0.814796	-0.192477	-0.803678	-0.575315	-0.152032
60240	8.900799	-2.337321	-1.292788	-0.704589	-0.589216	0.123727	-0.240083	0.069205	0.968282	-0.540922	0.818716	-0.192635	-0.806079	-0.570014	-0.159125
60241	9.071395	-2.105094	-1.317200	-0.653710	-0.582062	0.115463	-0.245474	0.066850	0.967095	-0.535327	0.822364	-0.192725	-0.808188	-0.565021	-0.166083
60242	9.206389	-1.809735	-1.332785	-0.618286	-0.569898	0.099533	-0.250672	0.064484	0.965922	-0.530100	0.825749	-0.192696	-0.810035	-0.560339	-0.172809
60243	9.233182	-1.463234	-1.446603	-0.586150	-0.554105	0.097048	-0.255749	0.062197	0.964740	-0.525065	0.828974	-0.192637	-0.811726	-0.555818	-0.179352
60244	9.289741	-1.099250	-1.549673	-0.616661	-0.541827	0.098948	-0.260725	0.060042	0.963544	-0.519821	0.832299	-0.192522	-0.813516	-0.551065	-0.185790
60245	9.258592	-0.848458	-1.588572	-0.666008	-0.539045	0.096933	-0.265688	0.057898	0.962319	-0.514102	0.835910	-0.192231	-0.815542	-0.545804	-0.192326
60246	9.105932	-0.861308	-1.583629	-0.705801	-0.559036	0.102457	-0.270832	0.055743	0.961011	-0.508086	0.839658	-0.191892	-0.817618	-0.540247	-0.199084
60247	8.931422	-0.926367	-1.632718	-0.747913	-0.593000	0.110325	-0.276314	0.053489	0.959578	-0.501619	0.843634	-0.191469	-0.819774	-0.534248	-0.206277
60248	8.857070	-0.943175	-1.615158	-0.815700	-0.636031	0.108415	-0.282130	0.051052	0.958017	-0.494641	0.847883	-0.190852	-0.822029	-0.527720	-0.213961
60249	8.802619	-1.051634	-1.655334	-0.894141	-0.693200	0.087169	-0.288333	0.048164	0.956318	-0.486987	0.852545	-0.189766	-0.824444	-0.520430	-0.222362
60250	8.879109	-1.149985	-1.799029	-0.931641	-0.748096	0.069951	-0.294902	0.044921	0.954471	-0.479112	0.857301	-0.188379	-0.826731	-0.512852	-0.231298
60251	8.979612	-1.253079	-1.732399	-0.964971	-0.785805	0.056290	-0.301742	0.041413	0.952490	-0.470908	0.862207	-0.186668	-0.828973	-0.504861	-0.240663
60252	9.275720	-1.430693	-1.657933	-0.970219	-0.817347	0.047960	-0.308804	0.037759	0.950376	-0.462730	0.867023	-0.184801	-0.830976	-0.496835	-0.250268
60253	9.493246	-1.641957	-1.484217	-0.958546	-0.791922	0.048959	-0.315683	0.034290	0.948245	-0.454555	0.871748	-0.182851	-0.832901	-0.488753	-0.259610
60254	9.617353	-1.918347	-1.251041	-0.934111	-0.774973	0.046611	-0.322408	0.030966	0.946094	-0.446638	0.876239	-0.180885	-0.834606	-0.480880	-0.268676
60255	10.007074	-2.183155	-1.114358	-0.901560	-0.762644	0.042863	-0.329033	0.027716	0.943911	-0.438924	0.880543	-0.178858	-0.836112	-0.473156	-0.277562
60256	10.316602	-2.340392	-1.074463	-0.871253	-0.709558	0.046374	-0.335226	0.024822	0.941811	-0.431499	0.884599	-0.176901	-0.837516	-0.465692	-0.285830
60257	10.254009	-2.281662	-1.120217	-0.865316	-0.649620	0.036894	-0.340891	0.022164	0.939842	-0.424087	0.888596	-0.174776	-0.839014	-0.458154	-0.293515
60258	10.046444	-2.011794	-1.170207	-0.870691	-0.621746	0.030447	-0.346292	0.019638	0.937921	-0.416689	0.892526	-0.172534	-0.840507	-0.450569	-0.300892
60259	9.848090	-1.780014	-1.000800	-0.882199	-0.607639	0.001219	-0.351468	0.016954	0.936047	-0.409240	0.896469	-0.169899	-0.842018	-0.442781	-0.308142
60260	10.004514	-1.669714	-0.800014	-0.884885	-0.610631	-0.038825	-0.356508	0.013954	0.934188	-0.401938	0.900339	-0.166837	-0.843414	-0.434965	-0.315369
60261	10.223085	-1.657664	-0.528461	-0.879205	-0.599454	-0.062111	-0.361375	0.010832	0.932358	-0.394725	0.904135	-0.163497	-0.844749	-0.427109	-0.322456
60262	10.260880	-1.870586	-0.224140	-0.895566	-0.576948	-0.082889	-0.365979	0.007670	0.930591	-0.387473	0.907914	-0.159867	-0.846123	-0.419087	-0.329306
60263	10.432358	-2.062708	-0.088924	-0.905495	-0.571175	-0.114207	-0.370428	0.004285	0.928851	-0.380223	0.911671	-0.155840	-0.847475	-0.410898	-0.336079
60264	10.649846	-2.233970	0.077899	-0.913688	-0.555047	-0.142483	-0.374649	0.000757	0.927166	-0.373022	0.915374	-0.151478	-0.848818	-0.402605	-0.342662
60265	10.905509	-2.295318	0.284979	-0.927656	-0.545682	-0.157475	-0.378748	-0.002832	0.925496	-0.365749	0.919053	-0.146866	-0.850163	-0.394124	-0.349125
60266	11.355149	-2.157538	0.628990	-0.933992	-0.522744	-0.187163	-0.382567	-0.006562	0.923904	-0.358532	0.922669	-0.141907	-0.851526	-0.385538	-0.355335
60267	11.894201	-1.912685	1.358965	-0.906363	-0.455068	-0.220046	-0.385702	-0.010299	0.922566	-0.351687	0.926084	-0.136693	-0.852966	-0.377177	-0.360814
60268	12.106893	-1.792158	2.512844	-0.853590	-0.351101	-0.238584	-0.387917	-0.013790	0.921591	-0.345339	0.929225	-0.131456	-0.854553	-0.369256	-0.365224
60269	12.894942	-2.323179	3.743297	-0.837842	-0.239120	-0.237100	-0.389178	-0.016834	0.921009	-0.339152	0.932219	-0.126271	-0.856456	-0.361504	-0.368509
60270	13.933892	-2.934873	4.565877	-0.796219	-0.042657	-0.194866	-0.388938	-0.018773	0.921073	-0.333098	0.935018	-0.121599	-0.858937	-0.354102	-0.369917
60271	13.893484	-2.530354	5.508677	-0.595354	0.214291	-0.173129	-0.386535	-0.019599	0.922067	-0.328745	0.937031	-0.117894	-0.861695	-0.348695	-0.368638
60272	13.379500	-1.301337	5.945345	-0.402051	0.429687	-0.269505	-0.381991	-0.020602	0.923936	-0.326328	0.938358	-0.113994	-0.864634	-0.345051	-0.365167
60273	13.784897	0.560147	6.158718	-0.320166	0.794392	-0.471686	-0.373566	-0.022252	0.927336	-0.325473	0.939297	-0.108574	-0.868629	-0.342382	-0.358132
60274	13.562602	2.208173	6.308788	-0.501077	1.273594	-0.633957	-0.360455	-0.023845	0.932472	-0.323450	0.940842	-0.100974	-0.874901	-0.338005	-0.346844
60275	12.850563	2.933737	5.103482	-0.969520	1.742663	-0.721145	-0.342796	-0.024772	0.939083	-0.317619	0.943837	-0.091044	-0.884087	-0.329480	-0.331412
60276	12.636712	2.911548	3.529189	-1.253930	2.076472	-0.712232	-0.322143	-0.024748	0.946368	-0.308855	0.947709	-0.080351	-0.894893	-0.318175	-0.312941
60277	13.019079	1.201621	2.662074	-1.515089	2.359463	-0.566316	-0.299137	-0.022724	0.953940	-0.297131	0.952231	-0.070491	-0.906769	-0.304531	-0.291599
60278	13.110898	-1.804345	0.476360	-1.891303	2.646587	-0.308853	-0.274119	-0.017808	0.961531	-0.280767	0.957752	-0.062305	-0.919798	-0.287045	-0.267538
60279	12.745063	-4.434044	-3.069940	-2.209803	2.825136	-0.040700	-0.247790	-0.010310	0.968759	-0.260581	0.963804	-0.056395	-0.933112	-0.266414	-0.241508
60280	12.476165	-5.638975	-6.333489	-2.018601	2.738365	0.097287	-0.222370	-0.002298	0.974960	-0.241427	0.968982	-0.052781	-0.944597	-0.247119	-0.216028
60281	12.666132	-5.695901	-7.692586	-1.383871	2.541596	0.214155	-0.198715	0.005984	0.980039	-0.228053	0.972250	-0.052177	-0.953155	-0.233869	-0.191836
60282	12.844055	-5.640571	-7.388312	-0.493929	2.263283	0.290069	-0.177781	0.014084	0.983969	-0.222818	0.973353	-0.054190	-0.958512	-0.228880	-0.169906
60283	13.081111	-5.118784	-5.804697	0.343892	2.074373	0.246563	-0.158393	0.021374	0.987145	-0.225932	0.972456	-0.057308	-0.961180	-0.232105	-0.149201
60284	13.485154	-4.170759	-4.342644	0.982683	2.033017	0.171851	-0.139287	0.027895	0.989859	-0.235161	0.970076	-0.060427	-0.961924	-0.241193	-0.128559
60285	12.737583	-2.612313	-4.596453	1.199795	2.030219	0.129930	-0.120051	0.034290	0.992175	-0.246777	0.967004	-0.063280	-0.961607	-0.252443	-0.107628
60286	11.761644	-0.119993	-4.577147	1.092143	1.905294	0.076504	-0.101976	0.039973	0.993983	-0.257228	0.964151	-0.065163	-0.960955	-0.262325	-0.088038
60287	12.406640	1.635139	-4.081192	0.802819	1.889430	0.026496	-0.083879	0.045383	0.995442	-0.265154	0.961931	-0.066197	-0.960551	-0.269498	-0.068652
60288	12.915329	1.904907	-3.148842	0.458726	2.105766	0.087937	-0.063931	0.051978	0.996600	-0.269535	0.960630	-0.067393	-0.960866	-0.272927	-0.047404
60289	12.009819	0.689070	-3.117420	0.090843	2.214340	0.242334	-0.043291	0.060471	0.997231	-0.270491	0.960177	-0.069967	-0.961749	-0.272771	-0.025210
60290	11.436487	-0.184043	-4.046744	-0.038882	2.184613	0.384215	-0.023358	0.070139	0.997264	-0.270030	0.960016	-0.073844	-0.962569	-0.271016	-0.003484
60291	10.245315	-0.586953	-4.144359	-0.205746	2.097736	0.450388	-0.004369	0.080234	0.996766	-0.268183	0.960167	-0.078463	-0.963358	-0.267659	0.017322
60292	10.159645	-1.339658	-4.565152	-0.147085	1.925655	0.515806	0.012757	0.090351	0.995828	-0.266830	0.960103	-0.083691	-0.963659	-0.264650	0.036356
60293	10.263018	-1.631902	-4.905319	0.089939	1.785877	0.571201	0.028423	0.100672	0.994514	-0.267999	0.959258	-0.089443	-0.963000	-0.263986	0.054245
60294	10.377732	-1.890556	-5.231683	0.326307	1.746682	0.617946	0.043516	0.111256	0.992839	-0.271406	0.957723	-0.095426	-0.961481	-0.265310	0.071872
60295	9.681307	-2.590090	-5.339729	0.745915	1.774185	0.669870	0.058683	0.122532	0.990728	-0.279082	0.954881	-0.101567	-0.958473	-0.270534	0.090232
60296	9.164702	-2.656370	-5.077132	1.183942	1.827435	0.673009	0.074190	0.134009	0.988199	-0.290896	0.950742	-0.107090	-0.953874	-0.279518	0.109518
60297	8.523946	-2.482996	-5.020995	1.611019	1.865185	0.636734	0.089986	0.145493	0.985259	-0.306899	0.945183	-0.111545	-0.947479	-0.292337	0.129705
60298	7.895475	-2.078446	-5.003490	2.066090	1.844504	0.571283	0.105525	0.156456	0.982032	-0.326995	0.938086	-0.114317	-0.939116	-0.309056	0.150152
60299	7.775945	-1.176370	-4.822854	2.493498	1.793422	0.471917	0.120629	0.166699	0.978601	-0.350966	0.929295	-0.115037	-0.928586	-0.329579	0.170605
60300	7.760402	-0.381625	-4.753038	2.631416	1.762041	0.352820	0.135554	0.175992	0.975014	-0.375748	0.919712	-0.113770	-0.916755	-0.350937	0.190799
60301	7.379772	-0.157532	-4.712295	2.590814	1.762278	0.209529	0.150732	0.184369	0.971230	-0.399763	0.909911	-0.110687	-0.904140	-0.371578	0.210857
60302	7.000886	-0.060480	-3.997200	2.465652	1.727333	0.089083	0.165820	0.191792	0.967326	-0.422089	0.900318	-0.106151	-0.891260	-0.390695	0.230244
60303	6.748377	-0.114687	-3.486925	2.346734	1.672393	0.023026	0.180456	0.198756	0.963292	-0.442991	0.890839	-0.100820	-0.878177	-0.408536	0.248804
60304	6.358953	-0.244476	-3.343179	2.253879	1.571854	0.005694	0.194076	0.205391	0.959244	-0.462697	0.881400	-0.095109	-0.865012	-0.425381	0.266093
60305	6.118930	-0.097750	-2.692487	1.996335	1.429839	0.004197	0.206271	0.211671	0.955326	-0.479929	0.872706	-0.089740	-0.852714	-0.439977	0.281601
60306	5.868197	0.261064	-2.133263	1.636756	1.222332	0.009504	0.216528	0.217231	0.951801	-0.493869	0.865357	-0.085150	-0.842146	-0.451627	0.294658
60307	5.662601	0.751036	-1.936862	1.262628	0.954710	0.009593	0.224412	0.221707	0.948939	-0.504527	0.859540	-0.081506	-0.833721	-0.460475	0.304748
60308	5.459270	1.414568	-1.761509	0.972438	0.656347	0.015084	0.229730	0.224908	0.946911	-0.512687	0.854962	-0.078686	-0.827270	-0.467392	0.311718
60309	5.291772	1.991649	-1.533445	0.721125	0.379680	-0.002850	0.232809	0.226688	0.945734	-0.518666	0.851554	-0.076435	-0.822670	-0.472725	0.315825
60310	5.264213	2.812955	-1.164159	0.418242	0.151492	-0.050011	0.234257	0.227007	0.945300	-0.522034	0.849650	-0.074671	-0.820125	-0.475986	0.317542
60311	5.471840	3.411164	-0.575290	-0.024237	-0.031372	-0.120227	0.234562	0.225832	0.945505	-0.521565	0.850028	-0.073637	-0.820336	-0.475870	0.317170
60312	6.233017	3.510893	0.241042	-0.435249	-0.170527	-0.180060	0.234040	0.223517	0.946185	-0.517616	0.852464	-0.073344	-0.822982	-0.472595	0.315206
60313	7.193774	3.009509	1.178949	-0.753059	-0.237473	-0.197994	0.233038	0.220682	0.947097	-0.510925	0.856448	-0.073844	-0.827435	-0.466687	0.312337
60314	8.250738	2.086604	2.055134	-0.965470	-0.230498	-0.150697	0.231832	0.218348	0.947934	-0.502609	0.861215	-0.075452	-0.832849	-0.458948	0.309401
60315	9.032583	1.071734	2.736645	-0.956833	-0.184100	-0.028561	0.230381	0.217219	0.948547	-0.494518	0.865649	-0.078128	-0.838079	-0.451074	0.306847
60316	9.623870	-0.473490	3.468378	-0.688852	-0.122866	0.133893	0.228634	0.217857	0.948823	-0.489089	0.868414	-0.081541	-0.841735	-0.445415	0.305101
60317	10.264812	-2.046125	4.171720	-0.216483	-0.022336	0.310605	0.226875	0.220409	0.948656	-0.487937	0.868717	-0.085144	-0.842879	-0.443567	0.304635
60318	10.629883	-3.651946	4.805099	0.333038	0.122558	0.461310	0.225591	0.224984	0.947888	-0.491833	0.866176	-0.088536	-0.840957	-0.446230	0.306056
60319	10.207501	-4.410348	5.128481	0.886495	0.260896	0.644215	0.224526	0.231685	0.946525	-0.500694	0.860730	-0.091915	-0.835998	-0.453283	0.309260
60320	9.798720	-3.806875	6.257326	1.321138	0.243244	0.760062	0.222640	0.239340	0.945065	-0.513440	0.852848	-0.095029	-0.828741	-0.464076	0.312765
60321	10.143773	-2.141709	8.301627	1.686904	0.223654	0.782498	0.220345	0.247016	0.943627	-0.529077	0.842997	-0.097130	-0.819467	-0.477849	0.316441
60322	10.163605	-0.878251	10.082615	1.920849	0.307431	0.730732	0.218861	0.254653	0.941940	-0.546365	0.831802	-0.097929	-0.808446	-0.493211	0.321183
60323	10.019841	-0.971901	10.967910	1.926988	0.376266	0.603080	0.218477	0.261526	0.940145	-0.563179	0.820576	-0.097390	-0.796930	-0.508192	0.326563
60324	9.915293	-0.419795	10.268977	1.867814	0.382828	0.474792	0.218736	0.267392	0.938433	-0.579041	0.809658	-0.095733	-0.785408	-0.522451	0.331932
60325	10.163148	1.574269	8.427388	1.509877	0.420487	0.349623	0.219915	0.272454	0.936700	-0.591645	0.800701	-0.093992	-0.775624	-0.533524	0.337282
60326	9.645248	3.407420	6.046961	0.833085	0.456463	0.294677	0.221629	0.277274	0.934879	-0.598778	0.795385	-0.093951	-0.769639	-0.538963	0.342307
60327	8.452503	3.958664	3.400582	0.025508	0.347053	0.310283	0.222389	0.281634	0.933395	-0.599716	0.794338	-0.096788	-0.768690	-0.538247	0.345552
60328	7.201818	3.151380	0.957580	-0.696748	0.017008	0.314910	0.220581	0.284252	0.933030	-0.595089	0.797139	-0.102165	-0.772796	-0.532701	0.344989
60329	7.768737	1.121503	-1.715754	-1.290665	-0.448369	0.231809	0.215686	0.283743	0.934328	-0.585599	0.803272	-0.108760	-0.781379	-0.523684	0.339414
60330	13.442693	1.115320	-2.408955	-1.429846	-1.017231	0.035259	0.207422	0.278766	0.937692	-0.574472	0.810561	-0.113896	-0.791807	-0.515053	0.328271
60331	21.659901	1.341369	-1.428098	-1.137749	-1.120372	-0.161811	0.199384	0.271690	0.941504	-0.565085	0.816831	-0.116044	-0.800577	-0.508893	0.316392
60332	22.349476	-3.115568	1.738515	0.306328	-0.220860	-0.532487	0.200573	0.266237	0.942809	-0.566517	0.816663	-0.110094	-0.799268	-0.512035	0.314628
60333	12.806400	-4.872205	7.511058	2.346623	0.401307	-0.463060	0.206378	0.264517	0.942040	-0.584130	0.805690	-0.098263	-0.784984	-0.529995	0.320789
60334	4.004303	-4.251978	7.258406	2.752974	-0.980193	0.301087	0.196903	0.261625	0.944871	-0.606196	0.789930	-0.092397	-0.770556	-0.554584	0.314135
60335	6.227467	-0.753568	3.300958	2.127195	-1.954155	1.001722	0.175727	0.258389	0.949924	-0.624354	0.775296	-0.095389	-0.761119	-0.576326	0.297566
60336	8.467927	0.673121	-1.545892	1.063820	-1.926282	1.141930	0.153852	0.255979	0.954361	-0.634356	0.766118	-0.103224	-0.757576	-0.589524	0.280251
60337	9.149798	1.257947	-5.141510	0.128552	-1.688377	0.990178	0.134709	0.253518	0.957905	-0.636750	0.762842	-0.112348	-0.759212	-0.594812	0.264189
60338	8.447381	0.201567	-6.768137	-0.859426	-1.363322	0.898115	0.118554	0.252311	0.960356	-0.631372	0.765630	-0.123209	-0.766364	-0.591735	0.250071
60339	7.487742	-2.048924	-6.010722	-1.000258	-1.226871	0.700372	0.104662	0.250394	0.962470	-0.624398	0.769808	-0.132372	-0.774062	-0.587110	0.236915
60340	6.745364	-5.025845	-4.171114	-0.317408	-1.310982	0.378778	0.092072	0.245626	0.964982	-0.622348	0.770695	-0.136792	-0.777307	-0.587960	0.223824
60341	7.654538	-6.307763	-2.935193	0.417439	-1.700191	0.174895	0.077721	0.236841	0.968435	-0.625668	0.767862	-0.137577	-0.776208	-0.595226	0.207863
60342	10.148207	-4.565959	-2.410388	0.678503	-1.935774	0.293759	0.060817	0.227490	0.971879	-0.631166	0.763070	-0.139117	-0.773259	-0.604957	0.189992
60343	11.542897	-1.107024	-2.038287	0.387896	-1.759656	0.519300	0.043872	0.220670	0.974361	-0.634359	0.759608	-0.143470	-0.771792	-0.611801	0.173310
60344	11.006722	1.746909	-1.181430	-0.140307	-1.471804	0.590413	0.028699	0.216149	0.975939	-0.633526	0.759140	-0.149503	-0.773189	-0.613992	0.158722
60345	9.289154	2.419117	-0.393995	-0.635594	-1.209138	0.476238	0.016254	0.212281	0.977074	-0.628607	0.762097	-0.155117	-0.777554	-0.611674	0.145828
60346	8.425558	1.470842	0.005569	-1.057342	-1.209670	0.253339	0.005165	0.206869	0.978355	-0.620412	0.767967	-0.159108	-0.784259	-0.606161	0.132310
60347	9.181705	-0.972064	0.091525	-1.322523	-1.314314	0.095855	-0.005849	0.199603	0.979859	-0.609868	0.775835	-0.161682	-0.792482	-0.598530	0.117194
60348	9.853973	-3.397379	-0.054672	-1.277452	-1.408677	0.096057	-0.017706	0.191988	0.981237	-0.599719	0.783211	-0.164065	-0.800015	-0.591371	0.101271
60349	10.118327	-4.913452	0.022952	-0.938636	-1.497686	0.114153	-0.030475	0.183980	0.982458	-0.592035	0.788621	-0.166045	-0.805336	-0.586710	0.084890
60350	9.676336	-5.280045	0.475165	-0.505895	-1.542598	0.137754	-0.043788	0.176045	0.983408	-0.587937	0.791304	-0.167834	-0.807720	-0.585531	0.068853
60351	9.506893	-4.208189	0.387598	-0.248481	-1.603449	0.170651	-0.057822	0.167932	0.984101	-0.585730	0.792550	-0.169660	-0.808441	-0.586228	0.052537
60352	9.834081	-2.873013	0.271509	-0.214034	-1.635360	0.224634	-0.072417	0.160137	0.984435	-0.583885	0.793404	-0.172014	-0.808600	-0.587254	0.036045
60353	10.194935	-1.452995	0.485329	-0.325901	-1.590298	0.272980	-0.086951	0.152908	0.984408	-0.580924	0.794968	-0.174795	-0.809300	-0.587064	0.019704
60354	10.185582	-0.356449	1.202518	-0.625017	-1.425716	0.291584	-0.100251	0.146899	0.984058	-0.575616	0.798159	-0.177789	-0.811552	-0.584263	0.004541
60355	9.463911	-0.069228	1.786081	-0.987408	-1.249204	0.248549	-0.111916	0.141576	0.983581	-0.567208	0.803616	-0.180211	-0.815935	-0.578063	-0.009635
60356	9.166559	-0.487752	1.613740	-1.322884	-1.171831	0.200173	-0.122696	0.136490	0.983014	-0.556169	0.810894	-0.182010	-0.821962	-0.569053	-0.023582
60357	9.452202	-1.298894	1.104677	-1.518707	-1.129554	0.191901	-0.133152	0.131640	0.982314	-0.543278	0.819269	-0.183431	-0.828927	-0.558094	-0.037570
60358	8.990051	-2.253163	0.351151	-1.531091	-1.059613	0.177398	-0.142981	0.127267	0.981509	-0.530319	0.827468	-0.184547	-0.835654	-0.546900	-0.050820
60359	8.835089	-2.898681	-0.450621	-1.379430	-1.027212	0.131493	-0.152361	0.122754	0.980672	-0.518452	0.834844	-0.185049	-0.841423	-0.536626	-0.063555
60360	9.235175	-3.062174	-1.088895	-1.208003	-1.009273	0.077626	-0.161331	0.118056	0.979814	-0.508167	0.841150	-0.185021	-0.846013	-0.527758	-0.075712
60361	9.531933	-3.120081	-1.545962	-1.009242	-0.975817	0.074185	-0.170056	0.113535	0.978872	-0.499386	0.846413	-0.184928	-0.849526	-0.520283	-0.087240
60362	9.690086	-2.748466	-1.579201	-0.907825	-0.953956	0.096311	-0.178707	0.109444	0.977796	-0.491521	0.850971	-0.185082	-0.852333	-0.513683	-0.098281
60363	9.455401	-2.753223	-1.840351	-0.907509	-0.927546	0.119043	-0.187287	0.105699	0.976602	-0.483454	0.855530	-0.185310	-0.855100	-0.506849	-0.109129
60364	9.233895	-2.936416	-2.085787	-0.851215	-0.921225	0.102957	-0.195725	0.101966	0.975343	-0.475996	0.859684	-0.185394	-0.857391	-0.500546	-0.119726
60365	9.102990	-2.839292	-2.196453	-0.756034	-0.883868	0.076832	-0.203758	0.098207	0.974083	-0.469253	0.863423	-0.185208	-0.859235	-0.494829	-0.129845
60366	8.993177	-2.571445	-2.198232	-0.645134	-0.838019	0.040231	-0.211206	0.094453	0.972867	-0.463648	0.866536	-0.184786	-0.860478	-0.490096	-0.139225
60367	8.962049	-2.342572	-1.958385	-0.541437	-0.800070	0.008064	-0.218217	0.090600	0.971686	-0.458869	0.869222	-0.184097	-0.861290	-0.486050	-0.148105
60368	8.901670	-2.187618	-1.523806	-0.489678	-0.759196	-0.004554	-0.224792	0.086909	0.970523	-0.454686	0.871573	-0.183362	-0.861817	-0.482502	-0.156406
60369	8.811206	-2.194912	-1.292173	-0.491297	-0.739098	-0.003580	-0.231234	0.083311	0.969324	-0.450360	0.873986	-0.182551	-0.862384	-0.478757	-0.164576
60370	8.823923	-2.104085	-1.031230	-0.525412	-0.749187	0.007678	-0.237786	0.079832	0.968031	-0.445834	0.876460	-0.181795	-0.862954	-0.474809	-0.172818
60371	9.058003	-1.853191	-0.855304	-0.577788	-0.748513	0.016965	-0.244411	0.076434	0.966655	-0.440709	0.879223	-0.180950	-0.863736	-0.470240	-0.181206
60372	9.165906	-1.467000	-0.699274	-0.645712	-0.732284	0.042207	-0.250978	0.073408	0.965205	-0.435048	0.882188	-0.180217	-0.864721	-0.465141	-0.189474
60373	9.222542	-1.254223	-0.527319	-0.719071	-0.713529	0.069962	-0.257541	0.070722	0.963676	-0.428555	0.885502	-0.179515	-0.866033	-0.459221	-0.197745
60374	9.163831	-1.279994	-0.349574	-0.819088	-0.707478	0.093857	-0.264126	0.068357	0.962063	-0.421234	0.889148	-0.178822	-0.867640	-0.452485	-0.206053
60375	9.055150	-1.590847	-0.177532	-0.879116	-0.712756	0.118510	-0.270894	0.066211	0.960329	-0.413193	0.893052	-0.178128	-0.869418	-0.445055	-0.214565
60376	8.938751	-2.107459	-0.115763	-0.870440	-0.720561	0.145457	-0.277812	0.064360	0.958477	-0.405242	0.896778	-0.177676	-0.870976	-0.437776	-0.223055
60377	8.955863	-2.612286	-0.153220	-0.778807	-0.726567	0.173705	-0.284923	0.062766	0.956493	-0.397885	0.900083	-0.177588	-0.872070	-0.431173	-0.231480
60378	9.275915	-2.699433	-0.204314	-0.670545	-0.711700	0.174397	-0.291872	0.061318	0.954490	-0.391555	0.902827	-0.177732	-0.872637	-0.425610	-0.239500
60379	9.412775	-2.299470	-0.429238	-0.631476	-0.671411	0.158413	-0.298425	0.059919	0.952550	-0.385507	0.905426	-0.177731	-0.873113	-0.420254	-0.247103
60380	9.401630	-1.606779	-0.632608	-0.686384	-0.656689	0.138188	-0.304741	0.058461	0.950639	-0.379117	0.908188	-0.177382	-0.873730	-0.414459	-0.254598
60381	9.454380	-1.285377	-0.807937	-0.761038	-0.658103	0.090829	-0.310909	0.056594	0.948753	-0.372125	0.911285	-0.176305	-0.874562	-0.407869	-0.262267
60382	9.475882	-1.082135	-1.007661	-0.847967	-0.648598	0.054804	-0.316838	0.054503	0.946912	-0.364553	0.914662	-0.174626	-0.875623	-0.400528	-0.269930
60383	9.571341	-1.194993	-1.276299	-0.911601	-0.639415	0.024220	-0.322599	0.052204	0.945095	-0.356431	0.918281	-0.172387	-0.876862	-0.392473	-0.277630
60384	9.713280	-1.439756	-1.382733	-0.872197	-0.641392	0.009265	-0.328309	0.049828	0.943255	-0.348769	0.921647	-0.170079	-0.877823	-0.384817	-0.285207
60385	9.729040	-1.609279	-1.352825	-0.789470	-0.633106	-0.001414	-0.333932	0.047417	0.941404	-0.341788	0.924673	-0.167813	-0.878448	-0.377799	-0.292572
60386	9.864310	-1.868528	-1.226108	-0.704471	-0.639707	-0.015675	-0.339549	0.044907	0.939516	-0.335671	0.927302	-0.165638	-0.878653	-0.371611	-0.299790
60387	10.046742	-1.963965	-1.135286	-0.633497	-0.640429	-0.031377	-0.345137	0.042274	0.937600	-0.330166	0.929663	-0.163452	-0.878562	-0.365977	-0.306904
60388	9.868566	-2.081283	-1.031015	-0.614627	-0.634335	-0.057046	-0.350571	0.039471	0.935704	-0.324984	0.931902	-0.161069	-0.878342	-0.360556	-0.313871
60389	9.991568	-2.060864	-0.803428	-0.593106	-0.646740	-0.098605	-0.355995	0.036259	0.933784	-0.320087	0.934070	-0.158299	-0.877959	-0.355246	-0.320918
60390	10.355541	-2.000594	-0.590895	-0.570122	-0.638250	-0.132456	-0.361224	0.032802	0.931902	-0.315576	0.936110	-0.155274	-0.877456	-0.350175	-0.327794
60391	10.756291	-1.757337	-0.295982	-0.560907	-0.614238	-0.167244	-0.366146	0.029125	0.930102	-0.311238	0.938114	-0.151899	-0.876965	-0.345100	-0.334422
60392	11.198715	-1.588641	0.288293	-0.538071	-0.552428	-0.204652	-0.370405	0.025344	0.928525	-0.307292	0.939998	-0.148241	-0.876568	-0.340238	-0.340392
60393	11.608637	-1.264113	0.993224	-0.494756	-0.458097	-0.227769	-0.373775	0.021681	0.927266	-0.303790	0.941721	-0.144474	-0.876358	-0.335695	-0.345406
60394	11.833399	-0.812190	2.069354	-0.434243	-0.344130	-0.246006	-0.376095	0.018248	0.926401	-0.300924	0.943205	-0.140747	-0.876354	-0.331711	-0.349243
60395	11.878004	-0.285693	3.409028	-0.417435	-0.278467	-0.252929	-0.377820	0.014972	0.925758	-0.298221	0.944616	-0.136987	-0.876536	-0.327837	-0.352430
60396	12.104408	0.067181	4.738298	-0.496489	-0.214897	-0.248649	-0.379015	0.011956	0.925313	-0.294827	0.946251	-0.132989	-0.877169	-0.323212	-0.355118
60397	12.589633	-0.130866	6.471126	-0.708801	-0.128674	-0.250371	-0.379441	0.009203	0.925170	-0.289575	0.948531	-0.128199	-0.878732	-0.316550	-0.357247
60398	13.821081	-1.367743	8.045560	-1.050203	0.042082	-0.226415	-0.378472	0.007218	0.925585	-0.281206	0.951809	-0.122407	-0.881863	-0.306607	-0.358203
60399	14.330907	-2.106336	7.862447	-1.308861	0.382567	-0.226230	-0.374473	0.006243	0.927217	-0.270538	0.955732	-0.115696	-0.886893	-0.294173	-0.356207
60400	13.569870	-1.064355	6.262046	-1.273139	0.737068	-0.358430	-0.367008	0.004971	0.930204	-0.260555	0.959407	-0.107928	-0.892982	-0.281980	-0.350815
60401	13.912012	0.474564	4.705228	-1.109745	1.143018	-0.550440	-0.355337	0.002883	0.934734	-0.252690	0.962466	-0.099028	-0.899935	-0.271386	-0.341271
60402	14.095440	1.439934	3.952584	-1.005663	1.650899	-0.635222	-0.338874	0.001199	0.940831	-0.245823	0.965149	-0.089772	-0.908149	-0.261699	-0.326769
60403	14.436854	1.286399	3.001335	-0.949487	2.138231	-0.613430	-0.317840	0.000812	0.948144	-0.239280	0.967563	-0.081041	-0.917455	-0.252630	-0.307336
60404	14.632647	-0.271793	2.330788	-1.027901	2.584199	-0.513406	-0.292834	0.002277	0.956161	-0.231387	0.970106	-0.073174	-0.927744	-0.242671	-0.283553
60405	14.398495	-3.231668	0.776832	-1.232117	2.928761	-0.361259	-0.264642	0.005747	0.964329	-0.221017	0.973003	-0.066453	-0.938678	-0.230719	-0.256228
60406	13.917752	-6.145222	-2.220044	-1.398829	3.030988	-0.151504	-0.235749	0.011095	0.971751	-0.208217	0.976137	-0.061659	-0.949246	-0.216871	-0.227813
60407	13.622843	-6.917334	-5.098330	-1.273074	2.927120	0.077036	-0.207938	0.018077	0.977975	-0.196059	0.978768	-0.059778	-0.958292	-0.204170	-0.199979
60408	13.150999	-6.834968	-6.974446	-0.733722	2.673005	0.214715	-0.182691	0.025576	0.982838	-0.188614	0.980182	-0.060566	-0.964909	-0.196442	-0.174247
60409	13.634494	-6.147506	-7.199927	0.006701	2.360200	0.306971	-0.160408	0.033305	0.986489	-0.188338	0.980036	-0.063711	-0.968916	-0.196013	-0.150933
60410	13.996467	-5.485877	-5.770571	0.691435	2.211028	0.310920	-0.139603	0.040791	0.989367	-0.194611	0.978534	-0.067805	-0.970895	-0.202007	-0.128668
60411	14.384652	-5.672877	-4.833649	1.170156	2.230106	0.248555	-0.118414	0.047951	0.991806	-0.205860	0.975947	-0.071762	-0.971391	-0.212670	-0.105694
60412	12.999806	-3.995244	-5.626730	1.539631	2.303405	0.201101	-0.096522	0.055009	0.993810	-0.220630	0.972450	-0.075255	-0.970570	-0.226528	-0.081726
60413	11.859904	-1.369774	-5.450857	1.533643	2.155308	0.111720	-0.075858	0.061246	0.995236	-0.235624	0.968743	-0.077575	-0.968879	-0.240386	-0.059055
60414	12.378513	0.832008	-4.348197	1.371457	2.161431	0.028094	-0.055052	0.066882	0.996241	-0.248918	0.965333	-0.078562	-0.966959	-0.252307	-0.036495
60415	12.422085	0.789688	-2.971376	0.969696	2.348524	0.058828	-0.032500	0.073587	0.996759	-0.258463	0.962744	-0.079503	-0.965474	-0.260210	-0.012270
60416	11.531656	-0.269537	-2.995547	0.736012	2.469268	0.173485	-0.009180	0.081784	0.996608	-0.265568	0.960660	-0.081280	-0.964048	-0.265413	0.012901
60417	10.295129	-0.671633	-3.471647	0.477803	2.335410	0.271730	0.012592	0.090740	0.995795	-0.270362	0.959089	-0.083976	-0.962676	-0.268168	0.036609
60418	10.547000	-0.525114	-4.014032	0.322405	2.090511	0.386760	0.031603	0.100103	0.994475	-0.273591	0.957838	-0.087721	-0.961327	-0.269307	0.057657
60419	10.585695	-1.516295	-4.726447	0.202824	1.970277	0.471131	0.049227	0.110033	0.992708	-0.275902	0.956738	-0.092365	-0.959924	-0.269344	0.077455
60420	10.544570	-1.996127	-4.931056	0.363347	1.895055	0.521116	0.065901	0.120170	0.990564	-0.279730	0.955139	-0.097262	-0.957814	-0.270681	0.096560
60421	10.253051	-1.818116	-4.929297	0.497678	1.871353	0.595640	0.082096	0.131052	0.987970	-0.285091	0.952980	-0.102721	-0.954978	-0.273228	0.115598
60422	9.342648	-2.523240	-5.015992	0.646059	1.921956	0.638642	0.098524	0.142453	0.984886	-0.291871	0.950312	-0.108255	-0.951370	-0.276794	0.135207
60423	8.504155	-3.197523	-5.231804	1.123251	1.948445	0.650232	0.115039	0.154196	0.981320	-0.303369	0.946137	-0.113104	-0.945903	-0.284691	0.155621
60424	7.717017	-3.123025	-5.213856	1.684097	1.938588	0.630056	0.131289	0.165819	0.977378	-0.320058	0.940205	-0.116520	-0.938257	-0.297520	0.176510
60425	7.391401	-2.911746	-5.410657	2.224062	1.872426	0.564610	0.146848	0.176948	0.973204	-0.341740	0.932363	-0.117957	-0.928251	-0.315261	0.197386
60426	7.162012	-2.375315	-5.239794	2.670861	1.793894	0.440958	0.161776	0.186922	0.968963	-0.367099	0.922828	-0.116732	-0.916006	-0.336820	0.217911
60427	6.797189	-1.220345	-4.764573	2.841307	1.728226	0.292230	0.176316	0.195721	0.964679	-0.393550	0.912311	-0.113167	-0.902237	-0.359696	0.237881
60428	6.598560	-0.716687	-4.162052	2.731105	1.652848	0.129604	0.190534	0.203052	0.960451	-0.418285	0.901908	-0.107696	-0.888107	-0.381223	0.256778
60429	6.522114	-0.308837	-3.249654	2.563935	1.574423	-0.000320	0.204336	0.209291	0.956266	-0.440978	0.891822	-0.100958	-0.873948	-0.401063	0.274523
60430	6.501679	-0.272795	-2.874142	2.413158	1.486685	-0.059080	0.217437	0.214895	0.952125	-0.461823	0.882019	-0.093605	-0.859908	-0.419359	0.291027
60431	6.387739	-0.119282	-2.633484	2.140820	1.363853	-0.060066	0.229282	0.220262	0.948111	-0.480040	0.872951	-0.086713	-0.846753	-0.435249	0.305886
60432	6.286407	0.121977	-1.996191	1.776367	1.234781	-0.018020	0.239699	0.225586	0.944275	-0.494985	0.865116	-0.081025	-0.835185	-0.447980	0.319029
60433	5.905698	0.531374	-1.488553	1.397436	1.083773	0.018630	0.248525	0.230703	0.940750	-0.506698	0.858703	-0.076724	-0.825526	-0.457609	0.330306
60434	5.560478	1.141498	-1.393486	1.076780	0.844098	0.041832	0.255191	0.234981	0.937903	-0.515699	0.853607	-0.073546	-0.817882	-0.464908	0.339013
60435	5.202880	1.460411	-1.293940	0.805016	0.567071	0.021337	0.259622	0.237847	0.935962	-0.522362	0.849759	-0.071045	-0.812240	-0.470466	0.344858
60436	5.090026	2.321480	-1.016133	0.582147	0.247768	-0.003128	0.261590	0.239016	0.935116	-0.527119	0.846983	-0.069033	-0.808527	-0.474859	0.347552
60437	5.366891	3.232451	-0.688653	0.221306	-0.045772	-0.056205	0.261438	0.238335	0.935332	-0.528787	0.846044	-0.067780	-0.807487	-0.476871	0.347217
60438	6.044758	3.805244	-0.186553	-0.152472	-0.285933	-0.111964	0.259662	0.236049	0.936406	-0.527310	0.847004	-0.067292	-0.809024	-0.476304	0.344406
60439	7.165246	3.776547	0.631635	-0.485642	-0.391040	-0.137346	0.257138	0.233016	0.937861	-0.523019	0.849628	-0.067695	-0.812607	-0.473112	0.340344
60440	8.290192	2.989993	1.883181	-0.628916	-0.292523	-0.145015	0.255454	0.230429	0.938960	-0.517572	0.852893	-0.068497	-0.816616	-0.468482	0.337139
60441	9.112026	2.313237	2.934958	-0.606333	-0.021024	-0.100908	0.255732	0.229437	0.939127	-0.512333	0.855961	-0.069606	-0.819826	-0.463346	0.336445
60442	9.112410	0.817448	3.376807	-0.596883	0.232684	0.034522	0.257411	0.230830	0.938327	-0.507569	0.858599	-0.071976	-0.822261	-0.457739	0.338175
60443	8.969577	-1.377708	4.261406	-0.510584	0.354177	0.269638	0.258897	0.234718	0.936952	-0.504034	0.860312	-0.076245	-0.823967	-0.452516	0.341038
60444	9.048540	-3.362863	5.011698	-0.339295	0.328338	0.567953	0.258690	0.241111	0.935385	-0.502755	0.860459	-0.082756	-0.824813	-0.448861	0.343811
60445	9.799875	-4.262889	5.938112	-0.002950	0.289018	0.903364	0.256455	0.250141	0.933628	-0.505041	0.858261	-0.091221	-0.824115	-0.448126	0.346437
60446	10.220764	-4.785755	7.630605	0.389098	0.332469	1.152917	0.253276	0.261529	0.931372	-0.511228	0.853531	-0.100649	-0.821278	-0.450651	0.349880
60447	10.528060	-3.992292	10.535861	0.697123	0.420319	1.216029	0.250379	0.273769	0.928634	-0.520008	0.847110	-0.109531	-0.816641	-0.455473	0.354461
60448	11.183617	-3.102456	12.401888	0.903054	0.558594	1.104405	0.249068	0.285672	0.925395	-0.530160	0.839846	-0.116571	-0.810491	-0.461574	0.360631
60449	11.141639	-2.551965	12.360501	0.946907	0.769798	0.935352	0.250206	0.297095	0.921484	-0.540179	0.832690	-0.121795	-0.803494	-0.467293	0.368828
60450	10.097248	-1.393369	10.803574	1.075692	0.885448	0.711959	0.253344	0.307187	0.917307	-0.550619	0.825443	-0.124352	-0.795384	-0.473582	0.378264
60451	8.760620	-0.404123	9.251990	1.138516	0.856263	0.487480	0.257341	0.315327	0.913425	-0.560940	0.818441	-0.124502	-0.786843	-0.480337	0.387498
60452	7.611825	0.856078	7.653934	1.020360	0.689770	0.343264	0.260745	0.321483	0.910308	-0.569866	0.812378	-0.123668	-0.779272	-0.486508	0.395026
60453	6.739008	1.699035	6.105251	0.614123	0.347675	0.288324	0.261731	0.325575	0.908569	-0.575473	0.808381	-0.123898	-0.774808	-0.490429	0.398938
60454	6.782144	1.881358	4.666394	0.016541	-0.039556	0.275839	0.259778	0.327632	0.908390	-0.576367	0.807362	-0.126366	-0.774801	-0.490739	0.398571
60455	7.708655	1.077464	3.211322	-0.515367	-0.279064	0.227171	0.256247	0.328156	0.909204	-0.573031	0.809075	-0.130516	-0.778443	-0.487557	0.395366
60456	8.773074	-1.098186	2.445427	-0.644748	-0.224904	0.145517	0.253603	0.328266	0.909905	-0.568415	0.811689	-0.134408	-0.782681	-0.483117	0.392438
60457	11.208324	-2.618776	0.520229	-0.358768	-0.724758	0.114196	0.247213	0.325741	0.912567	-0.565960	0.812991	-0.136879	-0.786496	-0.482638	0.385338
60458	19.506365	-1.646989	0.900766	0.599084	-1.306581	0.048528	0.236605	0.319791	0.917470	-0.570834	0.809878	-0.135078	-0.786236	-0.491763	0.374169
60459	19.650158	-2.810841	2.439893	2.537567	-1.163754	-0.269161	0.229029	0.311791	0.922134	-0.590058	0.797900	-0.123233	-0.774194	-0.515889	0.366717
60460	13.005639	-4.317955	5.031589	3.779456	-0.793578	-0.196316	0.224096	0.306041	0.925267	-0.618523	0.778358	-0.107645	-0.753133	-0.548177	0.363721
60461	7.200407	-1.004026	2.135190	4.083132	-1.377260	0.455057	0.210931	0.301751	0.929760	-0.649845	0.753823	-0.097223	-0.730212	-0.583693	0.355096
60462	8.892371	3.232030	-1.060489	3.269487	-1.648590	0.962639	0.192604	0.299050	0.934598	-0.675405	0.731325	-0.094819	-0.711851	-0.612970	0.342836
60463	9.819277	6.745542	-3.646833	1.717485	-1.071973	1.051108	0.177791	0.300010	0.937222	-0.689521	0.717486	-0.098869	-0.702105	-0.628656	0.334426
60464	6.892689	7.002759	-4.130893	-0.341309	-0.485673	0.800735	0.168796	0.302716	0.938015	-0.688546	0.717175	-0.107543	-0.705275	-0.627713	0.329490
60465	5.473873	1.608673	-3.351262	-1.903804	-0.677940	0.657499	0.159435	0.303202	0.939494	-0.676043	0.727040	-0.119911	-0.719407	-0.616021	0.320893
60466	7.117557	-4.097061	-2.532858	-2.059495	-1.041893	0.824010	0.146284	0.302892	0.941731	-0.662367	0.737066	-0.134176	-0.734759	-0.604144	0.308446
60467	7.003537	-8.363090	-2.890488	-1.588398	-1.510652	0.793599	0.129827	0.299641	0.945177	-0.651653	0.744249	-0.146433	-0.747324	-0.596916	0.291886
60468	8.431073	-9.708155	-4.604302	-1.009183	-2.012139	0.510911	0.111327	0.291475	0.950078	-0.644720	0.748715	-0.154152	-0.756269	-0.595373	0.271272
60469	10.681996	-8.933913	-4.968969	-0.157497	-2.034281	0.454372	0.092917	0.282670	0.954706	-0.643948	0.748384	-0.158910	-0.759406	-0.600016	0.251563
60470	11.108157	-4.485624	-3.068455	0.575084	-1.716727	0.577175	0.076108	0.276611	0.957964	-0.648833	0.743253	-0.163065	-0.757115	-0.609148	0.236042
60471	10.063076	0.155888	-0.969777	0.519551	-1.511223	0.615354	0.060598	0.271854	0.960429	-0.653127	0.738422	-0.167805	-0.754820	-0.617113	0.222302
60472	9.580246	2.670105	0.169738	0.163798	-1.320613	0.501037	0.047295	0.267380	0.962430	-0.654668	0.736016	-0.172307	-0.754436	-0.621922	0.209855
60473	9.124046	3.142058	0.861063	-0.271685	-1.207123	0.286548	0.036224	0.261914	0.964411	-0.652660	0.737010	-0.175642	-0.756784	-0.623071	0.197639
60474	9.522023	1.901383	1.067534	-0.721267	-1.234462	0.126412	0.025969	0.255183	0.966544	-0.647257	0.741131	-0.178280	-0.761830	-0.620972	0.184415
60475	10.166393	-0.141464	0.797557	-0.973385	-1.305439	0.130294	0.015071	0.248000	0.968643	-0.639746	0.746903	-0.181275	-0.768439	-0.616953	0.169913
60476	10.030761	-1.989687	0.458597	-1.073737	-1.375648	0.186040	0.003209	0.240954	0.970531	-0.631508	0.753010	-0.184862	-0.775363	-0.612305	0.154581
60477	9.406641	-3.249821	-0.055140	-1.048701	-1.449866	0.196476	-0.009386	0.233522	0.972306	-0.623237	0.759021	-0.188313	-0.781976	-0.607745	0.138415
60478	9.295872	-3.471401	0.045883	-1.019788	-1.528630	0.233405	-0.022892	0.226058	0.973845	-0.615227	0.764624	-0.191953	-0.788018	-0.603529	0.121573
60479	9.151091	-3.686649	0.061307	-0.965945	-1.526617	0.258782	-0.036625	0.218795	0.975083	-0.607410	0.769937	-0.195577	-0.793544	-0.599438	0.104699
