// General information: 
//  MT Manager version: 2022.2.0 
//  XDA version: 2022.2.0 build 7381 rev 124627 built on 2023-07-19
// Device information: 
//  DeviceId: 00B4CB9F
//  ProductCode: MTW2-3A7G6
//  Firmware Version: 4.6.0
//  Hardware Version: 2.0.0
// Device settings: 
//  Filter Profile: human(46.1)
//  Option Flags: Orientation Smoother Disabled, Position/Velocity Smoother Disabled, Continuous Zero Rotation Update Disabled, AHS Disabled, ICC Disabled
// Coordinate system: ENU
PacketCounter	Acc_X	Acc_Y	Acc_Z	Gyr_X	Gyr_Y	Gyr_Z	Mat[1][1]	Mat[2][1]	Mat[3][1]	Mat[1][2]	Mat[2][2]	Mat[3][2]	Mat[1][3]	Mat[2][3]	Mat[3][3]
25224	9.801924	0.876660	0.268535	0.091980	-0.062665	-0.015435	0.047845	-0.094459	0.994378	-0.436822	0.893296	0.105874	-0.898275	-0.439432	0.001478
25225	9.765477	0.879041	0.168203	0.116871	-0.051964	-0.003828	0.047306	-0.094676	0.994383	-0.437903	0.892771	0.105834	-0.897777	-0.440450	0.000775
25226	9.743400	0.982012	0.082893	0.127270	-0.051094	-0.000150	0.046789	-0.094889	0.994388	-0.439060	0.892207	0.105798	-0.897239	-0.441546	0.000084
25227	9.691025	1.008986	0.065355	0.125837	-0.056310	-0.004980	0.046178	-0.095144	0.994392	-0.440225	0.891637	0.105756	-0.896699	-0.442640	-0.000711
25228	9.669737	1.037094	0.009166	0.124215	-0.072845	-0.006344	0.045494	-0.095510	0.994388	-0.441351	0.891078	0.105779	-0.896181	-0.443687	-0.001615
25229	9.617321	1.051129	-0.042852	0.107566	-0.089378	-0.005957	0.044762	-0.095897	0.994384	-0.442488	0.890512	0.105798	-0.895657	-0.444739	-0.002572
25230	9.731701	1.053172	-0.053702	0.103177	-0.103202	-0.008582	0.043817	-0.096418	0.994376	-0.443423	0.890041	0.105841	-0.895241	-0.445567	-0.003755
25231	9.747016	1.054752	-0.083648	0.099079	-0.102969	-0.017316	0.042806	-0.097033	0.994360	-0.444436	0.889525	0.105935	-0.894787	-0.446464	-0.005048
25232	9.793189	1.030688	-0.214593	0.093093	-0.093532	-0.012071	0.041964	-0.097544	0.994346	-0.445279	0.889094	0.106011	-0.894408	-0.447210	-0.006125
25233	9.735592	1.024274	-0.239785	0.100630	-0.083477	-0.011605	0.041274	-0.097976	0.994333	-0.446354	0.888547	0.106080	-0.893904	-0.448203	-0.007058
25234	9.684160	1.003575	-0.164855	0.102270	-0.081399	-0.011254	0.040538	-0.098427	0.994318	-0.447279	0.888074	0.106145	-0.893475	-0.449040	-0.008024
25235	9.726759	0.910352	-0.172042	0.103390	-0.085643	-0.014041	0.039823	-0.098914	0.994299	-0.448469	0.887461	0.106247	-0.892911	-0.450143	-0.009018
25236	9.757183	0.898893	-0.251266	0.109784	-0.090979	-0.017223	0.039029	-0.099463	0.994276	-0.449458	0.886946	0.106369	-0.892449	-0.451036	-0.010088
25237	9.693641	0.960584	-0.248999	0.108731	-0.097850	-0.021717	0.038138	-0.100080	0.994248	-0.450603	0.886349	0.106503	-0.891909	-0.452073	-0.011292
25238	9.671621	1.002748	-0.276811	0.110324	-0.104359	-0.020508	0.037241	-0.100720	0.994218	-0.451595	0.885825	0.106655	-0.891446	-0.452956	-0.012496
25239	9.779420	1.046451	-0.325216	0.105822	-0.100715	-0.017733	0.036320	-0.101303	0.994192	-0.452603	0.885301	0.106742	-0.890972	-0.453851	-0.013696
25240	9.830297	1.109289	-0.325147	0.107158	-0.097659	-0.014015	0.035454	-0.101857	0.994167	-0.453568	0.884796	0.106827	-0.890516	-0.454710	-0.014830
25241	9.768456	1.109687	-0.259857	0.099825	-0.096494	-0.017971	0.034568	-0.102453	0.994137	-0.454651	0.884227	0.106934	-0.889999	-0.455682	-0.016015
25242	9.769213	1.023356	-0.270129	0.080315	-0.095256	-0.021449	0.033758	-0.103063	0.994102	-0.455374	0.883835	0.107095	-0.889660	-0.456304	-0.017096
25243	9.757553	1.031833	-0.320360	0.080993	-0.092057	-0.022768	0.032996	-0.103676	0.994064	-0.456364	0.883303	0.107272	-0.889181	-0.457195	-0.018168
25244	9.768229	1.027339	-0.289864	0.078617	-0.090984	-0.023745	0.032236	-0.104289	0.994025	-0.457072	0.882915	0.107454	-0.888845	-0.457805	-0.019206
25245	9.799393	1.070863	-0.242491	0.084005	-0.089381	-0.026829	0.031492	-0.104908	0.993983	-0.457909	0.882458	0.107645	-0.888441	-0.458544	-0.020248
25246	9.756688	1.065812	-0.285659	0.068661	-0.085002	-0.027925	0.030805	-0.105531	0.993939	-0.458527	0.882110	0.107869	-0.888147	-0.459070	-0.021215
25247	9.752232	1.061864	-0.235237	0.058987	-0.083332	-0.029126	0.030162	-0.106165	0.993891	-0.459386	0.881633	0.108115	-0.887725	-0.459840	-0.022179
25248	9.725165	1.070651	-0.265099	0.048361	-0.083895	-0.025627	0.029475	-0.106764	0.993847	-0.459824	0.881379	0.108319	-0.887521	-0.460188	-0.023114
25249	9.823941	1.074656	-0.257038	0.027467	-0.083258	-0.024649	0.028816	-0.107349	0.993804	-0.460339	0.881085	0.108521	-0.887275	-0.460614	-0.024028
25250	9.843409	1.111122	-0.280222	0.008827	-0.077254	-0.024638	0.028184	-0.107909	0.993761	-0.460427	0.881014	0.108725	-0.887250	-0.460619	-0.024854
25251	9.871310	1.188188	-0.357648	-0.009967	-0.064774	-0.026553	0.027631	-0.108444	0.993718	-0.460562	0.880917	0.108941	-0.887197	-0.460680	-0.025605
25252	9.790807	1.209692	-0.426838	-0.026479	-0.061383	-0.030293	0.027166	-0.108981	0.993673	-0.460336	0.881002	0.109209	-0.887329	-0.460390	-0.026235
25253	9.732179	1.191025	-0.477895	-0.048923	-0.049030	-0.025072	0.026786	-0.109415	0.993635	-0.460050	0.881124	0.109427	-0.887489	-0.460053	-0.026735
25254	9.741473	1.146432	-0.536782	-0.060152	-0.046743	-0.029238	0.026445	-0.109874	0.993594	-0.459526	0.881364	0.109694	-0.887771	-0.459483	-0.027182
25255	9.688664	1.189524	-0.519054	-0.058464	-0.041892	-0.031561	0.026140	-0.110303	0.993554	-0.459008	0.881603	0.109951	-0.888048	-0.458923	-0.027585
25256	9.720474	1.118853	-0.528636	-0.071494	-0.041356	-0.028988	0.025846	-0.110735	0.993514	-0.458382	0.881894	0.110219	-0.888379	-0.458258	-0.027966
25257	9.744879	1.074811	-0.605920	-0.087963	-0.041348	-0.026364	0.025486	-0.111135	0.993478	-0.457683	0.882230	0.110432	-0.888750	-0.457513	-0.028380
25258	9.867009	1.120675	-0.667066	-0.083296	-0.037102	-0.026388	0.025217	-0.111525	0.993442	-0.456954	0.882578	0.110678	-0.889133	-0.456748	-0.028705
25259	9.943796	1.165945	-0.670246	-0.081040	-0.031746	-0.027362	0.024988	-0.111880	0.993407	-0.456281	0.882897	0.110911	-0.889485	-0.456044	-0.028987
25260	9.863731	1.201429	-0.703129	-0.080917	-0.023783	-0.024557	0.024829	-0.112192	0.993376	-0.455572	0.883234	0.111139	-0.889853	-0.455314	-0.029182
25261	9.775608	1.195466	-0.680538	-0.086035	-0.026708	-0.014089	0.024551	-0.112484	0.993350	-0.455137	0.883440	0.111286	-0.890083	-0.454843	-0.029506
25262	9.668437	1.167922	-0.611485	-0.091426	-0.031139	-0.008354	0.024251	-0.112686	0.993335	-0.454339	0.883841	0.111357	-0.890499	-0.454011	-0.029763
25263	9.630494	1.141376	-0.488710	-0.086813	-0.040726	-0.012975	0.023807	-0.113001	0.993310	-0.453755	0.884129	0.111456	-0.890809	-0.453372	-0.030226
25264	9.747603	1.084095	-0.431413	-0.081583	-0.035966	-0.011645	0.023479	-0.113254	0.993289	-0.453043	0.884481	0.111556	-0.891179	-0.452622	-0.030542
25265	9.838057	1.032835	-0.394450	-0.069538	-0.024283	-0.008628	0.023118	-0.113454	0.993274	-0.452397	0.884807	0.111594	-0.891517	-0.451934	-0.030872
25266	9.811152	1.039886	-0.416817	-0.052343	-0.019170	-0.000766	0.022890	-0.113534	0.993270	-0.451949	0.885038	0.111578	-0.891750	-0.451461	-0.031053
25267	9.757920	0.997626	-0.305545	-0.035892	-0.016673	0.004707	0.022666	-0.113537	0.993275	-0.451797	0.885127	0.111484	-0.891833	-0.451286	-0.031234
25268	9.742228	0.983139	-0.319364	-0.022312	-0.014201	0.011577	0.022426	-0.113485	0.993287	-0.451620	0.885237	0.111337	-0.891929	-0.451085	-0.031399
25269	9.731967	1.015349	-0.296406	-0.011142	-0.002013	0.016651	0.022265	-0.113304	0.993311	-0.451591	0.885281	0.111104	-0.891947	-0.451044	-0.031456
25270	9.725738	1.068127	-0.300249	-0.000471	0.001341	0.010465	0.022170	-0.113192	0.993326	-0.451607	0.885290	0.110961	-0.891941	-0.451053	-0.031492
25271	9.755968	1.067949	-0.338143	-0.007352	0.008894	0.009718	0.022160	-0.113014	0.993346	-0.451549	0.885340	0.110799	-0.891971	-0.451000	-0.031412
25272	9.806637	1.115587	-0.358232	-0.005918	0.017520	0.008171	0.022219	-0.112849	0.993364	-0.451517	0.885372	0.110680	-0.891986	-0.450979	-0.031281
25273	9.765654	1.134104	-0.325900	-0.009819	0.024468	0.009714	0.022355	-0.112627	0.993386	-0.451656	0.885318	0.110538	-0.891912	-0.451140	-0.031077
25274	9.743764	1.173580	-0.339908	-0.017269	0.022907	0.008469	0.022461	-0.112435	0.993405	-0.451523	0.885401	0.110420	-0.891977	-0.451026	-0.030880
25275	9.728867	1.172488	-0.318137	-0.030393	0.024042	0.007372	0.022595	-0.112228	0.993426	-0.451291	0.885533	0.110304	-0.892091	-0.450816	-0.030639
25276	9.691918	1.211683	-0.312592	-0.036528	0.025598	0.009862	0.022718	-0.112012	0.993447	-0.450986	0.885704	0.110177	-0.892242	-0.450534	-0.030394
25277	9.692107	1.210863	-0.309873	-0.058365	0.018664	0.010102	0.022746	-0.111790	0.993471	-0.450427	0.886010	0.110011	-0.892524	-0.449989	-0.030200
25278	9.728763	1.157036	-0.341457	-0.074053	0.027384	0.006158	0.022903	-0.111599	0.993489	-0.449786	0.886345	0.109932	-0.892843	-0.449375	-0.029896
25279	9.760304	1.184599	-0.312662	-0.086749	0.024420	-0.002778	0.023068	-0.111498	0.993497	-0.449101	0.886692	0.109939	-0.893183	-0.448716	-0.029619
25280	9.759147	1.158373	-0.372668	-0.090527	0.030702	0.002452	0.023271	-0.111325	0.993512	-0.448312	0.887095	0.109901	-0.893574	-0.447960	-0.029264
25281	9.693578	1.109429	-0.328584	-0.091318	0.025309	0.002685	0.023517	-0.111170	0.993523	-0.447826	0.887342	0.109889	-0.893811	-0.447510	-0.028917
25282	9.736115	1.116538	-0.291918	-0.090741	0.017175	0.004854	0.023589	-0.111036	0.993536	-0.447036	0.887748	0.109827	-0.894205	-0.446737	-0.028696
25283	9.696614	1.047460	-0.260233	-0.087926	0.014432	0.006091	0.023628	-0.110910	0.993550	-0.446419	0.888068	0.109752	-0.894512	-0.446132	-0.028529
25284	9.800176	1.069355	-0.268920	-0.078868	0.018111	0.007704	0.023696	-0.110747	0.993566	-0.445734	0.888423	0.109658	-0.894852	-0.445465	-0.028312
25285	9.763608	0.994493	-0.328258	-0.084525	0.020779	0.007847	0.023782	-0.110576	0.993583	-0.445068	0.888769	0.109564	-0.895181	-0.444818	-0.028077
25286	9.758469	0.947050	-0.361837	-0.078440	0.025068	0.007171	0.023915	-0.110387	0.993601	-0.444387	0.889121	0.109475	-0.895516	-0.444161	-0.027791
25287	9.761388	0.884591	-0.295995	-0.064983	0.028162	0.010396	0.024013	-0.110174	0.993622	-0.443921	0.889370	0.109343	-0.895744	-0.443715	-0.027552
25288	9.767856	0.829495	-0.289397	-0.044432	0.028600	0.012782	0.024152	-0.109920	0.993647	-0.443546	0.889576	0.109188	-0.895926	-0.443365	-0.027269
25289	9.795326	0.834393	-0.233177	-0.015536	0.035324	0.019907	0.024250	-0.109588	0.993681	-0.443468	0.889646	0.108936	-0.895962	-0.443307	-0.027025
25290	9.811869	0.858700	-0.184336	0.007867	0.046839	0.028241	0.024484	-0.109115	0.993728	-0.443565	0.889637	0.108614	-0.895908	-0.443442	-0.026618
25291	9.807573	0.949312	-0.086456	0.028343	0.065138	0.025339	0.024849	-0.108614	0.993773	-0.443951	0.889480	0.108316	-0.895706	-0.443879	-0.026117
25292	9.845275	0.959684	0.418786	0.047733	0.098652	0.032564	0.025527	-0.107873	0.993837	-0.444407	0.889298	0.107941	-0.895461	-0.444424	-0.025238
25293	9.924251	0.788777	1.300636	0.080532	0.164102	0.045035	0.026840	-0.106721	0.993927	-0.445492	0.888813	0.107464	-0.894884	-0.445671	-0.023688
25294	9.876839	0.350119	1.835187	0.103975	0.247002	0.062026	0.028713	-0.105054	0.994052	-0.446460	0.888409	0.106785	-0.894343	-0.446870	-0.021394
25295	9.822642	0.199524	1.566217	0.125406	0.269435	0.073301	0.030704	-0.103166	0.994190	-0.447653	0.887907	0.105962	-0.893680	-0.448306	-0.018920
25296	10.071050	0.716250	1.244819	0.133767	0.292947	0.083387	0.032887	-0.101097	0.994333	-0.448895	0.887386	0.105070	-0.892979	-0.449807	-0.016199
25297	9.901636	1.223215	1.025097	0.100169	0.323726	0.104079	0.035295	-0.098685	0.994493	-0.450025	0.886941	0.103985	-0.892318	-0.451217	-0.013106
25298	9.457484	1.346316	0.665043	0.009173	0.306845	0.118498	0.037440	-0.096236	0.994654	-0.450171	0.887009	0.102766	-0.892157	-0.451612	-0.010113
25299	9.412188	1.472798	0.373277	-0.071722	0.258313	0.121703	0.039044	-0.093982	0.994808	-0.449618	0.887437	0.101485	-0.892367	-0.451246	-0.007607
25300	9.605213	1.477628	0.334927	-0.104613	0.227607	0.112806	0.040509	-0.091941	0.994940	-0.448751	0.888007	0.100330	-0.892738	-0.450545	-0.005286
25301	9.823283	1.629895	0.477295	-0.102384	0.204697	0.106247	0.041890	-0.090036	0.995057	-0.448119	0.888447	0.099255	-0.892992	-0.450062	-0.003130
25302	10.161569	1.657242	0.877547	-0.115751	0.218297	0.111885	0.043279	-0.088047	0.995176	-0.447154	0.889060	0.098105	-0.893409	-0.449243	-0.000893
25303	10.260011	1.560086	1.144263	-0.156225	0.257900	0.124115	0.044938	-0.085766	0.995301	-0.445858	0.889853	0.096810	-0.893975	-0.448113	0.001749
25304	9.785266	1.541107	1.190122	-0.229508	0.270182	0.143777	0.046654	-0.083263	0.995435	-0.443893	0.890994	0.095332	-0.894864	-0.446314	0.004609
25305	9.287457	1.724153	0.834293	-0.320887	0.232895	0.165219	0.048025	-0.080707	0.995580	-0.441140	0.892540	0.093634	-0.896152	-0.443687	0.007261
25306	9.041815	2.044651	0.499220	-0.414939	0.208755	0.173298	0.049077	-0.078222	0.995727	-0.437525	0.894505	0.091834	-0.897866	-0.440162	0.009675
25307	8.965526	2.077248	0.171721	-0.500917	0.192570	0.162910	0.050051	-0.075877	0.995860	-0.433217	0.896775	0.090100	-0.899899	-0.435933	0.012013
25308	9.073814	1.786619	-0.267529	-0.557162	0.143914	0.134129	0.050710	-0.074034	0.995966	-0.428287	0.899284	0.088654	-0.902219	-0.431054	0.013895
25309	9.148337	1.274628	-0.590144	-0.568447	0.083942	0.115864	0.050859	-0.072619	0.996062	-0.423238	0.901797	0.087357	-0.904590	-0.426014	0.015130
25310	9.226341	0.791835	-0.564394	-0.501300	0.025468	0.117259	0.050537	-0.071437	0.996164	-0.418780	0.903999	0.086073	-0.906680	-0.421523	0.015769
25311	9.464708	0.321576	-0.570505	-0.385572	-0.030209	0.127161	0.049694	-0.070405	0.996280	-0.415486	0.905645	0.084724	-0.908241	-0.418151	0.015752
25312	9.701744	0.147929	-0.474481	-0.203060	-0.067393	0.148701	0.048405	-0.069323	0.996419	-0.413737	0.906589	0.083172	-0.909109	-0.416281	0.015202
25313	9.901556	0.134856	-0.277681	-0.022358	-0.087177	0.164484	0.046870	-0.068191	0.996571	-0.413786	0.906719	0.081504	-0.909167	-0.416187	0.014281
25314	9.927697	0.197241	0.124390	0.119315	-0.115725	0.195011	0.044950	-0.066890	0.996747	-0.414983	0.906346	0.079537	-0.908718	-0.417208	0.012982
25315	9.900123	0.291619	0.381251	0.230384	-0.139854	0.239833	0.042740	-0.065235	0.996954	-0.417424	0.905432	0.077142	-0.907706	-0.419450	0.011467
25316	9.887618	0.465600	0.457395	0.319346	-0.154986	0.292123	0.040051	-0.063229	0.997195	-0.420465	0.904268	0.074224	-0.906425	-0.422258	0.009631
25317	9.708293	0.868416	0.073644	0.377576	-0.167695	0.338505	0.036946	-0.060848	0.997463	-0.423803	0.902984	0.070782	-0.905000	-0.425343	0.007574
25318	9.648839	1.501422	-0.144829	0.402031	-0.177169	0.357574	0.033762	-0.058363	0.997724	-0.427588	0.901472	0.067202	-0.903343	-0.428884	0.005480
25319	9.486915	1.869786	-0.174721	0.389006	-0.170465	0.371983	0.030506	-0.055757	0.997978	-0.431362	0.899944	0.063466	-0.901663	-0.432426	0.003402
25320	9.310071	1.802599	-0.129553	0.358714	-0.180538	0.378135	0.027182	-0.053125	0.998218	-0.434725	0.898585	0.059661	-0.900153	-0.435572	0.001331
25321	9.490919	1.507951	-0.294234	0.344951	-0.196691	0.373121	0.023799	-0.050599	0.998435	-0.438133	0.897170	0.055910	-0.898595	-0.438778	-0.000817
25322	9.656458	1.299618	-0.437946	0.376628	-0.203016	0.363381	0.020318	-0.048221	0.998630	-0.441616	0.895682	0.052235	-0.896974	-0.442073	-0.003097
25323	9.538378	1.339103	-0.342315	0.406419	-0.196616	0.375386	0.016845	-0.045721	0.998812	-0.445308	0.894066	0.048437	-0.895219	-0.445595	-0.005299
25324	9.301955	1.259652	-0.122184	0.433158	-0.213317	0.400538	0.013086	-0.043084	0.998986	-0.449264	0.892297	0.044368	-0.893303	-0.449388	-0.007680
25325	9.160166	1.076550	0.082910	0.415733	-0.236988	0.408260	0.008924	-0.040510	0.999139	-0.452734	0.890741	0.040159	-0.891601	-0.452702	-0.010391
25326	9.195344	0.922117	0.084902	0.404358	-0.262338	0.413644	0.004647	-0.038008	0.999267	-0.456385	0.889056	0.035939	-0.889770	-0.456217	-0.013215
25327	9.130937	0.752117	0.226254	0.419206	-0.290503	0.410830	0.000032	-0.035685	0.999363	-0.459887	0.887411	0.031702	-0.887977	-0.459595	-0.016383
25328	9.160009	0.673565	0.342387	0.448378	-0.346768	0.409155	-0.004994	-0.033646	0.999421	-0.463875	0.885474	0.027492	-0.885887	-0.463469	-0.020030
25329	9.422203	1.008658	0.303857	0.487592	-0.389198	0.391528	-0.010336	-0.032014	0.999434	-0.468272	0.883273	0.023450	-0.883524	-0.467765	-0.024120
25330	9.422939	1.728925	0.365039	0.493228	-0.409821	0.371542	-0.015761	-0.030649	0.999406	-0.472596	0.881062	0.019567	-0.881138	-0.472007	-0.028371
25331	9.146669	2.255585	0.520201	0.385578	-0.435286	0.364595	-0.021474	-0.029525	0.999333	-0.475855	0.879383	0.015756	-0.879262	-0.475199	-0.032934
25332	8.996033	2.168891	0.847701	0.208012	-0.465938	0.351771	-0.027307	-0.028640	0.999217	-0.477617	0.878484	0.012127	-0.878143	-0.476912	-0.037667
25333	9.142030	1.175157	1.016060	0.031641	-0.488940	0.333103	-0.033316	-0.028099	0.999050	-0.477833	0.878407	0.008771	-0.877819	-0.477087	-0.042691
25334	9.701444	0.022519	1.394978	-0.036287	-0.494857	0.315644	-0.039229	-0.027674	0.998847	-0.477420	0.878657	0.005594	-0.877799	-0.476650	-0.047681
25335	10.160406	-1.065014	1.690191	-0.056311	-0.457087	0.296839	-0.044787	-0.027286	0.998624	-0.476785	0.879016	0.002634	-0.877878	-0.476011	-0.052378
25336	10.650624	-2.386944	1.725799	-0.041671	-0.397743	0.284395	-0.049695	-0.026666	0.998408	-0.476304	0.879281	-0.000223	-0.877875	-0.475557	-0.056397
25337	10.346756	-3.420702	1.211116	-0.022651	-0.356408	0.287423	-0.054290	-0.025796	0.998192	-0.475852	0.879520	-0.003151	-0.877848	-0.475162	-0.060024
25338	9.821469	-3.001764	0.169032	0.012207	-0.382183	0.280383	-0.059040	-0.025134	0.997939	-0.475819	0.879523	-0.005998	-0.877559	-0.475193	-0.063886
25339	9.715316	-1.937483	-0.496567	0.022563	-0.391951	0.263488	-0.063694	-0.024662	0.997665	-0.476072	0.879364	-0.008656	-0.877097	-0.475511	-0.067751
25340	9.461397	-1.353632	-0.589392	0.003178	-0.391677	0.235970	-0.068313	-0.024438	0.997365	-0.475963	0.879396	-0.011053	-0.876808	-0.475464	-0.071706
25341	9.318389	-0.956298	-0.493988	-0.008039	-0.397373	0.209489	-0.072989	-0.024450	0.997033	-0.475559	0.879584	-0.013245	-0.876650	-0.475115	-0.075828
25342	9.440253	-0.616089	-0.687785	-0.019194	-0.430419	0.174760	-0.077654	-0.024945	0.996668	-0.475278	0.879708	-0.015013	-0.876402	-0.474860	-0.080169
25343	9.730264	-0.243583	-0.920126	-0.038976	-0.481053	0.144232	-0.082667	-0.025966	0.996239	-0.474886	0.879893	-0.016472	-0.876156	-0.474462	-0.085069
25344	10.034963	0.141021	-1.299387	-0.104178	-0.539997	0.100844	-0.087938	-0.027626	0.995743	-0.473906	0.880403	-0.017427	-0.876174	-0.473421	-0.090513
25345	9.627800	0.236489	-1.673220	-0.164402	-0.620985	0.086190	-0.093872	-0.029799	0.995138	-0.472505	0.881140	-0.018186	-0.876315	-0.471915	-0.096794
25346	9.335832	0.280539	-1.815230	-0.232375	-0.737648	0.076887	-0.100761	-0.032582	0.994377	-0.470412	0.882248	-0.018759	-0.876676	-0.469657	-0.104223
25347	8.935253	-0.127877	-1.785263	-0.291997	-0.830047	0.070476	-0.108466	-0.035901	0.993452	-0.467907	0.883570	-0.019157	-0.877096	-0.466921	-0.112636
25348	9.075211	-0.894174	-1.460036	-0.299391	-0.921447	0.063849	-0.116909	-0.039613	0.992352	-0.465226	0.884977	-0.019482	-0.877438	-0.463946	-0.121891
25349	9.518330	-1.633836	-1.191177	-0.228213	-0.970003	0.053685	-0.125653	-0.043626	0.991115	-0.463389	0.885935	-0.019752	-0.877201	-0.461754	-0.131536
25350	9.839962	-1.779395	-1.151918	-0.116862	-0.995871	0.044909	-0.134654	-0.047806	0.989739	-0.462324	0.886484	-0.020080	-0.876428	-0.460283	-0.141470
25351	9.915271	-1.522492	-1.017008	-0.001701	-0.996288	0.028076	-0.143446	-0.052264	0.988277	-0.462793	0.886234	-0.020305	-0.874783	-0.460280	-0.151315
25352	10.006661	-0.989273	-0.582717	0.117192	-0.984690	0.019669	-0.152202	-0.056613	0.986727	-0.463805	0.885695	-0.020726	-0.872766	-0.460803	-0.161062
25353	9.697652	-0.582402	-0.237595	0.182748	-0.961242	0.009138	-0.160589	-0.061047	0.985132	-0.465765	0.884657	-0.021105	-0.870215	-0.462229	-0.170499
25354	9.385663	-0.616374	0.060192	0.170181	-0.955569	0.005248	-0.168978	-0.065409	0.983447	-0.467251	0.883863	-0.021498	-0.867826	-0.463150	-0.179916
25355	9.288243	-1.002243	0.203234	0.154398	-0.941174	0.000867	-0.177205	-0.069825	0.981694	-0.468781	0.883045	-0.021811	-0.865357	-0.464065	-0.189213
25356	9.198672	-1.348180	0.293202	0.162437	-0.937428	-0.005547	-0.185340	-0.074216	0.979868	-0.470211	0.882277	-0.022115	-0.862874	-0.464843	-0.198418
25357	9.220791	-1.507928	0.373597	0.176139	-0.927155	-0.004391	-0.193447	-0.078508	0.977965	-0.471788	0.881423	-0.022565	-0.860229	-0.465757	-0.207548
25358	9.149837	-1.364823	0.654966	0.202668	-0.915574	0.008820	-0.201413	-0.082688	0.976010	-0.473527	0.880476	-0.023125	-0.857441	-0.466824	-0.216494
25359	9.057943	-1.119017	0.859426	0.210449	-0.919156	0.015636	-0.209473	-0.086834	0.973951	-0.475363	0.879467	-0.023828	-0.854489	-0.467972	-0.225502
25360	9.084881	-0.590916	0.903085	0.176884	-0.931863	0.008147	-0.217521	-0.091115	0.971794	-0.476869	0.878637	-0.024359	-0.851634	-0.468716	-0.234572
25361	9.340811	-0.135615	0.735945	0.114324	-0.907677	-0.008295	-0.225278	-0.095442	0.969609	-0.478075	0.877973	-0.024653	-0.848937	-0.469099	-0.243416
25362	9.620362	0.287521	0.336425	0.040901	-0.882165	-0.029142	-0.232678	-0.099822	0.967417	-0.478502	0.877744	-0.024517	-0.846698	-0.468616	-0.251997
25363	9.998317	0.455549	-0.236974	-0.062203	-0.882919	-0.056712	-0.240053	-0.104529	0.965116	-0.478207	0.877923	-0.023859	-0.844803	-0.467253	-0.260734
25364	10.416947	0.291065	-0.438634	-0.148599	-0.880944	-0.074895	-0.247191	-0.109281	0.962785	-0.477149	0.878527	-0.022789	-0.843342	-0.465025	-0.269307
25365	10.563572	0.151442	-0.610552	-0.205620	-0.895420	-0.077120	-0.254452	-0.114274	0.960310	-0.475910	0.879232	-0.021475	-0.841881	-0.462485	-0.278106
25366	10.508432	0.068621	-0.745469	-0.238861	-0.902639	-0.070543	-0.261770	-0.119043	0.957760	-0.474095	0.880243	-0.020169	-0.840661	-0.459349	-0.286859
25367	10.344320	-0.019779	-1.299028	-0.296921	-0.912282	-0.073108	-0.269066	-0.123914	0.955117	-0.472133	0.881330	-0.018663	-0.839461	-0.455964	-0.295640
25368	10.284937	-0.040773	-2.021405	-0.319255	-0.932638	-0.075638	-0.276593	-0.128803	0.952316	-0.469673	0.882676	-0.017029	-0.838393	-0.451988	-0.304638
25369	10.441559	-0.030744	-1.941709	-0.290290	-0.968510	-0.076283	-0.284448	-0.133836	0.949304	-0.467673	0.883765	-0.015537	-0.836882	-0.448383	-0.313976
25370	10.664037	-0.051532	-1.578420	-0.259935	-1.003211	-0.086143	-0.292492	-0.139064	0.946102	-0.465760	0.884801	-0.013938	-0.835174	-0.444734	-0.323568
25371	10.803431	-0.145549	-1.436596	-0.270814	-1.034949	-0.110716	-0.300656	-0.144765	0.942682	-0.464174	0.885662	-0.012034	-0.833156	-0.441186	-0.333475
25372	10.858081	-0.260532	-1.436315	-0.323882	-1.042879	-0.129870	-0.308793	-0.150480	0.939150	-0.461885	0.886886	-0.009762	-0.831450	-0.436794	-0.343369
25373	10.816508	-0.417363	-1.420142	-0.381694	-1.063504	-0.155503	-0.316871	-0.156504	0.935467	-0.459552	0.888123	-0.007081	-0.829702	-0.432139	-0.353342
25374	11.215784	-0.578205	-1.200574	-0.385800	-1.048255	-0.192847	-0.324735	-0.162707	0.931705	-0.456983	0.889467	-0.003945	-0.828078	-0.427055	-0.363196
25375	11.769470	-0.606615	-0.377479	-0.288982	-1.008581	-0.216765	-0.332183	-0.168961	0.927958	-0.455488	0.890242	-0.000958	-0.825945	-0.422992	-0.372683
25376	12.181737	-0.697022	0.803378	-0.206116	-0.938335	-0.217873	-0.338990	-0.174839	0.924401	-0.454529	0.890730	0.001789	-0.823705	-0.419561	-0.381418
25377	12.330816	-0.959385	1.904689	-0.123198	-0.837522	-0.198289	-0.345114	-0.180180	0.921103	-0.454405	0.890786	0.003996	-0.821226	-0.417175	-0.389298
25378	12.189153	-1.287571	3.104101	-0.056374	-0.718332	-0.164015	-0.350319	-0.184617	0.918256	-0.454523	0.890717	0.005677	-0.818954	-0.415379	-0.395947
25379	12.264921	-1.784841	4.361551	-0.041889	-0.612619	-0.141870	-0.354685	-0.188520	0.915783	-0.455051	0.890437	0.007060	-0.816778	-0.414224	-0.401611
25380	13.095100	-2.298067	5.823465	-0.070312	-0.502734	-0.143743	-0.358192	-0.191863	0.913722	-0.454999	0.890450	0.008611	-0.815276	-0.412659	-0.406250
25381	14.619976	-2.431777	7.479425	-0.046006	-0.312446	-0.142683	-0.360260	-0.194372	0.912377	-0.455231	0.890318	0.009921	-0.814235	-0.411768	-0.409230
25382	16.029074	-1.534329	9.790541	0.103485	0.121433	-0.093253	-0.358904	-0.194686	0.912844	-0.456418	0.889706	0.010301	-0.814168	-0.412942	-0.408178
25383	15.458147	-0.349893	12.707068	0.142235	0.953311	-0.019481	-0.351064	-0.190822	0.916701	-0.457926	0.888938	0.009673	-0.816736	-0.416385	-0.399456
25384	12.864879	0.334834	11.375237	-0.124717	1.480907	0.000712	-0.338989	-0.184621	0.922497	-0.456912	0.889455	0.010108	-0.822386	-0.418074	-0.385871
25385	11.735773	2.092540	8.547466	-0.273719	1.614356	-0.125402	-0.324817	-0.178926	0.928698	-0.455706	0.890048	0.012094	-0.828749	-0.419285	-0.370640
25386	11.108275	3.959922	5.776844	-0.509459	1.677883	-0.208649	-0.309959	-0.173747	0.934739	-0.452139	0.891807	0.015838	-0.836358	-0.417723	-0.354982
25387	10.774075	4.821952	2.841481	-0.768636	1.670779	-0.280611	-0.294516	-0.169144	0.940559	-0.447109	0.894237	0.020811	-0.844603	-0.414403	-0.338993
25388	11.256775	5.548744	1.193933	-1.008777	1.675640	-0.315626	-0.278945	-0.165064	0.946015	-0.439461	0.897853	0.027079	-0.853852	-0.408183	-0.322991
25389	12.289395	5.580529	0.327147	-1.339950	1.720228	-0.290237	-0.262794	-0.160798	0.951359	-0.429247	0.902548	0.033977	-0.864110	-0.399439	-0.306206
25390	12.868640	4.560587	-0.770105	-1.690229	1.806418	-0.261841	-0.246032	-0.156048	0.956618	-0.415225	0.908774	0.041452	-0.875818	-0.387013	-0.288382
25391	13.618693	3.406358	-1.945113	-1.990466	1.813352	-0.244878	-0.228904	-0.151285	0.961621	-0.398673	0.915774	0.049172	-0.888067	-0.372117	-0.269938
25392	15.231300	2.419379	-2.886139	-2.239200	1.763330	-0.236214	-0.212273	-0.147033	0.966086	-0.379185	0.923548	0.057243	-0.900643	-0.354174	-0.251797
25393	16.162517	1.605117	-3.526726	-2.340536	1.828730	-0.174563	-0.194813	-0.142263	0.970468	-0.358897	0.931149	0.064454	-0.912820	-0.335741	-0.232458
25394	16.161935	0.467689	-4.715437	-2.213058	1.938844	0.018598	-0.177128	-0.135731	0.974784	-0.338556	0.938402	0.069146	-0.924124	-0.317771	-0.212169
25395	16.572856	-0.701659	-5.064711	-1.854092	1.943816	0.271283	-0.159685	-0.127172	0.978942	-0.321661	0.944249	0.070196	-0.933293	-0.303678	-0.191688
25396	18.071257	-1.631375	-4.139621	-1.374070	2.019614	0.519382	-0.142454	-0.116203	0.982957	-0.308025	0.948977	0.067546	-0.940653	-0.293153	-0.170979
25397	18.733051	-3.084604	-4.307667	-0.746160	2.272884	0.749615	-0.123048	-0.102218	0.987122	-0.300657	0.951775	0.061080	-0.945761	-0.289269	-0.147846
25398	17.109698	-5.265418	-4.651681	-0.115713	2.622215	0.890754	-0.100930	-0.086104	0.991161	-0.298589	0.952943	0.052379	-0.949030	-0.290663	-0.121890
25399	15.272021	-3.954188	-4.860254	0.861418	2.673919	0.917708	-0.078175	-0.069184	0.994536	-0.306492	0.950944	0.042060	-0.948658	-0.301529	-0.095544
25400	14.686650	-2.243991	-4.967944	1.350805	2.824872	0.827598	-0.054053	-0.052578	0.997153	-0.318773	0.947268	0.032668	-0.946289	-0.316100	-0.067963
25401	12.881556	0.673355	-3.806030	1.560779	3.120183	0.530071	-0.026092	-0.037038	0.998973	-0.333861	0.942258	0.026215	-0.942261	-0.332834	-0.036951
25402	12.666248	1.958736	-4.050685	1.300840	3.099958	0.262518	0.002107	-0.024023	0.999709	-0.346093	0.937912	0.023267	-0.938198	-0.346042	-0.006338
25403	12.809866	4.873360	-3.636512	0.941559	3.166877	0.166046	0.031302	-0.010738	0.999452	-0.355312	0.934508	0.021168	-0.934224	-0.355780	0.025437
25404	11.842362	4.052193	-3.780747	0.358896	3.152480	0.147520	0.060128	0.001936	0.998189	-0.358762	0.933219	0.019800	-0.931491	-0.359302	0.056807
25405	10.917299	3.548678	-3.819834	-0.123171	3.029680	0.233404	0.087772	0.015678	0.996017	-0.358436	0.933401	0.016894	-0.929419	-0.358492	0.087546
25406	9.574335	2.074358	-4.613411	-0.410056	2.891540	0.402046	0.113135	0.029760	0.993134	-0.355069	0.934758	0.012438	-0.927969	-0.354038	0.116321
25407	8.762784	0.722755	-4.784239	-0.579234	2.724572	0.558233	0.136705	0.045037	0.989587	-0.350890	0.936398	0.005857	-0.926384	-0.348038	0.143813
25408	7.865373	-1.014954	-4.969975	-0.382880	2.592182	0.637399	0.158403	0.059993	0.985550	-0.348328	0.937372	-0.001075	-0.923892	-0.343124	0.169380
25409	7.202227	-1.426969	-4.557297	-0.259780	2.418856	0.654326	0.178620	0.075113	0.981047	-0.347488	0.937646	-0.008522	-0.920515	-0.339380	0.193583
25410	6.518286	-1.998670	-4.273586	-0.014147	2.253207	0.638885	0.197035	0.088754	0.976371	-0.348599	0.937154	-0.014841	-0.916327	-0.337438	0.215592
25411	5.581580	-1.542598	-4.266963	0.299454	2.126568	0.594108	0.214601	0.102195	0.971341	-0.353048	0.935382	-0.020412	-0.910661	-0.338550	0.236813
25412	4.535502	-1.498698	-4.782015	0.629746	2.033013	0.483353	0.231268	0.113658	0.966228	-0.359883	0.932700	-0.023576	-0.903880	-0.342276	0.256607
25413	4.122363	-1.127546	-5.257315	1.001745	1.940393	0.345208	0.247650	0.124317	0.960841	-0.369995	0.928703	-0.024795	-0.895418	-0.349366	0.275990
25414	3.923299	-0.298048	-5.408607	1.416940	1.947080	0.189560	0.264216	0.133006	0.955248	-0.383140	0.923414	-0.022600	-0.885095	-0.360022	0.294941
25415	3.844815	0.972228	-5.188340	1.854291	1.955805	0.079469	0.281220	0.141538	0.949148	-0.399823	0.916412	-0.018194	-0.872386	-0.374374	0.314304
25416	3.765594	2.291584	-4.452772	2.151541	1.953120	-0.025102	0.298166	0.148812	0.942843	-0.418411	0.908191	-0.011024	-0.857922	-0.391209	0.333056
25417	3.829631	2.640379	-3.406113	2.228589	1.886156	-0.117286	0.314822	0.155893	0.936261	-0.437116	0.899401	-0.002774	-0.842506	-0.408381	0.351295
25418	3.906096	1.810471	-2.464415	1.995596	1.726900	-0.176175	0.329976	0.161524	0.930068	-0.453263	0.891356	0.006011	-0.828051	-0.423549	0.367339
25419	4.381874	0.620296	-1.014971	1.619025	1.537792	-0.176559	0.343593	0.166960	0.924158	-0.465871	0.884751	0.013366	-0.815419	-0.435131	0.381776
25420	5.070182	-0.133042	-0.014241	1.340963	1.447198	-0.086090	0.355662	0.172589	0.918541	-0.476476	0.878975	0.019338	-0.804037	-0.444540	0.394852
25421	5.266278	-0.696406	0.346958	1.282665	1.453994	0.021537	0.367203	0.179662	0.912624	-0.486863	0.873148	0.024004	-0.792544	-0.453138	0.408094
25422	4.675009	-0.382609	0.644227	1.480783	1.378074	0.056052	0.377708	0.186488	0.906950	-0.498764	0.866233	0.029599	-0.780110	-0.463534	0.420196
25423	4.483011	-0.085990	1.147519	1.723679	1.110305	-0.009219	0.386374	0.191832	0.902173	-0.511877	0.858273	0.036724	-0.767266	-0.475991	0.429809
25424	5.229343	0.624348	2.238054	1.919586	0.852171	-0.100810	0.393323	0.195112	0.898459	-0.526133	0.849162	0.045922	-0.753977	-0.490771	0.436650
25425	6.271935	0.931720	3.732796	1.941621	0.735582	-0.197105	0.399916	0.197340	0.895056	-0.540098	0.839725	0.056177	-0.740515	-0.505884	0.442402
25426	7.513979	1.584273	5.126558	1.835801	0.663354	-0.278833	0.406253	0.198433	0.891955	-0.552499	0.830832	0.066808	-0.727807	-0.519945	0.447162
25427	8.783828	2.394577	6.095295	1.586753	0.597547	-0.324949	0.412385	0.199092	0.888989	-0.562857	0.822980	0.076790	-0.716331	-0.532040	0.451445
25428	9.161081	3.255038	6.637436	1.425053	0.456681	-0.311097	0.417343	0.199014	0.886690	-0.571750	0.815910	0.085980	-0.706348	-0.542848	0.454300
25429	9.061777	3.518494	8.049831	1.330444	0.226204	-0.179653	0.419957	0.198910	0.885478	-0.580404	0.808937	0.093553	-0.697687	-0.553223	0.455167
25430	9.271228	2.567680	9.812264	1.134960	0.070359	0.015560	0.420298	0.199444	0.885196	-0.588395	0.802545	0.098553	-0.690754	-0.562267	0.454660
25431	9.619404	1.345271	10.999065	0.708143	0.056976	0.153338	0.419739	0.201087	0.885089	-0.594020	0.798165	0.100366	-0.686265	-0.567888	0.454471
25432	9.699346	1.286974	10.511286	0.263968	0.096031	0.245603	0.418879	0.203607	0.884921	-0.596905	0.796135	0.099367	-0.684284	-0.569837	0.455018
25433	9.202916	2.299247	9.414355	-0.117871	0.136656	0.375657	0.417513	0.207508	0.884660	-0.597788	0.795955	0.095424	-0.684348	-0.568680	0.456367
25434	8.038925	2.612837	8.527499	-0.638693	0.090664	0.457750	0.415348	0.211686	0.884689	-0.595359	0.798579	0.088430	-0.687775	-0.563437	0.457717
25435	6.285394	2.209526	6.782140	-1.246306	-0.162344	0.455392	0.411516	0.214669	0.885761	-0.588873	0.804391	0.078636	-0.695617	-0.553961	0.457432
25436	6.480376	1.094441	4.380539	-1.800970	-0.605360	0.513055	0.404214	0.215522	0.888910	-0.578368	0.813113	0.065857	-0.708591	-0.540737	0.453323
25437	12.084146	-0.314107	3.056684	-1.761418	-0.854659	0.598481	0.394627	0.216076	0.893074	-0.568461	0.821031	0.052543	-0.721888	-0.528413	0.446831
25438	20.454555	-1.114792	3.982202	-1.002952	-0.817230	0.588345	0.385304	0.216645	0.896998	-0.563518	0.824994	0.042804	-0.730745	-0.521967	0.439957
25439	23.726723	-1.510631	7.872811	0.133633	-0.741991	0.653245	0.376151	0.218359	0.900461	-0.567220	0.822715	0.037440	-0.732647	-0.524842	0.433322
25440	16.140012	-5.909330	10.176326	0.955826	-0.505360	0.994400	0.366707	0.223847	0.903005	-0.577946	0.815425	0.032565	-0.729044	-0.533830	0.428393
25441	10.482921	-8.543909	3.105892	1.817799	-0.994146	1.207561	0.352346	0.228417	0.907567	-0.595659	0.802705	0.029228	-0.721833	-0.550899	0.418888
25442	9.171539	-2.440438	-3.408359	2.539755	-0.987672	1.212462	0.337858	0.232510	0.912026	-0.618070	0.785599	0.028684	-0.709817	-0.573387	0.409129
25443	5.287475	4.089860	-7.646435	2.507880	-0.874904	1.088091	0.324799	0.236040	0.915855	-0.639464	0.768282	0.028773	-0.696844	-0.595002	0.400477
25444	3.717795	8.517121	-8.100669	1.844792	-1.079067	0.922506	0.311294	0.236569	0.920397	-0.655219	0.754936	0.027565	-0.688320	-0.611642	0.390012
25445	4.606338	8.532272	-4.087467	0.703027	-1.181100	0.709271	0.298431	0.234747	0.925112	-0.662348	0.748823	0.023653	-0.687193	-0.619805	0.378956
25446	8.292634	3.383768	-0.188949	-0.294571	-1.325821	0.622784	0.285097	0.231200	0.930197	-0.662174	0.749163	0.016747	-0.692997	-0.620727	0.366679
25447	11.146417	-2.499842	-1.158774	-0.926534	-1.503017	0.625403	0.270420	0.226655	0.935682	-0.657522	0.753397	0.007530	-0.703234	-0.617268	0.352764
25448	11.433065	-5.489389	-2.718826	-1.030163	-1.609024	0.738937	0.254117	0.222353	0.941267	-0.652201	0.758041	-0.002993	-0.714184	-0.613134	0.337649
25449	11.238548	-5.463862	-2.372007	-0.635993	-1.723326	0.902206	0.235811	0.218708	0.946869	-0.649942	0.759861	-0.013650	-0.722474	-0.612191	0.321331
25450	10.709585	-3.264864	-0.916613	-0.279950	-1.696171	0.908315	0.217544	0.215224	0.952026	-0.650011	0.759571	-0.023185	-0.728122	-0.613783	0.305138
25451	9.243077	-1.907942	0.347806	-0.083398	-1.511080	0.771231	0.201443	0.211839	0.956318	-0.651089	0.758374	-0.030844	-0.731781	-0.616435	0.290695
25452	8.421469	-1.362341	0.862637	0.192395	-1.415769	0.575992	0.187253	0.207455	0.960156	-0.653657	0.755941	-0.035853	-0.733259	-0.620899	0.277156
25453	8.979109	-0.917825	0.322653	0.457148	-1.407461	0.407182	0.174215	0.201796	0.963809	-0.657823	0.752183	-0.038582	-0.732747	-0.627294	0.263788
25454	10.457694	0.343851	0.133183	0.444712	-1.435497	0.365675	0.161226	0.195503	0.967360	-0.661732	0.748618	-0.041007	-0.732200	-0.633521	0.250067
25455	10.340315	0.877349	-0.220179	0.275619	-1.424570	0.328082	0.148568	0.188938	0.970685	-0.664327	0.746172	-0.043560	-0.732528	-0.638381	0.236374
25456	9.096040	1.672240	-0.088194	-0.071816	-1.543575	0.330879	0.134980	0.181546	0.974075	-0.664305	0.745983	-0.046980	-0.735173	-0.640742	0.221295
25457	8.866332	2.589528	0.102119	-0.662751	-1.657945	0.330044	0.120505	0.173431	0.977446	-0.659881	0.749592	-0.051649	-0.741644	-0.638774	0.204774
25458	9.449231	0.993475	-0.115172	-1.185805	-1.768093	0.335648	0.105042	0.164729	0.980730	-0.651443	0.756531	-0.057298	-0.751391	-0.632871	0.186779
25459	9.061563	-1.005746	-0.076768	-1.257112	-1.677063	0.294122	0.090413	0.156416	0.983544	-0.642257	0.763941	-0.062452	-0.761138	-0.626042	0.169529
25460	8.820806	-2.831659	-0.107372	-1.140313	-1.687838	0.224461	0.075999	0.147636	0.986118	-0.633749	0.770671	-0.066538	-0.769796	-0.619895	0.152135
25461	9.150988	-3.273188	0.062340	-0.880866	-1.661681	0.157325	0.062113	0.138597	0.988399	-0.627078	0.775860	-0.069387	-0.776476	-0.615494	0.135102
25462	8.974584	-3.151372	0.617216	-0.662461	-1.603567	0.074869	0.049092	0.129347	0.990383	-0.621993	0.779796	-0.071012	-0.781482	-0.612526	0.118735
25463	9.849292	-1.444015	0.245523	-0.467408	-1.608978	0.065110	0.036035	0.120028	0.992116	-0.618398	0.782540	-0.072212	-0.785039	-0.610920	0.102425
25464	10.731568	-1.293523	0.285103	-0.405685	-1.508685	0.116380	0.023390	0.111749	0.993461	-0.615275	0.784851	-0.073797	-0.787966	-0.609525	0.087114
25465	9.451767	-1.915212	0.326324	-0.191475	-1.334815	0.107749	0.012149	0.104474	0.994453	-0.613820	0.785869	-0.075062	-0.789352	-0.609504	0.073676
25466	9.250190	-1.381640	0.838485	-0.059443	-1.319766	0.081881	0.001165	0.097082	0.995276	-0.613388	0.786120	-0.075962	-0.789781	-0.610402	0.060465
25467	9.435239	-1.004864	1.003609	-0.090743	-1.245800	0.052981	-0.009055	0.089911	0.995909	-0.612707	0.786591	-0.076584	-0.790258	-0.610894	0.047966
25468	9.038449	-0.877318	1.084253	-0.118389	-1.204035	0.031971	-0.018830	0.082821	0.996387	-0.611798	0.787257	-0.077000	-0.790790	-0.611037	0.035845
25469	8.973055	-0.711246	1.054349	-0.154517	-1.208309	0.047306	-0.028731	0.075833	0.996707	-0.610605	0.788128	-0.077564	-0.791414	-0.610822	0.023660
25470	8.666815	-0.717605	0.534819	-0.243989	-1.244906	0.061237	-0.039024	0.068732	0.996872	-0.608682	0.789545	-0.078266	-0.792454	-0.609832	0.011025
25471	8.469957	-0.834948	-0.043517	-0.323230	-1.307489	0.068889	-0.049864	0.061338	0.996871	-0.606130	0.791431	-0.079016	-0.793801	-0.608173	-0.002285
25472	8.222219	-1.079482	-0.520073	-0.405826	-1.386668	0.068250	-0.061357	0.053477	0.996682	-0.602896	0.793828	-0.079708	-0.795457	-0.605787	-0.016466
25473	8.237422	-1.207967	-1.036178	-0.445365	-1.514162	0.042609	-0.073721	0.044688	0.996277	-0.599362	0.796463	-0.080076	-0.797076	-0.603034	-0.031932
25474	8.558191	-1.223488	-1.221400	-0.433579	-1.642689	0.013537	-0.086967	0.034928	0.995599	-0.595921	0.799040	-0.080087	-0.798320	-0.600263	-0.048675
25475	8.922491	-0.959840	-0.687088	-0.333054	-1.743116	-0.008264	-0.100889	0.024440	0.994597	-0.593308	0.801004	-0.079866	-0.798628	-0.598160	-0.066312
25476	9.240502	-0.334844	0.393208	-0.208199	-1.802936	-0.024040	-0.115199	0.013490	0.993251	-0.591699	0.802227	-0.079522	-0.797886	-0.596866	-0.084434
25477	9.529101	0.194612	1.284760	-0.221481	-1.817192	-0.052672	-0.129430	0.002260	0.991586	-0.590036	0.803518	-0.078848	-0.796935	-0.595277	-0.102666
25478	9.488527	0.315440	2.298716	-0.357738	-1.757603	-0.093501	-0.142945	-0.008913	0.989691	-0.587338	0.805615	-0.077576	-0.796618	-0.592372	-0.120394
25479	9.263486	-0.180448	3.173692	-0.608265	-1.735414	-0.094579	-0.156271	-0.019885	0.987514	-0.582675	0.809152	-0.075913	-0.797539	-0.587263	-0.138033
25480	9.545655	-0.975541	3.357766	-0.772314	-1.688641	-0.082896	-0.169332	-0.030401	0.985090	-0.576668	0.813619	-0.074017	-0.799238	-0.580603	-0.155304
25481	10.099525	-1.368132	3.105570	-0.845319	-1.581243	-0.078213	-0.181577	-0.040123	0.982558	-0.570101	0.818420	-0.071935	-0.801258	-0.573219	-0.171481
25482	10.408697	-0.961728	2.918678	-0.815867	-1.431110	-0.059995	-0.192778	-0.048749	0.980031	-0.563691	0.823019	-0.069943	-0.803175	-0.565918	-0.186139
25483	10.321988	-0.506413	2.861293	-0.838097	-1.313175	-0.024597	-0.203232	-0.056283	0.977512	-0.557079	0.827657	-0.068166	-0.805208	-0.558405	-0.199561
25484	10.257982	-0.438007	2.234719	-0.950049	-1.250972	0.016873	-0.213474	-0.063056	0.974912	-0.549404	0.832912	-0.066430	-0.807827	-0.549801	-0.212448
25485	10.138386	-0.698943	1.401672	-1.067198	-1.236298	0.049798	-0.223774	-0.069318	0.972173	-0.540753	0.838692	-0.064670	-0.810870	-0.540177	-0.225162
25486	10.407389	-1.015222	0.862246	-1.139963	-1.245802	0.045591	-0.234199	-0.075578	0.969246	-0.531408	0.844805	-0.062530	-0.814098	-0.529710	-0.238015
25487	10.837879	-1.410068	0.544095	-1.121377	-1.202007	0.033556	-0.244195	-0.081533	0.966292	-0.522292	0.850638	-0.060216	-0.817056	-0.519391	-0.250306
25488	11.699827	-1.463839	0.426718	-1.035645	-1.137536	0.007194	-0.253599	-0.087302	0.963362	-0.513820	0.855956	-0.057691	-0.819559	-0.509625	-0.261927
25489	12.582849	-1.017178	0.574764	-0.936132	-0.995642	-0.038332	-0.261583	-0.092589	0.960730	-0.506362	0.860570	-0.054933	-0.821689	-0.500846	-0.271994
25490	12.983361	-0.442952	0.962092	-0.836055	-0.825550	-0.061779	-0.268121	-0.097201	0.958469	-0.499667	0.864650	-0.052090	-0.823677	-0.492882	-0.280399
25491	12.695516	0.299069	2.173197	-0.744142	-0.748707	-0.049963	-0.274047	-0.101219	0.956375	-0.493808	0.868154	-0.049617	-0.825259	-0.485863	-0.287898
25492	12.571254	1.229222	4.540095	-0.733476	-0.695300	-0.035199	-0.279674	-0.104855	0.954352	-0.487866	0.871641	-0.047203	-0.826903	-0.478798	-0.294931
25493	11.961401	1.996870	5.694960	-0.864754	-0.628746	-0.024475	-0.284751	-0.107969	0.952502	-0.480932	0.875627	-0.044520	-0.829229	-0.470766	-0.301262
25494	12.335462	2.055605	6.567767	-0.949917	-0.514150	-0.031551	-0.288928	-0.110618	0.950939	-0.473151	0.880009	-0.041392	-0.832255	-0.461897	-0.306598
25495	13.297777	1.750187	7.830891	-1.046492	-0.255884	-0.092715	-0.290601	-0.112514	0.950206	-0.464867	0.884589	-0.037425	-0.836331	-0.452595	-0.309366
25496	14.264677	1.194719	8.614380	-1.167395	0.013411	-0.182779	-0.289702	-0.114049	0.950298	-0.455622	0.889593	-0.032135	-0.841713	-0.442287	-0.309680
25497	15.061960	1.976330	9.208904	-1.190186	0.367244	-0.283183	-0.285274	-0.114862	0.951538	-0.446591	0.894362	-0.025929	-0.848042	-0.432346	-0.306435
25498	13.762729	3.487920	8.020854	-1.220290	0.746033	-0.393094	-0.277237	-0.115171	0.953874	-0.437324	0.899113	-0.018546	-0.855504	-0.422294	-0.299634
25499	12.587484	3.897815	6.798833	-1.276314	1.061861	-0.549727	-0.265661	-0.115573	0.957114	-0.428082	0.903688	-0.009698	-0.863811	-0.412299	-0.289550
25500	13.244152	2.583195	5.362931	-1.438410	1.310727	-0.707325	-0.251341	-0.116624	0.960847	-0.417440	0.908704	0.001100	-0.873254	-0.400819	-0.277078
25501	14.480113	1.150456	2.733280	-1.798398	1.474226	-0.770566	-0.235138	-0.117711	0.964808	-0.403762	0.914769	0.013203	-0.884130	-0.386448	-0.262624
25502	14.868941	0.461353	0.401790	-2.147859	1.591929	-0.676956	-0.218346	-0.117886	0.968725	-0.386202	0.922071	0.025161	-0.896199	-0.368630	-0.246858
25503	15.535533	-0.372760	-1.751622	-2.297794	1.545860	-0.478301	-0.202505	-0.116612	0.972314	-0.366745	0.929659	0.035114	-0.908014	-0.349480	-0.231027
25504	16.360459	-1.280647	-3.013275	-2.175244	1.617116	-0.226168	-0.186977	-0.113185	0.975822	-0.347343	0.936793	0.042104	-0.918908	-0.331072	-0.214473
25505	16.579215	-1.700859	-3.896250	-1.870460	1.746984	0.034035	-0.170860	-0.107045	0.979463	-0.330286	0.942787	0.045421	-0.928288	-0.315742	-0.196440
25506	16.597438	-1.564587	-5.522196	-1.439234	1.843973	0.256220	-0.154551	-0.098872	0.983025	-0.316484	0.947504	0.045541	-0.935923	-0.304074	-0.177729
25507	17.170840	-0.957291	-5.710687	-0.885812	2.026250	0.364936	-0.136576	-0.089122	0.986613	-0.307931	0.950426	0.043226	-0.941555	-0.297905	-0.157249
25508	17.921919	0.131550	-4.759599	-0.508345	2.304463	0.373909	-0.116019	-0.078694	0.990125	-0.302695	0.952239	0.040215	-0.946000	-0.295040	-0.134298
25509	17.160438	0.045129	-4.594704	-0.456193	2.626440	0.419064	-0.092294	-0.066778	0.993490	-0.298230	0.953799	0.036405	-0.950021	-0.292929	-0.107945
25510	14.771204	-1.667694	-4.533832	-0.415593	2.785434	0.471366	-0.067229	-0.054111	0.996269	-0.293936	0.955288	0.032051	-0.953458	-0.290684	-0.080128
25511	13.022744	-3.173513	-4.692786	-0.249798	2.640562	0.476165	-0.043344	-0.041679	0.998190	-0.291588	0.956155	0.027262	-0.955561	-0.289879	-0.053596
25512	12.367419	-1.718330	-4.288827	0.037470	2.591711	0.501691	-0.020082	-0.029313	0.999369	-0.291827	0.956214	0.022183	-0.956260	-0.291197	-0.027757
25513	11.044063	-1.396900	-3.447692	-0.133466	2.536628	0.516737	0.002738	-0.016754	0.999856	-0.290816	0.956631	0.016826	-0.956775	-0.290820	-0.002253
25514	10.372688	-1.280272	-3.914805	-0.140741	2.498885	0.500933	0.025145	-0.004667	0.999673	-0.289581	0.957081	0.011752	-0.956823	-0.289782	0.022714
25515	10.033849	-1.093199	-4.831161	0.032168	2.506552	0.504234	0.047702	0.007675	0.998832	-0.290383	0.956888	0.006515	-0.955721	-0.290355	0.047874
25516	9.708009	-0.092725	-4.585995	0.038849	2.539062	0.541574	0.070324	0.020269	0.997318	-0.291119	0.956686	0.001084	-0.954099	-0.290414	0.073179
25517	9.572368	0.459802	-4.421800	0.009440	2.477415	0.578293	0.092284	0.033241	0.995178	-0.291982	0.956411	-0.004871	-0.951961	-0.290124	0.097967
25518	9.153790	-0.544403	-4.923480	0.043675	2.488162	0.628831	0.114048	0.046506	0.992386	-0.293093	0.956019	-0.011119	-0.949257	-0.289593	0.122663
25519	8.018821	-1.087094	-5.052334	0.405952	2.450024	0.690287	0.135232	0.060475	0.988967	-0.298087	0.954377	-0.017599	-0.944911	-0.292418	0.147090
25520	7.670733	-1.243690	-4.419187	0.644515	2.297992	0.763487	0.154533	0.074565	0.985170	-0.305316	0.951945	-0.024159	-0.939629	-0.297054	0.169873
25521	7.023364	-1.461208	-4.605667	0.879989	2.190806	0.794756	0.172588	0.088944	0.980970	-0.315135	0.948555	-0.030561	-0.933222	-0.303864	0.191738
25522	6.202101	-1.140490	-4.673218	1.081578	2.090893	0.773412	0.189493	0.102743	0.976492	-0.326641	0.944463	-0.035987	-0.925958	-0.312143	0.212530
25523	5.214749	-0.924954	-4.543263	1.225443	1.956292	0.680512	0.205253	0.115594	0.971859	-0.339550	0.939734	-0.040062	-0.917920	-0.321772	0.232133
25524	4.641228	-0.682988	-4.472881	1.327238	1.797975	0.554476	0.219711	0.126707	0.967302	-0.352908	0.934702	-0.042278	-0.909496	-0.332080	0.250080
25525	3.938667	-0.470301	-4.365245	1.462383	1.661453	0.427392	0.233184	0.136534	0.962800	-0.367362	0.929093	-0.042781	-0.900372	-0.343721	0.266807
25526	3.894107	-0.013052	-4.351640	1.623433	1.465060	0.321788	0.245046	0.144681	0.958655	-0.382724	0.922932	-0.041460	-0.890772	-0.356741	0.281534
25527	4.113518	0.294840	-4.359560	1.817476	1.366566	0.258136	0.256105	0.152247	0.954584	-0.399698	0.915824	-0.038830	-0.880143	-0.371601	0.295400
25528	4.259943	0.756487	-4.266321	2.042993	1.271882	0.233658	0.266217	0.159244	0.950668	-0.418224	0.907672	-0.034926	-0.868457	-0.388294	0.308238
25529	4.727610	1.229256	-4.091322	2.297233	1.144447	0.225334	0.275077	0.166025	0.946979	-0.438843	0.898064	-0.029975	-0.855424	-0.407330	0.319895
25530	5.301688	1.685204	-3.611378	2.579923	1.029918	0.195223	0.282880	0.172105	0.943588	-0.461324	0.886921	-0.023468	-0.840927	-0.428662	0.330288
25531	5.663967	2.149750	-2.628496	2.762372	0.970407	0.132614	0.290291	0.177706	0.940293	-0.484891	0.874436	-0.015562	-0.824992	-0.451422	0.340009
25532	5.898816	2.328542	-1.570585	2.730521	0.925266	0.051954	0.297537	0.182466	0.937112	-0.507402	0.861683	-0.006677	-0.808712	-0.473506	0.348966
25533	6.078194	2.558663	0.220932	2.457111	0.902185	-0.028680	0.304865	0.186712	0.933914	-0.527142	0.849774	0.002189	-0.793208	-0.492973	0.357490
25534	6.535942	3.025581	1.840862	1.990242	0.866833	-0.109558	0.312213	0.190153	0.930787	-0.542511	0.839985	0.010371	-0.779875	-0.508200	0.365414
25535	7.089834	3.581555	3.222077	1.586312	0.792006	-0.169920	0.319232	0.192912	0.927834	-0.554379	0.832075	0.017739	-0.768606	-0.520034	0.372572
25536	7.562390	3.933747	4.380470	1.434494	0.686762	-0.235217	0.325735	0.194596	0.925218	-0.564625	0.824961	0.025274	-0.758351	-0.530634	0.378592
25537	8.120819	4.254948	5.525270	1.498492	0.575776	-0.265430	0.331544	0.195594	0.922942	-0.575145	0.817370	0.033386	-0.747855	-0.541894	0.383489
25538	8.351832	4.228939	7.429787	1.497252	0.534206	-0.201633	0.336624	0.196902	0.920822	-0.585642	0.809533	0.040988	-0.737366	-0.553069	0.387822
25539	8.819762	3.014082	8.335802	1.203332	0.476262	-0.129692	0.340846	0.198590	0.918905	-0.594120	0.803012	0.046831	-0.728591	-0.561902	0.391690
25540	9.802791	2.083840	8.637364	0.859321	0.438927	-0.100701	0.344574	0.200286	0.917145	-0.600059	0.798322	0.051106	-0.721941	-0.567951	0.395264
25541	10.972665	1.816644	10.475794	0.607065	0.535442	-0.041670	0.348645	0.203092	0.914986	-0.604384	0.794870	0.053863	-0.716357	-0.571782	0.399873
25542	12.394637	1.231743	14.189932	0.463544	0.775192	0.170867	0.353083	0.208910	0.911970	-0.608342	0.791826	0.054141	-0.710811	-0.573906	0.406669
25543	13.478163	-0.697426	16.310819	0.150092	1.046423	0.444406	0.357758	0.218539	0.907882	-0.611110	0.789922	0.050668	-0.706083	-0.572942	0.416153
25544	11.335047	-2.660019	13.255415	-0.147581	1.135808	0.576996	0.362173	0.229605	0.903389	-0.612199	0.789434	0.044792	-0.702882	-0.569276	0.426475
25545	8.557631	-0.899798	8.186590	-0.286102	0.917923	0.528862	0.365344	0.239154	0.899627	-0.612281	0.789692	0.038722	-0.701168	-0.564971	0.434939
25546	7.879246	2.045571	3.988448	-0.586699	0.666174	0.430162	0.367333	0.246321	0.896879	-0.609791	0.791905	0.032261	-0.702297	-0.558759	0.441098
25547	8.639013	4.554116	1.643431	-1.150012	0.595550	0.339352	0.369435	0.252489	0.894297	-0.603112	0.797294	0.024044	-0.706947	-0.548244	0.446828
25548	9.309701	5.523947	0.832275	-1.714330	0.543670	0.220916	0.371924	0.257223	0.891913	-0.591794	0.805962	0.014340	-0.715159	-0.533162	0.451980
25549	9.806361	2.382082	-0.645008	-2.199652	0.092094	0.104788	0.371948	0.258692	0.891478	-0.576461	0.817117	0.003401	-0.727562	-0.515168	0.453051
25550	16.482452	-1.742897	1.014394	-1.723428	-0.580012	0.148549	0.366789	0.256987	0.894105	-0.564421	0.825467	-0.005716	-0.739523	-0.502555	0.447821
25551	19.664704	-6.102767	5.678735	-0.545623	-1.047698	0.551620	0.355870	0.256395	0.898676	-0.562486	0.826703	-0.013120	-0.746301	-0.500824	0.438417
25552	15.893464	-10.404324	7.353092	0.511897	-1.021738	0.942445	0.342850	0.259036	0.902970	-0.569654	0.821655	-0.019417	-0.746959	-0.507723	0.429265
25553	11.205037	-8.737364	-0.336155	1.561047	-1.264185	1.013256	0.327545	0.260926	0.908092	-0.584825	0.810860	-0.022044	-0.742088	-0.523855	0.418189
25554	8.658152	-2.288622	-5.755836	2.138014	-1.192765	1.033998	0.312542	0.262891	0.912801	-0.603957	0.796695	-0.022658	-0.733180	-0.544211	0.407776
25555	5.326705	3.914479	-9.221039	1.906746	-0.970083	0.977911	0.299429	0.265382	0.916469	-0.620987	0.783454	-0.023976	-0.724374	-0.561936	0.399388
25556	2.815441	6.350336	-8.872009	1.119692	-0.967400	0.878721	0.286878	0.266759	0.920076	-0.631700	0.774719	-0.027653	-0.720177	-0.573279	0.390762
25557	3.236436	4.689695	-4.041178	0.575459	-1.188154	0.742928	0.273562	0.265692	0.924430	-0.638004	0.769355	-0.032320	-0.719802	-0.580949	0.379979
25558	8.017220	0.905042	-0.710976	0.254378	-1.425765	0.563270	0.259621	0.261714	0.929571	-0.641387	0.766343	-0.036624	-0.721955	-0.586707	0.366819
25559	12.284983	-1.549743	-1.450051	-0.113437	-1.622182	0.428425	0.245083	0.255470	0.935238	-0.641696	0.765860	-0.041043	-0.726747	-0.590079	0.351633
25560	12.991885	-3.100988	-2.465943	-0.293655	-1.571914	0.508208	0.230296	0.250094	0.940434	-0.640808	0.766270	-0.046855	-0.732345	-0.591847	0.336731
25561	11.905912	-2.021602	-3.009717	-0.308456	-1.719213	0.623896	0.213617	0.244682	0.945779	-0.639955	0.766529	-0.053766	-0.738123	-0.593771	0.320329
25562	11.634613	1.832015	-2.909337	-0.424342	-1.748590	0.581836	0.196877	0.238774	0.950908	-0.638049	0.767604	-0.060644	-0.744401	-0.594787	0.303473
25563	10.055362	4.421644	-1.133271	-0.661430	-1.617308	0.434756	0.181970	0.232477	0.955427	-0.633926	0.770508	-0.066745	-0.751681	-0.593524	0.287583
25564	8.521353	4.005916	0.983940	-1.054855	-1.577754	0.257397	0.168354	0.225159	0.959667	-0.626442	0.776117	-0.072198	-0.761070	-0.589021	0.271712
25565	8.255537	2.313803	1.306809	-1.551065	-1.568319	0.051150	0.155967	0.216327	0.963783	-0.614596	0.785098	-0.076761	-0.773269	-0.580365	0.255404
25566	8.274438	0.740073	0.365913	-1.974125	-1.610783	-0.139350	0.144181	0.205996	0.967873	-0.599024	0.796692	-0.080329	-0.787644	-0.568197	0.238265
25567	9.942727	-2.966775	-0.611497	-2.124497	-1.920272	-0.156287	0.129796	0.193886	0.972400	-0.581869	0.808971	-0.083632	-0.802858	-0.554954	0.217818
25568	11.470981	-5.778575	-2.354261	-1.525446	-1.899316	-0.001678	0.114392	0.183439	0.976353	-0.569578	0.817338	-0.086829	-0.813938	-0.546177	0.197980
25569	9.928858	-6.605626	-1.485173	-0.890722	-1.837708	0.121507	0.098637	0.174370	0.979727	-0.562380	0.822001	-0.089679	-0.820974	-0.542134	0.179142
25570	9.238188	-5.135358	-0.763623	-0.396348	-1.744849	0.129912	0.083491	0.166007	0.982584	-0.559280	0.823894	-0.091673	-0.824764	-0.541886	0.161632
25571	8.609208	-4.012614	0.060982	-0.175616	-1.752436	0.098106	0.068414	0.157259	0.985185	-0.557868	0.824713	-0.092904	-0.827105	-0.543247	0.144152
25572	8.513449	-2.264352	0.351731	-0.144271	-1.678906	-0.020888	0.054570	0.147979	0.987484	-0.556702	0.825497	-0.092940	-0.828918	-0.544663	0.127427
25573	9.222439	-2.964171	0.078714	0.007471	-1.660256	-0.040768	0.040967	0.138540	0.989509	-0.556714	0.825534	-0.092533	-0.829693	-0.547083	0.110947
25574	9.015670	-2.126031	0.543854	0.210365	-1.563446	-0.041968	0.028176	0.129635	0.991161	-0.558485	0.824403	-0.091948	-0.829036	-0.550958	0.095627
25575	9.115898	-2.009124	0.682408	0.346859	-1.543173	0.009205	0.015278	0.121139	0.992518	-0.561333	0.822489	-0.091746	-0.827449	-0.555732	0.080565
25576	8.755739	-1.124598	0.809419	0.383065	-1.450787	-0.009496	0.003283	0.112987	0.993591	-0.564537	0.820330	-0.091420	-0.825402	-0.560618	0.066478
25577	8.850106	-0.656919	1.025595	0.362358	-1.438699	-0.042395	-0.008405	0.104514	0.994488	-0.567501	0.818351	-0.090800	-0.823330	-0.565136	0.052434
25578	9.148792	-0.467742	1.618767	0.317169	-1.401966	-0.027756	-0.019835	0.096360	0.995149	-0.570150	0.816548	-0.090430	-0.821301	-0.569178	0.038743
25579	9.120968	-0.841534	1.836440	0.230888	-1.424200	0.004159	-0.031611	0.088240	0.995597	-0.572022	0.815240	-0.090417	-0.819629	-0.572362	0.024705
25580	9.298553	-1.041596	1.885179	0.154557	-1.465245	0.066136	-0.044048	0.080397	0.995789	-0.573298	0.814266	-0.091101	-0.818162	-0.574897	0.010225
25581	9.099408	-1.287161	1.875456	0.077319	-1.527685	0.113111	-0.057254	0.072504	0.995723	-0.573857	0.813743	-0.092250	-0.816952	-0.576685	-0.004982
25582	9.140567	-1.177599	1.844503	0.018315	-1.594153	0.131569	-0.071082	0.064394	0.995390	-0.573956	0.813517	-0.093615	-0.815795	-0.577965	-0.020867
25583	8.868673	-0.988620	2.014844	0.011425	-1.629230	0.138657	-0.085224	0.056088	0.994782	-0.573933	0.813370	-0.095030	-0.814455	-0.579037	-0.037128
25584	8.650991	-0.762930	2.403081	0.006144	-1.662479	0.158671	-0.099721	0.047767	0.993868	-0.573869	0.813222	-0.096665	-0.812853	-0.579990	-0.053683
25585	8.755746	-0.511824	2.797361	-0.038524	-1.686257	0.159023	-0.114390	0.039277	0.992659	-0.573387	0.813371	-0.098258	-0.811260	-0.580418	-0.070521
25586	9.121476	-0.035062	2.943272	-0.193755	-1.658179	0.140282	-0.128697	0.030825	0.991205	-0.571676	0.814417	-0.099553	-0.810323	-0.579460	-0.087191
25587	9.483501	1.022931	2.644718	-0.378968	-1.586519	0.109238	-0.142235	0.022552	0.989576	-0.568468	0.816566	-0.100317	-0.810317	-0.576811	-0.103324
25588	9.617321	1.679617	2.474087	-0.644589	-1.511112	0.080454	-0.155004	0.014555	0.987807	-0.563150	0.820226	-0.100453	-0.811687	-0.571854	-0.118942
25589	9.749554	1.732025	2.183333	-0.987897	-1.460632	0.037000	-0.167142	0.006576	0.985911	-0.555070	0.825818	-0.099610	-0.814838	-0.563899	-0.134378
25590	9.854209	1.067602	1.566153	-1.265144	-1.403791	-0.013592	-0.178596	-0.001355	0.983922	-0.544784	0.832861	-0.097739	-0.819337	-0.553481	-0.149484
25591	10.081359	0.263106	0.905010	-1.432441	-1.351211	-0.063833	-0.189404	-0.009273	0.981855	-0.533143	0.840685	-0.094906	-0.824551	-0.541445	-0.164173
25592	10.312426	-0.521166	0.630026	-1.459121	-1.304663	-0.090716	-0.199775	-0.016996	0.979694	-0.521278	0.848459	-0.091577	-0.829674	-0.528988	-0.178360
25593	10.285388	-1.358897	0.819306	-1.409278	-1.255539	-0.087031	-0.209814	-0.024284	0.977440	-0.509751	0.855793	-0.088160	-0.834345	-0.516748	-0.191936
25594	10.107983	-2.007349	0.629965	-1.322776	-1.217585	-0.060105	-0.219751	-0.030994	0.975064	-0.498843	0.862513	-0.085008	-0.838370	-0.505085	-0.204999
25595	10.150348	-2.325888	0.399747	-1.200455	-1.191118	-0.044928	-0.229571	-0.037307	0.972577	-0.488894	0.868472	-0.082087	-0.841594	-0.494332	-0.217615
25596	10.520355	-2.447665	0.260599	-1.014558	-1.136242	-0.044342	-0.238987	-0.043228	0.970060	-0.480474	0.873403	-0.079450	-0.843819	-0.485076	-0.229502
25597	11.268775	-2.359869	0.562819	-0.832833	-1.034372	-0.050397	-0.247514	-0.048609	0.967664	-0.473613	0.877354	-0.077070	-0.845238	-0.477374	-0.240179
25598	12.263027	-2.199863	0.978404	-0.591323	-0.876215	-0.048217	-0.254750	-0.053162	0.965545	-0.468760	0.880117	-0.075220	-0.845794	-0.471771	-0.249130
25599	12.738822	-1.665330	2.373659	-0.326725	-0.665372	-0.037479	-0.260227	-0.056572	0.963889	-0.466162	0.881590	-0.074111	-0.845562	-0.468614	-0.255785
25600	13.076909	-0.278555	5.171897	-0.144440	-0.407908	-0.000426	-0.263728	-0.058455	0.962824	-0.464967	0.882247	-0.073797	-0.845135	-0.467144	-0.259852
25601	12.022442	1.122786	6.168299	-0.232786	-0.272575	0.042737	-0.266243	-0.059289	0.962081	-0.462980	0.883300	-0.073689	-0.845437	-0.465043	-0.262622
25602	11.600910	2.646069	6.201256	-0.394053	-0.254649	0.085496	-0.268846	-0.059682	0.961332	-0.459442	0.885159	-0.073534	-0.846543	-0.461446	-0.265392
25603	11.651247	3.941099	6.458722	-0.727239	-0.235842	0.045957	-0.271053	-0.060290	0.960674	-0.453265	0.888453	-0.072130	-0.849165	-0.454991	-0.268145
25604	13.098975	3.879551	6.206146	-1.137189	-0.150607	-0.107920	-0.271905	-0.061898	0.960331	-0.443899	0.893486	-0.068095	-0.853827	-0.444805	-0.270420
25605	14.610901	3.234092	5.967805	-1.499204	0.071804	-0.321337	-0.269863	-0.064397	0.960743	-0.432041	0.899786	-0.061045	-0.860532	-0.431554	-0.270641
25606	14.255891	2.803598	5.991217	-1.674006	0.330490	-0.513750	-0.264873	-0.067602	0.961911	-0.418967	0.906531	-0.051657	-0.868510	-0.416692	-0.268438
25607	13.066775	2.351525	6.119740	-1.706402	0.554736	-0.677570	-0.257200	-0.071422	0.963715	-0.405979	0.912976	-0.040687	-0.876943	-0.401713	-0.263813
25608	12.918220	1.610404	6.302559	-1.724181	0.762546	-0.801270	-0.247331	-0.075722	0.965968	-0.392831	0.919168	-0.028529	-0.885726	-0.386519	-0.257084
25609	13.721394	0.415171	5.030254	-1.864773	0.954306	-0.850377	-0.235498	-0.079870	0.968587	-0.378433	0.925496	-0.015694	-0.895170	-0.370241	-0.248178
25610	14.799940	-0.685844	2.489605	-2.108598	1.151968	-0.794808	-0.222237	-0.083059	0.971448	-0.361295	0.932447	-0.002929	-0.905581	-0.351631	-0.237233
25611	15.368382	-1.197057	-0.292798	-2.245525	1.360688	-0.642071	-0.207512	-0.084317	0.974592	-0.342395	0.939519	0.008380	-0.916354	-0.331956	-0.223831
25612	15.534954	-1.389937	-2.837213	-2.201956	1.562064	-0.451329	-0.191663	-0.083500	0.977902	-0.323034	0.946226	0.017482	-0.926776	-0.312545	-0.208330
25613	15.768881	-1.138591	-4.252032	-1.947969	1.745646	-0.283455	-0.174437	-0.080765	0.981350	-0.305600	0.951857	0.024017	-0.936045	-0.295712	-0.190721
25614	16.145822	-0.532851	-5.091441	-1.531690	1.948863	-0.092943	-0.155889	-0.075975	0.984848	-0.291391	0.956205	0.027642	-0.943817	-0.282667	-0.171200
25615	15.959991	0.048583	-6.054227	-0.997053	2.196944	0.066764	-0.135206	-0.069084	0.988406	-0.282050	0.958978	0.028445	-0.949825	-0.274934	-0.149145
25616	16.017279	0.710381	-5.181591	-0.542511	2.411439	0.188866	-0.112821	-0.060643	0.991763	-0.276688	0.960573	0.027260	-0.954314	-0.271334	-0.125152
25617	16.755581	0.659998	-3.725485	-0.439858	2.525469	0.267491	-0.089342	-0.051123	0.994688	-0.272404	0.961859	0.024968	-0.958026	-0.268726	-0.099860
25618	16.130822	-0.964118	-2.742352	-0.529026	2.591525	0.332462	-0.065413	-0.040965	0.997017	-0.267110	0.963414	0.022060	-0.961444	-0.264870	-0.073962
25619	13.931512	-2.856675	-2.908287	-0.566689	2.532152	0.371492	-0.041953	-0.030594	0.998651	-0.261647	0.964985	0.018571	-0.964251	-0.260515	-0.048489
25620	12.600486	-2.757234	-3.956549	-0.342650	2.361567	0.428069	-0.020321	-0.020297	0.999587	-0.258251	0.965971	0.014364	-0.965864	-0.257852	-0.024871
25621	11.231959	-1.657888	-3.832197	-0.492043	2.220883	0.433036	0.000090	-0.010277	0.999947	-0.253659	0.967242	0.009964	-0.967294	-0.253646	-0.002519
25622	10.760303	-1.527910	-4.096909	-0.474238	2.167127	0.416996	0.019969	-0.000749	0.999800	-0.249157	0.968446	0.005702	-0.968257	-0.249221	0.019153
25623	10.675672	-2.455587	-5.376009	-0.118026	2.273081	0.424415	0.040962	0.009177	0.999119	-0.248354	0.968668	0.001285	-0.967803	-0.248188	0.041957
25624	10.047869	-0.915292	-4.765381	0.344855	2.310335	0.482236	0.062046	0.019659	0.997880	-0.251985	0.967725	-0.003397	-0.965740	-0.251240	0.064997
25625	10.069692	-0.436784	-4.701469	0.427622	2.286182	0.558776	0.082702	0.031016	0.996092	-0.256723	0.966445	-0.008778	-0.962940	-0.254993	0.087890
25626	9.392545	-0.144088	-4.881829	0.610930	2.261037	0.630049	0.102749	0.042967	0.993779	-0.263229	0.964625	-0.014490	-0.959246	-0.260103	0.110425
25627	8.596559	-0.734131	-5.167593	0.706509	2.215952	0.603231	0.122364	0.054769	0.990973	-0.270867	0.962414	-0.019744	-0.954808	-0.266006	0.132600
25628	7.531144	-0.646828	-4.930321	0.923868	2.109384	0.597459	0.140755	0.066245	0.987826	-0.280502	0.959544	-0.024380	-0.949477	-0.273656	0.153642
25629	6.935946	-0.903805	-4.587223	1.035487	1.926012	0.559330	0.157390	0.077112	0.984521	-0.291322	0.956206	-0.028322	-0.943589	-0.282356	0.172962
25630	6.248801	-0.560616	-4.346775	1.231995	1.792955	0.511816	0.172679	0.087193	0.981111	-0.303805	0.952225	-0.031155	-0.936955	-0.292687	0.190919
25631	5.843550	-0.117222	-4.045795	1.382654	1.717295	0.442938	0.187321	0.096673	0.977530	-0.317679	0.947630	-0.032840	-0.929511	-0.304389	0.208222
25632	5.567169	-0.095295	-4.139773	1.420934	1.681780	0.369982	0.201638	0.105430	0.973769	-0.331605	0.942826	-0.033414	-0.921618	-0.316169	0.225070
25633	5.077653	0.036468	-4.283140	1.453591	1.635161	0.295253	0.215622	0.113607	0.969846	-0.345713	0.937760	-0.032988	-0.913230	-0.328176	0.241477
25634	5.082440	0.211439	-4.518569	1.535039	1.526007	0.246013	0.228573	0.121051	0.965972	-0.360266	0.932315	-0.031586	-0.904413	-0.340787	0.256712
25635	5.584628	0.272908	-4.621021	1.745950	1.438113	0.230592	0.240632	0.128315	0.962097	-0.376649	0.925893	-0.029282	-0.894557	-0.355327	0.271129
25636	6.020748	0.499533	-4.676943	2.069528	1.467175	0.208509	0.252816	0.135615	0.957963	-0.395613	0.918061	-0.025560	-0.882935	-0.372521	0.285752
25637	6.125519	1.021444	-4.120051	2.417454	1.497239	0.178614	0.265171	0.143068	0.953528	-0.417369	0.908512	-0.020246	-0.869188	-0.392604	0.300623
25638	5.936117	1.627627	-2.937750	2.684885	1.507091	0.121250	0.277581	0.150283	0.948875	-0.440882	0.897468	-0.013166	-0.853564	-0.414688	0.315377
25639	5.542391	1.895061	-1.600570	2.680102	1.542789	0.071183	0.290259	0.157548	0.943890	-0.463828	0.885910	-0.005237	-0.837027	-0.436282	0.330218
25640	5.365290	1.726307	-0.598992	2.458557	1.497438	0.011167	0.302567	0.164357	0.938850	-0.484299	0.874898	0.002915	-0.820919	-0.455566	0.344313
25641	5.080774	1.531919	0.770452	2.101364	1.397190	-0.046148	0.314117	0.170476	0.933953	-0.501321	0.865196	0.010684	-0.806231	-0.471566	0.357236
25642	5.685605	1.683046	1.919257	1.753750	1.258919	-0.095673	0.324618	0.175701	0.929383	-0.515097	0.856945	0.017908	-0.793283	-0.484535	0.368683
25643	6.025152	2.071985	2.292645	1.551183	1.146807	-0.117283	0.334214	0.180351	0.925081	-0.526981	0.849516	0.024769	-0.781404	-0.495778	0.378962
25644	6.239448	2.858081	2.427310	1.489659	0.938628	-0.145405	0.342216	0.183855	0.921458	-0.538102	0.842280	0.031786	-0.770282	-0.506717	0.387175
25645	6.804123	3.205500	2.578950	1.489432	0.668788	-0.164722	0.348187	0.185916	0.918804	-0.548975	0.834924	0.039095	-0.759863	-0.518013	0.392773
25646	8.067462	3.553069	3.737123	1.521856	0.554152	-0.263224	0.353773	0.186658	0.916517	-0.559591	0.827407	0.047491	-0.749468	-0.529676	0.397166
25647	9.459092	3.603024	5.313239	1.376794	0.614369	-0.363723	0.360361	0.186943	0.913889	-0.568575	0.820701	0.056317	-0.739501	-0.539909	0.402039
25648	9.940729	3.006200	6.605937	1.114443	0.633132	-0.392920	0.367207	0.187199	0.911107	-0.575394	0.815338	0.064382	-0.730808	-0.547887	0.407111
25649	9.986504	2.481785	7.226947	0.802632	0.477879	-0.304586	0.372410	0.187341	0.908963	-0.580135	0.811469	0.070440	-0.724399	-0.553554	0.410882
25650	9.943187	2.022893	7.966057	0.522985	0.337425	-0.119584	0.375487	0.188271	0.907504	-0.583520	0.808752	0.073652	-0.720079	-0.557202	0.413536
25651	10.076632	1.031722	8.810296	0.335846	0.254218	0.134626	0.376497	0.190771	0.906563	-0.586472	0.806598	0.073827	-0.717148	-0.559469	0.415564
25652	10.841472	-0.465826	10.020956	0.213692	0.290385	0.389259	0.376231	0.195558	0.905653	-0.589521	0.804612	0.071161	-0.714783	-0.560675	0.418006
25653	10.805037	-1.924714	10.368106	0.033810	0.447675	0.569235	0.376035	0.202660	0.904172	-0.591954	0.803253	0.066147	-0.712873	-0.560102	0.422017
25654	9.460226	-2.097840	8.781962	-0.138664	0.505332	0.593616	0.376061	0.210277	0.902420	-0.593253	0.802764	0.060168	-0.711779	-0.557990	0.426636
25655	8.295343	-0.770464	6.101333	-0.306844	0.386469	0.543474	0.375557	0.216844	0.901075	-0.593189	0.803255	0.053930	-0.712098	-0.554761	0.430297
25656	7.557923	0.755514	3.989419	-0.481659	0.230089	0.497765	0.374193	0.222143	0.900351	-0.591675	0.804786	0.047340	-0.714073	-0.550430	0.432581
25657	6.272496	1.572352	1.838333	-0.609155	-0.052297	0.474765	0.370983	0.225743	0.900784	-0.589167	0.807000	0.040405	-0.717812	-0.545702	0.432384
25658	8.146205	1.654425	0.066767	-0.838790	-0.564945	0.411569	0.364436	0.226030	0.903381	-0.584685	0.810587	0.033057	-0.724797	-0.540240	0.427564
25659	16.119156	1.883327	0.678708	-0.711493	-0.986711	0.241179	0.355811	0.222719	0.907632	-0.580441	0.813826	0.027844	-0.732453	-0.536734	0.418843
25660	23.939189	2.350184	5.487611	0.072055	-0.991344	0.279104	0.346856	0.219680	0.911829	-0.582004	0.812783	0.025574	-0.735501	-0.539559	0.409774
25661	18.602127	-1.454775	11.429169	0.757334	-0.275774	0.823510	0.339974	0.224861	0.913157	-0.590434	0.806809	0.021148	-0.731988	-0.546348	0.407060
25662	9.961412	-6.636850	6.862381	0.998813	-0.770460	1.206236	0.327100	0.230321	0.916492	-0.601804	0.798519	0.014112	-0.728586	-0.556165	0.399804
25663	9.418727	-3.776356	-0.329565	1.393433	-1.199673	1.182170	0.311151	0.232985	0.921359	-0.615766	0.787881	0.008718	-0.723890	-0.570055	0.388614
25664	7.604454	2.583860	-5.413276	1.384078	-0.953612	1.045062	0.297713	0.235689	0.925104	-0.628979	0.777410	0.004355	-0.718159	-0.583167	0.379688
25665	4.585813	6.596491	-8.421496	0.721406	-0.864464	0.867849	0.285979	0.237349	0.928376	-0.636733	0.771084	-0.000996	-0.716092	-0.590842	0.371642
25666	4.442129	6.926956	-6.676659	-0.029151	-0.987716	0.623801	0.274856	0.236331	0.931988	-0.638322	0.769738	-0.006938	-0.719026	-0.593002	0.362422
25667	6.711488	2.989695	-3.292557	-0.693566	-1.037009	0.443632	0.264505	0.233563	0.935674	-0.634496	0.772807	-0.013543	-0.726259	-0.590099	0.352606
25668	9.823123	-2.096757	-1.232322	-0.897216	-1.343220	0.405070	0.252070	0.228824	0.940266	-0.629034	0.777108	-0.020483	-0.735375	-0.586296	0.339824
25669	12.582227	-5.765548	-3.186026	-0.861583	-1.656704	0.487801	0.236717	0.222859	0.945674	-0.623818	0.781071	-0.027917	-0.744860	-0.583320	0.323916
25670	12.461753	-5.823759	-5.258922	-0.636345	-1.751897	0.609885	0.219744	0.217442	0.951016	-0.620493	0.783397	-0.035745	-0.752796	-0.582244	0.307068
25671	11.640414	-2.099076	-4.192520	-0.348369	-1.756072	0.680180	0.202206	0.212457	0.956020	-0.619251	0.784001	-0.043253	-0.758710	-0.583271	0.290093
25672	10.648217	0.955609	-1.783647	-0.165221	-1.541677	0.577626	0.186842	0.208000	0.960118	-0.619164	0.783713	-0.049292	-0.762709	-0.585261	0.275216
25673	8.838896	2.198384	0.388296	-0.106456	-1.336271	0.342628	0.174452	0.202749	0.963566	-0.618902	0.783688	-0.052849	-0.765850	-0.587134	0.262198
25674	8.539347	1.736464	1.066863	-0.273878	-1.291886	0.137794	0.163623	0.196264	0.966803	-0.617078	0.784983	-0.054919	-0.769703	-0.587607	0.249551
25675	9.344530	-0.971938	0.397541	-0.497702	-1.252518	0.038510	0.153658	0.189101	0.969861	-0.613213	0.787896	-0.056469	-0.774828	-0.586055	0.237026
25676	9.578935	-2.211553	0.392099	-0.539586	-1.304318	0.016497	0.143357	0.181622	0.972863	-0.609087	0.790986	-0.057915	-0.780039	-0.584256	0.224017
25677	9.895095	-0.754893	0.741031	-0.644986	-1.409924	0.107253	0.131606	0.174139	0.975887	-0.604098	0.794623	-0.060327	-0.785967	-0.581592	0.209774
25678	10.375187	-1.699013	0.657300	-0.851089	-1.543056	0.165042	0.118373	0.166535	0.978904	-0.597629	0.799238	-0.063702	-0.792986	-0.577481	0.194134
25679	10.424560	-1.713921	0.146753	-0.721339	-1.472910	0.208502	0.105343	0.159614	0.981543	-0.592030	0.803121	-0.067061	-0.799001	-0.574039	0.179099
25680	9.027593	-1.550483	0.739566	-0.662596	-1.451513	0.234900	0.092263	0.153218	0.983876	-0.586993	0.806512	-0.070552	-0.804317	-0.571019	0.164349
25681	9.090213	-1.722491	-0.128701	-0.606827	-1.478887	0.221184	0.078969	0.146475	0.986057	-0.582195	0.809707	-0.073653	-0.809205	-0.568261	0.149218
25682	8.775748	-1.962678	-0.405614	-0.489200	-1.384081	0.143011	0.066853	0.139807	0.987919	-0.578373	0.812243	-0.075807	-0.813029	-0.566318	0.135162
25683	7.945928	-1.975281	-0.324903	-0.403680	-1.297884	0.035424	0.056001	0.132653	0.989579	-0.575011	0.814547	-0.076650	-0.816227	-0.564727	0.121892
25684	9.114654	-1.512890	-0.390845	-0.445727	-1.317120	-0.015197	0.045257	0.125128	0.991108	-0.571399	0.817046	-0.077061	-0.819424	-0.562830	0.108475
25685	9.631160	-2.414274	-0.615215	-0.353426	-1.193549	-0.031379	0.035560	0.118066	0.992369	-0.568390	0.819140	-0.077089	-0.821991	-0.561311	0.096236
25686	8.723179	-2.486898	-0.464611	-0.098020	-1.190696	-0.010656	0.025769	0.111316	0.993451	-0.567620	0.819671	-0.077120	-0.822887	-0.561915	0.084307
25687	9.058868	-1.580830	0.007426	0.073447	-1.260967	0.028566	0.015145	0.104362	0.994424	-0.568136	0.819293	-0.077330	-0.822795	-0.563797	0.071700
25688	9.308417	-0.859853	0.996656	0.092034	-1.243263	0.038756	0.004639	0.097681	0.995207	-0.568935	0.818703	-0.077705	-0.822369	-0.565848	0.059372
25689	9.181051	-0.980581	1.453344	0.050514	-1.254682	0.052341	-0.006065	0.090915	0.995840	-0.569258	0.818433	-0.078186	-0.822137	-0.567364	0.046791
25690	9.104443	-1.476256	1.562260	0.013497	-1.250342	0.099460	-0.016968	0.084651	0.996266	-0.569395	0.818238	-0.079222	-0.821889	-0.568613	0.034316
25691	8.723460	-1.886280	1.383591	0.028176	-1.237406	0.133785	-0.027988	0.078627	0.996511	-0.569510	0.818029	-0.080540	-0.821508	-0.569777	0.021884
25692	8.651654	-1.981387	0.892637	0.005382	-1.261580	0.144981	-0.039233	0.072642	0.996586	-0.569541	0.817859	-0.082036	-0.821026	-0.570815	0.009285
25693	9.628395	-1.790418	1.356957	0.036565	-1.292424	0.128425	-0.050663	0.066243	0.996517	-0.569705	0.817615	-0.083314	-0.820286	-0.571942	-0.003684
25694	10.195622	-1.433021	2.308242	0.104460	-1.291986	0.127742	-0.062039	0.059910	0.996274	-0.570524	0.816907	-0.084651	-0.818934	-0.573650	-0.016500
25695	9.842237	-0.764763	2.771607	0.145779	-1.301923	0.143333	-0.073600	0.053547	0.995849	-0.571551	0.816034	-0.086120	-0.817259	-0.575518	-0.029456
25696	9.131065	-0.239386	2.825903	0.088669	-1.333879	0.155698	-0.085440	0.047154	0.995227	-0.572185	0.815416	-0.087756	-0.815662	-0.576952	-0.042688
25697	8.961481	0.260184	2.964273	-0.071293	-1.348426	0.127282	-0.097249	0.040370	0.994441	-0.571430	0.815811	-0.089000	-0.814869	-0.576908	-0.056268
25698	9.216802	0.588335	3.144216	-0.297570	-1.331836	0.073151	-0.108579	0.033320	0.993529	-0.568961	0.817469	-0.089595	-0.815165	-0.575007	-0.069803
25699	9.309584	0.476230	3.324831	-0.535235	-1.293604	0.028684	-0.119380	0.026109	0.992505	-0.564511	0.820560	-0.089486	-0.816747	-0.570963	-0.083219
25700	9.305403	0.071741	3.042248	-0.777329	-1.257749	0.026800	-0.129878	0.019210	0.991344	-0.558149	0.824942	-0.089110	-0.819513	-0.564891	-0.096420
25701	9.325973	-0.551136	2.251917	-0.973157	-1.261473	0.045597	-0.140569	0.012488	0.989992	-0.550055	0.830418	-0.088577	-0.823213	-0.557001	-0.109862
25702	8.980744	-1.001221	1.491404	-1.069517	-1.214266	0.066441	-0.151009	0.006356	0.988512	-0.541162	0.836296	-0.088047	-0.827249	-0.548241	-0.122849
25703	8.713258	-1.379442	1.194155	-1.089883	-1.160986	0.097494	-0.161232	0.000848	0.986916	-0.531942	0.842235	-0.087627	-0.831290	-0.539110	-0.135344
25704	9.192672	-1.448469	0.422650	-1.091081	-1.081961	0.099439	-0.170828	-0.004069	0.985292	-0.522714	0.848044	-0.087125	-0.835217	-0.529910	-0.146997
25705	9.486959	-0.803763	-0.468177	-1.048632	-1.026829	0.061482	-0.179810	-0.008945	0.983661	-0.513809	0.853567	-0.086161	-0.838850	-0.520906	-0.158076
25706	9.186937	-0.388325	-0.715131	-1.012828	-1.031703	0.017142	-0.188625	-0.014100	0.981948	-0.505293	0.858778	-0.084731	-0.842080	-0.512154	-0.169112
25707	9.240010	-0.667687	-0.607751	-1.041461	-1.133081	-0.057522	-0.197962	-0.020347	0.979999	-0.496600	0.864062	-0.082374	-0.845103	-0.502974	-0.181156
25708	9.639461	-1.353555	-0.675790	-1.008262	-1.245240	-0.123091	-0.207950	-0.027593	0.977750	-0.488345	0.869037	-0.079337	-0.847512	-0.493977	-0.194191
25709	10.506448	-1.933943	-0.281895	-0.854387	-1.288370	-0.154742	-0.218192	-0.035250	0.975269	-0.481413	0.873180	-0.076144	-0.848901	-0.486121	-0.207491
25710	11.496617	-2.509086	0.417998	-0.658613	-1.208286	-0.148251	-0.227797	-0.042354	0.972787	-0.476178	0.876284	-0.073354	-0.849331	-0.479930	-0.219783
25711	12.214796	-2.609137	0.368993	-0.513040	-1.048132	-0.100666	-0.236281	-0.048227	0.970487	-0.472054	0.878684	-0.071264	-0.849315	-0.474961	-0.230383
25712	12.352156	-2.149925	0.192745	-0.283891	-0.842160	-0.022878	-0.243378	-0.052387	0.968516	-0.469725	0.879998	-0.070438	-0.848602	-0.472079	-0.238779
25713	11.466024	-1.267743	1.664815	-0.039467	-0.705758	0.072442	-0.249755	-0.055054	0.966743	-0.469229	0.880210	-0.071098	-0.847022	-0.471381	-0.245670
25714	11.852449	-0.402546	3.379031	0.009732	-0.705943	0.113366	-0.256314	-0.057353	0.964891	-0.469050	0.880209	-0.072280	-0.845160	-0.471108	-0.252511
25715	12.392633	0.745217	4.430677	-0.000267	-0.612893	0.093568	-0.261972	-0.059382	0.963247	-0.468841	0.880241	-0.073244	-0.843540	-0.470797	-0.258439
25716	12.336713	1.214387	5.552446	-0.092380	-0.547298	0.046392	-0.266857	-0.061517	0.961771	-0.467964	0.880685	-0.073512	-0.842495	-0.469691	-0.263805
25717	13.062684	1.169875	6.698653	-0.220216	-0.476230	-0.036678	-0.270724	-0.064032	0.960525	-0.466262	0.881659	-0.072642	-0.842204	-0.467523	-0.268542
25718	14.279669	0.773228	7.911394	-0.417948	-0.320041	-0.149956	-0.272778	-0.066815	0.959754	-0.463172	0.883489	-0.070135	-0.843246	-0.463662	-0.271944
25719	15.698132	0.850539	9.157360	-0.507868	-0.041574	-0.246748	-0.271997	-0.069138	0.959811	-0.459640	0.885615	-0.066462	-0.845428	-0.459245	-0.272663
25720	15.996808	2.276641	9.842137	-0.461702	0.401742	-0.358068	-0.267007	-0.070444	0.961116	-0.456719	0.887460	-0.061835	-0.848596	-0.455470	-0.269131
25721	14.789339	4.482334	9.408496	-0.481577	0.902919	-0.509812	-0.256981	-0.070810	0.963819	-0.454077	0.889217	-0.055741	-0.853097	-0.451972	-0.260665
25722	13.128703	5.765674	8.524320	-0.630621	1.302027	-0.698352	-0.242729	-0.071142	0.967482	-0.450448	0.891540	-0.047454	-0.859173	-0.447319	-0.248449
25723	12.499293	5.602650	7.145031	-0.954915	1.498218	-0.857970	-0.225913	-0.072086	0.971477	-0.444353	0.895091	-0.036914	-0.866899	-0.440018	-0.234245
25724	13.085752	4.179307	4.932354	-1.414367	1.639847	-0.902654	-0.207706	-0.073037	0.975461	-0.434008	0.900562	-0.024985	-0.876639	-0.428547	-0.218751
25725	13.389844	2.551975	0.989990	-1.979849	1.766437	-0.809418	-0.188600	-0.072855	0.979348	-0.418279	0.908226	-0.012987	-0.888523	-0.412090	-0.201765
25726	13.432705	1.533812	-2.474684	-2.585563	1.782837	-0.678341	-0.169924	-0.071867	0.982833	-0.396374	0.918088	-0.001398	-0.902227	-0.389807	-0.184491
25727	14.427227	0.964026	-3.607486	-2.805112	1.694362	-0.529591	-0.152416	-0.070278	0.985815	-0.371867	0.928246	0.008680	-0.915688	-0.365269	-0.167614
25728	15.950198	0.146931	-3.567867	-2.646096	1.772936	-0.354922	-0.134847	-0.067283	0.988579	-0.348020	0.937345	0.016325	-0.927738	-0.341844	-0.149814
25729	16.363687	-0.980971	-4.766211	-2.380134	1.941775	-0.122867	-0.116245	-0.061921	0.991288	-0.326103	0.945105	0.020795	-0.938160	-0.320845	-0.130057
25730	15.902677	-1.174791	-5.870506	-1.955678	2.031126	0.047652	-0.097304	-0.055089	0.993729	-0.307660	0.951228	0.022607	-0.946508	-0.303531	-0.109507
25731	15.754732	-1.093645	-5.180864	-1.479179	2.019489	0.051757	-0.078218	-0.048506	0.995756	-0.293705	0.955608	0.023479	-0.952691	-0.290622	-0.088992
25732	16.987248	-2.082589	-4.392719	-1.024123	2.157653	-0.019307	-0.057606	-0.042474	0.997436	-0.283979	0.958520	0.024416	-0.957099	-0.281844	-0.067278
25733	16.573465	-1.421690	-3.476883	-0.736749	2.439588	0.108241	-0.034463	-0.034534	0.998809	-0.277007	0.960577	0.023654	-0.960250	-0.275862	-0.042671
25734	13.468583	-3.243772	-3.837064	-0.596757	2.605181	0.243903	-0.010133	-0.025024	0.999635	-0.271259	0.962270	0.021339	-0.962453	-0.270944	-0.016539
25735	11.679440	-4.232673	-3.787653	-0.580667	2.315746	0.349948	0.011284	-0.015327	0.999819	-0.265819	0.963859	0.017775	-0.963957	-0.265972	0.006802
25736	11.574387	-4.076788	-4.479678	-0.287420	2.176036	0.442005	0.031048	-0.005262	0.999504	-0.263187	0.964654	0.013254	-0.964245	-0.263468	0.028565
25737	11.215511	-3.807824	-4.969585	-0.015148	2.216053	0.498821	0.051132	0.005517	0.998677	-0.263414	0.964648	0.008158	-0.963327	-0.263483	0.050778
25738	10.645833	-2.112439	-4.555121	0.271244	2.270882	0.538172	0.071513	0.016760	0.997299	-0.266402	0.963858	0.002905	-0.961205	-0.265890	0.073393
25739	9.945734	-1.632410	-4.810511	0.537826	2.284460	0.561095	0.091948	0.028430	0.995358	-0.272194	0.962239	-0.002340	-0.957839	-0.270716	0.096215
25740	9.112744	-0.062691	-4.608881	0.788792	2.314836	0.569823	0.112448	0.040294	0.992840	-0.280364	0.959867	-0.007203	-0.953284	-0.277547	0.119232
25741	8.328952	0.276200	-4.711329	0.917337	2.287422	0.546658	0.132644	0.052107	0.989793	-0.289918	0.956982	-0.011527	-0.947815	-0.285430	0.142045
25742	7.952921	0.973715	-4.751828	0.860467	2.200353	0.534931	0.151816	0.063617	0.986359	-0.298862	0.954170	-0.015542	-0.942143	-0.292426	0.163871
25743	7.050963	0.843771	-4.235080	0.824050	2.098464	0.469492	0.170100	0.074415	0.982613	-0.307503	0.951361	-0.018817	-0.936220	-0.298955	0.184709
25744	6.337962	0.965574	-3.774191	0.727479	1.973538	0.418043	0.187170	0.084381	0.978697	-0.315092	0.948816	-0.021545	-0.930421	-0.304347	0.204178
25745	5.702329	0.557726	-3.433856	0.597749	1.807196	0.392049	0.202675	0.093737	0.974749	-0.321527	0.946592	-0.024175	-0.924956	-0.308509	0.221990
25746	5.546500	-0.024986	-3.589365	0.547994	1.648754	0.401093	0.216533	0.102686	0.970860	-0.327477	0.944477	-0.026857	-0.919713	-0.312119	0.238138
25747	4.934696	-0.744303	-3.733241	0.582616	1.547596	0.389648	0.229415	0.111312	0.966943	-0.333799	0.942190	-0.029266	-0.914301	-0.316050	0.253308
25748	4.578626	-1.011805	-3.974203	0.794726	1.395165	0.378460	0.240802	0.119362	0.963207	-0.341986	0.939197	-0.030890	-0.908328	-0.321965	0.266981
25749	4.726468	-0.924284	-4.133538	1.118470	1.227943	0.346912	0.250677	0.126703	0.959743	-0.353060	0.935079	-0.031231	-0.901393	-0.331018	0.279137
25750	4.883756	-0.804232	-4.231897	1.532055	1.154952	0.275904	0.259995	0.133211	0.956377	-0.367565	0.929528	-0.029547	-0.892915	-0.343849	0.290637
25751	5.351382	-0.162668	-4.120575	2.035777	1.074197	0.211838	0.268691	0.139029	0.953140	-0.386284	0.922025	-0.025596	-0.882377	-0.361305	0.301445
25752	6.156880	0.770634	-3.422651	2.453077	1.098287	0.158351	0.277633	0.144602	0.949742	-0.408262	0.912654	-0.019610	-0.869622	-0.382300	0.312419
25753	6.651182	1.455991	-2.411332	2.664766	1.260796	0.147850	0.287835	0.150953	0.945708	-0.431727	0.901917	-0.012564	-0.854847	-0.404671	0.324773
25754	6.831068	1.221550	-1.055765	2.620461	1.459269	0.136003	0.299539	0.158267	0.940865	-0.454376	0.890795	-0.005187	-0.838939	-0.425953	0.338741
25755	6.974958	1.099834	0.522053	2.364676	1.510246	0.140112	0.311387	0.166107	0.935653	-0.474507	0.880250	0.001646	-0.823335	-0.444487	0.352918
25756	6.490334	0.977492	1.513838	2.000576	1.484011	0.098927	0.322969	0.173713	0.930331	-0.491205	0.871009	0.007888	-0.808956	-0.459530	0.366637
25757	5.875163	1.422706	2.310321	1.741958	1.294664	0.071662	0.332947	0.180379	0.925532	-0.505459	0.862742	0.013690	-0.796026	-0.472376	0.378421
25758	5.525763	2.467995	3.287831	1.606365	1.034884	0.047617	0.340827	0.185768	0.921590	-0.518368	0.854938	0.019372	-0.784304	-0.484325	0.387682
25759	5.874216	2.967457	3.886726	1.508212	0.726736	0.015827	0.346353	0.189468	0.918772	-0.530207	0.847497	0.025105	-0.773899	-0.495834	0.393990
25760	6.808240	2.402266	4.567903	1.520459	0.499922	-0.046040	0.350390	0.191616	0.916793	-0.541792	0.839921	0.031519	-0.763995	-0.507756	0.398116
25761	8.305381	1.712264	6.057618	1.430377	0.457302	-0.149327	0.354631	0.192709	0.914932	-0.552156	0.832847	0.038598	-0.754560	-0.518873	0.401759
25762	9.848261	1.388030	7.329000	1.181504	0.560678	-0.228695	0.360055	0.193771	0.912586	-0.560257	0.827072	0.045432	-0.745971	-0.527641	0.406353
25763	10.677682	1.018459	7.460364	1.111154	0.572098	-0.194631	0.365352	0.195206	0.910172	-0.567827	0.821520	0.051739	-0.737625	-0.535723	0.410988
25764	11.010288	1.096233	7.422119	1.191969	0.349661	-0.059846	0.368204	0.196631	0.908714	-0.576405	0.815162	0.057168	-0.729508	-0.544837	0.413485
25765	11.519914	0.899242	8.229333	1.176083	0.216459	0.151332	0.368854	0.199053	0.907923	-0.585538	0.808373	0.060653	-0.721867	-0.553995	0.414725
25766	11.436072	0.252976	9.246948	0.920693	0.286919	0.391548	0.368552	0.203830	0.906986	-0.593651	0.802415	0.060899	-0.715366	-0.560877	0.416735
25767	10.636010	-0.044956	9.202072	0.528339	0.411418	0.588141	0.367935	0.210871	0.905625	-0.599635	0.798186	0.057764	-0.710677	-0.564298	0.420127
25768	8.723747	0.003953	8.120780	0.175877	0.513731	0.661767	0.367542	0.219068	0.903837	-0.603369	0.795733	0.052491	-0.707714	-0.564640	0.424645
25769	7.188904	0.377242	6.495366	-0.125838	0.469860	0.652553	0.366883	0.226946	0.902160	-0.604942	0.794937	0.046039	-0.706712	-0.562645	0.428938
25770	5.757998	1.047944	5.011012	-0.458545	0.318644	0.572170	0.365623	0.233308	0.901048	-0.603846	0.796152	0.038879	-0.708301	-0.558309	0.431974
25771	5.107537	1.657032	2.617211	-0.842164	-0.160923	0.413082	0.361956	0.235759	0.901890	-0.599434	0.799804	0.031498	-0.713909	-0.552025	0.430816
25772	10.463070	1.020228	1.122348	-1.157143	-0.566505	0.323446	0.355903	0.235275	0.904422	-0.592335	0.805346	0.023591	-0.722822	-0.544117	0.425986
25773	21.458988	1.352323	3.400760	-0.737556	-0.897811	0.136720	0.348536	0.231547	0.908245	-0.587523	0.808979	0.019220	-0.730301	-0.540314	0.417998
25774	24.809069	1.145020	9.261999	0.140054	-0.629214	0.390718	0.341580	0.231321	0.910941	-0.589948	0.807278	0.016218	-0.731631	-0.542947	0.412218
25775	14.053615	-4.391018	10.543741	0.523773	-0.311055	1.028352	0.333165	0.237915	0.912358	-0.597292	0.801973	0.008983	-0.729550	-0.547937	0.409294
25776	9.929011	-7.812667	1.234239	1.019185	-1.141669	1.222063	0.317424	0.241369	0.917051	-0.608742	0.793366	0.001892	-0.727101	-0.558849	0.398764
25777	9.276483	-3.467414	-6.086411	1.822176	-1.034174	1.198575	0.302497	0.244976	0.921131	-0.625703	0.780059	-0.001979	-0.719021	-0.575756	0.389248
25778	4.932930	3.116700	-9.800717	1.876619	-0.793879	1.049873	0.290113	0.248480	0.924171	-0.642267	0.766468	-0.004460	-0.709456	-0.592271	0.381953
25779	3.223748	5.745197	-10.120876	1.139977	-0.954055	0.827579	0.277951	0.249082	0.927740	-0.652711	0.757567	-0.007841	-0.704778	-0.603366	0.373145
25780	5.030883	5.620033	-5.692529	0.540392	-1.041025	0.657604	0.266248	0.247751	0.931521	-0.658354	0.752613	-0.011996	-0.704047	-0.610077	0.363490
25781	8.838187	1.058793	-1.514141	-0.000337	-1.248472	0.465174	0.254321	0.243551	0.935951	-0.659545	0.751488	-0.016336	-0.707334	-0.613147	0.351752
25782	12.154208	-3.071171	-3.151600	-0.395416	-1.698635	0.446656	0.239247	0.236505	0.941715	-0.657883	0.752801	-0.021922	-0.714108	-0.614293	0.335698
25783	13.079565	-4.647777	-5.745124	-0.425010	-1.864540	0.624991	0.221700	0.229667	0.947683	-0.656236	0.753990	-0.029207	-0.721251	-0.615429	0.317875
25784	12.027420	-2.904194	-4.640066	-0.202125	-2.009918	0.776489	0.201991	0.223138	0.953629	-0.656463	0.753438	-0.037248	-0.726812	-0.618499	0.298670
25785	11.254871	-0.562758	-1.965568	-0.074302	-1.913259	0.744160	0.183083	0.216772	0.958901	-0.657294	0.752315	-0.044573	-0.731058	-0.622119	0.280219
25786	9.397104	0.558990	0.313911	-0.041221	-1.649961	0.540213	0.167383	0.210560	0.963145	-0.657982	0.751378	-0.049915	-0.734195	-0.625377	0.264312
25787	8.701242	0.903806	1.904342	-0.013232	-1.541515	0.322054	0.153848	0.203203	0.966974	-0.658326	0.750861	-0.053047	-0.736843	-0.628424	0.249292
25788	9.293172	-0.352320	1.888126	-0.073248	-1.404544	0.166826	0.142322	0.195631	0.970295	-0.658075	0.750950	-0.054880	-0.739380	-0.630716	0.235617
25789	8.979899	-0.649794	1.323247	-0.193461	-1.340784	0.108430	0.131596	0.187869	0.973339	-0.656710	0.752033	-0.056366	-0.742573	-0.631784	0.222340
25790	9.112616	-0.716908	0.868279	-0.547289	-1.479494	0.134084	0.119631	0.179561	0.976446	-0.652841	0.755202	-0.058892	-0.747989	-0.630419	0.207570
25791	9.602120	-0.839485	0.354901	-0.712931	-1.632317	0.230076	0.105788	0.170922	0.979589	-0.647661	0.759356	-0.062553	-0.754549	-0.627824	0.191031
25792	9.367582	-1.338282	-0.175545	-0.803089	-1.712481	0.328510	0.090630	0.162719	0.982501	-0.641937	0.763800	-0.067283	-0.761383	-0.624606	0.173678
25793	9.228643	-2.124806	0.065249	-0.890382	-1.738691	0.374351	0.074849	0.154654	0.985129	-0.635346	0.768824	-0.072423	-0.768592	-0.620477	0.155805
25794	8.525778	-3.132983	-0.689677	-0.656922	-1.596706	0.296488	0.060599	0.147072	0.987268	-0.630519	0.772408	-0.076363	-0.773805	-0.617864	0.139539
25795	7.700126	-2.226715	-0.387782	-0.423969	-1.507979	0.162771	0.047784	0.138920	0.989150	-0.627228	0.774867	-0.078525	-0.777368	-0.616670	0.124161
25796	8.227761	-2.413261	-0.391666	-0.265828	-1.465302	0.043683	0.036043	0.130243	0.990827	-0.625215	0.776412	-0.079315	-0.779620	-0.616621	0.109414
25797	9.460473	-1.616664	-0.335329	0.017352	-1.428584	0.005118	0.024768	0.121364	0.992299	-0.625260	0.776372	-0.079348	-0.780023	-0.618480	0.095113
25798	10.024083	-1.086773	-0.054361	0.194218	-1.401989	0.025685	0.013618	0.112889	0.993514	-0.626816	0.775103	-0.079480	-0.779048	-0.621668	0.081316
25799	9.879102	-0.245193	0.848442	0.285530	-1.381014	0.003162	0.002743	0.104209	0.994552	-0.628945	0.773394	-0.079302	-0.777445	-0.625301	0.067663
25800	9.769669	0.038584	1.514775	0.273497	-1.390201	-0.004139	-0.008087	0.095479	0.995399	-0.631105	0.771650	-0.079144	-0.775656	-0.628841	0.054017
25801	9.729906	0.209804	1.681409	0.194825	-1.403675	0.016179	-0.019177	0.086667	0.996053	-0.632520	0.770483	-0.079218	-0.774307	-0.631542	0.040044
25802	9.522633	0.160764	1.887900	0.029531	-1.443271	0.039948	-0.030660	0.077868	0.996492	-0.632772	0.770230	-0.079657	-0.773731	-0.632995	0.025657
25803	9.632285	-0.042846	2.013279	-0.162581	-1.465655	0.061232	-0.042500	0.068979	0.996712	-0.631401	0.771288	-0.080302	-0.774291	-0.632738	0.010774
25804	9.363192	-0.408227	2.114384	-0.333825	-1.460627	0.079898	-0.054383	0.060385	0.996693	-0.628808	0.773313	-0.081161	-0.775657	-0.631142	-0.004085
25805	8.811934	-1.078538	2.551931	-0.461067	-1.506592	0.090292	-0.066758	0.051521	0.996438	-0.625087	0.776235	-0.082014	-0.777695	-0.628335	-0.019615
25806	8.897450	-1.735094	2.718018	-0.523421	-1.578231	0.091493	-0.079678	0.042360	0.995920	-0.620975	0.779441	-0.082833	-0.779770	-0.625042	-0.035800
25807	9.439214	-2.107487	2.542166	-0.509237	-1.606747	0.086283	-0.092861	0.032958	0.995133	-0.616851	0.782640	-0.083482	-0.781583	-0.621602	-0.052346
25808	9.846721	-1.534635	2.380133	-0.441315	-1.589073	0.066702	-0.105759	0.023646	0.994111	-0.613363	0.785328	-0.083933	-0.782688	-0.618628	-0.068552
25809	9.790946	-0.353653	2.097905	-0.413423	-1.587968	0.055926	-0.118639	0.014241	0.992835	-0.610002	0.787914	-0.084194	-0.783468	-0.615621	-0.084790
25810	9.444483	0.866436	1.953717	-0.502086	-1.604846	0.037260	-0.131507	0.004706	0.991304	-0.606048	0.790964	-0.084153	-0.784482	-0.611845	-0.101165
25811	8.831188	1.596010	2.069406	-0.733987	-1.624104	0.027520	-0.144529	-0.005002	0.989488	-0.600190	0.795472	-0.083645	-0.786692	-0.605969	-0.117971
25812	8.536659	0.737461	1.943490	-1.023681	-1.636742	0.017175	-0.157596	-0.014695	0.987394	-0.592119	0.801608	-0.082577	-0.790290	-0.597669	-0.135032
25813	9.359339	-0.146648	1.229575	-1.228263	-1.606896	-0.044245	-0.170164	-0.024604	0.985109	-0.582406	0.808913	-0.080400	-0.794889	-0.587414	-0.151977
25814	10.370475	-0.477396	0.556073	-1.283989	-1.499601	-0.101826	-0.181590	-0.034137	0.982782	-0.572374	0.816331	-0.077403	-0.799633	-0.576575	-0.167777
25815	11.169285	-0.564378	0.505306	-1.240898	-1.344554	-0.114864	-0.191807	-0.042781	0.980500	-0.562593	0.823404	-0.074129	-0.804176	-0.565841	-0.182004
25816	11.472330	-0.449717	0.505240	-1.156020	-1.195508	-0.078175	-0.201067	-0.050109	0.978295	-0.553452	0.829828	-0.071246	-0.808247	-0.555765	-0.194584
25817	10.881797	-0.440141	0.858700	-1.108870	-1.051202	-0.010522	-0.209608	-0.056002	0.976181	-0.544452	0.835953	-0.068949	-0.812180	-0.545936	-0.205712
25818	9.714922	-0.847288	1.176023	-1.097700	-1.002579	0.033477	-0.218007	-0.061121	0.974031	-0.535470	0.841891	-0.067019	-0.815932	-0.536175	-0.216266
25819	9.389685	-1.482705	1.028055	-1.133673	-1.019081	0.039331	-0.226624	-0.066206	0.971729	-0.526084	0.847951	-0.064919	-0.819681	-0.525924	-0.226996
25820	10.051974	-1.987324	0.587134	-1.126151	-0.991957	0.032745	-0.234999	-0.071068	0.969394	-0.516782	0.853819	-0.062683	-0.823232	-0.515696	-0.237374
25821	11.021485	-1.613063	-0.051024	-0.996498	-0.900923	0.021592	-0.242608	-0.075482	0.967183	-0.508500	0.858933	-0.060518	-0.826178	-0.506495	-0.246767
25822	11.196778	-0.937322	0.759957	-0.744875	-0.782545	0.014471	-0.249209	-0.079267	0.965200	-0.502328	0.862672	-0.058851	-0.827987	-0.499513	-0.254804
25823	11.185717	-0.442331	2.161267	-0.549537	-0.714536	0.016584	-0.255273	-0.082660	0.963329	-0.497733	0.865413	-0.057636	-0.828914	-0.494193	-0.262059
25824	11.502425	-0.310062	3.612325	-0.474796	-0.654309	0.025809	-0.260881	-0.085628	0.961566	-0.493753	0.867753	-0.056686	-0.829548	-0.489564	-0.268659
25825	12.037401	0.917651	6.372100	-0.372589	-0.475529	0.025671	-0.265001	-0.087701	0.960251	-0.490611	0.869579	-0.055974	-0.830105	-0.485943	-0.273467
25826	11.474437	1.733533	7.530431	-0.476383	-0.325088	-0.011774	-0.267699	-0.089348	0.959351	-0.486708	0.871856	-0.054612	-0.831536	-0.481544	-0.276882
25827	12.373195	1.876224	8.101829	-0.704151	-0.245958	-0.090846	-0.269333	-0.091286	0.958711	-0.481131	0.875115	-0.051839	-0.834250	-0.475228	-0.279617
25828	14.640985	1.660027	8.649075	-1.068987	-0.148502	-0.208689	-0.269634	-0.093787	0.958385	-0.472774	0.879935	-0.046902	-0.838917	-0.465746	-0.281600
25829	16.909367	2.229420	8.950533	-1.338598	0.114468	-0.342716	-0.267064	-0.096240	0.958861	-0.462494	0.885723	-0.039915	-0.845444	-0.454128	-0.281055
25830	16.370483	3.562399	7.867093	-1.385229	0.592209	-0.433487	-0.260105	-0.097407	0.960655	-0.451895	0.891498	-0.031959	-0.853309	-0.442428	-0.275901
25831	14.214299	3.950760	6.419233	-1.338453	0.988982	-0.575551	-0.249018	-0.098175	0.963510	-0.441985	0.896731	-0.022860	-0.861765	-0.431549	-0.266694
25832	13.883716	3.091220	5.471424	-1.406627	1.299933	-0.721772	-0.234656	-0.099099	0.967014	-0.431569	0.901996	-0.012289	-0.871025	-0.420217	-0.254426
25833	14.317130	1.425074	2.680180	-1.634107	1.574588	-0.736718	-0.217668	-0.099188	0.970970	-0.419033	0.907970	-0.001185	-0.881494	-0.407126	-0.239199
25834	14.372651	0.199778	-1.171715	-1.922781	1.704976	-0.625104	-0.200022	-0.098046	0.974873	-0.403307	0.915018	0.009276	-0.892936	-0.391318	-0.222566
25835	14.526673	-0.009703	-4.054301	-2.112813	1.700347	-0.446915	-0.182911	-0.095575	0.978473	-0.385301	0.922614	0.018092	-0.904482	-0.373697	-0.205581
25836	14.862587	0.394601	-4.725094	-2.101207	1.674213	-0.252678	-0.166778	-0.091773	0.981714	-0.366655	0.930030	0.024652	-0.915287	-0.355839	-0.188757
25837	15.263115	0.373944	-4.433454	-1.942287	1.728145	-0.115201	-0.150399	-0.086763	0.984811	-0.349091	0.936634	0.029206	-0.924941	-0.339396	-0.171157
25838	15.359766	0.382023	-5.270395	-1.762976	1.835209	0.005294	-0.133413	-0.080585	0.987779	-0.332735	0.942479	0.031949	-0.933536	-0.324406	-0.152552
25839	15.057780	0.177036	-5.445636	-1.485392	1.870052	0.058501	-0.116019	-0.074003	0.990486	-0.318863	0.947211	0.033420	-0.940673	-0.311952	-0.133491
25840	15.633983	0.341043	-4.891839	-1.255692	1.824750	0.048982	-0.099002	-0.067904	0.992768	-0.306998	0.951087	0.034438	-0.946547	-0.301369	-0.115006
25841	16.584546	0.356830	-4.572408	-1.243242	1.997568	0.093007	-0.080266	-0.061022	0.994904	-0.295230	0.954794	0.034743	-0.952049	-0.290937	-0.094653
25842	15.481739	-0.733954	-4.593466	-1.265276	2.278658	0.283861	-0.059380	-0.051759	0.996893	-0.282991	0.958558	0.032912	-0.957283	-0.280158	-0.071566
25843	12.645664	-2.806588	-4.389066	-1.199597	2.359410	0.442276	-0.037921	-0.040941	0.998442	-0.271382	0.962031	0.029140	-0.961724	-0.269854	-0.047592
25844	11.768348	-2.628633	-4.723999	-0.907725	2.240631	0.562136	-0.017886	-0.029526	0.999404	-0.262523	0.964632	0.023801	-0.964760	-0.261941	-0.025004
25845	10.401667	-2.426735	-3.870708	-0.861813	2.216197	0.616824	0.001963	-0.017755	0.999840	-0.254274	0.966971	0.017671	-0.967130	-0.254268	-0.002616
25846	9.810762	-2.422073	-4.062206	-0.482944	2.174547	0.603576	0.021438	-0.006391	0.999750	-0.249716	0.968250	0.011544	-0.968082	-0.249901	0.019161
25847	9.986372	-2.090281	-4.512067	-0.135297	2.191289	0.562219	0.041271	0.004619	0.999137	-0.248715	0.968559	0.005796	-0.967697	-0.248739	0.041122
25848	10.054089	-1.550769	-4.507845	0.160936	2.253120	0.584859	0.061551	0.015944	0.997977	-0.250618	0.968086	-0.000010	-0.966127	-0.250110	0.063582
25849	9.992920	-1.332301	-4.393378	0.512601	2.260501	0.601327	0.081845	0.027572	0.996264	-0.256126	0.966627	-0.005711	-0.963172	-0.254701	0.086175
25850	9.619588	-0.547114	-4.232269	0.655549	2.278998	0.587027	0.102183	0.039152	0.993995	-0.263016	0.964729	-0.010961	-0.959365	-0.260317	0.108876
25851	8.737249	-0.588717	-4.118433	0.713641	2.240712	0.581735	0.122075	0.050760	0.991222	-0.270624	0.962553	-0.015963	-0.954914	-0.266300	0.131241
25852	7.781426	-0.705189	-4.187347	0.923702	2.166704	0.580758	0.141061	0.062237	0.988043	-0.280234	0.959714	-0.020444	-0.949511	-0.274000	0.152819
25853	7.259180	-0.348606	-4.038419	1.114820	2.051075	0.597507	0.158748	0.073773	0.984559	-0.291796	0.956164	-0.024597	-0.943215	-0.283386	0.173315
25854	6.871969	0.194833	-3.565204	1.255435	2.000096	0.600207	0.175705	0.085313	0.980739	-0.304649	0.952046	-0.028237	-0.936118	-0.293820	0.193270
25855	6.552952	0.268114	-3.750011	1.329160	1.958523	0.584249	0.192116	0.096809	0.976586	-0.318218	0.947500	-0.031325	-0.928347	-0.304749	0.212836
25856	6.289682	0.327947	-4.141590	1.341028	1.886733	0.539366	0.207754	0.107798	0.972223	-0.331744	0.942769	-0.033642	-0.920209	-0.315540	0.231625
25857	5.765976	0.383807	-4.178421	1.311220	1.814011	0.466387	0.222754	0.118072	0.967698	-0.344846	0.938004	-0.035069	-0.911845	-0.325895	0.249661
25858	5.065600	0.338137	-4.168216	1.325268	1.704200	0.386272	0.236815	0.127366	0.963170	-0.357815	0.933121	-0.035416	-0.903265	-0.336249	0.266550
25859	4.475391	0.311256	-4.015872	1.402500	1.546595	0.312798	0.249527	0.135616	0.958825	-0.371251	0.927887	-0.034625	-0.894376	-0.347325	0.281880
25860	4.189430	0.614172	-3.691305	1.500470	1.337428	0.241093	0.260466	0.142609	0.954893	-0.385272	0.922226	-0.032640	-0.885281	-0.359392	0.295152
25861	4.414787	0.885265	-3.248971	1.650730	1.124084	0.177269	0.269610	0.148391	0.951468	-0.400330	0.915899	-0.029405	-0.875812	-0.372973	0.306341
25862	5.135045	1.211119	-2.454961	1.812176	0.969494	0.130655	0.277468	0.153307	0.948424	-0.416522	0.908781	-0.025042	-0.865749	-0.388091	0.316013
25863	5.741654	1.374742	-1.783713	1.918624	0.990823	0.102674	0.285492	0.158176	0.945238	-0.433353	0.901005	-0.019888	-0.854810	-0.403944	0.325775
25864	5.881103	1.505367	-0.964071	1.905446	1.085235	0.045879	0.294451	0.163088	0.941648	-0.449718	0.893060	-0.014047	-0.843239	-0.419340	0.336306
25865	5.760547	1.551946	-0.024264	1.736920	1.108525	-0.044976	0.303875	0.167408	0.937888	-0.464153	0.885721	-0.007712	-0.831999	-0.432980	0.346852
25866	6.045761	1.569811	1.227787	1.457188	0.984580	-0.120903	0.312534	0.170691	0.934445	-0.475886	0.879506	-0.001491	-0.822104	-0.444223	0.356105
25867	6.714050	1.729719	2.150751	1.263027	0.845929	-0.154722	0.320129	0.173115	0.931423	-0.485736	0.874094	0.004487	-0.813375	-0.453862	0.363911
25868	7.754204	1.900798	2.969340	1.248726	0.764566	-0.152070	0.327007	0.175327	0.928616	-0.495401	0.868602	0.010457	-0.804764	-0.463456	0.370896
25869	8.368970	2.130294	3.735035	1.449785	0.690310	-0.149657	0.333215	0.177241	0.926042	-0.506509	0.862062	0.017260	-0.795246	-0.474800	0.377026
25870	8.704847	2.339152	4.873171	1.623772	0.561258	-0.152836	0.338379	0.178659	0.923894	-0.518880	0.854487	0.024804	-0.785024	-0.487783	0.381843
25871	9.068210	1.956878	6.287343	1.691271	0.490403	-0.158837	0.342976	0.179696	0.921996	-0.531528	0.846407	0.032760	-0.774497	-0.501302	0.385811
25872	9.634948	1.783424	8.078590	1.531078	0.541945	-0.129718	0.347789	0.181379	0.919861	-0.542913	0.838842	0.039865	-0.764387	-0.513270	0.390213
25873	10.539821	1.078698	10.249694	1.334946	0.619522	-0.043183	0.352676	0.184195	0.917438	-0.552909	0.831998	0.045505	-0.754925	-0.523308	0.395268
25874	11.922773	0.147836	12.600891	1.208599	0.710529	0.120199	0.357282	0.188965	0.914681	-0.562457	0.825362	0.049187	-0.745649	-0.532042	0.401172
25875	12.616786	-0.914677	13.416923	1.020108	0.940911	0.299167	0.362510	0.196452	0.911040	-0.571119	0.819307	0.050582	-0.736484	-0.538649	0.409204
25876	11.291506	-1.150064	11.487075	0.841332	1.019600	0.422968	0.367488	0.205446	0.907052	-0.578876	0.813870	0.050188	-0.727912	-0.543514	0.418015
25877	9.564751	-0.002258	8.274181	0.559367	0.886003	0.457108	0.371204	0.214008	0.903553	-0.584670	0.809827	0.048390	-0.721366	-0.546243	0.425735
25878	8.489824	1.420411	5.021022	0.162433	0.715394	0.445220	0.373687	0.221539	0.900710	-0.587549	0.807934	0.045043	-0.717735	-0.546043	0.432080
25879	8.267202	2.670436	2.355278	-0.389378	0.549378	0.424105	0.375098	0.227987	0.898512	-0.586401	0.809057	0.039514	-0.717939	-0.541709	0.437167
25880	8.019604	3.202372	-0.109887	-0.920146	0.393189	0.406652	0.375499	0.233422	0.896947	-0.581355	0.813029	0.031796	-0.721822	-0.533384	0.440993
25881	7.621307	2.964013	-1.224773	-1.122972	0.223693	0.384470	0.374857	0.237749	0.896079	-0.574703	0.818028	0.023375	-0.727460	-0.523742	0.443279
25882	7.249363	0.182168	-3.472350	-1.106258	-0.280296	0.387230	0.370540	0.239494	0.897409	-0.568110	0.822816	0.014985	-0.734813	-0.515380	0.440946
25883	13.705509	-0.720181	-2.004686	-0.526137	-1.083385	0.272873	0.360952	0.236151	0.902190	-0.565245	0.824860	0.010237	-0.741762	-0.513653	0.431218
25884	22.254451	-0.075640	5.176767	0.101644	-1.174052	0.414191	0.349822	0.233537	0.907240	-0.567525	0.823327	0.006895	-0.745346	-0.517293	0.420556
25885	19.529252	-3.435714	13.095798	0.960447	-0.185290	0.848634	0.343536	0.239489	0.908090	-0.577605	0.816310	0.003227	-0.740510	-0.525626	0.418762
25886	9.817405	-6.337759	8.030656	1.485553	-0.601415	0.973309	0.333355	0.244206	0.910625	-0.591901	0.806010	0.000528	-0.733844	-0.539176	0.413233
25887	9.569231	-1.653533	-0.263574	1.748706	-1.168876	0.840594	0.319718	0.244527	0.915416	-0.607450	0.794358	-0.000032	-0.727176	-0.556060	0.402508
25888	7.964787	3.516604	-5.804619	1.401759	-0.924638	0.767459	0.308253	0.245404	0.919107	-0.620063	0.784551	-0.001518	-0.721458	-0.569436	0.394006
25889	5.311086	6.142583	-8.502626	0.573854	-1.040991	0.753638	0.295986	0.245299	0.923158	-0.626483	0.779410	-0.006237	-0.721048	-0.576497	0.384370
25890	4.292872	5.418114	-8.106324	-0.255185	-1.166022	0.635512	0.283511	0.243545	0.927528	-0.626526	0.779290	-0.013116	-0.726008	-0.577402	0.373524
25891	5.627100	1.953367	-4.714400	-0.625022	-1.173787	0.537981	0.271525	0.240884	0.931799	-0.623415	0.781625	-0.020400	-0.733231	-0.575358	0.362402
25892	8.125835	-2.747028	-1.342005	-0.468785	-1.402003	0.456646	0.258299	0.236413	0.936691	-0.621219	0.783194	-0.026366	-0.739844	-0.575080	0.349162
25893	11.362340	-5.410265	-1.790863	-0.428313	-1.788947	0.417226	0.242345	0.229280	0.942709	-0.619018	0.784736	-0.031726	-0.747051	-0.575865	0.332105
25894	13.187698	-5.219830	-3.383447	-0.244327	-1.867554	0.491710	0.225238	0.222383	0.948585	-0.618381	0.784998	-0.037200	-0.752910	-0.578208	0.314329
25895	12.531528	-2.564095	-3.126599	0.018938	-1.751479	0.576368	0.208365	0.216632	0.953758	-0.619704	0.783678	-0.042616	-0.756671	-0.582168	0.297539
25896	10.710010	0.415930	-1.467801	0.085993	-1.600596	0.549329	0.192765	0.211601	0.958158	-0.621502	0.781962	-0.047654	-0.759327	-0.586311	0.282245
25897	9.056457	1.950408	0.100012	-0.042528	-1.488372	0.411464	0.178788	0.205947	0.962092	-0.621855	0.781423	-0.051712	-0.762451	-0.589036	0.267778
25898	8.251836	2.027292	1.566108	-0.158140	-1.424782	0.222349	0.166459	0.199300	0.965697	-0.621074	0.781868	-0.054306	-0.765871	-0.590729	0.253930
25899	8.825949	1.083346	2.061921	-0.364374	-1.358182	0.046945	0.155641	0.191513	0.969071	-0.618251	0.784008	-0.055644	-0.770416	-0.590469	0.240427
25900	9.626220	0.686320	1.699935	-0.599174	-1.289169	-0.045039	0.145892	0.183582	0.972118	-0.613593	0.787588	-0.056648	-0.776028	-0.588220	0.227547
25901	9.955266	-0.851694	1.570203	-0.765909	-1.376858	-0.020656	0.135191	0.175210	0.975205	-0.607489	0.792199	-0.058115	-0.782739	-0.584570	0.213536
25902	10.117513	-2.107192	0.618461	-0.736218	-1.432165	0.107483	0.123227	0.167736	0.978100	-0.601884	0.796272	-0.060725	-0.789019	-0.581220	0.199080
25903	10.053964	-2.596955	0.776059	-0.814776	-1.462554	0.221505	0.110211	0.160905	0.980797	-0.595579	0.800708	-0.064436	-0.795700	-0.577041	0.184078
25904	9.037865	-2.735742	0.801320	-0.799339	-1.399358	0.199984	0.097789	0.154486	0.983144	-0.589443	0.804955	-0.067857	-0.801869	-0.572871	0.169777
25905	8.750544	-2.356896	0.435191	-0.704437	-1.459473	0.192251	0.084809	0.147583	0.985407	-0.583844	0.808766	-0.070879	-0.807424	-0.569313	0.154757
25906	9.145468	-2.424728	0.006366	-0.666676	-1.374327	0.127735	0.072878	0.140839	0.987346	-0.578585	0.812333	-0.073168	-0.812359	-0.565932	0.140689
25907	8.888006	-2.171704	-0.248984	-0.435867	-1.245306	0.055331	0.062306	0.134143	0.989001	-0.574969	0.814795	-0.074292	-0.815799	-0.564017	0.127895
25908	8.824396	-2.144296	-0.070649	-0.268598	-1.178418	0.010040	0.052564	0.127604	0.990431	-0.572820	0.816264	-0.074765	-0.817994	-0.563409	0.116000
25909	8.737854	-1.984767	-0.049757	-0.130802	-1.114805	-0.034896	0.043515	0.120932	0.991706	-0.571627	0.817119	-0.074560	-0.819359	-0.563642	0.104686
25910	8.611980	-1.777357	0.244409	-0.060328	-1.138267	-0.054345	0.034437	0.114089	0.992873	-0.571150	0.817492	-0.074127	-0.820123	-0.564527	0.093314
25911	8.885781	-1.793374	0.105508	-0.021731	-1.191426	-0.042649	0.024779	0.106910	0.993960	-0.570856	0.817734	-0.073724	-0.820676	-0.565581	0.081293
25912	9.559598	-1.490691	-0.337989	0.064353	-1.240284	-0.022161	0.014670	0.099724	0.994907	-0.571416	0.817362	-0.073502	-0.820529	-0.567428	0.068975
25913	9.712750	-0.879531	-0.055620	0.153499	-1.281123	0.035675	0.003827	0.092637	0.995693	-0.572576	0.816526	-0.073767	-0.819843	-0.569827	0.056166
25914	9.366242	-0.721868	0.239623	0.182108	-1.349525	0.082111	-0.007759	0.085620	0.996298	-0.574102	0.815383	-0.074544	-0.818747	-0.572555	0.042828
25915	9.366121	-0.585365	0.111420	0.142077	-1.443502	0.093019	-0.020240	0.078007	0.996747	-0.575148	0.814564	-0.075428	-0.817799	-0.574804	0.028379
25916	9.218474	-0.827877	0.123364	0.108879	-1.500496	0.084028	-0.033046	0.070072	0.996994	-0.576050	0.813846	-0.076293	-0.816746	-0.576840	0.013471
25917	9.301599	-0.921192	0.594584	0.117087	-1.548311	0.066480	-0.046202	0.061582	0.997032	-0.576875	0.813199	-0.076960	-0.815525	-0.578719	-0.002047
25918	9.115517	-0.714475	1.113757	0.209264	-1.584794	0.072947	-0.059591	0.053002	0.996815	-0.578574	0.811915	-0.077759	-0.813450	-0.581365	-0.017717
25919	8.760249	-0.441719	2.007619	0.280408	-1.670688	0.069457	-0.073699	0.043750	0.996320	-0.580704	0.810317	-0.078538	-0.810772	-0.584356	-0.034314
25920	8.663211	0.070711	3.248205	0.252199	-1.784453	0.044785	-0.088460	0.033680	0.995510	-0.582740	0.808795	-0.079145	-0.807830	-0.587125	-0.051919
25921	9.088537	0.448776	4.522863	0.115576	-1.890920	0.011750	-0.103916	0.022593	0.994329	-0.583569	0.808177	-0.079351	-0.805387	-0.588506	-0.070797
25922	9.777702	0.945445	5.324091	-0.092132	-1.905926	-0.004855	-0.119281	0.011361	0.992796	-0.582862	0.808694	-0.079283	-0.803768	-0.588120	-0.089840
25923	10.153951	0.794871	5.573391	-0.360895	-1.834618	0.001881	-0.134160	0.000560	0.990960	-0.579881	0.810865	-0.078965	-0.803579	-0.585233	-0.108461
25924	10.201038	0.260720	5.104155	-0.660262	-1.706617	0.006211	-0.147980	-0.009311	0.988947	-0.574590	0.814687	-0.078308	-0.804953	-0.579826	-0.125907
25925	9.997057	-0.461867	4.088025	-0.914260	-1.549554	0.007507	-0.160629	-0.018212	0.986847	-0.567144	0.819995	-0.077181	-0.807804	-0.572081	-0.142043
25926	9.981107	-1.042209	2.905634	-1.050462	-1.425009	0.017823	-0.172323	-0.026133	0.984694	-0.558636	0.825938	-0.075843	-0.811314	-0.563155	-0.156927
25927	10.103946	-1.011701	1.936829	-1.120147	-1.298609	0.034265	-0.183174	-0.033122	0.982522	-0.549419	0.832230	-0.074374	-0.815221	-0.553440	-0.170641
25928	9.914384	-0.705372	1.228953	-1.150202	-1.192193	0.051154	-0.193253	-0.039210	0.980365	-0.539949	0.838535	-0.072899	-0.819212	-0.543435	-0.183221
25929	9.735621	-0.275174	0.796528	-1.174964	-1.126392	0.022696	-0.202717	-0.045095	0.978198	-0.530218	0.844889	-0.070931	-0.823271	-0.533037	-0.195184
25930	10.173214	-0.032599	0.695421	-1.224752	-1.088110	-0.059560	-0.211442	-0.051317	0.976042	-0.520258	0.851302	-0.067946	-0.827420	-0.522160	-0.206699
25931	10.977544	-0.466932	0.895624	-1.243165	-0.995917	-0.128290	-0.219128	-0.057564	0.973996	-0.510192	0.857669	-0.064093	-0.831677	-0.510969	-0.217309
25932	11.653404	-1.107012	0.977194	-1.230717	-0.834173	-0.144461	-0.225410	-0.062999	0.972225	-0.500275	0.863784	-0.060016	-0.836012	-0.499908	-0.226222
25933	11.821302	-1.529759	0.883626	-1.160172	-0.644051	-0.121930	-0.230282	-0.067240	0.970798	-0.490810	0.869452	-0.056204	-0.840283	-0.489420	-0.233221
25934	11.893703	-1.495728	1.930028	-0.920397	-0.468414	-0.066194	-0.233958	-0.070063	0.969719	-0.483239	0.873855	-0.053451	-0.843649	-0.481111	-0.238303
25935	12.019330	-1.310142	3.530749	-0.630136	-0.341284	0.003329	-0.236925	-0.071654	0.968882	-0.477905	0.876870	-0.052015	-0.845857	-0.475357	-0.241996
25936	11.993482	-0.907795	4.866744	-0.401091	-0.250513	0.063675	-0.239403	-0.072254	0.968228	-0.474383	0.878798	-0.051715	-0.847141	-0.471691	-0.244663
25937	12.483581	-0.418225	6.827121	-0.269118	-0.099868	0.085846	-0.240707	-0.071945	0.967928	-0.471916	0.880112	-0.051940	-0.848148	-0.469283	-0.245801
25938	12.486834	-0.093727	7.815945	-0.329599	0.062615	0.049803	-0.240464	-0.071186	0.968044	-0.469023	0.881673	-0.051672	-0.849821	-0.466460	-0.245398
25939	13.704058	-0.310636	8.166755	-0.426866	0.089099	-0.025968	-0.239611	-0.070962	0.968272	-0.465504	0.883608	-0.050437	-0.851993	-0.462820	-0.244755
25940	16.207806	0.258363	8.769915	-0.443664	0.330265	-0.114703	-0.236315	-0.070427	0.969121	-0.462015	0.885555	-0.048306	-0.854808	-0.459164	-0.241808
25941	16.783564	1.750154	8.300900	-0.464495	0.773328	-0.166987	-0.228919	-0.068315	0.971045	-0.458509	0.887516	-0.045652	-0.858700	-0.455684	-0.234492
25942	14.600951	3.827822	7.373193	-0.280257	1.139896	-0.254332	-0.217999	-0.065361	0.973758	-0.456691	0.888605	-0.042596	-0.862502	-0.453993	-0.223565
25943	12.813640	6.488922	7.116957	-0.028981	1.357787	-0.401010	-0.204405	-0.062690	0.976877	-0.457395	0.888421	-0.038693	-0.865453	-0.454728	-0.210272
25944	11.809701	7.451233	6.225249	-0.272266	1.551408	-0.542164	-0.188523	-0.060437	0.980207	-0.456126	0.889307	-0.032894	-0.869717	-0.453299	-0.195222
25945	11.866548	5.948510	3.253846	-1.121509	1.638286	-0.674444	-0.171106	-0.059037	0.983482	-0.447647	0.893882	-0.024223	-0.877687	-0.444398	-0.179377
25946	13.105171	3.499110	-0.927892	-2.168861	1.693277	-0.726785	-0.153006	-0.058168	0.986512	-0.429686	0.902879	-0.013407	-0.889921	-0.425941	-0.163139
25947	14.085018	2.060499	-3.733564	-2.886050	1.724491	-0.689188	-0.134590	-0.057245	0.989246	-0.404882	0.914366	-0.002174	-0.904409	-0.400821	-0.146242
25948	15.577285	1.427699	-4.940430	-3.094924	1.717206	-0.565468	-0.116776	-0.055769	0.991591	-0.377412	0.926014	0.007634	-0.918653	-0.373347	-0.129184
25949	16.962441	0.700687	-5.258898	-3.074071	1.791118	-0.391572	-0.098717	-0.052922	0.993707	-0.349479	0.936821	0.015175	-0.931729	-0.345782	-0.110975
25950	18.261039	-0.085669	-4.844602	-2.890561	1.902751	-0.189132	-0.080293	-0.048337	0.995599	-0.322585	0.946331	0.019929	-0.943129	-0.319565	-0.091577
25951	17.337877	-1.208505	-6.025489	-2.482642	1.993240	0.016923	-0.061394	-0.041979	0.997230	-0.299128	0.953965	0.021742	-0.952236	-0.296964	-0.071125
25952	15.064914	-2.141361	-6.366755	-1.760605	1.995415	0.110781	-0.042701	-0.035115	0.998471	-0.282288	0.959085	0.021657	-0.958379	-0.280932	-0.050867
25953	14.619044	-0.439480	-5.507489	-1.004544	1.972861	0.130301	-0.024076	-0.028351	0.999308	-0.272683	0.961881	0.020719	-0.961803	-0.271995	-0.030889
25954	14.673819	-0.053159	-4.753680	-0.732156	2.168651	0.159502	-0.003670	-0.020947	0.999774	-0.265651	0.963878	0.019220	-0.964062	-0.265520	-0.009102
25955	12.701647	-0.436586	-3.361556	-0.675031	2.436471	0.199742	0.019348	-0.012570	0.999734	-0.259231	0.965663	0.017158	-0.965622	-0.259494	0.015425
25956	11.405792	-1.591831	-3.529583	-0.963928	2.318362	0.285958	0.040981	-0.003854	0.999153	-0.250044	0.968133	0.013990	-0.967367	-0.250405	0.038711
25957	11.374477	-2.046812	-4.092437	-1.029974	2.134747	0.411237	0.060665	0.005434	0.998143	-0.240357	0.970640	0.009324	-0.968787	-0.240476	0.060190
25958	11.210370	-2.687368	-4.463415	-1.062857	2.034318	0.516222	0.079123	0.015277	0.996748	-0.230460	0.973076	0.003380	-0.969860	-0.229978	0.080514
25959	10.641400	-2.807739	-4.859690	-0.723622	2.028037	0.570957	0.097504	0.025487	0.994909	-0.224028	0.974578	-0.003011	-0.969693	-0.222594	0.100735
25960	10.051832	-2.389560	-5.152350	-0.095500	2.081532	0.636588	0.116197	0.036351	0.992561	-0.223830	0.974582	-0.009489	-0.967677	-0.221063	0.121380
25961	9.103343	-1.203492	-4.986026	0.528409	2.150302	0.659722	0.135451	0.047639	0.989638	-0.229841	0.973107	-0.015385	-0.963756	-0.225376	0.142758
25962	7.868591	-1.309642	-4.955564	0.911655	2.137025	0.609284	0.154516	0.058501	0.986257	-0.239536	0.970680	-0.020050	-0.958513	-0.233146	0.163999
25963	6.862043	-1.157369	-4.745203	1.169504	1.987245	0.539401	0.172157	0.068517	0.982684	-0.251677	0.967529	-0.023369	-0.952376	-0.243296	0.183811
25964	6.699111	0.439033	-4.543426	1.263710	1.829372	0.484063	0.188224	0.077783	0.979041	-0.264594	0.964017	-0.025720	-0.945813	-0.254207	0.202032
25965	5.907453	0.873015	-4.451811	1.076206	1.784627	0.382964	0.203974	0.086134	0.975180	-0.275556	0.960899	-0.027236	-0.939395	-0.263161	0.219733
25966	5.524653	0.965529	-4.163867	0.958539	1.656106	0.292709	0.218613	0.093405	0.971331	-0.285201	0.958060	-0.027940	-0.933204	-0.270917	0.236083
25967	5.457197	0.869490	-4.073285	0.957451	1.534270	0.257446	0.232081	0.100119	0.967530	-0.294718	0.955170	-0.028146	-0.926973	-0.278616	0.251184
25968	5.210348	0.536404	-3.989178	0.971711	1.459689	0.228377	0.244834	0.106460	0.963703	-0.304292	0.952171	-0.027879	-0.920578	-0.286421	0.265518
25969	4.903500	0.416191	-4.132556	1.086987	1.358131	0.219298	0.256552	0.112512	0.959959	-0.314848	0.948756	-0.027054	-0.913812	-0.295300	0.278830
25970	4.597886	0.373290	-4.270618	1.269834	1.213449	0.227830	0.266817	0.118354	0.956452	-0.327055	0.944657	-0.025657	-0.906556	-0.305967	0.290759
25971	4.343783	0.437469	-4.269891	1.509788	1.026430	0.223924	0.275264	0.123673	0.953381	-0.341311	0.939660	-0.023348	-0.898741	-0.318973	0.300866
25972	4.248198	0.586636	-4.000075	1.724631	0.800548	0.198056	0.281685	0.128179	0.950907	-0.357345	0.933758	-0.020012	-0.890482	-0.334165	0.308830
25973	4.960233	0.864649	-3.318614	1.985988	0.654892	0.187696	0.286722	0.132157	0.948854	-0.375478	0.926700	-0.015611	-0.881366	-0.351798	0.315328
25974	5.368431	1.125541	-2.088515	2.172383	0.736643	0.148669	0.292553	0.136225	0.946497	-0.394995	0.918628	-0.010125	-0.870857	-0.370899	0.322555
25975	5.642993	1.129503	-0.993649	2.198801	0.859311	0.088792	0.299542	0.140274	0.943715	-0.414274	0.910144	-0.003790	-0.859449	-0.389821	0.330738
25976	5.905886	0.496705	0.173092	2.109521	0.899013	0.003121	0.307151	0.143919	0.940715	-0.432344	0.901703	0.003213	-0.847784	-0.407700	0.339182
25977	7.087159	0.034402	1.452467	2.024613	0.853718	-0.098924	0.314688	0.146540	0.937815	-0.449071	0.893427	0.011084	-0.836245	-0.424634	0.346958
25978	8.824673	0.458751	2.172268	2.029113	0.873420	-0.144544	0.322548	0.149067	0.934742	-0.465509	0.884828	0.019525	-0.824175	-0.441429	0.354791
25979	9.404247	1.452216	2.280884	2.128777	0.871487	-0.101007	0.330065	0.152051	0.931632	-0.482572	0.875406	0.028094	-0.811284	-0.458852	0.362316
25980	8.798308	2.604167	2.773363	2.377005	0.762857	-0.100096	0.336639	0.154783	0.928825	-0.501405	0.864392	0.037682	-0.797036	-0.478403	0.368596
25981	8.687104	3.692996	4.411248	2.582951	0.539893	-0.136552	0.341512	0.156188	0.926809	-0.521315	0.851984	0.048516	-0.782049	-0.499729	0.372386
25982	8.726741	4.000152	6.504407	2.490149	0.388594	-0.154455	0.345288	0.156888	0.925290	-0.540129	0.839496	0.059217	-0.767487	-0.520224	0.374608
25983	8.769018	4.300271	8.621045	2.091251	0.335473	-0.134945	0.348500	0.157463	0.923988	-0.555557	0.828667	0.068321	-0.754920	-0.537137	0.376270
25984	9.121141	4.529326	10.145353	1.354410	0.298694	-0.106685	0.351285	0.158225	0.922802	-0.565400	0.821456	0.074384	-0.746272	-0.547882	0.378025
25985	10.232305	4.079819	11.321865	0.723743	0.274642	-0.055718	0.353576	0.159210	0.921757	-0.570568	0.817571	0.077649	-0.741240	-0.553380	0.379914
25986	12.320941	3.193080	12.312446	0.356859	0.388465	0.090205	0.355877	0.162122	0.920363	-0.573577	0.815416	0.078150	-0.737808	-0.555710	0.383177
25987	13.959248	1.590835	12.204006	0.009058	0.759384	0.292004	0.359739	0.168661	0.917682	-0.574682	0.814886	0.075512	-0.735070	-0.554540	0.390073
25988	12.316957	-0.217741	10.054665	-0.375752	1.012589	0.437756	0.364606	0.177844	0.914021	-0.573558	0.816169	0.069990	-0.733548	-0.549763	0.399584
25989	9.588116	-0.467906	7.274021	-0.697983	0.982159	0.443679	0.369229	0.186800	0.910371	-0.570075	0.819164	0.063126	-0.733951	-0.542288	0.408949
25990	7.791329	0.866844	4.613900	-1.033742	0.882144	0.385715	0.373473	0.194730	0.906972	-0.563957	0.823949	0.055321	-0.736526	-0.532154	0.417542
25991	7.174422	2.003671	2.137233	-1.389552	0.661073	0.354531	0.376332	0.201115	0.904393	-0.555033	0.830541	0.046265	-0.741831	-0.519379	0.424185
25992	7.327217	2.457801	0.804349	-1.578986	0.446211	0.328006	0.377800	0.206162	0.902643	-0.544552	0.837931	0.036540	-0.748820	-0.505340	0.428836
25993	8.061681	1.693467	-1.224474	-1.600588	0.102662	0.293959	0.376946	0.209112	0.902321	-0.533617	0.845295	0.027023	-0.757077	-0.491680	0.430216
25994	12.530417	0.999884	-1.624647	-1.117874	-0.752441	0.173618	0.370243	0.206939	0.905592	-0.525805	0.850355	0.020654	-0.765800	-0.483811	0.423647
25995	20.657179	1.670061	5.568539	-0.318432	-0.900947	0.307963	0.361656	0.205146	0.909462	-0.524473	0.851266	0.016543	-0.770800	-0.482971	0.415459
25996	17.160333	-3.600678	11.481853	0.255803	-0.063827	0.839004	0.356688	0.211991	0.909853	-0.529508	0.848247	0.009945	-0.769672	-0.485322	0.414811
25997	8.378649	-8.799551	4.934507	0.844529	-0.712925	1.112364	0.345210	0.217848	0.912892	-0.539896	0.841726	0.003296	-0.767687	-0.494005	0.408187
25998	8.581947	-4.877336	-1.647411	1.380136	-1.324997	0.957452	0.329767	0.219246	0.918251	-0.553751	0.832682	0.000051	-0.764600	-0.508499	0.395999
25999	7.593659	1.182065	-5.008514	1.226691	-1.080426	0.855672	0.316668	0.220745	0.922493	-0.565882	0.824481	-0.003038	-0.761248	-0.521060	0.386003
26000	6.043514	4.549558	-7.663709	0.793203	-0.977248	0.805736	0.304586	0.222252	0.926192	-0.574465	0.818495	-0.007490	-0.759748	-0.529784	0.376978
26001	5.839459	5.167095	-7.477564	0.335812	-0.927007	0.629580	0.293837	0.222392	0.929625	-0.578875	0.815327	-0.012077	-0.760634	-0.534588	0.368310
26002	6.516603	2.180237	-3.662810	0.100333	-0.974408	0.501606	0.283448	0.221275	0.933110	-0.581134	0.813642	-0.016415	-0.762850	-0.537610	0.359216
26003	9.683143	-1.472382	-0.591286	0.098194	-1.279526	0.408235	0.271216	0.217584	0.937603	-0.582958	0.812259	-0.019867	-0.765899	-0.541195	0.347140
26004	11.984933	-3.399979	-1.552674	0.017062	-1.557386	0.455260	0.256542	0.212845	0.942806	-0.584337	0.811153	-0.024122	-0.769894	-0.544728	0.332468
26005	11.893035	-2.374680	-2.835123	0.046350	-1.623934	0.584371	0.240500	0.208593	0.947971	-0.586079	0.809717	-0.029483	-0.773738	-0.548495	0.316989
26006	11.221919	-0.394875	-2.371327	0.091882	-1.635837	0.631117	0.224053	0.204711	0.952834	-0.588302	0.807873	-0.035231	-0.776982	-0.552661	0.301439
26007	9.719433	1.012182	-1.364500	-0.134875	-1.539579	0.562142	0.208651	0.200605	0.957195	-0.588385	0.807542	-0.040984	-0.781197	-0.554647	0.286527
26008	8.433137	1.590057	-0.317796	-0.415775	-1.467087	0.404364	0.194718	0.195759	0.961126	-0.585984	0.809012	-0.046060	-0.786580	-0.554236	0.272241
26009	8.995683	0.847405	0.365790	-0.598616	-1.469933	0.261257	0.181479	0.189610	0.964942	-0.581649	0.811893	-0.050144	-0.792937	-0.552158	0.257628
26010	9.552725	-1.054316	0.714033	-0.686668	-1.450487	0.161471	0.168937	0.182956	0.968497	-0.576507	0.815341	-0.053462	-0.799437	-0.549314	0.243217
26011	9.529109	-2.458083	0.892513	-0.615031	-1.423849	0.115153	0.156742	0.175957	0.971839	-0.571653	0.818581	-0.056010	-0.805385	-0.546776	0.228892
26012	9.989707	-2.198366	0.962169	-0.435971	-1.419158	0.111956	0.144583	0.169143	0.974929	-0.568342	0.820738	-0.058106	-0.809989	-0.545692	0.214796
26013	10.547114	-2.120480	0.818631	-0.418979	-1.415072	0.136400	0.132200	0.162422	0.977825	-0.565022	0.822870	-0.060293	-0.814416	-0.544522	0.200555
26014	9.675528	-2.080353	0.686052	-0.372351	-1.400328	0.187310	0.119655	0.156366	0.980425	-0.562259	0.824566	-0.062889	-0.818259	-0.543728	0.186582
26015	9.127465	-1.985336	0.613803	-0.449971	-1.476832	0.208423	0.106247	0.149947	0.982969	-0.558697	0.826763	-0.065731	-0.822539	-0.542198	0.171616
26016	8.524224	-1.888512	0.371672	-0.441324	-1.486181	0.180410	0.092930	0.143414	0.985290	-0.555277	0.828858	-0.068272	-0.826457	-0.540764	0.156661
26017	9.133711	-1.408600	0.615662	-0.409070	-1.572380	0.149052	0.078951	0.136044	0.987552	-0.551910	0.830931	-0.070345	-0.830158	-0.539486	0.140687
26018	9.311173	-1.797108	0.364940	-0.365103	-1.450962	0.086561	0.066349	0.128966	0.989427	-0.548975	0.832755	-0.071731	-0.833201	-0.538412	0.126051
26019	9.344315	-1.952181	0.035767	-0.274345	-1.310203	0.043714	0.055042	0.122173	0.990981	-0.546606	0.834246	-0.072490	-0.835579	-0.537687	0.112699
26020	9.265231	-2.040835	-0.261763	-0.128507	-1.216885	0.036279	0.044610	0.115952	0.992253	-0.545587	0.834866	-0.073031	-0.836866	-0.538102	0.100505
26021	8.902209	-1.743919	-0.229994	0.024442	-1.136760	0.020396	0.034842	0.109895	0.993332	-0.545694	0.834780	-0.073213	-0.837260	-0.539504	0.089055
26022	8.858516	-0.920890	0.149152	0.080153	-1.165751	0.010079	0.024970	0.103700	0.994295	-0.546404	0.834309	-0.073293	-0.837149	-0.541457	0.077495
26023	9.160444	-0.701146	0.060540	0.055219	-1.242455	0.010412	0.014366	0.096952	0.995185	-0.546762	0.834068	-0.073363	-0.837165	-0.543076	0.064992
26024	9.386641	-0.686074	0.227765	0.012650	-1.318864	0.028881	0.003109	0.090042	0.995933	-0.546906	0.833945	-0.073690	-0.837188	-0.544453	0.051837
26025	9.489912	-0.899622	0.300557	-0.014799	-1.363425	0.060859	-0.008788	0.083026	0.996509	-0.546673	0.834042	-0.074311	-0.837300	-0.545418	0.038059
26026	9.464501	-0.924502	0.446602	-0.030291	-1.402305	0.099822	-0.021132	0.076225	0.996867	-0.546439	0.834101	-0.075363	-0.837232	-0.546319	0.024026
