// General information: 
//  MT Manager version: 2022.2.0 
//  XDA version: 2022.2.0 build 7381 rev 124627 built on 2023-07-19
// Device information: 
//  DeviceId: 00B4CBA7
//  ProductCode: MTW2-3A7G6
//  Firmware Version: 4.6.0
//  Hardware Version: 2.0.0
// Device settings: 
//  Filter Profile: human(46.1)
//  Option Flags: Orientation Smoother Disabled, Position/Velocity Smoother Disabled, Continuous Zero Rotation Update Disabled, AHS Disabled, ICC Disabled
// Coordinate system: ENU
PacketCounter	Acc_X	Acc_Y	Acc_Z	Gyr_X	Gyr_Y	Gyr_Z	Mat[1][1]	Mat[2][1]	Mat[3][1]	Mat[1][2]	Mat[2][2]	Mat[3][2]	Mat[1][3]	Mat[2][3]	Mat[3][3]
20487	9.718665	-0.219386	-0.894813	0.006886	0.009704	0.003775	-0.075988	-0.028826	0.996692	-0.588515	0.808200	-0.021494	-0.804907	-0.588202	-0.078378
20488	9.765788	-0.164317	-0.844095	0.006910	0.011761	0.002002	-0.075867	-0.028758	0.996703	-0.588572	0.808159	-0.021483	-0.804877	-0.588261	-0.078239
20489	9.732699	-0.226425	-0.802357	0.006207	0.015290	0.002743	-0.075728	-0.028609	0.996718	-0.588461	0.808239	-0.021511	-0.804971	-0.588159	-0.078042
20490	9.746480	-0.202432	-0.841127	0.005686	0.011283	0.002787	-0.075616	-0.028538	0.996729	-0.588507	0.808206	-0.021506	-0.804948	-0.588208	-0.077908
20491	9.717067	-0.218503	-0.770531	0.010909	0.009365	0.001048	-0.075497	-0.028516	0.996738	-0.588564	0.808166	-0.021459	-0.804918	-0.588264	-0.077798
20492	9.715012	-0.185985	-0.780165	0.017478	0.009581	0.002396	-0.075396	-0.028458	0.996747	-0.588705	0.808063	-0.021460	-0.804824	-0.588408	-0.077678
20493	9.725627	-0.128146	-0.770267	0.012460	0.006018	0.001665	-0.075291	-0.028438	0.996756	-0.588750	0.808031	-0.021419	-0.804801	-0.588453	-0.077580
20494	9.709863	-0.119931	-0.740063	0.008460	0.008412	0.002617	-0.075201	-0.028384	0.996764	-0.588818	0.807982	-0.021415	-0.804759	-0.588524	-0.077474
20495	9.732573	-0.116714	-0.788974	0.007562	0.004115	0.004804	-0.075069	-0.028389	0.996774	-0.588810	0.807990	-0.021332	-0.804778	-0.588512	-0.077370
20496	9.727851	-0.162153	-0.758124	0.001319	0.000078	0.004859	-0.075059	-0.028367	0.996776	-0.588819	0.807983	-0.021345	-0.804772	-0.588522	-0.077349
20497	9.722030	-0.175832	-0.797657	0.012435	0.003960	0.003437	-0.074965	-0.028407	0.996781	-0.588940	0.807897	-0.021269	-0.804692	-0.588639	-0.077294
20498	9.743707	-0.171519	-0.786971	0.013659	0.004435	0.002652	-0.074907	-0.028377	0.996787	-0.589050	0.807817	-0.021269	-0.804617	-0.588751	-0.077226
20499	9.779100	-0.143059	-0.816246	0.015003	0.006568	0.005736	-0.074826	-0.028300	0.996795	-0.589045	0.807820	-0.021283	-0.804629	-0.588749	-0.077116
20500	9.721064	-0.145593	-0.866366	0.010884	0.007303	0.002817	-0.074746	-0.028252	0.996802	-0.589132	0.807756	-0.021283	-0.804572	-0.588839	-0.077020
20501	9.731152	-0.198399	-0.804762	0.016579	0.005276	0.004581	-0.074704	-0.028236	0.996806	-0.589244	0.807675	-0.021281	-0.804494	-0.588951	-0.076974
20502	9.750734	-0.161287	-0.804526	0.013685	0.006487	0.000877	-0.074618	-0.028208	0.996813	-0.589355	0.807594	-0.021263	-0.804421	-0.589063	-0.076886
20503	9.765576	-0.168974	-0.773466	0.014181	0.008436	0.002603	-0.074517	-0.028118	0.996823	-0.589312	0.807625	-0.021273	-0.804461	-0.589025	-0.076751
20504	9.726063	-0.132657	-0.763971	0.007262	0.009987	0.001623	-0.074407	-0.028063	0.996833	-0.589371	0.807583	-0.021257	-0.804429	-0.589086	-0.076630
20505	9.735120	-0.153336	-0.772270	-0.001704	0.012934	-0.001705	-0.074171	-0.028062	0.996851	-0.589315	0.807627	-0.021113	-0.804492	-0.589025	-0.076440
20506	9.744168	-0.174128	-0.780669	-0.003358	0.008060	0.004771	-0.074095	-0.027994	0.996858	-0.589286	0.807648	-0.021121	-0.804520	-0.588999	-0.076339
20507	9.744229	-0.174535	-0.779807	0.001164	0.009668	0.003774	-0.074036	-0.027960	0.996864	-0.589274	0.807657	-0.021111	-0.804534	-0.588989	-0.076272
20508	9.742202	-0.142036	-0.789505	0.010910	0.009354	0.001043	-0.073928	-0.027915	0.996873	-0.589363	0.807593	-0.021093	-0.804479	-0.589079	-0.076155
20509	9.711675	-0.126343	-0.789290	0.008983	0.012408	0.002564	-0.073761	-0.027870	0.996886	-0.589377	0.807584	-0.021031	-0.804483	-0.589094	-0.075994
20510	9.742371	-0.142558	-0.787328	0.007262	0.009984	0.001622	-0.073651	-0.027816	0.996896	-0.589436	0.807542	-0.021016	-0.804450	-0.589154	-0.075872
20511	9.767279	-0.172046	-0.825088	0.008982	0.012407	0.002563	-0.073557	-0.027789	0.996904	-0.589544	0.807464	-0.020991	-0.804380	-0.589262	-0.075777
20512	9.732002	-0.201258	-0.793707	0.011604	0.019122	0.001313	-0.073372	-0.027684	0.996920	-0.589637	0.807396	-0.020976	-0.804328	-0.589361	-0.075564
20513	9.730049	-0.168877	-0.802617	0.014847	0.016145	0.004650	-0.073160	-0.027583	0.996939	-0.589661	0.807379	-0.020934	-0.804330	-0.589387	-0.075333
20514	9.746039	-0.177621	-0.830518	0.015486	0.015062	-0.003505	-0.072980	-0.027540	0.996953	-0.589790	0.807287	-0.020873	-0.804253	-0.589516	-0.075158
20515	9.746142	-0.177703	-0.829289	0.017476	0.009558	0.002393	-0.072916	-0.027532	0.996958	-0.589943	0.807176	-0.020857	-0.804146	-0.589669	-0.075098
20516	9.715629	-0.161819	-0.829049	0.015838	0.013294	-0.003874	-0.072747	-0.027503	0.996971	-0.590074	0.807081	-0.020792	-0.804065	-0.589800	-0.074942
20517	9.759002	-0.152295	-0.807158	0.016305	0.013189	-0.000374	-0.072631	-0.027424	0.996982	-0.590099	0.807063	-0.020789	-0.804057	-0.589828	-0.074800
20518	9.721618	-0.148499	-0.786487	0.018053	0.017662	-0.001211	-0.072443	-0.027348	0.996998	-0.590246	0.806956	-0.020753	-0.803966	-0.589977	-0.074600
20519	9.775162	-0.160975	-0.833251	0.005035	0.018902	-0.000050	-0.072242	-0.027299	0.997013	-0.590264	0.806945	-0.020675	-0.803971	-0.589995	-0.074409
20520	9.755779	-0.198641	-0.830898	0.016970	0.020899	0.001665	-0.072045	-0.027181	0.997031	-0.590401	0.806846	-0.020666	-0.803889	-0.590137	-0.074176
20521	9.734322	-0.203650	-0.839183	0.024267	0.019629	0.000508	-0.071955	-0.027124	0.997039	-0.590623	0.806683	-0.020679	-0.803733	-0.590362	-0.074065
20522	9.722234	-0.149098	-0.778725	0.027943	0.021043	-0.001848	-0.071736	-0.027033	0.997057	-0.590850	0.806517	-0.020644	-0.803586	-0.590592	-0.073829
20523	9.721185	-0.147910	-0.716880	0.032437	0.020590	-0.001069	-0.071422	-0.027009	0.997080	-0.591109	0.806331	-0.020500	-0.803423	-0.590847	-0.073554
20524	9.754712	-0.086357	-0.755604	0.024123	0.015905	-0.001587	-0.071246	-0.026946	0.997095	-0.591305	0.806188	-0.020464	-0.803295	-0.591045	-0.073371
20525	9.739774	-0.109258	-0.653703	0.016644	0.024701	0.000240	-0.071060	-0.026842	0.997111	-0.591408	0.806113	-0.020447	-0.803235	-0.591152	-0.073157
20526	9.748919	-0.129925	-0.660825	0.008712	0.020305	-0.002421	-0.070844	-0.026759	0.997128	-0.591481	0.806061	-0.020392	-0.803201	-0.591227	-0.072932
20527	9.707894	-0.172041	-0.668815	0.009908	0.018726	-0.001428	-0.070611	-0.026708	0.997146	-0.591486	0.806060	-0.020295	-0.803218	-0.591231	-0.072714
20528	9.723938	-0.180697	-0.696680	0.018726	0.012062	-0.000171	-0.070475	-0.026656	0.997157	-0.591637	0.805950	-0.020269	-0.803118	-0.591384	-0.072570
20529	9.708088	-0.172253	-0.665940	0.022515	0.015138	0.001340	-0.070382	-0.026655	0.997164	-0.591896	0.805760	-0.020239	-0.802935	-0.591642	-0.072488
20530	9.717165	-0.193149	-0.674109	0.027572	0.007444	-0.000693	-0.070279	-0.026635	0.997172	-0.592119	0.805597	-0.020214	-0.802780	-0.591865	-0.072388
20531	9.734699	-0.123104	-0.684615	0.034488	0.005883	0.000299	-0.070195	-0.026670	0.997177	-0.592405	0.805388	-0.020161	-0.802576	-0.592148	-0.072334
20532	9.693824	-0.085068	-0.616172	0.026938	0.001774	-0.004503	-0.070115	-0.026715	0.997181	-0.592626	0.805227	-0.020097	-0.802420	-0.592364	-0.072290
20533	9.715420	-0.080242	-0.605985	0.019059	-0.005048	0.000264	-0.070110	-0.026767	0.997180	-0.592688	0.805182	-0.020058	-0.802375	-0.592423	-0.072316
20534	9.785619	-0.133059	-0.613492	0.013480	-0.001354	0.002350	-0.070096	-0.026775	0.997181	-0.592796	0.805103	-0.020053	-0.802297	-0.592530	-0.072306
20535	9.728515	-0.166893	-0.594015	0.012284	0.000223	0.001354	-0.070101	-0.026792	0.997180	-0.592853	0.805061	-0.020047	-0.802254	-0.592587	-0.072320
20536	9.742397	-0.143058	-0.634253	0.005690	-0.002029	0.001778	-0.070089	-0.026809	0.997180	-0.592899	0.805028	-0.020031	-0.802221	-0.592631	-0.072319
20537	9.706101	-0.140948	-0.675348	-0.003737	-0.005506	0.005916	-0.070211	-0.026853	0.997171	-0.592896	0.805029	-0.020068	-0.802212	-0.592628	-0.072443
20538	9.759527	-0.153907	-0.724661	-0.004019	-0.012935	0.001748	-0.070287	-0.026934	0.997163	-0.592863	0.805053	-0.020044	-0.802230	-0.592590	-0.072553
20539	9.737832	-0.158995	-0.736086	-0.009978	-0.009523	0.005978	-0.070393	-0.026961	0.997155	-0.592686	0.805183	-0.020070	-0.802351	-0.592413	-0.072659
20540	9.737758	-0.159249	-0.737006	-0.004342	-0.009124	0.000330	-0.070430	-0.027031	0.997150	-0.592652	0.805210	-0.020032	-0.802374	-0.592374	-0.072731
20541	9.748244	-0.101174	-0.729099	0.000997	-0.009390	0.002470	-0.070472	-0.027104	0.997145	-0.592621	0.805233	-0.019996	-0.802392	-0.592339	-0.072809
20542	9.740440	-0.082094	-0.780445	-0.007145	-0.008300	0.002264	-0.070514	-0.027153	0.997141	-0.592563	0.805276	-0.019975	-0.802432	-0.592277	-0.072873
20543	9.746541	-0.180524	-0.748937	-0.009597	-0.009241	0.003834	-0.070523	-0.027259	0.997138	-0.592510	0.805317	-0.019891	-0.802470	-0.592217	-0.072945
20544	9.717922	-0.197589	-0.740031	-0.012020	-0.008134	0.003625	-0.070572	-0.027297	0.997133	-0.592412	0.805390	-0.019880	-0.802538	-0.592117	-0.073009
20545	9.765946	-0.143569	-0.751257	-0.005597	-0.011645	0.002894	-0.070666	-0.027449	0.997122	-0.592470	0.805349	-0.019818	-0.802487	-0.592165	-0.073173
20546	9.753242	-0.169585	-0.771750	-0.015936	-0.006116	0.010209	-0.070737	-0.027423	0.997118	-0.592335	0.805446	-0.019870	-0.802580	-0.592034	-0.073218
20547	9.735220	-0.128900	-0.753638	-0.004087	-0.003746	0.006278	-0.070738	-0.027457	0.997117	-0.592320	0.805459	-0.019841	-0.802592	-0.592016	-0.073240
20548	9.744158	-0.150134	-0.763433	-0.005807	-0.006167	0.005342	-0.070780	-0.027470	0.997114	-0.592270	0.805495	-0.019851	-0.802625	-0.591966	-0.073283
20549	9.743299	-0.119235	-0.834341	-0.007706	-0.001059	0.005076	-0.070716	-0.027463	0.997118	-0.592107	0.805616	-0.019804	-0.802751	-0.591801	-0.073230
20550	9.762070	-0.192459	-0.782523	-0.001987	-0.001041	0.005071	-0.070715	-0.027447	0.997119	-0.592088	0.805630	-0.019815	-0.802765	-0.591783	-0.073221
20551	9.740431	-0.197737	-0.792952	0.002507	-0.001493	0.005852	-0.070763	-0.027424	0.997116	-0.592032	0.805670	-0.019856	-0.802802	-0.591730	-0.073248
20552	9.722438	-0.156833	-0.774650	0.008083	-0.005190	0.003762	-0.070789	-0.027444	0.997114	-0.592095	0.805624	-0.019861	-0.802753	-0.591792	-0.073278
20553	9.761995	-0.193920	-0.783089	0.012779	0.002171	0.003070	-0.070654	-0.027466	0.997123	-0.592135	0.805597	-0.019768	-0.802736	-0.591827	-0.073182
20554	9.712203	-0.135605	-0.705852	0.012577	-0.005644	0.004543	-0.070688	-0.027482	0.997120	-0.592233	0.805524	-0.019783	-0.802660	-0.591925	-0.073216
20555	9.710115	-0.103208	-0.717166	0.006392	-0.005562	0.001047	-0.070693	-0.027550	0.997118	-0.592225	0.805531	-0.019730	-0.802665	-0.591913	-0.073261
20556	9.703128	-0.115689	-0.697793	0.008025	-0.009290	0.007320	-0.070772	-0.027566	0.997112	-0.592285	0.805486	-0.019770	-0.802614	-0.591973	-0.073332
20557	9.739374	-0.118905	-0.657961	0.004757	-0.008367	0.005754	-0.070800	-0.027598	0.997109	-0.592221	0.805533	-0.019755	-0.802659	-0.591908	-0.073376
20558	9.735623	-0.165581	-0.687762	0.004262	-0.010318	0.004033	-0.070868	-0.027646	0.997102	-0.592253	0.805510	-0.019760	-0.802630	-0.591937	-0.073459
20559	9.733518	-0.133150	-0.699368	0.008814	-0.006673	0.001254	-0.070919	-0.027754	0.997096	-0.592354	0.805436	-0.019713	-0.802550	-0.592032	-0.073561
20560	9.720798	-0.158793	-0.719791	0.008290	-0.010674	0.001312	-0.070974	-0.027826	0.997090	-0.592420	0.805388	-0.019693	-0.802497	-0.592094	-0.073646
20561	9.743513	-0.155770	-0.770510	0.007386	-0.014959	0.003513	-0.070979	-0.027942	0.997086	-0.592391	0.805412	-0.019600	-0.802518	-0.592056	-0.073720
20562	9.723829	-0.193590	-0.771172	0.006713	-0.009380	0.002460	-0.071030	-0.027998	0.997081	-0.592443	0.805374	-0.019590	-0.802475	-0.592106	-0.073793
20563	9.752297	-0.177276	-0.781897	0.001460	-0.009494	0.005968	-0.071098	-0.028051	0.997075	-0.592408	0.805400	-0.019584	-0.802495	-0.592067	-0.073880
20564	9.696775	-0.132317	-0.745234	0.009486	-0.012256	0.002303	-0.071171	-0.028125	0.997068	-0.592483	0.805345	-0.019575	-0.802433	-0.592138	-0.073980
20565	9.748901	-0.143950	-0.735169	0.009106	-0.012542	0.004446	-0.071253	-0.028176	0.997060	-0.592437	0.805379	-0.019578	-0.802460	-0.592090	-0.074078
20566	9.730898	-0.102900	-0.717689	0.003416	-0.010507	0.002675	-0.071314	-0.028236	0.997054	-0.592462	0.805360	-0.019568	-0.802435	-0.592113	-0.074162
20567	9.739775	-0.123976	-0.727996	0.004262	-0.010322	0.004032	-0.071431	-0.028312	0.997044	-0.592498	0.805334	-0.019580	-0.802399	-0.592145	-0.074301
20568	9.732788	-0.136475	-0.708826	0.008405	-0.009012	0.005172	-0.071495	-0.028343	0.997038	-0.592562	0.805286	-0.019599	-0.802346	-0.592208	-0.074369
20569	9.705308	-0.155106	-0.759587	0.010010	-0.008259	0.002242	-0.071494	-0.028421	0.997036	-0.592571	0.805281	-0.019537	-0.802339	-0.592212	-0.074414
20570	9.724811	-0.117983	-0.761250	0.007384	-0.014966	0.003510	-0.071596	-0.028501	0.997026	-0.592628	0.805239	-0.019538	-0.802288	-0.592265	-0.074542
20571	9.764235	-0.155156	-0.770937	0.002161	-0.013029	0.005241	-0.071695	-0.028587	0.997017	-0.592595	0.805264	-0.019525	-0.802304	-0.592227	-0.074673
20572	9.766179	-0.188324	-0.761291	0.002190	-0.010979	0.003461	-0.071764	-0.028643	0.997010	-0.592610	0.805253	-0.019521	-0.802286	-0.592239	-0.074763
20573	9.717615	-0.131272	-0.744691	0.004262	-0.010325	0.004030	-0.071941	-0.028716	0.996995	-0.592682	0.805198	-0.019575	-0.802217	-0.592310	-0.074946
20574	9.746073	-0.114776	-0.755633	-0.012168	-0.011847	0.001558	-0.072007	-0.028794	0.996988	-0.592584	0.805272	-0.019542	-0.802284	-0.592206	-0.075047
20575	9.739092	-0.126778	-0.736589	-0.022731	-0.009638	0.001158	-0.072002	-0.028875	0.996986	-0.592301	0.805482	-0.019447	-0.802493	-0.591916	-0.075099
20576	9.754851	-0.135599	-0.767007	-0.018616	-0.010381	0.004075	-0.072070	-0.028924	0.996980	-0.592148	0.805595	-0.019434	-0.802600	-0.591761	-0.075187
20577	9.739883	-0.158629	-0.668250	-0.012953	-0.014471	0.007620	-0.072191	-0.029022	0.996968	-0.592049	0.805668	-0.019418	-0.802662	-0.591656	-0.075344
20578	9.788340	-0.186840	-0.817507	-0.021794	-0.009842	0.008155	-0.072280	-0.029034	0.996962	-0.591868	0.805800	-0.019443	-0.802788	-0.591475	-0.075427
20579	9.722904	-0.119727	-0.711686	0.009483	-0.012266	0.002290	-0.072371	-0.029174	0.996951	-0.591998	0.805706	-0.019397	-0.802684	-0.591597	-0.075581
20580	9.748630	-0.150843	-0.811283	0.004639	-0.010044	0.001881	-0.072424	-0.029238	0.996945	-0.592034	0.805680	-0.019380	-0.802653	-0.591629	-0.075661
20581	9.732739	-0.142464	-0.782675	-0.002157	-0.006810	0.004766	-0.072443	-0.029295	0.996942	-0.591975	0.805724	-0.019340	-0.802694	-0.591566	-0.075710
20582	9.705171	-0.161040	-0.833416	-0.001458	-0.010343	0.004037	-0.072511	-0.029343	0.996936	-0.591960	0.805735	-0.019340	-0.802699	-0.591549	-0.075794
20583	9.757318	-0.172733	-0.823240	0.000614	-0.009689	0.004605	-0.072627	-0.029375	0.996927	-0.591860	0.805808	-0.019374	-0.802762	-0.591448	-0.075909
20584	9.726654	-0.157143	-0.825048	-0.007527	-0.008591	0.004415	-0.072683	-0.029410	0.996921	-0.591796	0.805855	-0.019373	-0.802804	-0.591382	-0.075977
20585	9.735501	-0.178201	-0.835197	-0.006302	-0.008121	0.003628	-0.072749	-0.029489	0.996914	-0.591757	0.805885	-0.019345	-0.802827	-0.591338	-0.076078
20586	9.716543	-0.135644	-0.757787	0.002538	-0.012753	0.003087	-0.072831	-0.029560	0.996906	-0.591774	0.805872	-0.019338	-0.802807	-0.591352	-0.076185
20587	9.737103	-0.099820	-0.819065	-0.002627	-0.006711	0.001266	-0.072874	-0.029651	0.996900	-0.591772	0.805874	-0.019290	-0.802804	-0.591344	-0.076274
20588	9.745970	-0.120579	-0.829002	-0.000178	-0.005771	-0.000308	-0.072880	-0.029708	0.996898	-0.591771	0.805876	-0.019247	-0.802805	-0.591338	-0.076313
20589	9.784411	-0.155905	-0.778215	-0.005049	-0.005599	0.001063	-0.072888	-0.029756	0.996896	-0.591632	0.805980	-0.019200	-0.802907	-0.591195	-0.076351
20590	9.743097	-0.198128	-0.788272	-0.000876	-0.002237	0.000422	-0.072870	-0.029786	0.996897	-0.591624	0.805986	-0.019164	-0.802914	-0.591184	-0.076354
20591	9.690816	-0.186918	-0.799850	0.006739	-0.007340	0.000667	-0.072838	-0.029869	0.996896	-0.591591	0.806012	-0.019075	-0.802941	-0.591144	-0.076378
20592	9.735094	-0.179178	-0.839719	0.011383	-0.004079	0.003525	-0.072853	-0.029884	0.996895	-0.591679	0.805948	-0.019079	-0.802875	-0.591232	-0.076397
20593	9.723089	-0.124627	-0.781905	0.014531	-0.006674	0.001220	-0.072863	-0.029965	0.996892	-0.591754	0.805894	-0.019027	-0.802819	-0.591301	-0.076452
20594	9.757465	-0.094647	-0.752587	0.003619	-0.002695	0.001194	-0.072853	-0.029992	0.996892	-0.591782	0.805874	-0.019002	-0.802799	-0.591327	-0.076459
20595	9.714134	-0.104190	-0.773039	-0.003996	0.002410	0.000949	-0.072775	-0.029999	0.996897	-0.591639	0.805981	-0.018937	-0.802912	-0.591181	-0.076403
20596	9.745704	-0.121607	-0.831982	-0.005021	-0.003547	-0.000714	-0.072760	-0.030046	0.996897	-0.591598	0.806012	-0.018886	-0.802943	-0.591136	-0.076420
20597	9.753610	-0.140686	-0.781732	-0.007416	-0.000382	-0.002696	-0.072771	-0.030131	0.996893	-0.591591	0.806018	-0.018823	-0.802947	-0.591123	-0.076480
20598	9.729953	-0.142112	-0.672550	-0.019354	-0.002360	-0.004385	-0.072725	-0.030201	0.996895	-0.591438	0.806133	-0.018725	-0.803064	-0.590963	-0.076488
20599	9.801645	-0.033260	-0.524003	-0.041595	0.009798	-0.011492	-0.072529	-0.030315	0.996906	-0.591135	0.806361	-0.018487	-0.803305	-0.590647	-0.076404
20600	9.715095	-0.020150	-0.693041	-0.092903	0.035274	-0.021045	-0.072082	-0.030297	0.996938	-0.590403	0.806904	-0.018167	-0.803883	-0.589905	-0.076051
20601	9.569985	0.154550	-0.636381	-0.093837	0.028896	-0.017089	-0.071705	-0.030285	0.996966	-0.589549	0.807535	-0.017871	-0.804544	-0.589042	-0.075759
20602	9.656374	-0.016352	-0.678547	-0.147008	0.021749	-0.008756	-0.071439	-0.030249	0.996986	-0.588371	0.808399	-0.017633	-0.805429	-0.587857	-0.075549
20603	9.619015	-0.314001	-0.751558	-0.158191	0.013695	-0.003822	-0.071271	-0.030236	0.996999	-0.587020	0.809385	-0.017418	-0.806429	-0.586500	-0.075435
20604	9.796145	-0.501778	-0.864178	-0.093051	0.004984	-0.002279	-0.071179	-0.030246	0.997005	-0.586270	0.809931	-0.017285	-0.806983	-0.585744	-0.075382
20605	9.847451	-0.480555	-0.923239	-0.039493	0.005869	-0.001772	-0.071089	-0.030257	0.997011	-0.585890	0.810208	-0.017187	-0.807266	-0.585361	-0.075324
20606	9.749814	-0.172876	-0.740333	-0.014279	0.005275	-0.007235	-0.070965	-0.030306	0.997018	-0.585779	0.810291	-0.017064	-0.807358	-0.585243	-0.075255
20607	9.749273	0.051151	-0.722171	-0.053800	0.035675	-0.005192	-0.070567	-0.030173	0.997051	-0.585256	0.810673	-0.016889	-0.807772	-0.584722	-0.074865
20608	9.572444	-0.048671	-1.168197	-0.119132	0.051776	-0.006113	-0.070074	-0.029941	0.997092	-0.584296	0.811369	-0.016699	-0.808509	-0.583768	-0.074350
20609	9.630977	-0.041201	-0.305788	-0.135629	0.032738	-0.006147	-0.069794	-0.029829	0.997115	-0.583151	0.812196	-0.016521	-0.809360	-0.582621	-0.074081
20610	9.630499	-0.183995	-0.926893	-0.223199	0.076141	-0.014993	-0.069051	-0.029529	0.997176	-0.581351	0.813492	-0.016167	-0.810717	-0.580826	-0.073339
20611	9.545096	-0.310852	-0.970619	-0.178898	0.065937	-0.011057	-0.068470	-0.029299	0.997223	-0.579952	0.814496	-0.015890	-0.811768	-0.579429	-0.072761
20612	9.507931	-0.400601	-0.618822	-0.202632	0.005704	-0.005850	-0.068352	-0.029335	0.997230	-0.578308	0.815668	-0.015644	-0.812950	-0.577776	-0.072717
20613	9.630609	-0.239609	-0.659761	-0.258432	-0.039781	-0.012564	-0.068540	-0.029718	0.997206	-0.576169	0.817188	-0.015248	-0.814452	-0.575604	-0.073133
20614	9.689353	-0.138473	-1.001973	-0.192403	-0.032776	-0.010211	-0.068710	-0.030011	0.997185	-0.574606	0.818293	-0.014965	-0.815541	-0.574017	-0.073470
20615	9.724395	0.083677	-0.946316	-0.178976	-0.051610	-0.005498	-0.069124	-0.030397	0.997145	-0.573145	0.819321	-0.014755	-0.816533	-0.572529	-0.074057
20616	9.805331	0.013014	-1.089090	-0.175311	-0.050258	-0.007886	-0.069452	-0.030771	0.997111	-0.571717	0.820323	-0.014506	-0.817506	-0.571072	-0.074565
20617	9.807952	-0.017564	-1.143950	-0.143454	-0.053022	-0.004543	-0.069818	-0.031153	0.997073	-0.570474	0.821191	-0.014289	-0.818343	-0.569802	-0.075106
20618	9.889775	0.068124	-1.127343	-0.124446	-0.048848	0.000323	-0.070182	-0.031450	0.997038	-0.569453	0.821902	-0.014158	-0.819022	-0.568760	-0.075592
20619	9.858677	0.118887	-1.261677	-0.114028	-0.041415	-0.000267	-0.070422	-0.031734	0.997012	-0.568401	0.822633	-0.013965	-0.819732	-0.567686	-0.075969
20620	9.845188	0.239538	-1.403545	-0.041937	-0.013306	0.007672	-0.070537	-0.031768	0.997003	-0.568050	0.822875	-0.013969	-0.819966	-0.567333	-0.076089
20621	9.954116	0.072023	-1.503241	-0.059631	-0.010940	0.019677	-0.070668	-0.031709	0.996996	-0.567418	0.823310	-0.014034	-0.820392	-0.566705	-0.076174
20622	9.912925	0.028612	-1.513968	-0.079553	0.013639	0.031294	-0.070695	-0.031396	0.997004	-0.566741	0.823773	-0.014245	-0.820857	-0.566050	-0.076031
20623	10.007473	-0.200119	-1.381672	-0.077444	0.036239	0.043359	-0.070609	-0.030904	0.997025	-0.566051	0.824242	-0.014539	-0.821341	-0.565394	-0.075693
20624	9.967842	-0.279592	-1.317680	-0.045823	0.074730	0.056314	-0.070276	-0.030040	0.997075	-0.565633	0.824520	-0.015026	-0.821657	-0.565035	-0.074935
20625	9.804448	-0.219139	-1.053140	-0.020871	0.086855	0.059896	-0.069879	-0.029118	0.997130	-0.565376	0.824687	-0.015539	-0.821868	-0.564839	-0.074091
20626	9.828886	-0.254466	-1.023860	0.047147	0.097741	0.072982	-0.069451	-0.027986	0.997193	-0.565710	0.824444	-0.016262	-0.821674	-0.565251	-0.073090
20627	9.883839	-0.152337	-0.772049	0.094156	0.116467	0.087348	-0.069011	-0.026630	0.997260	-0.566296	0.824023	-0.017184	-0.821308	-0.565930	-0.071946
20628	10.002247	0.028414	-0.625836	0.140906	0.143085	0.096835	-0.068347	-0.025043	0.997347	-0.567384	0.823252	-0.018210	-0.820612	-0.567123	-0.070476
20629	10.024047	0.210579	-0.449280	0.170346	0.174370	0.114345	-0.067482	-0.023182	0.997451	-0.568633	0.822364	-0.019358	-0.819819	-0.568490	-0.068677
20630	9.925169	0.345374	-0.343804	0.168522	0.192003	0.120773	-0.066559	-0.021119	0.997559	-0.569930	0.821434	-0.020636	-0.818993	-0.569913	-0.066710
20631	9.817436	0.500615	-0.228193	0.152061	0.198813	0.128276	-0.065572	-0.019019	0.997667	-0.571052	0.820622	-0.021889	-0.818291	-0.571154	-0.064671
20632	9.698455	0.552373	-0.273635	0.099599	0.180226	0.134456	-0.064828	-0.016908	0.997753	-0.571776	0.820080	-0.023254	-0.817844	-0.571999	-0.062831
20633	9.596963	0.451356	-0.350616	0.064847	0.154675	0.137903	-0.064378	-0.014937	0.997814	-0.572152	0.819777	-0.024643	-0.817617	-0.572488	-0.061322
20634	9.554671	0.140305	-0.298903	0.020505	0.110376	0.146044	-0.064273	-0.013130	0.997846	-0.572223	0.819683	-0.026073	-0.817576	-0.572666	-0.060197
20635	9.702767	-0.211902	-0.174054	0.034914	0.085351	0.161010	-0.064429	-0.011391	0.997857	-0.572331	0.819558	-0.027598	-0.817488	-0.572883	-0.059323
20636	9.729613	-0.309755	0.033969	0.096339	0.063454	0.168259	-0.064836	-0.009671	0.997849	-0.573007	0.819027	-0.029293	-0.816982	-0.573673	-0.058644
20637	9.667551	-0.279801	0.256331	0.134250	0.037911	0.169692	-0.065442	-0.008078	0.997824	-0.573785	0.818419	-0.031006	-0.816387	-0.574566	-0.058194
20638	9.660253	-0.038516	0.506119	0.159020	0.000354	0.171096	-0.066384	-0.006699	0.997772	-0.574967	0.817520	-0.032765	-0.815479	-0.575861	-0.058122
20639	9.663116	0.070630	0.673516	0.154281	-0.028304	0.175463	-0.067551	-0.005479	0.997701	-0.576000	0.816721	-0.034514	-0.814654	-0.577007	-0.058326
20640	9.773361	0.074215	0.663335	0.137658	-0.048163	0.186445	-0.068979	-0.004257	0.997609	-0.576990	0.815939	-0.036414	-0.813833	-0.578123	-0.058739
20641	9.740673	-0.070497	0.718578	0.160158	-0.049218	0.194290	-0.070411	-0.003010	0.997513	-0.578060	0.815093	-0.038344	-0.812951	-0.579322	-0.059132
20642	9.668675	-0.112317	0.700809	0.209507	-0.071058	0.192264	-0.072063	-0.001878	0.997398	-0.579622	0.813886	-0.040345	-0.811693	-0.581021	-0.059740
20643	9.656053	-0.154059	0.671515	0.263923	-0.127358	0.189638	-0.074127	-0.001122	0.997248	-0.581533	0.812422	-0.042312	-0.810138	-0.583069	-0.060875
20644	9.545008	-0.187960	0.723131	0.337686	-0.195932	0.178886	-0.076716	-0.000838	0.997053	-0.584127	0.810454	-0.044263	-0.808028	-0.585801	-0.062664
20645	9.265522	-0.042262	1.048917	0.399033	-0.277063	0.175079	-0.079858	-0.001087	0.996806	-0.587098	0.808199	-0.046154	-0.805568	-0.588908	-0.065180
20646	9.191920	-0.054713	1.465282	0.396714	-0.386004	0.188045	-0.084031	-0.001870	0.996461	-0.590131	0.805864	-0.048253	-0.802922	-0.592098	-0.068821
20647	9.135937	-0.249172	1.918411	0.420075	-0.485364	0.201812	-0.089099	-0.003161	0.996018	-0.593295	0.803398	-0.050524	-0.800039	-0.595434	-0.073458
20648	8.978639	0.079225	2.504408	0.408684	-0.592562	0.194259	-0.094948	-0.005162	0.995469	-0.596377	0.800971	-0.052729	-0.797069	-0.598681	-0.079129
20649	8.993493	0.263238	2.847394	0.291889	-0.707083	0.193969	-0.101718	-0.007881	0.994782	-0.598508	0.799236	-0.054867	-0.794633	-0.600966	-0.086013
20650	8.998625	0.334582	2.963886	0.157698	-0.828754	0.187985	-0.109383	-0.011385	0.993935	-0.599559	0.798310	-0.056837	-0.792821	-0.602139	-0.094147
20651	9.057909	0.315721	3.182001	0.015909	-0.964442	0.176648	-0.118040	-0.015812	0.992883	-0.599509	0.798223	-0.058561	-0.791616	-0.602155	-0.103701
20652	8.982945	0.215245	3.124326	-0.123847	-1.088402	0.180228	-0.127693	-0.020941	0.991593	-0.598306	0.799005	-0.060174	-0.791027	-0.600960	-0.114556
20653	9.007646	-0.069339	3.159764	-0.223846	-1.248059	0.187471	-0.138621	-0.026947	0.989979	-0.596316	0.800374	-0.061713	-0.790691	-0.598895	-0.127017
20654	9.424110	-0.471007	2.858178	-0.277491	-1.383632	0.192622	-0.150666	-0.033693	0.988010	-0.593843	0.802094	-0.063205	-0.790348	-0.596246	-0.140857
20655	9.613299	-0.467261	2.521090	-0.272176	-1.501063	0.199311	-0.163677	-0.041007	0.985661	-0.591412	0.803764	-0.064769	-0.789583	-0.593533	-0.155810
20656	10.006003	-0.491405	1.893953	-0.299199	-1.601339	0.206755	-0.177495	-0.048844	0.982909	-0.588699	0.805631	-0.066273	-0.788624	-0.590401	-0.171750
20657	10.288637	-0.586429	1.097103	-0.268350	-1.663780	0.216147	-0.191819	-0.056893	0.979780	-0.586258	0.807274	-0.067900	-0.787087	-0.587429	-0.188205
20658	11.129779	-0.599731	0.610043	-0.236871	-1.748322	0.235565	-0.206902	-0.065255	0.976183	-0.583929	0.808808	-0.069697	-0.784996	-0.584442	-0.205449
20659	12.058815	-0.336542	0.039382	-0.152107	-1.771129	0.248644	-0.222228	-0.073635	0.972210	-0.582414	0.809715	-0.071800	-0.781926	-0.582185	-0.222827
20660	13.251658	0.138827	0.403731	-0.108471	-1.843054	0.270641	-0.238143	-0.082173	0.967748	-0.580949	0.810557	-0.074134	-0.778323	-0.579866	-0.240767
20661	14.857189	-2.338309	-0.328799	-0.209918	-1.852277	0.329941	-0.254476	-0.090260	0.962858	-0.578725	0.811894	-0.076844	-0.774803	-0.576785	-0.258843
20662	13.907363	-2.475953	0.966159	0.116603	-1.835893	0.339607	-0.270578	-0.098108	0.957686	-0.578739	0.811542	-0.080377	-0.769317	-0.575998	-0.276364
20663	12.769851	-2.555315	0.777253	0.345830	-1.796671	0.311073	-0.286123	-0.106033	0.952308	-0.580775	0.809683	-0.084343	-0.762125	-0.577209	-0.293250
20664	12.607694	-0.864417	-0.714076	0.398234	-1.843195	0.288111	-0.301739	-0.114375	0.946505	-0.582954	0.807699	-0.088240	-0.754399	-0.578395	-0.310390
20665	12.569160	0.170309	-2.233192	0.250982	-1.783800	0.275746	-0.316733	-0.122575	0.940561	-0.584270	0.806366	-0.091666	-0.747201	-0.578575	-0.327019
20666	12.283863	0.448207	-3.445635	0.124490	-1.669461	0.261958	-0.330650	-0.130134	0.934738	-0.584357	0.805976	-0.094500	-0.741079	-0.577467	-0.342541
20667	11.708571	0.344319	-4.418643	0.064121	-1.545711	0.229212	-0.343442	-0.137265	0.929089	-0.584290	0.805734	-0.096945	-0.735291	-0.576152	-0.356926
20668	11.209741	0.103682	-5.040635	0.078627	-1.403297	0.161392	-0.354630	-0.144062	0.923842	-0.584312	0.805506	-0.098687	-0.729943	-0.574809	-0.369834
20669	10.157560	0.296540	-5.248724	0.138288	-1.250418	0.052825	-0.364111	-0.150991	0.919035	-0.585412	0.804576	-0.099747	-0.724373	-0.574333	-0.381347
20670	9.732993	-0.013133	-5.544365	0.009132	-1.051812	-0.069756	-0.371265	-0.157606	0.915053	-0.585745	0.804413	-0.099105	-0.720461	-0.572782	-0.390968
20671	9.083278	-0.113094	-6.217874	0.014463	-0.919786	-0.172433	-0.376899	-0.164315	0.911564	-0.586642	0.803939	-0.097641	-0.716797	-0.571562	-0.399397
20672	8.809051	-0.020997	-6.675906	0.043220	-0.797624	-0.227604	-0.381231	-0.170720	0.908580	-0.587825	0.803307	-0.095706	-0.713530	-0.570572	-0.406599
20673	8.701349	0.063963	-6.187989	-0.062948	-0.746153	-0.258467	-0.385114	-0.177184	0.905701	-0.588538	0.803086	-0.093144	-0.710852	-0.568910	-0.413559
20674	8.796643	-0.478231	-6.069196	-0.036870	-0.480468	-0.278455	-0.386850	-0.182172	0.903969	-0.589363	0.802791	-0.090433	-0.709224	-0.567750	-0.417925
20675	7.543055	-1.312182	-5.292105	0.015385	-0.232364	-0.263051	-0.387055	-0.185638	0.903176	-0.590539	0.802175	-0.088197	-0.708133	-0.567498	-0.420112
20676	6.330246	-1.802974	-5.108408	0.093372	-0.144818	-0.264389	-0.386481	-0.188601	0.902808	-0.592234	0.801146	-0.086165	-0.707030	-0.567975	-0.421324
20677	6.864918	-1.287479	-3.933912	0.404803	-0.056158	-0.249737	-0.385435	-0.190975	0.902756	-0.596146	0.798295	-0.085650	-0.704309	-0.571187	-0.421539
20678	7.842242	0.095050	-2.273362	0.367606	0.260972	-0.250086	-0.382068	-0.191494	0.904076	-0.599704	0.795706	-0.084899	-0.703121	-0.574615	-0.418854
20679	8.399189	0.505517	-1.729881	0.075436	0.654655	-0.254490	-0.375961	-0.189841	0.906981	-0.601308	0.794703	-0.082914	-0.705040	-0.576547	-0.412930
20680	8.024228	1.071529	-2.100635	-0.240542	0.980828	-0.301511	-0.367174	-0.186605	0.911242	-0.600738	0.795518	-0.079153	-0.710139	-0.576481	-0.404194
20681	7.750734	0.614792	-2.571997	-0.585083	1.237686	-0.376582	-0.356164	-0.182636	0.916401	-0.598076	0.798072	-0.073392	-0.717950	-0.574217	-0.393475
20682	7.712790	-0.470906	-2.732794	-0.796392	1.483096	-0.428474	-0.342854	-0.177596	0.922448	-0.593827	0.801854	-0.066334	-0.727888	-0.570517	-0.380380
20683	7.913385	-1.473136	-2.731149	-0.791312	1.725011	-0.432217	-0.327729	-0.171331	0.929107	-0.589535	0.805556	-0.059402	-0.738270	-0.567209	-0.365010
20684	8.227616	-2.017767	-2.684565	-0.665452	1.958212	-0.411606	-0.310719	-0.163588	0.936319	-0.585911	0.808630	-0.053157	-0.748440	-0.565117	-0.347104
20685	8.265541	-2.106693	-2.546611	-0.477635	2.193587	-0.376414	-0.291975	-0.154312	0.943895	-0.583515	0.810685	-0.047964	-0.757800	-0.564781	-0.326743
20686	8.119333	-1.932970	-2.562534	-0.334358	2.421233	-0.318663	-0.271628	-0.143234	0.951684	-0.581872	0.812097	-0.043852	-0.766579	-0.565670	-0.303932
20687	8.071208	-1.631375	-2.505568	-0.240956	2.611507	-0.252001	-0.249923	-0.130524	0.959428	-0.580735	0.813076	-0.040663	-0.774781	-0.567336	-0.279006
20688	8.296414	-1.495338	-2.683811	-0.194113	2.792321	-0.174702	-0.227131	-0.116098	0.966919	-0.579646	0.813962	-0.038427	-0.782574	-0.569199	-0.252171
20689	8.612098	-0.931833	-2.628179	-0.200022	2.979305	-0.134355	-0.202825	-0.100123	0.974083	-0.578362	0.814956	-0.036660	-0.790164	-0.570808	-0.223201
20690	9.038637	-0.928349	-2.556656	-0.257430	3.145950	-0.081765	-0.177340	-0.082841	0.980657	-0.576478	0.816351	-0.035288	-0.797636	-0.571585	-0.192528
20691	9.203624	-1.132875	-2.404357	-0.288302	3.268296	-0.020415	-0.150895	-0.064299	0.986456	-0.574257	0.817947	-0.034527	-0.804649	-0.571690	-0.160349
20692	9.409719	-1.312416	-2.149016	-0.254725	3.325534	0.003730	-0.124020	-0.045282	0.991246	-0.572197	0.819404	-0.034159	-0.810685	-0.571424	-0.127533
20693	9.787044	-1.418048	-2.068684	-0.116941	3.399671	0.006070	-0.096253	-0.025714	0.995025	-0.571248	0.820070	-0.034067	-0.815114	-0.571685	-0.093623
20694	9.771821	-1.454600	-1.663159	0.044937	3.475246	0.004775	-0.067870	-0.005811	0.997677	-0.571612	0.819815	-0.034110	-0.817712	-0.572599	-0.058962
20695	9.799361	-1.237081	-1.194881	0.112687	3.440161	0.000159	-0.039560	0.013956	0.999120	-0.572574	0.819143	-0.034113	-0.818898	-0.573419	-0.024415
20696	9.848195	-0.784463	-1.084444	0.140222	3.461263	-0.008792	-0.011126	0.033717	0.999369	-0.573723	0.818344	-0.033997	-0.818974	-0.573739	0.010239
20697	9.876854	-0.371747	-0.636836	0.094741	3.390379	-0.007661	0.016818	0.053181	0.998443	-0.574521	0.817788	-0.033881	-0.818317	-0.573057	0.044307
20698	10.164289	-0.241728	-0.172437	0.043874	3.324277	0.023005	0.043906	0.072370	0.996411	-0.574883	0.817527	-0.034046	-0.817057	-0.571325	0.077498
20699	10.331430	0.092891	0.386207	-0.071596	3.282390	0.045628	0.070661	0.091582	0.993287	-0.574302	0.817914	-0.034557	-0.815588	-0.568005	0.110390
20700	10.172709	-1.066569	-0.743134	-0.099011	3.265332	0.063868	0.096929	0.110565	0.989131	-0.573543	0.818415	-0.035278	-0.813420	-0.563890	0.142741
20701	9.526486	0.529124	3.100111	-0.191575	3.102906	0.087161	0.121896	0.128788	0.984152	-0.572095	0.819381	-0.036367	-0.811079	-0.558595	0.173558
20702	10.216497	-1.791398	0.462046	-0.159251	2.939178	0.059432	0.145388	0.145594	0.978603	-0.570877	0.820192	-0.037213	-0.808060	-0.553252	0.202362
20703	9.624911	-0.171952	0.845291	-0.359235	2.865520	0.038261	0.168508	0.161763	0.972336	-0.568055	0.822098	-0.038323	-0.805555	-0.545883	0.230421
20704	9.191378	-0.913889	0.669926	-0.303782	2.704759	0.018296	0.190187	0.176562	0.965741	-0.565636	0.823722	-0.039204	-0.802424	-0.538802	0.256531
20705	8.759443	-1.378248	0.651846	-0.217381	2.537101	0.027034	0.210510	0.190439	0.958863	-0.564013	0.824797	-0.039988	-0.798483	-0.532394	0.281038
20706	8.188797	-1.744288	1.527928	0.072584	2.310283	0.044663	0.228678	0.203040	0.952093	-0.564679	0.824333	-0.040168	-0.792997	-0.528441	0.303159
20707	7.550477	-1.776906	1.362884	0.396058	2.096260	0.044060	0.245065	0.214532	0.945473	-0.567960	0.822116	-0.039328	-0.785726	-0.527353	0.323317
20708	7.694178	-0.960616	1.752413	0.462742	1.831702	-0.038604	0.259646	0.223851	0.939401	-0.571470	0.819771	-0.037393	-0.778464	-0.527131	0.340774
20709	7.061200	-0.926328	1.711671	0.450307	1.641599	-0.083427	0.272899	0.231874	0.933681	-0.574782	0.817556	-0.035036	-0.771461	-0.527102	0.356387
20710	6.574487	-0.327934	2.355452	0.565429	1.332170	-0.100491	0.283744	0.238064	0.928878	-0.578832	0.814818	-0.032015	-0.764489	-0.528580	0.368999
20711	6.396076	-0.430372	1.852688	0.564694	0.973043	-0.153868	0.292096	0.242020	0.925260	-0.582735	0.812163	-0.028473	-0.758353	-0.530865	0.378263
20712	6.554429	0.271950	2.403704	0.625975	0.693505	-0.203629	0.298561	0.244041	0.922662	-0.586850	0.809335	-0.024169	-0.752641	-0.534248	0.384851
20713	6.435370	0.380708	2.310565	0.563767	0.350189	-0.232672	0.302603	0.244086	0.921332	-0.590422	0.806851	-0.019837	-0.748220	-0.537972	0.388270
20714	6.417084	0.565798	2.355063	0.494176	0.035710	-0.235371	0.304299	0.242361	0.921229	-0.593385	0.804765	-0.015716	-0.745182	-0.541862	0.388703
20715	5.968434	0.777041	2.111356	0.398687	-0.274750	-0.240919	0.303735	0.238972	0.922300	-0.595655	0.803151	-0.011937	-0.743599	-0.545747	0.386290
20716	5.503066	0.597917	1.838494	0.317181	-0.649219	-0.238711	0.300366	0.233480	0.924807	-0.597280	0.801988	-0.008483	-0.743664	-0.549821	0.380343
20717	7.152098	0.734593	2.561730	0.312960	-1.032377	-0.263874	0.294311	0.225698	0.928677	-0.598854	0.800844	-0.004845	-0.744819	-0.554716	0.370857
20718	8.152918	1.004781	4.354459	0.233899	-1.198928	-0.280033	0.287082	0.216758	0.933059	-0.599772	0.800170	-0.001350	-0.746898	-0.559235	0.359720
20719	9.395820	0.573706	4.688654	-0.242102	-1.154397	-0.250230	0.279983	0.208323	0.937129	-0.597274	0.802037	0.000153	-0.751580	-0.559766	0.348982
20720	10.708186	-0.641356	6.804502	-0.418322	-0.934831	-0.233331	0.274358	0.201202	0.940343	-0.593461	0.804862	0.000936	-0.756658	-0.558314	0.340226
20721	11.247873	-1.204792	8.063622	-0.667040	-0.643265	-0.223411	0.270846	0.195859	0.942487	-0.587819	0.808992	0.000807	-0.762306	-0.554231	0.334241
20722	10.235640	-0.609060	7.754764	-0.536346	-0.424757	-0.229412	0.268977	0.191632	0.943890	-0.583088	0.812408	0.001223	-0.766589	-0.550700	0.330257
20723	8.225896	-0.168408	6.189022	-0.792201	-0.595748	-0.274882	0.266040	0.186194	0.945809	-0.576316	0.817226	0.001227	-0.772711	-0.545411	0.324721
20724	8.661664	-1.021413	4.934239	-1.107524	-0.862809	-0.263932	0.260880	0.179334	0.948568	-0.567003	0.823716	0.000211	-0.781312	-0.537896	0.316573
20725	11.031724	-1.743382	4.967009	-1.118748	-1.133751	-0.242669	0.253389	0.171344	0.952069	-0.557652	0.830074	-0.000972	-0.790454	-0.530677	0.305882
20726	12.919536	-3.042649	4.300752	-1.150548	-1.215750	-0.242541	0.245097	0.162895	0.955716	-0.547889	0.836549	-0.002076	-0.799841	-0.523117	0.294284
20727	12.624419	-3.845953	3.786171	-0.854782	-1.248026	-0.253226	0.236500	0.154366	0.959291	-0.540493	0.841346	-0.002135	-0.807425	-0.517985	0.282413
20728	11.338730	-3.579931	3.306655	-0.628067	-1.389805	-0.258440	0.226657	0.144988	0.963123	-0.534793	0.844982	-0.001348	-0.814017	-0.514766	0.269060
20729	10.448995	-3.049349	3.586232	-0.157455	-1.589695	-0.301411	0.215341	0.134361	0.967251	-0.532947	0.846148	0.001112	-0.818289	-0.515733	0.253818
20730	10.150082	1.040184	3.124453	0.324123	-1.770619	-0.399376	0.203001	0.121786	0.971575	-0.534758	0.844985	0.005814	-0.820259	-0.520738	0.236659
20731	9.989309	5.683519	2.301051	0.394948	-1.966422	-0.557990	0.189895	0.106896	0.975968	-0.537015	0.843486	0.012102	-0.821921	-0.526408	0.217579
20732	9.988287	8.634430	-0.280774	-0.382022	-2.050434	-0.703458	0.176779	0.090150	0.980113	-0.532567	0.846192	0.018225	-0.827721	-0.525198	0.197600
20733	9.732027	5.245162	-2.143548	-1.475480	-1.922183	-0.661664	0.164306	0.074601	0.983584	-0.519219	0.854360	0.021935	-0.838698	-0.514300	0.179110
20734	9.077213	0.271338	-3.594244	-1.546786	-1.765936	-0.537160	0.152186	0.060991	0.986468	-0.505306	0.862589	0.024623	-0.849415	-0.502216	0.162093
20735	9.540208	-1.961331	-4.560216	-0.830783	-1.661564	-0.460580	0.140393	0.048746	0.988895	-0.497595	0.866960	0.027908	-0.855972	-0.495988	0.145971
20736	9.362950	-2.140185	-4.748069	0.005522	-1.516108	-0.470719	0.129775	0.037117	0.990848	-0.497001	0.867137	0.032611	-0.857991	-0.496685	0.130980
20737	9.660328	-1.198417	-4.319243	0.470234	-1.457544	-0.506336	0.119848	0.025469	0.992466	-0.500419	0.864939	0.038234	-0.857448	-0.501231	0.116406
20738	10.548094	-0.754723	-3.437561	0.542117	-1.359018	-0.511012	0.110805	0.014187	0.993741	-0.504470	0.862310	0.043939	-0.856290	-0.506181	0.102705
20739	10.941147	-0.462240	-2.440985	0.440392	-1.251318	-0.470367	0.102527	0.003786	0.994723	-0.507763	0.860098	0.049062	-0.855374	-0.510114	0.090105
20740	11.356974	-0.171878	-2.037249	0.276810	-1.157611	-0.424475	0.094820	-0.005803	0.995478	-0.509708	0.858679	0.053556	-0.855107	-0.512481	0.078462
20741	10.788890	0.398279	-1.524205	0.065398	-0.983188	-0.403080	0.088507	-0.014302	0.995973	-0.509925	0.858285	0.057640	-0.855653	-0.512973	0.068671
20742	9.496365	0.755799	-1.205558	-0.152862	-0.907974	-0.396322	0.082783	-0.022378	0.996316	-0.508273	0.858995	0.061526	-0.857208	-0.511494	0.059736
20743	9.461425	1.341490	-1.156208	-0.314737	-0.936940	-0.395228	0.076784	-0.030564	0.996579	-0.505266	0.860488	0.065320	-0.859541	-0.508553	0.050628
20744	9.859341	1.514625	-1.009796	-0.483661	-0.901105	-0.382662	0.070984	-0.038446	0.996736	-0.500815	0.862804	0.068946	-0.862639	-0.504075	0.041990
20745	9.943949	0.611559	-0.823953	-0.489389	-0.847298	-0.350880	0.065446	-0.045758	0.996806	-0.496329	0.865119	0.072300	-0.865664	-0.499476	0.033908
20746	9.986382	-0.643042	-0.654109	-0.097027	-0.817617	-0.330128	0.060035	-0.052716	0.996803	-0.495279	0.865439	0.075598	-0.866657	-0.498234	0.025848
20747	10.004093	-0.427818	-0.138863	0.510177	-0.787758	-0.316401	0.054827	-0.059406	0.996727	-0.499524	0.862700	0.078895	-0.864563	-0.502215	0.017624
20748	9.670345	1.174906	0.077575	0.889632	-0.762370	-0.311303	0.049852	-0.065963	0.996576	-0.507032	0.858003	0.082154	-0.860484	-0.509392	0.009328
20749	9.617242	2.751385	0.295266	0.880568	-0.782644	-0.304761	0.044725	-0.072605	0.996357	-0.514445	0.853273	0.085271	-0.856356	-0.516385	0.000811
20750	9.730979	3.710800	0.198987	0.561648	-0.784287	-0.277431	0.039487	-0.079056	0.996088	-0.519129	0.850148	0.088053	-0.853783	-0.520575	-0.007470
20751	9.475561	3.115096	-0.012820	0.170198	-0.776518	-0.224224	0.034056	-0.085041	0.995795	-0.520479	0.849085	0.090313	-0.853195	-0.521366	-0.015345
20752	9.507197	2.210163	-0.153735	-0.060105	-0.832510	-0.181859	0.027932	-0.090942	0.995464	-0.519908	0.849235	0.092172	-0.853766	-0.520124	-0.023561
20753	9.810755	1.137945	-0.331322	-0.110301	-0.820043	-0.173383	0.021858	-0.096720	0.995072	-0.518885	0.849662	0.093984	-0.854565	-0.518382	-0.031614
20754	9.713865	0.671287	-0.879392	0.041890	-0.790248	-0.178048	0.016064	-0.102349	0.994619	-0.519207	0.849265	0.095777	-0.854497	-0.517952	-0.039497
20755	9.579613	1.068065	-1.084767	0.235168	-0.783492	-0.182917	0.010359	-0.108002	0.994097	-0.521176	0.847856	0.097545	-0.853386	-0.519110	-0.047506
20756	9.590843	1.651623	-1.352582	0.292833	-0.775010	-0.180907	0.004730	-0.113585	0.993517	-0.523658	0.846130	0.099228	-0.851915	-0.520733	-0.055477
20757	9.764497	2.185490	-1.260919	0.184159	-0.749780	-0.154792	-0.000802	-0.118840	0.992913	-0.525213	0.844990	0.100711	-0.850970	-0.521410	-0.063094
20758	9.912727	2.134455	-1.335799	0.019330	-0.709953	-0.118367	-0.006186	-0.123561	0.992318	-0.525381	0.844742	0.101910	-0.850845	-0.520715	-0.070142
20759	9.719808	1.878955	-1.562362	-0.112896	-0.673996	-0.099508	-0.011369	-0.127955	0.991715	-0.524401	0.845214	0.103041	-0.851395	-0.518885	-0.076709
20760	9.523387	1.371175	-1.629432	-0.158458	-0.652891	-0.089293	-0.016428	-0.132112	0.991099	-0.523064	0.845914	0.104089	-0.852135	-0.516698	-0.082999
20761	9.613647	0.979540	-1.716820	-0.125904	-0.641123	-0.080061	-0.021439	-0.136151	0.990456	-0.521974	0.846467	0.105059	-0.852692	-0.514740	-0.089215
20762	9.539602	0.918098	-1.720797	-0.031837	-0.617909	-0.074767	-0.026283	-0.139983	0.989805	-0.521720	0.846523	0.105865	-0.852712	-0.513619	-0.095281
20763	9.609610	1.306472	-1.594467	0.031935	-0.608815	-0.079551	-0.031030	-0.143839	0.989115	-0.521976	0.846261	0.106689	-0.852395	-0.512984	-0.101340
20764	9.748423	1.573754	-1.418004	0.047408	-0.586955	-0.063400	-0.035666	-0.147407	0.988433	-0.522402	0.845921	0.107303	-0.851953	-0.512532	-0.107176
20765	9.775649	1.694448	-1.627490	0.037597	-0.557833	-0.050549	-0.040129	-0.150752	0.987757	-0.522699	0.845670	0.107831	-0.851572	-0.511973	-0.112733
20766	9.630339	1.759398	-1.543195	-0.056209	-0.556849	-0.044386	-0.044604	-0.153996	0.987064	-0.522240	0.845885	0.108371	-0.851631	-0.510651	-0.118153
20767	9.749197	1.339900	-1.668605	-0.143636	-0.540361	-0.025065	-0.049048	-0.157022	0.986376	-0.521001	0.846586	0.108861	-0.852146	-0.508564	-0.123332
20768	9.765881	0.855581	-1.834281	-0.156463	-0.526656	-0.009215	-0.053454	-0.159794	0.985702	-0.519673	0.847360	0.109186	-0.852691	-0.506406	-0.128336
20769	9.719230	0.354549	-1.528589	-0.086105	-0.520772	-0.007886	-0.057829	-0.162557	0.985003	-0.518904	0.847797	0.109449	-0.852874	-0.504793	-0.133379
20770	9.622979	0.446404	-1.497462	0.081994	-0.515007	-0.013267	-0.062116	-0.165291	0.984287	-0.519613	0.847356	0.109505	-0.852141	-0.504646	-0.138522
20771	9.497837	0.967954	-1.364361	0.189943	-0.530698	-0.031826	-0.066451	-0.168297	0.983494	-0.521221	0.846353	0.109612	-0.850831	-0.505334	-0.143961
20772	9.600706	1.412029	-1.464803	0.219173	-0.553981	-0.044292	-0.070895	-0.171496	0.982631	-0.523116	0.845164	0.109762	-0.849308	-0.506248	-0.149630
20773	9.618814	1.611981	-1.459024	0.182317	-0.546066	-0.037242	-0.075311	-0.174636	0.981749	-0.524649	0.844193	0.109921	-0.847981	-0.506795	-0.155200
20774	9.543791	1.396700	-1.533249	0.176367	-0.545081	-0.025362	-0.079762	-0.177636	0.980859	-0.526164	0.843248	0.109928	-0.846634	-0.507325	-0.160725
20775	9.446212	1.184909	-1.483894	0.205736	-0.550478	-0.016169	-0.084315	-0.180628	0.979931	-0.527858	0.842202	0.109823	-0.845137	-0.508005	-0.166357
20776	9.550117	0.970194	-1.463658	0.267429	-0.602641	-0.007865	-0.089326	-0.183781	0.978900	-0.530125	0.840822	0.109483	-0.843201	-0.509159	-0.172534
20777	9.626607	0.895872	-1.195024	0.333565	-0.597884	-0.003479	-0.094314	-0.186921	0.977837	-0.532904	0.839125	0.109006	-0.840903	-0.510812	-0.178752
20778	9.059060	0.967487	-0.895448	0.425553	-0.611052	0.005499	-0.099438	-0.190026	0.976730	-0.536473	0.836950	0.108214	-0.838038	-0.513229	-0.185169
20779	9.265420	1.439127	-0.734793	0.383659	-0.652748	-0.008749	-0.104827	-0.193508	0.975482	-0.539683	0.834959	0.107637	-0.835317	-0.515168	-0.191959
20780	9.266976	1.797732	-0.964909	0.348089	-0.642167	-0.005944	-0.110116	-0.196893	0.974222	-0.542595	0.833145	0.107052	-0.832746	-0.516820	-0.198575
20781	9.112320	2.035414	-0.881739	0.155570	-0.675054	-0.010254	-0.115650	-0.200519	0.972840	-0.543880	0.832326	0.106901	-0.831156	-0.516745	-0.205317
20782	9.382868	1.351937	-0.942929	0.066860	-0.755671	0.012867	-0.121961	-0.204335	0.971274	-0.544423	0.832000	0.106672	-0.829897	-0.515774	-0.212716
20783	9.552419	1.263621	-1.232835	0.103122	-0.740135	0.015519	-0.128152	-0.208075	0.969681	-0.545248	0.831500	0.106365	-0.828421	-0.515086	-0.220011
20784	9.263928	1.143734	-1.240168	0.101387	-0.750898	0.010364	-0.134388	-0.211876	0.968013	-0.546077	0.830992	0.106074	-0.826886	-0.514354	-0.227376
20785	9.212638	1.189448	-1.224466	0.113367	-0.802107	0.010454	-0.141036	-0.215970	0.966160	-0.546975	0.830438	0.105787	-0.825183	-0.513546	-0.235252
20786	9.410985	1.056877	-1.430835	0.156132	-0.845371	0.019497	-0.148075	-0.220169	0.964157	-0.548238	0.829672	0.105261	-0.823109	-0.513001	-0.243559
20787	9.079753	1.183386	-1.273021	0.195854	-0.866126	0.016446	-0.155261	-0.224507	0.962024	-0.549818	0.828702	0.104658	-0.820728	-0.512689	-0.252103
20788	9.251214	1.434173	-1.522428	0.230048	-0.934756	0.039424	-0.163102	-0.228993	0.959667	-0.551645	0.827604	0.103725	-0.817977	-0.512477	-0.261307
20789	9.453021	1.392434	-1.503574	0.181029	-0.989193	0.050895	-0.171429	-0.233684	0.957081	-0.553047	0.826783	0.102810	-0.815323	-0.511686	-0.270972
20790	9.619394	1.236317	-1.630240	0.208746	-0.999964	0.066288	-0.179899	-0.238271	0.954392	-0.554634	0.825864	0.101637	-0.812414	-0.511054	-0.280726
20791	9.594644	1.031618	-1.154099	0.233699	-1.033259	0.079032	-0.188686	-0.242925	0.951517	-0.556364	0.824867	0.100264	-0.809232	-0.510472	-0.290796
20792	9.576489	0.920578	-1.443204	0.375856	-1.074641	0.087561	-0.197814	-0.247714	0.948424	-0.559235	0.823154	0.098355	-0.805063	-0.510936	-0.301361
20793	9.526476	1.075824	-1.264955	0.392721	-1.143294	0.082895	-0.207420	-0.252922	0.944991	-0.562235	0.821337	0.096420	-0.800543	-0.511308	-0.312563
20794	9.697326	0.945608	-1.366561	0.424465	-1.202790	0.082907	-0.217451	-0.258416	0.941242	-0.565453	0.819370	0.094322	-0.795599	-0.511718	-0.324295
20795	9.647777	0.692313	-1.236550	0.401003	-1.230077	0.090321	-0.227677	-0.264016	0.937261	-0.568435	0.817544	0.092210	-0.790597	-0.511778	-0.336212
20796	9.462613	0.609866	-1.171436	0.438982	-1.285516	0.099418	-0.238337	-0.269806	0.932952	-0.571670	0.815553	0.089813	-0.785105	-0.511935	-0.348616
20797	9.235225	0.824688	-1.496958	0.386920	-1.370473	0.105786	-0.249616	-0.275996	0.928180	-0.574432	0.813860	0.087521	-0.779564	-0.511329	-0.361694
20798	9.531715	1.206785	-1.589107	0.349657	-1.472276	0.111432	-0.261658	-0.282631	0.922852	-0.576871	0.812376	0.085236	-0.773793	-0.510063	-0.375606
20799	10.189901	1.385519	-1.699963	0.241601	-1.548078	0.125107	-0.274270	-0.289524	0.917034	-0.578426	0.811481	0.083201	-0.768245	-0.507617	-0.390033
20800	10.603168	0.492538	-2.239014	0.148470	-1.589988	0.142982	-0.287235	-0.296429	0.910838	-0.579170	0.811139	0.081339	-0.762927	-0.504167	-0.404670
20801	10.449513	0.345367	-1.903154	0.200494	-1.605152	0.131599	-0.300142	-0.303445	0.904343	-0.580328	0.810508	0.079354	-0.757056	-0.500998	-0.419365
20802	10.722047	0.736925	-1.904488	0.274522	-1.719825	0.139409	-0.313879	-0.310927	0.897109	-0.581979	0.809554	0.076960	-0.750187	-0.497942	-0.435055
20803	11.222368	0.375799	-1.873248	0.169124	-1.808273	0.152340	-0.328215	-0.318692	0.889219	-0.582798	0.809159	0.074885	-0.743385	-0.493657	-0.451311
20804	11.575340	-0.024027	-1.149373	0.182886	-1.877384	0.154415	-0.342968	-0.326689	0.880708	-0.583644	0.808748	0.072711	-0.736025	-0.489083	-0.468045
20805	11.783910	-0.324672	-0.622579	0.268106	-1.960922	0.148160	-0.358119	-0.335060	0.871485	-0.585142	0.807890	0.070157	-0.727571	-0.484818	-0.485378
20806	12.342250	-0.329074	-0.245787	0.340920	-2.089822	0.166448	-0.374164	-0.343824	0.861270	-0.587009	0.806798	0.067062	-0.717928	-0.480481	-0.503703
20807	13.276707	-0.147964	0.173482	0.309654	-2.185434	0.183115	-0.390743	-0.352789	0.850212	-0.588626	0.805879	0.063871	-0.707700	-0.475499	-0.522552
20808	14.159274	-0.625700	0.640810	0.314970	-2.304820	0.209193	-0.408126	-0.362020	0.838078	-0.590016	0.805125	0.060460	-0.696645	-0.469804	-0.542190
20809	15.067619	-0.927729	1.371003	0.223152	-2.374881	0.205843	-0.425664	-0.371453	0.825126	-0.590822	0.804751	0.057489	-0.685375	-0.463032	-0.562016
20810	15.771407	-1.441100	1.806116	0.287420	-2.402569	0.211040	-0.443199	-0.380821	0.811511	-0.591873	0.804210	0.054149	-0.673246	-0.456313	-0.581823
20811	15.888299	-1.848584	1.937235	0.534008	-2.438235	0.180187	-0.460384	-0.390437	0.797249	-0.594779	0.802365	0.049478	-0.659003	-0.451408	-0.601620
20812	16.324499	-0.813448	1.414622	0.813223	-2.364611	0.168348	-0.476751	-0.399751	0.782884	-0.599301	0.799357	0.043207	-0.643076	-0.448584	-0.620665
20813	15.775104	-0.233889	1.082236	1.051827	-2.305218	0.154592	-0.492135	-0.408843	0.768538	-0.605420	0.795123	0.035304	-0.625516	-0.447913	-0.638830
20814	14.557977	0.678055	-0.101654	1.301642	-2.190976	0.173740	-0.506659	-0.417315	0.754417	-0.612590	0.789987	0.025583	-0.606655	-0.449186	-0.655897
20815	13.121247	1.074629	-1.557242	1.409319	-2.207228	0.198099	-0.520849	-0.425682	0.739940	-0.620219	0.784293	0.014622	-0.586554	-0.451309	-0.672514
20816	11.200262	2.012534	-4.036548	1.609406	-2.178786	0.239358	-0.534855	-0.433701	0.725144	-0.628242	0.778016	0.001942	-0.565016	-0.454526	-0.688595
20817	10.488043	3.713989	-4.670678	1.734427	-2.262227	0.264477	-0.548830	-0.441994	0.709526	-0.636645	0.771061	-0.012129	-0.541728	-0.458373	-0.704575
20818	11.016850	2.749482	-7.087465	1.140904	-2.289289	0.255021	-0.562600	-0.450529	0.693185	-0.641315	0.766962	-0.022021	-0.521725	-0.456939	-0.720423
20819	11.850815	1.403467	-7.518145	1.118472	-2.269766	0.209605	-0.575347	-0.459308	0.676766	-0.646080	0.762611	-0.031691	-0.501553	-0.455479	-0.735516
20820	11.600639	1.996188	-5.886236	1.069070	-2.003484	0.141051	-0.586092	-0.467368	0.661863	-0.650546	0.758384	-0.040544	-0.482998	-0.454335	-0.748527
20821	10.097453	2.908375	-5.291216	0.718926	-1.690097	-0.043585	-0.593620	-0.475394	0.649320	-0.654465	0.754706	-0.045771	-0.468286	-0.452128	-0.759137
20822	8.744878	2.856971	-6.578404	0.234821	-1.323374	-0.244686	-0.598118	-0.483210	0.639346	-0.657033	0.752459	-0.045965	-0.458871	-0.447564	-0.767544
20823	6.956937	1.928044	-9.249803	-0.483171	-1.026790	-0.335948	-0.600377	-0.490335	0.631759	-0.657073	0.752755	-0.040189	-0.455854	-0.439240	-0.774122
20824	4.479114	-0.317162	-11.401127	-0.490555	-1.004118	-0.345089	-0.602641	-0.497319	0.624098	-0.656942	0.753166	-0.034187	-0.453048	-0.430598	-0.780598
20825	4.929731	-2.175098	-7.403994	0.232297	-1.071883	-0.392639	-0.604646	-0.504914	0.616008	-0.660576	0.750005	-0.033646	-0.445021	-0.427264	-0.787021
20826	7.885979	-1.398472	-4.120844	0.597771	-0.709440	-0.383931	-0.605196	-0.510837	0.610560	-0.665556	0.745480	-0.035988	-0.436776	-0.428142	-0.791152
20827	9.834586	0.841837	-4.678103	0.900058	-0.047213	-0.338660	-0.602906	-0.513603	0.610505	-0.671733	0.739651	-0.041120	-0.430441	-0.434888	-0.790944
20828	8.618510	3.042229	-5.163012	0.617203	0.454369	-0.251385	-0.599227	-0.513483	0.614216	-0.675918	0.735636	-0.044433	-0.429024	-0.441786	-0.787886
20829	7.702101	3.372339	-6.011035	-0.129152	0.805685	-0.186845	-0.594247	-0.511328	0.620817	-0.676706	0.735034	-0.042342	-0.434671	-0.445273	-0.782811
20830	5.725731	3.090207	-5.810721	-0.810653	1.092755	-0.184186	-0.588155	-0.507838	0.629424	-0.674245	0.737685	-0.034851	-0.446618	-0.444884	-0.776280
20831	5.589772	1.873951	-6.828750	-1.526529	1.279715	-0.165571	-0.580982	-0.503437	0.639540	-0.668479	0.743404	-0.022075	-0.464323	-0.440344	-0.768441
20832	6.212015	0.329202	-7.347188	-1.782551	1.570344	-0.124422	-0.572666	-0.497511	0.651565	-0.660754	0.750563	-0.007641	-0.485239	-0.434900	-0.758555
20833	6.941284	-1.102117	-7.437410	-1.694287	1.935890	-0.055177	-0.562470	-0.489561	0.666302	-0.652873	0.757448	0.005397	-0.507331	-0.431975	-0.745663
20834	7.444815	-1.667895	-7.212822	-1.410462	2.330571	0.007796	-0.550405	-0.479444	0.683511	-0.645538	0.763565	0.015771	-0.529467	-0.432552	-0.729769
20835	7.265147	-1.585390	-7.180952	-1.063972	2.709582	0.055294	-0.535892	-0.467244	0.703208	-0.639708	0.768274	0.022976	-0.550992	-0.437536	-0.710612
20836	6.659817	-0.633688	-7.154297	-0.941636	3.023870	0.064612	-0.519276	-0.453431	0.724398	-0.634096	0.772706	0.029126	-0.572954	-0.444213	-0.688766
20837	6.044721	-0.234096	-7.788051	-0.938221	3.339892	0.062545	-0.499924	-0.437970	0.747167	-0.628515	0.777013	0.034931	-0.595857	-0.452143	-0.663718
20838	5.633339	-0.113809	-7.806056	-0.964586	3.606609	0.039541	-0.478217	-0.421226	0.770634	-0.622478	0.781567	0.040923	-0.619540	-0.460133	-0.635963
20839	5.273384	-0.649046	-8.034554	-1.109968	3.934090	0.076712	-0.453605	-0.402340	0.795214	-0.615317	0.786869	0.047129	-0.644692	-0.467931	-0.604495
20840	5.455285	-1.290012	-8.211229	-0.952429	4.074400	0.142553	-0.427687	-0.381991	0.819248	-0.608452	0.791911	0.051603	-0.668483	-0.476403	-0.571113
20841	5.964823	-1.963940	-8.260250	-0.740728	4.313993	0.259550	-0.399732	-0.359103	0.843362	-0.602550	0.796289	0.053466	-0.690759	-0.486795	-0.534679
20842	6.385431	-2.205283	-7.937567	-0.194803	4.479063	0.368917	-0.370557	-0.334056	0.866657	-0.599781	0.798515	0.051342	-0.709190	-0.500779	-0.496256
20843	6.391299	-1.655017	-7.847731	0.178900	4.730036	0.408029	-0.338897	-0.306635	0.889452	-0.599819	0.798764	0.046829	-0.724822	-0.517640	-0.454624
20844	6.322501	-0.728606	-7.737083	0.483112	4.928967	0.374072	-0.305056	-0.277695	0.910948	-0.602162	0.797300	0.041399	-0.737795	-0.535910	-0.410438
20845	6.517993	0.197941	-7.534413	0.529736	5.081564	0.320253	-0.269034	-0.247362	0.930824	-0.605374	0.795112	0.036328	-0.749095	-0.553723	-0.363658
20846	6.840821	0.305893	-7.408865	0.436225	5.172860	0.254967	-0.231519	-0.216301	0.948479	-0.608039	0.793243	0.032480	-0.759400	-0.569192	-0.315171
20847	7.387258	0.092732	-7.265911	0.346837	5.279574	0.243724	-0.192515	-0.183852	0.963917	-0.610344	0.791603	0.029087	-0.768387	-0.582721	-0.264608
20848	7.941466	-0.288753	-7.200912	0.365807	5.369987	0.251426	-0.152554	-0.150258	0.976806	-0.612744	0.789860	0.025805	-0.775417	-0.594595	-0.212566
20849	8.318721	-0.481173	-7.122661	0.499049	5.498745	0.264295	-0.111289	-0.115046	0.987106	-0.616428	0.787098	0.022237	-0.779507	-0.606005	-0.158513
20850	8.981172	-0.793262	-6.718011	0.726789	5.606305	0.233980	-0.068972	-0.078925	0.994492	-0.621893	0.782872	0.019000	-0.780059	-0.617157	-0.103079
20851	9.112073	-0.224046	-6.479329	1.062955	5.734927	0.202768	-0.025501	-0.041488	0.998814	-0.630200	0.776265	0.016155	-0.776014	-0.629040	-0.045941
20852	9.458126	0.461474	-5.782769	1.017147	5.786702	0.099233	0.018645	-0.004056	0.999818	-0.638065	0.769836	0.015022	-0.769757	-0.638229	0.011766
20853	9.432779	0.795265	-5.041301	0.910873	5.803250	-0.000903	0.063185	0.033270	0.997447	-0.645145	0.763906	0.015388	-0.761444	-0.644470	0.069731
20854	9.882559	1.054689	-4.401005	0.586389	5.606657	-0.131926	0.106540	0.068442	0.991950	-0.649475	0.760186	0.017306	-0.752882	-0.646091	0.125441
20855	11.380423	0.806707	-4.334833	0.254590	5.444200	-0.154431	0.148385	0.102464	0.983607	-0.651262	0.758609	0.019223	-0.744204	-0.643438	0.179297
20856	11.852099	0.075739	-5.002673	0.008458	5.333146	-0.176205	0.189028	0.135272	0.972610	-0.651026	0.758765	0.020997	-0.735142	-0.637164	0.231494
20857	11.346414	-0.328060	-4.264894	0.207910	5.164907	-0.123648	0.227565	0.167147	0.959310	-0.652334	0.757590	0.022745	-0.722962	-0.630966	0.281437
20858	10.451662	-1.720159	-1.358444	0.684011	4.897656	-0.019403	0.262741	0.197806	0.944373	-0.657172	0.753324	0.025047	-0.706464	-0.627196	0.327922
20859	9.607481	-0.745563	-0.018426	1.222049	4.566956	0.008598	0.294538	0.226546	0.928399	-0.665733	0.745616	0.029263	-0.685600	-0.626685	0.370431
20860	7.793880	1.541942	1.344757	1.318421	3.998090	-0.045320	0.321870	0.251263	0.912834	-0.674488	0.737463	0.034838	-0.664428	-0.626909	0.406841
20861	5.324820	2.080060	1.513399	0.823329	3.401737	-0.018821	0.344371	0.272428	0.898438	-0.679843	0.732345	0.038519	-0.647473	-0.624062	0.437407
20862	1.315998	-0.683630	2.562571	-0.096438	2.763732	-0.152516	0.363213	0.288432	0.885936	-0.678676	0.733376	0.039478	-0.638338	-0.615603	0.462124
20863	-2.667952	0.251834	6.810429	0.348541	1.748048	-0.473655	0.377566	0.295722	0.877492	-0.679145	0.732603	0.045329	-0.629448	-0.613059	0.477445
20864	-2.019538	1.801093	4.496170	0.126219	0.308346	-0.673869	0.384111	0.292661	0.875676	-0.677363	0.733817	0.051872	-0.627405	-0.613075	0.480106
20865	-0.196497	1.818672	2.143173	-0.491191	-1.025619	-0.659706	0.382145	0.281571	0.880161	-0.671768	0.738691	0.055352	-0.634581	-0.612417	0.471437
20866	1.924908	2.030200	-1.339636	-0.544917	-2.018562	-0.620609	0.373409	0.264582	0.889136	-0.665926	0.743732	0.058354	-0.645839	-0.613889	0.453908
20867	3.659919	3.179250	-3.393989	-0.544429	-2.781249	-0.456772	0.358346	0.244097	0.901113	-0.660726	0.748219	0.060070	-0.659567	-0.616915	0.429403
20868	9.153165	2.465514	-1.819187	-1.092422	-3.472631	-0.397184	0.337748	0.219676	0.915242	-0.652026	0.755883	0.059188	-0.678814	-0.616752	0.398533
20869	12.965481	1.652365	3.678121	-1.802324	-2.879249	-0.258319	0.319635	0.200057	0.926181	-0.638750	0.767470	0.054664	-0.699880	-0.609071	0.373097
20870	20.073438	-2.345407	5.655910	-2.152022	-2.299347	-0.167416	0.304396	0.184884	0.934431	-0.622936	0.780771	0.048443	-0.720620	-0.596837	0.352835
20871	21.880704	-5.506417	8.002196	-1.821852	-0.767257	-0.013495	0.298965	0.180242	0.937087	-0.609643	0.791549	0.042249	-0.734136	-0.583920	0.346529
20872	11.157470	-4.888390	5.665726	-0.132694	0.323382	-0.146371	0.302267	0.180956	0.935890	-0.608224	0.792590	0.043191	-0.733961	-0.582286	0.349635
20873	4.135701	-1.022231	5.756296	0.257473	-0.329904	-0.183120	0.301020	0.177610	0.936932	-0.609587	0.791393	0.045828	-0.733342	-0.584937	0.346494
20874	7.591850	-0.364985	3.620108	0.204655	-1.691623	-0.061646	0.288995	0.167177	0.942621	-0.610905	0.790300	0.047134	-0.737073	-0.589473	0.330522
20875	15.275283	1.293852	2.313460	-0.383335	-2.211264	-0.178236	0.273747	0.152771	0.949591	-0.607601	0.792814	0.047610	-0.745576	-0.590006	0.309854
20876	18.007101	-0.921109	0.955920	-2.181053	-1.831707	-0.258078	0.261507	0.140022	0.954991	-0.590449	0.805901	0.043522	-0.763534	-0.575254	0.293425
20877	15.136339	-5.902002	1.469876	-2.199242	-1.727881	-0.215360	0.249476	0.128496	0.959818	-0.572948	0.818648	0.039324	-0.780700	-0.559736	0.277855
20878	12.208138	-7.443590	0.128191	-0.816826	-1.935311	-0.209358	0.235505	0.115972	0.964929	-0.566022	0.823459	0.039177	-0.790036	-0.555398	0.259571
20879	10.424143	-1.199291	-0.399312	0.671844	-2.259211	-0.400380	0.219965	0.100098	0.970359	-0.570477	0.820095	0.044720	-0.791310	-0.563404	0.237496
20880	10.107671	8.273952	-3.378695	1.309824	-2.502656	-0.525928	0.203249	0.081526	0.975727	-0.579713	0.813107	0.052819	-0.789064	-0.576377	0.212525
20881	10.616248	10.520937	-5.341283	-0.286142	-2.539409	-0.491875	0.186022	0.062909	0.980530	-0.576514	0.815091	0.057079	-0.795630	-0.575907	0.187893
20882	10.459493	5.610970	-7.142383	-1.368119	-2.083017	-0.423563	0.171782	0.047533	0.983988	-0.564791	0.823134	0.058837	-0.807157	-0.565855	0.168246
20883	8.176020	-0.284902	-6.743590	-1.231926	-1.514792	-0.339746	0.161434	0.036169	0.986220	-0.554188	0.830207	0.060267	-0.816587	-0.556280	0.154069
20884	7.414046	-1.335641	-5.399988	0.058374	-1.393809	-0.372549	0.152141	0.025302	0.988035	-0.554081	0.829994	0.064064	-0.818442	-0.557198	0.140295
20885	8.902869	1.431507	-4.628147	0.648344	-1.453327	-0.330951	0.142139	0.014346	0.989743	-0.558843	0.826458	0.068277	-0.817001	-0.562816	0.125489
20886	11.060243	-0.297072	-3.453306	0.390661	-1.348892	-0.279329	0.132722	0.004411	0.991143	-0.561651	0.824275	0.071541	-0.816660	-0.566172	0.111877
20887	13.251192	-0.157139	-2.353026	0.838410	-1.185748	-0.268138	0.124605	-0.004641	0.992196	-0.568071	0.819539	0.075174	-0.813492	-0.573005	0.099482
20888	12.746994	2.404293	-1.784595	0.657006	-0.905998	-0.193114	0.118386	-0.011449	0.992902	-0.573174	0.815737	0.077747	-0.810837	-0.578309	0.090009
20889	10.245520	1.520965	-1.676453	-0.062998	-0.788878	-0.100305	0.112587	-0.016933	0.993498	-0.572467	0.816134	0.078784	-0.812161	-0.577615	0.082192
20890	9.069422	0.762667	-1.622925	-0.417085	-0.839310	-0.116480	0.106458	-0.022732	0.994057	-0.568947	0.818508	0.079648	-0.815455	-0.574045	0.074204
20891	9.347945	0.941153	-1.708761	-0.651205	-0.876497	-0.184792	0.100360	-0.029370	0.994518	-0.563342	0.822231	0.081130	-0.820106	-0.568395	0.065974
20892	10.114910	-0.023632	-1.591484	-0.664692	-0.919877	-0.166186	0.093763	-0.035956	0.994945	-0.557716	0.825931	0.082407	-0.824719	-0.562623	0.057389
20893	10.630063	-1.503023	-1.278105	-0.199590	-0.866009	-0.145060	0.087439	-0.042138	0.995278	-0.555842	0.827049	0.083849	-0.826677	-0.560549	0.048895
20894	10.173705	-1.154511	-0.824723	0.612322	-0.765948	-0.153667	0.082013	-0.047733	0.995488	-0.560767	0.823528	0.085686	-0.823902	-0.565264	0.040773
20895	9.619542	1.628077	-0.361431	1.114656	-0.747462	-0.167088	0.076835	-0.053473	0.995609	-0.569699	0.817144	0.087854	-0.818254	-0.573948	0.032322
20896	9.753416	3.594872	-0.250311	1.053501	-0.724648	-0.152953	0.071841	-0.058921	0.995674	-0.578180	0.810963	0.089708	-0.812741	-0.582123	0.024193
20897	9.671415	4.413004	-0.075525	0.716939	-0.688499	-0.110646	0.066914	-0.063963	0.995706	-0.583822	0.806759	0.091059	-0.809120	-0.587408	0.016641
20898	9.303073	3.831314	-0.016765	0.253809	-0.669605	-0.053455	0.061850	-0.068346	0.995743	-0.585842	0.805225	0.091658	-0.808062	-0.589017	0.009763
20899	9.536360	2.164789	-0.200869	0.050748	-0.706785	-0.009522	0.056207	-0.072719	0.995767	-0.586139	0.804985	0.091871	-0.808259	-0.588822	0.002623
20900	9.636313	0.834689	-0.296010	0.039699	-0.697686	-0.003150	0.050623	-0.076865	0.995755	-0.586461	0.804743	0.091936	-0.808394	-0.588626	-0.004340
20901	9.565322	0.514848	-0.418016	0.239051	-0.696654	-0.019093	0.045120	-0.081259	0.995671	-0.588273	0.803387	0.092224	-0.807403	-0.589887	-0.011554
20902	9.729901	1.039482	-0.418883	0.401113	-0.695561	-0.031075	0.039732	-0.085634	0.995534	-0.591497	0.800983	0.092506	-0.805328	-0.592531	-0.018828
20903	9.525763	1.603574	-0.248695	0.448702	-0.657680	-0.035086	0.034662	-0.089953	0.995343	-0.594984	0.798354	0.092870	-0.802990	-0.595432	-0.025848
20904	9.112139	2.527317	-0.066934	0.459868	-0.653233	-0.041593	0.029711	-0.094198	0.995110	-0.598660	0.795564	0.093183	-0.800452	-0.598501	-0.032756
20905	8.928915	3.406954	0.038505	0.143378	-0.675506	-0.032196	0.024509	-0.098633	0.994822	-0.599687	0.794745	0.093570	-0.799859	-0.598876	-0.039670
20906	9.039719	3.333268	-0.243161	-0.330863	-0.700550	0.000621	0.018932	-0.102825	0.994519	-0.597041	0.796715	0.093739	-0.801987	-0.595543	-0.046307
20907	9.472484	1.111096	-0.725405	-0.690006	-0.750168	0.050766	0.012608	-0.107005	0.994179	-0.591380	0.800930	0.093705	-0.806294	-0.589119	-0.053182
20908	10.334478	-1.635061	-0.528624	-0.552654	-0.789037	0.070648	0.005854	-0.111080	0.993794	-0.586925	0.804242	0.093350	-0.809620	-0.583829	-0.060487
20909	10.482145	-1.624478	-0.528233	0.093151	-0.729832	0.031144	-0.000227	-0.115224	0.993340	-0.587565	0.803803	0.093104	-0.809177	-0.583631	-0.067884
20910	9.696195	-0.235677	-0.658002	0.378705	-0.680950	-0.027069	-0.005533	-0.119437	0.992826	-0.590630	0.801550	0.093135	-0.806923	-0.585878	-0.074978
20911	9.039523	0.738673	-0.779964	0.392591	-0.737115	-0.050514	-0.011165	-0.124291	0.992183	-0.593694	0.799248	0.093441	-0.804614	-0.588010	-0.082714
20912	9.327306	1.246370	-0.752183	0.318665	-0.832384	-0.042231	-0.017565	-0.129543	0.991418	-0.596265	0.797311	0.093616	-0.802596	-0.589503	-0.091247
20913	9.807766	1.306776	-1.029213	0.234155	-0.834407	-0.023583	-0.024108	-0.134772	0.990583	-0.598045	0.795962	0.093739	-0.801100	-0.590153	-0.099789
20914	9.828545	1.329428	-0.943136	0.160502	-0.794087	-0.009997	-0.030367	-0.139553	0.989749	-0.599337	0.794994	0.093704	-0.799921	-0.590347	-0.107781
20915	9.546476	1.096170	-0.791646	0.151086	-0.798307	-0.008715	-0.036691	-0.144454	0.988831	-0.600445	0.794154	0.093735	-0.798824	-0.590299	-0.115874
20916	9.452960	1.057744	-0.768275	0.248214	-0.839268	-0.009260	-0.043294	-0.149499	0.987814	-0.602434	0.792666	0.093561	-0.796994	-0.591042	-0.124381
20917	9.350639	1.360802	-0.655816	0.313392	-0.863669	-0.012086	-0.050089	-0.154819	0.986672	-0.604833	0.790857	0.093389	-0.794775	-0.592095	-0.133253
20918	9.277540	1.556668	-0.663429	0.337808	-0.865436	-0.004000	-0.056895	-0.159995	0.985477	-0.607521	0.788841	0.092996	-0.792263	-0.593407	-0.142081
20919	9.201784	1.759983	-0.812602	0.371690	-0.886039	0.011884	-0.063969	-0.165277	0.984170	-0.610355	0.786715	0.092445	-0.789541	-0.594780	-0.151203
20920	9.388458	1.786239	-0.645692	0.251786	-0.914034	0.024700	-0.071289	-0.170536	0.982769	-0.612329	0.785250	0.091843	-0.787382	-0.595231	-0.160404
20921	9.375018	1.513266	-0.924057	0.206530	-0.898021	0.040123	-0.078592	-0.175676	0.981306	-0.613825	0.784154	0.091221	-0.785520	-0.595181	-0.169462
20922	9.275320	1.466675	-1.022503	0.167899	-0.923445	0.050545	-0.086110	-0.180789	0.979745	-0.615107	0.783237	0.090466	-0.783728	-0.594858	-0.178649
20923	9.371445	1.171849	-1.148242	0.056182	-0.922216	0.074763	-0.093786	-0.185790	0.978103	-0.615383	0.783103	0.089744	-0.782629	-0.593491	-0.187777
20924	9.320053	0.806325	-1.337835	0.059381	-0.953728	0.089009	-0.101755	-0.190762	0.976348	-0.615766	0.782910	0.088792	-0.781331	-0.592167	-0.197129
20925	9.590052	0.920534	-1.346783	0.084051	-0.988509	0.089995	-0.110019	-0.196007	0.974411	-0.616233	0.782648	0.087855	-0.779841	-0.590799	-0.206892
20926	9.565880	1.079462	-1.315319	0.066460	-0.947905	0.086208	-0.117898	-0.200941	0.972483	-0.616659	0.782418	0.086909	-0.778352	-0.589444	-0.216157
20927	9.094624	1.361805	-1.064945	0.061480	-0.960021	0.089655	-0.125909	-0.205989	0.970420	-0.616937	0.782298	0.086011	-0.776875	-0.587859	-0.225581
20928	8.944659	1.548634	-0.973290	0.021235	-1.047574	0.106349	-0.134658	-0.211319	0.968097	-0.616971	0.782386	0.084964	-0.775380	-0.585846	-0.235733
20929	9.131604	1.656008	-0.954559	-0.057343	-1.118308	0.120263	-0.144057	-0.217007	0.965482	-0.616271	0.783037	0.084048	-0.774247	-0.582891	-0.246537
20930	9.104604	1.589375	-0.524540	-0.142411	-1.144016	0.126215	-0.153649	-0.222681	0.962707	-0.614989	0.784132	0.083222	-0.773422	-0.579267	-0.257428
20931	9.022194	1.097143	-0.574944	-0.140514	-1.203703	0.127661	-0.163728	-0.228717	0.959626	-0.613615	0.785286	0.082473	-0.772444	-0.575338	-0.268918
20932	8.954895	1.030366	-0.580291	-0.073808	-1.281711	0.149662	-0.174498	-0.234909	0.956226	-0.612801	0.786047	0.081275	-0.770731	-0.571794	-0.281115
20933	9.048738	0.918238	-0.553717	0.021212	-1.388808	0.158530	-0.186143	-0.241663	0.952339	-0.612600	0.786354	0.079805	-0.768162	-0.568548	-0.294416
20934	9.245285	1.018968	-0.581342	0.135472	-1.482980	0.158667	-0.198443	-0.248844	0.947997	-0.613342	0.785964	0.077921	-0.764482	-0.565983	-0.308595
20935	9.419478	1.132055	-0.926310	0.149870	-1.556873	0.168488	-0.211331	-0.256382	0.943190	-0.614070	0.785589	0.075954	-0.760433	-0.563133	-0.323456
20936	9.670784	0.529165	-1.327476	0.128518	-1.630041	0.179728	-0.224759	-0.264140	0.937931	-0.614662	0.785324	0.073870	-0.756091	-0.559907	-0.338865
20937	9.956382	0.191776	-1.559568	0.288628	-1.686046	0.184235	-0.238574	-0.272180	0.932202	-0.616348	0.784245	0.071241	-0.750465	-0.557565	-0.354858
20938	10.785238	0.419677	-1.776694	0.360585	-1.757376	0.175500	-0.252752	-0.280602	0.925948	-0.618622	0.782712	0.068332	-0.743924	-0.555540	-0.371418
20939	11.539352	0.161266	-1.603068	0.424214	-1.879398	0.191755	-0.267829	-0.289579	0.918919	-0.621212	0.780939	0.065038	-0.736453	-0.553425	-0.389048
20940	11.973451	-0.567986	-1.204265	0.369003	-1.922505	0.210351	-0.283187	-0.298567	0.911407	-0.623348	0.779508	0.061676	-0.728864	-0.550658	-0.406858
20941	11.722334	-0.611902	-0.473541	0.356646	-1.957808	0.210413	-0.298663	-0.307721	0.903387	-0.625288	0.778209	0.058359	-0.720982	-0.547448	-0.424836
20942	11.205016	-0.255654	0.475882	0.287842	-2.065122	0.233336	-0.314892	-0.317185	0.894560	-0.626649	0.777356	0.055042	-0.712849	-0.543242	-0.443547
20943	11.824685	0.024116	1.309183	0.182039	-2.331197	0.284959	-0.333153	-0.327592	0.884134	-0.627005	0.777295	0.051742	-0.704183	-0.537119	-0.464360
20944	13.197161	0.040382	1.763014	0.011014	-2.515668	0.321829	-0.352740	-0.338514	0.872343	-0.625992	0.778295	0.048893	-0.695491	-0.528834	-0.486443
20945	14.104120	-0.605611	2.949127	-0.163197	-2.651629	0.335936	-0.373107	-0.349798	0.859321	-0.623664	0.780288	0.046839	-0.686902	-0.518452	-0.509287
20946	15.492051	-1.631145	3.101146	-0.249830	-2.788389	0.307689	-0.394013	-0.361702	0.844941	-0.620794	0.782649	0.045548	-0.677767	-0.506588	-0.532917
20947	16.606887	-3.161760	2.967067	-0.087332	-2.862212	0.306425	-0.415066	-0.373646	0.829523	-0.619030	0.784163	0.043471	-0.666724	-0.495457	-0.556778
20948	17.859107	-4.183607	3.451481	0.285529	-2.937678	0.290760	-0.436210	-0.385809	0.812941	-0.619693	0.783851	0.039486	-0.652458	-0.486549	-0.581006
20949	18.498499	-3.940912	3.841742	0.914741	-2.986680	0.235453	-0.456751	-0.398426	0.795384	-0.624647	0.780246	0.032138	-0.633399	-0.482155	-0.605254
20950	18.064433	-1.292865	3.242224	1.759081	-2.963477	0.317354	-0.477118	-0.410293	0.777186	-0.634107	0.773016	0.018811	-0.608496	-0.483844	-0.628990
20951	16.136690	1.373050	0.577564	1.781502	-2.755765	0.376422	-0.495778	-0.420756	0.759716	-0.643079	0.765787	0.004455	-0.583655	-0.486349	-0.650240
20952	14.899317	2.968554	-1.927783	1.867950	-2.678383	0.412394	-0.513705	-0.430695	0.742031	-0.651681	0.758414	-0.010952	-0.558049	-0.489194	-0.670277
20953	13.007523	3.270537	-4.719663	1.825655	-2.451035	0.456345	-0.529876	-0.439283	0.725439	-0.659470	0.751254	-0.026775	-0.533227	-0.492592	-0.687765
20954	12.289928	3.381176	-8.241595	1.805187	-2.407942	0.504667	-0.545728	-0.447421	0.708516	-0.666177	0.744556	-0.042937	-0.508319	-0.495430	-0.704387
20955	12.455165	2.166938	-11.426801	1.367817	-2.445306	0.415370	-0.560457	-0.456461	0.691037	-0.670884	0.739470	-0.055659	-0.485595	-0.494800	-0.720673
20956	12.662101	1.591510	-10.366276	0.967978	-2.674400	0.416590	-0.575921	-0.466565	0.671291	-0.673134	0.736611	-0.065538	-0.463903	-0.489614	-0.738291
20957	11.646427	3.252277	-6.841839	0.889346	-2.495772	0.253446	-0.588752	-0.476889	0.652647	-0.675894	0.733283	-0.073912	-0.443327	-0.484636	-0.754048
20958	9.547275	3.646208	-5.626797	0.181138	-1.843160	-0.010742	-0.596706	-0.485846	0.638667	-0.676772	0.732342	-0.075200	-0.431187	-0.477104	-0.765800
20959	7.442753	1.889595	-8.166662	-0.278965	-1.208738	-0.204976	-0.600293	-0.493105	0.629679	-0.677002	0.732470	-0.071806	-0.425813	-0.469399	-0.773530
20960	4.939260	0.986955	-12.724221	-0.567163	-0.702717	-0.238722	-0.601636	-0.498142	0.624410	-0.676045	0.733909	-0.065890	-0.425437	-0.461771	-0.778313
20961	2.378105	-0.725543	-11.626923	-0.464388	-0.797405	-0.189949	-0.603544	-0.503229	0.618462	-0.675400	0.734914	-0.061124	-0.423757	-0.454600	-0.783434
20962	3.005443	-2.705070	-7.490445	0.048530	-0.757708	-0.172543	-0.605537	-0.507943	0.612632	-0.676670	0.733803	-0.060426	-0.418858	-0.451140	-0.788055
20963	5.822123	-1.960822	-4.644426	0.723871	-0.394763	-0.233756	-0.605405	-0.511480	0.609814	-0.681260	0.729172	-0.064744	-0.411544	-0.454638	-0.789896
20964	7.119864	0.559858	-4.842149	1.215464	0.262307	-0.289719	-0.602319	-0.512391	0.612101	-0.687994	0.722082	-0.072543	-0.404817	-0.464815	-0.787445
20965	7.076027	2.976406	-5.595864	0.895257	0.761659	-0.307144	-0.596929	-0.511055	0.618464	-0.693627	0.716130	-0.077716	-0.403184	-0.475374	-0.781960
20966	5.333000	3.739132	-5.566713	-0.010077	1.187333	-0.322437	-0.589827	-0.507696	0.627972	-0.695522	0.714516	-0.075610	-0.410309	-0.481365	-0.774554
20967	3.455055	3.180145	-6.612945	-0.874194	1.434324	-0.362403	-0.581132	-0.503406	0.639428	-0.694157	0.716736	-0.066604	-0.424772	-0.482569	-0.765961
20968	2.847359	2.350228	-7.199177	-1.478201	1.547949	-0.370809	-0.571809	-0.498639	0.651455	-0.689896	0.721971	-0.052937	-0.443935	-0.479706	-0.756838
20969	3.910759	0.574538	-7.468444	-1.804715	1.769621	-0.333022	-0.561291	-0.492624	0.665037	-0.683711	0.728804	-0.037193	-0.466359	-0.475569	-0.745884
20970	4.998516	-0.447938	-7.033718	-1.634740	2.165088	-0.269840	-0.549073	-0.484331	0.681133	-0.677417	0.735231	-0.023279	-0.489515	-0.474193	-0.731789
20971	5.757346	-0.498732	-6.304928	-1.394737	2.540881	-0.222136	-0.534670	-0.473909	0.699670	-0.671765	0.740672	-0.011665	-0.512698	-0.476251	-0.714371
20972	6.018079	-0.059650	-6.164869	-1.193705	2.850079	-0.122267	-0.518877	-0.461194	0.719769	-0.666172	0.745794	-0.002369	-0.535707	-0.480719	-0.694210
20973	6.112543	0.401925	-6.333979	-1.300007	3.153055	-0.026310	-0.501250	-0.446162	0.741409	-0.659313	0.751839	0.006692	-0.560406	-0.485466	-0.671020
20974	5.698095	0.357262	-6.831311	-1.415638	3.463060	0.045257	-0.481647	-0.428944	0.764214	-0.650989	0.758925	0.015688	-0.586710	-0.489940	-0.644772
20975	4.756627	0.230929	-7.903344	-1.597165	3.756349	0.106936	-0.459605	-0.409646	0.788006	-0.641016	0.767123	0.024917	-0.614705	-0.493673	-0.615163
20976	4.739087	-0.861295	-8.141254	-1.482029	3.788467	0.160082	-0.436796	-0.389650	0.810791	-0.631010	0.775092	0.032551	-0.641121	-0.497399	-0.584430
20977	5.329415	-2.011685	-7.619533	-1.362162	3.961784	0.224274	-0.412140	-0.368091	0.833456	-0.621265	0.782657	0.038444	-0.666461	-0.501953	-0.551246
20978	5.008237	-2.518021	-7.560892	-0.737064	4.140702	0.294770	-0.385890	-0.344818	0.855681	-0.615115	0.787427	0.039913	-0.687548	-0.510940	-0.515963
20979	5.795229	-1.512120	-7.403537	-0.070763	4.239982	0.319443	-0.358207	-0.320319	0.876974	-0.613544	0.788770	0.037495	-0.703741	-0.524631	-0.479073
20980	6.922930	-0.043734	-7.235515	0.219948	4.415070	0.315089	-0.328724	-0.294344	0.897387	-0.614041	0.788554	0.033716	-0.717562	-0.539949	-0.439955
20981	7.624433	0.729164	-6.930783	0.375761	4.618279	0.294421	-0.296974	-0.266681	0.916890	-0.615940	0.787242	0.029473	-0.729674	-0.555996	-0.398050
20982	7.722899	0.976006	-6.596449	0.415757	4.753538	0.272124	-0.263669	-0.237756	0.934853	-0.618247	0.785572	0.025418	-0.740438	-0.571269	-0.354123
20983	7.933262	0.897612	-6.493305	0.405242	4.853156	0.260112	-0.228985	-0.207610	0.951033	-0.620712	0.783740	0.021638	-0.749855	-0.585363	-0.308331
20984	8.094048	0.726471	-6.462176	0.380364	4.903512	0.257637	-0.193577	-0.176591	0.965061	-0.623047	0.781974	0.018115	-0.757852	-0.597772	-0.261397
20985	8.595760	0.149961	-6.293409	0.413669	4.953582	0.258354	-0.157377	-0.144647	0.976888	-0.625809	0.779838	0.014653	-0.763934	-0.609040	-0.213250
20986	9.025947	-0.455498	-6.161423	0.623600	5.017888	0.242351	-0.120443	-0.111922	0.986391	-0.630256	0.776307	0.011128	-0.766988	-0.620339	-0.164040
20987	9.503356	-0.158313	-5.766922	0.914969	5.113546	0.191600	-0.082340	-0.078380	0.993517	-0.637130	0.770715	0.008000	-0.766346	-0.632341	-0.113399
20988	10.167380	0.487939	-4.865513	0.912759	5.157293	0.083646	-0.043373	-0.044867	0.998051	-0.644068	0.764941	0.006398	-0.763737	-0.642536	-0.062075
20989	9.918551	0.066541	-4.444299	0.886125	5.256715	-0.020153	-0.003109	-0.011005	0.999935	-0.650855	0.759175	0.006332	-0.759195	-0.650793	-0.009523
20990	9.807006	-0.015196	-4.225970	0.971100	5.268266	-0.139056	0.037655	0.022412	0.999039	-0.658174	0.752824	0.007919	-0.751923	-0.657840	0.043099
20991	10.193108	0.361617	-3.326736	0.859660	5.165966	-0.258756	0.078084	0.054579	0.995452	-0.664468	0.747234	0.011152	-0.743226	-0.662316	0.094613
20992	11.499862	1.245132	-2.340935	0.664845	5.027531	-0.347678	0.117581	0.085319	0.989391	-0.669040	0.743066	0.015432	-0.733867	-0.663757	0.144452
20993	11.442778	0.581953	-3.085183	0.450489	4.986045	-0.403789	0.156727	0.115365	0.980881	-0.671766	0.740486	0.020244	-0.723993	-0.662096	0.193553
20994	11.007503	0.357789	-3.270792	0.343376	4.747384	-0.448561	0.193908	0.143390	0.970484	-0.673447	0.738799	0.025400	-0.713351	-0.658495	0.239824
20995	10.640432	-0.788183	-2.437626	0.607344	4.583567	-0.453295	0.229438	0.170128	0.958340	-0.676752	0.735539	0.031447	-0.699546	-0.655774	0.283895
20996	10.125340	-1.011452	-1.423361	0.964946	4.385781	-0.469211	0.262970	0.195425	0.944805	-0.682261	0.730074	0.038886	-0.682178	-0.654829	0.325318
20997	10.078717	0.660603	-0.653855	0.899890	4.153203	-0.583984	0.295016	0.218268	0.930228	-0.686650	0.725431	0.047552	-0.664438	-0.652770	0.363888
20998	7.212066	0.153418	1.896443	0.479858	3.917303	-0.577907	0.324755	0.239538	0.914962	-0.688004	0.723638	0.054750	-0.648987	-0.647278	0.399808
20999	5.493654	0.602497	2.416409	0.349684	3.174948	-0.623608	0.349526	0.255416	0.901440	-0.688097	0.722969	0.061956	-0.635889	-0.641933	0.428448
21000	2.829756	0.714128	4.285394	-0.164853	2.610727	-0.605462	0.370214	0.267676	0.889545	-0.684868	0.725609	0.066685	-0.627612	-0.633909	0.451954
21001	0.057882	0.334197	5.526556	-0.179354	1.732640	-0.617481	0.385342	0.274044	0.881142	-0.681364	0.728452	0.071418	-0.622298	-0.627899	0.467427
21002	-0.426177	1.559890	6.274535	-0.589815	0.642173	-0.663669	0.393881	0.273194	0.877623	-0.675094	0.733959	0.074512	-0.623783	-0.621827	0.473524
21003	0.322066	2.061513	3.295095	-0.980954	-0.483321	-0.622548	0.395102	0.265559	0.879416	-0.666442	0.741731	0.075435	-0.632258	-0.615884	0.470039
21004	1.804001	2.436293	1.134358	-1.252937	-1.467983	-0.534926	0.389292	0.252555	0.885815	-0.656325	0.750804	0.074375	-0.646290	-0.610335	0.458040
21005	3.146539	2.254541	-1.307272	-1.300946	-2.249069	-0.422594	0.377399	0.235630	0.895571	-0.646147	0.759772	0.072390	-0.663373	-0.605991	0.438989
21006	6.090336	1.845404	-3.368899	-1.459910	-3.098655	-0.388406	0.359045	0.213934	0.908471	-0.634871	0.769466	0.069713	-0.684124	-0.601792	0.412093
21007	11.182797	2.101476	1.573283	-1.833372	-2.968474	-0.369978	0.340819	0.193235	0.920056	-0.620774	0.781216	0.065880	-0.706032	-0.593600	0.386209
21008	13.994071	-1.303360	2.930425	-2.331384	-2.811529	-0.323545	0.322652	0.174166	0.930356	-0.602957	0.795500	0.060188	-0.729616	-0.580384	0.361684
21009	20.811850	-3.658656	7.641336	-2.082835	-1.844036	-0.209913	0.310359	0.161810	0.936747	-0.586840	0.807841	0.054886	-0.747861	-0.566755	0.345678
21010	16.346847	-5.142529	6.860542	-0.967737	-0.406474	-0.033780	0.307539	0.159233	0.938118	-0.579459	0.813347	0.051907	-0.754750	-0.559564	0.342405
21011	7.447337	-2.407984	5.540961	-0.008821	-0.259850	-0.079221	0.306108	0.157071	0.938950	-0.579109	0.813545	0.052703	-0.755600	-0.559887	0.339994
21012	5.677478	-1.253832	5.163360	-0.561937	-1.166222	-0.137435	0.298086	0.149423	0.942771	-0.574423	0.816896	0.052149	-0.762354	-0.557094	0.329337
21013	10.744423	-3.073301	2.392727	-1.130884	-2.129018	-0.197241	0.282915	0.135973	0.949458	-0.565136	0.823453	0.050468	-0.774972	-0.550851	0.309810
21014	16.734949	-3.686932	0.622890	-1.746550	-2.293154	-0.209022	0.266161	0.121726	0.956212	-0.550881	0.833244	0.047266	-0.791005	-0.539339	0.288834
21015	16.506887	-5.156109	0.516167	-1.997264	-1.989984	-0.146704	0.251118	0.109879	0.961700	-0.534531	0.844047	0.043140	-0.806979	-0.524892	0.270690
21016	12.512104	-5.798706	1.280882	-1.132426	-1.974219	-0.192393	0.236135	0.097944	0.966772	-0.524859	0.850149	0.042068	-0.817780	-0.517353	0.252157
21017	10.383290	0.675695	0.877872	0.366284	-2.323020	-0.430793	0.219414	0.082202	0.972163	-0.526887	0.848626	0.047161	-0.821126	-0.522568	0.229511
21018	10.682417	11.270654	-1.567873	1.091967	-2.765717	-0.656821	0.200224	0.062019	0.977785	-0.534474	0.843331	0.055955	-0.821126	-0.533804	0.202003
21019	10.859698	14.744713	-4.639748	-0.736381	-2.782084	-0.602610	0.180504	0.042094	0.982673	-0.527221	0.847569	0.060537	-0.830335	-0.529013	0.175182
21020	8.882004	8.985635	-6.562799	-2.692679	-2.449243	-0.466815	0.162386	0.025400	0.986400	-0.503816	0.861672	0.060753	-0.848411	-0.506829	0.152721
21021	8.749694	-1.922318	-7.859095	-2.819606	-2.272508	-0.227325	0.144078	0.012048	0.989493	-0.479197	0.875714	0.059112	-0.865801	-0.482679	0.131944
21022	9.009527	-6.730552	-7.991356	-0.739780	-1.858336	-0.331315	0.129543	0.000211	0.991574	-0.472317	0.879279	0.061518	-0.871857	-0.476306	0.114005
21023	8.307415	-3.460072	-6.007875	0.936627	-1.605834	-0.512535	0.118036	-0.012130	0.992935	-0.479735	0.874797	0.067715	-0.869438	-0.484338	0.097438
21024	9.743119	-2.253926	-4.917022	1.362951	-1.610151	-0.454599	0.106317	-0.024002	0.994043	-0.491043	0.868031	0.073478	-0.864623	-0.495930	0.080501
21025	11.526592	-1.306242	-3.605053	1.745678	-1.583501	-0.379416	0.094592	-0.035376	0.994887	-0.505594	0.859182	0.078621	-0.857570	-0.510446	0.063386
21026	13.996428	4.107751	-2.006057	1.626946	-1.448676	-0.355523	0.084077	-0.045924	0.995400	-0.519173	0.850620	0.083097	-0.850523	-0.523772	0.047675
21027	12.061342	5.539653	-2.313412	0.001649	-1.074799	-0.222678	0.076098	-0.053583	0.995660	-0.518899	0.850556	0.085433	-0.851442	-0.523148	0.036922
21028	8.684750	2.601361	-2.583581	-1.250795	-1.014873	-0.148158	0.068218	-0.060117	0.995858	-0.508099	0.856940	0.086537	-0.858593	-0.511898	0.027913
21029	8.262388	1.425486	-2.919631	-1.614455	-1.160592	-0.250186	0.059462	-0.068287	0.995892	-0.493872	0.864988	0.088799	-0.867499	-0.497124	0.017709
21030	9.724842	0.618846	-2.893223	-1.672210	-1.216240	-0.320540	0.050452	-0.077044	0.995750	-0.479118	0.872935	0.091817	-0.876299	-0.481714	0.007128
21031	10.756938	-1.584191	-2.397300	-1.206475	-1.165205	-0.289083	0.041572	-0.085289	0.995489	-0.468231	0.878504	0.094820	-0.882628	-0.470060	-0.003413
21032	10.507757	-2.680485	-1.659313	-0.128419	-1.055800	-0.238326	0.033398	-0.092354	0.995166	-0.467010	0.878889	0.097237	-0.883621	-0.468000	-0.013777
21033	9.519939	-0.261126	-1.269819	1.020133	-1.001010	-0.277614	0.025875	-0.099665	0.994685	-0.475788	0.873864	0.099936	-0.879179	-0.475845	-0.024808
21034	9.636828	2.500082	-0.894606	1.352596	-1.035239	-0.277371	0.018178	-0.107080	0.994084	-0.487579	0.867063	0.102314	-0.872889	-0.486555	-0.036449
21035	9.869427	4.333088	-0.840226	1.252306	-0.963452	-0.260969	0.011072	-0.114221	0.993394	-0.498305	0.860680	0.104515	-0.866931	-0.496170	-0.047387
21036	10.190522	4.982880	-0.485252	0.658953	-0.912968	-0.183397	0.004127	-0.120365	0.992721	-0.503996	0.857173	0.106026	-0.863696	-0.500765	-0.057126
21037	9.129118	3.715539	-0.673943	0.092938	-0.878194	-0.100409	-0.002963	-0.125786	0.992053	-0.504653	0.856652	0.107111	-0.863317	-0.500325	-0.066016
21038	9.363380	1.946187	-1.185466	-0.237709	-0.951638	-0.098138	-0.010653	-0.131392	0.991273	-0.502610	0.857705	0.108286	-0.864448	-0.497070	-0.075176
21039	9.875976	0.220537	-1.562703	-0.169632	-0.878799	-0.083768	-0.017848	-0.136636	0.990460	-0.501002	0.858503	0.109405	-0.865262	-0.494270	-0.083778
21040	9.714757	0.263165	-1.530165	0.036690	-0.823304	-0.087292	-0.024497	-0.141471	0.989639	-0.501342	0.858194	0.110270	-0.864902	-0.493446	-0.091948
21041	9.481243	0.788155	-1.854133	0.303537	-0.812200	-0.073079	-0.031165	-0.146274	0.988753	-0.503836	0.856657	0.110851	-0.863237	-0.494715	-0.100396
21042	9.200870	1.763817	-1.383287	0.337477	-0.834184	-0.069258	-0.037972	-0.151019	0.987801	-0.506774	0.854875	0.111216	-0.861242	-0.496369	-0.108994
21043	9.390281	2.363288	-1.171288	0.307236	-0.850080	-0.073306	-0.044933	-0.156032	0.986729	-0.509299	0.853304	0.111741	-0.859416	-0.497519	-0.117809
21044	9.436611	2.645281	-0.993380	0.146278	-0.824166	-0.054743	-0.051696	-0.160618	0.985662	-0.510587	0.852483	0.112136	-0.858271	-0.497469	-0.126079
21045	9.472917	2.518684	-1.225679	-0.051222	-0.798538	-0.030833	-0.058414	-0.165009	0.984561	-0.510011	0.852758	0.112661	-0.858182	-0.495555	-0.133969
21046	9.461805	1.776827	-1.535122	-0.184192	-0.805908	-0.012583	-0.065231	-0.169118	0.983435	-0.508442	0.853640	0.113072	-0.858622	-0.492644	-0.141671
21047	9.387605	1.126407	-1.692749	-0.176367	-0.808788	-0.014150	-0.072129	-0.173375	0.982211	-0.506781	0.854554	0.113626	-0.859052	-0.489570	-0.149501
21048	9.349396	0.577167	-2.017716	-0.117977	-0.830227	-0.027169	-0.079087	-0.177681	0.980905	-0.505793	0.855075	0.114108	-0.859022	-0.487111	-0.157495
21049	9.553045	0.360330	-1.884645	-0.004014	-0.824368	-0.042138	-0.085978	-0.182210	0.979493	-0.505639	0.855089	0.114683	-0.858450	-0.485410	-0.165651
21050	9.703052	0.267320	-1.978723	0.143999	-0.810639	-0.045576	-0.092665	-0.186553	0.978065	-0.506921	0.854298	0.114919	-0.856998	-0.485152	-0.173731
21051	9.717958	0.430599	-1.895192	0.275146	-0.799263	-0.059676	-0.099229	-0.191096	0.976543	-0.509184	0.852918	0.115164	-0.854918	-0.485812	-0.181937
21052	9.551621	0.775905	-1.885345	0.365622	-0.784277	-0.071521	-0.105523	-0.195541	0.975002	-0.512384	0.850992	0.115216	-0.852249	-0.487418	-0.189991
21053	9.395290	1.011063	-1.897390	0.431455	-0.818961	-0.075296	-0.112130	-0.200327	0.973291	-0.515992	0.848804	0.115258	-0.849222	-0.489287	-0.198544
21054	9.211013	1.469551	-1.929830	0.424347	-0.815710	-0.071248	-0.118640	-0.204950	0.971556	-0.519678	0.846570	0.115125	-0.846085	-0.491238	-0.206945
21055	9.377010	1.707792	-1.718496	0.410495	-0.854743	-0.052692	-0.125612	-0.209744	0.969654	-0.523067	0.844509	0.114914	-0.842984	-0.492759	-0.215791
21056	9.534509	1.787630	-1.754986	0.393685	-0.846394	-0.042279	-0.132476	-0.214297	0.967743	-0.526441	0.842468	0.114491	-0.839827	-0.494292	-0.224422
21057	9.781479	1.695057	-1.760154	0.381483	-0.862977	-0.032351	-0.139568	-0.218980	0.965696	-0.529542	0.840579	0.114076	-0.836724	-0.495455	-0.233277
21058	9.572456	1.358983	-1.776654	0.376534	-0.834883	-0.035067	-0.146318	-0.223436	0.963674	-0.532743	0.838624	0.113554	-0.833532	-0.496776	-0.241740
21059	9.359127	0.976756	-2.002152	0.410110	-0.863350	-0.034682	-0.153343	-0.228157	0.961473	-0.536068	0.836574	0.113022	-0.830130	-0.498084	-0.250591
21060	9.258438	0.638781	-2.121416	0.470477	-0.891754	-0.027393	-0.160545	-0.232855	0.959168	-0.540015	0.834154	0.112118	-0.826202	-0.499965	-0.259664
21061	9.302364	0.568933	-1.888770	0.539614	-0.928805	-0.027006	-0.168081	-0.237863	0.956645	-0.544373	0.831455	0.111090	-0.821832	-0.502100	-0.269238
21062	9.308276	0.595623	-1.596190	0.618920	-0.960139	-0.026709	-0.175765	-0.242938	0.953985	-0.549497	0.828265	0.109682	-0.816798	-0.504934	-0.279074
21063	9.446602	1.034377	-1.229082	0.630482	-1.014572	-0.023135	-0.183925	-0.248386	0.951039	-0.554547	0.825082	0.108244	-0.811572	-0.507487	-0.289495
21064	9.433000	1.041210	-1.116527	0.531165	-1.034196	-0.011012	-0.192195	-0.253754	0.947982	-0.558874	0.822345	0.106817	-0.806673	-0.509272	-0.299867
21065	9.481691	0.901503	-0.606914	0.502199	-1.139155	0.004360	-0.201405	-0.259638	0.944470	-0.562786	0.819859	0.105370	-0.801691	-0.510312	-0.311244
21066	9.714509	0.394669	-0.703092	0.469062	-1.243755	0.025470	-0.211451	-0.265799	0.940553	-0.566490	0.817521	0.103675	-0.796478	-0.510892	-0.323438
21067	9.603207	0.432684	-0.069500	0.403604	-1.327009	0.045776	-0.222266	-0.272303	0.936188	-0.569489	0.815642	0.102035	-0.791379	-0.510470	-0.336363
21068	9.428381	0.791850	0.212395	0.376784	-1.429193	0.080792	-0.233963	-0.278954	0.931368	-0.572286	0.813932	0.100020	-0.785971	-0.509608	-0.350071
21069	9.250196	0.794251	0.227060	0.277670	-1.552143	0.116023	-0.246799	-0.285991	0.925905	-0.574090	0.812899	0.098063	-0.780712	-0.507351	-0.364807
21070	9.215171	0.828113	0.076886	0.195440	-1.698400	0.147616	-0.260824	-0.293399	0.919721	-0.575246	0.812327	0.096005	-0.775282	-0.504025	-0.380651
21071	9.619372	0.825956	-0.075187	0.125573	-1.846549	0.159872	-0.276014	-0.301441	0.912661	-0.575708	0.812216	0.094156	-0.769660	-0.499437	-0.397725
21072	10.002792	0.521316	-0.271498	0.084621	-1.967158	0.169543	-0.292035	-0.309856	0.904823	-0.575886	0.812303	0.092304	-0.763591	-0.494119	-0.415662
21073	10.608276	0.248224	-0.930678	0.207417	-2.063115	0.157538	-0.308618	-0.318785	0.896176	-0.576925	0.811813	0.090099	-0.756249	-0.489220	-0.434455
21074	10.805195	0.509125	-0.974218	0.362911	-2.175300	0.122962	-0.325646	-0.328405	0.886626	-0.579275	0.810430	0.087422	-0.747258	-0.485132	-0.454150
21075	11.494658	0.419870	-1.566242	0.391095	-2.287632	0.114845	-0.343282	-0.338573	0.876085	-0.581746	0.808950	0.084679	-0.737379	-0.480591	-0.474662
21076	11.873087	-0.037381	-1.420417	0.403658	-2.344814	0.098226	-0.360986	-0.349013	0.864800	-0.584369	0.807345	0.081897	-0.726775	-0.475799	-0.495392
21077	12.338657	-0.893451	-1.651226	0.448330	-2.389930	0.064391	-0.378573	-0.359847	0.852756	-0.587334	0.805465	0.079149	-0.715346	-0.470889	-0.516278
21078	12.288463	-1.810880	-1.190185	0.616748	-2.444286	0.050088	-0.396159	-0.370926	0.839924	-0.591527	0.802742	0.075506	-0.702249	-0.466925	-0.537426
21079	12.782347	-2.028199	-0.121468	0.847768	-2.560297	0.065590	-0.414294	-0.382347	0.825937	-0.597147	0.799040	0.070363	-0.686859	-0.464055	-0.559355
21080	13.899198	-0.841500	1.586918	1.002367	-2.643828	0.100391	-0.432794	-0.393806	0.810929	-0.603537	0.794774	0.063852	-0.669651	-0.461791	-0.581650
21081	14.730868	0.324571	3.664829	0.883260	-2.719912	0.146122	-0.451597	-0.405172	0.794919	-0.608763	0.791268	0.057471	-0.652279	-0.457963	-0.603988
21082	16.105254	1.003270	4.698874	0.635531	-2.808470	0.163173	-0.470642	-0.416674	0.777740	-0.612120	0.789033	0.052306	-0.635457	-0.451453	-0.626406
21083	17.028098	2.315888	4.687649	0.655898	-2.789930	0.182166	-0.489149	-0.427753	0.760106	-0.615432	0.786804	0.046730	-0.618043	-0.444935	-0.648117
21084	17.388062	3.794090	3.231732	0.635666	-2.785040	0.223162	-0.507457	-0.438313	0.741869	-0.618211	0.784948	0.040893	-0.600252	-0.437880	-0.669297
21085	18.233642	4.156639	0.428845	0.634697	-2.792045	0.290297	-0.525625	-0.448172	0.723091	-0.620574	0.783391	0.034442	-0.581899	-0.430628	-0.689894
21086	18.152416	3.043999	-1.760734	0.528526	-2.704830	0.459531	-0.543945	-0.456131	0.704321	-0.621165	0.783197	0.027489	-0.564161	-0.422547	-0.709349
21087	16.522927	2.525089	-5.255633	0.597264	-2.594303	0.545969	-0.561576	-0.462745	0.685929	-0.621603	0.783093	0.019382	-0.546115	-0.415491	-0.727410
21088	14.578168	3.633446	-7.136976	1.100440	-2.363930	0.627605	-0.578122	-0.467650	0.668640	-0.623946	0.781436	0.007061	-0.525801	-0.413113	-0.743553
21089	13.067019	2.722284	-8.788526	0.507676	-2.392034	0.647510	-0.594354	-0.472413	0.650822	-0.622930	0.782277	-0.001049	-0.508628	-0.406039	-0.759230
21090	13.078227	-0.260177	-10.150781	0.260382	-2.373572	0.497357	-0.609300	-0.478068	0.632617	-0.621262	0.783578	-0.006215	-0.492734	-0.396808	-0.774440
21091	12.442497	-0.491753	-7.300944	0.578690	-2.138055	0.390748	-0.621903	-0.483472	0.616029	-0.621822	0.783047	-0.013200	-0.475998	-0.391270	-0.787613
21092	11.431738	0.945808	-5.561898	0.466707	-1.821234	0.217860	-0.631765	-0.488866	0.601567	-0.622668	0.782274	-0.018208	-0.461689	-0.386080	-0.798615
21093	9.749272	1.711636	-6.623186	0.151016	-0.923395	-0.042033	-0.635540	-0.492794	0.594342	-0.623805	0.781344	-0.019200	-0.454924	-0.382956	-0.803983
21094	5.744753	1.877389	-14.028895	-0.409889	-0.254501	-0.269821	-0.634984	-0.495892	0.592357	-0.623676	0.781552	-0.014281	-0.455876	-0.378507	-0.805549
21095	1.609646	-0.568405	-11.149503	-0.353914	-0.600680	-0.421299	-0.634897	-0.501488	0.587721	-0.624909	0.780646	-0.008963	-0.454307	-0.372962	-0.809014
21096	3.696334	-3.506275	-8.056158	0.250163	-0.784218	-0.536909	-0.635035	-0.508607	0.581420	-0.629470	0.776985	-0.007834	-0.447771	-0.370962	-0.813566
21097	8.378333	-2.294920	-4.018540	0.950946	-0.505891	-0.564232	-0.633519	-0.514910	0.577513	-0.637424	0.770415	-0.012338	-0.438572	-0.375937	-0.816288
21098	10.085850	0.480214	-4.649273	1.472310	0.413291	-0.510431	-0.628410	-0.517259	0.580985	-0.647075	0.762127	-0.021362	-0.431735	-0.389365	-0.813634
21099	7.665299	3.301009	-5.002884	1.017490	1.028553	-0.379895	-0.621298	-0.516117	0.589586	-0.654017	0.755983	-0.027416	-0.431567	-0.402632	-0.807240
21100	5.228501	3.951345	-5.524080	0.103600	1.360517	-0.331085	-0.613172	-0.513104	0.600620	-0.656535	0.753839	-0.026258	-0.439298	-0.410429	-0.799103
21101	3.165697	3.474392	-6.738157	-0.925402	1.668382	-0.378524	-0.603024	-0.509137	0.614119	-0.654863	0.755565	-0.016627	-0.455541	-0.412190	-0.789039
21102	2.415384	1.923888	-7.189688	-1.660992	1.699941	-0.408842	-0.592401	-0.505281	0.627497	-0.649588	0.760286	-0.001049	-0.476547	-0.408236	-0.778618
21103	3.541885	-0.118325	-7.068570	-1.886865	1.915206	-0.410859	-0.580202	-0.500671	0.642413	-0.642929	0.765756	0.016132	-0.500009	-0.403666	-0.766189
21104	4.690973	-1.652446	-7.142622	-1.702965	2.195149	-0.379970	-0.566503	-0.494771	0.658996	-0.636414	0.770702	0.031550	-0.523500	-0.401521	-0.751484
21105	5.958048	-1.872720	-6.642855	-1.342105	2.513762	-0.296510	-0.550989	-0.486962	0.677701	-0.631033	0.774536	0.043496	-0.546085	-0.403686	-0.734050
21106	7.745280	-1.560892	-6.997600	-0.842751	2.778214	-0.228325	-0.534062	-0.477440	0.697731	-0.627604	0.776848	0.051193	-0.566472	-0.410559	-0.714529
21107	7.426845	-1.145870	-7.017365	-0.783173	3.456642	-0.098436	-0.513270	-0.463843	0.722083	-0.623738	0.779525	0.057376	-0.589495	-0.420941	-0.689423
21108	5.488691	-0.929820	-7.209585	-0.710513	3.709021	-0.071969	-0.490493	-0.448597	0.747112	-0.619848	0.782210	0.062730	-0.612539	-0.432328	-0.661731
21109	4.973452	-0.763535	-7.927030	-0.694149	3.945254	-0.042553	-0.465409	-0.431625	0.772718	-0.615865	0.784953	0.067523	-0.635693	-0.444464	-0.631147
21110	5.097175	-1.121784	-8.356897	-0.690931	4.116461	-0.002565	-0.438716	-0.413118	0.798036	-0.611422	0.788039	0.071817	-0.658552	-0.456430	-0.598315
21111	5.230815	-1.985066	-8.217653	-0.498819	4.401939	0.068394	-0.409475	-0.392153	0.823739	-0.607931	0.790521	0.074140	-0.680257	-0.470419	-0.562100
21112	5.111767	-2.382562	-8.147456	-0.105543	4.598296	0.158128	-0.378682	-0.368900	0.848830	-0.606596	0.791613	0.073418	-0.699029	-0.487095	-0.523543
21113	5.315158	-2.277381	-8.339179	0.298067	4.792991	0.198117	-0.345827	-0.343471	0.873173	-0.608120	0.790736	0.070193	-0.714558	-0.506719	-0.482330
21114	5.399227	-1.230435	-8.255429	0.719555	5.039027	0.169114	-0.310502	-0.316051	0.896493	-0.612766	0.787553	0.065413	-0.726710	-0.529029	-0.438202
21115	5.570253	-0.261350	-8.105659	0.855595	5.206584	0.138463	-0.273093	-0.286770	0.918250	-0.618748	0.783249	0.060590	-0.736594	-0.551619	-0.391338
21116	6.219234	0.297361	-7.954080	0.861896	5.309625	0.116125	-0.234442	-0.256020	0.937812	-0.624850	0.778706	0.056380	-0.744714	-0.572774	-0.342536
21117	7.239454	0.468270	-7.765772	0.823019	5.404375	0.149450	-0.194810	-0.223310	0.955082	-0.630793	0.774183	0.052349	-0.751099	-0.592261	-0.291680
21118	7.990254	0.626282	-7.734836	0.830886	5.569991	0.180557	-0.153944	-0.188433	0.969945	-0.636748	0.769549	0.048441	-0.755548	-0.610154	-0.238452
21119	8.219175	0.695543	-7.811720	0.685046	5.783788	0.218495	-0.111413	-0.150957	0.982242	-0.641733	0.765614	0.044875	-0.758793	-0.625337	-0.182173
21120	8.294006	0.908877	-7.950135	0.691588	5.880822	0.255497	-0.068359	-0.111850	0.991371	-0.646761	0.761572	0.041326	-0.759623	-0.638356	-0.124400
21121	9.017110	1.236745	-7.566618	0.496931	5.987591	0.289781	-0.024652	-0.071086	0.997166	-0.650463	0.758587	0.037997	-0.759138	-0.647682	-0.064939
21122	10.025557	0.653363	-6.934571	0.239218	6.029290	0.282206	0.019291	-0.029749	0.999371	-0.652273	0.757169	0.035131	-0.757738	-0.652541	-0.004798
21123	10.805767	-0.396266	-6.997653	0.189083	6.159902	0.291336	0.064050	0.012752	0.997865	-0.653860	0.755926	0.032309	-0.753900	-0.654533	0.056756
21124	11.789603	-0.370573	-5.950002	0.246387	6.045863	0.208526	0.108111	0.053895	0.992677	-0.655889	0.754242	0.030482	-0.747076	-0.654381	0.116891
21125	12.448574	-0.610628	-4.982065	-0.119722	5.981059	0.234380	0.151137	0.094659	0.983970	-0.655314	0.754836	0.028040	-0.740081	-0.649048	0.176115
21126	12.444472	-0.629430	-5.580350	-0.082621	5.674585	0.247600	0.191301	0.133157	0.972457	-0.655128	0.755088	0.025483	-0.730898	-0.641959	0.231684
21127	12.405680	-0.937806	-4.282572	-0.176930	5.385829	0.331420	0.228297	0.169965	0.958641	-0.654528	0.755721	0.021886	-0.720745	-0.632454	0.283775
21128	11.182128	-2.961657	-1.926209	0.201226	5.273700	0.425267	0.263188	0.206302	0.942429	-0.657004	0.753660	0.018499	-0.706455	-0.624048	0.333896
21129	7.443526	-1.171543	1.173280	0.694621	4.916254	0.424074	0.294734	0.239991	0.924952	-0.663006	0.748419	0.017078	-0.688153	-0.618282	0.379700
21130	4.742361	0.087270	2.269188	0.593363	3.839781	0.397671	0.318250	0.266588	0.909752	-0.668254	0.743765	0.015821	-0.672424	-0.612980	0.414851
21131	2.456136	-1.411856	-0.571810	-0.099987	3.176527	0.194528	0.338212	0.287315	0.896138	-0.668198	0.743857	0.013694	-0.662664	-0.603429	0.443565
21132	-3.098366	0.639177	6.274119	-0.161327	2.434235	-0.190669	0.355564	0.300470	0.885038	-0.666464	0.745392	0.014692	-0.655286	-0.595070	0.465287
21133	-4.418396	2.363278	2.716125	-0.015535	0.533058	-0.331928	0.361318	0.301134	0.882478	-0.665154	0.746498	0.017605	-0.653467	-0.593345	0.470024
21134	-1.285240	3.645883	0.522375	-0.584561	-1.081033	-0.322055	0.356383	0.292302	0.887440	-0.660146	0.750927	0.017767	-0.661210	-0.592172	0.460580
21135	0.732579	3.819621	-2.482966	-1.057051	-2.292141	-0.330417	0.343285	0.276222	0.897695	-0.651903	0.758134	0.016014	-0.676149	-0.590707	0.440326
21136	7.233694	2.670744	-2.984400	-1.225852	-3.460912	-0.311302	0.321598	0.253393	0.912341	-0.642450	0.766206	0.013657	-0.695581	-0.590526	0.409203
21137	9.458497	2.514211	-2.732721	-1.363865	-3.027447	-0.210663	0.301675	0.233873	0.924281	-0.632141	0.774786	0.010278	-0.713716	-0.587376	0.381573
21138	12.517741	-0.919186	1.430214	-2.277386	-2.830859	-0.186346	0.282350	0.215934	0.934693	-0.615077	0.788458	0.003651	-0.736178	-0.575939	0.355437
21139	20.915554	-6.565190	6.900481	-2.289075	-2.091695	-0.140872	0.267665	0.202821	0.941923	-0.597554	0.801824	-0.002848	-0.755834	-0.562087	0.335816
21140	21.656450	-11.026035	4.692870	0.062773	-0.725511	-0.050442	0.262514	0.198316	0.944329	-0.597888	0.801576	-0.002130	-0.757374	-0.564044	0.328996
21141	11.781275	-3.816460	3.984867	2.119632	0.220799	-0.293205	0.265992	0.197197	0.943590	-0.612995	0.790049	0.007691	-0.743966	-0.580461	0.331028
21142	5.754924	1.948194	4.557030	1.738625	-0.571030	-0.223378	0.263191	0.192071	0.945431	-0.625252	0.780268	0.015542	-0.734704	-0.595223	0.325453
21143	9.912551	5.254231	3.466873	0.728149	-1.820828	-0.180033	0.250986	0.179712	0.951162	-0.630117	0.776253	0.019607	-0.734819	-0.604264	0.308068
21144	14.841508	5.826009	1.169279	-1.504852	-1.984577	-0.159458	0.237295	0.166542	0.957055	-0.618556	0.785564	0.016667	-0.749052	-0.595947	0.289426
21145	16.731221	-2.358116	0.204944	-3.230992	-2.005864	-0.061141	0.222449	0.154255	0.962664	-0.593774	0.804589	0.008281	-0.773272	-0.573447	0.270572
21146	16.489717	-7.012325	0.177790	-1.976209	-2.089108	-0.160049	0.207101	0.141096	0.968092	-0.577984	0.816034	0.004712	-0.789331	-0.560517	0.250553
21147	13.320013	0.141302	-0.490521	0.618393	-2.141668	-0.554751	0.193441	0.124424	0.973190	-0.581717	0.813308	0.011645	-0.790055	-0.568373	0.229707
21148	11.041039	8.761598	-2.381616	0.635110	-2.648408	-0.649798	0.176331	0.103970	0.978825	-0.585533	0.810416	0.019399	-0.791238	-0.576555	0.203780
21149	10.680171	7.139914	-4.773801	-1.073551	-2.586397	-0.628241	0.159413	0.083928	0.983638	-0.575859	0.817208	0.023599	-0.801856	-0.570199	0.178605
21150	8.092702	2.675151	-6.037637	-1.519800	-2.086085	-0.540279	0.145675	0.067690	0.987014	-0.562755	0.826202	0.026397	-0.813686	-0.559293	0.158450
21151	7.609859	-1.580872	-5.656939	-0.891352	-1.971215	-0.514047	0.132462	0.052320	0.989806	-0.554646	0.831536	0.030272	-0.821475	-0.553002	0.139166
21152	7.545437	-0.318292	-4.878454	0.492119	-1.739057	-0.487983	0.120932	0.038591	0.991910	-0.558068	0.829024	0.035785	-0.820936	-0.557880	0.121792
21153	7.880036	1.413298	-4.147618	0.525764	-1.687634	-0.407521	0.109384	0.025605	0.993670	-0.561794	0.826283	0.040551	-0.820014	-0.562673	0.104766
21154	10.218412	0.135666	-3.307941	0.534817	-1.771994	-0.388405	0.097091	0.012371	0.995199	-0.565775	0.823333	0.044961	-0.818824	-0.567424	0.086937
21155	12.164097	2.249656	-3.121371	0.643130	-1.557977	-0.345306	0.086317	0.000483	0.996268	-0.570588	0.819771	0.049039	-0.816688	-0.572691	0.071036
21156	11.618671	3.615085	-2.407660	-0.072969	-1.370966	-0.295172	0.076831	-0.009801	0.996996	-0.569750	0.820173	0.051969	-0.818219	-0.572031	0.057430
21157	10.615172	1.822204	-2.447705	-0.799388	-1.193288	-0.262988	0.068522	-0.018939	0.997470	-0.562849	0.824773	0.054325	-0.823715	-0.565147	0.045855
21158	9.823506	-0.435295	-2.584655	-1.033919	-1.052855	-0.241469	0.061201	-0.026859	0.997764	-0.554142	0.830513	0.056347	-0.830169	-0.556352	0.035945
21159	9.226536	-0.973662	-2.081006	-0.804214	-1.029124	-0.230670	0.053892	-0.034664	0.997945	-0.547156	0.834980	0.058551	-0.835294	-0.549187	0.026032
21160	9.198854	0.167499	-1.663105	-0.438616	-1.064246	-0.248672	0.046380	-0.042585	0.998016	-0.543362	0.837281	0.060977	-0.838216	-0.545112	0.015694
21161	9.525993	0.878700	-1.406938	-0.219305	-1.043466	-0.256576	0.038997	-0.050603	0.997957	-0.541256	0.838444	0.063666	-0.839953	-0.542633	0.005308
21162	9.974024	1.293109	-1.229327	-0.044868	-0.997248	-0.242754	0.031968	-0.058064	0.997801	-0.540793	0.838552	0.066123	-0.840548	-0.541718	-0.004593
21163	9.955006	1.706556	-1.134230	-0.061547	-0.912029	-0.236826	0.025556	-0.065181	0.997546	-0.540048	0.838830	0.068646	-0.841246	-0.540477	-0.013764
21164	9.841981	1.184663	-0.994912	-0.112021	-0.865893	-0.212016	0.019449	-0.071652	0.997240	-0.539058	0.839286	0.070816	-0.842044	-0.538948	-0.022301
21165	9.858144	0.448575	-0.398515	-0.042254	-0.867774	-0.187825	0.013125	-0.078098	0.996859	-0.538508	0.839465	0.072857	-0.842518	-0.537773	-0.031038
21166	9.757200	0.768936	-0.231608	0.135941	-0.854601	-0.171692	0.006891	-0.084155	0.996429	-0.539637	0.838590	0.074556	-0.841869	-0.538224	-0.039635
21167	9.468423	1.553178	-0.255183	0.062288	-0.872752	-0.153309	0.000343	-0.090328	0.995912	-0.539996	0.838210	0.076211	-0.841668	-0.537814	-0.048489
21168	9.407435	1.611529	-0.417055	-0.168742	-0.904199	-0.131757	-0.006524	-0.096305	0.995331	-0.538581	0.838989	0.077647	-0.842549	-0.535559	-0.057341
21169	9.511542	1.158110	-0.992709	-0.331374	-0.930304	-0.108274	-0.013819	-0.102370	0.994650	-0.535635	0.840738	0.079087	-0.844336	-0.531677	-0.066451
21170	9.861402	0.422193	-1.490537	-0.364571	-0.946306	-0.097092	-0.021262	-0.108218	0.993900	-0.532573	0.842562	0.080347	-0.846117	-0.527616	-0.075549
21171	10.296634	-0.971355	-1.960774	-0.151127	-0.932584	-0.079535	-0.028766	-0.113986	0.993066	-0.531152	0.843356	0.081416	-0.846788	-0.525127	-0.084804
21172	9.892427	-0.937210	-1.703793	0.339998	-0.858466	-0.091607	-0.035502	-0.119293	0.992224	-0.534060	0.841455	0.082058	-0.844701	-0.526994	-0.093583
21173	9.556452	0.494617	-1.756515	0.708123	-0.839829	-0.122620	-0.041959	-0.124947	0.991276	-0.539921	0.837640	0.082728	-0.840669	-0.531740	-0.102608
21174	9.610802	2.061749	-1.929129	0.771645	-0.841869	-0.083366	-0.048527	-0.130162	0.990305	-0.546431	0.833405	0.082763	-0.836097	-0.537117	-0.111567
21175	9.262728	2.811519	-1.968795	0.531151	-0.847377	-0.059064	-0.055315	-0.135395	0.989246	-0.550740	0.830552	0.082880	-0.832842	-0.540233	-0.120510
21176	9.667194	2.458216	-2.205148	0.291478	-0.884341	-0.042458	-0.062400	-0.140550	0.988105	-0.553193	0.828911	0.082971	-0.830713	-0.541435	-0.129475
21177	9.878211	2.095680	-2.158840	0.112178	-0.817411	-0.034507	-0.069038	-0.145442	0.986955	-0.553986	0.828347	0.083317	-0.829659	-0.541007	-0.137760
21178	9.772351	1.323215	-2.456593	0.021285	-0.734155	-0.040845	-0.074863	-0.149768	0.985883	-0.554195	0.828165	0.083726	-0.829013	-0.540104	-0.145000
21179	9.665871	0.826204	-2.376642	0.064060	-0.694004	-0.025583	-0.080519	-0.153910	0.984799	-0.554581	0.827875	0.084042	-0.828225	-0.539384	-0.152015
21180	9.292920	0.704654	-2.266860	0.124441	-0.653962	-0.035522	-0.085696	-0.157751	0.983753	-0.555645	0.827142	0.084234	-0.826992	-0.539399	-0.158536
21181	9.323381	0.838526	-2.260021	0.188818	-0.683780	-0.035519	-0.091198	-0.161915	0.982582	-0.557072	0.826161	0.084435	-0.825441	-0.539669	-0.165542
21182	9.358500	0.972368	-2.044654	0.175678	-0.659622	-0.026146	-0.096454	-0.165711	0.981446	-0.558550	0.825163	0.084431	-0.823844	-0.540042	-0.172148
21183	9.461565	1.104436	-2.087013	0.186048	-0.671187	-0.007857	-0.101986	-0.169581	0.980225	-0.559925	0.824239	0.084338	-0.822242	-0.540252	-0.179013
21184	9.770743	1.083591	-2.229317	0.170854	-0.687529	-0.006960	-0.107557	-0.173373	0.978965	-0.561340	0.823298	0.084131	-0.820566	-0.540484	-0.185873
21185	9.955944	1.211630	-2.207224	0.189809	-0.664833	-0.012192	-0.112992	-0.177243	0.977659	-0.562747	0.822345	0.084047	-0.818870	-0.540678	-0.192661
21186	9.850400	1.116274	-2.083374	0.179872	-0.620125	-0.027272	-0.117873	-0.180841	0.976423	-0.564255	0.821317	0.083998	-0.817143	-0.541050	-0.198852
21187	9.522013	1.081207	-2.126603	0.233682	-0.618350	-0.025271	-0.122831	-0.184570	0.975114	-0.566031	0.820101	0.083928	-0.815182	-0.541635	-0.205206
21188	9.508680	0.900574	-2.042592	0.221772	-0.669673	-0.030332	-0.128074	-0.188467	0.973693	-0.567879	0.818835	0.083797	-0.813087	-0.542207	-0.211898
21189	9.781171	0.403421	-2.187862	0.258087	-0.691742	-0.011274	-0.133682	-0.192482	0.972152	-0.569830	0.817509	0.083506	-0.810816	-0.542798	-0.218968
21190	9.759300	0.242432	-1.743212	0.356212	-0.686564	0.006109	-0.139236	-0.196184	0.970631	-0.572709	0.815577	0.082690	-0.807847	-0.544376	-0.225914
21191	9.723612	0.056194	-1.116454	0.469794	-0.763768	-0.004463	-0.145422	-0.200550	0.968830	-0.576348	0.813100	0.081803	-0.804161	-0.546488	-0.233829
21192	9.607418	0.171101	-0.550236	0.642524	-0.837140	-0.014255	-0.152013	-0.205274	0.966827	-0.581526	0.809541	0.080447	-0.799199	-0.550006	-0.242433
21193	9.226463	1.287243	0.428248	0.724323	-0.869735	-0.008531	-0.158943	-0.210296	0.964631	-0.587164	0.805615	0.078882	-0.793710	-0.553859	-0.251525
21194	9.318717	1.618902	0.657228	0.624793	-1.010232	0.019962	-0.167015	-0.215764	0.962056	-0.592080	0.802181	0.077122	-0.788383	-0.556733	-0.261726
21195	9.353351	1.641508	1.052704	0.505387	-1.079246	0.064788	-0.175929	-0.221405	0.959181	-0.595806	0.799592	0.075287	-0.783623	-0.558241	-0.272586
21196	9.082676	1.004876	1.223902	0.492972	-1.209849	0.117921	-0.186046	-0.227244	0.955901	-0.599449	0.797093	0.072821	-0.778491	-0.559466	-0.284517
21197	8.616261	1.252013	1.110834	0.555229	-1.326736	0.122352	-0.197110	-0.233831	0.952088	-0.603397	0.794348	0.070169	-0.772697	-0.560655	-0.297666
21198	8.735749	0.966195	0.711328	0.508281	-1.492975	0.137593	-0.209396	-0.241132	0.947633	-0.607036	0.791815	0.067348	-0.766590	-0.561145	-0.312179
21199	9.086816	0.991345	0.626592	0.461927	-1.647262	0.135963	-0.222830	-0.249414	0.942412	-0.610155	0.789635	0.064711	-0.760301	-0.560598	-0.328135
21200	9.676395	0.988156	0.197646	0.386925	-1.750398	0.128661	-0.236832	-0.258218	0.936608	-0.612797	0.787786	0.062236	-0.753917	-0.559211	-0.344808
21201	10.071787	0.699967	0.282970	0.272042	-1.837872	0.114293	-0.251357	-0.267674	0.930145	-0.614458	0.786639	0.060329	-0.747837	-0.556371	-0.362202
21202	10.678908	0.296439	-0.254596	0.181199	-1.928229	0.116632	-0.266398	-0.277468	0.923062	-0.615515	0.785943	0.058611	-0.741737	-0.552545	-0.380159
21203	10.987810	0.450442	0.230319	0.196069	-2.026721	0.149058	-0.282297	-0.287541	0.915221	-0.616465	0.785346	0.056591	-0.735037	-0.548226	-0.398960
21204	11.218676	0.184177	-0.461009	0.188129	-2.160371	0.182741	-0.299187	-0.297918	0.906495	-0.617320	0.784844	0.054192	-0.727601	-0.543383	-0.418725
21205	11.562539	0.498693	0.791911	0.040381	-2.281688	0.201245	-0.316954	-0.308734	0.896785	-0.616919	0.785286	0.052309	-0.720383	-0.536664	-0.439363
21206	11.830948	-0.080665	0.943147	0.002189	-2.380327	0.202285	-0.335220	-0.319851	0.886185	-0.616286	0.785899	0.050530	-0.712614	-0.529205	-0.460569
21207	11.763017	-0.614524	2.010216	-0.110776	-2.557013	0.199889	-0.354560	-0.331750	0.874202	-0.614759	0.787167	0.049386	-0.704527	-0.519913	-0.483044
21208	13.015762	-1.643645	3.116179	-0.055932	-2.818917	0.196315	-0.375451	-0.344740	0.860344	-0.613664	0.788107	0.047994	-0.694588	-0.509943	-0.507450
21209	15.159587	-2.415275	3.606782	0.069783	-3.019292	0.195126	-0.397408	-0.358486	0.844722	-0.613369	0.788453	0.046040	-0.682528	-0.499829	-0.533222
21210	16.959272	-3.167656	3.280788	0.325848	-3.068799	0.187272	-0.419246	-0.372238	0.828053	-0.614819	0.787510	0.042727	-0.668004	-0.491190	-0.559020
21211	17.298418	-3.060118	2.126366	0.729062	-3.038027	0.190468	-0.440388	-0.385595	0.810787	-0.618832	0.784650	0.037039	-0.650466	-0.485429	-0.584168
21212	17.162644	-2.850558	2.664452	0.899060	-3.105740	0.248010	-0.461792	-0.398671	0.792344	-0.623490	0.781266	0.029716	-0.630879	-0.480296	-0.609350
21213	17.856281	-1.553125	3.444500	1.297364	-3.148576	0.326406	-0.483243	-0.411218	0.772901	-0.630056	0.776315	0.019102	-0.607870	-0.477740	-0.634238
21214	18.598257	1.236568	2.638028	1.762568	-3.088249	0.357528	-0.503842	-0.423241	0.753001	-0.638792	0.769363	0.005015	-0.581453	-0.478484	-0.658001
21215	16.705676	4.201139	0.070961	2.014343	-2.744228	0.538088	-0.522752	-0.432308	0.734738	-0.647586	0.761891	-0.012461	-0.554403	-0.482320	-0.678236
21216	15.089514	4.548650	-3.735353	1.427662	-2.688355	0.610377	-0.541273	-0.440645	0.716140	-0.652105	0.757659	-0.026682	-0.530833	-0.481440	-0.697447
21217	13.481549	4.726553	-6.222584	1.636702	-2.624580	0.683173	-0.559187	-0.448143	0.697479	-0.656959	0.752695	-0.043080	-0.505683	-0.482305	-0.715309
21218	13.587234	4.988996	-9.124887	0.852692	-2.605514	0.669934	-0.576467	-0.455621	0.678304	-0.657400	0.751616	-0.053836	-0.485295	-0.476952	-0.732807
21219	14.201349	2.447270	-11.715109	0.110660	-2.582367	0.584357	-0.592464	-0.463420	0.658960	-0.654641	0.753668	-0.058557	-0.469501	-0.466075	-0.749895
21220	12.304542	2.758711	-8.254056	0.275730	-2.187805	0.444198	-0.605444	-0.470198	0.642146	-0.653277	0.754451	-0.063508	-0.454606	-0.457950	-0.763947
21221	9.849487	3.811807	-5.881958	-0.141391	-2.125098	0.262744	-0.616523	-0.477857	0.625741	-0.651166	0.756226	-0.064069	-0.442586	-0.446961	-0.777395
21222	10.200487	2.310576	-6.508300	-0.426230	-1.399670	0.059278	-0.623029	-0.483615	0.614778	-0.648947	0.758378	-0.061080	-0.436694	-0.437013	-0.786332
21223	6.705396	1.314888	-10.745413	-0.673801	-0.357465	-0.164785	-0.623353	-0.486449	0.612208	-0.647152	0.760393	-0.054739	-0.438891	-0.430313	-0.788800
21224	2.391501	0.006320	-14.857536	-1.080285	-0.393853	-0.264262	-0.623351	-0.490158	0.609244	-0.644057	0.763678	-0.044564	-0.443423	-0.420167	-0.791730
21225	1.587204	-3.772071	-10.916807	-0.487593	-0.768335	-0.316665	-0.624554	-0.495810	0.603411	-0.643983	0.764058	-0.038738	-0.441835	-0.412780	-0.796489
21226	5.589629	-3.766053	-6.152204	0.496574	-0.654030	-0.375487	-0.624961	-0.501393	0.598355	-0.648528	0.760117	-0.040423	-0.434552	-0.413313	-0.800211
21227	8.947429	-1.542511	-4.628903	1.625480	0.144710	-0.376112	-0.621727	-0.503660	0.599818	-0.657968	0.751307	-0.051137	-0.424892	-0.426455	-0.798501
21228	8.616429	2.125253	-4.904091	1.631605	0.977927	-0.314442	-0.615479	-0.501774	0.607789	-0.666831	0.742610	-0.062189	-0.420146	-0.443568	-0.791659
21229	4.674917	2.755920	-5.555437	0.998230	1.394115	-0.278897	-0.607573	-0.497581	0.619086	-0.672859	0.736610	-0.068307	-0.422037	-0.458059	-0.782347
21230	3.898181	3.412512	-5.714644	0.183837	1.668226	-0.373851	-0.597904	-0.492626	0.632321	-0.675919	0.733890	-0.067372	-0.430865	-0.467680	-0.771771
21231	2.135619	3.022364	-7.521706	-0.584489	1.905435	-0.481853	-0.586125	-0.487226	0.647354	-0.676315	0.734184	-0.059769	-0.446156	-0.472847	-0.759842
21232	2.119543	2.326352	-7.355172	-1.311158	2.058941	-0.492093	-0.573370	-0.481127	0.663147	-0.673203	0.737986	-0.046640	-0.466953	-0.473174	-0.747035
21233	2.776262	0.812479	-7.205111	-1.450029	2.293801	-0.468399	-0.559098	-0.473757	0.680415	-0.669002	0.742540	-0.032707	-0.489740	-0.473486	-0.732097
21234	4.273792	0.129363	-6.616900	-1.406907	2.564968	-0.409472	-0.543469	-0.464660	0.699094	-0.664224	0.747274	-0.019678	-0.513272	-0.475050	-0.714758
21235	6.403823	0.044070	-5.990867	-1.374833	2.833861	-0.302499	-0.526425	-0.453442	0.719213	-0.658689	0.752375	-0.007776	-0.537592	-0.477831	-0.694746
21236	7.789837	0.009780	-6.332455	-1.441297	3.265819	-0.160813	-0.507347	-0.439008	0.741533	-0.651601	0.758555	0.003269	-0.563928	-0.481525	-0.670909
21237	7.001235	-0.063150	-7.345987	-1.521155	3.734677	-0.034194	-0.485375	-0.421210	0.766155	-0.643043	0.765710	0.013584	-0.592374	-0.486077	-0.642512
21238	5.458634	-0.316401	-7.582350	-1.632003	3.983482	0.035207	-0.461379	-0.401515	0.791148	-0.632986	0.773805	0.023571	-0.621658	-0.489910	-0.611171
21239	4.968752	-1.323982	-8.417515	-1.646027	4.181072	0.083785	-0.435145	-0.380309	0.816097	-0.622197	0.782176	0.032744	-0.650784	-0.493524	-0.576987
21240	4.579292	-2.626535	-8.188576	-1.332190	4.352932	0.138518	-0.407053	-0.357631	0.840481	-0.612781	0.789287	0.039072	-0.677353	-0.499126	-0.540431
21241	4.743913	-3.009492	-7.978332	-0.831258	4.534042	0.209296	-0.376947	-0.333135	0.864252	-0.606287	0.794153	0.041680	-0.700234	-0.508274	-0.501329
21242	4.703312	-2.776808	-8.197340	-0.372122	4.706450	0.270251	-0.345129	-0.306793	0.886997	-0.602682	0.796920	0.041135	-0.719486	-0.520381	-0.459939
21243	5.180253	-1.854941	-8.205636	0.148502	4.836209	0.254832	-0.311364	-0.279216	0.908345	-0.602975	0.796842	0.038252	-0.734488	-0.535799	-0.416469
21244	5.993982	-0.281515	-7.542998	0.374195	4.936168	0.202762	-0.275987	-0.250770	0.927872	-0.605162	0.795335	0.034950	-0.746733	-0.551867	-0.371259
21245	6.743617	0.366623	-7.482921	0.539126	5.002989	0.143969	-0.239130	-0.221606	0.945361	-0.608883	0.792623	0.031785	-0.756359	-0.568013	-0.324472
21246	7.891655	1.006290	-7.230694	0.573854	5.110849	0.092169	-0.200792	-0.191472	0.960740	-0.613052	0.789502	0.029219	-0.764101	-0.583116	-0.275908
21247	8.409461	0.759768	-6.825253	0.501306	5.267583	0.124802	-0.161017	-0.159424	0.973990	-0.616695	0.786745	0.026825	-0.770559	-0.596336	-0.224995
21248	8.618089	0.183920	-6.519684	0.542826	5.368188	0.155511	-0.120453	-0.125879	0.984706	-0.620677	0.783691	0.024259	-0.774759	-0.608262	-0.172528
21249	9.145337	0.227412	-6.403815	0.690175	5.453144	0.161328	-0.079065	-0.091149	0.992694	-0.625874	0.779621	0.021736	-0.775906	-0.619582	-0.118689
21250	9.857876	0.249483	-6.432682	0.575699	5.543018	0.145051	-0.036928	-0.055448	0.997778	-0.630259	0.776133	0.019804	-0.775506	-0.628127	-0.063608
21251	10.326699	-0.186846	-5.751813	0.509074	5.646225	0.120350	0.006137	-0.018904	0.999802	-0.634172	0.772971	0.018508	-0.773168	-0.634160	-0.007245
21252	10.427766	-0.909629	-4.467713	0.465112	5.634453	0.064259	0.049216	0.017419	0.998636	-0.637775	0.770012	0.018000	-0.768649	-0.637791	0.049006
21253	11.215462	-1.038455	-3.580899	0.625691	5.474239	-0.132708	0.092023	0.051353	0.994432	-0.642441	0.766077	0.019890	-0.760790	-0.640694	0.103488
21254	11.799302	-0.880198	-2.896231	0.578811	5.440544	-0.229952	0.134677	0.084465	0.987283	-0.646552	0.762524	0.022961	-0.750888	-0.641422	0.157306
21255	12.485145	-0.525421	-4.286641	0.449221	5.225240	-0.303787	0.175681	0.115566	0.977640	-0.649393	0.759979	0.026859	-0.739882	-0.639591	0.208561
21256	12.501800	-0.570296	-2.948161	0.520992	5.001962	-0.277030	0.214211	0.145383	0.965908	-0.652666	0.757019	0.030801	-0.726733	-0.637013	0.257048
21257	11.902009	-0.054351	-3.453387	0.739642	4.900175	-0.265322	0.251240	0.174460	0.952073	-0.657311	0.752782	0.035515	-0.710507	-0.634731	0.303803
21258	10.656636	0.401237	-1.255700	0.726077	4.627143	-0.240155	0.285347	0.201941	0.936908	-0.661754	0.748644	0.040183	-0.693296	-0.631469	0.347258
21259	8.021671	-0.216324	0.770272	0.537838	4.263110	-0.146544	0.315598	0.227551	0.921205	-0.664929	0.745632	0.043618	-0.676955	-0.626301	0.386625
21260	5.711797	-0.185666	1.943628	0.489311	3.621194	-0.178928	0.341071	0.248795	0.906516	-0.667604	0.743015	0.047260	-0.661797	-0.621313	0.419517
21261	2.311915	-0.862865	0.704726	-0.116623	2.949379	-0.278371	0.362373	0.264812	0.893622	-0.665785	0.744509	0.049358	-0.652239	-0.612846	0.446098
21262	-1.978688	0.264165	6.898916	0.256565	1.995429	-0.519525	0.378794	0.273124	0.884262	-0.665508	0.744349	0.055177	-0.643129	-0.609384	0.463720
21263	-1.488118	1.872152	4.873441	0.206661	0.521790	-0.779063	0.387386	0.270404	0.881370	-0.663784	0.745257	0.063107	-0.639783	-0.609487	0.468192
21264	-0.873661	2.756719	1.981702	-0.364218	-0.629771	-0.778185	0.388524	0.260737	0.883779	-0.658411	0.749552	0.068313	-0.644626	-0.608431	0.462891
21265	2.250389	2.748507	-0.773542	-0.681332	-1.938419	-0.652685	0.380261	0.243941	0.892129	-0.651408	0.755389	0.071105	-0.656559	-0.608178	0.446150
21266	7.323280	3.170435	-0.276245	-0.596589	-2.450850	-0.467945	0.367082	0.225457	0.902452	-0.645689	0.760128	0.072740	-0.669579	-0.609405	0.424605
21267	7.648936	1.685117	-1.213757	-1.047505	-2.818816	-0.301753	0.349981	0.205885	0.913852	-0.637428	0.767207	0.071271	-0.686439	-0.607458	0.399745
21268	10.398158	2.358731	4.093884	-1.974629	-2.547659	-0.146201	0.333181	0.189390	0.923646	-0.623151	0.779398	0.064973	-0.707583	-0.597218	0.377700
21269	16.233227	-1.300211	7.164644	-2.527646	-2.380913	-0.095063	0.316713	0.174476	0.932336	-0.604574	0.794530	0.056686	-0.730878	-0.581619	0.357122
21270	19.995555	-5.222577	8.714898	-2.277010	-1.550165	-0.000770	0.305282	0.165555	0.937760	-0.587707	0.807604	0.048747	-0.749269	-0.566010	0.343845
21271	15.629606	-7.199357	4.585267	-0.982109	-0.954078	0.166455	0.297183	0.161430	0.941075	-0.580738	0.812904	0.043948	-0.757909	-0.559578	0.335330
21272	8.930411	-6.059442	3.322263	-0.732052	-1.153082	0.251334	0.286983	0.157029	0.944977	-0.575884	0.816591	0.039197	-0.765505	-0.555446	0.324779
21273	9.801121	-5.106733	0.937965	-0.269484	-2.141691	0.258052	0.269071	0.147163	0.951811	-0.574484	0.817725	0.035972	-0.773026	-0.556479	0.304568
21274	13.007289	-1.103763	0.575072	-0.428710	-2.544678	-0.023127	0.249453	0.132791	0.959239	-0.571080	0.820149	0.034974	-0.782075	-0.556527	0.280423
21275	13.958590	-0.642807	0.151054	-0.669846	-2.499530	-0.198719	0.230945	0.117217	0.965880	-0.565294	0.824140	0.035148	-0.791901	-0.554123	0.256594
21276	13.085936	4.129741	0.401519	0.056343	-2.721854	-0.480857	0.212066	0.098104	0.972319	-0.564668	0.824349	0.039981	-0.797608	-0.557516	0.230213
21277	12.645363	11.425354	-2.054027	0.098685	-2.790392	-0.584074	0.193065	0.077611	0.978112	-0.564226	0.824340	0.045960	-0.802730	-0.560749	0.202941
21278	10.080396	11.027912	-4.721782	-1.374314	-2.625415	-0.449235	0.174369	0.059272	0.982895	-0.552274	0.832292	0.047785	-0.815223	-0.551160	0.177860
21279	7.829114	5.458684	-7.024184	-2.496932	-2.373970	-0.337736	0.156672	0.043443	0.986695	-0.531039	0.846039	0.047071	-0.832738	-0.531348	0.155620
21280	7.485445	-4.011682	-8.062108	-1.880161	-2.243467	-0.193858	0.138891	0.030020	0.989853	-0.514964	0.855960	0.046298	-0.845885	-0.516169	0.134345
21281	8.468793	-4.795785	-7.218961	0.295808	-1.823163	-0.372493	0.125398	0.017227	0.991957	-0.516853	0.854583	0.050496	-0.846840	-0.519028	0.116067
21282	8.353381	-0.152311	-5.569896	1.217210	-1.634243	-0.433834	0.113894	0.004943	0.993481	-0.526610	0.848250	0.056151	-0.842443	-0.529572	0.099214
21283	9.411584	0.192640	-4.203054	0.886880	-1.494778	-0.386605	0.103367	-0.006471	0.994622	-0.533524	0.843587	0.060936	-0.839445	-0.536953	0.083746
