// General information: 
//  MT Manager version: 2022.2.0 
//  XDA version: 2022.2.0 build 7381 rev 124627 built on 2023-07-19
// Device information: 
//  DeviceId: 00B4CBA7
//  ProductCode: MTW2-3A7G6
//  Firmware Version: 4.6.0
//  Hardware Version: 2.0.0
// Device settings: 
//  Filter Profile: human(46.1)
//  Option Flags: Orientation Smoother Disabled, Position/Velocity Smoother Disabled, Continuous Zero Rotation Update Disabled, AHS Disabled, ICC Disabled
// Coordinate system: ENU
PacketCounter	Acc_X	Acc_Y	Acc_Z	Gyr_X	Gyr_Y	Gyr_Z	Mat[1][1]	Mat[2][1]	Mat[3][1]	Mat[1][2]	Mat[2][2]	Mat[3][2]	Mat[1][3]	Mat[2][3]	Mat[3][3]
16845	9.665661	0.486964	-1.239361	-0.018139	0.020322	0.007620	0.126645	0.035304	0.991320	-0.114940	-0.992112	0.050017	0.985266	-0.120276	-0.121588
16846	9.683702	0.552556	-1.286546	-0.004006	0.027311	0.008147	0.126367	0.035297	0.991355	-0.115008	-0.992106	0.049984	0.985294	-0.120331	-0.121310
16847	9.725149	0.629588	-1.285295	-0.003653	0.030237	0.010069	0.125922	0.035350	0.991410	-0.115035	-0.992103	0.049986	0.985348	-0.120341	-0.120861
16848	9.715671	0.642119	-1.243666	0.000513	0.028354	0.013499	0.125627	0.035291	0.991450	-0.115066	-0.992104	0.049895	0.985382	-0.120350	-0.120574
16849	9.697316	0.621337	-1.177157	0.003444	0.033282	0.013449	0.125420	0.035282	0.991476	-0.115257	-0.992082	0.049883	0.985386	-0.120530	-0.120361
16850	9.688912	0.586621	-1.149151	0.010945	0.034576	0.018067	0.125059	0.035185	0.991525	-0.115191	-0.992098	0.049734	0.985440	-0.120434	-0.120018
16851	9.683429	0.512798	-1.076124	0.022947	0.029341	0.014215	0.124702	0.035080	0.991574	-0.114901	-0.992140	0.049550	0.985519	-0.120112	-0.119691
16852	9.782590	0.450510	-1.118553	0.030337	0.036202	0.013292	0.124330	0.035032	0.991622	-0.114638	-0.992177	0.049425	0.985596	-0.119823	-0.119341
16853	9.890794	0.421161	-1.184920	0.061250	0.045920	0.011489	0.123967	0.035024	0.991668	-0.114128	-0.992241	0.049311	0.985701	-0.119290	-0.119008
16854	9.975055	0.426508	-1.283450	0.113226	0.075889	0.008749	0.123209	0.035068	0.991761	-0.113042	-0.992375	0.049134	0.985921	-0.118164	-0.118305
16855	9.908501	0.827460	-1.267954	0.085202	0.077994	0.017847	0.122458	0.035084	0.991853	-0.112346	-0.992461	0.048976	0.986095	-0.117428	-0.117594
16856	9.691147	0.488472	-1.258894	-0.044148	0.079710	0.029023	0.121640	0.034931	0.991959	-0.112836	-0.992415	0.048783	0.986140	-0.117863	-0.116776
16857	9.598667	0.313164	-1.275520	0.024606	0.078274	0.017556	0.120921	0.034838	0.992051	-0.112664	-0.992445	0.048585	0.986248	-0.117643	-0.116083
16858	9.550095	0.607985	-1.155844	0.004082	0.074112	0.017442	0.120172	0.034793	0.992143	-0.112664	-0.992451	0.048450	0.986340	-0.117601	-0.115344
16859	9.600806	0.465687	-1.100906	0.003685	0.078087	0.022881	0.119391	0.034676	0.992242	-0.112651	-0.992463	0.048238	0.986436	-0.117536	-0.114585
16860	9.615645	0.442061	-1.020423	0.042895	0.081766	0.021355	0.118562	0.034600	0.992344	-0.112272	-0.992517	0.048020	0.986579	-0.117106	-0.113790
16861	9.586021	0.402657	-0.976907	0.040686	0.079571	0.024786	0.117706	0.034543	0.992447	-0.111885	-0.992570	0.047817	0.986725	-0.116669	-0.112967
16862	9.631177	0.415608	-0.932693	0.049324	0.074253	0.020244	0.116952	0.034469	0.992539	-0.111442	-0.992630	0.047604	0.986865	-0.116178	-0.112249
16863	9.644678	0.360534	-0.919204	0.049769	0.067821	0.020811	0.116191	0.034368	0.992632	-0.110905	-0.992702	0.047352	0.987016	-0.115590	-0.111531
16864	9.654011	0.414488	-0.931338	0.056237	0.057205	0.019263	0.115605	0.034284	0.992703	-0.110392	-0.992770	0.047142	0.987142	-0.115036	-0.110985
16865	9.630683	0.447258	-0.961065	0.066822	0.045583	0.014946	0.115102	0.034251	0.992763	-0.109738	-0.992850	0.046977	0.987274	-0.114350	-0.110520
16866	9.701560	0.629852	-0.974372	0.042253	0.036225	0.016663	0.114726	0.034168	0.992809	-0.109359	-0.992900	0.046808	0.987359	-0.113943	-0.110175
16867	9.702197	0.549722	-1.051125	0.000460	0.028351	0.013399	0.114515	0.034103	0.992836	-0.109389	-0.992900	0.046723	0.987381	-0.113956	-0.109972
16868	9.704626	0.454737	-1.076056	-0.011798	0.021340	0.013921	0.114290	0.034030	0.992864	-0.109541	-0.992887	0.046640	0.987390	-0.114090	-0.109750
16869	9.702556	0.492161	-1.119478	-0.019265	0.020735	0.015721	0.113999	0.033857	0.992904	-0.109572	-0.992894	0.046437	0.987420	-0.114088	-0.109479
16870	9.694131	0.434371	-1.099063	-0.009615	0.027312	0.017389	0.113710	0.033757	0.992940	-0.109706	-0.992884	0.046318	0.987438	-0.114198	-0.109198
16871	9.719489	0.350236	-1.074331	0.086894	0.056757	0.021039	0.113163	0.033637	0.993007	-0.108891	-0.992987	0.046046	0.987591	-0.113340	-0.108707
16872	9.600738	0.357862	-1.027586	0.121582	0.063115	0.021139	0.112518	0.033539	0.993084	-0.107733	-0.993127	0.045747	0.987792	-0.112135	-0.108131
16873	9.611008	0.442627	-0.974020	0.144707	0.066063	0.018908	0.111847	0.033440	0.993163	-0.106283	-0.993298	0.045414	0.988025	-0.110635	-0.107543
16874	9.676624	0.426871	-1.008803	0.129908	0.050826	0.020506	0.111323	0.033333	0.993225	-0.105041	-0.993444	0.045113	0.988217	-0.109351	-0.107092
16875	9.718721	0.556805	-0.934178	0.112455	0.039157	0.018503	0.110762	0.033254	0.993290	-0.103849	-0.993582	0.044844	0.988406	-0.108120	-0.106598
16876	9.740003	0.525913	-1.008229	0.066211	0.029420	0.016044	0.110454	0.033167	0.993328	-0.103232	-0.993654	0.044657	0.988505	-0.107476	-0.106330
16877	9.718872	0.520260	-0.994773	0.034476	0.026432	0.015639	0.110136	0.033017	0.993368	-0.102774	-0.993712	0.044424	0.988589	-0.106985	-0.106051
16878	9.730656	0.457247	-1.044409	0.022201	0.021004	0.016379	0.109912	0.032917	0.993396	-0.102592	-0.993738	0.044280	0.988633	-0.106781	-0.105846
16879	9.685300	0.510215	-1.059838	0.012538	0.015997	0.014935	0.109601	0.032761	0.993436	-0.102339	-0.993773	0.044063	0.988693	-0.106497	-0.105566
16880	9.672471	0.584869	-1.059134	-0.002015	0.013939	0.013528	0.109449	0.032681	0.993455	-0.102392	-0.993772	0.043972	0.988705	-0.106535	-0.105421
16881	9.658650	0.706696	-1.045044	-0.013237	0.015048	0.013309	0.109183	0.032614	0.993486	-0.102483	-0.993766	0.043886	0.988725	-0.106607	-0.105160
16882	9.692496	0.735520	-0.968190	-0.087102	0.002763	0.020556	0.109134	0.032453	0.993497	-0.103385	-0.993676	0.043815	0.988636	-0.107495	-0.105089
16883	9.678144	0.458270	-0.977599	-0.130451	0.001929	0.012211	0.109096	0.032336	0.993505	-0.104614	-0.993547	0.043825	0.988511	-0.108716	-0.105009
16884	9.693366	0.399098	-0.858245	-0.153559	-0.005712	0.013749	0.109137	0.032233	0.993504	-0.106166	-0.993379	0.043891	0.988341	-0.110266	-0.104993
16885	9.662343	0.362938	-0.822663	-0.170315	-0.013773	0.008867	0.109287	0.032181	0.993489	-0.107873	-0.993189	0.044038	0.988140	-0.111983	-0.105071
16886	9.653870	0.338916	-0.739433	-0.169185	-0.016617	0.006592	0.109443	0.032137	0.993473	-0.109570	-0.992996	0.044192	0.987936	-0.113692	-0.105155
16887	9.655046	0.214374	-0.834321	-0.156811	-0.022118	0.004308	0.109630	0.032134	0.993453	-0.111109	-0.992817	0.044374	0.987743	-0.115246	-0.105272
16888	9.730761	0.165579	-0.921411	-0.096254	-0.021743	-0.001252	0.109845	0.032161	0.993428	-0.112076	-0.992701	0.044530	0.987610	-0.116231	-0.105439
16889	9.772074	0.244212	-0.925020	-0.058778	-0.030540	-0.005522	0.110156	0.032247	0.993391	-0.112677	-0.992625	0.044717	0.987507	-0.116858	-0.105710
16890	9.738234	0.271130	-0.930606	-0.058415	-0.029852	-0.010284	0.110462	0.032355	0.993354	-0.113261	-0.992549	0.044923	0.987406	-0.117470	-0.105974
16891	9.740779	0.132575	-0.975230	-0.073706	-0.034652	-0.015087	0.110796	0.032375	0.993316	-0.113777	-0.992485	0.045038	0.987309	-0.118006	-0.106280
16892	9.727884	0.187488	-0.985170	-0.036711	-0.032341	-0.019264	0.111137	0.032567	0.993271	-0.114136	-0.992431	0.045310	0.987229	-0.118404	-0.106578
16893	9.795873	0.436303	-1.042094	-0.001649	-0.023055	-0.017193	0.111448	0.032757	0.993230	-0.114185	-0.992415	0.045543	0.987189	-0.118487	-0.106862
16894	9.813136	0.496395	-1.152899	-0.027464	-0.022474	-0.018580	0.111691	0.032955	0.993196	-0.114453	-0.992372	0.045798	0.987130	-0.118790	-0.107067
16895	9.811567	0.490848	-1.214050	-0.009941	-0.017715	-0.023890	0.111683	0.033213	0.993189	-0.114452	-0.992361	0.046055	0.987131	-0.118816	-0.107029
16896	9.766095	0.525082	-1.238644	-0.016394	-0.009334	-0.029018	0.111808	0.033529	0.993164	-0.114599	-0.992327	0.046402	0.987100	-0.119004	-0.107108
16897	9.715054	0.417283	-1.213523	-0.022043	-0.005345	-0.025437	0.111900	0.033788	0.993145	-0.114739	-0.992298	0.046687	0.987073	-0.119177	-0.107162
16898	9.650752	0.463329	-1.107245	-0.005327	0.005144	-0.026546	0.111879	0.034097	0.993137	-0.114780	-0.992279	0.046998	0.987071	-0.119250	-0.107102
16899	9.643610	0.393833	-1.036663	0.015216	0.007710	-0.026572	0.111804	0.034355	0.993136	-0.114486	-0.992302	0.047215	0.987113	-0.118979	-0.107010
16900	9.656981	0.374649	-0.962657	0.091389	0.018385	-0.031471	0.111657	0.034729	0.993140	-0.113566	-0.992396	0.047471	0.987236	-0.118088	-0.106864
16901	9.609166	0.525026	-0.950050	0.118705	0.016375	-0.030676	0.111529	0.035117	0.993141	-0.112393	-0.992517	0.047717	0.987385	-0.116944	-0.106747
16902	9.720441	0.436671	-0.979074	0.115997	0.023033	-0.033823	0.111338	0.035519	0.993148	-0.111228	-0.992637	0.047970	0.987538	-0.115807	-0.106567
16903	9.667075	0.390334	-0.989715	0.129791	0.025475	-0.035356	0.111105	0.035994	0.993157	-0.109971	-0.992761	0.048282	0.987705	-0.114583	-0.106342
16904	9.584920	0.590185	-0.973251	0.076782	0.017105	-0.039123	0.110977	0.036441	0.993155	-0.109187	-0.992831	0.048630	0.987807	-0.113837	-0.106203
16905	9.674698	0.444363	-1.064284	0.000261	0.006608	-0.035694	0.110955	0.036899	0.993140	-0.109233	-0.992803	0.049090	0.987804	-0.113931	-0.106126
16906	9.734393	0.239017	-1.126211	0.021458	0.015224	-0.044575	0.110853	0.037399	0.993133	-0.108989	-0.992807	0.049552	0.987843	-0.113734	-0.105979
16907	9.715254	0.498271	-1.129337	0.063653	0.019132	-0.046671	0.110732	0.037858	0.993129	-0.108228	-0.992872	0.049915	0.987940	-0.113011	-0.105845
16908	9.737907	0.459014	-1.152513	0.055823	0.017144	-0.046575	0.110612	0.038379	0.993122	-0.107642	-0.992913	0.050360	0.988017	-0.112472	-0.105697
16909	9.750120	0.433880	-1.136980	0.105818	0.023906	-0.054997	0.110377	0.039004	0.993124	-0.106552	-0.993006	0.050842	0.988162	-0.111432	-0.105449
16910	9.744488	0.319882	-1.078151	0.108060	0.022944	-0.058875	0.110211	0.039653	0.993117	-0.105437	-0.993099	0.051354	0.988300	-0.110371	-0.105270
16911	9.691478	0.362896	-0.949793	0.161818	0.026455	-0.065517	0.110099	0.040397	0.993099	-0.103843	-0.993238	0.051915	0.988481	-0.108842	-0.105160
16912	9.528590	0.426194	-0.812356	0.202504	0.027962	-0.073927	0.109898	0.041201	0.993089	-0.101777	-0.993422	0.052478	0.988718	-0.106841	-0.104981
16913	9.581927	0.513121	-0.733262	0.170915	0.013206	-0.082326	0.109882	0.041990	0.993057	-0.099896	-0.993582	0.053065	0.988912	-0.105034	-0.104982
16914	9.673410	0.041396	-0.825244	0.173573	0.008192	-0.091620	0.109890	0.042948	0.993015	-0.098097	-0.993720	0.053834	0.989091	-0.103327	-0.104987
16915	9.750222	0.313877	-0.856250	0.209688	-0.010757	-0.103221	0.109955	0.044000	0.992962	-0.095850	-0.993894	0.054655	0.989304	-0.101185	-0.105066
16916	9.797767	0.448268	-0.938569	0.081711	-0.022719	-0.109255	0.110282	0.045102	0.992877	-0.094938	-0.993924	0.055695	0.989356	-0.100404	-0.105330
16917	9.852325	0.437530	-0.949088	-0.008218	-0.029718	-0.114615	0.110702	0.046220	0.992778	-0.094895	-0.993863	0.056852	0.989313	-0.100504	-0.105636
16918	9.874757	0.438751	-0.910568	-0.085456	-0.036139	-0.119890	0.111172	0.047414	0.992670	-0.095625	-0.993716	0.058173	0.989190	-0.101391	-0.105939
16919	9.807059	0.510718	-0.861035	-0.130623	-0.039634	-0.123298	0.111546	0.048616	0.992569	-0.096710	-0.993531	0.059531	0.989042	-0.102632	-0.106122
16920	9.666987	0.547687	-0.694243	-0.123834	-0.045662	-0.135349	0.112127	0.049952	0.992438	-0.097800	-0.993332	0.061047	0.988869	-0.103906	-0.106494
16921	9.602798	0.591376	-0.540610	-0.177740	-0.063207	-0.144772	0.113023	0.051333	0.992265	-0.099447	-0.993065	0.062702	0.988603	-0.105764	-0.107134
16922	9.565985	0.263352	-0.415476	-0.209899	-0.085610	-0.157160	0.114025	0.052841	0.992072	-0.101360	-0.992755	0.064527	0.988294	-0.107914	-0.107843
16923	9.578169	0.314694	-0.278895	-0.210813	-0.119288	-0.167863	0.115270	0.054402	0.991843	-0.103213	-0.992438	0.066430	0.987957	-0.110028	-0.108783
16924	9.610595	0.362250	-0.215085	-0.234379	-0.141657	-0.177677	0.116853	0.056047	0.991567	-0.105339	-0.992075	0.068489	0.987547	-0.112453	-0.110023
16925	9.682515	0.646755	-0.257281	-0.222098	-0.163951	-0.196620	0.118680	0.057856	0.991246	-0.107318	-0.991706	0.070732	0.987116	-0.114772	-0.111486
16926	9.964063	1.243296	-0.368038	-0.363076	-0.207893	-0.216037	0.120965	0.059795	0.990854	-0.110658	-0.991150	0.073322	0.986470	-0.118516	-0.113278
16927	10.177530	0.781961	-0.265566	-0.686996	-0.238553	-0.218453	0.123527	0.061715	0.990420	-0.117188	-0.990173	0.076316	0.985397	-0.125492	-0.115081
16928	10.277434	0.264092	0.490543	-0.837559	-0.291424	-0.231988	0.126677	0.063672	0.989898	-0.125162	-0.988936	0.079627	0.984016	-0.133984	-0.117306
16929	10.075110	0.257321	1.711637	-1.083991	-0.392044	-0.250137	0.130842	0.065637	0.989228	-0.135515	-0.987256	0.083430	0.982098	-0.144971	-0.120280
16930	9.778087	-0.540401	2.874636	-1.275274	-0.492547	-0.275035	0.136062	0.067643	0.988388	-0.147673	-0.985136	0.087749	0.979632	-0.157897	-0.124051
16931	9.252503	-1.763778	3.266637	-1.028861	-0.592913	-0.326430	0.142352	0.069953	0.987341	-0.157378	-0.983211	0.092351	0.977225	-0.168532	-0.128953
16932	9.120400	-1.665981	3.201011	-0.597910	-0.726341	-0.371346	0.150037	0.072394	0.986026	-0.162688	-0.981913	0.096847	0.975203	-0.174945	-0.135546
16933	9.360168	-0.801067	2.903818	-0.323430	-0.873128	-0.408387	0.159229	0.074872	0.984399	-0.165306	-0.981021	0.101353	0.973304	-0.178865	-0.143830
16934	9.852797	0.086393	2.401148	-0.098339	-0.987037	-0.442215	0.169559	0.077474	0.982470	-0.165550	-0.980500	0.105890	0.971516	-0.180602	-0.153427
16935	10.428454	1.051049	1.928418	-0.040243	-1.099445	-0.457275	0.180946	0.079968	0.980236	-0.165190	-0.980058	0.110447	0.969521	-0.181910	-0.164128
16936	10.884676	1.752422	1.723117	-0.135030	-1.207699	-0.447232	0.193381	0.082178	0.977676	-0.165674	-0.979441	0.115096	0.967035	-0.184233	-0.175790
16937	11.195435	1.370187	1.732973	-0.269509	-1.305283	-0.447418	0.206638	0.084253	0.974783	-0.167641	-0.978504	0.120112	0.963949	-0.188234	-0.188071
16938	11.871310	0.766886	1.951518	-0.336904	-1.393345	-0.457577	0.220817	0.086113	0.971506	-0.169918	-0.977465	0.125263	0.960400	-0.192737	-0.201209
16939	12.710007	0.323791	2.712296	-0.393550	-1.482622	-0.479248	0.235888	0.088039	0.967784	-0.172903	-0.976195	0.130947	0.956275	-0.198222	-0.215050
16940	13.112286	0.093703	2.971589	-0.248254	-1.562854	-0.523204	0.251709	0.090055	0.963604	-0.174009	-0.975224	0.136595	0.952031	-0.202058	-0.229802
16941	13.196280	-0.091316	2.609031	0.017751	-1.657428	-0.576705	0.268525	0.092464	0.958825	-0.172765	-0.974619	0.142371	0.947653	-0.203882	-0.245735
16942	13.505974	0.563278	2.027707	0.179218	-1.721616	-0.626373	0.285875	0.095099	0.953536	-0.169346	-0.974388	0.147950	0.943185	-0.203772	-0.262449
16943	13.302502	1.113880	1.313317	0.390192	-1.767489	-0.637543	0.303621	0.097828	0.947757	-0.164263	-0.974446	0.153206	0.938527	-0.202198	-0.279793
16944	12.903266	1.882795	-0.089062	0.501628	-1.776020	-0.568709	0.321165	0.099849	0.941745	-0.157800	-0.974882	0.157177	0.933784	-0.199087	-0.297342
16945	12.188738	1.910408	-1.916451	0.523736	-1.725388	-0.439012	0.337943	0.100830	0.935750	-0.152041	-0.975337	0.160004	0.928805	-0.196345	-0.314278
16946	11.254373	1.628516	-3.707207	0.459527	-1.635075	-0.290919	0.353525	0.100522	0.930008	-0.146788	-0.975931	0.161284	0.923836	-0.193532	-0.330261
16947	10.026127	1.287456	-5.282842	0.457322	-1.516899	-0.118033	0.367754	0.098831	0.924656	-0.142732	-0.976555	0.161146	0.918904	-0.191240	-0.345026
16948	9.457487	0.565837	-6.484373	0.343357	-1.387234	0.073635	0.380366	0.095514	0.919891	-0.139868	-0.977271	0.159306	0.914198	-0.189258	-0.358361
16949	8.791953	0.454817	-7.186113	0.424650	-1.253967	0.236068	0.391505	0.090869	0.915678	-0.137347	-0.978194	0.155796	0.909868	-0.186761	-0.370487
16950	8.568076	0.481485	-7.443876	0.294503	-1.080457	0.325232	0.400872	0.085720	0.912115	-0.135970	-0.979020	0.151766	0.905988	-0.184859	-0.380806
16951	8.225288	0.449574	-7.149759	0.263453	-0.849495	0.331178	0.408096	0.080902	0.909347	-0.135309	-0.979705	0.147886	0.902856	-0.183395	-0.388867
16952	7.695575	0.942041	-6.532570	0.127239	-0.548360	0.318251	0.412612	0.076822	0.907662	-0.135475	-0.980180	0.144545	0.900776	-0.182607	-0.394027
16953	6.947989	0.973563	-6.449873	-0.097136	-0.275782	0.332171	0.414562	0.073039	0.907085	-0.137843	-0.980233	0.141927	0.899521	-0.183873	-0.396300
16954	7.079132	0.440181	-6.007368	-0.282465	-0.072125	0.357020	0.414713	0.069448	0.907298	-0.141870	-0.979956	0.139857	0.898825	-0.186719	-0.396548
16955	7.078186	0.724671	-5.439186	-0.337069	0.192588	0.378653	0.412372	0.066070	0.908616	-0.146569	-0.979563	0.137749	0.899148	-0.189979	-0.394261
16956	6.766837	0.220436	-4.960066	-0.534622	0.504573	0.412988	0.407216	0.063039	0.911154	-0.153079	-0.978792	0.136134	0.900412	-0.194915	-0.388929
16957	6.320421	-0.708118	-4.731486	-0.445159	0.802290	0.450936	0.399218	0.060172	0.914880	-0.159012	-0.978179	0.133722	0.902962	-0.198861	-0.380938
16958	5.995955	-0.989876	-4.792022	-0.215091	1.024503	0.491299	0.389160	0.057453	0.919377	-0.162904	-0.978030	0.130074	0.906652	-0.200390	-0.371251
16959	6.047692	-0.533382	-4.620133	-0.010076	1.216199	0.524550	0.377189	0.054706	0.924519	-0.165123	-0.978287	0.125256	0.911297	-0.199905	-0.359966
16960	6.248241	-0.029226	-4.448133	0.044798	1.387206	0.549325	0.363602	0.052138	0.930094	-0.166759	-0.978662	0.120052	0.916507	-0.198753	-0.347149
16961	6.404101	0.236435	-4.331820	0.054371	1.549528	0.569093	0.348352	0.049579	0.936052	-0.168416	-0.979040	0.114532	0.922110	-0.197543	-0.332701
16962	6.376473	0.405973	-4.229341	0.065105	1.695420	0.598659	0.331659	0.047095	0.942223	-0.169861	-0.979450	0.108746	0.927982	-0.196113	-0.316843
16963	6.397143	0.415624	-4.046554	0.076942	1.817732	0.641672	0.313594	0.044299	0.948523	-0.171352	-0.979872	0.102414	0.933969	-0.194648	-0.299691
16964	6.623435	0.135371	-4.144671	0.195617	1.941166	0.671996	0.294253	0.041505	0.954826	-0.171576	-0.980531	0.095498	0.940200	-0.191925	-0.281403
16965	6.961771	0.052739	-4.303670	0.415931	2.059152	0.694143	0.273597	0.038535	0.961072	-0.169767	-0.981575	0.087687	0.946744	-0.187149	-0.262014
16966	7.364616	0.342474	-4.147737	0.530648	2.154984	0.704691	0.251941	0.035624	0.967087	-0.166594	-0.982807	0.079603	0.953296	-0.181166	-0.241674
16967	7.956648	0.330298	-3.804724	0.605827	2.229322	0.697801	0.229430	0.032663	0.972777	-0.162631	-0.984100	0.071400	0.959642	-0.174585	-0.220470
16968	8.519426	0.400680	-3.388059	0.646886	2.276823	0.671864	0.206436	0.029983	0.978001	-0.157886	-0.985411	0.063537	0.965638	-0.167529	-0.198691
16969	8.761852	1.117856	-3.037721	0.784497	2.285604	0.642924	0.183269	0.027317	0.982683	-0.151699	-0.986855	0.055725	0.971288	-0.159285	-0.176716
16970	9.083580	2.708592	-2.606099	0.659418	2.238505	0.654102	0.160498	0.024386	0.986735	-0.146424	-0.988045	0.048235	0.976115	-0.152223	-0.155009
16971	9.154913	3.186819	-1.581934	0.152415	2.133791	0.669772	0.138620	0.020949	0.990124	-0.146083	-0.988407	0.041365	0.979512	-0.150374	-0.133952
16972	9.143935	1.713021	-1.548857	-0.036679	2.078322	0.655903	0.117274	0.017632	0.992943	-0.147305	-0.988473	0.034950	0.982114	-0.150365	-0.113325
16973	9.049952	0.888121	-1.769269	0.161113	2.009168	0.603199	0.096598	0.014643	0.995216	-0.146497	-0.988793	0.028768	0.984483	-0.148575	-0.093371
16974	9.054875	0.836665	-1.604005	0.227497	1.898632	0.532187	0.077113	0.012218	0.996947	-0.144742	-0.989195	0.023319	0.986460	-0.146099	-0.074512
16975	9.149115	0.482198	-1.284925	0.267225	1.758981	0.454361	0.059064	0.010247	0.998202	-0.142541	-0.989614	0.018593	0.988025	-0.143382	-0.056990
16976	9.096587	0.843950	-1.111868	0.231264	1.558488	0.370581	0.043134	0.008835	0.999030	-0.140471	-0.989974	0.014820	0.989145	-0.140974	-0.041460
16977	8.738217	0.591211	-0.933083	0.033826	1.317869	0.272899	0.029683	0.007974	0.999528	-0.140359	-0.990027	0.012066	0.989656	-0.140651	-0.028268
16978	8.447519	-0.276815	-1.068519	0.173848	1.089278	0.170583	0.018663	0.007848	0.999795	-0.138708	-0.990279	0.010362	0.990157	-0.138873	-0.017393
16979	8.242823	-0.054638	-0.847607	0.455372	0.836033	0.090672	0.010231	0.008079	0.999915	-0.134335	-0.990892	0.009380	0.990883	-0.134419	-0.009053
16980	8.557894	0.722219	-0.684443	0.750580	0.572284	0.053989	0.004488	0.008332	0.999955	-0.126927	-0.991873	0.008834	0.991902	-0.126961	-0.003394
16981	8.644253	2.340599	-0.734538	0.830338	0.276565	0.068979	0.001633	0.007976	0.999967	-0.118812	-0.992884	0.008114	0.992915	-0.118821	-0.000674
16982	9.902801	2.318135	0.128823	0.354611	-0.044375	0.105781	0.001950	0.006914	0.999974	-0.115321	-0.993303	0.007093	0.993326	-0.115332	-0.001140
16983	9.711865	-1.852661	-0.715674	0.287116	-0.266207	0.126940	0.004427	0.005350	0.999976	-0.112575	-0.993626	0.005815	0.993633	-0.112599	-0.003796
16984	9.999386	-1.063278	-0.236687	1.031000	-0.574714	-0.048128	0.010192	0.005252	0.999934	-0.102351	-0.994729	0.006268	0.994696	-0.102409	-0.009600
16985	10.905074	1.287478	-0.131705	1.192954	-0.530598	-0.201559	0.015643	0.006737	0.999855	-0.090569	-0.995857	0.008128	0.995767	-0.090683	-0.014968
16986	11.172466	1.796000	0.078006	1.603099	-0.362284	-0.253185	0.019461	0.009001	0.999770	-0.074580	-0.997160	0.010430	0.997025	-0.074766	-0.018734
16987	10.859632	2.787230	-0.030942	1.880948	-0.080561	-0.249615	0.020403	0.011439	0.999726	-0.055867	-0.998359	0.012563	0.998230	-0.056108	-0.019731
16988	9.710748	4.334232	-0.499430	2.372762	0.089948	-0.253127	0.019613	0.014047	0.999709	-0.032147	-0.999375	0.014673	0.999291	-0.032425	-0.019149
16989	9.102536	7.167278	-0.575333	2.136101	0.022004	-0.251529	0.019422	0.016584	0.999674	-0.010817	-0.999800	0.016796	0.999753	-0.011139	-0.019239
16990	10.483554	7.193524	-1.556154	1.174601	-0.411223	-0.169221	0.023538	0.018294	0.999556	0.000933	-0.999833	0.018277	0.999723	0.000503	-0.023551
16991	11.870686	5.713222	-0.787213	0.250543	-0.638215	-0.074552	0.029892	0.019105	0.999371	0.003452	-0.999813	0.019010	0.999547	0.002882	-0.029953
16992	12.447340	-0.495715	-0.511549	-0.245940	-0.737230	0.046118	0.037257	0.018695	0.999131	0.000950	-0.999825	0.018673	0.999305	0.000253	-0.037268
16993	11.235286	2.024344	0.186206	0.267172	-0.690884	0.066020	0.044139	0.018113	0.998861	0.003610	-0.999832	0.017971	0.999019	0.002812	-0.044197
16994	10.830065	1.991563	-0.083679	-0.195005	-0.630168	0.123615	0.050432	0.016929	0.998584	0.001575	-0.999856	0.016871	0.998726	0.000722	-0.050451
16995	10.112417	-1.318064	-1.209266	-0.178879	-0.549806	0.156293	0.055900	0.015443	0.998317	-0.000260	-0.999880	0.015482	0.998436	-0.001125	-0.055889
16996	9.313347	-1.787712	-2.414730	-0.059343	-0.576973	0.113375	0.061654	0.014341	0.997995	-0.000947	-0.999895	0.014427	0.998097	-0.001835	-0.061634
16997	10.091681	-2.080411	-3.417053	0.115973	-0.524903	0.075043	0.066872	0.013653	0.997668	0.000181	-0.999907	0.013671	0.997762	-0.000734	-0.066868
16998	9.859596	-0.564590	-3.137039	0.234097	-0.471969	0.068154	0.071576	0.013013	0.997350	0.002442	-0.999914	0.012872	0.997432	0.001514	-0.071602
16999	9.693854	0.126713	-2.192988	0.178172	-0.428379	0.075105	0.075837	0.012334	0.997044	0.004169	-0.999919	0.012052	0.997111	0.003243	-0.075883
17000	9.593599	-0.036374	-1.439036	0.123215	-0.380756	0.072821	0.079632	0.011660	0.996756	0.005315	-0.999922	0.011273	0.996810	0.004400	-0.079688
17001	9.543498	-0.503349	-1.083055	0.106415	-0.351747	0.077487	0.083131	0.010964	0.996478	0.006318	-0.999925	0.010474	0.996519	0.005425	-0.083194
17002	9.647625	-1.107889	-1.097576	0.243274	-0.308856	0.061132	0.086208	0.010413	0.996223	0.008664	-0.999915	0.009702	0.996239	0.007795	-0.086291
17003	9.570310	-0.847200	-0.628627	0.415624	-0.308058	0.045359	0.089271	0.010045	0.995957	0.012762	-0.999879	0.008941	0.995926	0.011912	-0.089388
17004	9.814155	-0.241280	-0.134357	0.530001	-0.323760	0.023043	0.092493	0.009902	0.995664	0.017992	-0.999804	0.008272	0.995551	0.017149	-0.092653
17005	9.936900	-0.157354	0.088262	0.609354	-0.339104	0.005892	0.095857	0.009964	0.995345	0.024044	-0.999681	0.007691	0.995105	0.023195	-0.096066
17006	9.836884	0.926056	0.424244	0.629500	-0.389100	-0.004149	0.099721	0.010148	0.994964	0.030285	-0.999516	0.007159	0.994554	0.029418	-0.099980
17007	9.936361	0.930940	0.355250	0.488236	-0.429869	0.002473	0.103981	0.010313	0.994526	0.035131	-0.999360	0.006690	0.993959	0.034243	-0.104277
17008	9.900802	0.079273	0.242463	0.353749	-0.469628	-0.001548	0.108640	0.010538	0.994025	0.038622	-0.999234	0.006372	0.993331	0.037699	-0.108964
17009	9.872612	-0.833694	0.036716	0.360179	-0.510885	-0.027859	0.113683	0.011073	0.993455	0.042228	-0.999088	0.006304	0.992619	0.041235	-0.114047
17010	9.657526	-0.774907	-0.250746	0.525613	-0.539434	-0.054069	0.119005	0.011890	0.992822	0.047481	-0.998852	0.006271	0.991758	0.046394	-0.119433
17011	9.523507	-0.194968	-0.383715	0.446314	-0.579950	-0.063067	0.124701	0.012851	0.992111	0.051972	-0.998628	0.006403	0.990832	0.050763	-0.125198
17012	9.481561	-0.319682	-0.825692	0.380109	-0.605026	-0.063198	0.130652	0.013841	0.991332	0.055793	-0.998421	0.006587	0.989857	0.054448	-0.131218
17013	9.490326	-0.401395	-1.463619	0.292406	-0.606114	-0.071927	0.136585	0.014945	0.990516	0.058768	-0.998247	0.006958	0.988884	0.057261	-0.137224
17014	9.793826	-0.696398	-1.984963	0.300186	-0.571911	-0.070601	0.142188	0.016026	0.989710	0.061810	-0.998061	0.007281	0.987908	0.060139	-0.142903
17015	9.532695	0.256674	-2.726570	0.465222	-0.514124	-0.065979	0.147200	0.017049	0.988960	0.066481	-0.997761	0.007306	0.986870	0.064671	-0.148004
17016	9.870090	0.867097	-3.089951	0.332078	-0.457368	-0.035048	0.151680	0.017742	0.988270	0.069785	-0.997536	0.007197	0.985963	0.067875	-0.152545
17017	9.693039	0.834794	-3.125549	0.334495	-0.398663	-0.012323	0.155582	0.018190	0.987656	0.073089	-0.997302	0.006854	0.985115	0.071120	-0.156491
17018	9.791968	0.529669	-3.431387	0.347384	-0.370217	-0.016151	0.159207	0.018660	0.987069	0.076512	-0.997047	0.006508	0.984276	0.074487	-0.160165
17019	9.759653	1.105950	-3.173619	0.402667	-0.327356	-0.015321	0.162401	0.019116	0.986540	0.080494	-0.996737	0.006063	0.983436	0.078426	-0.163410
17020	9.895678	1.146088	-2.632702	0.248267	-0.291499	0.000751	0.165259	0.019381	0.986060	0.082911	-0.996541	0.005691	0.982759	0.080815	-0.166294
17021	9.821318	1.273164	-2.810851	0.293055	-0.247300	0.009035	0.167683	0.019554	0.985647	0.085782	-0.996300	0.005172	0.982102	0.083684	-0.168740
17022	9.866026	0.671348	-2.744066	0.066359	-0.219389	0.021716	0.169848	0.019562	0.985276	0.086375	-0.996251	0.004890	0.981678	0.084272	-0.170901
17023	9.853455	-0.212752	-2.459305	0.086772	-0.207753	0.010046	0.171885	0.019705	0.984920	0.087226	-0.996177	0.004708	0.981248	0.085102	-0.172947
17024	9.959785	-0.301873	-1.979901	0.039593	-0.210271	-0.016329	0.173925	0.020087	0.984554	0.087621	-0.996142	0.004845	0.980853	0.085425	-0.175014
17025	9.945415	0.143642	-1.064430	-0.136223	-0.219279	-0.020488	0.176048	0.020542	0.984167	0.086335	-0.996252	0.005351	0.980588	0.084026	-0.177162
17026	9.750059	-0.680322	-0.803533	-0.340995	-0.225401	-0.025582	0.178229	0.021023	0.983764	0.083015	-0.996529	0.006256	0.980481	0.080552	-0.179355
17027	9.652976	-1.288628	-0.793798	-0.327774	-0.256465	-0.046571	0.180694	0.021752	0.983299	0.079896	-0.996776	0.007368	0.980289	0.077230	-0.181849
17028	9.524440	-1.274596	-0.886021	-0.203292	-0.264336	-0.067026	0.183224	0.022662	0.982810	0.078004	-0.996917	0.008445	0.979972	0.075116	-0.184427
17029	9.693357	-1.261753	-0.965673	-0.179465	-0.296227	-0.100807	0.186036	0.023940	0.982251	0.076429	-0.997027	0.009824	0.979566	0.073245	-0.187312
17030	9.980081	-1.619011	-0.982668	-0.040319	-0.303920	-0.152977	0.188887	0.025727	0.981662	0.076299	-0.997019	0.011448	0.979030	0.072738	-0.190287
17031	10.089183	-0.627216	-0.676678	0.048821	-0.349227	-0.192365	0.192143	0.027942	0.980969	0.077126	-0.996933	0.013290	0.978331	0.073104	-0.193709
17032	10.186918	0.302940	-0.754309	-0.001956	-0.365252	-0.208318	0.195547	0.030325	0.980225	0.077489	-0.996875	0.015382	0.977628	0.072949	-0.197285
17033	10.000721	0.663699	-0.729935	-0.238861	-0.394813	-0.223495	0.199218	0.032876	0.979404	0.075574	-0.996976	0.018094	0.977037	0.070413	-0.201100
17034	9.658375	0.151544	-1.064432	-0.234548	-0.437380	-0.242668	0.203300	0.035638	0.978468	0.073751	-0.997056	0.020992	0.976335	0.067895	-0.205330
17035	9.660870	-0.385046	-1.371513	-0.257182	-0.472252	-0.266164	0.207697	0.038647	0.977430	0.071767	-0.997128	0.024176	0.975557	0.065126	-0.209874
17036	9.693437	-0.076458	-1.509213	-0.190877	-0.513674	-0.291569	0.212491	0.041923	0.976263	0.070499	-0.997133	0.027475	0.974617	0.062987	-0.214837
17037	9.884474	-0.268179	-1.510276	-0.334329	-0.540671	-0.296631	0.217533	0.045249	0.975004	0.067854	-0.997209	0.031141	0.973692	0.059384	-0.219996
17038	10.353613	-1.119714	-1.236977	-0.462029	-0.565480	-0.317351	0.222819	0.048776	0.973639	0.064037	-0.997323	0.035308	0.972754	0.054481	-0.225346
17039	10.267312	-0.674220	-0.515968	-0.367134	-0.636632	-0.346051	0.228771	0.052591	0.972059	0.061213	-0.997341	0.039552	0.971554	0.050455	-0.231382
17040	10.468921	-0.472444	0.398965	-0.489163	-0.698282	-0.350630	0.235336	0.056462	0.970273	0.057259	-0.997383	0.044152	0.970226	0.045166	-0.237953
17041	10.426383	-0.633150	0.939983	-0.532238	-0.774268	-0.360258	0.242619	0.060404	0.968239	0.052914	-0.997398	0.048964	0.968677	0.039353	-0.245184
17042	10.500873	-0.985061	1.006011	-0.443465	-0.874822	-0.387000	0.250880	0.064626	0.965859	0.049558	-0.997318	0.053859	0.966749	0.034354	-0.253410
17043	10.537585	0.101272	0.814928	-0.272395	-0.977048	-0.453014	0.260063	0.069473	0.963089	0.048025	-0.997105	0.058958	0.964397	0.030919	-0.262646
17044	10.306408	0.886282	0.474740	-0.201538	-1.074964	-0.486109	0.270177	0.074677	0.959910	0.047355	-0.996812	0.064219	0.961645	0.028106	-0.272852
17045	10.187140	1.269068	-0.133536	-0.174183	-1.142691	-0.515962	0.280869	0.080132	0.956395	0.047040	-0.996460	0.069674	0.958593	0.025420	-0.283644
17046	10.295768	1.206834	-0.830311	-0.187080	-1.167843	-0.531100	0.291789	0.085743	0.952632	0.046754	-0.996062	0.075332	0.955339	0.022558	-0.294649
17047	10.278099	0.852555	-1.374314	-0.123182	-1.193098	-0.549250	0.302868	0.091477	0.948632	0.047153	-0.995602	0.080953	0.951865	0.020213	-0.305849
17048	10.572527	0.567615	-1.223258	-0.088528	-1.230260	-0.582377	0.314272	0.097550	0.944308	0.048093	-0.995065	0.086788	0.948114	0.018139	-0.317412
17049	10.857049	0.233156	-0.326566	-0.107553	-1.301132	-0.619202	0.326238	0.103937	0.939556	0.048997	-0.994460	0.092998	0.944017	0.015696	-0.329523
17050	10.961336	0.464718	1.057429	-0.080645	-1.403539	-0.650790	0.339125	0.110651	0.934211	0.050388	-0.993770	0.099414	0.939391	0.013359	-0.342587
17051	10.913680	0.687686	2.068360	-0.087571	-1.531709	-0.654797	0.353090	0.117339	0.928202	0.051764	-0.993035	0.105844	0.934156	0.010675	-0.356705
17052	10.559243	0.800153	2.468002	-0.090685	-1.679759	-0.648390	0.368385	0.123970	0.921371	0.053245	-0.992256	0.112219	0.928147	0.007719	-0.372133
17053	10.622235	0.721258	2.278236	-0.077863	-1.850689	-0.659811	0.385083	0.130620	0.913591	0.054934	-0.991422	0.118593	0.921245	0.004519	-0.388955
17054	11.353778	0.193884	1.589520	-0.023899	-1.994524	-0.700380	0.402980	0.137662	0.904796	0.057463	-0.990478	0.125105	0.913403	0.001578	-0.407053
17055	11.959275	0.870140	1.312302	0.068388	-2.138001	-0.768251	0.421892	0.145257	0.894934	0.061165	-0.989394	0.131754	0.904580	-0.000847	-0.426302
17056	12.327416	1.318009	2.003256	-0.138370	-2.287626	-0.813016	0.441961	0.153262	0.883844	0.063422	-0.988169	0.139638	0.894789	-0.005659	-0.446453
17057	12.282966	1.767525	2.282041	-0.098361	-2.399248	-0.791138	0.462715	0.160855	0.871792	0.066030	-0.986922	0.147052	0.884045	-0.010479	-0.467285
17058	12.515208	3.186204	2.125061	-0.332328	-2.497839	-0.663863	0.484207	0.167089	0.858851	0.066247	-0.985780	0.154434	0.872442	-0.017882	-0.488390
17059	12.331039	2.583733	1.064444	-0.572674	-2.558688	-0.452906	0.505995	0.170940	0.845428	0.063433	-0.984886	0.161172	0.860201	-0.027924	-0.509190
17060	11.987954	1.941620	-0.948507	-0.729060	-2.568234	-0.221924	0.527781	0.172298	0.831721	0.058350	-0.984251	0.166869	0.847374	-0.039539	-0.529523
17061	11.433705	1.038764	-3.217752	-0.757790	-2.540811	-0.014908	0.549044	0.171262	0.818059	0.051964	-0.983882	0.171102	0.834177	-0.051433	-0.549094
17062	11.028707	1.102784	-4.889372	-0.828890	-2.510831	0.161214	0.569890	0.168268	0.804308	0.044201	-0.983669	0.174474	0.820531	-0.063880	-0.568021
17063	10.495826	1.380676	-5.813361	-1.029260	-2.432602	0.314681	0.589716	0.163406	0.790906	0.033896	-0.983462	0.177916	0.806899	-0.078112	-0.585502
17064	10.658870	0.586042	-7.819682	-1.193010	-2.250527	0.462164	0.607852	0.156970	0.778381	0.021579	-0.983169	0.181417	0.793757	-0.093478	-0.601009
17065	10.067759	-0.005102	-9.623813	-1.215654	-1.909185	0.586592	0.622897	0.149224	0.767940	0.008274	-0.982841	0.184271	0.782260	-0.108428	-0.613443
17066	9.790638	-0.942460	-10.065784	-1.249320	-1.516942	0.664813	0.634697	0.140976	0.759793	-0.005619	-0.982351	0.186964	0.772741	-0.122935	-0.622702
17067	9.198713	-1.727768	-9.477815	-0.986296	-1.096161	0.701721	0.642967	0.132592	0.754329	-0.017830	-0.982042	0.187816	0.765686	-0.134209	-0.629057
17068	7.619622	-1.316479	-9.529755	-0.362838	-0.677092	0.702038	0.647983	0.124812	0.751359	-0.025130	-0.982442	0.184870	0.761240	-0.138674	-0.633469
17069	5.295051	1.883856	-10.098775	-0.319981	-0.455780	0.672618	0.651181	0.117442	0.749780	-0.032105	-0.982807	0.181825	0.758243	-0.142473	-0.636215
17070	5.395339	2.772511	-9.403208	-1.236023	-0.263249	0.660583	0.652915	0.110602	0.749313	-0.045768	-0.981713	0.184785	0.756047	-0.154944	-0.635913
17071	5.757333	0.832364	-7.529414	-1.678206	0.097378	0.672530	0.651747	0.104050	0.751266	-0.063011	-0.979692	0.190351	0.755815	-0.171398	-0.631955
17072	4.865594	0.176983	-6.179789	-1.525117	0.514090	0.697115	0.647359	0.098185	0.755835	-0.079082	-0.977663	0.194733	0.758072	-0.185835	-0.625134
17073	4.626113	-0.892163	-5.675709	-1.456579	0.959075	0.764162	0.639335	0.092444	0.763351	-0.095255	-0.975578	0.197925	0.763006	-0.199253	-0.614915
17074	4.291521	-1.644389	-5.969001	-0.900945	1.353186	0.830992	0.628115	0.087128	0.773227	-0.107430	-0.974485	0.197075	0.770668	-0.206853	-0.602729
17075	4.162970	-0.255154	-6.543262	-0.450604	1.617606	0.904882	0.614496	0.081535	0.784696	-0.116750	-0.974295	0.192663	0.780234	-0.210004	-0.589181
17076	4.303999	1.701324	-6.321615	-0.466497	1.803349	0.995270	0.599121	0.075694	0.797072	-0.126455	-0.974080	0.187554	0.790609	-0.213161	-0.574021
17077	5.008847	2.608912	-6.240911	-0.492899	2.049832	1.116605	0.581265	0.069072	0.810777	-0.137183	-0.973811	0.181310	0.802067	-0.216614	-0.556567
17078	5.219132	2.971568	-5.981407	-0.517346	2.293588	1.225413	0.560978	0.062189	0.825492	-0.148367	-0.973476	0.174162	0.814427	-0.220177	-0.536871
17079	5.510699	2.822508	-6.110112	-0.493466	2.501132	1.324123	0.538342	0.054716	0.840948	-0.159897	-0.973131	0.165676	0.827418	-0.223655	-0.515128
17080	5.715251	3.032438	-6.303155	-0.281697	2.694189	1.396187	0.513565	0.047212	0.856751	-0.169597	-0.973202	0.155291	0.841123	-0.225055	-0.491795
17081	5.862174	3.323371	-6.098271	-0.320114	2.819139	1.470846	0.487028	0.039156	0.872508	-0.179858	-0.973086	0.144065	0.854666	-0.227091	-0.466878
17082	6.087410	2.354045	-5.821875	-0.397548	2.966226	1.528269	0.458649	0.031104	0.888073	-0.190519	-0.972706	0.132462	0.867954	-0.229949	-0.440205
17083	6.239442	0.964358	-6.032702	-0.096288	3.109516	1.543935	0.428383	0.023140	0.903301	-0.198385	-0.972873	0.119005	0.881551	-0.230181	-0.412171
17084	6.436738	0.853828	-5.947256	0.316753	3.218745	1.510535	0.396761	0.015825	0.917785	-0.201816	-0.973882	0.104038	0.895461	-0.226502	-0.383205
17085	6.365474	1.746276	-5.622664	0.730458	3.319386	1.452431	0.363816	0.008970	0.931428	-0.200927	-0.975657	0.087878	0.909542	-0.219120	-0.353157
17086	6.474657	3.077961	-5.143717	0.932904	3.377248	1.423012	0.330034	0.002353	0.943966	-0.197331	-0.977731	0.071429	0.923113	-0.209848	-0.322221
17087	6.851420	4.710671	-4.959541	0.840779	3.419179	1.431460	0.295398	-0.004692	0.955363	-0.194163	-0.979414	0.055225	0.935436	-0.201810	-0.290228
17088	7.013427	4.911693	-5.288173	0.500701	3.448419	1.424302	0.260196	-0.011730	0.965485	-0.193430	-0.980289	0.040219	0.945983	-0.197218	-0.257336
17089	7.421230	4.113442	-5.495368	0.078863	3.453614	1.426135	0.224544	-0.018940	0.974280	-0.196271	-0.980200	0.026180	0.954493	-0.197101	-0.223815
17090	7.799348	2.025854	-5.616223	0.015821	3.462538	1.356400	0.188688	-0.025360	0.981710	-0.198946	-0.979925	0.012924	0.961674	-0.197746	-0.189945
17091	8.404187	0.637785	-4.837814	0.083813	3.356611	1.204696	0.153856	-0.030540	0.987621	-0.200315	-0.979731	0.000910	0.967575	-0.197975	-0.156856
17092	9.044728	-0.485274	-4.210284	0.317908	3.207599	0.993029	0.120758	-0.033916	0.992102	-0.198621	-0.980032	-0.009327	0.972608	-0.195926	-0.125083
17093	9.636302	0.711585	-3.697398	0.630696	3.008966	0.777841	0.089861	-0.035737	0.995313	-0.193412	-0.980957	-0.017759	0.976994	-0.190909	-0.095061
17094	10.027451	1.847063	-3.029217	0.351245	2.773242	0.630653	0.061517	-0.036626	0.997434	-0.190482	-0.981390	-0.024288	0.979761	-0.188499	-0.067349
17095	10.248896	1.610299	-2.324093	0.244385	2.511132	0.557315	0.035803	-0.037383	0.998659	-0.188468	-0.981621	-0.029989	0.981426	-0.187142	-0.042190
17096	10.071980	1.953824	-1.596388	0.312278	2.203096	0.531133	0.013176	-0.038461	0.999173	-0.185564	-0.981996	-0.035353	0.982544	-0.184944	-0.020076
17097	9.622015	2.210677	-0.622624	0.236989	1.796704	0.511110	-0.005454	-0.040163	0.999178	-0.183350	-0.982214	-0.040482	0.983033	-0.183420	-0.002007
17098	9.331406	1.933822	-0.380129	0.387843	1.389436	0.463268	-0.019956	-0.042150	0.998912	-0.179511	-0.982724	-0.045053	0.983554	-0.180214	0.012044
17099	8.543435	1.655780	-0.386008	0.426122	0.986621	0.374212	-0.030352	-0.044049	0.998568	-0.175298	-0.983310	-0.048704	0.984047	-0.176525	0.022123
17100	7.853425	1.507369	-1.235905	0.673314	0.624666	0.265630	-0.036957	-0.045541	0.998279	-0.168614	-0.984354	-0.051148	0.984989	-0.170214	0.028700
17101	7.412344	2.514657	-2.295997	0.749471	0.278340	0.177515	-0.040016	-0.046798	0.998103	-0.161216	-0.985513	-0.052671	0.986108	-0.163018	0.031892
17102	7.948379	2.699471	-2.447293	0.147934	-0.012792	0.129243	-0.040097	-0.048054	0.998040	-0.159740	-0.985688	-0.053877	0.986344	-0.161587	0.031847
17103	7.307057	-0.489180	-4.045510	0.165481	-0.163167	0.080815	-0.038630	-0.049074	0.998048	-0.158108	-0.985911	-0.054597	0.986666	-0.159909	0.030327
17104	5.976801	0.429735	-4.619659	0.811109	-0.431338	-0.083385	-0.034243	-0.048886	0.998217	-0.150164	-0.987213	-0.053498	0.988068	-0.151729	0.026464
17105	8.356237	2.525383	-3.118604	0.494218	-0.530005	-0.252302	-0.028637	-0.047147	0.998477	-0.145394	-0.988068	-0.050825	0.988959	-0.146628	0.021440
17106	11.077529	3.303482	-0.456496	0.716562	-0.212485	-0.401647	-0.025965	-0.043442	0.998719	-0.138447	-0.989271	-0.046630	0.990029	-0.139480	0.019672
17107	12.457153	3.397279	2.503444	1.034060	-0.025950	-0.404828	-0.025168	-0.039418	0.998906	-0.128311	-0.990830	-0.042332	0.991415	-0.129236	0.019879
17108	15.534428	4.501607	5.500340	0.465446	-0.142622	-0.178763	-0.023529	-0.037789	0.999009	-0.123773	-0.991487	-0.040420	0.992032	-0.124602	0.018651
17109	17.157799	-3.323225	4.619024	-0.151893	-0.386233	0.115044	-0.019845	-0.039342	0.999029	-0.125213	-0.991261	-0.041523	0.991931	-0.125916	0.014746
17110	12.669422	-4.331989	2.765144	1.546430	-0.718664	-0.040882	-0.012663	-0.039747	0.999130	-0.109899	-0.993101	-0.040900	0.993862	-0.110321	0.008207
17111	10.404878	4.738696	2.669232	1.369421	-1.219824	-0.226769	-0.000311	-0.038692	0.999251	-0.096278	-0.994608	-0.038543	0.995354	-0.096218	-0.003416
17112	10.493114	2.779626	1.051614	-0.117819	-1.232482	-0.145457	0.012095	-0.038398	0.999189	-0.097475	-0.994548	-0.037040	0.995164	-0.096948	-0.015772
17113	9.387631	-0.562936	-2.081647	0.110299	-1.001188	-0.070687	0.022111	-0.038577	0.999011	-0.096308	-0.994690	-0.036278	0.995106	-0.095411	-0.025709
17114	8.487554	-0.616002	-4.630932	0.256983	-0.853273	0.006886	0.030593	-0.039409	0.998755	-0.093785	-0.994927	-0.036385	0.995122	-0.092555	-0.034134
17115	8.972221	-1.462405	-6.620048	0.607673	-0.718818	0.072306	0.037672	-0.040691	0.998461	-0.087709	-0.995449	-0.037259	0.995434	-0.086171	-0.041070
17116	9.371749	1.078837	-7.328023	1.097832	-0.571796	0.097070	0.043283	-0.042080	0.998176	-0.076848	-0.996293	-0.038668	0.996103	-0.075034	-0.046357
17117	9.675262	3.561473	-6.155002	0.595671	-0.418121	0.133000	0.047354	-0.043627	0.997925	-0.070925	-0.996671	-0.040207	0.996357	-0.068874	-0.050290
17118	9.866231	3.707393	-4.122344	0.128664	-0.294630	0.197533	0.050147	-0.045759	0.997693	-0.069771	-0.996670	-0.042205	0.996302	-0.067493	-0.053173
17119	9.586722	3.148642	-1.858974	-0.241091	-0.222204	0.246255	0.052201	-0.048267	0.997469	-0.072214	-0.996399	-0.044436	0.996022	-0.069711	-0.055498
17120	9.684068	0.879252	-0.123037	-0.516766	-0.193710	0.266289	0.053927	-0.051021	0.997241	-0.077532	-0.995893	-0.046760	0.995530	-0.074796	-0.057662
17121	10.148730	-1.663374	0.684213	-0.332157	-0.181918	0.261632	0.055549	-0.053655	0.997013	-0.080874	-0.995516	-0.049069	0.995175	-0.077907	-0.059639
17122	10.292158	-2.806436	0.759863	0.039698	-0.200382	0.249316	0.057339	-0.056254	0.996769	-0.080650	-0.995409	-0.051538	0.995092	-0.077434	-0.061613
17123	10.223264	-2.305593	0.358377	0.307685	-0.255634	0.231514	0.059715	-0.058651	0.996491	-0.077633	-0.995522	-0.053942	0.995192	-0.074140	-0.064001
17124	10.136008	-1.267783	-0.391932	0.396379	-0.278940	0.207189	0.062331	-0.060876	0.996197	-0.073845	-0.995684	-0.056224	0.995320	-0.070059	-0.066558
17125	9.983494	-0.211661	-1.003133	0.261340	-0.305484	0.190188	0.065247	-0.062884	0.995886	-0.071286	-0.995756	-0.058205	0.995320	-0.067195	-0.069453
17126	10.004601	0.406328	-1.738481	-0.005477	-0.309897	0.188610	0.068193	-0.064931	0.995557	-0.071496	-0.995632	-0.060039	0.995107	-0.067085	-0.072538
17127	10.008865	-0.193623	-2.292777	-0.215214	-0.266643	0.192866	0.070721	-0.066933	0.995248	-0.073688	-0.995371	-0.061705	0.994771	-0.068974	-0.075326
17128	9.980639	-0.467627	-2.491924	-0.191076	-0.252317	0.187544	0.073088	-0.068937	0.994940	-0.075752	-0.995110	-0.063384	0.994444	-0.070736	-0.077952
17129	10.182575	-0.348832	-2.302919	-0.205201	-0.241196	0.187471	0.075361	-0.070875	0.994634	-0.077847	-0.994845	-0.064991	0.994113	-0.072531	-0.080490
17130	10.280060	-0.680412	-2.298474	-0.261059	-0.198707	0.182129	0.077189	-0.072794	0.994356	-0.080609	-0.994522	-0.066549	0.993752	-0.075018	-0.082634
17131	10.033609	-0.933169	-2.378499	-0.215962	-0.131453	0.167631	0.078380	-0.074460	0.994139	-0.082801	-0.994248	-0.067940	0.993479	-0.076990	-0.084095
17132	9.705005	-0.447041	-2.029598	-0.174643	-0.088506	0.158817	0.079124	-0.076069	0.993958	-0.084689	-0.993993	-0.069330	0.993261	-0.078692	-0.085091
17133	9.505111	-0.158766	-1.428253	-0.270517	-0.048774	0.157984	0.079497	-0.077578	0.993812	-0.087418	-0.993669	-0.070574	0.992995	-0.081267	-0.085776
17134	9.570130	-0.552546	-0.930835	-0.455418	-0.042226	0.157880	0.079773	-0.079142	0.993666	-0.092094	-0.993165	-0.071709	0.992550	-0.085790	-0.086516
17135	9.514573	-1.075938	-0.189993	-0.540243	-0.050648	0.148185	0.080161	-0.080557	0.993521	-0.097488	-0.992584	-0.072615	0.992003	-0.091035	-0.087420
17136	9.537566	-1.780132	0.309142	-0.428634	-0.069275	0.127382	0.080720	-0.081846	0.993371	-0.101870	-0.992082	-0.073462	0.991517	-0.095265	-0.088418
17137	9.406291	-1.936157	0.797038	-0.244591	-0.104939	0.106070	0.081675	-0.082902	0.993205	-0.104303	-0.991773	-0.074205	0.991186	-0.097533	-0.089650
17138	9.316046	-2.008811	1.147360	-0.089576	-0.166165	0.090999	0.083225	-0.083928	0.992990	-0.105294	-0.991610	-0.074986	0.990952	-0.098315	-0.091364
17139	9.519577	-2.083676	1.202708	-0.013207	-0.237977	0.072272	0.085527	-0.084787	0.992722	-0.105419	-0.991550	-0.075604	0.990743	-0.098185	-0.093742
17140	9.483367	-2.029491	1.159147	0.086939	-0.304028	0.053368	0.088481	-0.085573	0.992395	-0.104632	-0.991589	-0.076175	0.990567	-0.097096	-0.096690
17141	9.366881	-1.488362	1.133864	0.079687	-0.399233	0.032128	0.092416	-0.086192	0.991983	-0.103816	-0.991651	-0.076491	0.990294	-0.095914	-0.100592
17142	9.410851	-1.183658	0.970373	-0.030764	-0.478015	0.022296	0.097124	-0.086832	0.991477	-0.104169	-0.991602	-0.076638	0.989806	-0.095838	-0.105353
17143	9.567526	-1.327715	0.624043	-0.167022	-0.535925	0.002932	0.102433	-0.087294	0.990902	-0.105773	-0.991450	-0.076408	0.989100	-0.096984	-0.110791
17144	9.624119	-1.545016	-0.076826	-0.185641	-0.579235	-0.016061	0.108176	-0.087661	0.990259	-0.107618	-0.991284	-0.075995	0.988290	-0.098349	-0.116667
17145	9.629363	-1.284840	-0.632306	-0.162337	-0.592747	-0.028538	0.114069	-0.087883	0.989578	-0.109144	-0.991159	-0.075442	0.987459	-0.099401	-0.122653
17146	9.556819	-0.990687	-1.369772	-0.135472	-0.595313	-0.040427	0.119988	-0.088037	0.988864	-0.110460	-0.991060	-0.074829	0.986611	-0.100252	-0.128640
17147	9.617385	-0.814956	-1.903492	-0.122424	-0.577779	-0.045960	0.125743	-0.088083	0.988145	-0.111568	-0.990987	-0.074139	0.985769	-0.100923	-0.134437
17148	9.846671	-0.900148	-2.387257	-0.063656	-0.551325	-0.054125	0.131235	-0.088064	0.987432	-0.112152	-0.990971	-0.073474	0.984987	-0.101100	-0.139927
17149	10.252120	-0.299164	-2.858915	0.135717	-0.492084	-0.057911	0.136153	-0.087904	0.986780	-0.110697	-0.991168	-0.073021	0.984484	-0.099292	-0.144681
17150	10.511956	0.655611	-3.361958	0.080723	-0.412601	-0.049326	0.140267	-0.087783	0.986215	-0.109860	-0.991291	-0.072610	0.984000	-0.098161	-0.148689
17151	10.262693	0.867544	-3.606516	0.022572	-0.344194	-0.039836	0.143708	-0.087641	0.985732	-0.109533	-0.991359	-0.072173	0.983540	-0.097599	-0.152066
17152	10.119000	1.072475	-3.464949	-0.181941	-0.289428	-0.021582	0.146576	-0.087672	0.985307	-0.111316	-0.991200	-0.071637	0.982916	-0.099180	-0.155045
17153	9.976003	0.054309	-3.194909	-0.282289	-0.231620	-0.019538	0.148891	-0.087619	0.984964	-0.113998	-0.990946	-0.070919	0.982261	-0.101725	-0.157531
17154	9.984063	-0.424636	-2.444180	-0.192350	-0.200234	-0.020208	0.150879	-0.087584	0.984665	-0.115882	-0.990767	-0.070371	0.981737	-0.103487	-0.159635
17155	9.890008	-0.862109	-1.436156	-0.233932	-0.179960	-0.021828	0.152690	-0.087461	0.984396	-0.118079	-0.990556	-0.069693	0.981195	-0.105595	-0.161575
17156	9.691269	-2.094560	-0.282444	-0.306983	-0.208474	-0.034812	0.154776	-0.087300	0.984085	-0.121060	-0.990258	-0.068807	0.980504	-0.108484	-0.163836
17157	9.158178	-2.728033	0.948714	-0.309471	-0.281383	-0.072274	0.157639	-0.086802	0.983674	-0.123922	-0.989993	-0.067501	0.979690	-0.111258	-0.166818
17158	8.837533	-2.901657	1.972423	-0.262877	-0.392445	-0.108445	0.161617	-0.086130	0.983088	-0.126347	-0.989792	-0.065946	0.978732	-0.113552	-0.170849
17159	9.009821	-2.724522	2.157635	-0.202844	-0.506781	-0.136299	0.166757	-0.085280	0.982303	-0.128066	-0.989687	-0.064181	0.977646	-0.115097	-0.175959
17160	9.204510	-2.211459	1.779372	-0.100005	-0.615608	-0.154807	0.172970	-0.084418	0.981303	-0.128804	-0.989703	-0.062437	0.976469	-0.115596	-0.182062
17161	9.521308	-1.309482	0.513525	-0.066338	-0.692405	-0.165012	0.179941	-0.083514	0.980126	-0.129133	-0.989772	-0.060629	0.975165	-0.115657	-0.188885
17162	9.808453	-0.821701	-0.904152	-0.119357	-0.722318	-0.167079	0.187195	-0.082658	0.978839	-0.130012	-0.989772	-0.058718	0.973681	-0.116269	-0.196027
17163	9.952685	-0.436223	-2.072367	-0.196995	-0.729675	-0.177523	0.194523	-0.081684	0.977491	-0.131565	-0.989695	-0.056523	0.972035	-0.117608	-0.203266
17164	9.951165	-0.332287	-2.432986	-0.300285	-0.732646	-0.203512	0.201908	-0.080501	0.976091	-0.134099	-0.989503	-0.053868	0.970181	-0.120016	-0.210584
17165	9.862878	-0.634570	-2.025592	-0.510934	-0.725439	-0.232176	0.209253	-0.079019	0.974664	-0.138546	-0.989071	-0.050442	0.967997	-0.124481	-0.217914
17166	9.738954	-1.508695	-1.307695	-0.427164	-0.742772	-0.271846	0.216816	-0.077229	0.973153	-0.142119	-0.988743	-0.046803	0.965812	-0.128156	-0.225351
17167	10.000090	-1.036165	-0.814743	-0.402522	-0.786375	-0.302656	0.224834	-0.075189	0.971492	-0.145311	-0.988457	-0.042873	0.963501	-0.131529	-0.233164
17168	10.162930	-1.078211	-0.797160	-0.392493	-0.830810	-0.317871	0.233296	-0.073114	0.969653	-0.148380	-0.988169	-0.038810	0.961019	-0.134823	-0.241384
17169	10.217876	-0.924521	-1.044361	-0.381059	-0.867974	-0.338960	0.242127	-0.070882	0.967652	-0.151212	-0.987898	-0.034529	0.958389	-0.137960	-0.249915
17170	10.319813	-1.016695	-1.593001	-0.441016	-0.894068	-0.344844	0.251210	-0.068686	0.965492	-0.154601	-0.987521	-0.030028	0.955506	-0.141723	-0.258694
17171	11.034699	-0.957695	-1.857565	-0.428599	-0.918283	-0.357865	0.260521	-0.066407	0.963182	-0.157758	-0.987151	-0.025389	0.952492	-0.145336	-0.267650
17172	11.006993	0.364178	-1.502163	-0.378582	-0.933073	-0.380438	0.270000	-0.063982	0.960732	-0.160368	-0.986841	-0.020652	0.949412	-0.148494	-0.276708
17173	11.120279	-0.056092	-1.143981	-0.452329	-0.965472	-0.391775	0.279773	-0.061503	0.958094	-0.163560	-0.986411	-0.015560	0.946031	-0.152352	-0.286031
17174	10.812960	0.246282	-0.472716	-0.329448	-1.018109	-0.453497	0.290134	-0.058555	0.955193	-0.165396	-0.986174	-0.010216	0.942585	-0.155021	-0.295808
17175	10.740007	0.324037	0.086874	-0.295239	-1.077103	-0.487410	0.301062	-0.055360	0.951996	-0.166708	-0.985996	-0.004617	0.938920	-0.157315	-0.306075
17176	10.610133	0.028480	0.137512	-0.202289	-1.146877	-0.508571	0.312658	-0.052118	0.948435	-0.167059	-0.985947	0.000893	0.935060	-0.158724	-0.316971
17177	10.503256	-0.108352	-0.075108	-0.094357	-1.208687	-0.529541	0.324798	-0.048741	0.944527	-0.166219	-0.986069	0.006274	0.931063	-0.159036	-0.328375
17178	10.494606	-0.211837	-0.509100	-0.040188	-1.264583	-0.539939	0.337440	-0.045385	0.940252	-0.164820	-0.986256	0.011545	0.926806	-0.158868	-0.340283
17179	10.100575	0.405611	-0.569490	0.009643	-1.337136	-0.561913	0.350696	-0.041883	0.935552	-0.162762	-0.986522	0.016847	0.922237	-0.158180	-0.352787
17180	9.631189	0.460332	-0.297366	-0.137600	-1.411808	-0.573924	0.364613	-0.038420	0.930366	-0.161988	-0.986531	0.022744	0.916961	-0.159001	-0.365925
17181	9.085250	-0.122325	-0.022455	-0.186912	-1.509807	-0.606475	0.379362	-0.034762	0.924595	-0.161397	-0.986459	0.029134	0.911063	-0.160279	-0.379836
17182	8.916585	-0.098681	0.400450	-0.184671	-1.641974	-0.639142	0.395297	-0.031059	0.918028	-0.160610	-0.986369	0.035786	0.904403	-0.161590	-0.394898
17183	8.975566	-0.345842	0.622348	-0.200341	-1.766053	-0.661352	0.412227	-0.027315	0.910672	-0.159698	-0.986242	0.042708	0.896976	-0.163038	-0.410917
17184	9.264184	-0.773982	0.928818	-0.187346	-1.906019	-0.686911	0.430338	-0.023621	0.902359	-0.158487	-0.986106	0.049770	0.888645	-0.164430	-0.428103
17185	9.850511	-0.697649	1.574013	-0.161713	-2.078333	-0.722384	0.449805	-0.019839	0.892907	-0.156694	-0.985999	0.057027	0.879274	-0.165564	-0.446616
17186	10.726251	-0.435374	2.180849	-0.272624	-2.258806	-0.743397	0.470707	-0.016236	0.882140	-0.155662	-0.985675	0.064920	0.868450	-0.167874	-0.466491
17187	11.693890	-0.688622	2.499280	-0.329692	-2.413112	-0.751543	0.492631	-0.012827	0.870144	-0.154842	-0.985228	0.073140	0.856352	-0.170766	-0.487340
17188	12.798220	-0.376064	2.429516	-0.308748	-2.543923	-0.734455	0.515383	-0.009932	0.856903	-0.153769	-0.984775	0.081070	0.843052	-0.173548	-0.509063
17189	13.616351	-0.197109	2.598813	-0.361417	-2.666827	-0.701761	0.538683	-0.007606	0.842474	-0.153048	-0.984205	0.088974	0.828490	-0.176868	-0.531339
17190	14.298481	-0.436586	1.671307	-0.263400	-2.764306	-0.675832	0.562401	-0.005838	0.826844	-0.151492	-0.983776	0.096095	0.812868	-0.179304	-0.554162
17191	14.160704	-1.042890	-0.190538	-0.032455	-2.763660	-0.653872	0.585550	-0.004272	0.810625	-0.147956	-0.983752	0.101690	0.797019	-0.179482	-0.576668
17192	13.632178	-1.104280	-2.537916	0.378054	-2.687654	-0.623974	0.607668	-0.002864	0.794186	-0.141249	-0.984441	0.104526	0.781530	-0.175695	-0.598617
17193	12.665113	-0.289903	-4.873957	0.944844	-2.597044	-0.548096	0.628434	-0.001825	0.777860	-0.130514	-0.986068	0.103129	0.766835	-0.166332	-0.619917
17194	11.701071	0.657320	-6.505563	1.070433	-2.497251	-0.449890	0.647966	-0.001366	0.761668	-0.119509	-0.987795	0.099897	0.752235	-0.155756	-0.640220
17195	11.184631	0.479614	-8.694038	1.116641	-2.305980	-0.346749	0.665463	-0.001328	0.746429	-0.108881	-0.989475	0.095310	0.738447	-0.144698	-0.658604
17196	10.406897	0.254508	-10.092489	1.060025	-1.990921	-0.272198	0.680326	-0.001368	0.732908	-0.099281	-0.990953	0.090309	0.726154	-0.134203	-0.674307
17197	10.050321	0.219933	-10.246596	0.852624	-1.659401	-0.228946	0.692424	-0.001190	0.721490	-0.091542	-0.992062	0.086218	0.715660	-0.125746	-0.687036
17198	9.436440	-0.397113	-9.749449	0.885214	-1.170353	-0.193563	0.700925	-0.000648	0.713234	-0.083884	-0.993134	0.081534	0.708285	-0.116978	-0.696167
17199	8.001385	-0.712863	-9.630919	1.103959	-0.750577	-0.141028	0.706256	-0.000031	0.707957	-0.075085	-0.994363	0.074861	0.703964	-0.106028	-0.702277
17200	5.374000	0.797230	-10.450467	1.192617	-0.489271	-0.143065	0.709793	0.000943	0.704410	-0.065685	-0.995553	0.067520	0.701341	-0.094194	-0.706575
17201	4.172036	2.282814	-10.605867	0.587366	-0.347614	-0.169721	0.712256	0.002359	0.701916	-0.060361	-0.996084	0.064597	0.699320	-0.088378	-0.709325
17202	5.895529	2.109141	-8.641086	-0.005762	-0.059488	-0.213253	0.712797	0.004471	0.701356	-0.058874	-0.996069	0.066184	0.698895	-0.088467	-0.709732
17203	6.120546	2.207310	-6.968881	-0.343569	0.519651	-0.225358	0.709216	0.007240	0.704954	-0.059662	-0.995744	0.070249	0.702462	-0.091881	-0.705765
17204	5.900988	1.699937	-6.117297	-0.774613	1.084070	-0.197903	0.701682	0.010288	0.712416	-0.063728	-0.994982	0.077136	0.709635	-0.099526	-0.697505
17205	5.340751	0.175150	-6.279583	-0.819209	1.632164	-0.128441	0.690021	0.013323	0.723667	-0.068665	-0.994116	0.083775	0.720525	-0.107498	-0.685046
17206	4.488165	-0.284776	-6.618887	-0.446524	2.052277	-0.057467	0.675131	0.016184	0.737520	-0.071515	-0.993614	0.087270	0.734223	-0.111662	-0.669662
17207	3.876958	0.299551	-6.881902	-0.211789	2.360624	0.001456	0.657537	0.018886	0.753185	-0.073080	-0.993373	0.088708	0.749869	-0.113372	-0.651800
17208	3.696663	1.013696	-6.840528	-0.189833	2.625465	0.039774	0.637596	0.021527	0.770070	-0.074773	-0.993160	0.089674	0.766734	-0.114756	-0.631625
17209	3.983652	1.645763	-6.616144	-0.279256	2.897957	0.076013	0.614982	0.024187	0.788170	-0.077403	-0.992851	0.090863	0.784733	-0.116886	-0.608713
17210	4.101960	1.950908	-6.480225	-0.520116	3.196744	0.122302	0.589493	0.026821	0.807328	-0.082270	-0.992258	0.093036	0.803573	-0.121263	-0.582723
17211	3.942216	1.709548	-6.723019	-0.739842	3.456794	0.200040	0.561134	0.029205	0.827210	-0.089419	-0.991390	0.095658	0.822881	-0.127646	-0.553691
17212	3.693749	1.986224	-7.047376	-0.738280	3.662444	0.305862	0.530352	0.031004	0.847210	-0.097239	-0.990511	0.097119	0.842182	-0.133889	-0.522305
17213	3.609308	2.770940	-6.678456	-0.677395	3.873576	0.471439	0.496805	0.031701	0.867283	-0.105408	-0.989730	0.096557	0.861437	-0.139388	-0.488361
17214	3.368607	3.616524	-6.363668	-0.563664	4.081291	0.662106	0.460529	0.030968	0.887104	-0.113494	-0.989134	0.093448	0.880359	-0.143716	-0.452011
17215	3.664890	4.689834	-6.873069	-0.554171	4.226404	0.871948	0.421841	0.028594	0.906219	-0.122230	-0.988585	0.088090	0.898393	-0.147927	-0.413531
17216	4.371703	4.173419	-7.108770	-0.798645	4.473278	1.099460	0.379859	0.024538	0.924719	-0.133892	-0.987663	0.081209	0.915303	-0.154661	-0.371887
17217	4.677236	1.873629	-7.394157	-0.505129	4.591154	1.190602	0.335760	0.020077	0.941734	-0.142749	-0.987141	0.071940	0.931068	-0.158586	-0.328576
17218	5.206229	1.290990	-7.140439	-0.249752	4.663745	1.153403	0.290315	0.016168	0.956795	-0.148719	-0.986946	0.061802	0.945304	-0.160236	-0.284121
17219	5.785178	0.441669	-7.072596	-0.015810	4.632955	1.123495	0.244486	0.012589	0.969571	-0.151806	-0.987089	0.051096	0.957696	-0.159679	-0.239418
17220	6.898312	-1.225925	-7.028884	0.209503	4.524119	0.997035	0.199401	0.009952	0.979867	-0.152021	-0.987528	0.040966	0.968054	-0.157129	-0.195401
17221	8.354188	-1.646361	-6.833516	0.663538	4.327129	0.745220	0.156163	0.009321	0.987687	-0.146843	-0.988624	0.032547	0.976755	-0.150117	-0.153018
17222	9.719932	-0.537656	-6.136136	0.614994	4.090082	0.471366	0.115395	0.010708	0.993262	-0.141478	-0.989570	0.027105	0.983193	-0.143653	-0.112676
17223	10.552202	-0.729630	-5.189282	0.247753	3.817049	0.260928	0.077386	0.013621	0.996908	-0.139262	-0.989957	0.024336	0.987227	-0.140714	-0.074712
17224	10.778521	-1.460659	-4.610578	0.304656	3.524496	0.130955	0.042361	0.017263	0.998953	-0.136355	-0.990395	0.022897	0.989754	-0.137182	-0.039600
17225	9.951007	-0.884817	-1.537370	0.144181	3.020667	0.007826	0.012410	0.021356	0.999695	-0.134923	-0.990593	0.022836	0.990778	-0.135165	-0.009412
17226	10.168412	0.620268	1.006057	0.324254	2.401532	-0.028742	-0.011353	0.024883	0.999626	-0.131738	-0.991014	0.023173	0.991220	-0.131426	0.014529
17227	8.804226	2.272075	1.847000	0.750797	1.784175	0.027374	-0.029105	0.026940	0.999213	-0.124287	-0.991977	0.023124	0.991819	-0.123516	0.032219
17228	5.082365	2.440584	0.653521	0.486792	0.711831	0.162138	-0.036366	0.026233	0.998994	-0.119436	-0.992604	0.021718	0.992176	-0.118526	0.039230
17229	4.846966	0.504118	-1.223593	-0.011520	-0.362715	0.208180	-0.033043	0.023798	0.999171	-0.119456	-0.992644	0.019692	0.992289	-0.118706	0.035643
17230	6.166682	-1.058059	-3.029258	0.360197	-1.248814	0.026354	-0.020679	0.022115	0.999542	-0.115904	-0.993068	0.019574	0.993045	-0.115446	0.023099
17231	10.777254	-0.287206	-2.139298	0.309274	-1.840854	-0.185807	-0.002204	0.021920	0.999757	-0.112837	-0.993380	0.021532	0.993611	-0.112762	0.004663
17232	16.731297	4.966937	-0.403312	0.229424	-1.803135	-0.344618	0.016096	0.023369	0.999597	-0.110562	-0.993555	0.025008	0.993739	-0.110920	-0.013409
17233	14.374325	5.147498	0.343406	1.080990	-1.105692	-0.354311	0.027441	0.025792	0.999291	-0.099703	-0.994612	0.028409	0.994639	-0.100412	-0.024721
17234	12.235819	1.528783	-1.514382	0.890644	-1.131661	-0.088674	0.038781	0.025627	0.998919	-0.090840	-0.995441	0.029065	0.995110	-0.091869	-0.036276
17235	10.209300	-0.706601	-3.219568	0.979372	-1.327160	0.140985	0.051847	0.023150	0.998387	-0.081094	-0.996332	0.027314	0.995357	-0.082380	-0.049779
17236	8.982137	2.001284	-4.586362	1.153302	-1.448708	0.143816	0.066155	0.020645	0.997596	-0.069726	-0.997246	0.025262	0.995370	-0.071229	-0.064533
17237	10.352891	1.837491	-5.112447	0.485098	-1.283892	0.108033	0.078842	0.018769	0.996710	-0.064913	-0.997604	0.023920	0.994771	-0.066585	-0.077435
17238	9.985610	2.955366	-4.787724	0.326159	-1.097725	0.113019	0.089682	0.016968	0.995826	-0.061790	-0.997834	0.022567	0.994052	-0.063556	-0.088439
17239	10.003121	0.524057	-4.077133	-0.255985	-0.960217	0.177731	0.099103	0.014669	0.994969	-0.064419	-0.997699	0.021125	0.992990	-0.066188	-0.097930
17240	10.091874	0.293367	-3.439255	-0.053980	-0.918011	0.168941	0.108100	0.012414	0.994063	-0.065154	-0.997684	0.019544	0.992003	-0.066880	-0.107041
17241	10.327313	0.571365	-3.180384	-0.215220	-0.896923	0.167553	0.116880	0.010231	0.993093	-0.067394	-0.997560	0.018209	0.990857	-0.069057	-0.115905
17242	10.221579	-0.862161	-2.965118	-0.159175	-0.756647	0.175856	0.124249	0.007989	0.992219	-0.069206	-0.997463	0.016698	0.989835	-0.070742	-0.123381
17243	9.623018	-2.429005	-2.998331	0.264229	-0.620108	0.154675	0.130282	0.006113	0.991458	-0.066710	-0.997661	0.014917	0.989230	-0.068084	-0.129570
17244	9.503057	-2.290406	-3.092819	0.553315	-0.575862	0.110590	0.135902	0.004675	0.990711	-0.061408	-0.998026	0.013133	0.988817	-0.062622	-0.135347
17245	9.871479	-1.766048	-3.197710	0.724883	-0.522048	0.085259	0.141020	0.003600	0.990000	-0.054305	-0.998460	0.011366	0.988516	-0.055365	-0.140607
17246	10.165132	-1.397224	-3.270047	0.581371	-0.478006	0.063598	0.145706	0.002755	0.989324	-0.048673	-0.998765	0.009950	0.988130	-0.049603	-0.145392
17247	10.038100	-1.127733	-3.260401	0.602721	-0.415286	0.023226	0.149807	0.002405	0.988712	-0.042716	-0.999048	0.008902	0.987792	-0.043568	-0.149561
17248	9.817070	0.015725	-2.852546	0.575920	-0.391860	0.002797	0.153670	0.002259	0.988120	-0.037054	-0.999281	0.008047	0.987427	-0.037851	-0.153476
17249	10.035144	0.667758	-2.651449	0.457282	-0.357488	0.007242	0.157207	0.002131	0.987563	-0.032521	-0.999444	0.007334	0.987030	-0.033270	-0.157050
17250	10.029753	0.386112	-2.716888	0.488391	-0.291427	0.013177	0.160073	0.001951	0.987103	-0.027744	-0.999594	0.006475	0.986715	-0.028423	-0.159954
17251	9.814639	0.353668	-2.476452	0.556781	-0.254811	-0.002356	0.162600	0.001983	0.986690	-0.022213	-0.999737	0.005670	0.986442	-0.022840	-0.162513
17252	9.744367	0.473458	-2.262076	0.547463	-0.251281	-0.012150	0.165074	0.002095	0.986279	-0.016815	-0.999846	0.004938	0.986138	-0.017400	-0.165014
17253	9.675699	0.305001	-2.221299	0.458957	-0.227145	-0.008835	0.167328	0.002225	0.985899	-0.012239	-0.999916	0.004334	0.985825	-0.012791	-0.167286
17254	9.677314	0.124206	-2.251909	0.390985	-0.211659	-0.012069	0.169409	0.002364	0.985543	-0.008386	-0.999957	0.003840	0.985510	-0.008915	-0.169382
17255	9.669634	0.596861	-2.180159	0.325093	-0.209896	-0.002733	0.171490	0.002453	0.985183	-0.005140	-0.999981	0.003384	0.985172	-0.005644	-0.171475
17256	9.565060	1.162489	-1.886445	0.182873	-0.209489	0.001275	0.173547	0.002471	0.984823	-0.003361	-0.999990	0.003102	0.984820	-0.003849	-0.173537
17257	9.629378	0.954815	-1.725114	0.013163	-0.196698	0.009598	0.175497	0.002449	0.984477	-0.003203	-0.999990	0.003059	0.984475	-0.003690	-0.175488
17258	9.597252	0.076099	-1.508151	0.006443	-0.182526	-0.007964	0.177287	0.002563	0.984156	-0.003146	-0.999990	0.003171	0.984154	-0.003658	-0.177277
17259	9.599289	-0.276047	-1.185094	0.116631	-0.204011	-0.012929	0.179308	0.002770	0.983789	-0.001926	-0.999993	0.003167	0.983791	-0.002462	-0.179302
17260	9.660705	-0.813069	-1.110367	0.084004	-0.215152	-0.015584	0.181418	0.002963	0.983402	-0.001091	-0.999994	0.003214	0.983406	-0.001657	-0.181413
17261	9.752525	-0.774912	-1.390441	0.208118	-0.240403	-0.033106	0.183793	0.003373	0.982959	0.001059	-0.999994	0.003233	0.982964	0.000447	-0.183796
17262	9.984113	-0.035235	-1.929712	0.114858	-0.239302	-0.013739	0.186138	0.003554	0.982517	0.002193	-0.999992	0.003202	0.982521	0.001559	-0.186144
17263	9.690183	0.883454	-2.864276	0.020657	-0.226022	0.013417	0.188370	0.003502	0.982092	0.002411	-0.999992	0.003103	0.982095	0.001783	-0.188377
17264	9.654930	1.035231	-3.368321	-0.207134	-0.202825	0.031410	0.190355	0.003231	0.981710	0.000298	-0.999995	0.003233	0.981715	-0.000323	-0.190355
17265	9.896520	0.962381	-3.413194	-0.336501	-0.175399	0.020903	0.192090	0.003101	0.981372	-0.002997	-0.999988	0.003747	0.981373	-0.003661	-0.192078
17266	10.315890	0.545276	-2.720291	-0.436489	-0.130838	-0.003085	0.193367	0.003166	0.981121	-0.007294	-0.999963	0.004665	0.981099	-0.008058	-0.193337
17267	10.443811	0.139911	-1.446777	-0.498689	-0.121644	-0.023713	0.194579	0.003478	0.980881	-0.012085	-0.999909	0.005943	0.980812	-0.013010	-0.194519
17268	10.322976	-0.451895	0.042279	-0.588371	-0.147748	-0.045690	0.196028	0.003953	0.980590	-0.017785	-0.999813	0.007586	0.980437	-0.018927	-0.195921
17269	9.862025	-1.071986	1.122704	-0.510846	-0.211515	-0.065272	0.198128	0.004646	0.980165	-0.022611	-0.999701	0.009309	0.979915	-0.024007	-0.197964
17270	9.354037	-1.165934	1.594811	-0.342466	-0.306728	-0.081823	0.201147	0.005427	0.979546	-0.025821	-0.999608	0.010840	0.979221	-0.027474	-0.200928
17271	8.990756	-1.441107	1.538773	-0.193636	-0.426294	-0.111285	0.205356	0.006497	0.978666	-0.027449	-0.999546	0.012396	0.978302	-0.029409	-0.205085
17272	9.584365	-1.672220	1.190650	-0.153080	-0.554515	-0.144320	0.210813	0.007814	0.977495	-0.028664	-0.999489	0.014172	0.977106	-0.031007	-0.210481
17273	10.066510	-2.186157	0.929376	-0.197559	-0.646498	-0.181493	0.217180	0.009491	0.976085	-0.030178	-0.999409	0.016433	0.975665	-0.033025	-0.216765
17274	10.103651	-2.361843	0.824318	-0.205840	-0.741481	-0.220575	0.224471	0.011485	0.974413	-0.031715	-0.999315	0.019084	0.973965	-0.035188	-0.223953
17275	10.098034	-1.825400	0.530981	-0.157651	-0.812743	-0.252670	0.232456	0.013773	0.972509	-0.032667	-0.999225	0.021960	0.972058	-0.036874	-0.231826
17276	10.163609	-0.809019	-0.056312	-0.200811	-0.880118	-0.273117	0.241088	0.016210	0.970368	-0.033988	-0.999106	0.025134	0.969908	-0.039040	-0.240321
17277	10.250824	-0.129159	-0.689032	-0.304532	-0.941572	-0.300565	0.250306	0.018877	0.967983	-0.036207	-0.998928	0.028844	0.967490	-0.042268	-0.249354
17278	10.747987	-0.339909	-1.010441	-0.444994	-0.989018	-0.349580	0.259988	0.021970	0.965362	-0.039631	-0.998656	0.033401	0.964798	-0.046942	-0.258768
17279	11.310211	1.035788	-0.759868	-0.330020	-1.048676	-0.446450	0.270261	0.025961	0.962437	-0.041639	-0.998386	0.038624	0.961886	-0.050513	-0.268744
17280	11.179582	0.988988	-0.361814	-0.341791	-1.076602	-0.499050	0.280807	0.030421	0.959282	-0.043561	-0.998064	0.044403	0.958775	-0.054256	-0.278938
17281	11.117163	0.013518	-0.293580	-0.212097	-1.119705	-0.565366	0.291756	0.035491	0.955834	-0.043977	-0.997757	0.050471	0.955481	-0.056760	-0.289541
17282	11.013146	-0.643586	-0.050919	-0.161708	-1.178528	-0.640345	0.303271	0.041240	0.952012	-0.043628	-0.997414	0.057104	0.951905	-0.058853	-0.300688
17283	10.830402	-0.774143	0.092041	0.122252	-1.258494	-0.706529	0.315502	0.047594	0.947731	-0.040291	-0.997169	0.063489	0.948069	-0.058216	-0.312691
17284	10.482128	-0.049556	0.343418	0.121641	-1.352885	-0.734739	0.328577	0.054177	0.942922	-0.036787	-0.996862	0.070095	0.943760	-0.057719	-0.325553
17285	10.364829	-0.447989	0.338440	0.098772	-1.437736	-0.760063	0.342351	0.060961	0.937592	-0.033326	-0.996477	0.076959	0.938981	-0.057593	-0.339113
17286	10.245161	-0.117044	0.425121	0.135647	-1.540366	-0.793752	0.357017	0.068027	0.931618	-0.029292	-0.996039	0.083956	0.933639	-0.057263	-0.353610
17287	9.971476	0.362760	0.513566	0.114526	-1.643055	-0.811383	0.372496	0.075197	0.924982	-0.025292	-0.995519	0.091116	0.927689	-0.057336	-0.368925
17288	9.699565	0.200938	0.434342	0.159530	-1.740170	-0.820355	0.388766	0.082407	0.917644	-0.020705	-0.994959	0.098122	0.921104	-0.057146	-0.385100
17289	9.686276	0.391210	0.334955	0.169462	-1.850703	-0.839681	0.405859	0.089730	0.909520	-0.015843	-0.994328	0.105167	0.913798	-0.057092	-0.402136
17290	10.252592	0.255978	0.401990	0.167944	-1.974111	-0.852124	0.423926	0.097113	0.900475	-0.010788	-0.993623	0.112237	0.905633	-0.057294	-0.420175
17291	10.800225	0.289689	0.644101	0.170327	-2.088288	-0.873740	0.442770	0.104614	0.890512	-0.005500	-0.992835	0.119369	0.896619	-0.057751	-0.439022
17292	10.898193	0.403549	0.460787	0.239842	-2.199164	-0.895279	0.462395	0.112271	0.879538	0.000685	-0.991996	0.126265	0.886674	-0.057782	-0.458771
17293	10.778041	0.494589	0.367181	0.139166	-2.308093	-0.919168	0.482650	0.120052	0.867546	0.006215	-0.991005	0.133679	0.875791	-0.059128	-0.479055
17294	10.762370	0.250425	0.969689	-0.148877	-2.427040	-0.932569	0.503682	0.127840	0.854378	0.009516	-0.989751	0.142487	0.863837	-0.063638	-0.499736
17295	10.829037	-0.257858	1.006336	-0.320515	-2.498545	-0.932945	0.524949	0.135405	0.840294	0.011518	-0.988304	0.152060	0.851056	-0.070146	-0.520369
17296	10.881490	-1.014872	0.520742	-0.404127	-2.570608	-0.907733	0.546533	0.142511	0.825222	0.012968	-0.986736	0.161815	0.837337	-0.077735	-0.541132
17297	11.464155	-1.283197	-0.285091	-0.211336	-2.641385	-0.901375	0.568263	0.149257	0.809197	0.016171	-0.985247	0.170373	0.822688	-0.083731	-0.562293
17298	11.833787	-0.741748	-1.282601	-0.029387	-2.677178	-0.874605	0.589912	0.155610	0.792331	0.020998	-0.983880	0.177595	0.807194	-0.088128	-0.583670
17299	11.625284	-0.458589	-2.844647	0.058378	-2.665928	-0.833109	0.610957	0.161367	0.775044	0.026375	-0.982611	0.183793	0.791225	-0.091848	-0.604589
17300	11.121819	-0.348554	-4.521419	0.148419	-2.607293	-0.755735	0.631147	0.166399	0.757604	0.032235	-0.981502	0.188721	0.774993	-0.094690	-0.624836
17301	10.534435	0.166183	-5.728218	0.243168	-2.551542	-0.644414	0.650423	0.170221	0.740253	0.038114	-0.980652	0.192012	0.758615	-0.096675	-0.644327
17302	10.698099	0.855648	-7.047099	0.178449	-2.485236	-0.512901	0.668858	0.172856	0.723014	0.042843	-0.979937	0.194647	0.742155	-0.099215	-0.662845
17303	10.980628	1.207502	-8.416614	0.051855	-2.239069	-0.385793	0.685076	0.174297	0.707313	0.045704	-0.979326	0.197059	0.727036	-0.102673	-0.678879
17304	10.411312	1.019839	-8.566274	-0.289281	-1.960734	-0.336312	0.699039	0.175555	0.693199	0.045956	-0.978421	0.201445	0.713605	-0.108961	-0.692022
17305	9.630683	0.568241	-7.828532	-0.332823	-1.648361	-0.267841	0.710530	0.176233	0.681240	0.045344	-0.977585	0.205602	0.702204	-0.115197	-0.702595
17306	8.328605	0.909710	-8.458529	0.365967	-1.229311	-0.147432	0.719031	0.176308	0.672242	0.048961	-0.977733	0.204060	0.693251	-0.113812	-0.711653
17307	5.692052	3.593154	-10.344969	0.927244	-1.016775	-0.029818	0.725974	0.175367	0.664988	0.055410	-0.978713	0.197610	0.685487	-0.106613	-0.720237
17308	6.105135	5.803712	-10.516308	0.102505	-0.943817	0.121504	0.732470	0.173210	0.658396	0.055233	-0.979025	0.196112	0.678555	-0.107281	-0.726673
17309	7.792087	4.886879	-8.538310	-0.954419	-0.565463	0.248186	0.736373	0.170057	0.654856	0.046819	-0.978384	0.201426	0.674954	-0.117665	-0.728417
17310	7.089854	3.059825	-7.533108	-1.307425	-0.005610	0.356347	0.736550	0.166606	0.655543	0.035377	-0.977351	0.208645	0.675457	-0.130486	-0.725762
17311	6.778775	1.883891	-6.577907	-1.647146	0.537020	0.468275	0.732988	0.162705	0.660497	0.020657	-0.975850	0.217464	0.679928	-0.145754	-0.718647
17312	5.732131	0.247197	-6.718866	-1.259533	1.055688	0.632870	0.725851	0.158167	0.669420	0.007437	-0.974952	0.222293	0.687812	-0.156373	-0.708846
17313	4.974730	1.731606	-6.919174	-0.589661	1.402917	0.772427	0.716095	0.152777	0.681078	-0.002345	-0.975220	0.221224	0.697999	-0.160014	-0.697992
17314	4.728767	3.292078	-6.840599	-0.584197	1.765085	0.917576	0.703589	0.146720	0.695296	-0.012964	-0.975640	0.218996	0.710489	-0.163097	-0.684547
17315	4.612818	3.538517	-7.025820	-0.585309	2.075320	1.042330	0.688442	0.139892	0.711673	-0.024540	-0.976168	0.215623	0.724877	-0.165908	-0.668602
17316	4.737112	3.977624	-6.939623	-0.791741	2.338140	1.133323	0.670950	0.132801	0.729514	-0.038039	-0.976371	0.212725	0.740526	-0.170478	-0.650045
17317	4.833313	3.815857	-6.808620	-1.158284	2.539611	1.211328	0.651312	0.125360	0.748383	-0.054824	-0.975907	0.211185	0.756827	-0.178577	-0.628748
17318	4.798942	2.989045	-6.689546	-1.416647	2.731424	1.277787	0.629586	0.117959	0.767924	-0.073845	-0.974847	0.210285	0.773414	-0.189100	-0.605039
17319	4.794548	2.021090	-6.761634	-1.379170	2.912776	1.311765	0.605655	0.110802	0.787976	-0.092821	-0.973660	0.208257	0.790295	-0.199273	-0.579417
17320	5.092884	1.412499	-6.724786	-1.044632	3.090400	1.346761	0.579600	0.103999	0.808238	-0.109149	-0.972978	0.203469	0.807558	-0.206149	-0.552586
17321	5.538350	2.331114	-6.478725	-0.712927	3.232720	1.387595	0.551537	0.097192	0.828469	-0.122911	-0.972879	0.195959	0.825046	-0.209907	-0.524632
17322	5.933135	2.803551	-5.732557	-0.769018	3.353989	1.465647	0.521669	0.090089	0.848378	-0.137190	-0.972610	0.187640	0.842045	-0.214275	-0.495021
17323	6.190804	1.977823	-5.827617	-0.420954	3.511196	1.568774	0.489493	0.082349	0.868110	-0.148791	-0.973044	0.176201	0.859219	-0.215416	-0.464045
17324	6.289228	2.563145	-6.316110	0.126687	3.630583	1.651920	0.455465	0.074050	0.887169	-0.155504	-0.974597	0.161182	0.876568	-0.211371	-0.432379
17325	6.487260	3.746641	-6.599193	0.248016	3.727488	1.758975	0.419629	0.064664	0.905389	-0.161090	-0.976320	0.144392	0.893287	-0.206440	-0.399276
17326	6.772299	3.622652	-6.810254	0.122212	3.829248	1.890538	0.382012	0.054072	0.922574	-0.167578	-0.977685	0.126691	0.908837	-0.203000	-0.364426
17327	7.074543	2.915398	-7.061157	0.072277	3.937549	2.005306	0.342451	0.042400	0.938578	-0.174248	-0.978784	0.107793	0.923236	-0.200459	-0.327798
17328	7.434089	1.932973	-7.364200	0.154376	4.050971	2.078200	0.301098	0.030148	0.953116	-0.179515	-0.979838	0.087704	0.936544	-0.197506	-0.289615
17329	7.443644	1.369023	-7.236569	0.266444	4.131705	2.086749	0.258314	0.017787	0.965897	-0.182904	-0.980847	0.066977	0.948589	-0.193967	-0.250113
17330	7.720454	1.724829	-7.395914	0.394149	4.118108	1.973169	0.215408	0.006361	0.976503	-0.183837	-0.981835	0.046948	0.959064	-0.189630	-0.210326
17331	7.865900	1.534390	-6.677780	-0.096806	4.084268	1.813968	0.172653	-0.003670	0.984976	-0.188354	-0.981662	0.029358	0.966806	-0.190593	-0.170179
17332	8.171668	-1.721018	-6.043800	-0.216786	4.012639	1.592697	0.130702	-0.011564	0.991354	-0.192895	-0.981120	0.013987	0.972475	-0.193056	-0.130465
17333	7.929589	-3.164316	-5.969807	0.612099	3.902845	1.245627	0.090227	-0.016350	0.995787	-0.188380	-0.982096	0.000943	0.977943	-0.187672	-0.091691
17334	7.862378	0.022759	-5.488230	1.388167	3.703703	0.903741	0.052261	-0.018485	0.998462	-0.175437	-0.984449	-0.009043	0.983102	-0.174695	-0.054691
17335	8.176764	3.243362	-4.843480	1.291809	3.463654	0.734897	0.016876	-0.019878	0.999660	-0.163074	-0.986470	-0.016863	0.986469	-0.162734	-0.019890
17336	8.237878	3.342186	-3.645087	0.633778	3.150248	0.664956	-0.015284	-0.021361	0.999655	-0.156853	-0.987342	-0.023496	0.987504	-0.157158	0.011740
17337	7.489142	1.016133	-2.967003	0.712080	2.758855	0.595138	-0.043464	-0.022971	0.998791	-0.149727	-0.988295	-0.029245	0.987772	-0.150817	0.039516
17338	6.675805	1.629010	-1.357252	1.203067	2.193795	0.377244	-0.065685	-0.023477	0.997564	-0.137665	-0.989950	-0.032363	0.988298	-0.139456	0.061793
17339	6.949434	3.557470	1.507570	1.060691	1.451291	0.189108	-0.080294	-0.023373	0.996497	-0.127116	-0.991322	-0.033494	0.988633	-0.129360	0.076627
17340	7.663620	3.797330	2.062308	0.597360	0.763283	0.138134	-0.088015	-0.023736	0.995836	-0.121127	-0.992042	-0.034351	0.988727	-0.123646	0.084440
17341	5.345139	2.359932	1.115859	0.775423	-0.017617	0.026406	-0.087886	-0.023980	0.995842	-0.113468	-0.992962	-0.033924	0.989647	-0.115978	0.084547
17342	5.936950	2.573304	-0.062932	0.423616	-0.915249	-0.161213	-0.078647	-0.023379	0.996628	-0.109440	-0.993480	-0.031941	0.990877	-0.111584	0.075575
17343	8.889185	1.240083	-0.613509	0.495628	-1.560568	-0.324294	-0.062837	-0.021808	0.997786	-0.104764	-0.994094	-0.028325	0.992510	-0.106312	0.060181
17344	12.819716	4.196200	0.173133	0.664574	-1.484375	-0.421043	-0.047669	-0.019107	0.998680	-0.098428	-0.994861	-0.023732	0.994002	-0.099429	0.045543
17345	12.939091	4.295528	0.751808	0.902725	-0.959779	-0.362442	-0.037793	-0.016351	0.999152	-0.089585	-0.995785	-0.019685	0.995262	-0.090253	0.036169
17346	12.018072	5.917388	1.159448	1.346714	-0.621074	-0.308121	-0.031357	-0.013759	0.999414	-0.076310	-0.996954	-0.016119	0.996591	-0.076770	0.030211
17347	12.291380	4.523142	-0.165502	0.299612	-0.857364	-0.146377	-0.022712	-0.012865	0.999659	-0.073293	-0.997205	-0.014499	0.997052	-0.073597	0.021706
17348	13.653020	-2.396053	-2.877253	-0.093252	-1.150162	-0.007832	-0.011243	-0.013597	0.999844	-0.074254	-0.997135	-0.014396	0.997176	-0.074404	0.010201
17349	11.668053	-4.331848	-4.422499	0.904428	-1.400535	-0.045444	0.002752	-0.014036	0.999898	-0.065153	-0.997779	-0.013827	0.997871	-0.065108	-0.003660
17350	11.244073	1.355141	-4.349807	1.144690	-1.539825	-0.140183	0.018199	-0.013509	0.999743	-0.053742	-0.998476	-0.012513	0.998389	-0.053500	-0.018897
17351	11.196735	2.482003	-4.261106	0.265707	-1.254513	-0.110834	0.030781	-0.012974	0.999442	-0.050997	-0.998634	-0.011393	0.998224	-0.050618	-0.031401
17352	10.008311	1.547323	-4.308998	0.516149	-1.016579	-0.051629	0.040947	-0.012905	0.999078	-0.045854	-0.998887	-0.011023	0.998109	-0.045360	-0.041493
17353	9.473692	0.750867	-4.706254	0.623200	-0.824120	0.108845	0.049134	-0.014248	0.998691	-0.039600	-0.999140	-0.012306	0.998007	-0.038943	-0.049656
17354	9.164281	1.349277	-4.956600	0.603941	-0.736793	0.210041	0.056403	-0.016571	0.998271	-0.033711	-0.999324	-0.014683	0.997839	-0.032825	-0.056924
17355	9.745789	1.680029	-4.549670	0.516731	-0.605140	0.250685	0.062380	-0.019161	0.997869	-0.028613	-0.999439	-0.017403	0.997642	-0.027466	-0.062893
17356	9.746821	2.027787	-3.795008	0.421632	-0.520302	0.261774	0.067494	-0.021868	0.997480	-0.024603	-0.999492	-0.020248	0.997416	-0.023175	-0.067997
17357	10.168113	0.998855	-2.745690	0.078594	-0.453327	0.260595	0.071977	-0.024469	0.997106	-0.023892	-0.999454	-0.022802	0.997120	-0.022182	-0.072522
17358	9.896217	-0.222282	-2.020558	0.092376	-0.386307	0.230822	0.075767	-0.026819	0.996765	-0.023168	-0.999416	-0.025129	0.996856	-0.021189	-0.076344
17359	10.119215	-1.770155	-1.799538	-0.053894	-0.368177	0.197547	0.079420	-0.028761	0.996426	-0.023745	-0.999355	-0.026953	0.996558	-0.021520	-0.080051
17360	10.205564	-2.926197	-2.039396	0.092471	-0.329662	0.176205	0.082656	-0.030551	0.996110	-0.022992	-0.999322	-0.028741	0.996313	-0.020527	-0.083302
17361	10.148788	-2.590340	-2.243182	0.400337	-0.272586	0.157435	0.085370	-0.032074	0.995833	-0.019044	-0.999352	-0.030554	0.996167	-0.016357	-0.085925
17362	10.165644	-1.274311	-2.413099	0.466740	-0.242446	0.144446	0.087753	-0.033510	0.995578	-0.014545	-0.999371	-0.032356	0.996036	-0.011642	-0.088185
17363	10.361185	-0.327054	-2.531102	0.355745	-0.181038	0.138961	0.089572	-0.034824	0.995371	-0.011050	-0.999362	-0.033969	0.995919	-0.007957	-0.089899
17364	10.057961	0.071843	-2.418441	0.269513	-0.105243	0.130384	0.090599	-0.036093	0.995233	-0.008509	-0.999335	-0.035467	0.995851	-0.005255	-0.090846
17365	9.944577	-0.212714	-2.116644	0.182957	-0.073483	0.122605	0.091358	-0.037227	0.995122	-0.006723	-0.999301	-0.036766	0.995795	-0.003331	-0.091545
17366	10.098050	-0.955675	-1.677377	0.200540	-0.061656	0.109959	0.091958	-0.038286	0.995027	-0.004851	-0.999266	-0.038001	0.995751	-0.001333	-0.092076
17367	10.068480	-0.970094	-1.360264	0.359085	-0.066094	0.094879	0.092652	-0.039142	0.994929	-0.001291	-0.999231	-0.039191	0.995698	0.002347	-0.092631
17368	9.936903	-0.532081	-1.182106	0.369765	-0.069971	0.080941	0.093341	-0.039907	0.994834	0.002291	-0.999185	-0.040296	0.995632	0.006040	-0.093173
17369	9.593722	-0.340867	-0.890171	0.310725	-0.091514	0.066650	0.094293	-0.040475	0.994721	0.005390	-0.999138	-0.041166	0.995530	0.009243	-0.093993
17370	9.542042	0.116355	-0.675180	0.164411	-0.122792	0.057027	0.095510	-0.040991	0.994584	0.006948	-0.999100	-0.041845	0.995404	0.010907	-0.095139
17371	9.609297	0.596213	-0.660174	-0.006135	-0.135336	0.056521	0.096899	-0.041450	0.994431	0.006903	-0.999080	-0.042316	0.995270	0.010965	-0.096524
17372	9.634582	0.342023	-0.676564	-0.210560	-0.127917	0.070768	0.098168	-0.042103	0.994279	0.004714	-0.999074	-0.042771	0.995159	0.008886	-0.097879
17373	9.522933	-0.651039	-0.483759	-0.191075	-0.133840	0.060782	0.099540	-0.042604	0.994121	0.002831	-0.999067	-0.043099	0.995030	0.007104	-0.099327
17374	9.581408	-1.162287	-0.124671	-0.048411	-0.173907	0.034997	0.101263	-0.042900	0.993934	0.002290	-0.999057	-0.043354	0.994857	0.006666	-0.101069
17375	9.558928	-1.186787	0.340403	0.120018	-0.208893	0.017353	0.103378	-0.042965	0.993714	0.003538	-0.999044	-0.043563	0.994636	0.008020	-0.103127
17376	9.468473	-1.132219	0.825867	0.139182	-0.270828	-0.002072	0.106063	-0.042879	0.993434	0.004901	-0.999035	-0.043644	0.994347	0.009498	-0.105750
17377	9.400204	-1.239097	1.235345	0.117172	-0.358990	-0.019740	0.109663	-0.042556	0.993057	0.006152	-0.999035	-0.043491	0.993950	0.010879	-0.109295
17378	9.363404	-1.348137	1.480543	0.012610	-0.448612	-0.038838	0.114110	-0.042077	0.992577	0.006298	-0.999052	-0.043075	0.993448	0.011166	-0.113737
17379	9.534203	-1.696262	1.223000	-0.018928	-0.520442	-0.063640	0.119301	-0.041297	0.991999	0.006241	-0.999084	-0.042343	0.992839	0.011242	-0.118934
17380	9.678195	-1.355595	0.509463	0.052181	-0.568510	-0.077891	0.124930	-0.040412	0.991342	0.006831	-0.999111	-0.041589	0.992142	0.011967	-0.124543
17381	9.941579	-1.066302	-0.430743	0.052616	-0.573915	-0.075254	0.130638	-0.039509	0.990643	0.007495	-0.999138	-0.040836	0.991402	0.012759	-0.130229
17382	10.108112	-0.474680	-1.721667	0.168254	-0.550714	-0.064045	0.136082	-0.038752	0.989939	0.009225	-0.999142	-0.040381	0.990655	0.014628	-0.135608
17383	9.980357	0.858461	-2.713294	0.105874	-0.533643	-0.049263	0.141382	-0.038100	0.989222	0.010385	-0.999147	-0.039966	0.989901	0.015924	-0.140866
17384	9.934752	1.436882	-3.497485	-0.004860	-0.501373	-0.032821	0.146332	-0.037650	0.988519	0.010362	-0.999162	-0.039590	0.989181	0.016037	-0.145819
17385	9.967922	1.796011	-3.793307	-0.169641	-0.449380	-0.030013	0.150797	-0.037194	0.987865	0.008787	-0.999202	-0.038963	0.988526	0.014556	-0.150350
17386	10.074768	0.769087	-3.726605	-0.310242	-0.356500	-0.028469	0.154310	-0.036822	0.987336	0.005743	-0.999255	-0.038164	0.988006	0.011559	-0.153983
17387	10.354722	-0.016147	-2.847349	-0.286047	-0.292050	-0.048804	0.157222	-0.036208	0.986899	0.003066	-0.999305	-0.037151	0.987559	0.008867	-0.157002
17388	10.175737	-0.053296	-1.453946	-0.181437	-0.269773	-0.056783	0.159876	-0.035577	0.986496	0.001344	-0.999342	-0.036258	0.987136	0.007123	-0.159723
17389	9.792472	0.137517	-0.029352	-0.331087	-0.298914	-0.038292	0.162857	-0.035079	0.986026	-0.001786	-0.999377	-0.035259	0.986648	0.003981	-0.162818
17390	9.047768	-0.825431	0.807242	-0.353660	-0.360026	-0.029313	0.166401	-0.034736	0.985446	-0.005247	-0.999396	-0.034342	0.986044	0.000544	-0.166483
17391	8.866981	-1.948703	1.231673	-0.283717	-0.450904	-0.045920	0.170875	-0.034181	0.984700	-0.007890	-0.999413	-0.033323	0.985261	-0.002075	-0.171044
17392	9.095003	-2.370608	1.248794	-0.091815	-0.558794	-0.075143	0.176376	-0.033402	0.983756	-0.008684	-0.999438	-0.032378	0.984285	-0.002832	-0.176567
17393	9.176971	-2.435850	0.983764	-0.100194	-0.647957	-0.098294	0.182779	-0.032351	0.982622	-0.009435	-0.999470	-0.031151	0.983109	-0.003577	-0.182987
17394	9.190058	-2.683876	0.506361	-0.120154	-0.745126	-0.122005	0.190104	-0.031120	0.981271	-0.010407	-0.999505	-0.029683	0.981709	-0.004569	-0.190333
17395	9.671963	-1.953620	-0.112215	-0.123990	-0.825320	-0.145707	0.198229	-0.029629	0.979708	-0.011303	-0.999546	-0.027942	0.980091	-0.005535	-0.198473
17396	10.064173	-0.837371	-0.758171	-0.215285	-0.869715	-0.163932	0.206758	-0.028005	0.977991	-0.013097	-0.999580	-0.025854	0.978305	-0.007464	-0.207037
17397	10.353698	-0.503089	-1.401525	-0.327917	-0.887120	-0.179215	0.215464	-0.026222	0.976160	-0.015897	-0.999601	-0.023343	0.976382	-0.010488	-0.215795
17398	10.375020	0.247183	-1.842116	-0.325466	-0.907670	-0.215520	0.224347	-0.024135	0.974210	-0.018615	-0.999617	-0.020477	0.974332	-0.013540	-0.224710
17399	10.566641	0.550688	-2.173601	-0.477469	-0.890635	-0.238272	0.233073	-0.021821	0.972214	-0.022687	-0.999598	-0.016997	0.972195	-0.018095	-0.233474
17400	10.497449	-0.168198	-2.463405	-0.558000	-0.850842	-0.258448	0.241394	-0.019373	0.970234	-0.027510	-0.999536	-0.013114	0.970037	-0.023525	-0.241815
17401	10.344212	-1.024568	-2.758410	-0.516458	-0.821951	-0.278668	0.249449	-0.016726	0.968243	-0.031797	-0.999453	-0.009074	0.967866	-0.028523	-0.249844
17402	10.378679	-1.109783	-2.703144	-0.501362	-0.824447	-0.319370	0.257521	-0.013748	0.966175	-0.035850	-0.999346	-0.004664	0.965607	-0.033436	-0.257846
17403	10.780837	-0.499797	-2.101993	-0.392396	-0.827089	-0.378693	0.265647	-0.010186	0.964017	-0.038619	-0.999254	0.000083	0.963297	-0.037251	-0.265842
17404	10.445100	-0.031258	-1.524496	-0.399526	-0.847794	-0.397877	0.273957	-0.006501	0.961720	-0.041404	-0.999130	0.005041	0.960850	-0.041200	-0.273988
17405	10.305882	-0.253999	-1.326111	-0.330428	-0.861252	-0.426350	0.282408	-0.002542	0.959291	-0.043365	-0.999008	0.010120	0.958314	-0.044458	-0.282238
17406	9.933019	-0.172037	-1.082407	-0.293261	-0.903444	-0.443914	0.291243	0.001520	0.956648	-0.044913	-0.998874	0.015261	0.955594	-0.047410	-0.290847
17407	9.579334	-0.205084	-0.909264	-0.267079	-0.957817	-0.455907	0.300592	0.005674	0.953736	-0.046090	-0.998728	0.020468	0.952639	-0.050110	-0.299948
17408	9.202874	-0.119233	-0.714124	-0.172533	-1.022462	-0.477570	0.310531	0.009964	0.950511	-0.046284	-0.998600	0.025590	0.949436	-0.051940	-0.309635
17409	9.146553	-0.001280	-0.783327	-0.114170	-1.081382	-0.495710	0.321004	0.014412	0.946968	-0.045781	-0.998479	0.030714	0.945971	-0.053212	-0.319856
17410	9.439924	-0.026073	-1.107410	-0.057451	-1.158111	-0.518846	0.332167	0.019014	0.943029	-0.044640	-0.998360	0.035853	0.942164	-0.054006	-0.330773
17411	9.859662	-0.050840	-1.331816	-0.008779	-1.211320	-0.536714	0.343782	0.023781	0.938748	-0.042889	-0.998238	0.040994	0.938069	-0.054355	-0.342157
17412	10.113210	0.247927	-1.375291	0.012155	-1.265327	-0.554128	0.355851	0.028665	0.934103	-0.040848	-0.998097	0.046190	0.933650	-0.054593	-0.354003
17413	10.384600	0.296996	-1.409646	-0.025426	-1.309417	-0.568954	0.368260	0.033688	0.929112	-0.039005	-0.997904	0.051643	0.928904	-0.055258	-0.366174
17414	10.580794	0.248368	-1.301674	-0.023841	-1.357452	-0.576608	0.381049	0.038729	0.923743	-0.037075	-0.997679	0.057123	0.923811	-0.056015	-0.378728
17415	10.476045	0.315189	-1.077593	-0.021388	-1.411109	-0.598513	0.394244	0.043967	0.917953	-0.034934	-0.997416	0.062777	0.918341	-0.056817	-0.391690
17416	10.289372	0.317921	-0.886641	-0.012615	-1.477648	-0.629511	0.407977	0.049442	0.911652	-0.032532	-0.997111	0.068635	0.912412	-0.057659	-0.405190
17417	10.212507	0.209715	-0.652781	-0.023336	-1.553577	-0.663309	0.422286	0.055214	0.904780	-0.029972	-0.996747	0.074815	0.905967	-0.058712	-0.419257
17418	10.246029	0.154306	-0.191800	-0.037573	-1.659063	-0.698694	0.437451	0.061234	0.897155	-0.027314	-0.996314	0.081320	0.898827	-0.060079	-0.434166
17419	10.551471	-0.426489	0.257130	-0.109517	-1.775344	-0.742925	0.453501	0.067607	0.888688	-0.024969	-0.995764	0.088495	0.890906	-0.062322	-0.449892
17420	10.759914	-0.160702	0.983579	-0.074016	-1.905035	-0.773376	0.470566	0.074141	0.879245	-0.022057	-0.995164	0.095721	0.882089	-0.064436	-0.466655
17421	10.859562	0.496759	1.869714	-0.181114	-2.046246	-0.761973	0.488634	0.080422	0.868774	-0.019983	-0.994450	0.103295	0.872260	-0.067834	-0.484315
17422	11.057301	0.373771	2.359847	-0.414159	-2.204420	-0.712330	0.507878	0.085984	0.857127	-0.020026	-0.993559	0.111536	0.861196	-0.073812	-0.502885
17423	11.764895	-0.241609	2.346891	-0.520976	-2.337098	-0.660456	0.527946	0.090785	0.844412	-0.021055	-0.992565	0.119877	0.849017	-0.081068	-0.522109
17424	12.469555	-0.946206	1.762685	-0.541427	-2.453452	-0.606947	0.548739	0.094766	0.830605	-0.022348	-0.991536	0.127891	0.835695	-0.088742	-0.541977
17425	12.826296	-0.749191	1.173691	-0.288600	-2.573652	-0.573497	0.570123	0.098137	0.815677	-0.021539	-0.990713	0.134251	0.821277	-0.094109	-0.562715
17426	13.159223	-0.256157	-0.321854	-0.170980	-2.654332	-0.534983	0.591824	0.100922	0.799724	-0.019819	-0.990009	0.139602	0.805824	-0.098470	-0.583911
17427	12.968112	-0.375013	-2.436122	-0.072646	-2.630785	-0.470048	0.612830	0.102965	0.783478	-0.017591	-0.989451	0.143793	0.790019	-0.101902	-0.604554
17428	12.610654	-0.480189	-4.764065	0.066751	-2.547374	-0.371578	0.632808	0.104062	0.767284	-0.014749	-0.989128	0.146313	0.774168	-0.103905	-0.624393
17429	11.354978	0.205626	-6.047400	0.261260	-2.440716	-0.275920	0.651471	0.104262	0.751475	-0.011016	-0.989107	0.146782	0.758593	-0.103903	-0.643227
17430	10.854768	1.038961	-7.820165	0.267254	-2.277889	-0.111589	0.668586	0.103045	0.736461	-0.008265	-0.989262	0.145919	0.743589	-0.103646	-0.660555
17431	9.900555	1.819500	-8.978968	0.064084	-2.015562	0.004997	0.683360	0.100887	0.723077	-0.007877	-0.989330	0.145480	0.730039	-0.105111	-0.675274
17432	9.139767	1.255380	-9.484462	-0.153024	-1.661803	0.083811	0.695384	0.098327	0.711880	-0.009554	-0.989243	0.145969	0.718575	-0.108306	-0.686964
17433	8.398179	1.015749	-9.112087	0.002623	-1.213914	0.132967	0.703969	0.095681	0.703756	-0.010518	-0.989371	0.145033	0.710153	-0.109501	-0.695480
17434	6.720870	1.004516	-9.730005	0.320900	-0.847052	0.200558	0.709933	0.092821	0.698125	-0.009656	-0.989901	0.141434	0.704203	-0.107150	-0.701867
17435	5.454136	2.917328	-11.354486	0.441087	-0.841739	0.229109	0.715746	0.089650	0.692583	-0.008253	-0.990571	0.136751	0.698312	-0.103595	-0.708257
17436	7.668476	4.647657	-9.555929	-0.448123	-0.743093	0.249193	0.720883	0.086436	0.687646	-0.013149	-0.990308	0.138264	0.692932	-0.108714	-0.712760
17437	7.725559	3.574934	-6.828770	-1.303037	-0.329863	0.222999	0.723058	0.083853	0.685680	-0.023808	-0.988991	0.146051	0.690377	-0.121928	-0.713101
17438	7.372584	2.128483	-6.094499	-1.355579	0.158653	0.236099	0.721888	0.081766	0.687163	-0.034866	-0.987436	0.154124	0.691131	-0.135219	-0.709967
17439	6.749795	2.288812	-5.442652	-1.562630	0.685103	0.291038	0.716950	0.079891	0.692532	-0.047818	-0.985436	0.163185	0.695483	-0.150111	-0.702688
17440	5.628530	-0.214924	-6.042047	-1.431980	1.158362	0.420635	0.708618	0.077608	0.701312	-0.060819	-0.983515	0.170289	0.702966	-0.163323	-0.692217
17441	4.863169	0.596320	-6.335097	-0.565705	1.498258	0.546308	0.697586	0.074732	0.712593	-0.068695	-0.982988	0.170338	0.713200	-0.167777	-0.680585
17442	4.380088	2.037237	-6.295936	-0.368062	1.824261	0.656378	0.683985	0.071405	0.725993	-0.075868	-0.982838	0.168145	0.725540	-0.170089	-0.666829
17443	4.138079	2.549354	-6.168491	-0.349532	2.115746	0.737821	0.667829	0.067789	0.741222	-0.083447	-0.982747	0.165062	0.739623	-0.172086	-0.650650
17444	4.085119	2.859885	-6.596726	-0.450384	2.371004	0.814575	0.649393	0.063942	0.757760	-0.092171	-0.982494	0.161895	0.754847	-0.174977	-0.632131
17445	4.327830	3.339953	-7.063073	-0.723106	2.588370	0.857631	0.628742	0.060146	0.775284	-0.103189	-0.981734	0.159847	0.770737	-0.180503	-0.611051
17446	4.331410	2.718878	-7.361111	-1.010907	2.854408	0.919681	0.605491	0.056437	0.793849	-0.116736	-0.980396	0.158736	0.787244	-0.188784	-0.587033
17447	4.694448	1.650395	-7.731811	-0.904743	3.103322	0.977964	0.579519	0.052864	0.813242	-0.129741	-0.979183	0.156105	0.804565	-0.195977	-0.560596
17448	4.798314	1.670987	-7.639339	-0.666096	3.291584	1.016401	0.551365	0.049489	0.832795	-0.140906	-0.978373	0.151429	0.822279	-0.200839	-0.532467
17449	4.967719	1.978565	-7.446309	-0.605828	3.451706	1.056553	0.521069	0.046201	0.852263	-0.151620	-0.977642	0.145697	0.839940	-0.205139	-0.502414
17450	5.030920	1.492061	-7.411716	-0.608706	3.634583	1.113425	0.488471	0.042897	0.871525	-0.162410	-0.976868	0.139109	0.857332	-0.209495	-0.470205
17451	5.228653	0.803598	-7.296789	-0.360515	3.817674	1.149809	0.453434	0.039739	0.890404	-0.170963	-0.976577	0.130647	0.874740	-0.211466	-0.436019
17452	5.379744	0.527825	-7.250687	0.201618	3.986580	1.178430	0.416169	0.036629	0.908549	-0.174312	-0.977443	0.119252	0.892423	-0.208000	-0.400396
17453	5.939122	1.073667	-7.276587	0.772985	4.124094	1.189991	0.376885	0.033408	0.925657	-0.172092	-0.979424	0.105416	0.910133	-0.199028	-0.363381
17454	6.588040	1.937548	-7.290749	1.145567	4.247936	1.225554	0.335781	0.029619	0.941474	-0.165944	-0.982012	0.090079	0.927208	-0.186479	-0.324826
17455	7.096457	2.946249	-8.038599	1.425882	4.347647	1.260031	0.293042	0.025033	0.955772	-0.156601	-0.984900	0.073810	0.943187	-0.171305	-0.284697
17456	7.429050	6.548199	-7.630772	0.996589	4.269516	1.255866	0.250554	0.019778	0.967901	-0.150563	-0.986830	0.059140	0.956323	-0.160548	-0.244276
17457	7.627523	6.455798	-5.384915	-0.654008	4.120422	1.342987	0.208856	0.013313	0.977856	-0.159938	-0.985979	0.047584	0.964779	-0.166335	-0.203798
17458	7.940225	0.908147	-5.894812	-0.885255	4.013996	1.395772	0.167689	0.006446	0.985819	-0.171155	-0.984603	0.035552	0.970869	-0.174689	-0.164003
17459	7.775476	-0.468383	-5.482150	-0.381826	3.738209	1.219107	0.129161	0.001105	0.991623	-0.176667	-0.983975	0.024108	0.975759	-0.178301	-0.126896
17460	7.697514	-0.045858	-4.511641	-0.261191	3.375179	1.024172	0.094339	-0.002865	0.995536	-0.180387	-0.983492	0.014263	0.979061	-0.180928	-0.093298
17461	8.555823	-0.360509	-3.633727	-0.317684	3.020530	0.869081	0.063144	-0.005843	0.997987	-0.184186	-0.982874	0.005899	0.980861	-0.184188	-0.063138
17462	8.599168	-1.550046	-3.274234	-0.125189	2.661402	0.699500	0.035728	-0.007753	0.999331	-0.185786	-0.982590	-0.000981	0.981941	-0.185626	-0.036546
17463	8.421239	-2.572342	-2.580225	0.082078	2.178327	0.504462	0.013392	-0.008627	0.999873	-0.185122	-0.982697	-0.006000	0.982624	-0.185018	-0.014757
17464	8.217399	-2.043249	-1.526029	0.797403	1.650945	0.346489	-0.003473	-0.009001	0.999953	-0.177324	-0.984107	-0.009474	0.984146	-0.177349	0.001821
17465	9.246710	-0.388247	0.265863	0.919959	1.041502	0.228953	-0.014125	-0.009419	0.999856	-0.168288	-0.985669	-0.011663	0.985637	-0.168428	0.012338
17466	7.371052	-1.314799	-1.534756	1.918769	0.512023	0.124901	-0.019380	-0.009795	0.999764	-0.149354	-0.988704	-0.012582	0.988594	-0.149562	0.017698
17467	6.302973	2.709692	-1.683782	1.760996	-0.306402	-0.069074	-0.016250	-0.009510	0.999823	-0.131987	-0.991184	-0.011573	0.991118	-0.132152	0.014851
17468	7.713366	-0.075144	-2.809591	1.353223	-0.911981	-0.196719	-0.006959	-0.008659	0.999938	-0.118613	-0.992896	-0.009424	0.992916	-0.118672	0.005883
17469	9.951961	0.702056	-3.384901	1.791047	-1.152062	-0.328236	0.004857	-0.006625	0.999966	-0.100858	-0.994882	-0.006101	0.994889	-0.100825	-0.005500
17470	10.570428	3.713030	-3.152793	2.100744	-0.848159	-0.371213	0.013634	-0.003652	0.999900	-0.079931	-0.996797	-0.002551	0.996707	-0.079888	-0.013882
17471	10.342629	4.695248	-2.584843	2.423401	-0.350532	-0.331770	0.017367	-0.000535	0.999849	-0.055729	-0.998446	0.000433	0.998295	-0.055729	-0.017370
17472	10.018916	6.700304	-1.574258	2.424478	-0.074307	-0.221763	0.018199	0.001690	0.999833	-0.031499	-0.999501	0.002263	0.999338	-0.031535	-0.018136
17473	10.041127	7.070575	-2.792635	1.844024	-0.446654	-0.078310	0.022695	0.002439	0.999739	-0.013024	-0.999911	0.002735	0.999658	-0.013083	-0.022661
17474	13.230804	7.860741	-2.581820	0.896527	-0.885104	-0.059923	0.031539	0.003004	0.999498	-0.004073	-0.999987	0.003134	0.999494	-0.004170	-0.031526
17475	14.040131	1.536296	-1.957224	-0.256561	-1.062407	0.066423	0.042171	0.002380	0.999108	-0.006564	-0.999975	0.002659	0.999089	-0.006670	-0.042154
17476	12.942278	0.087234	-1.611353	0.213159	-1.023768	0.117897	0.052382	0.001186	0.998626	-0.004516	-0.999989	0.001424	0.998617	-0.004584	-0.052376
17477	10.620111	3.134864	-1.755823	0.526616	-0.828634	0.163415	0.060674	-0.000361	0.998158	0.000753	-1.000000	-0.000407	0.998157	0.000777	-0.060673
17478	9.574057	3.164447	-1.806066	0.051061	-0.846805	0.193057	0.069117	-0.002241	0.997606	0.001113	-0.999997	-0.002323	0.997608	0.001271	-0.069114
17479	9.405036	2.372777	-2.102239	-0.565614	-0.808832	0.273048	0.077203	-0.004864	0.997004	-0.004595	-0.999979	-0.004523	0.997005	-0.004232	-0.077224
17480	9.797395	-0.644780	-3.238865	-0.902745	-0.741261	0.279717	0.084557	-0.007684	0.996389	-0.013842	-0.999883	-0.006536	0.996322	-0.013240	-0.084654
17481	10.019656	-2.100361	-3.703894	-0.691378	-0.658824	0.236555	0.091109	-0.010033	0.995790	-0.020796	-0.999750	-0.008170	0.995624	-0.019964	-0.091294
17482	10.169845	-2.421032	-3.990807	-0.354850	-0.554268	0.213523	0.096569	-0.012245	0.995251	-0.024552	-0.999649	-0.009917	0.995023	-0.023477	-0.096836
17483	9.951011	-2.932016	-3.872076	0.206793	-0.392212	0.210983	0.100459	-0.014327	0.994838	-0.022586	-0.999671	-0.012116	0.994685	-0.021252	-0.100750
17484	9.496514	-1.387467	-3.141862	0.513914	-0.357245	0.188706	0.103966	-0.016237	0.994448	-0.017690	-0.999739	-0.014474	0.994423	-0.016087	-0.104226
17485	9.996885	-1.094317	-2.338334	0.222326	-0.347855	0.172406	0.107440	-0.017907	0.994050	-0.015567	-0.999746	-0.016327	0.994090	-0.013720	-0.107691
17486	10.325821	-1.367478	-2.319697	0.300813	-0.289602	0.131234	0.110291	-0.019212	0.993714	-0.012741	-0.999758	-0.017915	0.993818	-0.010686	-0.110510
17487	10.394561	-1.558365	-2.673550	0.224403	-0.231707	0.108469	0.112627	-0.020218	0.993432	-0.010549	-0.999761	-0.019151	0.993581	-0.008323	-0.112813
17488	10.199851	-1.385799	-2.720723	0.307803	-0.198160	0.093488	0.114579	-0.021124	0.993190	-0.007619	-0.999763	-0.020384	0.993385	-0.005232	-0.114713
17489	10.092561	-0.473919	-2.777403	0.383894	-0.149560	0.086331	0.116108	-0.021898	0.992995	-0.003836	-0.999759	-0.021598	0.993229	-0.001301	-0.116165
17490	9.909596	0.295135	-2.678825	0.288645	-0.105619	0.082926	0.117147	-0.022684	0.992856	-0.001087	-0.999741	-0.022713	0.993114	0.001581	-0.117141
17491	9.838464	0.605072	-2.192934	0.171225	-0.080767	0.067733	0.118001	-0.023265	0.992741	0.000603	-0.999724	-0.023500	0.993013	0.003372	-0.117954
17492	9.921421	0.317048	-1.395346	0.105271	-0.053074	0.068051	0.118520	-0.023900	0.992664	0.001547	-0.999705	-0.024255	0.992950	0.004410	-0.118448
17493	9.745012	-0.441397	-0.626194	0.121376	-0.037544	0.068397	0.118948	-0.024485	0.992599	0.002746	-0.999684	-0.024989	0.992897	0.005698	-0.118843
17494	9.490313	-0.980970	0.058818	0.190684	-0.072414	0.057132	0.119660	-0.025009	0.992500	0.004549	-0.999658	-0.025737	0.992805	0.007595	-0.119505
17495	9.439591	-1.248161	0.510605	0.239502	-0.128300	0.035167	0.120986	-0.025254	0.992333	0.006955	-0.999630	-0.026288	0.992630	0.010082	-0.120766
17496	9.524408	-0.971624	0.757534	0.255573	-0.196644	0.015916	0.122931	-0.025348	0.992092	0.009451	-0.999599	-0.026711	0.992370	0.012660	-0.122642
17497	9.486062	-0.494043	0.876590	0.222281	-0.247090	0.018874	0.125430	-0.025412	0.991777	0.011694	-0.999565	-0.027091	0.992034	0.014996	-0.125078
17498	9.328854	-0.400598	0.618074	0.148180	-0.296961	0.023104	0.128369	-0.025554	0.991397	0.013114	-0.999537	-0.027462	0.991640	0.016526	-0.127975
17499	9.446367	-1.081555	0.088173	0.024176	-0.339360	0.023732	0.131778	-0.025645	0.990947	0.013382	-0.999528	-0.027647	0.991189	0.016905	-0.131373
17500	9.367121	-1.150873	-0.480121	0.223086	-0.376435	0.006375	0.135500	-0.025598	0.990447	0.015564	-0.999488	-0.027961	0.990655	0.019204	-0.135032
17501	9.430527	-0.581058	-0.934084	0.257564	-0.405433	0.001308	0.139553	-0.025443	0.989888	0.018165	-0.999436	-0.028249	0.990048	0.021923	-0.139012
17502	9.506739	-0.345600	-1.318489	0.294061	-0.418761	-0.003124	0.143688	-0.025271	0.989300	0.021060	-0.999369	-0.028587	0.989399	0.024942	-0.143065
17503	9.947225	-0.224509	-1.995937	0.256892	-0.397946	-0.001014	0.147661	-0.025072	0.988720	0.023651	-0.999303	-0.028872	0.988755	0.027648	-0.146965
17504	10.213864	0.268625	-2.624047	0.260315	-0.342736	0.019604	0.151044	-0.025126	0.988208	0.026176	-0.999225	-0.029407	0.988180	0.030309	-0.150269
17505	10.232592	0.564580	-3.137846	0.215974	-0.288735	0.027752	0.153942	-0.025226	0.987758	0.028319	-0.999151	-0.029931	0.987674	0.032580	-0.153097
17506	10.200322	1.242985	-2.924073	0.219356	-0.275039	0.010363	0.156652	-0.025194	0.987333	0.030449	-0.999076	-0.030325	0.987184	0.034814	-0.155740
17507	10.222310	2.229372	-1.769489	-0.134729	-0.270521	0.003890	0.159364	-0.025048	0.986902	0.029176	-0.999122	-0.030070	0.986789	0.033586	-0.158493
17508	10.161146	0.375582	-0.890207	-0.457441	-0.253552	-0.009930	0.161854	-0.024827	0.986502	0.024660	-0.999270	-0.029194	0.986507	0.029052	-0.161123
17509	9.711931	-0.787159	-0.010599	-0.463692	-0.285741	-0.029585	0.164706	-0.024353	0.986042	0.020212	-0.999402	-0.028059	0.986136	0.024551	-0.164116
17510	9.217291	-2.304041	0.537775	-0.237024	-0.350547	-0.055303	0.168143	-0.023676	0.985478	0.017949	-0.999472	-0.027074	0.985599	0.022241	-0.167629
17511	9.193195	-1.846300	0.828941	0.019244	-0.460328	-0.080637	0.172699	-0.022672	0.984714	0.018341	-0.999488	-0.026229	0.984804	0.022590	-0.172195
17512	9.431015	-1.967116	0.876873	-0.014307	-0.533944	-0.092595	0.177929	-0.021583	0.983807	0.018345	-0.999513	-0.025245	0.983872	0.022540	-0.177446
17513	9.561876	-2.381451	0.784087	-0.039738	-0.613095	-0.119965	0.183965	-0.020161	0.982726	0.018221	-0.999548	-0.023917	0.982764	0.022306	-0.183515
17514	9.498944	-2.236943	0.701582	-0.028516	-0.707960	-0.162364	0.190880	-0.018338	0.981442	0.018228	-0.999587	-0.022222	0.981444	0.022131	-0.190467
17515	9.579307	-2.008350	0.296851	-0.009210	-0.786117	-0.199551	0.198576	-0.016095	0.979953	0.018557	-0.999624	-0.020178	0.979910	0.022192	-0.198202
17516	9.900295	-1.171599	-0.348534	0.057597	-0.844452	-0.217618	0.206793	-0.013686	0.978289	0.019545	-0.999645	-0.018117	0.978190	0.022867	-0.206452
17517	9.940659	-0.570276	-0.924713	-0.015139	-0.874076	-0.228015	0.215308	-0.011141	0.976483	0.019897	-0.999677	-0.015793	0.976343	0.022830	-0.215017
17518	9.776126	-0.475245	-1.282380	-0.117938	-0.909234	-0.246813	0.224119	-0.008428	0.974525	0.019274	-0.999729	-0.013078	0.974371	0.021714	-0.223896
17519	9.719822	0.003104	-1.592285	-0.144843	-0.932698	-0.268927	0.233162	-0.005479	0.972423	0.018495	-0.999778	-0.010067	0.972262	0.020332	-0.233009
17520	9.761442	0.422431	-2.049620	-0.254864	-0.941177	-0.264808	0.242247	-0.002609	0.970211	0.016634	-0.999838	-0.006842	0.970072	0.017796	-0.242164
17521	9.857769	0.349440	-2.521858	-0.346205	-0.939516	-0.252587	0.251325	0.000135	0.967903	0.013923	-0.999897	-0.003476	0.967803	0.014350	-0.251301
17522	9.820700	0.513118	-2.826119	-0.441921	-0.924883	-0.243890	0.260228	0.002729	0.965543	0.010261	-0.999947	0.000060	0.965493	0.009892	-0.260242
17523	10.098903	0.367067	-2.965802	-0.519060	-0.901328	-0.270908	0.268911	0.005573	0.963149	0.005997	-0.999974	0.004112	0.963146	0.004671	-0.268938
17524	10.114767	0.713244	-2.778353	-0.424532	-0.891321	-0.305547	0.277464	0.008694	0.960697	0.002735	-0.999962	0.008259	0.960732	0.000336	-0.277477
17525	10.060548	0.367574	-2.572498	-0.352258	-0.882134	-0.324934	0.285937	0.012004	0.958173	0.000301	-0.999923	0.012437	0.958248	-0.003268	-0.285918
17526	10.034267	-0.087694	-2.311816	-0.288956	-0.883902	-0.365184	0.294390	0.015656	0.955557	-0.001417	-0.999858	0.016819	0.955684	-0.006305	-0.294325
17527	10.166257	-0.383911	-1.859013	-0.194708	-0.923841	-0.395770	0.303225	0.019620	0.952717	-0.002061	-0.999772	0.021244	0.952917	-0.008405	-0.303116
17528	10.654294	-0.706563	-1.194399	-0.225568	-0.961943	-0.430246	0.312380	0.023871	0.949657	-0.002894	-0.999656	0.026080	0.949953	-0.010895	-0.312204
17529	10.630875	-0.599866	-0.558218	-0.224997	-1.023715	-0.458720	0.322111	0.028402	0.946276	-0.003547	-0.999507	0.031207	0.946695	-0.013409	-0.321852
17530	10.556402	-0.819885	-0.035866	-0.251895	-1.083273	-0.481725	0.332359	0.033099	0.942572	-0.004361	-0.999319	0.036629	0.943143	-0.016284	-0.331988
17531	10.482750	-0.813629	0.304321	-0.237033	-1.168722	-0.511391	0.343383	0.038066	0.938424	-0.004846	-0.999093	0.042300	0.939183	-0.019073	-0.342887
17532	10.580458	-0.770832	0.526361	-0.173146	-1.280911	-0.538014	0.355402	0.043225	0.933713	-0.004598	-0.998837	0.047990	0.934702	-0.021349	-0.354790
17533	11.255143	-0.234976	0.934674	-0.109545	-1.417211	-0.562260	0.368628	0.048581	0.928307	-0.003575	-0.998552	0.053677	0.929570	-0.023105	-0.367920
17534	11.759369	0.620572	1.410584	-0.093307	-1.563844	-0.565534	0.383128	0.053896	0.922122	-0.002321	-0.998237	0.059309	0.923692	-0.024863	-0.382327
17535	11.701502	1.492202	1.597601	-0.101790	-1.701151	-0.564526	0.398774	0.059145	0.915140	-0.001043	-0.997888	0.064947	0.917048	-0.026854	-0.397871
17536	11.488559	1.863065	1.519702	-0.206599	-1.831075	-0.555276	0.415496	0.064207	0.907326	-0.000675	-0.997483	0.070896	0.909595	-0.030070	-0.414407
17537	11.000590	1.683238	1.340131	-0.347210	-1.966438	-0.555083	0.433272	0.069168	0.898605	-0.001443	-0.996996	0.077437	0.901262	-0.034848	-0.431871
17538	10.861000	0.963454	0.770073	-0.364255	-2.088484	-0.584187	0.452002	0.074253	0.888921	-0.002127	-0.996437	0.084315	0.892014	-0.040002	-0.450234
17539	10.563799	0.945334	0.622118	-0.341995	-2.216493	-0.633776	0.471628	0.079692	0.878189	-0.002206	-0.995798	0.091549	0.881795	-0.045114	-0.469470
17540	10.334146	0.841688	1.086998	-0.445445	-2.331111	-0.657300	0.492063	0.085153	0.866385	-0.002943	-0.995036	0.099469	0.870555	-0.051495	-0.489370
17541	10.129251	0.702935	0.607728	-0.403555	-2.424394	-0.627908	0.512984	0.090148	0.853652	-0.003246	-0.994259	0.106947	0.858392	-0.057633	-0.509746
17542	10.433361	1.251946	-0.039073	-0.459745	-2.504552	-0.541604	0.534333	0.094045	0.840026	-0.004325	-0.993474	0.113975	0.845263	-0.064533	-0.530439
17543	10.854106	1.548794	-0.974436	-0.479664	-2.544505	-0.410451	0.555619	0.096462	0.825823	-0.006077	-0.992749	0.120049	0.831415	-0.071719	-0.551004
17544	11.149928	1.457675	-2.115997	-0.569053	-2.575653	-0.271473	0.576860	0.097247	0.811034	-0.009225	-0.992049	0.125514	0.816791	-0.079886	-0.571376
17545	11.217369	1.390696	-3.498545	-0.569108	-2.575418	-0.173115	0.597646	0.096881	0.795886	-0.012777	-0.991396	0.130275	0.801659	-0.088027	-0.591265
17546	10.834254	1.140504	-4.889779	-0.670677	-2.525204	-0.061997	0.617699	0.095202	0.780631	-0.017719	-0.990709	0.134842	0.786215	-0.097124	-0.610272
17547	10.279793	0.590623	-6.805529	-0.599854	-2.389860	0.036335	0.636224	0.092503	0.765939	-0.022580	-0.990128	0.138334	0.771174	-0.105307	-0.627854
17548	9.582760	0.157193	-7.919296	-0.566244	-2.269240	0.157744	0.653511	0.088508	0.751724	-0.027914	-0.989646	0.140788	0.756402	-0.112990	-0.644274
17549	9.518922	0.373049	-8.421347	-0.647882	-2.119583	0.246775	0.669243	0.083653	0.738319	-0.034374	-0.989093	0.143224	0.742248	-0.121231	-0.659069
17550	9.764372	-0.412754	-9.265067	-0.800749	-1.817326	0.302552	0.682498	0.078417	0.726669	-0.042302	-0.988323	0.146383	0.729662	-0.130646	-0.671211
17551	9.168063	-1.702191	-8.765868	-0.848126	-1.497822	0.259424	0.693158	0.073878	0.716989	-0.050219	-0.987366	0.150287	0.719034	-0.140180	-0.680691
17552	8.696959	-2.637701	-8.553096	-0.373359	-1.136857	0.210509	0.701173	0.070224	0.709525	-0.054344	-0.986979	0.151390	0.710917	-0.144709	-0.688227
17553	7.560389	-2.018446	-8.683947	0.336476	-0.820086	0.196976	0.706810	0.067120	0.704212	-0.053373	-0.987591	0.147699	0.705387	-0.141981	-0.694457
17554	5.474067	0.356016	-9.540118	0.471834	-0.660974	0.184119	0.711357	0.064420	0.699872	-0.051348	-0.988366	0.143165	0.700952	-0.137778	-0.699774
17555	5.345719	1.540057	-9.570271	-0.128500	-0.632057	0.203846	0.715608	0.061521	0.695788	-0.053746	-0.988311	0.142663	0.696431	-0.139487	-0.703937
17556	6.630904	1.234204	-8.092420	-0.784742	-0.435256	0.205511	0.718510	0.058910	0.693017	-0.060658	-0.987302	0.146816	0.692866	-0.147526	-0.705813
17557	6.489716	0.847391	-6.980464	-1.031694	-0.068448	0.211835	0.718792	0.056706	0.692908	-0.069371	-0.985844	0.152641	0.691755	-0.157785	-0.704683
17558	6.833186	0.297312	-7.152760	-1.105076	0.366146	0.233185	0.716081	0.055050	0.695843	-0.078685	-0.984165	0.158834	0.693568	-0.168490	-0.700410
17559	6.528590	-0.119637	-7.124288	-0.971432	0.817934	0.247353	0.710129	0.054015	0.701997	-0.087268	-0.982612	0.163886	0.698643	-0.177643	-0.693067
17560	6.248530	-0.524462	-6.722606	-0.747674	1.166563	0.285251	0.701673	0.053370	0.710498	-0.094521	-0.981404	0.167066	0.706202	-0.184383	-0.683580
17561	6.013461	-0.345055	-6.689782	-0.174511	1.475544	0.338397	0.690799	0.052743	0.721120	-0.098193	-0.981253	0.165833	0.716348	-0.185367	-0.672670
17562	5.767393	0.924914	-6.543527	0.102084	1.690355	0.390074	0.678202	0.052076	0.733028	-0.100115	-0.981639	0.162365	0.728024	-0.183504	-0.660536
17563	5.859698	1.432257	-6.430041	0.002503	1.884416	0.449240	0.663855	0.051071	0.746115	-0.103198	-0.981866	0.159028	0.740707	-0.182569	-0.646546
17564	5.826480	1.385931	-6.375452	-0.052815	2.088411	0.528268	0.647685	0.049735	0.760283	-0.107048	-0.982029	0.155435	0.754350	-0.182060	-0.630722
17565	5.701462	1.244112	-6.480403	-0.080429	2.286951	0.591927	0.629568	0.048040	0.775459	-0.111529	-0.982162	0.151392	0.768899	-0.181798	-0.612980
17566	5.568920	0.946645	-6.493511	0.013905	2.473705	0.641132	0.609627	0.046267	0.791337	-0.115387	-0.982483	0.146335	0.784245	-0.180519	-0.593610
17567	5.450789	1.320461	-6.569952	0.269004	2.646481	0.698998	0.587792	0.044082	0.807810	-0.117533	-0.983268	0.139178	0.800429	-0.176752	-0.572776
17568	5.278021	2.115588	-6.626465	0.334529	2.794648	0.754258	0.564296	0.041583	0.824525	-0.119169	-0.984168	0.131192	0.816927	-0.172289	-0.550407
17569	5.218099	2.519335	-6.245258	0.145394	2.906234	0.799977	0.539301	0.038641	0.841226	-0.122474	-0.984726	0.123750	0.833159	-0.169767	-0.526332
17570	5.282748	1.944420	-6.011192	0.094361	3.057269	0.828933	0.512547	0.035679	0.857917	-0.126040	-0.985188	0.116272	0.849358	-0.167727	-0.500458
17571	5.376758	1.217050	-6.221931	0.288917	3.232823	0.840893	0.483707	0.032725	0.874618	-0.127835	-0.985943	0.107590	0.865844	-0.163848	-0.472724
17572	5.427392	1.262873	-6.320684	0.616265	3.390454	0.829974	0.453008	0.030015	0.891001	-0.126337	-0.987185	0.097488	0.882509	-0.156729	-0.443411
17573	5.561311	2.189592	-6.461798	0.880409	3.536805	0.828105	0.420429	0.027185	0.906918	-0.122197	-0.988748	0.086285	0.899059	-0.147099	-0.412376
17574	5.813344	2.848648	-6.452431	0.863745	3.652740	0.861639	0.386259	0.023903	0.922081	-0.117844	-0.990193	0.075033	0.914832	-0.137644	-0.379654
17575	6.288298	2.842972	-6.293661	0.761053	3.766598	0.898176	0.350441	0.020023	0.936371	-0.114210	-0.991397	0.063944	0.929595	-0.129351	-0.345140
17576	6.991318	2.437752	-5.995877	0.678392	3.874002	0.921808	0.313119	0.015791	0.949583	-0.110925	-0.992410	0.053080	0.943214	-0.121953	-0.308991
17577	7.909892	1.827289	-5.705096	0.642188	3.951883	0.926981	0.274554	0.011278	0.961505	-0.107617	-0.993289	0.042380	0.955531	-0.115110	-0.271498
17578	8.829825	1.198793	-5.517594	0.719178	4.010099	0.923509	0.235034	0.006609	0.971965	-0.103072	-0.994169	0.031684	0.966507	-0.107629	-0.232982
17579	9.228827	1.548452	-5.179389	0.833754	4.013746	0.900338	0.195123	0.001820	0.980777	-0.096971	-0.995063	0.021138	0.975973	-0.099232	-0.193983
17580	9.705622	2.955209	-4.334354	0.661569	3.941730	0.861451	0.155679	-0.002930	0.987803	-0.092018	-0.995690	0.011549	0.983512	-0.092694	-0.155278
17581	10.038496	3.363222	-3.731107	0.274442	3.844121	0.866910	0.116955	-0.008021	0.993105	-0.090543	-0.995889	0.002620	0.989001	-0.090225	-0.117201
17582	10.424374	3.514664	-2.461053	-0.203499	3.663378	0.860034	0.079861	-0.013192	0.996719	-0.093428	-0.995610	-0.005691	0.992418	-0.092667	-0.080743
17583	10.570198	2.912184	-2.015187	-0.862753	3.414388	0.897140	0.045062	-0.018757	0.998808	-0.102582	-0.994625	-0.014050	0.993703	-0.101826	-0.046744
17584	10.232864	0.438702	-2.525773	-1.250189	3.160140	0.966324	0.012606	-0.024892	0.999611	-0.115307	-0.993057	-0.023275	0.993250	-0.114968	-0.015389
17585	9.597857	-0.868799	-2.718181	-1.037817	2.856243	0.921801	-0.016861	-0.030549	0.999391	-0.125603	-0.991550	-0.032428	0.991937	-0.126073	0.012881
17586	8.839354	-0.588532	-1.394605	-1.108073	2.421153	0.795979	-0.041898	-0.035196	0.998502	-0.136376	-0.989824	-0.040612	0.989771	-0.137874	0.036672
17587	8.582384	-1.412365	-0.171795	-1.185194	1.954320	0.688039	-0.062191	-0.039137	0.997297	-0.147757	-0.987859	-0.047981	0.987067	-0.150341	0.055653
17588	7.673339	-1.854175	0.456326	-0.606070	1.473713	0.546076	-0.077548	-0.042221	0.996094	-0.153380	-0.986704	-0.053764	0.985120	-0.156951	0.070041
17589	6.753078	-1.984518	0.908022	-0.227200	0.913464	0.393821	-0.087146	-0.044618	0.995196	-0.155329	-0.986170	-0.057815	0.984011	-0.159621	0.079010
17590	7.011590	-2.707054	0.914069	0.204946	0.340986	0.235658	-0.090867	-0.046357	0.994783	-0.153132	-0.986385	-0.059953	0.984019	-0.157781	0.082531
17591	5.948231	-3.399560	-0.365826	1.352495	-0.145160	0.042581	-0.089499	-0.046960	0.994879	-0.139823	-0.988403	-0.059233	0.986123	-0.144408	0.081895
17592	5.383133	-0.830305	-2.101942	2.344687	-0.716437	-0.195718	-0.082173	-0.045929	0.995559	-0.116856	-0.991603	-0.055392	0.989744	-0.120888	0.076116
17593	6.712401	2.092077	-3.234228	2.770318	-1.132986	-0.400126	-0.070522	-0.043136	0.996577	-0.089759	-0.994737	-0.049408	0.993464	-0.092936	0.066279
17594	9.012532	4.270495	-2.891793	2.308509	-1.269798	-0.497180	-0.057505	-0.039173	0.997576	-0.067140	-0.996816	-0.043013	0.996085	-0.069451	0.054692
17595	10.735390	2.639381	-2.502853	1.823123	-0.946011	-0.492584	-0.047777	-0.034789	0.998252	-0.049268	-0.998095	-0.037142	0.997642	-0.050956	0.045972
17596	10.599487	1.588771	-1.878412	2.196122	-0.522896	-0.405969	-0.042408	-0.030901	0.998622	-0.027557	-0.999105	-0.032086	0.998720	-0.028879	0.041519
17597	11.200695	3.494036	-0.604449	2.146281	-0.259472	-0.308491	-0.039747	-0.027818	0.998822	-0.006264	-0.999586	-0.028088	0.999190	-0.007373	0.039556
17598	11.962098	5.229518	0.822316	1.718758	-0.381373	-0.201101	-0.035950	-0.025760	0.999022	0.010807	-0.999619	-0.025386	0.999295	0.009884	0.036215
17599	15.829379	5.684668	-0.045154	0.728618	-0.955776	-0.035376	-0.026386	-0.025213	0.999334	0.018098	-0.999530	-0.024740	0.999488	0.017433	0.026830
17600	14.052455	4.622760	-0.999144	-0.296369	-1.265751	0.117116	-0.013723	-0.026137	0.999564	0.015132	-0.999549	-0.025929	0.999791	0.014769	0.014112
17601	12.067588	0.516140	-2.148022	-0.484773	-1.393427	0.105222	0.000243	-0.026929	0.999637	0.010362	-0.999584	-0.026930	0.999946	0.010365	0.000036
17602	11.248317	4.719311	-1.484325	-0.358479	-1.339153	-0.014661	0.013623	-0.026623	0.999553	0.006753	-0.999620	-0.026716	0.999884	0.007113	-0.013438
17603	10.773492	1.132176	-2.787743	-0.735459	-1.123817	-0.028520	0.024884	-0.026198	0.999347	-0.000499	-0.999657	-0.026194	0.999690	0.000153	-0.024889
17604	10.383893	-2.467064	-4.586404	-0.612766	-0.929135	0.070783	0.034160	-0.026889	0.999055	-0.006670	-0.999622	-0.026676	0.999394	-0.005752	-0.034326
17605	9.144268	-5.275665	-6.280072	0.319840	-0.680739	0.082673	0.040993	-0.027644	0.998777	-0.003415	-0.999615	-0.027527	0.999154	-0.002282	-0.041072
17606	9.009111	-2.660387	-6.523493	1.142857	-0.617750	0.017010	0.047156	-0.027749	0.998502	0.007971	-0.999572	-0.028155	0.998856	0.009287	-0.046914
17607	9.906829	2.242588	-5.152840	1.025818	-0.581889	0.041018	0.053021	-0.027991	0.998201	0.018248	-0.999413	-0.028994	0.998427	0.019753	-0.052479
17608	10.102855	4.102285	-2.975238	0.072437	-0.445047	0.122142	0.057477	-0.029079	0.997923	0.018880	-0.999365	-0.030209	0.998168	0.020578	-0.056891
17609	9.617182	2.912507	-0.877781	-0.724556	-0.391756	0.187361	0.061473	-0.030786	0.997634	0.011620	-0.999434	-0.031557	0.998041	0.013532	-0.061081
17610	9.733596	-0.242816	0.365561	-1.151603	-0.377187	0.208399	0.065240	-0.032796	0.997330	-0.000028	-0.999460	-0.032864	0.997870	0.002116	-0.065206
17611	9.711021	-3.414230	0.655368	-0.656091	-0.336556	0.161641	0.068651	-0.034308	0.997051	-0.006586	-0.999402	-0.033936	0.997619	-0.004237	-0.068836
17612	9.568750	-3.674310	0.660595	0.230272	-0.369306	0.122801	0.072320	-0.035503	0.996749	-0.004398	-0.999368	-0.035278	0.997372	-0.001833	-0.072430
17613	9.698936	-1.729372	0.295322	0.742207	-0.430536	0.105485	0.076666	-0.036456	0.996390	0.002992	-0.999318	-0.036793	0.997052	0.005802	-0.076505
17614	9.884297	-0.617881	-0.196031	0.623328	-0.447950	0.091019	0.081128	-0.037282	0.996006	0.009112	-0.999231	-0.038145	0.996662	0.012170	-0.080726
17615	9.902228	-0.230055	-0.423556	0.213152	-0.463884	0.068731	0.085808	-0.037817	0.995594	0.011238	-0.999179	-0.038922	0.996248	0.014528	-0.085313
17616	9.890599	-0.746050	-0.532181	-0.100247	-0.466091	0.048976	0.090446	-0.038198	0.995169	0.010175	-0.999177	-0.039276	0.995849	0.013678	-0.089983
17617	9.951918	-0.836221	-0.878386	-0.042252	-0.462952	0.047868	0.095110	-0.038524	0.994721	0.009768	-0.999167	-0.039630	0.995419	0.013486	-0.094654
17618	9.834432	-0.436155	-1.094969	0.211832	-0.450636	0.048448	0.099591	-0.038899	0.994268	0.011808	-0.999119	-0.040271	0.994958	0.015751	-0.099043
17619	9.946609	-0.301072	-1.702826	0.427650	-0.429483	0.045984	0.103918	-0.039192	0.993813	0.016071	-0.999027	-0.041078	0.994456	0.020241	-0.103187
17620	9.861633	-0.021244	-2.209041	0.532075	-0.416005	0.033804	0.108051	-0.039391	0.993365	0.021305	-0.998893	-0.041928	0.993917	0.025694	-0.107092
17621	9.888102	0.606353	-2.463157	0.480549	-0.402612	0.035159	0.112110	-0.039539	0.992909	0.026098	-0.998746	-0.042718	0.993353	0.030702	-0.110938
17622	9.820246	0.877933	-2.366437	0.224330	-0.369912	0.048602	0.115787	-0.039863	0.992474	0.028251	-0.998658	-0.043407	0.992872	0.033064	-0.114506
17623	9.864604	0.741452	-2.199443	-0.010000	-0.331041	0.060499	0.119144	-0.040262	0.992060	0.028147	-0.998639	-0.043909	0.992478	0.033155	-0.117849
17624	9.747008	0.560672	-1.918668	-0.249210	-0.310991	0.074240	0.122240	-0.040860	0.991659	0.025565	-0.998691	-0.044301	0.992171	0.030767	-0.121036
17625	9.731818	-0.339139	-1.677662	-0.419300	-0.280226	0.085612	0.125096	-0.041533	0.991275	0.021374	-0.998779	-0.044545	0.991914	0.026760	-0.124056
17626	9.575105	-1.310955	-1.740745	-0.198225	-0.245210	0.056319	0.127530	-0.041989	0.990945	0.019318	-0.998809	-0.044809	0.991647	0.024857	-0.126567
17627	9.573873	-1.048304	-1.718900	-0.045399	-0.246047	0.048087	0.130036	-0.042309	0.990606	0.018877	-0.998802	-0.045137	0.991330	0.024569	-0.129082
17628	9.732258	-1.192325	-1.548800	-0.037864	-0.251046	0.047317	0.132524	-0.042677	0.990261	0.018420	-0.998794	-0.045510	0.991009	0.024272	-0.131578
17629	9.758566	-1.008280	-1.329773	-0.048544	-0.268688	0.032929	0.135250	-0.042845	0.989885	0.017959	-0.998794	-0.045685	0.990649	0.023957	-0.134317
17630	9.794452	-0.969041	-0.945449	-0.111377	-0.279518	0.012295	0.138011	-0.042859	0.989503	0.016821	-0.998818	-0.045609	0.990288	0.022938	-0.137127
17631	9.694665	-0.803396	-0.660088	-0.174024	-0.297795	0.005359	0.141017	-0.042753	0.989084	0.015149	-0.998857	-0.045335	0.989891	0.021377	-0.140208
17632	9.727268	-1.211552	-0.618071	-0.183324	-0.309598	-0.004169	0.144071	-0.042604	0.988650	0.013322	-0.998899	-0.044987	0.989478	0.019652	-0.143345
17633	9.556165	-0.957884	-0.560859	-0.065401	-0.331320	-0.017070	0.147401	-0.042279	0.988173	0.012754	-0.998922	-0.044641	0.988995	0.019183	-0.146703
17634	9.438863	-0.671745	-0.414541	-0.023271	-0.370048	-0.026862	0.151047	-0.041896	0.987638	0.012546	-0.998940	-0.044294	0.988447	0.019081	-0.150362
17635	9.415148	-0.382824	-0.353524	0.028714	-0.404430	-0.035900	0.155091	-0.041370	0.987034	0.012935	-0.998952	-0.043902	0.987816	0.019576	-0.154393
17636	9.497322	-0.002707	-0.311910	0.076599	-0.434611	-0.037213	0.159368	-0.040868	0.986373	0.013732	-0.998954	-0.043608	0.987124	0.020495	-0.158640
17637	9.702676	-0.151517	-0.480177	0.047137	-0.467442	-0.036407	0.164023	-0.040317	0.985632	0.014309	-0.998962	-0.043243	0.986353	0.021196	-0.163276
17638	9.813402	-0.196399	-0.807963	0.157751	-0.496230	-0.041064	0.168901	-0.039753	0.984831	0.015915	-0.998946	-0.043052	0.985505	0.022945	-0.168090
17639	9.872342	-0.022344	-1.269652	0.128455	-0.504030	-0.036533	0.173904	-0.039177	0.983983	0.017298	-0.998933	-0.042829	0.984611	0.024469	-0.173041
17640	9.716597	-0.539820	-1.587466	0.125383	-0.496351	-0.036603	0.178773	-0.038643	0.983131	0.018580	-0.998918	-0.042642	0.983715	0.025890	-0.177862
17641	9.651719	-0.801428	-1.854094	0.159041	-0.506663	-0.045475	0.183790	-0.037960	0.982232	0.020282	-0.998895	-0.042399	0.982756	0.027714	-0.182817
17642	9.497539	-0.685886	-1.905571	0.143129	-0.515838	-0.049477	0.188837	-0.037275	0.981301	0.021764	-0.998875	-0.042131	0.981767	0.029313	-0.187813
17643	9.516883	-1.116201	-1.671611	0.058878	-0.516480	-0.053441	0.193936	-0.036497	0.980335	0.022497	-0.998879	-0.041638	0.980756	0.030130	-0.192898
17644	9.781807	-1.294180	-1.254578	0.050158	-0.529300	-0.075730	0.199098	-0.035535	0.979335	0.023122	-0.998894	-0.040946	0.979707	0.030797	-0.198056
17645	9.863487	-1.037006	-0.785225	0.095181	-0.562694	-0.102869	0.204624	-0.034244	0.978241	0.024308	-0.998902	-0.040052	0.978539	0.031975	-0.203567
17646	9.907512	-0.789533	-0.384920	-0.124824	-0.609693	-0.116499	0.210550	-0.032845	0.977031	0.023314	-0.998982	-0.038607	0.977305	0.030907	-0.209570
17647	9.971870	-1.412502	-0.553362	-0.162193	-0.649054	-0.139966	0.216894	-0.031166	0.975698	0.022071	-0.999078	-0.036819	0.975946	0.029521	-0.216006
