// General information: 
//  MT Manager version: 2022.2.0 
//  XDA version: 2022.2.0 build 7381 rev 124627 built on 2023-07-19
// Device information: 
//  DeviceId: 00B4CB9F
//  ProductCode: MTW2-3A7G6
//  Firmware Version: 4.6.0
//  Hardware Version: 2.0.0
// Device settings: 
//  Filter Profile: human(46.1)
//  Option Flags: Orientation Smoother Disabled, Position/Velocity Smoother Disabled, Continuous Zero Rotation Update Disabled, AHS Disabled, ICC Disabled
// Coordinate system: ENU
PacketCounter	Acc_X	Acc_Y	Acc_Z	Gyr_X	Gyr_Y	Gyr_Z	Mat[1][1]	Mat[2][1]	Mat[3][1]	Mat[1][2]	Mat[2][2]	Mat[3][2]	Mat[1][3]	Mat[2][3]	Mat[3][3]
30494	9.741249	-0.231767	0.719550	-0.015817	-0.006820	0.001268	-0.030107	-0.056417	0.997953	0.620827	-0.783531	-0.025566	0.783369	0.618787	0.058615
30495	9.817153	-0.206389	0.762957	0.000818	-0.008260	-0.003310	-0.030003	-0.056361	0.997960	0.620850	-0.783512	-0.025585	0.783355	0.618815	0.058500
30496	9.754187	-0.165184	0.833593	0.000540	-0.005488	-0.003091	-0.029865	-0.056352	0.997964	0.620940	-0.783438	-0.025656	0.783289	0.618910	0.058388
30497	9.756692	-0.150314	0.793616	0.011764	-0.002152	-0.001701	-0.029799	-0.056346	0.997966	0.621049	-0.783351	-0.025684	0.783205	0.619021	0.058337
30498	9.751525	-0.122444	0.773022	0.019356	-0.003888	-0.004911	-0.029707	-0.056329	0.997970	0.621293	-0.783157	-0.025710	0.783015	0.619268	0.058262
30499	9.780470	-0.128675	0.726868	0.021817	-0.003621	-0.002371	-0.029634	-0.056310	0.997973	0.621480	-0.783007	-0.025726	0.782869	0.619458	0.058199
30500	9.748124	-0.138859	0.720773	0.023273	-0.001595	-0.000533	-0.029516	-0.056344	0.997975	0.621745	-0.782794	-0.025806	0.782663	0.619724	0.058136
30501	9.800793	-0.124726	0.608127	0.021945	-0.013018	-0.001293	-0.029362	-0.056274	0.997983	0.621934	-0.782644	-0.025833	0.782519	0.619921	0.057979
30502	9.865577	-0.103565	0.619087	0.013503	-0.002904	-0.000082	-0.029300	-0.056204	0.997989	0.622047	-0.782554	-0.025809	0.782431	0.620041	0.057890
30503	9.844325	-0.109870	0.645713	-0.012033	0.004876	0.004573	-0.029249	-0.056291	0.997986	0.621972	-0.782611	-0.025914	0.782493	0.619961	0.057902
30504	9.781301	-0.176075	0.602932	-0.019084	0.001123	0.004694	-0.029204	-0.056348	0.997984	0.621884	-0.782678	-0.025993	0.782564	0.619872	0.057899
30505	9.816133	-0.151518	0.568993	-0.022701	-0.004007	0.002750	-0.029096	-0.056366	0.997986	0.621725	-0.782801	-0.026086	0.782695	0.619714	0.057820
30506	9.727442	-0.136631	0.523282	-0.035687	-0.006485	-0.005563	-0.028931	-0.056244	0.997998	0.621475	-0.782999	-0.026112	0.782900	0.619475	0.057607
30507	9.734442	-0.208327	0.511150	-0.045620	-0.014363	-0.006470	-0.028799	-0.056126	0.998008	0.621133	-0.783269	-0.026126	0.783176	0.619144	0.057419
30508	9.776307	-0.254941	0.464351	-0.034711	-0.024216	-0.005150	-0.028555	-0.055962	0.998024	0.620925	-0.783433	-0.026164	0.783350	0.618951	0.057119
30509	9.787571	-0.250381	0.494281	-0.034686	-0.024284	-0.002499	-0.028320	-0.055814	0.998039	0.620670	-0.783634	-0.026211	0.783561	0.618710	0.056834
30510	9.779339	-0.296843	0.519327	-0.032220	-0.024023	0.000039	-0.028057	-0.055702	0.998053	0.620491	-0.783772	-0.026300	0.783711	0.618545	0.056553
30511	9.793038	-0.278041	0.509645	-0.023885	-0.024803	0.000396	-0.027800	-0.055573	0.998068	0.620322	-0.783904	-0.026370	0.783855	0.618390	0.056266
30512	9.795567	-0.263343	0.467721	-0.015141	-0.021670	-0.003410	-0.027508	-0.055412	0.998085	0.620251	-0.783958	-0.026430	0.783921	0.618336	0.055935
30513	9.824510	-0.269603	0.419821	-0.015436	-0.018838	-0.005841	-0.027336	-0.055271	0.998097	0.620146	-0.784041	-0.026433	0.784010	0.618244	0.055709
30514	9.759853	-0.290069	0.406263	-0.026198	-0.018402	-0.006084	-0.027133	-0.055137	0.998110	0.620001	-0.784154	-0.026464	0.784132	0.618111	0.055461
30515	9.769958	-0.287749	0.345333	-0.019301	-0.021266	-0.004918	-0.026936	-0.054989	0.998124	0.619866	-0.784261	-0.026478	0.784245	0.617990	0.055211
30516	9.754786	-0.261780	0.382141	-0.022299	-0.016050	-0.004358	-0.026824	-0.054871	0.998133	0.619751	-0.784352	-0.026464	0.784340	0.617884	0.055046
30517	9.776044	-0.255214	0.353894	-0.025459	-0.017401	-0.005165	-0.026659	-0.054745	0.998144	0.619567	-0.784497	-0.026479	0.784491	0.617712	0.054832
30518	9.796165	-0.260967	0.456376	-0.024448	-0.019166	-0.004469	-0.026457	-0.054599	0.998158	0.619434	-0.784601	-0.026499	0.784603	0.617592	0.054579
30519	9.847433	-0.258490	0.474029	-0.022725	-0.003819	-0.007847	-0.026416	-0.054536	0.998162	0.619271	-0.784730	-0.026486	0.784733	0.617434	0.054502
30520	9.855086	-0.270642	0.454283	-0.021998	-0.002806	-0.006927	-0.026468	-0.054511	0.998162	0.619177	-0.784806	-0.026440	0.784805	0.617340	0.054525
30521	9.910355	-0.297595	0.401724	-0.017156	-0.002020	-0.012461	-0.026470	-0.054422	0.998167	0.619057	-0.784903	-0.026378	0.784900	0.617224	0.054467
30522	9.904456	-0.328255	0.389620	-0.016994	0.004546	-0.011090	-0.026573	-0.054316	0.998170	0.618940	-0.785000	-0.026239	0.784988	0.617110	0.054479
30523	9.895623	-0.316720	0.317929	-0.005954	0.001341	-0.011078	-0.026593	-0.054259	0.998173	0.618909	-0.785027	-0.026184	0.785013	0.617081	0.054457
30524	9.849729	-0.345216	0.319521	-0.002067	0.003706	-0.009350	-0.026620	-0.054168	0.998177	0.618930	-0.785013	-0.026094	0.784995	0.617107	0.054424
30525	9.803885	-0.257627	0.213530	0.027625	-0.004536	-0.007239	-0.026570	-0.054105	0.998182	0.619163	-0.784830	-0.026059	0.784813	0.617344	0.054352
30526	9.888753	-0.125589	0.221699	0.033476	-0.005512	-0.012078	-0.026537	-0.053918	0.998193	0.619428	-0.784626	-0.025914	0.784605	0.617621	0.054219
30527	10.053712	-0.007340	0.425415	0.032281	0.005829	-0.021792	-0.026658	-0.053804	0.998196	0.619693	-0.784422	-0.025732	0.784392	0.617889	0.054253
30528	10.085411	-0.053748	0.440708	-0.000704	0.022064	-0.023117	-0.026972	-0.053762	0.998189	0.619731	-0.784400	-0.025501	0.784350	0.617922	0.054475
30529	9.962349	0.104203	0.539661	0.002558	0.046242	-0.033898	-0.027485	-0.053802	0.998173	0.619760	-0.784386	-0.025214	0.784310	0.617935	0.054904
30530	9.863716	0.180002	0.551490	-0.056972	0.072138	-0.041862	-0.028253	-0.053928	0.998145	0.619367	-0.784707	-0.024865	0.784593	0.617516	0.055572
30531	9.727825	-0.161359	0.302537	-0.113974	0.098218	-0.047314	-0.029257	-0.054184	0.998102	0.618477	-0.785420	-0.024509	0.785258	0.616587	0.056490
30532	9.681157	-0.294715	0.106866	-0.125603	0.100255	-0.048287	-0.030292	-0.054420	0.998059	0.617544	-0.786166	-0.024124	0.785953	0.615614	0.057422
30533	9.613743	-0.434338	-0.063022	-0.155368	0.094840	-0.039966	-0.031225	-0.054711	0.998014	0.616328	-0.787128	-0.023867	0.786870	0.614359	0.058298
30534	9.597179	-0.466114	-0.099301	-0.156210	0.096484	-0.043347	-0.032153	-0.054969	0.997970	0.615152	-0.788056	-0.023587	0.787753	0.613145	0.059152
30535	9.628912	-0.346066	0.030220	-0.168064	0.085147	-0.039161	-0.033005	-0.055203	0.997930	0.613833	-0.789091	-0.023349	0.788746	0.611791	0.059929
30536	9.708453	-0.522308	0.125039	-0.181480	0.081396	-0.048489	-0.033953	-0.055304	0.997892	0.612439	-0.790184	-0.022955	0.789788	0.610369	0.060700
30537	9.817199	-0.704358	0.172995	-0.154907	0.071823	-0.047141	-0.034750	-0.055391	0.997860	0.611218	-0.791139	-0.022631	0.790699	0.609123	0.061348
30538	9.838406	-0.527993	0.352538	-0.115835	0.067861	-0.045116	-0.035549	-0.055467	0.997827	0.610363	-0.791808	-0.022269	0.791323	0.608246	0.062003
30539	9.735418	-0.422083	0.527250	-0.094798	0.063323	-0.045715	-0.036270	-0.055511	0.997799	0.609616	-0.792394	-0.021924	0.791867	0.607479	0.062581
30540	9.666616	-0.350061	0.676267	-0.097704	0.068414	-0.045153	-0.037073	-0.055543	0.997768	0.608864	-0.792983	-0.021520	0.792408	0.606707	0.063216
30541	9.587308	-0.221987	0.877570	-0.091907	0.076593	-0.043020	-0.037883	-0.055688	0.997729	0.608138	-0.793548	-0.021201	0.792927	0.605954	0.063927
30542	9.673365	-0.129221	1.047216	-0.095348	0.087328	-0.047284	-0.038805	-0.055852	0.997685	0.607442	-0.794091	-0.020828	0.793416	0.605227	0.064742
30543	9.763153	-0.185402	0.977884	-0.100638	0.092173	-0.051937	-0.039793	-0.056019	0.997636	0.606642	-0.794712	-0.020427	0.793978	0.604396	0.065607
30544	9.818415	-0.208298	0.843157	-0.094418	0.088444	-0.057002	-0.040729	-0.056089	0.997595	0.605941	-0.795259	-0.019974	0.794466	0.603670	0.066376
30545	9.855512	-0.162603	0.688238	-0.091906	0.088711	-0.057113	-0.041720	-0.056191	0.997548	0.605206	-0.795829	-0.019517	0.794975	0.602908	0.067210
30546	9.748081	-0.134436	0.545939	-0.086589	0.077327	-0.059225	-0.042678	-0.056193	0.997507	0.604547	-0.796343	-0.018995	0.795425	0.602230	0.067957
30547	9.817548	-0.136162	0.493717	-0.084325	0.055171	-0.058549	-0.043412	-0.056080	0.997482	0.603871	-0.796867	-0.018520	0.795899	0.601546	0.068459
30548	9.646146	0.050400	0.588422	-0.078793	0.040930	-0.055598	-0.043987	-0.055891	0.997467	0.603289	-0.797318	-0.018072	0.796309	0.600966	0.068790
30549	9.618822	-0.042973	0.612401	-0.114100	0.042869	-0.051926	-0.044582	-0.055757	0.997449	0.602377	-0.798016	-0.017684	0.796966	0.600052	0.069164
30550	9.746660	0.004873	0.825332	-0.106208	0.038478	-0.055354	-0.045176	-0.055552	0.997433	0.601579	-0.798627	-0.017233	0.797535	0.599257	0.069497
30551	9.882569	-0.078892	0.940373	-0.113839	0.033370	-0.050992	-0.045689	-0.055366	0.997420	0.600668	-0.799321	-0.016855	0.798192	0.598348	0.069777
30552	9.809822	-0.203269	0.962784	-0.111819	0.029750	-0.046974	-0.046142	-0.055197	0.997409	0.599839	-0.799950	-0.016520	0.798789	0.597522	0.070020
30553	9.654306	-0.281224	0.951282	-0.084581	0.018995	-0.047461	-0.046519	-0.054953	0.997405	0.599161	-0.800465	-0.016158	0.799276	0.596855	0.070163
30554	9.649016	-0.249207	0.932874	-0.037824	0.008557	-0.048865	-0.046829	-0.054631	0.997408	0.598912	-0.800660	-0.015735	0.799445	0.596622	0.070213
30555	9.682775	-0.039973	1.155904	-0.024734	0.008857	-0.053908	-0.047164	-0.054274	0.997412	0.598709	-0.800821	-0.015266	0.799577	0.596439	0.070264
30556	9.800641	-0.054933	1.157157	-0.038444	0.007658	-0.055126	-0.047493	-0.053879	0.997417	0.598440	-0.801032	-0.014775	0.799759	0.596192	0.070287
30557	9.905196	-0.148497	1.171588	-0.045734	0.015902	-0.058485	-0.047911	-0.053527	0.997416	0.598067	-0.801319	-0.014275	0.800013	0.595837	0.070405
30558	9.870251	-0.170112	1.204903	-0.038843	0.003775	-0.053680	-0.048209	-0.053096	0.997425	0.597764	-0.801554	-0.013778	0.800221	0.595561	0.070381
30559	9.856994	-0.184689	1.211096	-0.024709	-0.007118	-0.051777	-0.048402	-0.052661	0.997439	0.597562	-0.801712	-0.013330	0.800360	0.595386	0.070273
30560	9.825305	-0.130996	1.105837	-0.000814	-0.009962	-0.048748	-0.048497	-0.052229	0.997457	0.597614	-0.801680	-0.012921	0.800316	0.595468	0.070092
30561	9.879470	-0.107868	0.994187	0.007374	-0.010627	-0.045655	-0.048626	-0.051822	0.997472	0.597672	-0.801643	-0.012512	0.800265	0.595552	0.069953
30562	9.864706	-0.137779	0.763897	0.021093	-0.025265	-0.044954	-0.048657	-0.051253	0.997500	0.597813	-0.801546	-0.012024	0.800158	0.595733	0.069641
30563	9.867339	-0.117471	0.813959	0.009954	-0.019523	-0.047455	-0.048726	-0.050779	0.997521	0.597890	-0.801494	-0.011595	0.800096	0.595843	0.069414
30564	9.691488	-0.202484	0.732552	0.009784	-0.026196	-0.043601	-0.048724	-0.050280	0.997546	0.597996	-0.801421	-0.011186	0.800017	0.595983	0.069116
30565	9.810417	-0.217158	0.547436	0.033975	-0.031763	-0.040839	-0.048656	-0.049786	0.997574	0.598269	-0.801223	-0.010807	0.799817	0.596291	0.068769
30566	9.901675	-0.151859	0.453589	0.029644	-0.028639	-0.044789	-0.048624	-0.049296	0.997600	0.598554	-0.801015	-0.010408	0.799606	0.596611	0.068455
30567	9.847739	-0.105831	0.554677	0.019297	-0.037518	-0.054821	-0.048593	-0.048655	0.997633	0.598702	-0.800911	-0.009899	0.799496	0.596804	0.068049
30568	9.765310	-0.173096	0.622468	0.002261	-0.037283	-0.061945	-0.048574	-0.047954	0.997668	0.598760	-0.800874	-0.009342	0.799454	0.596910	0.067615
30569	9.730487	-0.134111	0.645090	-0.010247	-0.033536	-0.068982	-0.048660	-0.047223	0.997698	0.598665	-0.800952	-0.008712	0.799520	0.596864	0.067245
30570	9.902667	-0.187429	0.720922	-0.037637	-0.020044	-0.076193	-0.048783	-0.046513	0.997726	0.598416	-0.801145	-0.008090	0.799699	0.596660	0.066916
30571	9.953211	-0.370945	0.524935	-0.075720	0.025298	-0.082721	-0.049420	-0.046024	0.997717	0.597790	-0.801619	-0.007367	0.800128	0.596061	0.067129
30572	9.757373	-0.772827	0.179855	-0.056388	0.028439	-0.086073	-0.050071	-0.045524	0.997708	0.597369	-0.801939	-0.006612	0.800402	0.595669	0.067349
30573	9.726836	-0.834654	0.090472	0.034246	0.019784	-0.086915	-0.050689	-0.044967	0.997702	0.597621	-0.801758	-0.005773	0.800175	0.595954	0.067514
30574	9.657346	-0.761146	-0.038199	0.116481	0.004886	-0.079012	-0.051108	-0.044403	0.997706	0.598585	-0.801044	-0.004988	0.799427	0.596956	0.067519
30575	9.727697	-0.565275	0.028101	0.193672	-0.014590	-0.074812	-0.051380	-0.043739	0.997721	0.600115	-0.799903	-0.004163	0.798262	0.598533	0.067348
30576	9.651311	-0.270882	0.274952	0.223242	-0.022268	-0.072535	-0.051512	-0.043041	0.997744	0.601932	-0.798540	-0.003371	0.796884	0.600401	0.067042
30577	9.670541	0.058295	0.540342	0.206209	-0.013047	-0.078006	-0.051818	-0.042362	0.997758	0.603555	-0.797318	-0.002506	0.795636	0.602072	0.066883
30578	9.738121	0.181514	0.741207	0.162949	-0.004264	-0.081311	-0.052164	-0.041707	0.997767	0.604886	-0.796310	-0.001662	0.794602	0.603449	0.066767
30579	9.847016	0.380706	0.975253	0.103377	0.012502	-0.097318	-0.052793	-0.041029	0.997762	0.605677	-0.795710	-0.000673	0.793957	0.604286	0.066858
30580	9.880520	0.419765	1.126592	0.009522	0.020099	-0.113253	-0.053488	-0.040271	0.997756	0.605790	-0.795624	0.000363	0.793824	0.604450	0.066953
30581	9.887416	0.150834	1.215592	-0.043763	0.023884	-0.130666	-0.054409	-0.039397	0.997741	0.605394	-0.795925	0.001585	0.794064	0.604113	0.067157
30582	9.620843	-0.065722	1.185986	-0.035589	0.019685	-0.144744	-0.055290	-0.038383	0.997732	0.605132	-0.796120	0.002907	0.794203	0.603920	0.067244
30583	9.743929	-0.038258	1.109620	-0.025112	0.015736	-0.150932	-0.056268	-0.037297	0.997719	0.604870	-0.796313	0.004344	0.794334	0.603734	0.067367
30584	9.756622	-0.214966	0.930421	0.001041	0.032031	-0.152664	-0.057360	-0.036276	0.997694	0.604839	-0.796327	0.005819	0.794279	0.603778	0.067618
30585	9.700869	-0.311764	0.764613	0.065254	0.034758	-0.138802	-0.058415	-0.035402	0.997664	0.605298	-0.795966	0.007197	0.793852	0.604305	0.067926
30586	9.678503	-0.246888	0.696052	0.129866	0.034789	-0.127843	-0.059316	-0.034646	0.997638	0.606359	-0.795146	0.008439	0.792976	0.605427	0.068173
30587	9.650029	-0.155251	0.606933	0.169984	0.020507	-0.118616	-0.060139	-0.033849	0.997616	0.607657	-0.794141	0.009686	0.791920	0.606791	0.068327
30588	9.654537	-0.111185	0.621339	0.179618	0.008721	-0.113865	-0.060763	-0.033028	0.997606	0.609103	-0.793017	0.010846	0.790760	0.608304	0.068304
30589	9.557440	-0.283388	0.787087	0.142221	0.004185	-0.099952	-0.061345	-0.032282	0.997594	0.610188	-0.792168	0.011888	0.789878	0.609449	0.068294
30590	9.414096	-0.712276	1.093853	0.121754	0.015564	-0.083829	-0.061918	-0.031773	0.997575	0.611150	-0.791412	0.012726	0.789089	0.610457	0.068421
30591	9.287038	-0.673679	1.206619	0.145094	0.024758	-0.068306	-0.062470	-0.031405	0.997553	0.612274	-0.790531	0.013455	0.788174	0.611616	0.068613
30592	9.561808	-0.408382	1.508780	0.237866	0.053515	-0.054734	-0.063056	-0.031333	0.997518	0.614222	-0.789009	0.014043	0.786610	0.613583	0.068998
30593	9.804890	0.812320	1.871736	0.398164	0.068432	-0.060731	-0.063907	-0.031297	0.997465	0.617332	-0.786562	0.014873	0.784103	0.616717	0.069587
30594	10.011459	2.191705	1.649006	0.393545	0.084490	-0.087742	-0.065025	-0.031138	0.997398	0.620393	-0.784129	0.015966	0.781591	0.619817	0.070305
30595	10.206922	2.217713	1.020275	0.172022	0.104886	-0.128551	-0.066581	-0.030802	0.997305	0.621674	-0.783085	0.017318	0.780441	0.621152	0.071287
30596	10.091523	1.493824	0.369435	0.032810	0.106931	-0.151748	-0.068233	-0.030313	0.997209	0.621912	-0.782863	0.018757	0.780109	0.621456	0.072269
30597	9.774214	0.662148	-0.271756	-0.037606	0.105992	-0.138652	-0.069861	-0.029906	0.997108	0.621545	-0.783122	0.020060	0.780257	0.621149	0.073298
30598	9.724742	-0.370542	-0.821606	-0.141543	0.091385	-0.111662	-0.071225	-0.029588	0.997021	0.620385	-0.784015	0.021052	0.781056	0.620037	0.074198
30599	9.472462	-0.743052	-1.335847	-0.043849	0.069753	-0.081533	-0.072214	-0.029402	0.996956	0.620007	-0.784294	0.021780	0.781266	0.619692	0.074867
30600	9.790886	-0.019647	-1.555339	0.032974	0.016945	-0.063303	-0.072555	-0.028999	0.996943	0.620345	-0.784011	0.022342	0.780966	0.620069	0.074873
30601	9.991932	1.132712	-1.113424	-0.047583	-0.038935	-0.077767	-0.072671	-0.028168	0.996958	0.619939	-0.784312	0.023029	0.781278	0.619727	0.074460
30602	10.057269	1.706835	-0.765854	-0.238367	-0.095194	-0.102122	-0.072481	-0.026770	0.997010	0.618068	-0.785764	0.023834	0.782777	0.617947	0.073498
30603	10.184065	1.506451	-0.451764	-0.483695	-0.125025	-0.121945	-0.072190	-0.025061	0.997076	0.614208	-0.788759	0.024645	0.785835	0.614191	0.072333
30604	10.000741	0.452075	0.134020	-0.701264	-0.100934	-0.135472	-0.072203	-0.023387	0.997116	0.608625	-0.793049	0.025471	0.790166	0.608708	0.071494
30605	9.560007	-0.546695	0.490336	-0.649114	-0.102146	-0.129427	-0.072117	-0.021760	0.997159	0.603412	-0.796998	0.026248	0.794162	0.603590	0.070608
30606	9.570129	-0.441947	0.881695	-0.415706	-0.109732	-0.103432	-0.071744	-0.020316	0.997216	0.600155	-0.799431	0.026891	0.796660	0.600414	0.069547
30607	9.586912	0.205156	1.316072	-0.341903	-0.069482	-0.087704	-0.071654	-0.019220	0.997244	0.597388	-0.801482	0.027477	0.798745	0.597711	0.068911
30608	9.745142	0.526538	1.587916	-0.362694	-0.041252	-0.090479	-0.071806	-0.018263	0.997251	0.594489	-0.803613	0.028088	0.800891	0.594872	0.068561
30609	9.827224	0.803122	1.766946	-0.429775	-0.001040	-0.115616	-0.072422	-0.017349	0.997223	0.590981	-0.806168	0.028894	0.803428	0.591433	0.068637
30610	9.719299	0.751916	1.666582	-0.521497	0.032165	-0.144578	-0.073446	-0.016437	0.997164	0.586771	-0.809202	0.029880	0.806416	0.587301	0.069077
30611	9.491043	0.534542	1.551136	-0.549865	0.039211	-0.158655	-0.074629	-0.015403	0.997092	0.582234	-0.812429	0.031028	0.809589	0.582856	0.069599
30612	9.470116	0.280666	1.336005	-0.531796	0.040929	-0.156845	-0.075816	-0.014423	0.997017	0.577862	-0.815501	0.032145	0.812605	0.578576	0.070163
30613	9.377760	-0.165891	1.105123	-0.532913	0.035308	-0.161045	-0.076970	-0.013335	0.996944	0.573424	-0.818581	0.033323	0.815635	0.574237	0.070653
30614	9.406997	-0.252262	1.142513	-0.429620	0.009629	-0.152751	-0.077820	-0.012215	0.996893	0.569896	-0.820995	0.034428	0.818023	0.570805	0.070851
30615	9.475802	-0.078200	1.141407	-0.362537	-0.016918	-0.156160	-0.078509	-0.010859	0.996854	0.566829	-0.823063	0.035675	0.820086	0.567847	0.070773
30616	9.576588	0.209795	1.300739	-0.322453	-0.043103	-0.155588	-0.078884	-0.009401	0.996839	0.564207	-0.824810	0.036869	0.821856	0.565332	0.070368
30617	9.705346	0.111070	1.501505	-0.380466	-0.056071	-0.156920	-0.079245	-0.007814	0.996825	0.560976	-0.826954	0.038114	0.824030	0.562215	0.069915
30618	9.750313	-0.218535	1.635971	-0.357805	-0.073847	-0.148460	-0.079326	-0.006230	0.996829	0.558044	-0.828884	0.039228	0.826011	0.559386	0.069229
30619	9.923289	-0.295630	1.689758	-0.306011	-0.070198	-0.138171	-0.079455	-0.004718	0.996827	0.555429	-0.830585	0.040341	0.827760	0.556872	0.068615
30620	9.894070	-0.100247	1.659544	-0.204580	-0.070496	-0.120945	-0.079429	-0.003376	0.996835	0.553741	-0.831664	0.041306	0.828892	0.555269	0.067928
30621	9.915877	0.309359	1.451994	-0.096835	-0.089564	-0.107071	-0.079218	-0.002014	0.996855	0.552878	-0.832190	0.042255	0.829488	0.554487	0.067039
30622	9.999259	0.739328	1.349566	-0.012626	-0.093847	-0.095727	-0.078916	-0.000758	0.996881	0.552722	-0.832249	0.043122	0.829621	0.554401	0.066097
30623	9.924099	0.992499	1.328799	0.030720	-0.075268	-0.078849	-0.078668	0.000289	0.996901	0.552940	-0.832065	0.043875	0.829499	0.554678	0.065297
30624	9.752727	1.204736	1.051893	0.106108	-0.060689	-0.069432	-0.078425	0.001159	0.996919	0.553884	-0.831402	0.044539	0.828892	0.555670	0.064560
30625	9.450615	1.644563	0.361501	0.173599	-0.082739	-0.059368	-0.078008	0.002087	0.996951	0.555301	-0.830421	0.045189	0.827983	0.557132	0.063621
30626	9.598171	1.894264	-0.482180	0.168570	-0.141587	-0.053297	-0.077073	0.003265	0.997020	0.556693	-0.829457	0.045751	0.827135	0.558560	0.062111
30627	9.819002	1.904819	-0.316327	0.038383	-0.163073	-0.049765	-0.075941	0.004564	0.997102	0.556998	-0.829227	0.046217	0.827035	0.558893	0.060430
30628	9.583030	1.493928	-0.662343	-0.093004	-0.223539	-0.044185	-0.074265	0.006166	0.997219	0.556276	-0.829692	0.046557	0.827673	0.558187	0.058187
30629	9.792420	1.094640	-0.649421	-0.140739	-0.283075	-0.021569	-0.071980	0.007898	0.997375	0.555120	-0.830462	0.046639	0.828650	0.557019	0.055392
30630	9.815476	0.709908	0.094159	-0.282706	-0.281697	-0.008174	-0.069596	0.009478	0.997530	0.552868	-0.831971	0.046478	0.830357	0.554737	0.052662
30631	9.572002	0.141106	0.665228	-0.305905	-0.301698	0.021108	-0.066912	0.010946	0.997699	0.550365	-0.833653	0.046057	0.832239	0.552180	0.049757
30632	9.605365	0.324400	1.196511	-0.228351	-0.311363	0.055513	-0.063913	0.012137	0.997882	0.548606	-0.834853	0.045291	0.833635	0.550338	0.046699
30633	9.737687	0.516521	1.878086	-0.210924	-0.293411	0.073481	-0.061002	0.013109	0.998052	0.546917	-0.836008	0.044409	0.834961	0.548560	0.043829
30634	9.713169	0.346283	2.384493	-0.183410	-0.275401	0.072096	-0.058252	0.013994	0.998204	0.545487	-0.836986	0.043567	0.836092	0.547045	0.041122
30635	9.624831	0.029614	2.851320	-0.114714	-0.255137	0.063936	-0.055709	0.014827	0.998337	0.544589	-0.837609	0.042829	0.836851	0.546069	0.038588
30636	9.416417	-0.167968	2.952384	0.025592	-0.221313	0.068871	-0.053395	0.015408	0.998455	0.544924	-0.837430	0.042064	0.836784	0.546328	0.036318
30637	9.612224	-0.078546	2.933637	0.217288	-0.192208	0.084034	-0.051269	0.015730	0.998561	0.546809	-0.836240	0.041248	0.835686	0.548137	0.034272
30638	9.295230	0.316850	2.618946	0.384766	-0.150870	0.089511	-0.049441	0.015808	0.998652	0.550153	-0.834084	0.040440	0.833599	0.551410	0.032541
30639	9.299604	0.603623	1.846610	0.516075	-0.191343	0.089225	-0.047295	0.016099	0.998751	0.554515	-0.831228	0.039657	0.830829	0.555698	0.030386
30640	9.436978	0.833305	1.059969	0.580641	-0.223806	0.084483	-0.044921	0.016619	0.998852	0.559386	-0.827993	0.038933	0.827689	0.560493	0.027898
30641	9.289487	0.794185	0.407574	0.585917	-0.282619	0.087983	-0.042031	0.017457	0.998964	0.564288	-0.824696	0.038154	0.824507	0.565307	0.024812
30642	9.351753	0.831095	0.053203	0.566143	-0.339453	0.092728	-0.038568	0.018582	0.999083	0.569150	-0.821390	0.037248	0.821329	0.570065	0.021103
30643	9.345202	0.910874	0.286912	0.475065	-0.377780	0.101285	-0.034830	0.019887	0.999195	0.573106	-0.818678	0.036272	0.818740	0.573909	0.017117
30644	9.313359	0.868558	0.631609	0.392319	-0.425431	0.111202	-0.030604	0.021417	0.999302	0.576482	-0.816353	0.035151	0.816536	0.577156	0.012637
30645	9.419137	1.346536	1.091746	0.349862	-0.478011	0.118669	-0.025958	0.023191	0.999394	0.579392	-0.814342	0.033945	0.814635	0.579922	0.007702
30646	9.447899	1.917668	1.491182	0.271431	-0.542754	0.112772	-0.020881	0.025350	0.999461	0.581553	-0.812848	0.032767	0.813241	0.581923	0.002231
30647	9.488157	2.614588	1.904836	0.201516	-0.603403	0.071201	-0.015501	0.028264	0.999480	0.583226	-0.811680	0.031998	0.812162	0.583419	-0.003902
30648	9.568248	2.446176	2.339894	-0.063692	-0.627804	0.023436	-0.010181	0.031756	0.999444	0.582825	-0.811977	0.031736	0.812534	0.582824	-0.010242
30649	9.423771	0.905041	2.605118	-0.261128	-0.629066	-0.010254	-0.005062	0.035475	0.999358	0.580723	-0.813480	0.031818	0.814086	0.580511	-0.016483
30650	9.537779	-0.089493	3.004821	-0.148820	-0.622856	-0.001575	0.000001	0.039061	0.999237	0.579449	-0.814387	0.031835	0.815009	0.579006	-0.022635
30651	9.954107	-0.069546	3.415847	0.150798	-0.610796	0.036689	0.005250	0.042278	0.999092	0.580697	-0.813515	0.031374	0.814103	0.580005	-0.028822
30652	10.491203	0.875762	3.940351	0.447903	-0.568870	0.082001	0.010350	0.044878	0.998939	0.584255	-0.811001	0.030381	0.811504	0.583321	-0.034614
30653	10.858259	1.981390	4.344383	0.702722	-0.475623	0.121390	0.014974	0.046659	0.998799	0.589948	-0.806925	0.028851	0.807302	0.588807	-0.039610
30654	11.038805	2.658143	4.404284	0.630728	-0.304070	0.143134	0.018240	0.047255	0.998716	0.594873	-0.803362	0.027147	0.803613	0.593614	-0.042764
30655	10.483121	2.348540	3.842152	0.419420	-0.097979	0.153214	0.020002	0.046586	0.998714	0.598228	-0.800924	0.025379	0.801076	0.596951	-0.043889
30656	10.152525	2.219836	3.767736	0.399266	0.069063	0.191271	0.020571	0.044605	0.998793	0.601268	-0.798708	0.023285	0.798783	0.600063	-0.043250
30657	10.524920	2.283849	3.673263	0.363636	0.167733	0.224246	0.020647	0.041784	0.998913	0.604142	-0.796604	0.020835	0.796609	0.603055	-0.041691
30658	11.559313	2.097162	3.600730	0.231599	0.333881	0.203052	0.019239	0.038160	0.999086	0.605917	-0.795308	0.018709	0.795295	0.605003	-0.038423
30659	11.896463	2.090237	3.287352	0.077733	0.562435	0.152641	0.015755	0.033519	0.999314	0.606527	-0.794879	0.017100	0.794906	0.605842	-0.032853
30660	12.218334	2.599699	4.378385	-0.058350	0.728197	0.051438	0.010250	0.028688	0.999536	0.605943	-0.795335	0.016614	0.795442	0.605491	-0.025535
30661	11.636141	2.330666	5.836213	-0.355368	0.857519	-0.050490	0.003176	0.023887	0.999710	0.603135	-0.797455	0.017138	0.797632	0.602906	-0.016940
30662	11.229216	1.679758	6.641237	-0.496902	0.903356	-0.132643	-0.004980	0.019444	0.999799	0.598856	-0.800642	0.018554	0.800841	0.598828	-0.007657
30663	10.966877	1.040343	6.368857	-0.569564	1.041746	-0.168017	-0.014281	0.014553	0.999792	0.594290	-0.803998	0.020192	0.804124	0.594455	0.002833
30664	11.588973	0.720009	5.393337	-0.597260	1.229378	-0.169809	-0.025299	0.008642	0.999643	0.589185	-0.807702	0.021894	0.807602	0.589528	0.015343
30665	11.923409	0.340699	4.409881	-0.735138	1.505975	-0.166823	-0.038408	0.001135	0.999261	0.583202	-0.811992	0.023338	0.811419	0.583668	0.030525
30666	12.643625	-0.085118	3.918184	-0.854573	1.863839	-0.129311	-0.054410	-0.008599	0.998482	0.575944	-0.817126	0.024347	0.815676	0.576394	0.049412
30667	14.029583	-0.261210	2.464967	-1.085112	2.077621	-0.108616	-0.071968	-0.019614	0.997214	0.567021	-0.823332	0.024728	0.820554	0.567220	0.070375
30668	10.896678	-0.410061	1.981539	-1.386813	2.245978	-0.086240	-0.091121	-0.031434	0.995344	0.555164	-0.831378	0.024568	0.826735	0.554818	0.093207
30669	10.944402	-1.253512	0.420215	-1.776621	1.717954	-0.063610	-0.105683	-0.040328	0.993582	0.540366	-0.841107	0.023338	0.834767	0.539364	0.110682
30670	12.036586	-1.493109	-2.316395	-0.849594	1.583684	-0.011674	-0.119052	-0.048694	0.991693	0.533035	-0.845795	0.022460	0.837676	0.531281	0.126649
30671	12.376783	0.398588	-1.821735	-0.218197	1.622464	0.029591	-0.132420	-0.057570	0.989520	0.531271	-0.846921	0.021822	0.836789	0.528593	0.142735
30672	12.484750	0.946269	-2.185789	-0.337254	1.692612	0.030153	-0.146422	-0.066702	0.986971	0.528353	-0.848764	0.021022	0.836303	0.524548	0.159520
30673	13.486158	0.320725	-2.297572	-0.661452	1.843601	0.030013	-0.161631	-0.076592	0.983875	0.522892	-0.852174	0.019561	0.836934	0.517622	0.177787
30674	10.981428	-1.166137	-2.400817	-0.800419	1.939281	0.009698	-0.177843	-0.086661	0.980236	0.516096	-0.856343	0.017927	0.837864	0.509084	0.197020
30675	11.329526	-2.004196	-3.232967	-0.301532	1.810576	0.046677	-0.192700	-0.096269	0.976524	0.513687	-0.857813	0.016801	0.836058	0.504865	0.214752
30676	10.712150	-0.564821	-2.831704	-0.059867	1.863771	0.048082	-0.207999	-0.106111	0.972356	0.513211	-0.858111	0.016138	0.832677	0.502381	0.232943
30677	9.550602	-1.335762	-2.895264	-0.111590	1.870734	0.121288	-0.222865	-0.116551	0.967857	0.512575	-0.858518	0.014644	0.829215	0.499363	0.251075
30678	9.538972	-1.089747	-2.542349	0.048354	1.828848	0.168952	-0.237120	-0.127167	0.963121	0.513307	-0.858105	0.013075	0.824797	0.497477	0.268750
30679	9.555755	-0.862160	-2.387901	0.190051	1.781205	0.199465	-0.250682	-0.137761	0.958217	0.515387	-0.856878	0.011640	0.819472	0.496771	0.285805
30680	9.278161	-0.909308	-1.742871	0.123243	1.747641	0.210704	-0.263860	-0.148278	0.953096	0.516899	-0.855989	0.009931	0.814367	0.495274	0.302506
30681	8.862837	-1.799627	-1.435631	-0.023977	1.693312	0.193240	-0.276557	-0.158324	0.947866	0.517258	-0.855792	0.007974	0.809914	0.492497	0.318569
30682	8.424139	-2.113943	-1.004525	-0.033035	1.627617	0.155080	-0.288884	-0.167682	0.942565	0.517405	-0.855717	0.006346	0.805505	0.489521	0.333962
30683	8.062506	-1.888769	-0.313038	-0.079914	1.567764	0.155471	-0.300619	-0.176691	0.937235	0.517255	-0.855819	0.004568	0.801296	0.486162	0.348670
30684	8.027172	-1.924379	0.309934	-0.191098	1.508447	0.179781	-0.311729	-0.185567	0.931874	0.516258	-0.856431	0.002154	0.797686	0.481759	0.362775
30685	7.737150	-2.541894	0.709821	-0.220320	1.472498	0.199722	-0.322363	-0.194368	0.926446	0.515172	-0.857087	-0.000559	0.794154	0.477099	0.376427
30686	7.270773	-2.843804	1.158599	-0.017027	1.392269	0.204669	-0.332312	-0.202781	0.921113	0.515686	-0.856774	-0.002572	0.789707	0.474150	0.389287
30687	6.918407	-2.634870	1.294524	0.273923	1.204669	0.212136	-0.340640	-0.210338	0.916364	0.518590	-0.855016	-0.003481	0.784238	0.474031	0.400332
30688	6.956657	-2.090192	1.060997	0.592153	0.956900	0.195538	-0.347072	-0.216595	0.912484	0.523859	-0.851800	-0.002935	0.777890	0.476995	0.409101
30689	6.915678	-1.161333	1.039271	0.877079	0.740949	0.191520	-0.351743	-0.221807	0.909438	0.531355	-0.847149	-0.001103	0.770674	0.482847	0.415837
30690	7.373041	-0.151598	1.258417	0.943323	0.583775	0.134226	-0.355479	-0.225815	0.906996	0.539038	-0.842280	0.001562	0.763592	0.489461	0.421136
30691	7.519948	1.285495	1.363509	0.959947	0.473051	0.068991	-0.358644	-0.228755	0.905011	0.546617	-0.837368	0.004960	0.756693	0.496473	0.425359
30692	7.344960	2.506714	1.690123	0.693745	0.417349	-0.001508	-0.361769	-0.230858	0.903232	0.551828	-0.833921	0.007880	0.751404	0.501280	0.429081
30693	7.272419	2.809161	2.775381	0.299157	0.335002	-0.013827	-0.364302	-0.232453	0.901804	0.554057	-0.832427	0.009253	0.748535	0.503022	0.432047
30694	7.200330	2.247180	3.426745	0.184105	0.230939	-0.022703	-0.366118	-0.233457	0.900808	0.555358	-0.831549	0.010209	0.746683	0.504008	0.434097
30695	7.468572	2.282111	3.728949	0.373853	0.095544	-0.028389	-0.366932	-0.233731	0.900406	0.558076	-0.829702	0.012049	0.744252	0.506916	0.434885
30696	7.671205	2.483085	3.793553	0.321712	-0.078564	0.022788	-0.366181	-0.233549	0.900759	0.560572	-0.828001	0.013203	0.742745	0.509774	0.434119
30697	8.245834	1.500909	4.189773	-0.424507	-0.135211	0.150658	-0.364276	-0.234138	0.901378	0.557998	-0.829782	0.009965	0.745614	0.506597	0.432919
30698	8.676905	-0.675499	3.899878	-0.987481	-0.102531	0.255901	-0.362047	-0.235778	0.901848	0.551566	-0.834125	0.003354	0.751463	0.498643	0.432040
30699	8.953641	-2.503721	3.906693	-1.065166	-0.090724	0.328039	-0.359509	-0.238102	0.902253	0.544748	-0.838589	-0.004243	0.757630	0.489975	0.431186
30700	8.998172	-3.050452	4.245153	-0.689488	-0.121783	0.337963	-0.356709	-0.240376	0.902761	0.540742	-0.841126	-0.010300	0.761812	0.484487	0.430018
30701	9.154257	-2.172283	4.920183	-0.225611	-0.194240	0.268063	-0.353723	-0.241721	0.903577	0.540008	-0.841548	-0.013730	0.763722	0.483083	0.428206
30702	8.612393	-1.508945	4.820023	0.168057	-0.242619	0.171609	-0.350906	-0.242021	0.904594	0.541902	-0.840314	-0.014611	0.763680	0.485075	0.426023
30703	7.718121	-0.647562	4.152889	0.690655	-0.367181	0.070222	-0.347668	-0.240845	0.906157	0.547448	-0.836748	-0.012356	0.761201	0.491778	0.422761
30704	7.831333	0.512911	3.899831	1.091175	-0.508436	-0.002443	-0.343788	-0.238331	0.908300	0.555720	-0.831333	-0.007797	0.756957	0.502080	0.418248
30705	9.141128	1.712089	5.255244	1.120446	-0.508097	-0.027808	-0.340053	-0.235550	0.910429	0.564116	-0.825691	-0.002924	0.752421	0.512592	0.413656
30706	9.702272	2.081239	5.410006	0.771654	-0.386112	-0.069494	-0.337513	-0.233015	0.912025	0.569676	-0.821869	0.000839	0.749370	0.519841	0.410134
30707	8.836753	1.920272	4.364356	0.411809	-0.383029	-0.044049	-0.334839	-0.230681	0.913602	0.572645	-0.819798	0.002881	0.748305	0.524135	0.406599
30708	8.337861	1.231936	1.576383	0.207304	-0.607070	0.052538	-0.329956	-0.227949	0.916061	0.574382	-0.818581	0.003194	0.749143	0.527223	0.401026
30709	10.132890	0.316294	-0.239590	0.120060	-0.823582	0.110606	-0.323085	-0.224526	0.919350	0.575677	-0.817673	0.002614	0.751141	0.530093	0.393433
30710	11.074438	-0.291126	-0.199786	-0.068589	-0.857104	0.065580	-0.316211	-0.220539	0.922699	0.575399	-0.817871	0.001707	0.754273	0.531459	0.385518
30711	10.834356	-0.015191	0.406601	-0.442574	-0.847733	-0.061856	-0.310092	-0.215561	0.925946	0.571888	-0.820331	0.000547	0.759465	0.529707	0.377655
30712	10.195774	-0.088452	1.268676	-0.735535	-0.825635	-0.136366	-0.304515	-0.210106	0.929046	0.565906	-0.824469	-0.000967	0.766173	0.525458	0.369963
30713	9.613855	-0.014202	3.117663	-0.704080	-0.815213	-0.212934	-0.299384	-0.204106	0.932046	0.559879	-0.828573	-0.001607	0.772596	0.521351	0.362336
30714	9.957053	0.264224	4.264972	-0.681716	-0.823747	-0.287972	-0.294540	-0.197457	0.935017	0.553791	-0.832655	-0.001390	0.778821	0.517394	0.354600
30715	10.966979	-0.307322	3.938212	-0.837842	-0.850448	-0.313490	-0.289554	-0.190489	0.938015	0.546352	-0.837554	-0.001435	0.785912	0.512071	0.346591
30716	11.817563	-1.501962	3.667422	-1.007291	-0.822811	-0.287522	-0.284556	-0.183909	0.940853	0.537626	-0.843181	-0.002215	0.793717	0.505197	0.338807
30717	11.384388	-2.471070	3.900783	-0.908061	-0.751203	-0.228736	-0.279732	-0.178232	0.943389	0.529773	-0.848133	-0.003149	0.800681	0.498902	0.331673
30718	10.470399	-3.007142	4.595256	-0.670393	-0.641847	-0.175966	-0.275448	-0.173574	0.945516	0.523944	-0.851745	-0.003725	0.805985	0.494371	0.325554
30719	9.067177	-3.693917	3.974499	-0.254215	-0.565956	-0.126117	-0.271481	-0.169734	0.947359	0.521578	-0.853197	-0.003397	0.808860	0.493199	0.320156
30720	8.674534	-3.600763	2.962796	0.504336	-0.537517	-0.069452	-0.267450	-0.166509	0.949076	0.525487	-0.850801	-0.001185	0.807672	0.498410	0.315045
30721	9.222558	-1.883542	2.278700	1.052068	-0.465284	-0.044142	-0.263879	-0.163822	0.950542	0.533875	-0.845560	0.002480	0.803334	0.508125	0.310586
30722	9.248759	-0.519262	0.676288	1.269007	-0.493082	-0.048997	-0.260147	-0.160911	0.952067	0.543910	-0.839116	0.006799	0.797800	0.519607	0.305815
30723	9.574404	0.151470	-0.673776	1.250485	-0.630341	-0.040695	-0.255301	-0.157287	0.953982	0.553779	-0.832592	0.010927	0.792559	0.531086	0.299664
30724	10.104738	0.022509	-0.230058	1.014067	-0.659032	-0.007033	-0.250075	-0.153729	0.955945	0.561795	-0.827159	0.013947	0.788574	0.540533	0.293215
30725	9.817779	0.346740	0.985807	1.066020	-0.660429	0.017906	-0.244722	-0.150300	0.957873	0.570252	-0.821298	0.016820	0.784171	0.550345	0.286698
30726	9.215751	1.093722	1.563634	1.116696	-0.705543	0.032972	-0.238955	-0.146677	0.959889	0.579091	-0.815027	0.019618	0.779458	0.560551	0.279694
30727	9.729666	2.125023	2.348749	0.987689	-0.747149	0.021625	-0.232961	-0.142656	0.961966	0.586850	-0.809394	0.022089	0.775459	0.569676	0.272275
30728	9.301772	3.048408	3.185267	0.622394	-0.736125	-0.016093	-0.227291	-0.138331	0.963952	0.591673	-0.805825	0.023872	0.773474	0.575770	0.265003
30729	9.469116	2.796261	3.488478	0.057843	-0.694539	-0.051863	-0.222163	-0.133933	0.965767	0.592033	-0.805542	0.024477	0.774688	0.577203	0.258254
30730	9.385053	1.846365	3.843068	-0.310344	-0.604254	-0.094299	-0.217965	-0.129706	0.967299	0.589466	-0.807420	0.024559	0.777831	0.575543	0.252447
30731	9.190125	0.513378	4.032498	-0.575687	-0.522434	-0.126272	-0.214572	-0.125712	0.968584	0.584730	-0.810864	0.024294	0.782336	0.571573	0.247497
30732	9.284324	-0.438525	3.637801	-0.517566	-0.442440	-0.145488	-0.211888	-0.122027	0.969646	0.580408	-0.813960	0.024397	0.786276	0.567960	0.243294
30733	9.294649	-0.974880	3.894219	-0.411995	-0.364910	-0.172606	-0.209953	-0.118577	0.970494	0.576826	-0.816483	0.025029	0.789425	0.565061	0.239822
30734	9.441225	-1.112018	3.540705	-0.150617	-0.318550	-0.184914	-0.208443	-0.115290	0.971216	0.575284	-0.817527	0.026422	0.790948	0.564233	0.236732
30735	9.434803	-0.236304	3.138441	0.187369	-0.279424	-0.181138	-0.207218	-0.112256	0.971833	0.576417	-0.816656	0.028575	0.790445	0.566102	0.233932
30736	9.644645	0.480028	2.458842	0.350324	-0.279480	-0.176290	-0.205973	-0.109257	0.972439	0.578844	-0.814847	0.031055	0.788996	0.569287	0.231080
30737	9.708645	0.863450	1.720294	0.388066	-0.287493	-0.179414	-0.204690	-0.106180	0.973051	0.581562	-0.812806	0.033643	0.787330	0.572776	0.228123
30738	9.914314	1.054688	1.254819	0.372321	-0.331141	-0.166186	-0.202997	-0.102953	0.973752	0.584179	-0.810824	0.036056	0.785829	0.576165	0.224737
30739	9.956928	1.229624	0.948874	0.301687	-0.357013	-0.140515	-0.200957	-0.099777	0.974506	0.586292	-0.809206	0.038049	0.784779	0.578991	0.221114
30740	9.865317	1.483146	0.631186	0.275791	-0.416251	-0.121619	-0.198347	-0.096398	0.975380	0.588249	-0.807700	0.039797	0.783978	0.581660	0.216911
30741	9.950089	2.012458	0.777045	0.185280	-0.454606	-0.114069	-0.195396	-0.092852	0.976319	0.589504	-0.806711	0.041259	0.783776	0.583606	0.212365
30742	9.873006	1.989255	1.292401	-0.072586	-0.457609	-0.119701	-0.192450	-0.089230	0.977242	0.588755	-0.807207	0.042240	0.785068	0.583485	0.207881
30743	9.734398	1.574275	1.585577	-0.205599	-0.451700	-0.111516	-0.189495	-0.085720	0.978133	0.586952	-0.808486	0.042858	0.787133	0.582239	0.203518
30744	9.725665	1.345382	1.909949	-0.266849	-0.417721	-0.089438	-0.186663	-0.082577	0.978947	0.584743	-0.810069	0.043165	0.789451	0.580490	0.199497
30745	9.622690	1.191596	2.192838	-0.312003	-0.375458	-0.063500	-0.184006	-0.079911	0.979671	0.582185	-0.811912	0.043121	0.791961	0.578285	0.195920
30746	9.500016	0.928787	2.335595	-0.265798	-0.340407	-0.048175	-0.181524	-0.077562	0.980323	0.580056	-0.813439	0.043049	0.794094	0.576456	0.192649
30747	9.465438	0.771764	2.277085	-0.159581	-0.315320	-0.025796	-0.179108	-0.075561	0.980924	0.578767	-0.814361	0.042947	0.795581	0.575419	0.189591
30748	9.411471	0.754583	1.997377	-0.039135	-0.290703	-0.009616	-0.176788	-0.073817	0.981477	0.578505	-0.814548	0.042940	0.796290	0.575380	0.186706
30749	9.431067	0.594070	1.401423	0.090458	-0.291508	0.000591	-0.174404	-0.072168	0.982026	0.579252	-0.814011	0.043053	0.796272	0.576349	0.183770
30750	9.608821	0.648970	0.644307	0.233665	-0.326038	0.011150	-0.171683	-0.070382	0.982635	0.581199	-0.812607	0.043341	0.795445	0.578547	0.180417
30751	9.704540	0.847766	0.322763	0.294703	-0.362721	0.026846	-0.168584	-0.068521	0.983303	0.583613	-0.810863	0.043554	0.794339	0.581211	0.176689
30752	9.773509	0.932337	0.207751	0.279902	-0.393035	0.039912	-0.165167	-0.066558	0.984017	0.585977	-0.809153	0.043626	0.793317	0.583817	0.172647
30753	9.866736	0.954039	0.268397	0.205065	-0.419697	0.054921	-0.161457	-0.064571	0.984765	0.587718	-0.807902	0.043385	0.792792	0.585769	0.168391
30754	9.886992	0.905453	0.580390	0.077077	-0.439501	0.063530	-0.157533	-0.062505	0.985534	0.588515	-0.807349	0.042867	0.792990	0.586755	0.163969
30755	9.742422	0.105637	1.119320	-0.118247	-0.445294	0.071035	-0.153521	-0.060491	0.986292	0.587713	-0.807983	0.041926	0.794371	0.586093	0.159594
30756	9.435165	-0.322651	1.687207	-0.136476	-0.451528	0.081974	-0.149383	-0.058504	0.987047	0.586839	-0.808671	0.040883	0.795804	0.585345	0.155135
30757	9.292751	0.185722	2.420117	-0.095243	-0.438453	0.091725	-0.145294	-0.056705	0.987762	0.586241	-0.809159	0.039781	0.797001	0.584847	0.150809
30758	9.466234	0.602945	2.972447	-0.103622	-0.432182	0.087804	-0.141267	-0.054886	0.988449	0.585622	-0.809658	0.038738	0.798179	0.584330	0.146521
30759	9.484665	1.242628	3.430564	-0.052777	-0.416372	0.074467	-0.137446	-0.053080	0.989086	0.585329	-0.809911	0.037874	0.799061	0.584147	0.142389
30760	9.317189	1.404784	3.505723	-0.087639	-0.401602	0.053011	-0.133863	-0.051164	0.989678	0.584775	-0.810342	0.037203	0.800074	0.583719	0.138394
30761	9.389914	1.175997	3.320262	-0.120533	-0.374636	0.030960	-0.130622	-0.049254	0.990208	0.583875	-0.811014	0.036681	0.801266	0.582949	0.134695
30762	9.237932	0.979097	3.060740	-0.100729	-0.372542	0.021897	-0.127448	-0.047262	0.990719	0.583165	-0.811542	0.036305	0.802294	0.582379	0.130991
30763	9.169865	0.924621	2.640585	-0.015677	-0.375778	0.038776	-0.124147	-0.045412	0.991224	0.583112	-0.811601	0.035849	0.802850	0.582445	0.127238
30764	9.215838	1.100715	2.023394	0.118074	-0.374144	0.061276	-0.120729	-0.043732	0.991722	0.584198	-0.810841	0.035363	0.802582	0.583631	0.123440
30765	9.537957	1.208407	1.806243	0.138536	-0.380991	0.079697	-0.117146	-0.042175	0.992219	0.585428	-0.809982	0.034690	0.802216	0.584936	0.119577
30766	9.856133	0.977019	1.534823	0.031681	-0.364162	0.091577	-0.113632	-0.040788	0.992685	0.585851	-0.809714	0.033792	0.802413	0.585406	0.115905
30767	9.463952	0.302830	0.848845	-0.048300	-0.378479	0.104548	-0.109922	-0.039443	0.993157	0.585604	-0.809940	0.032647	0.803110	0.585185	0.112128
30768	9.170659	-0.070720	0.532558	0.013282	-0.449753	0.114861	-0.105581	-0.037742	0.993694	0.585898	-0.809773	0.031495	0.803478	0.585529	0.107609
30769	9.545912	0.083108	0.638674	0.075659	-0.526960	0.129749	-0.100526	-0.035728	0.994293	0.586663	-0.809267	0.030233	0.803568	0.586354	0.102313
30770	9.326345	0.602644	1.147135	0.111884	-0.608108	0.135988	-0.094785	-0.033260	0.994942	0.587758	-0.808518	0.028966	0.803465	0.587530	0.096184
30771	9.390609	0.898968	1.669876	0.099566	-0.646804	0.147710	-0.088659	-0.030674	0.995590	0.588716	-0.807871	0.027536	0.803463	0.588561	0.089683
30772	9.237272	1.211882	2.073079	0.062078	-0.641598	0.158271	-0.082516	-0.028174	0.996191	0.589412	-0.807414	0.025987	0.803607	0.589312	0.083231
30773	9.812351	0.765169	2.129703	-0.007322	-0.626663	0.183592	-0.076337	-0.025986	0.996743	0.589521	-0.807393	0.024100	0.804138	0.589441	0.076953
30774	9.311622	0.844615	2.415958	0.021184	-0.597434	0.177804	-0.070430	-0.023899	0.997230	0.589881	-0.807182	0.022316	0.804413	0.589819	0.070947
30775	9.279934	0.084961	2.254807	0.136572	-0.630326	0.202110	-0.064107	-0.021831	0.997704	0.591137	-0.806315	0.020340	0.804020	0.591084	0.064596
30776	9.216549	0.508194	2.299926	0.362763	-0.619833	0.222851	-0.057757	-0.019956	0.998131	0.594237	-0.804082	0.018309	0.802214	0.594184	0.058300
30777	9.647166	0.760532	2.476113	0.503027	-0.621786	0.229284	-0.051350	-0.018111	0.998516	0.598411	-0.801025	0.016245	0.799542	0.598357	0.051971
30778	9.648736	1.301789	2.954190	0.724174	-0.629628	0.241721	-0.044826	-0.016263	0.998862	0.604345	-0.796597	0.014151	0.795461	0.604292	0.045537
30779	9.859282	2.351684	3.049211	0.877639	-0.652393	0.272027	-0.037939	-0.014479	0.999175	0.611437	-0.791206	0.011751	0.790383	0.611378	0.038870
30780	9.937096	2.685148	3.327980	0.737009	-0.604429	0.304733	-0.031256	-0.013177	0.999425	0.617388	-0.786608	0.008937	0.786037	0.617312	0.032722
30781	9.824065	2.509216	3.790538	0.644926	-0.503210	0.328187	-0.025215	-0.012654	0.999602	0.622557	-0.782553	0.005798	0.782168	0.622455	0.027610
30782	9.944536	2.561766	3.575222	0.602710	-0.405539	0.356866	-0.019779	-0.012913	0.999721	0.627373	-0.778715	0.002354	0.778468	0.627244	0.023504
30783	10.472136	2.479919	2.939746	0.557422	-0.315872	0.362431	-0.014982	-0.013761	0.999793	0.631784	-0.775144	-0.001201	0.775000	0.631635	0.020307
30784	10.750474	2.319698	2.601402	0.443042	-0.193733	0.357128	-0.011184	-0.015305	0.999820	0.635287	-0.772262	-0.004716	0.772195	0.635120	0.018360
30785	10.647672	1.470849	1.969443	0.256840	-0.078568	0.346269	-0.008313	-0.017496	0.999812	0.637319	-0.770556	-0.008185	0.770555	0.637132	0.017556
30786	10.713777	0.719486	1.662374	0.177726	-0.017546	0.327454	-0.006054	-0.019914	0.999783	0.638739	-0.769338	-0.011456	0.769399	0.638532	0.017377
30787	11.254818	0.211629	1.911085	0.102807	0.069684	0.302402	-0.004596	-0.022704	0.999732	0.639563	-0.768601	-0.014515	0.768725	0.639325	0.018053
30788	11.538624	-0.227099	2.461599	0.055976	0.190307	0.287804	-0.004184	-0.026144	0.999649	0.640029	-0.768154	-0.017410	0.768340	0.639731	0.019947
30789	11.809615	0.164194	3.736327	0.168846	0.319257	0.241855	-0.005024	-0.030063	0.999535	0.641353	-0.766989	-0.019845	0.767229	0.640956	0.023135
30790	11.680240	1.474532	5.284017	0.302733	0.446791	0.175977	-0.007288	-0.034300	0.999385	0.643692	-0.764980	-0.021561	0.765250	0.643139	0.027654
30791	11.504457	2.076682	6.953680	0.009505	0.646424	0.080641	-0.011654	-0.039093	0.999168	0.643790	-0.764874	-0.022417	0.765113	0.642993	0.034081
30792	10.971171	1.959096	7.917487	-0.417896	0.905070	0.015407	-0.018470	-0.045047	0.998814	0.640579	-0.767555	-0.022771	0.767670	0.639399	0.043033
30793	10.849883	1.260976	7.749311	-0.817924	1.160236	-0.025393	-0.027507	-0.052250	0.998255	0.634292	-0.772752	-0.022969	0.772604	0.632553	0.054397
30794	11.017880	0.231867	7.252865	-1.105050	1.434064	-0.027282	-0.038796	-0.061092	0.997378	0.625670	-0.779736	-0.023424	0.779123	0.623120	0.068474
30795	11.224913	-0.424045	6.327565	-1.197319	1.694749	-0.029689	-0.052180	-0.071352	0.996085	0.616307	-0.787137	-0.024099	0.785775	0.612637	0.085048
30796	11.507772	-0.668370	5.107765	-1.028652	1.876665	-0.061964	-0.067358	-0.082336	0.994326	0.608091	-0.793489	-0.024512	0.791005	0.602990	0.103515
30797	11.547974	-0.629005	4.095644	-1.118230	2.116893	-0.076380	-0.084558	-0.094401	0.991937	0.599180	-0.800221	-0.025078	0.796136	0.592228	0.124228
30798	10.567979	-1.038506	2.295301	-1.255040	2.022112	-0.128650	-0.101490	-0.105292	0.989249	0.588945	-0.807769	-0.025555	0.801775	0.580020	0.143991
30799	11.056286	-1.564934	1.167030	-1.142819	1.843019	-0.145394	-0.117100	-0.114723	0.986472	0.579620	-0.814475	-0.025916	0.806429	0.568744	0.161871
30800	11.551589	-1.243307	-0.951825	-0.375904	1.700820	-0.171956	-0.131825	-0.123023	0.983609	0.576281	-0.816871	-0.024934	0.806549	0.563549	0.178580
30801	12.263130	0.339427	-1.100445	0.235104	1.541555	-0.175779	-0.145187	-0.130300	0.980787	0.577955	-0.815750	-0.022819	0.803050	0.563537	0.193744
30802	12.410473	0.663578	-1.503582	0.259410	1.531736	-0.195816	-0.158602	-0.137397	0.977736	0.579660	-0.814602	-0.020444	0.799274	0.563512	0.208841
30803	12.722110	0.595692	-1.174340	0.006213	1.580435	-0.186264	-0.172233	-0.144794	0.974356	0.579428	-0.814810	-0.018661	0.796617	0.561355	0.224235
30804	12.486778	-0.675039	-1.953233	-0.368977	1.630379	-0.164221	-0.186166	-0.152610	0.970594	0.576147	-0.817148	-0.017974	0.795862	0.555859	0.240051
30805	11.021976	-0.949034	-2.349620	-0.272467	1.596410	-0.201826	-0.199961	-0.159820	0.966681	0.573618	-0.818952	-0.016741	0.794341	0.551159	0.255434
30806	10.424351	-0.800186	-2.157043	-0.225986	1.489589	-0.191477	-0.212870	-0.166467	0.962795	0.571405	-0.820521	-0.015533	0.792580	0.546840	0.269785
30807	10.181925	-0.912638	-2.212383	-0.184451	1.479041	-0.150108	-0.225375	-0.173319	0.958732	0.569645	-0.821760	-0.014648	0.790387	0.542835	0.283934
30808	10.148982	-1.380073	-1.972932	-0.183669	1.490783	-0.088380	-0.237627	-0.180685	0.954404	0.567988	-0.822911	-0.014374	0.787987	0.538674	0.298172
30809	9.833519	-1.527235	-1.910945	-0.014233	1.520028	-0.049079	-0.249798	-0.188473	0.949778	0.567787	-0.823057	-0.013995	0.784359	0.535775	0.312610
30810	9.406925	-1.090575	-1.560889	0.192333	1.499425	-0.061300	-0.261845	-0.196019	0.944994	0.569149	-0.822134	-0.012831	0.779427	0.534483	0.326836
30811	8.923279	-0.327288	-0.987886	0.233421	1.467814	-0.093862	-0.273724	-0.203112	0.940117	0.570742	-0.821053	-0.011211	0.774163	0.533496	0.340667
30812	8.602734	0.176825	-0.645680	0.167953	1.415234	-0.158768	-0.285518	-0.209371	0.935224	0.571629	-0.820461	-0.009164	0.769233	0.531985	0.353939
30813	8.004736	0.516548	-0.322707	-0.003740	1.361983	-0.225156	-0.297197	-0.214775	0.930347	0.570977	-0.820935	-0.007120	0.765284	0.529090	0.366611
30814	7.933339	0.724609	0.029478	-0.180359	1.289942	-0.291432	-0.308667	-0.219196	0.925569	0.568772	-0.822480	-0.005103	0.762380	0.524862	0.378545
30815	8.161442	0.814381	0.477978	-0.353285	1.218756	-0.339617	-0.319816	-0.222788	0.920914	0.565048	-0.825051	-0.003366	0.760552	0.519284	0.389751
30816	8.267052	0.687366	0.973937	-0.507783	1.176820	-0.365131	-0.330764	-0.225857	0.916288	0.560076	-0.828438	-0.002025	0.759546	0.512521	0.400515
30817	8.038793	0.065855	1.309283	-0.666051	1.146262	-0.411722	-0.341706	-0.228293	0.911657	0.553668	-0.832737	-0.001005	0.759400	0.504412	0.410950
30818	7.666450	-0.314285	1.589942	-0.752637	1.094263	-0.438595	-0.352374	-0.230120	0.907126	0.546520	-0.837446	-0.000147	0.759703	0.495711	0.420859
30819	6.853302	-0.729599	1.890745	-0.914842	1.005821	-0.406053	-0.362168	-0.231672	0.902863	0.538148	-0.842850	-0.000404	0.761072	0.485728	0.429928
30820	6.661917	-1.858597	1.484149	-1.056089	0.838154	-0.372366	-0.370486	-0.232569	0.899251	0.528830	-0.848726	-0.001627	0.763596	0.474948	0.437430
30821	6.501210	-2.964096	1.039729	-0.965366	0.630600	-0.285501	-0.376753	-0.233132	0.896497	0.520415	-0.853907	-0.003353	0.766306	0.465288	0.443037
30822	6.605950	-3.740849	0.617470	-0.717709	0.406019	-0.137111	-0.380519	-0.233857	0.894716	0.514479	-0.857486	-0.005320	0.768451	0.458288	0.446604
30823	6.538961	-4.192170	0.561098	-0.432773	0.205453	0.036578	-0.381857	-0.235139	0.893809	0.511327	-0.859352	-0.007623	0.769889	0.454118	0.448383
30824	6.456461	-4.441256	0.551919	-0.080211	0.034944	0.154445	-0.381278	-0.236650	0.893657	0.511376	-0.859306	-0.009376	0.770144	0.453420	0.448652
30825	6.752886	-3.862842	1.065378	0.356641	-0.142331	0.235124	-0.378922	-0.238051	0.894287	0.515051	-0.857102	-0.009918	0.768857	0.456846	0.447383
30826	7.715008	-2.423280	2.011118	0.664046	-0.274215	0.243188	-0.375499	-0.238897	0.895505	0.521127	-0.853430	-0.009156	0.766438	0.463233	0.444958
30827	8.568493	-1.003710	2.873927	0.725048	-0.224888	0.159068	-0.372890	-0.239232	0.896505	0.527305	-0.849644	-0.007401	0.763480	0.469972	0.442972
30828	9.429041	-0.238588	3.550015	0.560811	-0.048714	-0.007101	-0.372498	-0.238969	0.896738	0.531609	-0.846976	-0.004882	0.760682	0.474895	0.442535
30829	9.915619	-0.564113	3.588755	0.744197	0.047151	-0.187318	-0.373801	-0.237639	0.896549	0.536592	-0.843842	0.000054	0.756533	0.481101	0.442944
30830	8.915886	1.192187	4.487946	1.908523	-0.074927	-0.272885	-0.374659	-0.235008	0.896884	0.549972	-0.835112	0.010920	0.746432	0.497353	0.442130
30831	8.093819	4.162553	5.622972	2.454044	-0.319391	-0.281972	-0.373814	-0.231075	0.898258	0.567118	-0.823280	0.024222	0.733921	0.518473	0.438801
30832	8.873992	5.366856	6.169310	1.834839	-0.416968	-0.250121	-0.372144	-0.226853	0.900026	0.579638	-0.814145	0.034463	0.724934	0.534515	0.434471
30833	9.799953	5.599077	6.771796	0.807727	-0.275000	-0.194204	-0.371229	-0.223821	0.901162	0.584793	-0.810212	0.039671	0.721253	0.541720	0.431663
30834	9.798633	3.796437	6.860903	-0.375404	-0.081342	-0.121828	-0.371287	-0.222410	0.901488	0.581717	-0.812449	0.039143	0.723707	0.538944	0.431031
30835	9.413917	1.101516	6.482339	-0.979817	0.020482	-0.078837	-0.371835	-0.221903	0.901387	0.574341	-0.817842	0.035588	0.729295	0.530937	0.431550
30836	9.259747	-0.436022	5.582964	-1.041527	-0.008833	-0.041295	-0.371943	-0.221535	0.901433	0.566652	-0.823357	0.031461	0.735231	0.522500	0.431775
30837	9.061267	-0.174258	4.685359	-0.892423	-0.048228	-0.017652	-0.371630	-0.221166	0.901652	0.560038	-0.828003	0.027728	0.740438	0.515264	0.431572
30838	8.073491	0.530598	3.542043	-0.897431	-0.127390	-0.002001	-0.370635	-0.220517	0.902221	0.553445	-0.832544	0.023870	0.745875	0.508176	0.430613
30839	7.253819	0.708501	2.359566	-0.906515	-0.373061	0.001618	-0.367776	-0.218675	0.903838	0.546697	-0.837094	0.019927	0.752239	0.501454	0.427411
30840	7.893341	0.479532	1.535050	-0.880104	-0.618687	-0.010739	-0.363097	-0.215520	0.906483	0.540096	-0.841446	0.016281	0.759248	0.495500	0.421928
30841	8.170801	0.384646	0.412380	-0.926924	-0.812956	-0.093070	-0.357336	-0.210759	0.909885	0.532723	-0.846187	0.013210	0.767149	0.489437	0.414649
30842	8.459670	0.151315	-0.342365	-1.048608	-0.951175	-0.175821	-0.350860	-0.204661	0.913790	0.524113	-0.851584	0.010510	0.776017	0.482617	0.406052
30843	9.245360	0.206937	0.541766	-0.918094	-1.057389	-0.268682	-0.343952	-0.197323	0.918020	0.516052	-0.856507	0.009247	0.784466	0.476927	0.396426
30844	10.860646	0.512266	2.170833	-1.021118	-1.094787	-0.375863	-0.337164	-0.188922	0.922295	0.506839	-0.861997	0.008715	0.793369	0.470394	0.386388
30845	11.531667	-1.062484	3.539417	-1.325415	-1.061710	-0.473198	-0.331002	-0.179913	0.926320	0.494710	-0.869021	0.007991	0.803554	0.460905	0.376652
30846	11.061934	-2.212327	5.056789	-1.328452	-1.011403	-0.481820	-0.325107	-0.171110	0.930068	0.482519	-0.875853	0.007530	0.813315	0.451223	0.367309
30847	10.648066	-2.950538	6.071873	-1.414666	-0.917598	-0.410150	-0.319498	-0.163444	0.933385	0.469658	-0.882827	0.006173	0.823009	0.440344	0.358824
30848	10.527617	-4.909933	6.614253	-1.748910	-0.712503	-0.263459	-0.314749	-0.158039	0.935926	0.454443	-0.890773	0.002413	0.833316	0.426084	0.352189
30849	9.935803	-7.445144	6.341695	-1.609679	-0.501163	-0.069769	-0.310809	-0.155347	0.937691	0.440776	-0.897614	-0.002607	0.842089	0.412501	0.347460
30850	9.397314	-6.819415	5.932996	-0.400144	-0.422616	0.025679	-0.307078	-0.153872	0.939163	0.437528	-0.899195	-0.004265	0.845146	0.409600	0.343446
30851	9.611425	-4.661868	5.213481	0.440364	-0.437701	0.128907	-0.302761	-0.153260	0.940663	0.441677	-0.897165	-0.004016	0.844546	0.414253	0.339318
30852	9.684108	-2.345568	3.654936	1.347244	-0.513837	0.160761	-0.297669	-0.152578	0.942398	0.453506	-0.891253	-0.001051	0.840075	0.427070	0.334493
30853	9.169414	-0.025008	2.012758	1.848059	-0.631474	0.142180	-0.291675	-0.151120	0.944504	0.469423	-0.882966	0.003690	0.833407	0.444448	0.328478
30854	9.239337	2.248810	0.780914	2.158984	-0.728101	0.066086	-0.285275	-0.148433	0.946882	0.487511	-0.873060	0.010016	0.825198	0.464473	0.321425
30855	9.309129	5.220529	0.709327	2.201859	-0.744057	-0.020750	-0.279216	-0.144751	0.949255	0.505559	-0.862621	0.017166	0.816363	0.484697	0.314038
30856	9.405749	7.452987	1.718967	1.469081	-0.744256	-0.122949	-0.273735	-0.140067	0.951552	0.517200	-0.855560	0.022847	0.810909	0.498396	0.306639
30857	9.577598	6.424223	2.049964	0.259750	-0.693614	-0.229454	-0.269241	-0.134666	0.953611	0.518716	-0.854558	0.025776	0.811445	0.501594	0.299935
30858	9.484438	3.604365	2.563187	-0.513599	-0.631514	-0.281928	-0.265497	-0.129112	0.955427	0.513860	-0.857451	0.026922	0.815757	0.498104	0.293996
30859	9.754712	0.987121	3.120229	-1.024646	-0.614325	-0.282575	-0.261848	-0.123675	0.957152	0.504754	-0.862853	0.026595	0.822593	0.490090	0.288362
30860	9.432398	-0.981861	3.243417	-1.192978	-0.588334	-0.248481	-0.258166	-0.118680	0.958783	0.494340	-0.868893	0.025555	0.830047	0.480563	0.282987
30861	9.295839	-3.027832	2.996184	-1.277386	-0.607125	-0.175260	-0.253904	-0.114296	0.960453	0.483271	-0.875152	0.023612	0.837843	0.470154	0.277441
30862	9.011216	-3.983524	2.519840	-0.654559	-0.652717	-0.125282	-0.248963	-0.110163	0.962227	0.477530	-0.878315	0.022998	0.842605	0.465218	0.271274
30863	9.453369	-2.036264	3.279284	-0.029640	-0.709653	-0.119806	-0.243494	-0.105838	0.964110	0.477017	-0.878566	0.024027	0.844491	0.465747	0.264412
30864	9.785405	-1.732162	3.100401	-0.081877	-0.670337	-0.104484	-0.238269	-0.101824	0.965847	0.476122	-0.879030	0.024785	0.846485	0.465766	0.257926
30865	9.681943	-1.324921	2.555423	0.197686	-0.651938	-0.104901	-0.233193	-0.097888	0.967491	0.477580	-0.878196	0.026257	0.847076	0.468177	0.251539
30866	9.562961	0.863921	2.621485	0.685466	-0.648302	-0.134150	-0.228297	-0.093685	0.969074	0.483106	-0.875075	0.029214	0.845275	0.474834	0.245037
30867	9.923699	2.532039	3.385023	0.487689	-0.587944	-0.170607	-0.224102	-0.089418	0.970455	0.486871	-0.872888	0.032002	0.844236	0.479658	0.239151
30868	9.689789	1.182538	2.665903	0.012685	-0.504356	-0.203177	-0.220776	-0.085250	0.971592	0.486567	-0.872983	0.033965	0.845287	0.480243	0.234214
30869	9.548753	1.562661	2.759680	0.286869	-0.513688	-0.223295	-0.217468	-0.080858	0.972713	0.488533	-0.871771	0.036754	0.845011	0.483195	0.229084
30870	9.716335	2.092327	2.707723	0.086276	-0.461977	-0.231477	-0.214640	-0.076629	0.973683	0.488808	-0.871512	0.039165	0.845574	0.484351	0.224518
30871	9.664382	1.330202	1.989111	-0.080590	-0.433140	-0.219771	-0.211992	-0.072646	0.974568	0.487688	-0.872051	0.041079	0.846888	0.483994	0.220296
30872	9.675923	1.026048	1.509896	-0.111609	-0.429255	-0.187164	-0.209211	-0.068958	0.975436	0.486402	-0.872695	0.042628	0.848318	0.483372	0.216118
30873	9.653560	0.537358	0.999457	-0.178781	-0.426633	-0.163841	-0.206327	-0.065498	0.976288	0.484574	-0.873653	0.043797	0.850069	0.482120	0.211997
30874	9.650212	0.219376	-0.005630	-0.069051	-0.467625	-0.123045	-0.202890	-0.062188	0.977225	0.483795	-0.874033	0.044824	0.851339	0.481871	0.207418
30875	9.972315	0.412480	-0.699302	0.076361	-0.516562	-0.092687	-0.198883	-0.058916	0.978251	0.484289	-0.873706	0.045839	0.852003	0.482873	0.202298
30876	10.055038	0.750833	-0.905834	0.126804	-0.552129	-0.063838	-0.194429	-0.055703	0.979334	0.485315	-0.873092	0.046690	0.852448	0.484363	0.196787
30877	9.870430	0.616529	-0.828313	0.123563	-0.588393	-0.052492	-0.189610	-0.052421	0.980459	0.486297	-0.872507	0.047396	0.852973	0.485781	0.190928
30878	9.922979	0.826587	-0.460359	0.220006	-0.620195	-0.033394	-0.184420	-0.049118	0.981619	0.488196	-0.871407	0.048116	0.853026	0.488096	0.184684
30879	9.716979	0.937146	0.217190	0.178009	-0.617692	-0.023097	-0.179207	-0.045926	0.982739	0.489702	-0.870533	0.048617	0.853274	0.489962	0.178496
30880	9.719809	0.826792	0.929789	0.169474	-0.601699	-0.016574	-0.174089	-0.042832	0.983798	0.491215	-0.869656	0.049061	0.853464	0.491797	0.172437
30881	9.845486	1.069856	1.585528	0.197816	-0.577796	-0.004985	-0.169126	-0.039970	0.984784	0.492923	-0.868669	0.049397	0.853477	0.493777	0.166617
30882	9.724870	1.165616	1.924635	0.174143	-0.542354	0.006184	-0.164401	-0.037341	0.985686	0.494520	-0.867750	0.049607	0.853477	0.495597	0.161125
30883	9.629891	1.244389	2.228011	0.183288	-0.515651	0.009030	-0.159899	-0.034889	0.986517	0.496127	-0.866823	0.049759	0.853399	0.497394	0.155914
30884	9.634049	1.093112	2.481492	0.126646	-0.472425	0.001779	-0.155794	-0.032550	0.987253	0.497312	-0.866134	0.049922	0.853469	0.498750	0.151126
30885	9.572029	1.027607	2.664997	0.109939	-0.445041	-0.015821	-0.152018	-0.030219	0.987916	0.498253	-0.865577	0.050193	0.853601	0.499863	0.146640
30886	9.134416	0.440459	2.641998	0.046475	-0.411813	-0.027781	-0.148578	-0.027918	0.988507	0.498707	-0.865297	0.050520	0.853941	0.500481	0.142487
30887	9.144878	0.386944	2.392974	0.128712	-0.391347	-0.020168	-0.145280	-0.025811	0.989054	0.499804	-0.864645	0.050851	0.853868	0.501721	0.138516
30888	9.146797	0.793140	2.176695	0.215778	-0.368219	0.000146	-0.142076	-0.023961	0.989566	0.501737	-0.863508	0.051127	0.853273	0.503766	0.134706
30889	9.413205	0.924415	1.685681	0.278359	-0.402107	0.007860	-0.138550	-0.022027	0.990110	0.504149	-0.862088	0.051369	0.852430	0.506280	0.130547
30890	9.579234	1.184354	1.139985	0.319249	-0.399528	0.022743	-0.134972	-0.020194	0.990644	0.506989	-0.860411	0.051536	0.851319	0.509201	0.126369
30891	9.717834	1.146946	0.976695	0.229082	-0.413511	0.032821	-0.131229	-0.018395	0.991181	0.509009	-0.859223	0.051445	0.850699	0.511271	0.122118
30892	9.924620	0.843237	0.818499	0.149561	-0.428937	0.038249	-0.127326	-0.016524	0.991723	0.510424	-0.858396	0.051230	0.850445	0.512722	0.117730
30893	9.796632	0.657718	0.938217	0.058500	-0.420981	0.054536	-0.123409	-0.014860	0.992245	0.511016	-0.858074	0.050706	0.850666	0.513311	0.113488
30894	9.628869	0.466809	1.071574	-0.007119	-0.406169	0.066038	-0.119556	-0.013337	0.992738	0.511131	-0.858046	0.050028	0.851147	0.513400	0.109401
30895	9.739653	0.678966	1.338489	-0.007886	-0.407882	0.087207	-0.115580	-0.012019	0.993225	0.511192	-0.858063	0.049103	0.851659	0.513405	0.105319
30896	9.588800	0.736272	1.661676	-0.047451	-0.401610	0.089932	-0.111639	-0.010724	0.993691	0.510984	-0.858241	0.048146	0.852310	0.513135	0.101293
30897	9.623804	0.569452	1.941897	-0.076541	-0.398417	0.072311	-0.107815	-0.009330	0.994127	0.510437	-0.858613	0.047300	0.853130	0.512539	0.097333
30898	9.610941	0.160015	1.812042	-0.137434	-0.374495	0.046107	-0.104325	-0.007804	0.994513	0.509403	-0.859261	0.046694	0.854181	0.511479	0.093617
30899	9.402783	-0.242628	1.413308	-0.047361	-0.394100	0.034077	-0.100726	-0.006110	0.994895	0.509058	-0.859488	0.046260	0.854818	0.511119	0.089683
30900	9.374970	-0.137137	0.934012	0.076557	-0.407585	0.043974	-0.096961	-0.004402	0.995278	0.509839	-0.859046	0.045870	0.854788	0.511879	0.085538
30901	9.374958	0.628876	0.752919	0.220134	-0.443114	0.075715	-0.092730	-0.002807	0.995687	0.511817	-0.857902	0.045248	0.854075	0.513805	0.080990
30902	9.350535	1.200721	0.377546	0.203065	-0.511037	0.090772	-0.087845	-0.000954	0.996134	0.513712	-0.856809	0.044482	0.853454	0.515633	0.075756
30903	9.344265	1.202123	0.344615	0.131591	-0.591036	0.089400	-0.082283	0.001304	0.996608	0.514936	-0.856117	0.043635	0.853271	0.516780	0.069773
30904	9.375583	1.046548	0.623720	0.034276	-0.656660	0.087806	-0.076170	0.003952	0.997087	0.515383	-0.855892	0.042764	0.853568	0.517139	0.063156
30905	9.341703	0.764882	1.068005	-0.002943	-0.702990	0.096219	-0.069614	0.006737	0.997551	0.515453	-0.855900	0.041751	0.854086	0.517097	0.056110
30906	9.102007	0.884979	1.640341	0.040038	-0.735329	0.118756	-0.062664	0.009531	0.997989	0.515959	-0.855652	0.040569	0.854318	0.517464	0.048701
30907	9.260700	1.275302	1.968291	0.130911	-0.745775	0.151468	-0.055453	0.012071	0.998388	0.517191	-0.854978	0.039063	0.854072	0.518523	0.041168
30908	9.250740	1.451245	2.431529	0.144259	-0.718908	0.172108	-0.048369	0.014340	0.998727	0.518595	-0.854203	0.037380	0.853651	0.519742	0.033880
30909	9.351543	1.415648	2.720978	0.166724	-0.675285	0.174814	-0.041640	0.016334	0.998999	0.520119	-0.853350	0.035632	0.853078	0.521082	0.027038
30910	9.495377	0.684158	2.688018	0.176994	-0.659578	0.160881	-0.035126	0.018410	0.999213	0.521767	-0.852408	0.034047	0.852365	0.522552	0.020336
30911	9.013167	0.290735	2.578589	0.352294	-0.659548	0.144226	-0.028697	0.020611	0.999376	0.524835	-0.850579	0.032613	0.850720	0.525443	0.013592
30912	9.227087	0.611495	2.413976	0.509334	-0.688214	0.141265	-0.022057	0.023043	0.999491	0.529262	-0.847884	0.031228	0.848172	0.529681	0.006507
30913	9.038777	0.982952	2.777713	0.628102	-0.729913	0.154035	-0.015001	0.025598	0.999560	0.534629	-0.844567	0.029652	0.844954	0.534838	-0.001017
30914	9.252090	1.038524	3.627898	0.683724	-0.763966	0.154480	-0.007683	0.028400	0.999567	0.540465	-0.840899	0.028046	0.841331	0.540446	-0.008889
30915	9.413312	1.025889	4.263491	0.676748	-0.703788	0.163341	-0.000828	0.030827	0.999524	0.546174	-0.837260	0.026275	0.837672	0.545936	-0.016144
30916	9.262868	1.279655	4.868982	0.700777	-0.596145	0.170997	0.005135	0.032659	0.999453	0.552063	-0.833445	0.024398	0.833786	0.551636	-0.022310
30917	9.178320	1.745362	4.920563	0.705067	-0.477674	0.159041	0.010050	0.033960	0.999373	0.557936	-0.829577	0.022580	0.829823	0.557359	-0.027285
30918	9.862523	2.338236	4.458219	0.729290	-0.387229	0.143294	0.014096	0.034923	0.999291	0.563973	-0.825529	0.020895	0.825673	0.563278	-0.031333
30919	10.757684	2.966880	3.783358	0.732423	-0.301318	0.131357	0.017382	0.035524	0.999218	0.570003	-0.821416	0.019287	0.821459	0.569222	-0.034527
30920	12.039165	3.863567	2.853361	0.800827	-0.252398	0.134294	0.020251	0.035844	0.999152	0.576547	-0.816874	0.017619	0.816813	0.575701	-0.037208
30921	13.886497	3.982777	2.480792	0.639349	-0.093637	0.137392	0.021870	0.035243	0.999139	0.581747	-0.813213	0.015951	0.813076	0.580897	-0.038287
30922	14.716546	2.139244	2.751200	0.264156	0.239570	0.153008	0.020842	0.032585	0.999252	0.583875	-0.811718	0.014292	0.811576	0.583140	-0.035944
30923	15.085235	0.721706	4.275455	0.127502	0.627998	0.148223	0.016674	0.027694	0.999477	0.584900	-0.811006	0.012715	0.810934	0.584382	-0.029721
30924	14.114121	0.539175	5.470918	0.056382	0.934263	0.100384	0.009708	0.021390	0.999724	0.585346	-0.810700	0.011661	0.810726	0.585071	-0.020391
30925	12.357662	0.225357	6.549542	-0.293958	1.117312	0.036174	0.000911	0.014548	0.999894	0.582977	-0.812410	0.011290	0.812488	0.582905	-0.009221
30926	11.132715	-0.117933	7.148950	-0.458018	1.225352	0.013319	-0.008969	0.007273	0.999933	0.579222	-0.815094	0.011123	0.815121	0.579283	0.003098
30927	10.485219	-0.140798	7.015231	-0.466999	1.339300	0.044158	-0.019588	-0.000844	0.999808	0.575436	-0.817779	0.010583	0.817613	0.575532	0.016504
30928	10.817679	0.342556	6.031155	-0.318247	1.555673	0.062578	-0.031954	-0.010357	0.999436	0.572782	-0.819649	0.009819	0.819085	0.572773	0.032123
30929	10.549871	0.637908	5.439010	-0.407659	1.783974	0.055409	-0.046205	-0.021021	0.998711	0.569483	-0.821953	0.009046	0.820704	0.569167	0.049950
30930	11.082799	-0.336868	4.159999	-0.830678	1.916621	0.040995	-0.061742	-0.032276	0.997570	0.562583	-0.826701	0.008072	0.824432	0.561715	0.069200
30931	11.380453	-1.183076	2.651034	-0.844208	1.971421	0.005851	-0.077937	-0.043347	0.996015	0.555636	-0.831393	0.007295	0.827764	0.553991	0.088882
30932	10.201264	-1.620850	1.387138	-0.598252	1.978103	-0.069240	-0.094721	-0.053754	0.994052	0.550514	-0.834794	0.007316	0.829435	0.547932	0.108665
30933	11.852231	-1.096056	0.570644	-0.259403	1.823908	-0.121116	-0.110453	-0.062732	0.991900	0.548263	-0.836266	0.008163	0.828980	0.544724	0.126761
30934	11.910256	-0.081275	-0.005124	-0.472391	1.872589	-0.134494	-0.126728	-0.071839	0.989333	0.544075	-0.838990	0.008771	0.829411	0.539383	0.145409
30935	12.479495	-0.731738	-2.008528	-0.796683	1.701034	-0.088057	-0.141272	-0.080232	0.986714	0.537368	-0.843306	0.008366	0.831431	0.531411	0.162250
30936	10.476350	-1.497595	-2.359223	-0.224513	1.670295	-0.036206	-0.155355	-0.088848	0.983855	0.535350	-0.844590	0.008263	0.830220	0.527991	0.178776
30937	11.800885	-1.127167	-2.440539	0.208971	1.462727	0.014574	-0.167337	-0.096724	0.981144	0.537133	-0.843455	0.008460	0.826732	0.528420	0.193095
30938	12.769868	-0.343304	-3.338903	0.448436	1.513480	0.041603	-0.179594	-0.105153	0.978105	0.540818	-0.841092	0.008879	0.821743	0.530572	0.207923
30939	12.597040	0.098180	-3.369930	0.423937	1.588698	0.047863	-0.192290	-0.114025	0.974691	0.544409	-0.838769	0.009279	0.816482	0.532415	0.223363
30940	11.820511	0.478025	-3.091297	0.440975	1.658857	0.019704	-0.205676	-0.123086	0.970849	0.547984	-0.836428	0.010047	0.810809	0.534076	0.239483
30941	10.738337	0.896513	-2.733941	0.401493	1.684005	-0.020717	-0.219338	-0.131944	0.966686	0.551214	-0.834289	0.011196	0.805018	0.535306	0.255720
30942	10.180650	0.848516	-2.494746	0.315279	1.673802	-0.022449	-0.232877	-0.140757	0.962266	0.553674	-0.832644	0.012198	0.799508	0.535623	0.271837
30943	9.716497	0.509238	-2.232180	0.240438	1.653006	-0.010138	-0.246048	-0.149549	0.957651	0.555597	-0.831351	0.012923	0.794212	0.535248	0.287641
30944	9.518176	0.314394	-2.274597	0.360925	1.585446	-0.028400	-0.258727	-0.157831	0.952969	0.558393	-0.829454	0.014227	0.788199	0.535812	0.302734
30945	9.185411	0.379756	-2.077866	0.411074	1.546704	-0.072847	-0.271219	-0.165548	0.948174	0.561459	-0.827347	0.016150	0.781795	0.536741	0.317341
30946	8.708504	0.805253	-1.882151	0.485907	1.488362	-0.146222	-0.283593	-0.172360	0.943328	0.564875	-0.824956	0.019087	0.774914	0.538275	0.331313
30947	8.340650	1.366501	-1.375211	0.308207	1.420337	-0.226637	-0.295783	-0.178163	0.938494	0.566631	-0.823672	0.022219	0.769052	0.538352	0.344581
30948	8.256852	1.402417	-1.141069	0.003274	1.349293	-0.326133	-0.307934	-0.182738	0.933694	0.565740	-0.824196	0.025274	0.764928	0.536011	0.357180
30949	8.281510	1.364939	-0.608582	-0.343938	1.302534	-0.386754	-0.320007	-0.186519	0.928874	0.561933	-0.826723	0.027585	0.762776	0.530792	0.369368
30950	8.422413	0.669541	-0.010335	-0.727893	1.264845	-0.393935	-0.331800	-0.189925	0.924033	0.555193	-0.831233	0.028506	0.762673	0.522475	0.381248
30951	8.508858	-0.702857	0.445866	-1.068696	1.254851	-0.381801	-0.343427	-0.193252	0.919082	0.545780	-0.837466	0.027847	0.764318	0.511180	0.393081
30952	8.011092	-2.061280	0.967454	-1.257269	1.282247	-0.363760	-0.355147	-0.196677	0.913887	0.534996	-0.844449	0.026172	0.766583	0.498221	0.405125
30953	7.416442	-2.887749	1.311782	-1.250387	1.208535	-0.333440	-0.366136	-0.199821	0.908854	0.524231	-0.851237	0.024036	0.768847	0.485250	0.416421
30954	6.872350	-3.263257	1.281911	-0.983683	1.046264	-0.267641	-0.375516	-0.202577	0.904406	0.515776	-0.856433	0.022323	0.770041	0.474854	0.426089
30955	6.704516	-3.269494	1.239016	-0.553612	0.824460	-0.171398	-0.382689	-0.205024	0.900841	0.510902	-0.859371	0.021452	0.769758	0.468451	0.433619
30956	6.567155	-2.895018	1.226312	-0.067350	0.598607	-0.059888	-0.387536	-0.207331	0.898237	0.510247	-0.859754	0.021693	0.767766	0.466730	0.438975
30957	6.796337	-2.259522	1.207295	0.373912	0.385640	0.028233	-0.390291	-0.209407	0.896561	0.513260	-0.857924	0.023050	0.764354	0.469165	0.442320
30958	7.365318	-1.455335	1.090691	0.703916	0.258805	0.051317	-0.391937	-0.211092	0.895447	0.518909	-0.854443	0.025700	0.759684	0.474728	0.444425
30959	7.796789	-0.658561	1.246050	0.974618	0.218940	0.003819	-0.393519	-0.212201	0.894491	0.526337	-0.849748	0.029968	0.753732	0.482597	0.446081
30960	7.785791	0.254686	1.199080	1.221368	0.166015	-0.092229	-0.395188	-0.212253	0.893742	0.535222	-0.843934	0.036236	0.746568	0.492671	0.447115
30961	7.757798	1.128291	1.177279	1.363848	0.076830	-0.192020	-0.396741	-0.211048	0.893339	0.544630	-0.837521	0.044014	0.738901	0.504002	0.447222
30962	7.689321	1.858086	1.184150	1.242741	-0.001700	-0.236056	-0.397951	-0.209091	0.893261	0.552932	-0.831623	0.051671	0.732053	0.514475	0.446558
30963	8.073721	2.117873	1.824830	0.925005	-0.127432	-0.214543	-0.398159	-0.206676	0.893731	0.558866	-0.827250	0.057673	0.727419	0.522439	0.444881
30964	8.753636	1.909557	3.220007	0.685306	-0.242149	-0.163533	-0.397240	-0.204072	0.894738	0.563309	-0.823903	0.062179	0.724488	0.528714	0.442243
30965	9.290655	1.969352	4.349810	0.542259	-0.256984	-0.136112	-0.396094	-0.201612	0.895802	0.566730	-0.821275	0.065751	0.722444	0.533722	0.439562
30966	9.366201	2.165112	5.323451	0.347255	-0.152044	-0.127412	-0.395639	-0.199769	0.896416	0.568860	-0.819583	0.068424	0.721019	0.537007	0.437899
30967	9.036930	2.322887	5.765207	0.179969	-0.139562	-0.108710	-0.395196	-0.198152	0.896970	0.569766	-0.818808	0.070148	0.720546	0.538785	0.436490
30968	9.004898	2.527968	6.400772	-0.077243	-0.302571	-0.065317	-0.393306	-0.196001	0.898273	0.569082	-0.819261	0.070409	0.722120	0.538883	0.433761
30969	8.976165	1.904408	8.643286	-0.796507	-0.323942	0.023968	-0.390766	-0.194487	0.899709	0.563439	-0.823460	0.066711	0.727900	0.533000	0.431362
30970	9.785966	0.806799	9.951522	-1.333672	-0.197984	0.059665	-0.388909	-0.193951	0.900629	0.554033	-0.830298	0.060438	0.736068	0.522483	0.430365
30971	9.523751	0.743305	9.732890	-1.354437	0.001699	0.019358	-0.388760	-0.194147	0.900651	0.544127	-0.837238	0.054391	0.743500	0.511214	0.431125
30972	8.327548	0.409331	9.049995	-1.397363	0.122182	-0.008375	-0.389655	-0.194712	0.900142	0.533757	-0.844250	0.048431	0.750515	0.499328	0.432895
30973	7.429194	-0.921623	7.547170	-1.115437	0.171300	0.026344	-0.390751	-0.195810	0.899429	0.525497	-0.849692	0.043317	0.755755	0.489574	0.434915
30974	6.769210	-1.255453	6.047991	-0.569374	0.207795	0.131670	-0.391581	-0.197965	0.898596	0.521780	-0.852159	0.039641	0.757899	0.484392	0.436983
30975	6.544849	-0.352026	4.620702	-0.057022	0.080766	0.226873	-0.390954	-0.200317	0.898347	0.522274	-0.851961	0.037317	0.757882	0.483772	0.437698
30976	6.651116	0.204694	1.971936	0.013745	-0.262799	0.304905	-0.387320	-0.201665	0.899619	0.523624	-0.851246	0.034618	0.758816	0.484471	0.435301
30977	8.716496	-0.381045	-2.104074	0.141646	-0.796352	0.312997	-0.379570	-0.200486	0.903179	0.525939	-0.849906	0.032371	0.761127	0.487304	0.428042
30978	11.336494	-0.414054	-2.830125	0.180706	-0.930828	0.219466	-0.371262	-0.197819	0.907211	0.528214	-0.848540	0.031137	0.763645	0.490762	0.419522
30979	12.352807	0.112649	-0.502915	-0.276631	-0.764639	0.036873	-0.365157	-0.194411	0.910420	0.526269	-0.849802	0.029613	0.767920	0.489939	0.412624
30980	11.193722	0.089828	1.820860	-0.629903	-0.577001	-0.112459	-0.361232	-0.190656	0.912777	0.521108	-0.853030	0.028052	0.773277	0.485789	0.407494
30981	9.828613	-0.259901	3.610932	-0.635779	-0.551004	-0.181798	-0.357844	-0.186466	0.914974	0.515559	-0.856425	0.027100	0.778554	0.481421	0.402601
30982	9.783610	-0.295810	4.708178	-0.438794	-0.602930	-0.167251	-0.353925	-0.182154	0.917364	0.511646	-0.858776	0.026876	0.782915	0.478877	0.397141
30983	10.775860	1.339131	5.356795	-0.273406	-0.693076	-0.190243	-0.349402	-0.177232	0.920058	0.508868	-0.860405	0.027508	0.786747	0.477800	0.390814
30984	11.266983	2.746727	3.999709	-0.269575	-0.904803	-0.264452	-0.343536	-0.170650	0.923505	0.505931	-0.862090	0.028900	0.791212	0.477158	0.382496
30985	12.541788	1.248793	2.580243	-0.954575	-0.958646	-0.247846	-0.337101	-0.163994	0.927075	0.497533	-0.867007	0.027544	0.799264	0.470536	0.373862
30986	12.023360	-1.872574	2.168977	-1.433349	-0.799568	-0.153441	-0.331355	-0.158953	0.930020	0.485618	-0.873851	0.023667	0.808937	0.459477	0.366745
30987	10.374588	-4.174180	2.517695	-1.324111	-0.754190	-0.108099	-0.325685	-0.154609	0.932751	0.474530	-0.880016	0.019822	0.817772	0.449074	0.359975
30988	9.046412	-5.337440	1.321646	-0.611089	-0.805247	-0.065300	-0.319315	-0.150450	0.935630	0.469416	-0.882788	0.018251	0.823217	0.445027	0.352511
30989	8.686280	-3.473062	0.702551	0.517518	-0.931138	-0.041014	-0.311787	-0.145947	0.938876	0.473585	-0.880512	0.020396	0.823715	0.450997	0.343650
30990	8.821042	-0.607770	0.407348	0.985130	-0.994302	-0.041141	-0.303731	-0.141071	0.942256	0.481653	-0.876031	0.024102	0.822045	0.461161	0.334024
30991	9.032967	0.924243	0.396954	0.820105	-1.007753	-0.051954	-0.295648	-0.135955	0.945573	0.488271	-0.872267	0.027250	0.821087	0.469752	0.324267
30992	8.880424	1.081011	0.236043	0.529596	-1.055006	-0.075134	-0.287277	-0.130328	0.948940	0.492499	-0.869808	0.029636	0.821533	0.475866	0.314062
30993	9.222887	1.195456	1.210422	0.413590	-1.043879	-0.086843	-0.279070	-0.124609	0.952152	0.495688	-0.867922	0.031697	0.822444	0.480816	0.303978
30994	8.852736	0.884714	2.624066	0.205619	-0.942032	-0.070620	-0.271586	-0.119461	0.954971	0.497298	-0.866953	0.032977	0.823976	0.483861	0.294860
30995	8.696132	0.400508	3.885065	0.094516	-0.903852	-0.050624	-0.264326	-0.114669	0.957592	0.497977	-0.866536	0.033692	0.825924	0.485764	0.286151
30996	9.335846	0.102902	4.368911	0.055257	-0.813427	-0.049124	-0.257767	-0.110294	0.959891	0.498415	-0.866259	0.034308	0.827731	0.487268	0.278265
30997	9.177263	-0.816521	3.982034	-0.062570	-0.761876	-0.036426	-0.251578	-0.106293	0.961982	0.497838	-0.866586	0.034443	0.829979	0.487576	0.270931
30998	9.202285	-1.442161	3.755923	0.078940	-0.770259	-0.034680	-0.245278	-0.102240	0.964047	0.498505	-0.866181	0.034971	0.831464	0.489160	0.263422
30999	9.088900	0.217544	4.186358	0.463190	-0.740773	-0.053723	-0.239333	-0.098162	0.965963	0.502258	-0.863941	0.036648	0.830937	0.493934	0.256073
31000	9.048126	1.716394	4.324852	0.425868	-0.715921	-0.089444	-0.233766	-0.093851	0.967753	0.505667	-0.861866	0.038564	0.830454	0.498376	0.248932
31001	9.472091	1.781554	3.777376	0.140930	-0.656090	-0.132355	-0.228928	-0.089463	0.969324	0.506565	-0.861267	0.040147	0.831254	0.500216	0.242487
31002	9.823818	1.767983	3.607740	0.047657	-0.579815	-0.180148	-0.224949	-0.085019	0.970654	0.506635	-0.861137	0.041986	0.832297	0.501213	0.236786
31003	10.233033	1.409465	3.145990	-0.131977	-0.464584	-0.203497	-0.222052	-0.080966	0.971667	0.505113	-0.861951	0.043608	0.833998	0.500485	0.232295
31004	10.052503	0.349100	2.444244	-0.215229	-0.370930	-0.211021	-0.219951	-0.077302	0.972443	0.502935	-0.863144	0.045142	0.835869	0.499005	0.228728
31005	9.904656	-0.226411	2.016936	-0.043680	-0.336517	-0.202360	-0.218098	-0.073904	0.973125	0.502159	-0.863499	0.046966	0.836821	0.498907	0.225439
31006	9.807875	-0.484219	1.356110	0.193410	-0.331353	-0.170576	-0.216117	-0.070786	0.973798	0.503490	-0.862608	0.049037	0.836535	0.500895	0.222064
31007	9.902370	0.173961	0.866004	0.505890	-0.380704	-0.120130	-0.213486	-0.067862	0.974586	0.507492	-0.860130	0.051275	0.834791	0.505541	0.218065
31008	9.944068	1.162562	0.645087	0.627564	-0.404063	-0.078448	-0.210450	-0.065144	0.975432	0.512640	-0.856944	0.053371	0.832413	0.511277	0.213739
31009	9.960577	1.894431	0.576371	0.564599	-0.431474	-0.042269	-0.207023	-0.062592	0.976332	0.517277	-0.854053	0.054932	0.830401	0.516406	0.209186
31010	9.989635	1.984868	0.656521	0.406153	-0.446133	-0.018406	-0.203347	-0.060126	0.977259	0.520705	-0.851902	0.055934	0.829166	0.520237	0.204539
31011	10.031270	1.784068	0.727639	0.310504	-0.451372	-0.006478	-0.199582	-0.057742	0.978178	0.523297	-0.850270	0.056579	0.828449	0.523170	0.199915
31012	9.759926	1.360683	0.773110	0.234521	-0.443498	0.007865	-0.195795	-0.055481	0.979074	0.525364	-0.848970	0.056954	0.828044	0.525521	0.195372
31013	9.359820	0.790311	0.656266	0.274890	-0.493721	0.009222	-0.191603	-0.052983	0.980041	0.527688	-0.847500	0.057347	0.827547	0.528144	0.190342
31014	9.599372	0.713339	1.007234	0.328106	-0.517612	0.024803	-0.187116	-0.050444	0.981042	0.530565	-0.845677	0.057712	0.826733	0.531306	0.185004
31015	9.542835	0.955487	1.605914	0.348948	-0.491544	0.054110	-0.182709	-0.048307	0.981980	0.533579	-0.843775	0.057771	0.825779	0.534519	0.179941
31016	9.550575	1.626310	1.874832	0.393694	-0.478191	0.073975	-0.178293	-0.046355	0.982885	0.537080	-0.841553	0.057735	0.824474	0.538182	0.174940
31017	9.491025	2.281247	2.135779	0.339280	-0.486924	0.075728	-0.173815	-0.044389	0.983777	0.540039	-0.839672	0.057528	0.823496	0.541277	0.169919
31018	9.586647	2.321096	2.454027	0.125069	-0.467716	0.060276	-0.169564	-0.042345	0.984609	0.541296	-0.838888	0.057141	0.823557	0.542654	0.165167
31019	9.624727	1.599010	2.445578	-0.078514	-0.409706	0.045657	-0.165883	-0.040531	0.985312	0.540756	-0.839279	0.056516	0.824661	0.542188	0.161139
31020	9.343510	0.852687	2.083552	-0.108045	-0.403372	0.039093	-0.162271	-0.038656	0.985989	0.540055	-0.839767	0.055957	0.825838	0.541569	0.157146
31021	9.493601	0.210446	1.767531	-0.075139	-0.428490	0.030577	-0.158507	-0.036618	0.986679	0.539513	-0.840147	0.055491	0.826923	0.541122	0.152925
31022	9.507170	-0.510481	1.533436	0.006921	-0.432994	0.041424	-0.154631	-0.034605	0.987366	0.539759	-0.840015	0.055090	0.827496	0.541458	0.148571
31023	9.476316	-0.528338	1.446954	0.231433	-0.469782	0.056541	-0.150381	-0.032556	0.988092	0.541789	-0.838725	0.054822	0.826953	0.543581	0.143767
31024	9.525738	-0.003423	1.469793	0.358608	-0.493155	0.081337	-0.145794	-0.030534	0.988844	0.544988	-0.836670	0.054517	0.825671	0.546856	0.138622
31025	9.548212	0.787486	1.459514	0.400279	-0.506992	0.103196	-0.140989	-0.028639	0.989597	0.548466	-0.834428	0.053992	0.824201	0.550373	0.133352
31026	9.588854	1.253494	1.583215	0.319261	-0.519252	0.114020	-0.136015	-0.026709	0.990347	0.551366	-0.832561	0.053272	0.823101	0.553289	0.127967
31027	9.639639	1.178988	1.738721	0.169868	-0.510874	0.118672	-0.131097	-0.024889	0.991057	0.552951	-0.831574	0.052260	0.822836	0.554857	0.122779
31028	9.510263	0.879551	1.972377	0.084786	-0.519631	0.120666	-0.126084	-0.022990	0.991753	0.553916	-0.830999	0.051157	0.822970	0.555798	0.117510
31029	9.325285	0.680931	2.126437	0.013363	-0.523231	0.114303	-0.121084	-0.021054	0.992419	0.554195	-0.830884	0.049990	0.823533	0.556047	0.112275
31030	9.335096	0.898131	2.472663	-0.013043	-0.540069	0.114520	-0.115933	-0.018986	0.993076	0.554331	-0.830862	0.048829	0.824182	0.556154	0.106849
31031	9.419993	1.227945	3.008172	-0.093358	-0.518383	0.122423	-0.110921	-0.017145	0.993681	0.553728	-0.831344	0.047466	0.825277	0.555494	0.101707
31032	9.153163	1.168424	3.201475	-0.177315	-0.490901	0.116156	-0.106159	-0.015373	0.994230	0.552491	-0.832242	0.046124	0.826731	0.554200	0.096843
31033	8.972607	1.175477	3.138483	-0.118492	-0.495139	0.119148	-0.101346	-0.013647	0.994758	0.551661	-0.832865	0.044778	0.827888	0.553307	0.091936
31034	9.122324	0.918457	2.984455	-0.097122	-0.480314	0.109408	-0.096703	-0.011890	0.995242	0.551059	-0.833327	0.043588	0.828844	0.552653	0.087137
31035	9.088207	0.454099	2.192117	-0.028258	-0.481060	0.107761	-0.092062	-0.010153	0.995702	0.550953	-0.833456	0.042442	0.829443	0.552492	0.082323
31036	8.930630	0.633301	1.408601	0.202516	-0.540618	0.134030	-0.086781	-0.008269	0.996193	0.552838	-0.832267	0.041251	0.828758	0.554313	0.076796
31037	9.118068	1.572721	0.935236	0.397110	-0.617428	0.151796	-0.080768	-0.006121	0.996714	0.556279	-0.830033	0.039981	0.827061	0.557680	0.070445
31038	9.133261	1.949659	0.588380	0.352894	-0.692872	0.176476	-0.074001	-0.003698	0.997251	0.559418	-0.827994	0.038441	0.825576	0.560725	0.063341
31039	9.120212	1.814336	0.332131	0.263148	-0.749192	0.191429	-0.066687	-0.001095	0.997773	0.561749	-0.826496	0.036638	0.824616	0.562942	0.055732
31040	9.104211	1.452429	0.215520	0.198448	-0.820994	0.218873	-0.058631	0.001744	0.998278	0.563616	-0.825314	0.034544	0.823953	0.564671	0.047407
31041	9.235458	1.202873	-0.018846	0.244753	-0.917712	0.255585	-0.049571	0.004805	0.998759	0.565794	-0.823923	0.032046	0.823055	0.566681	0.038124
31042	9.724181	1.141467	0.259082	0.219776	-0.975143	0.284688	-0.039879	0.008020	0.999172	0.567829	-0.822626	0.029266	0.822180	0.568526	0.028252
31043	9.470745	0.619379	1.388935	0.086467	-1.016323	0.294013	-0.029794	0.011361	0.999491	0.568666	-0.822148	0.026297	0.822029	0.569160	0.018034
31044	9.041374	0.020834	1.642630	0.178509	-1.043160	0.316282	-0.019367	0.014733	0.999704	0.570309	-0.821104	0.023149	0.821202	0.570588	0.007500
31045	9.854229	0.254020	2.209956	0.395698	-1.037982	0.321034	-0.008958	0.018017	0.999798	0.573622	-0.818878	0.019897	0.819071	0.573684	-0.003000
31046	10.000549	0.938402	3.787215	0.490884	-0.927455	0.313123	0.000481	0.020818	0.999783	0.577736	-0.816053	0.016715	0.816224	0.577602	-0.012420
31047	10.747047	1.212270	5.157889	0.543111	-0.828794	0.289888	0.008973	0.023241	0.999690	0.582168	-0.812954	0.013674	0.813019	0.581864	-0.020825
31048	10.267550	2.022298	6.045837	0.720796	-0.711294	0.282416	0.016440	0.025122	0.999549	0.588043	-0.808760	0.010655	0.808663	0.587603	-0.028069
31049	10.525156	2.858763	6.491329	0.723777	-0.536291	0.286537	0.022519	0.025957	0.999409	0.593845	-0.804545	0.007515	0.804265	0.593325	-0.033532
31050	11.099034	3.408282	6.747362	0.695694	-0.294454	0.310227	0.026771	0.025224	0.999323	0.599394	-0.800443	0.004147	0.800006	0.598878	-0.036547
31051	11.645178	2.865785	5.908369	0.462296	-0.027073	0.319974	0.028971	0.022810	0.999320	0.603017	-0.797728	0.000726	0.797202	0.602586	-0.036866
31052	11.659326	1.498741	4.605032	0.305605	0.208228	0.315805	0.029252	0.019027	0.999391	0.605387	-0.795927	-0.002566	0.795394	0.605093	-0.034801
31053	11.763585	0.908706	3.765906	0.383316	0.347154	0.306175	0.028413	0.014468	0.999492	0.608363	-0.793638	-0.005806	0.793150	0.608218	-0.031351
31054	13.190383	1.247301	4.413681	0.428303	0.477378	0.271360	0.026313	0.009387	0.999610	0.611692	-0.791048	-0.008674	0.790658	0.611682	-0.026557
31055	14.322982	1.819345	4.918085	0.276143	0.645075	0.210674	0.022569	0.003750	0.999738	0.613842	-0.789354	-0.010897	0.789106	0.613927	-0.020117
31056	12.840027	1.727824	5.385038	-0.077415	0.840883	0.155580	0.016904	-0.002668	0.999854	0.613197	-0.789832	-0.012475	0.789749	0.613318	-0.011715
31057	11.179211	2.054637	6.409578	-0.324722	1.016388	0.102304	0.009553	-0.009717	0.999907	0.610635	-0.791796	-0.013528	0.791854	0.610708	-0.001631
31058	10.725928	2.142056	6.801913	-0.579084	1.193629	0.045172	0.000364	-0.017378	0.999849	0.606015	-0.795329	-0.014044	0.795453	0.605929	0.010242
31059	10.264845	1.964494	6.681179	-0.825804	1.465522	0.013582	-0.011188	-0.026336	0.999591	0.599449	-0.800284	-0.014376	0.800335	0.599042	0.024740
31060	11.095705	1.620950	6.001956	-1.115655	1.778417	-0.009998	-0.025539	-0.036878	0.998993	0.590440	-0.806948	-0.014694	0.806677	0.589471	0.042383
31061	11.613604	0.662440	5.358926	-1.667722	2.133216	-0.026985	-0.042942	-0.049102	0.997870	0.576925	-0.816652	-0.015358	0.815667	0.575037	0.063396
31062	10.964129	-1.054575	3.126600	-2.140696	2.101090	-0.070464	-0.060609	-0.060470	0.996328	0.559249	-0.828840	-0.016284	0.826781	0.556209	0.084053
31063	11.708019	-2.744537	0.534175	-1.861234	1.942024	-0.113012	-0.077318	-0.070190	0.994533	0.543724	-0.839093	-0.016949	0.835695	0.539441	0.103041
31064	12.850068	-2.873940	-0.263807	-0.980341	1.879441	-0.191658	-0.094109	-0.078693	0.992447	0.535277	-0.844521	-0.016206	0.839418	0.529709	0.121600
31065	13.904385	-1.780756	-1.904244	-0.348683	1.821745	-0.257965	-0.110720	-0.086146	0.990111	0.532113	-0.846555	-0.014152	0.839403	0.525284	0.139570
31066	13.055558	-0.689971	-2.555503	0.290109	1.852903	-0.323509	-0.127977	-0.093215	0.987387	0.534086	-0.845364	-0.010583	0.835687	0.525996	0.157972
31067	14.117526	0.121056	-1.927453	0.399429	1.860105	-0.318944	-0.145129	-0.100345	0.984311	0.537009	-0.843549	-0.006818	0.830999	0.527594	0.176310
31068	14.120360	-0.344935	-2.496245	-0.123348	1.997261	-0.271963	-0.163168	-0.108608	0.980602	0.535518	-0.844512	-0.004427	0.828611	0.524408	0.195958
31069	13.175424	-1.729974	-2.863312	-0.335527	2.067452	-0.211420	-0.181352	-0.117634	0.976357	0.532407	-0.846483	-0.003096	0.826834	0.519258	0.216141
31070	11.547846	-2.077246	-2.973927	-0.065513	2.025184	-0.218144	-0.199221	-0.126314	0.971780	0.531425	-0.847105	-0.001163	0.823346	0.516196	0.235887
31071	10.125222	-1.509360	-2.741871	0.339523	1.955202	-0.194434	-0.216240	-0.134791	0.966991	0.533838	-0.845585	0.001510	0.817470	0.516544	0.254806
31072	9.618550	-1.286280	-2.528309	0.473665	1.897681	-0.155107	-0.232509	-0.143331	0.961975	0.537336	-0.843358	0.004217	0.810684	0.517884	0.273105
31073	9.379804	-1.173806	-2.512071	0.590632	1.881856	-0.113911	-0.248251	-0.152164	0.956670	0.541861	-0.840439	0.006933	0.802968	0.520104	0.291092
31074	9.200431	-1.073983	-2.494516	0.590724	1.840989	-0.098416	-0.263476	-0.160961	0.951142	0.546337	-0.837510	0.009610	0.795044	0.522176	0.308603
31075	8.863133	-0.366443	-2.286577	0.645602	1.768901	-0.091626	-0.277913	-0.169479	0.945538	0.551230	-0.834260	0.012484	0.786708	0.524678	0.325273
31076	8.438928	-0.132582	-2.168421	0.519923	1.678260	-0.117677	-0.291672	-0.177339	0.939935	0.554994	-0.831714	0.015300	0.779044	0.526120	0.341010
31077	7.930194	0.008557	-2.156566	0.419543	1.580496	-0.174741	-0.304845	-0.184233	0.934413	0.557762	-0.829798	0.018359	0.771992	0.526777	0.355718
31078	7.515481	-0.121729	-1.841636	0.219044	1.488835	-0.218890	-0.317477	-0.190271	0.928981	0.558817	-0.829021	0.021177	0.766115	0.525853	0.369522
31079	7.727397	-0.853917	-1.494474	-0.066699	1.387803	-0.202227	-0.329153	-0.195894	0.923734	0.557690	-0.829737	0.022761	0.761997	0.522649	0.382359
31080	7.687845	-2.036540	-1.169520	-0.365057	1.352816	-0.155156	-0.340257	-0.201653	0.918456	0.554463	-0.831897	0.022762	0.759471	0.516995	0.394868
31081	6.734433	-2.812310	-0.617930	-0.526872	1.361830	-0.142904	-0.351321	-0.207479	0.912976	0.550010	-0.834870	0.021919	0.757669	0.509847	0.407423
31082	6.122884	-3.128524	-0.276503	-0.508024	1.246705	-0.091730	-0.361204	-0.213044	0.907824	0.545912	-0.837588	0.020645	0.755984	0.503049	0.418843
31083	5.950634	-3.129242	-0.128474	-0.286688	1.042120	0.000345	-0.369013	-0.218291	0.903426	0.543787	-0.838999	0.019391	0.753740	0.498427	0.428305
31084	5.701842	-2.599884	0.017555	0.069957	0.789075	0.083272	-0.374436	-0.222939	0.900053	0.544691	-0.838423	0.018926	0.750406	0.497337	0.435369
31085	5.413704	-1.330940	0.447023	0.494864	0.507688	0.101337	-0.377624	-0.226346	0.897868	0.548813	-0.835702	0.020145	0.745791	0.500369	0.439803
31086	5.591908	0.308758	1.260740	0.815577	0.234402	0.056350	-0.378994	-0.228017	0.896868	0.555152	-0.831425	0.023214	0.740385	0.506696	0.441689
31087	6.465688	2.190763	1.761978	0.807518	0.002044	-0.054678	-0.379259	-0.227599	0.896862	0.560945	-0.827405	0.027235	0.735869	0.513419	0.441471
31088	7.448570	3.840757	2.085848	0.394299	-0.058046	-0.209228	-0.379942	-0.225590	0.897080	0.563126	-0.825796	0.030838	0.733848	0.516886	0.440790
31089	8.050942	4.109675	2.498286	-0.503136	0.071682	-0.347216	-0.382360	-0.223110	0.896673	0.558143	-0.829139	0.031697	0.736395	0.512591	0.441557
31090	8.651877	2.953305	2.875828	-1.041783	0.163813	-0.375533	-0.385577	-0.220834	0.895859	0.549108	-0.835196	0.030455	0.741492	0.503666	0.443294
31091	8.019106	1.370182	3.862103	-0.781283	0.074422	-0.278172	-0.387593	-0.218902	0.895463	0.542264	-0.839692	0.029445	0.745468	0.496989	0.444162
31092	7.609313	0.240574	5.152763	-0.268887	-0.235929	-0.054073	-0.386049	-0.217293	0.896521	0.540167	-0.841067	0.028747	0.747788	0.495369	0.442067
31093	9.511670	-0.574362	6.699662	-0.273748	-0.377878	0.101115	-0.382617	-0.216301	0.898230	0.538544	-0.842177	0.026599	0.750716	0.493914	0.438719
31094	10.888011	-0.826832	7.184979	-0.279441	-0.272406	0.180528	-0.379527	-0.216496	0.899494	0.537240	-0.843095	0.023758	0.753215	0.492261	0.436287
31095	10.434324	-0.695255	7.975803	-0.573381	-0.164002	0.223679	-0.377035	-0.217607	0.900273	0.533796	-0.845395	0.019213	0.756905	0.487806	0.434901
31096	10.623360	-1.520281	8.788664	-0.906460	-0.104936	0.185823	-0.375188	-0.218692	0.900782	0.527703	-0.849320	0.013597	0.762079	0.480447	0.434059
31097	11.378338	-1.329449	7.934108	-0.757236	0.035623	0.134636	-0.374698	-0.220035	0.900659	0.522462	-0.852614	0.009061	0.765921	0.473955	0.434433
31098	9.801566	0.035170	7.488193	-0.833600	0.242933	0.118414	-0.375892	-0.222211	0.899626	0.516578	-0.856229	0.004351	0.769320	0.466362	0.436639
31099	7.412630	-0.256578	5.710084	-0.891106	0.233918	0.125967	-0.376995	-0.224401	0.898621	0.510220	-0.860044	-0.000717	0.773014	0.458224	0.438726
31100	6.082722	-1.257193	3.866113	-0.689607	0.000767	0.135366	-0.376263	-0.225595	0.898629	0.505446	-0.862844	-0.004977	0.776499	0.452335	0.438682
31101	5.757109	-2.157759	1.623826	-0.100991	-0.373970	0.115345	-0.372718	-0.224927	0.900272	0.505133	-0.863017	-0.006491	0.778410	0.452337	0.435280
31102	6.231308	-1.216772	-0.973446	0.597482	-0.840916	0.054981	-0.365844	-0.221593	0.903911	0.510036	-0.860142	-0.004434	0.778474	0.459405	0.427698
31103	7.564672	0.956628	-2.668715	0.875268	-1.173003	0.013639	-0.356589	-0.216290	0.908880	0.516937	-0.856023	-0.000896	0.778216	0.469514	0.417057
31104	9.631036	2.051185	-2.610178	0.610295	-1.414914	-0.013883	-0.345578	-0.209491	0.914707	0.521711	-0.853120	0.001718	0.779996	0.477807	0.404114
31105	12.276913	0.015911	-1.721263	-0.152661	-1.467139	-0.030474	-0.334196	-0.202235	0.920551	0.520451	-0.853891	0.001354	0.785776	0.479554	0.390620
31106	12.786041	-1.680396	1.590906	-0.573591	-1.302541	-0.080186	-0.324255	-0.195331	0.925583	0.515761	-0.856733	-0.000117	0.793000	0.477342	0.378544
31107	11.797234	-1.779267	4.249355	-0.762500	-1.125241	-0.106252	-0.315778	-0.189099	0.929799	0.509383	-0.860537	-0.002016	0.800508	0.472987	0.368063
31108	11.550391	-1.685583	6.474736	-0.777572	-0.963820	-0.100391	-0.308462	-0.183712	0.933328	0.502918	-0.864325	-0.003917	0.807418	0.468180	0.359004
31109	11.309894	-0.208620	8.561761	-0.575234	-0.775400	-0.147907	-0.302866	-0.178843	0.936102	0.497844	-0.867254	-0.004618	0.812664	0.464635	0.351697
31110	10.754915	0.501811	7.822675	-0.867768	-0.699556	-0.188504	-0.298022	-0.173994	0.938568	0.490279	-0.871546	-0.005892	0.819030	0.458404	0.345045
31111	10.322967	-2.479208	5.448582	-1.105896	-0.666570	-0.152071	-0.293221	-0.169666	0.940869	0.480768	-0.876809	-0.008283	0.826367	0.449911	0.338669
31112	9.949304	-5.242140	3.812619	-0.769082	-0.635722	-0.023860	-0.288004	-0.166637	0.943020	0.474385	-0.880253	-0.010665	0.831873	0.444283	0.332566
31113	9.261999	-6.472469	1.656919	0.384767	-0.713091	0.080639	-0.281632	-0.164191	0.945370	0.477853	-0.878380	-0.010200	0.832069	0.448875	0.325839
31114	8.909890	-3.411613	0.144469	1.944877	-0.940049	0.106511	-0.273267	-0.160846	0.948395	0.494294	-0.869281	-0.005004	0.825226	0.467418	0.317051
31115	9.128585	1.109326	-0.954564	2.875925	-1.114452	0.054749	-0.263801	-0.155988	0.951881	0.518045	-0.855347	0.003401	0.813657	0.494014	0.306450
31116	9.575228	5.270791	0.531828	2.421561	-1.092444	-0.053054	-0.255182	-0.150045	0.955180	0.537526	-0.843174	0.011152	0.803709	0.516279	0.295816
31117	9.234850	5.260718	1.405941	0.794184	-1.033254	-0.124235	-0.247501	-0.143648	0.958180	0.543624	-0.839202	0.014609	0.802008	0.524505	0.285794
31118	9.457891	1.754178	1.234691	0.058139	-0.969096	-0.164409	-0.240541	-0.137189	0.960895	0.543762	-0.839081	0.016323	0.804029	0.526424	0.276432
31119	9.610113	-0.181432	2.319600	-0.085667	-0.856019	-0.159114	-0.234455	-0.131370	0.963210	0.542728	-0.839725	0.017578	0.806522	0.526882	0.268175
31120	9.575326	-0.252237	3.465679	-0.039899	-0.721314	-0.138627	-0.229310	-0.126412	0.965110	0.542163	-0.840063	0.018784	0.808379	0.527554	0.261170
31121	9.244673	-0.560591	3.218550	-0.198883	-0.678280	-0.103634	-0.224321	-0.121990	0.966850	0.540351	-0.841220	0.019229	0.810988	0.526752	0.254621
31122	9.515932	0.100272	3.175717	0.019401	-0.677787	-0.090955	-0.219240	-0.117662	0.968550	0.540378	-0.841182	0.020130	0.812358	0.527797	0.248003
31123	9.756864	1.269805	3.396218	-0.016556	-0.613521	-0.101244	-0.214741	-0.113595	0.970042	0.540057	-0.841366	0.021027	0.813772	0.528393	0.242024
31124	9.901495	1.522815	2.847112	-0.062801	-0.549270	-0.115425	-0.210821	-0.109732	0.971346	0.539369	-0.841783	0.021969	0.815252	0.528546	0.236652
31125	9.701685	1.488672	1.968277	0.043957	-0.538644	-0.135337	-0.207100	-0.105768	0.972586	0.539478	-0.841676	0.023343	0.816133	0.529523	0.231371
31126	9.882427	1.436739	1.232384	0.150347	-0.558961	-0.156723	-0.203314	-0.101492	0.973839	0.540459	-0.840993	0.025188	0.816435	0.531442	0.225839
31127	9.921597	1.467300	0.489953	0.244152	-0.549764	-0.173509	-0.199708	-0.097130	0.975029	0.542135	-0.839845	0.027379	0.816214	0.534066	0.220381
31128	9.748001	1.083724	-0.174538	0.297183	-0.577057	-0.157265	-0.195782	-0.092721	0.976254	0.544338	-0.838346	0.029541	0.815700	0.537195	0.214605
31129	10.038796	0.816874	-0.789451	0.384019	-0.605340	-0.102663	-0.191350	-0.088622	0.977513	0.547302	-0.836350	0.031311	0.814768	0.540986	0.208539
31130	10.330244	0.705866	-1.015290	0.397532	-0.613997	-0.042859	-0.186510	-0.084926	0.978776	0.550560	-0.834161	0.032534	0.813694	0.544943	0.202336
31131	10.200046	0.127293	-1.015672	0.321439	-0.651291	0.018239	-0.181054	-0.081541	0.980087	0.553240	-0.832370	0.032950	0.813108	0.548189	0.195816
31132	10.076832	-0.304183	-0.743052	0.364597	-0.678774	0.074641	-0.175043	-0.078416	0.981433	0.556452	-0.830228	0.032911	0.812232	0.551881	0.188961
31133	9.861183	0.149856	0.038269	0.369837	-0.710554	0.107320	-0.168618	-0.075395	0.982794	0.559670	-0.828078	0.032497	0.811380	0.555519	0.181825
31134	9.475959	0.669435	0.705002	0.277583	-0.730365	0.117486	-0.161951	-0.072282	0.984148	0.562237	-0.826363	0.031828	0.810963	0.558479	0.174470
31135	9.641046	1.415095	1.857288	0.136659	-0.737511	0.114588	-0.155265	-0.069126	0.985451	0.563558	-0.825499	0.030887	0.811354	0.560155	0.167127
31136	9.528750	1.675235	2.534606	-0.056164	-0.696272	0.112770	-0.148892	-0.066135	0.986639	0.563400	-0.825651	0.029678	0.812657	0.560291	0.160193
31137	9.717211	1.512072	2.835106	-0.136295	-0.662881	0.110502	-0.142819	-0.063358	0.987719	0.562482	-0.826324	0.028326	0.814381	0.559619	0.153652
31138	9.331928	1.307882	2.923528	-0.165592	-0.632266	0.096752	-0.137039	-0.060600	0.988710	0.561394	-0.827104	0.027117	0.816123	0.558772	0.147366
31139	9.428533	0.912614	2.928500	-0.170253	-0.585202	0.082355	-0.131738	-0.058037	0.989584	0.560143	-0.827988	0.026009	0.817854	0.557735	0.141586
31140	9.317840	0.611772	2.620746	-0.112604	-0.546261	0.063326	-0.126835	-0.055493	0.990370	0.559426	-0.828496	0.025222	0.819119	0.557238	0.136126
31141	9.148854	0.470014	2.051495	0.033155	-0.562287	0.062171	-0.121821	-0.052895	0.991142	0.559804	-0.828260	0.024603	0.819621	0.557842	0.130510
31142	9.456023	0.895495	1.568074	0.158402	-0.559885	0.075428	-0.116734	-0.050369	0.991885	0.561310	-0.827256	0.024051	0.819331	0.559563	0.124842
31143	9.548590	1.207083	0.904879	0.162555	-0.573785	0.098537	-0.111421	-0.047991	0.992614	0.562783	-0.826279	0.023224	0.819061	0.561213	0.119073
31144	9.683489	0.977826	0.029308	0.075829	-0.583225	0.115466	-0.105919	-0.045643	0.993327	0.563650	-0.825716	0.022161	0.819195	0.562236	0.113185
31145	9.513576	0.468739	-0.401505	-0.018232	-0.630325	0.114125	-0.100050	-0.043063	0.994050	0.563646	-0.825750	0.020959	0.819935	0.562389	0.106889
31146	9.631365	0.143045	-0.510638	-0.025804	-0.674447	0.120505	-0.093763	-0.040233	0.994781	0.563679	-0.825758	0.019732	0.820655	0.562587	0.100104
31147	9.872310	0.122912	-0.210505	-0.075893	-0.676157	0.124838	-0.087448	-0.037483	0.995464	0.563196	-0.826119	0.018368	0.821683	0.562248	0.093353
31148	9.668825	-0.261926	0.623307	-0.188815	-0.704676	0.126083	-0.080866	-0.034533	0.996127	0.561882	-0.827044	0.016943	0.823256	0.561075	0.086283
31149	9.212565	-0.405938	1.444096	-0.168710	-0.732845	0.133432	-0.074019	-0.031551	0.996758	0.560622	-0.827928	0.015425	0.824757	0.559946	0.078971
31150	9.215417	0.260512	2.418618	-0.020972	-0.749549	0.143055	-0.066957	-0.028504	0.997349	0.560676	-0.827917	0.013979	0.825323	0.560126	0.071416
31151	9.241431	1.017034	3.676014	-0.062711	-0.719646	0.156900	-0.060076	-0.025795	0.997860	0.560285	-0.828209	0.012322	0.826119	0.559826	0.064208
31152	9.168655	1.065638	4.741933	-0.137567	-0.661929	0.157848	-0.053649	-0.023370	0.998286	0.559354	-0.828860	0.010657	0.827191	0.558967	0.057539
31153	9.324510	0.640397	5.501382	-0.149757	-0.582367	0.166164	-0.047841	-0.021518	0.998623	0.558225	-0.829642	0.008866	0.828309	0.557880	0.051702
31154	8.869314	0.387073	5.797946	-0.003766	-0.520993	0.174754	-0.042484	-0.020039	0.998896	0.558371	-0.829561	0.007107	0.828503	0.558057	0.046432
31155	8.705133	0.640842	5.273426	0.262250	-0.528872	0.192549	-0.036969	-0.018699	0.999141	0.560644	-0.828040	0.005248	0.827231	0.560357	0.041096
31156	8.850122	1.022257	4.582974	0.459873	-0.542990	0.211510	-0.031237	-0.017383	0.999361	0.564591	-0.825364	0.003290	0.824780	0.564333	0.035596
31157	8.499426	1.392403	3.482905	0.572571	-0.611036	0.219993	-0.024900	-0.015754	0.999566	0.569391	-0.822066	0.001227	0.821690	0.569174	0.029439
31158	8.651969	1.548520	1.810963	0.596665	-0.698670	0.248889	-0.017695	-0.013796	0.999748	0.574401	-0.818573	-0.001129	0.818383	0.574236	0.022409
31159	8.579156	1.416505	0.712645	0.569180	-0.817021	0.265015	-0.009433	-0.011270	0.999892	0.579110	-0.815241	-0.003725	0.815195	0.579012	0.014217
31160	8.914964	1.577756	-0.075017	0.574372	-0.979850	0.278723	0.000209	-0.007831	0.999969	0.583860	-0.811828	-0.006480	0.811854	0.583844	0.004403
31161	9.138368	1.472842	0.007515	0.427580	-1.087679	0.275733	0.010700	-0.003716	0.999936	0.587334	-0.809291	-0.009293	0.809274	0.587396	-0.006477
31162	9.654383	0.920681	0.542219	0.310348	-1.167797	0.268233	0.021767	0.001007	0.999763	0.589870	-0.807408	-0.012030	0.807204	0.589992	-0.018168
31163	9.102667	0.539265	1.448308	0.242746	-1.142897	0.257215	0.032562	0.005666	0.999454	0.591779	-0.805966	-0.014711	0.805442	0.591935	-0.029597
31164	9.798705	0.741841	2.432921	0.375997	-1.055189	0.265305	0.042668	0.009810	0.999041	0.594772	-0.803704	-0.017510	0.802761	0.594949	-0.040127
31165	11.421478	2.079565	3.767194	0.589425	-0.954841	0.256211	0.051904	0.013440	0.998562	0.599391	-0.800197	-0.020386	0.798772	0.599587	-0.049589
31166	12.950376	3.378480	4.981830	0.570531	-0.691224	0.223664	0.058799	0.015827	0.998144	0.603872	-0.796751	-0.022939	0.794909	0.604101	-0.056406
31167	13.389554	3.756220	5.705639	0.310669	-0.335758	0.181271	0.062621	0.016398	0.997903	0.606248	-0.794883	-0.024982	0.792806	0.606541	-0.059718
31168	14.330467	3.062868	6.608339	0.023517	0.060455	0.110239	0.062843	0.015164	0.997908	0.606415	-0.794720	-0.026112	0.792661	0.606787	-0.059138
31169	14.793013	0.701833	8.148570	-0.307641	0.444496	0.078259	0.059848	0.011831	0.998137	0.603944	-0.796577	-0.026771	0.794776	0.604421	-0.054819
31170	15.039718	-1.058867	8.410794	-0.124579	0.785399	0.105356	0.054259	0.006236	0.998507	0.602916	-0.797321	-0.027783	0.795957	0.603524	-0.047021
31171	13.671063	-1.205803	7.919887	0.202377	0.989031	0.132139	0.047248	-0.000812	0.998883	0.604479	-0.796084	-0.029240	0.795219	0.605185	-0.037122
31172	12.932439	-0.574340	7.587202	0.163246	1.264377	0.127243	0.037977	-0.009527	0.999233	0.605702	-0.795103	-0.030601	0.794785	0.606400	-0.024425
31173	12.391233	-0.357440	6.930182	-0.033278	1.551905	0.117727	0.026410	-0.019889	0.999453	0.605421	-0.795269	-0.031824	0.795467	0.605930	-0.008962
31174	11.937570	-0.092112	5.554542	-0.090730	1.875136	0.114102	0.012174	-0.032212	0.999407	0.604623	-0.795827	-0.033016	0.796419	0.604666	0.009788
31175	11.120694	0.621770	4.653020	-0.095930	2.196393	0.087865	-0.004735	-0.046194	0.998921	0.603878	-0.796353	-0.033964	0.797063	0.603066	0.031666
31176	10.284357	0.997866	3.315401	-0.552147	2.178547	0.032105	-0.021951	-0.059601	0.997981	0.599402	-0.799701	-0.034575	0.800147	0.597432	0.053280
31177	10.839657	0.423810	0.779296	-0.977344	1.937435	-0.072078	-0.037874	-0.070529	0.996790	0.591558	-0.805523	-0.034519	0.805372	0.588352	0.072231
31178	11.742265	-0.583436	-1.609717	-0.691052	1.895272	-0.180494	-0.054248	-0.080226	0.995299	0.585828	-0.809750	-0.033340	0.808618	0.581265	0.090926
31179	12.121635	-0.448469	-1.616594	-0.472760	1.858232	-0.290081	-0.070923	-0.088645	0.993535	0.581845	-0.812709	-0.030977	0.810201	0.575887	0.109218
31180	12.905643	-0.325701	-3.415709	-0.333188	1.857040	-0.376493	-0.088172	-0.096294	0.991440	0.578788	-0.815008	-0.027685	0.810697	0.571393	0.127595
31181	13.545773	0.685027	-2.916069	-0.039657	1.927848	-0.443375	-0.106291	-0.103695	0.988913	0.578064	-0.815656	-0.023396	0.809039	0.569168	0.146639
31182	14.050929	1.073887	-2.177265	-0.401848	1.998625	-0.424661	-0.124913	-0.111591	0.985872	0.574291	-0.818410	-0.019871	0.809065	0.563695	0.166316
31183	12.125861	-0.207279	-2.193071	-0.957445	2.056778	-0.391283	-0.143754	-0.119888	0.982325	0.566035	-0.824190	-0.017754	0.811750	0.553478	0.186342
31184	11.877395	-2.000983	-2.610186	-1.090489	1.956426	-0.336790	-0.161556	-0.127851	0.978547	0.556646	-0.830584	-0.016618	0.814890	0.542019	0.205353
31185	11.004570	-2.536535	-3.099793	-0.601108	1.904812	-0.299623	-0.178681	-0.135633	0.974514	0.551269	-0.834192	-0.015026	0.814970	0.534534	0.223824
31186	10.273117	-2.072965	-3.044670	-0.110893	1.852504	-0.240635	-0.195066	-0.143522	0.970232	0.549924	-0.835114	-0.012972	0.812116	0.531024	0.241829
31187	10.064261	-2.214837	-3.012348	0.155927	1.835527	-0.163654	-0.210774	-0.151914	0.965659	0.550888	-0.834506	-0.011039	0.807525	0.529643	0.259580
31188	9.889913	-2.525309	-2.806755	0.391025	1.852392	-0.096393	-0.226187	-0.160948	0.960695	0.553845	-0.832570	-0.009086	0.801309	0.530021	0.277457
31189	9.392571	-2.109342	-2.625879	0.651753	1.849126	-0.062580	-0.241221	-0.170275	0.955416	0.558929	-0.829188	-0.006661	0.793354	0.532403	0.295189
31190	8.886541	-1.144584	-2.529378	0.876570	1.778878	-0.074474	-0.255639	-0.179186	0.950022	0.565692	-0.824610	-0.003311	0.783990	0.536573	0.312167
31191	8.655069	-0.354554	-2.316881	0.856194	1.673931	-0.096607	-0.269177	-0.187430	0.944676	0.572147	-0.820151	0.000305	0.774720	0.540576	0.328004
31192	8.568079	-0.021051	-2.245973	0.754636	1.566318	-0.139561	-0.282005	-0.194795	0.939430	0.577629	-0.816289	0.004136	0.766040	0.543809	0.342716
31193	8.662876	0.271504	-1.963824	0.595512	1.461515	-0.198013	-0.294235	-0.201165	0.934322	0.581634	-0.813411	0.008035	0.758372	0.545798	0.356338
31194	8.807178	0.404853	-1.450604	0.363181	1.395427	-0.228200	-0.306049	-0.206938	0.929253	0.583768	-0.811839	0.011473	0.752030	0.545979	0.369267
31195	8.783243	-0.122303	-0.628922	0.029378	1.379341	-0.254260	-0.317818	-0.212408	0.924053	0.583232	-0.812186	0.013903	0.747551	0.543356	0.382011
31196	8.507546	-1.193351	0.189097	-0.397871	1.405980	-0.279414	-0.329873	-0.217739	0.918572	0.579454	-0.814868	0.014934	0.745263	0.537196	0.394972
31197	7.906706	-2.252465	0.708761	-0.772196	1.431683	-0.293860	-0.342177	-0.222983	0.912795	0.572751	-0.819602	0.014488	0.744897	0.527761	0.408162
31198	7.266716	-2.576802	1.001146	-0.886744	1.360839	-0.284789	-0.353867	-0.227765	0.907139	0.565253	-0.824808	0.013407	0.745162	0.517508	0.420617
31199	6.753416	-2.617432	0.892342	-0.780479	1.172983	-0.223989	-0.363811	-0.231953	0.902130	0.558672	-0.829300	0.012075	0.745336	0.508388	0.431294
31200	6.545642	-2.566038	0.820536	-0.481161	0.915364	-0.133457	-0.371302	-0.235485	0.898154	0.554694	-0.831979	0.011179	0.744613	0.502352	0.439538
31201	6.645649	-2.110220	1.028383	-0.132676	0.651911	-0.067772	-0.376471	-0.238212	0.895279	0.553494	-0.832778	0.011166	0.742909	0.499735	0.445366
31202	6.201245	-1.217211	1.065839	0.131040	0.505200	-0.007217	-0.380184	-0.240694	0.893044	0.554532	-0.832079	0.011811	0.740240	0.499711	0.449815
31203	6.287026	-0.402410	1.085702	0.273517	0.381050	-0.001926	-0.382954	-0.242609	0.891340	0.556585	-0.830688	0.013030	0.737265	0.501097	0.453148
31204	6.613202	0.438907	0.981315	0.408469	0.227847	-0.045624	-0.384808	-0.243393	0.890327	0.559511	-0.828682	0.015285	0.734078	0.504030	0.455064
31205	6.957496	1.446415	0.889347	0.474907	0.075112	-0.108274	-0.385910	-0.242901	0.889985	0.562613	-0.826516	0.018379	0.731122	0.507810	0.455620
31206	7.124959	1.978508	1.398014	0.323209	-0.018440	-0.146397	-0.386517	-0.241614	0.890071	0.564517	-0.825150	0.021154	0.729331	0.510637	0.455330
31207	7.489023	1.549393	1.862308	0.004302	-0.068480	-0.172272	-0.386934	-0.239865	0.890363	0.563923	-0.825516	0.022674	0.729570	0.510870	0.454686
31208	8.254378	0.710352	3.007223	-0.077689	-0.105040	-0.130649	-0.386815	-0.238264	0.890845	0.562976	-0.826139	0.023492	0.730365	0.510611	0.453700
31209	9.221378	0.257243	4.615546	0.041703	-0.172296	-0.042824	-0.385742	-0.237053	0.891633	0.563155	-0.826001	0.024030	0.730794	0.511397	0.452121
31210	9.972677	-0.306343	5.728521	0.171818	-0.178648	0.000277	-0.384345	-0.236153	0.892474	0.564540	-0.825033	0.024812	0.730461	0.513374	0.450415
31211	9.886472	-0.696341	6.529118	0.522497	-0.147067	0.024771	-0.383077	-0.235622	0.893160	0.568486	-0.822253	0.026907	0.728063	0.518056	0.448934
31212	9.315621	0.144794	7.559588	0.782447	-0.246825	0.026869	-0.381044	-0.234568	0.894306	0.574389	-0.818026	0.030174	0.724488	0.525177	0.446437
31213	9.570052	1.118528	8.987650	0.462615	-0.256691	0.049753	-0.378844	-0.233643	0.895482	0.577966	-0.815443	0.031755	0.722795	0.529588	0.443963
31214	10.092694	1.630734	9.853444	-0.059699	-0.116692	0.037842	-0.377702	-0.233348	0.896041	0.577781	-0.815597	0.031150	0.723540	0.529481	0.442877
31215	9.742306	1.531774	9.040424	-0.469203	0.084752	-0.028964	-0.378427	-0.233580	0.895675	0.574311	-0.818113	0.029296	0.725920	0.525482	0.443744
31216	8.621377	1.517458	8.227698	-0.724996	0.211501	-0.074887	-0.380325	-0.234086	0.894738	0.568843	-0.822011	0.026738	0.729226	0.519135	0.445789
31217	7.957182	0.754172	6.806725	-0.732411	0.310136	-0.065151	-0.382904	-0.235172	0.893353	0.563283	-0.825915	0.024012	0.732186	0.512405	0.448714
31218	6.814002	0.894283	5.722835	-0.488308	0.299184	-0.059741	-0.385369	-0.236221	0.892015	0.559557	-0.828491	0.022342	0.733748	0.507743	0.451454
31219	6.409911	0.731706	4.761643	-0.568275	0.073046	0.000631	-0.385847	-0.236619	0.891703	0.555422	-0.831334	0.019736	0.736633	0.502887	0.452191
31220	6.545485	-0.570998	2.816295	-0.715636	-0.185241	0.081117	-0.383971	-0.236386	0.892574	0.550525	-0.834670	0.015775	0.741275	0.497441	0.450625
31221	7.487248	-1.373873	-1.198387	-0.399324	-0.598346	0.127359	-0.378767	-0.234504	0.895290	0.548082	-0.836326	0.012815	0.745749	0.495546	0.445300
31222	9.325418	-1.324330	-3.847317	0.014177	-0.926613	0.157846	-0.370912	-0.231238	0.899418	0.548862	-0.835834	0.011455	0.749116	0.497906	0.436939
31223	11.538929	-0.616737	-4.483276	0.006167	-1.044747	0.091425	-0.362508	-0.226812	0.903961	0.549284	-0.835568	0.010623	0.752911	0.500382	0.427484
31224	12.738799	0.717821	-1.922802	-0.449569	-0.925757	-0.015964	-0.355517	-0.222066	0.907907	0.545941	-0.837777	0.008866	0.758654	0.498816	0.419079
31225	11.477963	-1.181729	0.771490	-1.015470	-0.819369	-0.209940	-0.350348	-0.216266	0.911310	0.537494	-0.843243	0.006523	0.767044	0.492109	0.411670
31226	9.312240	-2.071249	2.196800	-0.688644	-0.900248	-0.312889	-0.344991	-0.209217	0.914991	0.531234	-0.847199	0.006582	0.773803	0.488345	0.403420
31227	8.832768	-0.348192	3.444286	-0.202789	-1.059130	-0.323074	-0.338427	-0.201328	0.919203	0.528596	-0.848829	0.008702	0.778494	0.488832	0.393688
31228	10.587436	0.617237	4.488517	-0.532909	-1.087926	-0.295615	-0.331386	-0.193516	0.923436	0.523571	-0.851930	0.009358	0.784893	0.486586	0.383637
31229	12.089464	-0.466538	5.668878	-1.123635	-0.902871	-0.255173	-0.325528	-0.187003	0.926856	0.513904	-0.857816	0.007419	0.793684	0.478730	0.375344
31230	12.231227	-3.040890	6.729945	-1.385939	-0.745766	-0.197262	-0.320487	-0.181781	0.929647	0.502331	-0.864666	0.004099	0.803089	0.468304	0.368428
31231	11.620278	-5.891820	6.561212	-1.307222	-0.568568	-0.069893	-0.316189	-0.178568	0.931739	0.491595	-0.870824	-0.000069	0.811393	0.458017	0.363128
31232	8.859594	-7.612062	5.152801	-0.390604	-0.625456	0.103346	-0.310514	-0.176627	0.934015	0.488839	-0.872371	-0.002455	0.815241	0.455820	0.357225
31233	8.095329	-5.709591	3.505778	1.124884	-0.862313	0.166654	-0.302619	-0.174124	0.937071	0.498543	-0.866865	-0.000078	0.812328	0.467147	0.349138
31234	8.184765	-1.317343	1.903024	2.152693	-1.021164	0.167256	-0.293439	-0.170715	0.940611	0.516497	-0.856270	0.005722	0.804440	0.487502	0.339437
31235	8.649107	2.964893	0.723676	2.628862	-1.098236	0.078231	-0.284194	-0.165918	0.944301	0.537769	-0.842980	0.013730	0.793749	0.511718	0.328795
31236	9.114628	6.021860	0.951261	1.915748	-1.029748	0.001353	-0.275972	-0.160587	0.947656	0.552969	-0.832965	0.019882	0.786171	0.529511	0.318674
31237	9.108494	4.319464	0.868487	0.561605	-0.902577	-0.066255	-0.269190	-0.155251	0.950491	0.557238	-0.830055	0.022237	0.785508	0.535636	0.309954
31238	9.059813	1.461476	1.282302	0.183755	-0.840123	-0.079600	-0.262944	-0.150085	0.953066	0.558565	-0.829126	0.023536	0.786680	0.538538	0.301846
31239	8.887006	-0.066468	2.487103	0.236667	-0.833910	-0.071456	-0.256722	-0.145011	0.955545	0.560279	-0.827930	0.024883	0.787516	0.541759	0.293794
31240	9.173152	-0.281045	3.292795	0.362417	-0.850969	-0.064145	-0.250293	-0.139855	0.958016	0.563070	-0.825983	0.026528	0.787595	0.546070	0.285486
31241	9.188344	-0.116930	3.155398	0.389117	-0.860884	-0.065589	-0.243825	-0.134616	0.960431	0.566008	-0.823917	0.028211	0.787518	0.550490	0.277085
31242	9.509032	0.472400	3.643288	0.306957	-0.854162	-0.076280	-0.237444	-0.129273	0.962761	0.568336	-0.822258	0.029761	0.787791	0.554238	0.268711
31243	9.926966	0.955297	4.458515	0.057294	-0.739388	-0.084634	-0.232037	-0.124495	0.964707	0.568624	-0.822025	0.030687	0.789193	0.555676	0.261531
31244	9.796680	0.299159	4.516622	-0.135955	-0.647989	-0.102683	-0.227417	-0.120054	0.966369	0.567403	-0.822845	0.031304	0.791414	0.555440	0.255248
31245	9.891361	-0.892095	3.950841	-0.146693	-0.611535	-0.096903	-0.223061	-0.115882	0.967892	0.566057	-0.823751	0.031830	0.793614	0.554982	0.249343
31246	10.049831	-0.785129	3.471437	0.192216	-0.597509	-0.112412	-0.218876	-0.111640	0.969345	0.567412	-0.822758	0.033364	0.793811	0.557321	0.243428
31247	9.700569	0.217967	2.832086	0.443587	-0.585483	-0.126490	-0.214894	-0.107346	0.970720	0.570691	-0.820392	0.035615	0.792548	0.561635	0.237559
31248	9.555620	1.251754	2.092403	0.621282	-0.585039	-0.138150	-0.210978	-0.102920	0.972057	0.575385	-0.816982	0.038382	0.790203	0.567405	0.231584
31249	9.726800	2.642000	1.988484	0.712683	-0.569833	-0.167867	-0.207395	-0.098321	0.973304	0.580689	-0.813062	0.041602	0.787266	0.573815	0.225719
31250	9.846944	2.989208	1.652925	0.384448	-0.508507	-0.184109	-0.204389	-0.093902	0.974376	0.583413	-0.810971	0.044225	0.786037	0.577502	0.220537
31251	9.679160	2.064318	0.809980	0.176632	-0.488847	-0.176714	-0.201519	-0.089661	0.975372	0.584476	-0.810090	0.046290	0.785988	0.579410	0.215653
31252	9.645081	1.400914	0.176698	0.146652	-0.521178	-0.156151	-0.198257	-0.085369	0.976425	0.585409	-0.809310	0.048105	0.786124	0.581145	0.210427
31253	9.695907	1.173146	0.068219	0.151581	-0.540702	-0.111735	-0.194602	-0.081338	0.977504	0.586414	-0.808499	0.049469	0.786288	0.582849	0.205033
31254	9.806061	1.130133	0.247652	0.150250	-0.546902	-0.069775	-0.190629	-0.077573	0.978592	0.587565	-0.807604	0.050439	0.786402	0.584601	0.199532
31255	9.876177	1.294446	0.341120	0.151948	-0.564832	-0.036014	-0.186340	-0.073994	0.979695	0.588725	-0.806720	0.051047	0.786563	0.586283	0.193886
31256	9.760513	1.267188	0.514404	0.078457	-0.596695	-0.032095	-0.181750	-0.070219	0.980834	0.589396	-0.806201	0.051499	0.787134	0.587460	0.187914
31257	9.762913	0.803973	1.010725	-0.066582	-0.600061	-0.027521	-0.177126	-0.066492	0.981940	0.588854	-0.806590	0.051602	0.788592	0.587359	0.182022
31258	9.736980	0.383966	1.491535	-0.091465	-0.591718	-0.004169	-0.172395	-0.062965	0.983013	0.588244	-0.807044	0.051469	0.790094	0.587124	0.176169
31259	9.790892	0.717530	1.817440	-0.040449	-0.574881	0.029204	-0.167619	-0.059844	0.984034	0.588006	-0.807243	0.051067	0.791298	0.587177	0.170498
31260	9.509820	1.046937	1.871767	-0.042489	-0.553528	0.054280	-0.162833	-0.057013	0.985005	0.587877	-0.807376	0.050451	0.792393	0.587277	0.164984
31261	9.459389	1.292114	1.895945	-0.065040	-0.544809	0.056557	-0.158121	-0.054290	0.985926	0.587484	-0.807706	0.049743	0.793638	0.587081	0.159609
31262	9.438688	1.144781	1.495720	-0.129969	-0.508787	0.057826	-0.153657	-0.051751	0.986768	0.586660	-0.808352	0.048960	0.795122	0.586421	0.154569
31263	9.345096	1.028223	0.912768	-0.054923	-0.525881	0.064221	-0.149037	-0.049206	0.987607	0.586352	-0.808621	0.048197	0.796228	0.586268	0.149366
31264	9.365035	1.198534	0.648093	0.012467	-0.566411	0.051969	-0.144139	-0.046280	0.988475	0.586649	-0.808436	0.047694	0.796911	0.586762	0.143677
31265	9.436253	1.301536	0.605554	-0.003577	-0.584269	0.034838	-0.139216	-0.043152	0.989321	0.586701	-0.808421	0.047298	0.797747	0.587020	0.137862
31266	9.551581	1.100798	0.597227	-0.044522	-0.601240	0.032205	-0.134146	-0.039855	0.990160	0.586517	-0.808577	0.046915	0.798751	0.587039	0.131843
31267	9.565503	0.869335	0.575666	-0.052051	-0.623468	0.051153	-0.128803	-0.036628	0.990994	0.586198	-0.808844	0.046295	0.799863	0.586882	0.125653
31268	9.618231	0.834104	0.899232	-0.079605	-0.623159	0.077997	-0.123276	-0.033571	0.991804	0.585791	-0.809189	0.045421	0.801032	0.586589	0.119420
31269	9.695969	0.525384	1.348925	-0.147503	-0.621031	0.094972	-0.117681	-0.030719	0.992576	0.584753	-0.810003	0.044260	0.802630	0.585620	0.113285
31270	9.484015	0.330929	1.698751	-0.181129	-0.603249	0.115898	-0.112076	-0.028097	0.993302	0.583561	-0.810935	0.042906	0.804298	0.584462	0.107283
31271	9.296565	0.419020	2.092212	-0.180848	-0.625363	0.125782	-0.106248	-0.025485	0.994013	0.582272	-0.811938	0.041421	0.806021	0.583187	0.101106
31272	9.528092	0.453603	2.547167	-0.197995	-0.618694	0.131106	-0.100415	-0.022915	0.994682	0.580936	-0.812970	0.039918	0.807732	0.581855	0.094946
31273	9.281361	0.573239	2.797530	-0.196534	-0.618839	0.124574	-0.094628	-0.020351	0.995305	0.579498	-0.814066	0.038450	0.809461	0.580415	0.088827
31274	9.322400	0.777195	2.878083	-0.172497	-0.631343	0.115138	-0.088771	-0.017600	0.995897	0.578323	-0.814962	0.037147	0.810964	0.579248	0.082523
31275	9.499010	0.819040	2.720084	-0.205242	-0.599502	0.103446	-0.083247	-0.014995	0.996416	0.576775	-0.816114	0.035906	0.812650	0.577697	0.076587
31276	9.134524	0.659977	2.226686	-0.211690	-0.579921	0.090507	-0.077936	-0.012362	0.996882	0.575236	-0.817245	0.034837	0.814266	0.576157	0.070804
31277	9.214576	0.256201	1.661526	-0.194522	-0.592077	0.096301	-0.072497	-0.009763	0.997321	0.573751	-0.818336	0.033697	0.815815	0.574657	0.064928
31278	9.349914	-0.229274	1.134237	-0.121971	-0.611283	0.115068	-0.066778	-0.007171	0.997742	0.572940	-0.818954	0.032461	0.816873	0.573814	0.058796
31279	9.272192	-0.201253	0.807853	0.059139	-0.665704	0.150711	-0.060416	-0.004602	0.998163	0.573547	-0.818588	0.030941	0.816942	0.574362	0.052095
31280	9.168479	0.131234	0.842484	0.228264	-0.735976	0.178156	-0.053314	-0.001803	0.998576	0.575610	-0.817201	0.029256	0.815985	0.576350	0.044606
31281	9.103149	0.633643	0.827549	0.367689	-0.822372	0.210784	-0.045334	0.001210	0.998971	0.578739	-0.815058	0.027251	0.814252	0.579378	0.036250
31282	8.981403	0.877248	1.114935	0.433465	-0.905528	0.227554	-0.036582	0.004643	0.999320	0.582451	-0.812478	0.025097	0.812042	0.582973	0.027018
31283	8.756882	0.820969	1.328001	0.481937	-1.011682	0.250495	-0.026855	0.008510	0.999603	0.586465	-0.809658	0.022649	0.809529	0.586840	0.016753
31284	9.096031	1.133180	1.804069	0.621765	-1.112999	0.291154	-0.016083	0.012742	0.999789	0.591641	-0.805959	0.019789	0.806041	0.591835	0.005424
31285	9.116770	1.278404	2.602517	0.614916	-1.146840	0.306758	-0.004977	0.017072	0.999842	0.596644	-0.802333	0.016669	0.802490	0.596633	-0.006193
31286	9.222736	0.848391	3.152186	0.635509	-1.145429	0.319705	0.006171	0.021399	0.999752	0.601814	-0.798524	0.013377	0.798612	0.601583	-0.017806
31287	9.504819	0.875829	3.929310	0.716588	-1.129634	0.317521	0.017148	0.025679	0.999523	0.607508	-0.794251	0.009983	0.794128	0.607047	-0.029220
31288	9.207555	0.823940	4.281325	0.818083	-1.061457	0.322716	0.027577	0.029618	0.999181	0.613980	-0.789295	0.006451	0.788839	0.613300	-0.039951
31289	10.129980	1.512714	4.766823	1.047367	-0.974056	0.326182	0.037305	0.033050	0.998757	0.622124	-0.782914	0.002671	0.782030	0.621251	-0.049768
31290	10.757588	3.326112	6.009679	1.208789	-0.849834	0.311800	0.045928	0.035937	0.998298	0.631309	-0.775531	-0.001126	0.774170	0.630286	-0.058306
31291	11.448015	4.783133	6.935814	0.972123	-0.589811	0.252916	0.052142	0.037707	0.997928	0.638701	-0.769443	-0.004298	0.767687	0.637601	-0.064204
31292	11.162001	4.635780	6.853988	0.368688	-0.242101	0.186157	0.055236	0.037811	0.997757	0.641300	-0.767264	-0.006426	0.765300	0.640216	-0.066628
31293	11.177171	3.482429	6.259884	0.009532	0.048656	0.140568	0.055826	0.036406	0.997777	0.641315	-0.767237	-0.007887	0.765244	0.640330	-0.066180
31294	12.480831	2.067309	5.766653	-0.151290	0.232756	0.123109	0.054860	0.033964	0.997916	0.640112	-0.768228	-0.009044	0.766320	0.639274	-0.063886
31295	13.993721	0.493445	5.701856	-0.151760	0.431433	0.148724	0.052564	0.030050	0.998165	0.638889	-0.769227	-0.010486	0.767501	0.638268	-0.059632
31296	14.619386	0.845050	6.334693	0.279441	0.715743	0.171407	0.048192	0.024132	0.998547	0.640947	-0.767485	-0.012386	0.766070	0.640613	-0.052454
31297	14.896984	1.197145	6.434618	0.151987	0.994755	0.171328	0.041735	0.016424	0.998994	0.642056	-0.766526	-0.014221	0.765521	0.642003	-0.042536
31298	13.702476	1.170754	6.423493	-0.025124	1.231004	0.139844	0.033215	0.007408	0.999421	0.641789	-0.766722	-0.015646	0.766162	0.641937	-0.030221
31299	12.704613	1.685597	6.274165	-0.181632	1.425598	0.084406	0.022883	-0.002396	0.999735	0.640394	-0.767869	-0.016499	0.767705	0.640602	-0.016037
31300	12.025697	1.593592	5.808480	-0.516650	1.609760	0.028606	0.010678	-0.012951	0.999859	0.636372	-0.771200	-0.016785	0.771309	0.636461	0.000007
31301	11.136574	1.208969	4.601949	-0.765150	1.937252	-0.003357	-0.004272	-0.025209	0.999673	0.630475	-0.776026	-0.016875	0.776198	0.630196	0.019209
31302	9.950844	0.667740	3.316717	-1.055854	2.022519	-0.036673	-0.020280	-0.037642	0.999085	0.622142	-0.782723	-0.016862	0.782642	0.621231	0.039292
31303	10.892987	-0.364284	2.034964	-1.359903	1.896333	-0.103503	-0.035774	-0.048516	0.998182	0.611442	-0.791117	-0.016538	0.790480	0.609738	0.057966
31304	11.030752	-1.647422	0.167888	-1.350585	1.833819	-0.203397	-0.051600	-0.058030	0.996980	0.600411	-0.799542	-0.015463	0.798025	0.597800	0.076098
31305	12.450929	-2.103541	-1.045566	-0.871723	1.712787	-0.289700	-0.066974	-0.065895	0.995576	0.593291	-0.804877	-0.013362	0.802197	0.589772	0.093000
31306	13.346976	-1.494573	-1.949140	-0.386494	1.735044	-0.365928	-0.083082	-0.073204	0.993850	0.589851	-0.807448	-0.010165	0.803226	0.585380	0.110264
