// General information: 
//  MT Manager version: 2022.2.0 
//  XDA version: 2022.2.0 build 7381 rev 124627 built on 2023-07-19
// Device information: 
//  DeviceId: 00B4CAF0
//  ProductCode: MTW2-3A7G6
//  Firmware Version: 4.6.0
//  Hardware Version: 2.0.0
// Device settings: 
//  Filter Profile: human(46.1)
//  Option Flags: Orientation Smoother Disabled, Position/Velocity Smoother Disabled, Continuous Zero Rotation Update Disabled, AHS Disabled, ICC Disabled
// Coordinate system: ENU
PacketCounter	Acc_X	Acc_Y	Acc_Z	Gyr_X	Gyr_Y	Gyr_Z	Mat[1][1]	Mat[2][1]	Mat[3][1]	Mat[1][2]	Mat[2][2]	Mat[3][2]	Mat[1][3]	Mat[2][3]	Mat[3][3]
64754	4.611137	0.046304	9.133265	-0.002995	0.011836	0.001398	0.700195	0.552716	0.451920	-0.619821	0.784743	0.000565	-0.354329	-0.280506	0.892058
64755	4.610315	0.062390	9.185870	-0.002244	0.011654	0.002788	0.700213	0.552740	0.451862	-0.619812	0.784750	0.000526	-0.354308	-0.280438	0.892087
64756	4.618732	0.083659	9.179621	0.001424	0.012388	0.002465	0.700194	0.552771	0.451855	-0.619854	0.784717	0.000552	-0.354273	-0.280471	0.892091
64757	4.588086	0.067070	9.174021	0.001465	0.008790	0.004362	0.700192	0.552799	0.451823	-0.619869	0.784705	0.000539	-0.354250	-0.280448	0.892108
64758	4.607515	0.062118	9.187276	0.001111	0.007082	0.004616	0.700266	0.552705	0.451825	-0.619758	0.784793	0.000524	-0.354299	-0.280389	0.892107
64759	4.596082	0.088342	9.167985	0.001820	0.010497	0.004109	0.700272	0.552736	0.451777	-0.619773	0.784781	0.000515	-0.354261	-0.280360	0.892131
64760	4.635382	0.078763	9.194278	0.004737	0.011412	0.002397	0.700356	0.552692	0.451700	-0.619711	0.784830	0.000552	-0.354203	-0.280310	0.892170
64761	4.614901	0.051642	9.168986	0.000755	0.005373	0.004869	0.700340	0.552714	0.451698	-0.619727	0.784817	0.000530	-0.354208	-0.280301	0.892171
64762	4.613862	0.083826	9.182068	0.004557	0.007780	0.000784	0.700453	0.552606	0.451654	-0.619604	0.784914	0.000565	-0.354198	-0.280242	0.892193
64763	4.613140	0.084135	9.182428	0.004027	0.007995	0.002904	0.700458	0.552621	0.451629	-0.619618	0.784903	0.000581	-0.354164	-0.280245	0.892206
64764	4.602376	0.078471	9.150239	0.002787	0.004795	0.005530	0.700483	0.552619	0.451593	-0.619608	0.784911	0.000594	-0.354132	-0.280227	0.892224
64765	4.631559	0.095125	9.156590	0.004423	0.006106	0.004548	0.700471	0.552641	0.451584	-0.619635	0.784890	0.000607	-0.354109	-0.280242	0.892228
64766	4.612156	0.052404	9.170363	0.001856	0.001345	0.002527	0.700515	0.552569	0.451604	-0.619567	0.784943	0.000620	-0.354141	-0.280233	0.892218
64767	4.610971	0.084638	9.183513	0.004918	0.015040	0.004010	0.700538	0.552612	0.451516	-0.619592	0.784924	0.000640	-0.354052	-0.280204	0.892263
64768	4.649885	0.106776	9.222576	-0.005694	0.005399	0.003139	0.700575	0.552543	0.451542	-0.619500	0.784997	0.000580	-0.354139	-0.280137	0.892249
64769	4.609511	0.084273	9.184249	0.004203	0.006071	0.001038	0.700585	0.552537	0.451534	-0.619501	0.784996	0.000607	-0.354117	-0.280151	0.892254
64770	4.629606	0.047248	9.184628	-0.002163	0.004458	0.006582	0.700687	0.552429	0.451509	-0.619347	0.785118	0.000547	-0.354185	-0.280023	0.892267
64771	4.648087	0.089877	9.171332	0.001996	0.008571	0.002244	0.700698	0.552439	0.451478	-0.619348	0.785116	0.000548	-0.354160	-0.280006	0.892282
64772	4.637484	0.100238	9.191226	-0.004944	0.005218	0.004530	0.700700	0.552442	0.451473	-0.619331	0.785130	0.000502	-0.354188	-0.279963	0.892284
64773	4.637214	0.067313	9.178814	-0.009577	0.010186	0.003430	0.700709	0.552466	0.451428	-0.619300	0.785154	0.000395	-0.354223	-0.279846	0.892307
64774	4.636142	0.066395	9.179362	-0.007585	0.013203	0.002195	0.700793	0.552494	0.451265	-0.619252	0.785192	0.000340	-0.354142	-0.279685	0.892390
64775	4.604381	0.112865	9.199418	-0.013815	0.013263	0.003974	0.700810	0.552531	0.451193	-0.619210	0.785225	0.000192	-0.354182	-0.279518	0.892427
64776	4.643339	0.085217	9.173782	-0.014170	0.011555	0.004227	0.700850	0.552536	0.451125	-0.619139	0.785281	0.000060	-0.354227	-0.279351	0.892461
64777	4.622698	0.072787	9.200711	-0.018232	0.012710	0.002904	0.700871	0.552564	0.451057	-0.619074	0.785333	-0.000122	-0.354297	-0.279152	0.892495
64778	4.611551	0.064850	9.168735	-0.024424	0.009172	0.006579	0.700817	0.552640	0.451048	-0.619070	0.785336	-0.000341	-0.354413	-0.278991	0.892500
64779	4.600964	0.041100	9.176041	-0.020794	0.013500	0.004365	0.700833	0.552682	0.450973	-0.619006	0.785386	-0.000553	-0.354494	-0.278767	0.892537
64780	4.589190	0.065390	9.156962	-0.018014	0.012738	0.006418	0.700867	0.552715	0.450879	-0.618940	0.785438	-0.000729	-0.354541	-0.278556	0.892585
64781	4.619224	0.000146	9.177320	-0.019119	0.011211	0.005280	0.700869	0.552756	0.450825	-0.618888	0.785479	-0.000930	-0.354627	-0.278358	0.892612
64782	4.597536	0.035372	9.177783	-0.014563	0.013437	0.002590	0.700942	0.552748	0.450722	-0.618793	0.785554	-0.001055	-0.354650	-0.278164	0.892664
64783	4.615568	0.044559	9.152225	-0.017339	0.019744	0.004024	0.700981	0.552804	0.450592	-0.618739	0.785596	-0.001235	-0.354665	-0.277933	0.892729
64784	4.613616	0.075323	9.165828	-0.008332	0.013376	0.000815	0.701033	0.552779	0.450541	-0.618667	0.785652	-0.001301	-0.354688	-0.277823	0.892755
64785	4.563201	0.046694	9.186551	-0.016733	0.012334	0.005691	0.701037	0.552828	0.450477	-0.618626	0.785684	-0.001482	-0.354752	-0.277638	0.892787
64786	4.571489	0.066770	9.180455	-0.009257	0.015477	0.001294	0.701101	0.552843	0.450358	-0.618574	0.785725	-0.001554	-0.354716	-0.277490	0.892847
64787	4.590476	0.060786	9.193963	-0.011963	0.009044	0.003026	0.701109	0.552861	0.450323	-0.618532	0.785758	-0.001680	-0.354774	-0.277361	0.892864
64788	4.598774	0.113278	9.200500	-0.005516	0.009016	0.004762	0.701171	0.552836	0.450257	-0.618458	0.785816	-0.001736	-0.354779	-0.277248	0.892897
64789	4.598149	0.095819	9.148681	-0.014669	0.002611	0.004758	0.701146	0.552850	0.450280	-0.618419	0.785846	-0.001895	-0.354898	-0.277133	0.892885
64790	4.608385	0.067934	9.168517	-0.013564	0.004134	0.005899	0.701156	0.552812	0.450310	-0.618330	0.785916	-0.002037	-0.355032	-0.277012	0.892870
64791	4.598701	0.045000	9.175306	-0.012603	-0.001566	0.007312	0.701100	0.552834	0.450370	-0.618316	0.785927	-0.002189	-0.355168	-0.276936	0.892839
64792	4.588306	0.070186	9.155580	-0.007121	-0.001439	0.004146	0.701051	0.552819	0.450465	-0.618306	0.785934	-0.002252	-0.355281	-0.276947	0.892791
64793	4.608443	0.064363	9.168513	-0.008794	0.000846	0.003234	0.701029	0.552816	0.450504	-0.618277	0.785957	-0.002352	-0.355376	-0.276887	0.892772
64794	4.598748	0.041681	9.175298	-0.011674	0.001875	0.010323	0.701053	0.552746	0.450552	-0.618154	0.786053	-0.002507	-0.355543	-0.276753	0.892747
64795	4.558915	0.034712	9.188731	-0.004377	0.001396	0.004308	0.701026	0.552753	0.450585	-0.618147	0.786058	-0.002571	-0.355607	-0.276725	0.892730
64796	4.578996	0.012944	9.149529	-0.001563	-0.002964	0.008251	0.701115	0.552630	0.450597	-0.617992	0.786180	-0.002626	-0.355701	-0.276624	0.892724
64797	4.588658	0.065892	9.155435	-0.002849	-0.008113	0.005490	0.701047	0.552619	0.450715	-0.617999	0.786175	-0.002682	-0.355823	-0.276661	0.892664
64798	4.609276	0.092441	9.180784	-0.001316	-0.012078	0.010163	0.701032	0.552516	0.450866	-0.617912	0.786243	-0.002741	-0.356005	-0.276674	0.892588
64799	4.650225	0.066016	9.154123	0.003206	-0.006252	0.005584	0.700970	0.552512	0.450967	-0.617941	0.786220	-0.002744	-0.356076	-0.276748	0.892536
64800	4.640401	0.108367	9.186288	-0.002276	-0.006379	0.008752	0.700914	0.552491	0.451081	-0.617937	0.786222	-0.002793	-0.356193	-0.276782	0.892479
64801	4.630792	0.102034	9.153518	-0.002451	-0.004461	0.010622	0.700827	0.552531	0.451166	-0.617982	0.786187	-0.002869	-0.356286	-0.276802	0.892435
64802	4.611619	0.074100	9.127452	-0.006693	-0.006929	0.007679	0.700809	0.552511	0.451219	-0.617948	0.786214	-0.002944	-0.356381	-0.276766	0.892408
64803	4.603043	0.036171	9.173167	-0.000064	-0.003334	0.011034	0.700724	0.552558	0.451294	-0.618004	0.786170	-0.003001	-0.356452	-0.276799	0.892370
64804	4.552088	0.104405	9.140444	0.008911	-0.000557	0.009417	0.700676	0.552504	0.451434	-0.618004	0.786169	-0.002970	-0.356545	-0.276908	0.892299
64805	4.574781	0.003204	9.205739	-0.016425	-0.015065	0.004416	0.700590	0.552466	0.451615	-0.617955	0.786207	-0.003142	-0.356799	-0.276876	0.892207
64806	4.734754	0.026018	9.151590	0.010829	-0.011961	0.012239	0.700551	0.552384	0.451774	-0.617937	0.786222	-0.003098	-0.356906	-0.276997	0.892127
64807	4.605827	0.066523	9.184458	-0.007408	-0.010344	0.008182	0.700459	0.552389	0.451912	-0.617946	0.786214	-0.003208	-0.357071	-0.277011	0.892057
64808	4.656690	-0.003191	9.125505	-0.001910	0.000869	0.011994	0.700433	0.552408	0.451929	-0.617949	0.786211	-0.003269	-0.357118	-0.276979	0.892048
64809	4.576212	0.048679	9.178215	0.002082	0.006907	0.009534	0.700393	0.552470	0.451913	-0.618002	0.786170	-0.003300	-0.357104	-0.276972	0.892056
64810	4.616655	0.037870	9.203955	-0.008613	-0.011605	0.016185	0.700257	0.552551	0.452027	-0.618083	0.786105	-0.003421	-0.357230	-0.276995	0.891998
64811	4.588208	0.036284	9.249321	-0.007550	-0.012027	0.011944	0.700135	0.552580	0.452179	-0.618118	0.786077	-0.003548	-0.357408	-0.277016	0.891920
64812	4.600469	-0.040103	9.203178	-0.017424	-0.021844	0.012445	0.700029	0.552521	0.452416	-0.618051	0.786129	-0.003756	-0.357733	-0.276987	0.891799
64813	4.621142	0.016995	9.149505	-0.004215	-0.022149	0.010275	0.699881	0.552509	0.452659	-0.618086	0.786101	-0.003846	-0.357961	-0.277091	0.891675
64814	4.563573	0.046894	9.161611	-0.013168	-0.034071	0.010298	0.699737	0.552408	0.453006	-0.618032	0.786143	-0.004001	-0.358337	-0.277172	0.891499
64815	4.585915	0.088056	9.146626	-0.012418	-0.034261	0.011690	0.699536	0.552373	0.453357	-0.618047	0.786130	-0.004170	-0.358701	-0.277279	0.891319
64816	4.561355	-0.010046	9.151928	-0.016966	-0.051186	0.009294	0.699280	0.552283	0.453863	-0.618055	0.786123	-0.004338	-0.359188	-0.277479	0.891061
64817	4.625895	-0.042962	9.136227	-0.011473	-0.045523	0.009615	0.699051	0.552201	0.454314	-0.618059	0.786119	-0.004490	-0.359624	-0.277654	0.890830
64818	4.641485	-0.166824	9.115000	-0.008334	-0.044588	0.011416	0.698806	0.552136	0.454771	-0.618104	0.786083	-0.004597	-0.360025	-0.277883	0.890597
64819	4.605255	-0.140994	9.139502	0.010724	-0.037516	0.009294	0.698608	0.552074	0.455150	-0.618186	0.786019	-0.004549	-0.360268	-0.278189	0.890403
64820	4.588262	-0.103276	9.137824	0.013284	-0.038312	0.007832	0.698450	0.551949	0.455544	-0.618221	0.785992	-0.004459	-0.360515	-0.278512	0.890202
64821	4.700516	-0.042028	9.128021	0.021014	-0.038750	0.008823	0.698251	0.551879	0.455934	-0.618336	0.785902	-0.004318	-0.360702	-0.278905	0.890003
64822	4.672820	0.039245	9.159112	0.024102	-0.025057	0.010326	0.698143	0.551745	0.456261	-0.618368	0.785878	-0.004155	-0.360858	-0.279236	0.889836
64823	4.695570	0.003698	9.157875	0.019155	-0.025395	0.011387	0.697975	0.551732	0.456532	-0.618495	0.785779	-0.004042	-0.360964	-0.279541	0.889698
64824	4.726214	0.037653	9.123911	0.031219	-0.008926	0.011244	0.697870	0.551783	0.456633	-0.618688	0.785627	-0.003793	-0.360836	-0.279867	0.889647
64825	4.725304	0.200199	9.188019	0.032483	-0.000172	0.012107	0.697789	0.551846	0.456680	-0.618868	0.785487	-0.003565	-0.360684	-0.280137	0.889624
64826	4.676506	0.206545	9.220831	0.013271	-0.014473	0.014530	0.697657	0.551857	0.456869	-0.618974	0.785404	-0.003500	-0.360758	-0.280348	0.889527
64827	4.659285	0.114966	9.168326	-0.006660	-0.032192	0.017462	0.697427	0.551872	0.457201	-0.619050	0.785343	-0.003645	-0.361071	-0.280488	0.889356
64828	4.672753	0.087250	9.186464	-0.005022	-0.030883	0.016478	0.697310	0.551791	0.457478	-0.619011	0.785374	-0.003759	-0.361365	-0.280563	0.889213
64829	4.656806	0.074840	9.211119	-0.012085	-0.045083	0.020957	0.697012	0.551797	0.457924	-0.619091	0.785309	-0.003968	-0.361802	-0.280731	0.888982
64830	4.652108	-0.044779	9.177161	-0.011691	-0.046987	0.022603	0.696715	0.551791	0.458384	-0.619171	0.785245	-0.004156	-0.362237	-0.280923	0.888745
64831	4.685971	0.001508	9.193865	-0.013950	-0.046435	0.018439	0.696427	0.551773	0.458841	-0.619228	0.785199	-0.004370	-0.362693	-0.281084	0.888507
64832	4.681044	-0.085767	9.172709	-0.005465	-0.047071	0.020811	0.696190	0.551654	0.459345	-0.619210	0.785213	-0.004523	-0.363178	-0.281282	0.888247
64833	4.704594	-0.044316	9.156912	-0.004417	-0.047499	0.016568	0.695910	0.551618	0.459812	-0.619287	0.785151	-0.004644	-0.363583	-0.281524	0.888004
64834	4.669277	-0.082930	9.155616	0.003115	-0.042418	0.017520	0.695716	0.551538	0.460202	-0.619320	0.785125	-0.004684	-0.363899	-0.281753	0.887802
64835	4.751185	-0.023698	9.099949	0.014480	-0.038530	0.016264	0.695470	0.551525	0.460589	-0.619464	0.785012	-0.004636	-0.364124	-0.282094	0.887602
64836	4.674539	-0.018755	9.086427	0.015198	-0.035113	0.015759	0.695281	0.551471	0.460939	-0.619558	0.784938	-0.004564	-0.364326	-0.282405	0.887420
64837	4.678967	-0.065817	9.111020	0.016675	-0.041049	0.015055	0.695033	0.551441	0.461348	-0.619701	0.784825	-0.004491	-0.364555	-0.282777	0.887208
64838	4.751824	-0.105817	9.075845	0.044025	-0.029103	0.015193	0.694940	0.551301	0.461656	-0.619781	0.784764	-0.004182	-0.364596	-0.283219	0.887049
64839	4.743149	-0.043587	9.068085	0.056145	-0.016246	0.016902	0.694771	0.551356	0.461845	-0.620081	0.784529	-0.003768	-0.364408	-0.283764	0.886953
64840	4.794470	-0.027754	9.086067	0.059777	-0.011922	0.014670	0.694688	0.551322	0.462010	-0.620292	0.784364	-0.003308	-0.364208	-0.284283	0.886869
64841	4.763730	0.008584	9.053706	0.063934	0.010524	0.013468	0.694638	0.551426	0.461962	-0.620596	0.784125	-0.002809	-0.363785	-0.284740	0.886895
64842	4.703245	0.030252	9.107539	0.077261	0.021018	0.009056	0.694676	0.551453	0.461871	-0.620858	0.783920	-0.002165	-0.363264	-0.285253	0.886944
64843	4.730531	0.100493	9.087678	0.068844	0.014426	0.010511	0.694658	0.551544	0.461789	-0.621159	0.783683	-0.001608	-0.362783	-0.285727	0.886988
64844	4.710075	0.126904	9.127401	0.050302	0.007176	0.010591	0.694657	0.551570	0.461760	-0.621344	0.783537	-0.001201	-0.362468	-0.286078	0.887004
64845	4.690398	0.088069	9.141376	0.043287	0.001879	0.007537	0.694612	0.551602	0.461789	-0.621531	0.783389	-0.000857	-0.362233	-0.286421	0.886989
64846	4.630774	0.059090	9.129618	0.048141	-0.003099	0.012148	0.694540	0.551625	0.461870	-0.621744	0.783220	-0.000472	-0.362006	-0.286837	0.886947
64847	4.731065	0.101130	9.126956	0.045941	-0.018929	0.010236	0.694403	0.551619	0.462084	-0.621959	0.783049	-0.000117	-0.361899	-0.287316	0.886836
64848	4.682490	0.125559	9.120190	0.046141	-0.015299	0.011844	0.694414	0.551466	0.462250	-0.621991	0.783024	0.000234	-0.361824	-0.287678	0.886750
64849	4.695506	0.102441	9.138603	0.037030	-0.038068	0.014172	0.694183	0.551435	0.462633	-0.622201	0.782857	0.000491	-0.361905	-0.288192	0.886550
64850	4.718985	0.003763	9.111814	0.034013	-0.028159	0.010172	0.694086	0.551359	0.462870	-0.622316	0.782766	0.000769	-0.361895	-0.288586	0.886426
64851	4.662748	-0.041298	9.138247	0.044300	-0.029439	0.009684	0.693914	0.551317	0.463177	-0.622521	0.782602	0.001112	-0.361870	-0.289109	0.886265
64852	4.695306	0.043627	9.167828	0.059927	-0.032311	0.009776	0.693722	0.551276	0.463513	-0.622807	0.782374	0.001619	-0.361748	-0.289803	0.886088
64853	4.699973	-0.031772	9.180073	0.044522	-0.047777	0.010114	0.693481	0.551184	0.463983	-0.623016	0.782206	0.001961	-0.361849	-0.290429	0.885842
64854	4.712827	0.023937	9.091759	0.041919	-0.061728	0.006583	0.693266	0.550948	0.464584	-0.623109	0.782131	0.002297	-0.362100	-0.291079	0.885526
64855	4.514780	-0.050850	9.335539	0.030599	-0.062567	-0.012339	0.693112	0.550636	0.465183	-0.623112	0.782128	0.002620	-0.362390	-0.291677	0.885211
64856	4.793439	0.083528	8.997872	0.027330	-0.102217	-0.025642	0.693065	0.549912	0.466109	-0.622784	0.782388	0.002972	-0.363043	-0.292345	0.884723
64857	4.530334	0.083757	9.285943	0.025566	-0.111105	-0.033451	0.692865	0.549292	0.467136	-0.622623	0.782515	0.003349	-0.363701	-0.293170	0.884179
64858	4.640798	-0.021608	9.174919	-0.031542	-0.151406	-0.057158	0.692692	0.548307	0.468548	-0.622034	0.782983	0.003334	-0.365037	-0.293762	0.883432
64859	4.547987	0.065092	9.279677	-0.024441	-0.174966	-0.095282	0.692640	0.547013	0.470135	-0.621262	0.783595	0.003560	-0.366448	-0.294543	0.882587
64860	4.429715	0.118890	9.417295	-0.090267	-0.215461	-0.142961	0.692678	0.545304	0.472059	-0.620022	0.784577	0.003480	-0.368469	-0.295098	0.881560
64861	4.296758	0.093037	9.462877	-0.144671	-0.311771	-0.217369	0.692865	0.542643	0.474843	-0.617958	0.786204	0.003230	-0.371571	-0.295671	0.880064
64862	3.839187	0.134464	9.698235	-0.227027	-0.404225	-0.300731	0.693256	0.539046	0.478357	-0.614988	0.788532	0.002695	-0.375747	-0.296052	0.878161
64863	3.637303	0.091270	9.844878	-0.302602	-0.647406	-0.362446	0.693019	0.534230	0.484069	-0.611307	0.791392	0.001782	-0.382136	-0.297149	0.875028
64864	3.282063	-0.035284	10.117475	-0.425513	-0.935131	-0.411651	0.691899	0.528138	0.492287	-0.606792	0.794861	0.000088	-0.391253	-0.298776	0.870433
64865	3.239016	-0.325128	10.200354	-0.543846	-1.291009	-0.433790	0.689383	0.520774	0.503533	-0.601612	0.798785	-0.002473	-0.403502	-0.301226	0.863973
64866	3.101603	-0.330806	10.327657	-0.587453	-1.646943	-0.444165	0.685271	0.512190	0.517750	-0.596124	0.802876	-0.005250	-0.418378	-0.305046	0.855516
64867	3.238394	-0.012116	10.150823	-0.634171	-2.037199	-0.443384	0.679189	0.502318	0.535143	-0.590366	0.807093	-0.008310	-0.436085	-0.310286	0.844720
64868	3.880213	0.259598	9.712567	-0.676346	-2.404495	-0.433958	0.670941	0.491300	0.555395	-0.584495	0.811315	-0.011591	-0.456295	-0.316849	0.831506
64869	4.654750	0.513978	9.552679	-0.683346	-2.656504	-0.428488	0.661011	0.479264	0.577383	-0.578425	0.815601	-0.014796	-0.478006	-0.324192	0.816339
64870	5.234455	0.227111	8.862270	-0.605367	-2.758711	-0.447343	0.650005	0.466598	0.599817	-0.572644	0.819627	-0.017030	-0.499572	-0.332412	0.799956
64871	5.809325	0.087511	8.286308	-0.413215	-2.810384	-0.468891	0.638336	0.453233	0.622180	-0.567493	0.823194	-0.017435	-0.520077	-0.341953	0.782680
64872	6.395336	0.106943	7.800452	-0.272112	-2.779031	-0.493468	0.626287	0.439568	0.643851	-0.563053	0.826258	-0.016407	-0.539199	-0.352247	0.764975
64873	6.552778	-0.084297	7.586779	-0.087431	-2.754012	-0.508112	0.614030	0.425470	0.664787	-0.559399	0.828785	-0.013741	-0.556812	-0.363444	0.746906
64874	6.949041	-0.062625	7.451796	0.080217	-2.720808	-0.511502	0.601435	0.411163	0.684997	-0.556790	0.830596	-0.009689	-0.572940	-0.375573	0.728481
64875	6.985986	-0.019719	7.578472	0.149697	-2.704925	-0.497201	0.588475	0.396666	0.704523	-0.554677	0.832050	-0.005155	-0.588243	-0.387749	0.709662
64876	6.883944	-0.157643	7.678095	0.215988	-2.753749	-0.496593	0.574722	0.381651	0.723904	-0.553110	0.833108	-0.000100	-0.603129	-0.400341	0.689900
64877	7.342442	-0.134372	7.850312	0.213639	-2.824386	-0.514673	0.560299	0.365838	0.743120	-0.551469	0.834179	0.005132	-0.618018	-0.412683	0.669139
64878	7.724091	-0.084344	8.693013	0.136789	-2.901310	-0.515273	0.544861	0.349436	0.762247	-0.549657	0.835331	0.009960	-0.633249	-0.424401	0.647209
64879	9.026653	-0.028516	9.953171	-0.151640	-2.971525	-0.503736	0.528532	0.332437	0.781115	-0.545956	0.837715	0.012889	-0.650066	-0.433267	0.624254
64880	10.100580	-0.425977	10.296335	-0.349860	-2.933082	-0.453702	0.511502	0.315820	0.799139	-0.541443	0.840615	0.014349	-0.667237	-0.440028	0.600975
64881	10.189442	-0.372978	9.892932	-0.410011	-2.850559	-0.388964	0.494319	0.299882	0.815917	-0.536693	0.843643	0.015080	-0.683820	-0.445352	0.577973
64882	11.445798	0.699753	10.665639	-0.695949	-2.900289	-0.364304	0.475934	0.283800	0.832433	-0.530241	0.847729	0.014145	-0.701663	-0.448122	0.553946
64883	11.065244	0.256707	10.636342	-1.035742	-2.825667	-0.324600	0.457524	0.268347	0.847739	-0.521338	0.853276	0.011266	-0.720332	-0.447113	0.530294
64884	9.505030	0.297020	10.184284	-1.140206	-2.836859	-0.358505	0.438580	0.252601	0.862462	-0.511518	0.859231	0.008463	-0.738916	-0.444876	0.506051
64885	8.651661	0.340850	9.897029	-1.316210	-2.910450	-0.421256	0.418896	0.236037	0.876820	-0.499836	0.866102	0.005642	-0.758083	-0.440629	0.480786
64886	7.830477	-0.426923	9.393734	-1.356783	-3.006647	-0.532802	0.398436	0.218208	0.890861	-0.487219	0.873270	0.004009	-0.777088	-0.435642	0.454258
64887	7.252492	-3.150595	8.230029	-1.223598	-3.033088	-0.759889	0.378220	0.198355	0.904215	-0.474628	0.880170	0.005449	-0.794782	-0.431227	0.427043
64888	6.285500	-0.773181	10.262883	-0.255176	-2.701838	-0.903033	0.360852	0.178699	0.915343	-0.469257	0.882972	0.012614	-0.805967	-0.434083	0.402478
64889	3.451479	1.839066	12.699210	-0.281702	-2.528548	-1.111971	0.345494	0.157822	0.925055	-0.463022	0.886080	0.021759	-0.816238	-0.435838	0.379210
64890	1.288559	1.323465	13.404880	-0.665328	-1.878984	-1.332170	0.336175	0.137834	0.931659	-0.453037	0.890929	0.031664	-0.825678	-0.432720	0.361952
64891	10.150435	2.747147	16.176029	-0.890956	-1.535062	-1.423124	0.329758	0.118475	0.936602	-0.440878	0.896593	0.041810	-0.834797	-0.426715	0.347891
64892	5.458948	-3.099779	15.712377	-1.446539	0.015911	-1.342782	0.335719	0.106474	0.935925	-0.424317	0.904168	0.049342	-0.840980	-0.413694	0.348725
64893	0.749536	-2.336800	13.242056	-0.078768	1.289606	-1.177300	0.351472	0.101100	0.930724	-0.419588	0.905725	0.060066	-0.836907	-0.411632	0.360757
64894	-2.868970	-2.075675	10.171362	-0.332052	1.429201	-0.985921	0.367540	0.098066	0.924823	-0.413322	0.908044	0.067974	-0.833114	-0.407233	0.374276
64895	-2.774829	-2.092517	9.321905	-0.476940	1.323277	-0.633739	0.381111	0.097614	0.919362	-0.406960	0.910603	0.072017	-0.830144	-0.401590	0.386765
64896	-1.083976	-1.429964	10.247523	-0.551178	1.418569	-0.232802	0.393840	0.101224	0.913589	-0.401560	0.913002	0.071949	-0.826825	-0.395197	0.400224
64897	0.482599	-1.260678	10.967375	-0.705047	1.746552	0.141977	0.407644	0.109312	0.906574	-0.396290	0.915619	0.067791	-0.822666	-0.386901	0.416566
64898	1.313127	-0.934543	10.883177	-0.639500	2.241407	0.424555	0.424372	0.121887	0.897247	-0.392902	0.917542	0.061188	-0.815804	-0.378497	0.437269
64899	1.592008	-0.104396	10.302651	-0.551681	2.679437	0.570842	0.443836	0.137117	0.885556	-0.390882	0.918877	0.053632	-0.806363	-0.369951	0.461427
64900	2.003293	0.911513	9.855998	-0.468896	3.018847	0.596781	0.465712	0.153766	0.871475	-0.389941	0.919685	0.046110	-0.794392	-0.361298	0.488267
64901	2.936377	2.251796	9.962229	-0.492382	3.280757	0.534337	0.489439	0.170337	0.855240	-0.388590	0.920584	0.039032	-0.780671	-0.351442	0.516761
64902	4.203822	3.212619	10.178823	-0.643066	3.522702	0.396776	0.515179	0.186294	0.836591	-0.385715	0.922056	0.032201	-0.765385	-0.339275	0.546880
64903	5.255687	3.573533	10.183419	-0.784075	3.779100	0.186631	0.543041	0.200528	0.815411	-0.380742	0.924308	0.026255	-0.748426	-0.324719	0.578287
64904	6.015582	3.647719	10.101197	-0.860335	4.013328	-0.054903	0.572945	0.212860	0.791469	-0.374179	0.927107	0.021529	-0.729194	-0.308486	0.610829
64905	6.839067	3.530072	10.015951	-0.940027	4.161297	-0.282408	0.603874	0.222670	0.765346	-0.365734	0.930548	0.017838	-0.708220	-0.290685	0.643372
64906	7.671819	3.024478	10.016503	-1.017411	4.258768	-0.457071	0.635245	0.230509	0.737109	-0.355905	0.934409	0.014512	-0.685416	-0.271559	0.675618
64907	8.356101	2.267150	9.953311	-1.049847	4.322049	-0.544601	0.666229	0.236683	0.707192	-0.345265	0.938438	0.011190	-0.661007	-0.251624	0.706933
64908	9.044155	1.367697	9.908895	-1.066632	4.349971	-0.533439	0.696271	0.242290	0.675649	-0.334807	0.942260	0.007128	-0.634910	-0.231175	0.737189
64909	9.550208	0.342455	9.761977	-1.029299	4.344501	-0.425684	0.724645	0.247842	0.643012	-0.325360	0.945588	0.002199	-0.607479	-0.210804	0.765853
64910	9.683309	-0.439422	9.524609	-0.913590	4.307947	-0.248176	0.751024	0.254275	0.609349	-0.318197	0.948018	-0.003419	-0.578544	-0.191325	0.792895
64911	9.751790	-0.813298	9.477173	-0.795805	4.234689	-0.032532	0.774978	0.261648	0.575281	-0.313436	0.949560	-0.009638	-0.548786	-0.172844	0.817899
64912	9.801927	-1.077941	9.372460	-0.735069	4.128548	0.211445	0.796375	0.270542	0.540920	-0.311262	0.950173	-0.016972	-0.518559	-0.154852	0.840903
64913	9.374739	-0.950314	9.126235	-0.629755	4.042388	0.441434	0.815328	0.280622	0.506450	-0.311623	0.949886	-0.024650	-0.487987	-0.137724	0.861917
64914	8.746536	-0.282689	9.052213	-0.574089	3.930057	0.598583	0.832045	0.291508	0.471937	-0.313930	0.948885	-0.032640	-0.457329	-0.120997	0.881028
64915	8.588872	0.638635	9.296017	-0.616987	3.824887	0.644886	0.846914	0.301897	0.437715	-0.316589	0.947673	-0.041069	-0.427210	-0.103794	0.898175
64916	8.954378	1.375239	9.462035	-0.775087	3.750494	0.607554	0.860456	0.311299	0.403371	-0.318664	0.946511	-0.050702	-0.397579	-0.084913	0.913631
64917	9.229380	1.599211	9.123876	-0.943102	3.711251	0.516757	0.873011	0.318934	0.368962	-0.319506	0.945594	-0.061389	-0.368467	-0.064293	0.927415
64918	9.432156	1.669810	8.426526	-1.066686	3.650522	0.393724	0.884679	0.324695	0.334538	-0.319264	0.944867	-0.072781	-0.339725	-0.042418	0.939568
64919	-0.532387	-1.686317	6.657062	0.216845	1.747164	0.323814	0.889424	0.328440	0.317886	-0.322831	0.943729	-0.071803	-0.323581	-0.038760	0.945406
64920	18.812910	-0.167959	-12.223286	1.389662	-0.138469	0.203071	0.888313	0.330378	0.318984	-0.329180	0.942400	-0.059354	-0.320220	-0.052278	0.945900
64921	19.660910	7.504748	-3.528285	0.175811	-0.793356	-0.247852	0.886551	0.327586	0.326672	-0.327525	0.943128	-0.056903	-0.326734	-0.056546	0.943423
64922	34.430601	5.014752	-8.168678	-0.433190	-1.188457	0.140732	0.882137	0.328287	0.337731	-0.327363	0.942897	-0.061475	-0.338627	-0.056331	0.939233
64923	35.374884	2.768642	-14.183428	0.651439	-1.854481	-0.658293	0.877858	0.320893	0.355519	-0.323797	0.944635	-0.053103	-0.352876	-0.068499	0.933159
64924	30.226979	7.925390	-18.310705	0.985338	-2.570990	-1.006133	0.871770	0.309373	0.379875	-0.318549	0.947051	-0.040252	-0.372214	-0.085919	0.924162
64925	6.868696	6.392634	18.585276	-2.107015	-1.792787	-1.108571	0.868318	0.297411	0.396950	-0.300801	0.952080	-0.055343	-0.394388	-0.071348	0.916170
64926	25.757697	-25.805588	21.857654	-2.423161	-3.702415	-0.082206	0.853240	0.294140	0.430653	-0.290000	0.953926	-0.076972	-0.433452	-0.059213	0.899229
64927	7.807448	-0.000908	7.747653	7.130221	1.466911	-0.965768	0.862243	0.286252	0.417848	-0.311395	0.950244	-0.008404	-0.399463	-0.122869	0.908478
64928	-4.964318	12.537668	12.290869	3.136953	-0.702918	-0.821870	0.862021	0.277440	0.424202	-0.316750	0.948218	0.023507	-0.395714	-0.154629	0.905263
64929	16.685784	9.604559	16.015705	-3.014260	-2.293001	0.088126	0.852324	0.274960	0.444904	-0.305113	0.952308	-0.004027	-0.424793	-0.132314	0.895569
64930	4.678766	-5.354573	6.794392	-2.191984	-0.640033	0.012950	0.849530	0.274219	0.450669	-0.295712	0.954984	-0.023651	-0.436868	-0.113176	0.892378
64931	7.764149	-1.047056	9.766765	1.706736	-0.033762	-0.057525	0.849540	0.273602	0.451025	-0.302613	0.953079	-0.008166	-0.432097	-0.129549	0.892474
64932	4.747029	3.327958	10.380898	1.312416	0.317967	-0.029191	0.850990	0.273686	0.448231	-0.307933	0.951401	0.003711	-0.425432	-0.141183	0.893910
64933	4.331576	2.294011	10.261257	-0.312282	-0.316677	0.033222	0.849520	0.273531	0.451106	-0.306856	0.951756	0.000766	-0.429133	-0.139075	0.892470
64934	5.387317	-0.290069	9.422413	-0.779049	-0.521137	0.037411	0.847153	0.273099	0.455795	-0.303736	0.952735	-0.006317	-0.435977	-0.133090	0.890063
64935	5.100427	-0.778731	8.816039	0.260471	-0.044496	0.055775	0.846774	0.273543	0.456233	-0.305318	0.952241	-0.004259	-0.435609	-0.135689	0.889850
64936	4.681010	0.875963	9.498161	0.244564	-0.090796	0.059377	0.846197	0.273906	0.457085	-0.306821	0.951765	-0.002326	-0.435674	-0.138275	0.889420
64937	4.647716	0.135217	9.254525	-0.166853	-0.211543	0.047830	0.845111	0.274042	0.459009	-0.306470	0.951872	-0.004034	-0.438023	-0.137263	0.888423
64938	4.870960	-0.505329	9.110194	0.003535	-0.152085	0.047227	0.844299	0.274203	0.460403	-0.306818	0.951759	-0.004190	-0.439342	-0.137722	0.887700
64939	4.601847	-0.327100	9.107473	0.074792	-0.116219	0.036990	0.843659	0.274367	0.461478	-0.307433	0.951562	-0.003703	-0.440141	-0.138750	0.887144
64940	4.669828	-0.304741	9.102702	0.027319	-0.135479	0.027811	0.842977	0.274366	0.462724	-0.307723	0.951469	-0.003560	-0.441245	-0.139390	0.886495
64941	4.835878	-0.014522	9.134578	0.088781	-0.105769	0.019766	0.842433	0.274378	0.463706	-0.308256	0.951299	-0.002870	-0.441911	-0.140522	0.885984
64942	4.672649	0.191088	9.192080	0.087473	-0.112925	0.015479	0.841886	0.274289	0.464751	-0.308708	0.951154	-0.002140	-0.442637	-0.141671	0.885439
64943	4.860869	0.201523	9.173569	0.038974	-0.126332	0.019135	0.841251	0.274264	0.465914	-0.309016	0.951055	-0.001889	-0.443628	-0.142386	0.884828
64944	4.991672	0.315376	9.159788	0.052951	-0.097495	0.020666	0.840754	0.274245	0.466822	-0.309361	0.950944	-0.001489	-0.444329	-0.143165	0.884350
64945	4.800877	0.345540	9.207075	0.051775	-0.075968	0.027647	0.840315	0.274371	0.467538	-0.309797	0.950802	-0.001165	-0.444856	-0.143863	0.883972
64946	4.801195	0.274396	9.212508	0.003450	-0.085806	0.031152	0.839837	0.274465	0.468341	-0.310009	0.950733	-0.001251	-0.445611	-0.144139	0.883547
64947	4.790931	0.141537	9.136884	-0.007695	-0.088415	0.030616	0.839331	0.274601	0.469167	-0.310206	0.950668	-0.001468	-0.446425	-0.144306	0.883108
64948	4.817484	0.115166	9.148140	0.000013	-0.082142	0.027704	0.838879	0.274666	0.469937	-0.310372	0.950614	-0.001569	-0.447160	-0.144539	0.882698
64949	4.829766	0.130227	9.087246	-0.009201	-0.072585	0.025623	0.838458	0.274777	0.470622	-0.310520	0.950565	-0.001776	-0.447845	-0.144648	0.882333
64950	4.784157	0.064206	9.122831	-0.011371	-0.074199	0.025172	0.838048	0.274830	0.471322	-0.310614	0.950534	-0.001965	-0.448548	-0.144752	0.881959
64951	4.767542	0.037989	9.110172	-0.024357	-0.078621	0.018705	0.837621	0.274866	0.472060	-0.310635	0.950526	-0.002273	-0.449330	-0.144734	0.881564
64952	4.753526	0.036250	9.094296	-0.004958	-0.078468	0.021603	0.837201	0.274879	0.472796	-0.310727	0.950496	-0.002389	-0.450048	-0.144910	0.881169
64953	4.784981	0.057973	9.099183	-0.016614	-0.093710	0.012985	0.836722	0.274838	0.473666	-0.310735	0.950493	-0.002602	-0.450932	-0.145007	0.880701
64954	4.748764	0.064405	9.124465	-0.014156	-0.097542	0.011695	0.836246	0.274730	0.474570	-0.310704	0.950503	-0.002753	-0.451836	-0.145149	0.880213
64955	4.795817	0.075244	9.053640	-0.007752	-0.101804	0.008121	0.835744	0.274631	0.475510	-0.310711	0.950500	-0.002865	-0.452759	-0.145352	0.879705
64956	4.786053	0.006359	9.079095	0.003680	-0.104655	0.006878	0.835248	0.274465	0.476476	-0.310719	0.950498	-0.002835	-0.453667	-0.145682	0.879183
64957	4.812477	0.050910	9.046646	0.010219	-0.110584	0.006822	0.834708	0.274341	0.477492	-0.310797	0.950472	-0.002783	-0.454607	-0.146080	0.878631
64958	4.848098	0.068234	8.996307	0.020093	-0.102709	0.004322	0.834228	0.274154	0.478438	-0.310859	0.950452	-0.002598	-0.455445	-0.146560	0.878117
64959	4.944403	0.153896	8.939776	0.034999	-0.093415	0.004142	0.833773	0.274028	0.479303	-0.311027	0.950398	-0.002316	-0.456163	-0.147146	0.877646
64960	4.893446	0.144865	8.989661	0.030185	-0.084056	0.006630	0.833368	0.273888	0.480086	-0.311154	0.950357	-0.002053	-0.456816	-0.147670	0.877219
64961	4.848782	0.176698	8.979672	0.036888	-0.075757	0.007728	0.832982	0.273821	0.480795	-0.311361	0.950290	-0.001771	-0.457380	-0.148225	0.876831
64962	4.929656	0.149342	8.993374	0.024857	-0.095995	0.008425	0.832515	0.273681	0.481682	-0.311480	0.950251	-0.001563	-0.458146	-0.148733	0.876345
64963	4.869836	0.167957	9.061203	0.032188	-0.086057	0.007312	0.832082	0.273594	0.482480	-0.311663	0.950192	-0.001321	-0.458810	-0.149271	0.875906
64964	4.929895	0.233736	9.016898	0.020774	-0.093955	0.007213	0.831628	0.273442	0.483347	-0.311752	0.950163	-0.001145	-0.459571	-0.149733	0.875428
64965	4.894384	0.243320	9.042201	0.011183	-0.107318	0.008025	0.831093	0.273329	0.484331	-0.311844	0.950133	-0.001090	-0.460476	-0.150130	0.874884
64966	4.838809	0.252502	9.055108	0.002610	-0.120609	0.013573	0.830494	0.273196	0.485431	-0.311901	0.950114	-0.001103	-0.461516	-0.150491	0.874274
64967	4.780421	0.212161	9.073578	-0.017768	-0.150959	0.010728	0.829746	0.273043	0.486794	-0.311882	0.950120	-0.001315	-0.462872	-0.150732	0.873516
64968	4.851802	0.103990	9.059768	-0.033525	-0.183574	0.007029	0.828873	0.272753	0.488441	-0.311719	0.950173	-0.001610	-0.464543	-0.150922	0.872595
64969	4.785386	-0.051230	9.145600	-0.032183	-0.210827	-0.001645	0.827880	0.272390	0.490324	-0.311530	0.950235	-0.001888	-0.466437	-0.151188	0.871538
64970	4.780620	0.016879	9.081191	0.002852	-0.213985	0.000833	0.826878	0.271995	0.492232	-0.311484	0.950250	-0.001836	-0.468243	-0.151804	0.870462
64971	4.688563	0.110819	9.130983	-0.001406	-0.274524	-0.003283	0.825582	0.271517	0.494664	-0.311424	0.950269	-0.001837	-0.470563	-0.152534	0.869082
64972	4.711907	0.186544	9.128375	-0.008538	-0.329149	0.004823	0.824014	0.270980	0.497566	-0.311357	0.950291	-0.001904	-0.473348	-0.153352	0.867424
64973	4.534787	0.106815	9.294095	-0.011465	-0.405820	0.011271	0.822033	0.270434	0.501126	-0.311369	0.950287	-0.002063	-0.476771	-0.154339	0.865372
64974	4.647454	0.011184	9.187747	-0.042275	-0.505624	0.010406	0.819579	0.269671	0.505537	-0.311186	0.950346	-0.002450	-0.481096	-0.155308	0.862801
64975	4.756022	0.130161	9.003211	0.001976	-0.580228	0.011578	0.816720	0.268846	0.510578	-0.311264	0.950320	-0.002496	-0.485884	-0.156886	0.859828
64976	4.865202	0.348615	8.988048	-0.010618	-0.658980	0.017011	0.813447	0.267893	0.516272	-0.311289	0.950312	-0.002644	-0.491328	-0.158559	0.856420
64977	5.150661	0.255504	8.832746	-0.102786	-0.731522	0.011905	0.809775	0.266813	0.522566	-0.310850	0.950452	-0.003587	-0.497631	-0.159535	0.852591
64978	5.278888	-0.012355	8.762474	-0.117140	-0.741356	0.001603	0.806055	0.265563	0.528915	-0.310212	0.950656	-0.004559	-0.504027	-0.160401	0.848663
64979	5.378487	0.005324	8.763471	-0.093244	-0.720218	-0.006653	0.802405	0.264312	0.535057	-0.309659	0.950833	-0.005316	-0.510155	-0.161420	0.844799
64980	5.316869	-0.053427	8.811830	-0.100874	-0.712644	-0.019992	0.798807	0.262889	0.541107	-0.308917	0.951070	-0.006025	-0.516214	-0.162344	0.840932
64981	5.358047	0.047116	8.826313	-0.100081	-0.714848	-0.032876	0.795177	0.261383	0.547149	-0.308109	0.951328	-0.006688	-0.522266	-0.163263	0.837009
64982	5.170229	0.071353	9.046118	-0.137818	-0.760964	-0.043107	0.791309	0.259650	0.553544	-0.306979	0.951686	-0.007569	-0.528766	-0.163937	0.832786
64983	5.048201	0.146210	9.145818	-0.153340	-0.862295	-0.050870	0.786854	0.257720	0.560751	-0.305735	0.952078	-0.008561	-0.536085	-0.164704	0.827940
64984	4.872275	0.387381	9.346100	-0.170380	-1.012199	-0.063025	0.781575	0.255369	0.569146	-0.304255	0.952543	-0.009579	-0.544582	-0.165679	0.822180
64985	4.646677	0.352768	9.504376	-0.242847	-1.230178	-0.061628	0.774977	0.252709	0.579265	-0.302413	0.953111	-0.011214	-0.554938	-0.166486	0.815062
64986	4.557470	0.242271	9.580394	-0.313773	-1.491103	-0.088504	0.766874	0.249298	0.591401	-0.299905	0.953878	-0.013207	-0.567416	-0.167236	0.806270
64987	4.506933	0.253693	9.499183	-0.393405	-1.772840	-0.128478	0.757044	0.245072	0.605660	-0.296638	0.954863	-0.015589	-0.582143	-0.167860	0.795571
64988	4.652716	0.209259	9.295675	-0.444169	-2.072045	-0.170376	0.745306	0.239879	0.622075	-0.292672	0.956043	-0.018013	-0.599051	-0.168638	0.782751
64989	4.552656	0.185726	9.477349	-0.406642	-2.358768	-0.210993	0.731544	0.233833	0.640442	-0.288612	0.957241	-0.019833	-0.617695	-0.170331	0.767750
64990	4.240126	-0.120174	9.792624	-0.341060	-2.776108	-0.273332	0.714884	0.226367	0.661589	-0.284431	0.958475	-0.020605	-0.638781	-0.173446	0.749584
64991	4.631923	-0.871440	9.687357	-0.145771	-3.186682	-0.366554	0.695170	0.217203	0.685246	-0.280871	0.959553	-0.019211	-0.661702	-0.179110	0.728059
64992	5.533142	-1.224455	9.512686	0.167082	-3.542951	-0.501141	0.672701	0.205813	0.710714	-0.278510	0.960324	-0.014483	-0.685497	-0.188198	0.703332
64993	5.683925	-1.395874	9.546851	0.453108	-3.824363	-0.626614	0.647735	0.192335	0.737189	-0.277506	0.960700	-0.006817	-0.709528	-0.200159	0.675653
64994	6.695962	-1.133641	10.195469	0.584572	-4.225343	-0.767640	0.619344	0.176152	0.765104	-0.276814	0.960919	0.002843	-0.734702	-0.213552	0.643901
64995	9.320036	-1.065698	11.433968	0.458675	-4.528071	-0.830354	0.587739	0.158194	0.793434	-0.275205	0.961308	0.012194	-0.760805	-0.225524	0.608535
64996	12.057266	-0.548141	12.677583	0.499736	-4.537207	-0.742176	0.554696	0.140504	0.820104	-0.274785	0.961273	0.021167	-0.785370	-0.237094	0.571822
64997	12.596724	-0.238044	12.667761	0.281366	-4.424091	-0.617137	0.521092	0.123857	0.844466	-0.273682	0.961416	0.027870	-0.808431	-0.245638	0.534884
64998	13.249934	0.546115	12.245809	0.065664	-4.369539	-0.503083	0.486655	0.108109	0.866879	-0.271645	0.961847	0.032546	-0.830287	-0.251322	0.497455
64999	12.014094	0.679454	12.387305	-0.371734	-4.233034	-0.420488	0.452156	0.093372	0.887038	-0.266520	0.963213	0.034464	-0.851189	-0.251997	0.460408
65000	8.929901	-0.269021	11.260034	-0.577016	-4.134812	-0.473315	0.417800	0.078383	0.905152	-0.259457	0.965076	0.036187	-0.870704	-0.249967	0.423546
65001	6.687736	-1.150812	10.168590	-0.655801	-4.201542	-0.691576	0.382548	0.061234	0.921904	-0.250893	0.967193	0.039867	-0.889219	-0.246550	0.385361
65002	5.576683	-4.021530	8.277291	-0.576766	-4.174775	-1.021136	0.347598	0.041089	0.936743	-0.241961	0.969134	0.047274	-0.905887	-0.243087	0.346811
65003	3.922160	-1.271986	9.985726	0.474448	-3.550476	-1.251160	0.318228	0.020201	0.947799	-0.242096	0.968355	0.060646	-0.916581	-0.248757	0.313049
65004	-0.623137	2.763681	11.993447	0.775468	-2.816538	-1.646885	0.296337	-0.002868	0.955079	-0.244157	0.966540	0.078658	-0.923348	-0.256498	0.285722
65005	15.854325	7.308147	16.567755	-0.622959	-2.651802	-1.815559	0.276020	-0.027181	0.960767	-0.233157	0.967850	0.094365	-0.932443	-0.250056	0.260809
65006	12.420203	-1.765186	17.972865	-3.472138	-0.448795	-1.923289	0.275970	-0.046938	0.960019	-0.195297	0.975233	0.103823	-0.941116	-0.216141	0.259969
65007	5.021231	-8.184721	11.853333	-0.153021	1.492123	-1.799236	0.293396	-0.061293	0.954024	-0.188715	0.974592	0.120651	-0.937180	-0.215437	0.274374
65008	-2.452513	-4.966595	7.661308	0.425738	1.869154	-1.657286	0.314022	-0.073342	0.946579	-0.187660	0.972547	0.137609	-0.930685	-0.220847	0.291638
65009	-3.972346	-6.052570	5.921869	-0.249988	1.108462	-0.942964	0.326023	-0.080106	0.941962	-0.182296	0.972376	0.145787	-0.927619	-0.219246	0.302414
65010	-0.777174	-5.906403	7.313297	0.101053	0.904079	-0.164943	0.334757	-0.079685	0.938929	-0.182707	0.972020	0.147634	-0.924422	-0.220971	0.310831
65011	1.707765	-4.498494	9.661655	0.151891	1.054356	0.586129	0.343360	-0.071679	0.936465	-0.186072	0.972128	0.142633	-0.920587	-0.223225	0.320453
65012	3.102508	-4.806261	10.511617	0.074237	1.491034	1.217295	0.354822	-0.056439	0.933229	-0.191045	0.972738	0.131466	-0.915207	-0.224936	0.334366
65013	2.847973	-3.833859	10.221155	0.487457	2.129294	1.621706	0.370995	-0.035849	0.927943	-0.201347	0.972378	0.118065	-0.906544	-0.230640	0.353529
65014	2.264232	-1.957125	9.575610	0.650344	2.547380	1.794855	0.390298	-0.012353	0.920606	-0.214104	0.971280	0.103804	-0.895448	-0.237620	0.376444
65015	2.368406	-0.212817	9.275092	0.697325	2.852649	1.784591	0.411680	0.011809	0.911252	-0.227436	0.969608	0.090184	-0.882492	-0.244379	0.401854
65016	3.054649	1.289845	9.466134	0.558029	3.124760	1.651135	0.435259	0.035618	0.899601	-0.239389	0.967825	0.077506	-0.867896	-0.249089	0.429781
65017	3.930099	1.972464	9.678508	0.256700	3.386822	1.422748	0.460884	0.057798	0.885576	-0.247948	0.966525	0.065959	-0.852120	-0.249976	0.459787
65018	4.594047	2.018920	9.549407	0.019682	3.702145	1.163903	0.489271	0.078362	0.868604	-0.253722	0.965667	0.055799	-0.834410	-0.247684	0.492355
65019	5.026541	1.808949	9.337329	-0.105097	3.986636	0.890314	0.519834	0.096710	0.848775	-0.257322	0.965151	0.047627	-0.814590	-0.243167	0.526604
65020	5.598229	1.509599	9.277064	-0.234865	4.208694	0.659146	0.552041	0.113276	0.826087	-0.259046	0.965003	0.040785	-0.792557	-0.236510	0.562065
65021	6.306667	1.106211	9.290874	-0.352303	4.394569	0.482621	0.585064	0.128106	0.800806	-0.259015	0.965245	0.034823	-0.768513	-0.227794	0.597911
65022	6.980544	0.616652	9.376885	-0.452245	4.556990	0.373470	0.618604	0.141967	0.772770	-0.257925	0.965728	0.029055	-0.742161	-0.217290	0.634020
65023	7.459371	0.073613	9.601808	-0.527349	4.692636	0.335346	0.651878	0.155090	0.742295	-0.256190	0.966351	0.023081	-0.713738	-0.205215	0.669675
65024	8.001375	-0.426048	9.955634	-0.607273	4.789536	0.381748	0.684434	0.168402	0.709360	-0.254581	0.966918	0.016089	-0.683183	-0.191601	0.704663
65025	8.647691	-0.855485	10.332894	-0.642478	4.891682	0.486180	0.715799	0.182087	0.674148	-0.253673	0.967256	0.008091	-0.650601	-0.176805	0.738552
65026	9.131160	-1.045780	10.703393	-0.630847	4.991031	0.622624	0.745883	0.196670	0.636380	-0.254317	0.967121	-0.000805	-0.615614	-0.161242	0.771375
65027	9.297016	-0.864342	11.080348	-0.634544	5.067158	0.760713	0.774183	0.211752	0.596491	-0.256283	0.966545	-0.010490	-0.578756	-0.144750	0.802551
65028	9.552281	-0.430806	11.629900	-0.695706	5.099693	0.880832	0.800499	0.227314	0.554554	-0.259419	0.965530	-0.021303	-0.540281	-0.126809	0.831875
65029	9.941471	0.112701	12.305009	-0.782575	5.113068	0.964429	0.824580	0.242579	0.511100	-0.263156	0.964186	-0.033063	-0.500816	-0.107236	0.858885
65030	10.510436	0.753097	13.133758	-0.916710	5.104913	0.990268	0.846528	0.257166	0.466107	-0.267117	0.962568	-0.045949	-0.460476	-0.085608	0.883535
65031	11.736233	1.303428	14.039973	-1.093805	5.089813	0.975804	0.866297	0.270276	0.420095	-0.270634	0.960806	-0.060066	-0.419865	-0.061658	0.905490
65032	13.229462	1.344221	14.260716	-1.298952	5.066227	0.946460	0.883979	0.281923	0.372961	-0.273819	0.958793	-0.075759	-0.378951	-0.035154	0.924749
65033	1.425552	-4.781502	14.628037	-0.337858	3.350245	0.813627	0.893929	0.290656	0.341188	-0.279795	0.956567	-0.081817	-0.350150	-0.022324	0.936428
65034	29.342516	-4.107619	-13.813298	2.262069	0.520164	0.717661	0.893675	0.297786	0.335661	-0.294094	0.953693	-0.063075	-0.338900	-0.042348	0.939869
65035	18.187868	14.041621	3.653476	2.269396	1.514482	-0.108161	0.898966	0.297503	0.321484	-0.300561	0.952867	-0.041328	-0.318626	-0.059473	0.946013
65036	34.303285	13.044438	-2.093151	-2.492999	-0.204320	1.310190	0.894352	0.309928	0.322612	-0.304297	0.950065	-0.069135	-0.327929	-0.036339	0.944003
65037	25.177529	-1.957140	0.352077	-1.322864	1.302655	1.462822	0.894050	0.324138	0.309206	-0.313065	0.945805	-0.086274	-0.320414	-0.019668	0.947074
65038	20.435547	1.517301	-7.814128	2.089009	0.255132	-0.904145	0.897690	0.315652	0.307435	-0.311567	0.948088	-0.063675	-0.311575	-0.038626	0.949436
65039	16.740657	11.637313	-7.211316	0.429615	-0.579866	-1.614903	0.900788	0.300039	0.313939	-0.298367	0.952889	-0.054592	-0.315529	-0.044494	0.947872
65040	17.626077	6.373018	-6.429608	-0.196520	-0.971282	0.419515	0.896434	0.303550	0.322900	-0.301467	0.951725	-0.057763	-0.324846	-0.045563	0.944669
65041	18.845696	-1.215725	-5.675557	-0.390868	-1.694300	-0.435178	0.892081	0.298599	0.339160	-0.296249	0.953224	-0.060012	-0.341215	-0.046940	0.938813
65042	11.473003	1.707245	-0.952359	0.936820	-1.829157	-1.790443	0.890917	0.280421	0.357255	-0.283479	0.957924	-0.044971	-0.354834	-0.061208	0.932924
65043	4.393806	2.337807	17.211970	-1.568725	-1.922009	-0.762019	0.885991	0.272003	0.375546	-0.270948	0.960919	-0.056761	-0.376309	-0.051464	0.925064
65044	5.483877	-17.464355	9.127133	-2.358593	-2.985911	0.115169	0.873969	0.271697	0.402938	-0.262620	0.961674	-0.078827	-0.408912	-0.036927	0.911826
65045	10.725398	-11.548842	13.746366	3.955034	-1.925964	-1.336360	0.869557	0.257685	0.421270	-0.267244	0.962904	-0.037368	-0.415272	-0.080088	0.906165
65046	20.770980	11.787185	15.595089	3.942265	-0.842363	-1.100192	0.869045	0.246206	0.429119	-0.273945	0.961741	0.002993	-0.411965	-0.120156	0.903243
65047	7.138104	10.903825	11.454588	1.928156	0.476999	-0.804048	0.873179	0.239063	0.424743	-0.274768	0.961215	0.023853	-0.402567	-0.137534	0.905000
65048	4.013760	6.111064	12.334792	-1.095525	-0.594068	0.371226	0.869748	0.241742	0.430231	-0.273466	0.961802	0.012409	-0.410798	-0.128446	0.902633
65049	4.918765	-1.428995	10.268312	-3.443386	-1.211313	0.413045	0.863530	0.244322	0.441162	-0.262533	0.964708	-0.020388	-0.430573	-0.098214	0.897196
65050	7.241087	-4.899928	7.243435	0.266724	-0.221615	0.028502	0.862502	0.244270	0.443195	-0.263841	0.964397	-0.018072	-0.431831	-0.101346	0.896243
65051	4.069655	1.522691	10.016835	1.845436	0.491722	0.030438	0.864506	0.245076	0.438824	-0.271963	0.962306	-0.001650	-0.422688	-0.117918	0.898571
65052	4.223047	2.729264	10.204821	-0.033701	-0.166279	0.031402	0.863719	0.245080	0.440370	-0.272008	0.962293	-0.002045	-0.424266	-0.118018	0.897814
65053	4.411750	-0.010305	9.279521	-0.889635	-0.501694	0.028291	0.861481	0.244752	0.444911	-0.268422	0.963248	-0.010153	-0.431045	-0.110678	0.895517
65054	5.947552	-1.039000	8.856359	-0.045788	-0.204449	0.035215	0.860506	0.244760	0.446791	-0.268440	0.963237	-0.010670	-0.432977	-0.110755	0.894575
65055	4.161858	0.598084	9.508523	0.444321	0.034354	0.048188	0.860509	0.245236	0.446524	-0.270749	0.962625	-0.006915	-0.431531	-0.114945	0.894745
65056	4.580278	0.694184	9.396838	-0.118034	-0.201339	0.040909	0.859530	0.245294	0.448374	-0.270504	0.962685	-0.008105	-0.433631	-0.114321	0.893809
65057	4.898873	-0.527784	9.113682	-0.180321	-0.199308	0.038977	0.858542	0.245416	0.450196	-0.270029	0.962801	-0.009896	-0.435878	-0.113070	0.892875
65058	4.725532	-0.240858	9.181735	0.117474	-0.074775	0.039723	0.858111	0.245608	0.450913	-0.270796	0.962595	-0.008977	-0.436251	-0.114402	0.892523
65059	4.616952	0.073137	9.233950	0.015124	-0.107077	0.029881	0.857547	0.245746	0.451910	-0.271092	0.962511	-0.008982	-0.437176	-0.114807	0.892018
65060	4.538665	-0.171370	9.182400	0.011982	-0.115729	0.028413	0.856965	0.245782	0.452993	-0.271302	0.962453	-0.008955	-0.438185	-0.115224	0.891469
65061	4.590397	0.003149	9.205898	0.068666	-0.105342	0.031236	0.856402	0.245934	0.453973	-0.271845	0.962304	-0.008490	-0.438948	-0.116140	0.890975
65062	4.612931	0.059056	9.228926	0.066242	-0.124324	0.038471	0.855753	0.246055	0.455131	-0.272380	0.962156	-0.008026	-0.439882	-0.117100	0.890388
65063	4.808846	0.115924	9.153977	0.056971	-0.118451	0.040022	0.855106	0.246273	0.456226	-0.272947	0.961998	-0.007707	-0.440787	-0.117936	0.889830
65064	4.804331	0.098503	9.172160	0.063241	-0.092696	0.035661	0.854602	0.246403	0.457101	-0.273446	0.961860	-0.007258	-0.441456	-0.118789	0.889385
65065	4.815648	0.151062	9.162906	0.063886	-0.075228	0.034740	0.854158	0.246620	0.457812	-0.273998	0.961706	-0.006854	-0.441971	-0.119585	0.889023
65066	4.755230	0.161840	9.176053	0.059491	-0.061000	0.031505	0.853804	0.246745	0.458405	-0.274445	0.961581	-0.006421	-0.442378	-0.120325	0.888720
65067	4.729294	0.074133	9.224882	0.033753	-0.069867	0.030582	0.853395	0.246928	0.459069	-0.274829	0.961473	-0.006266	-0.442929	-0.120818	0.888379
65068	4.733375	-0.003070	9.175658	0.028669	-0.053863	0.025916	0.853087	0.247007	0.459599	-0.275092	0.961399	-0.006081	-0.443360	-0.121244	0.888106
65069	4.724001	0.097264	9.150415	0.070310	-0.040857	0.026445	0.852817	0.247184	0.460004	-0.275603	0.961255	-0.005583	-0.443562	-0.122017	0.887899
65070	4.675606	0.184026	9.190234	0.049868	-0.050165	0.022549	0.852534	0.247235	0.460501	-0.275931	0.961163	-0.005195	-0.443901	-0.122637	0.887644
65071	4.682657	0.037123	9.182409	0.005059	-0.071811	0.020618	0.852142	0.247317	0.461182	-0.276103	0.961114	-0.005250	-0.444547	-0.122860	0.887290
65072	4.731186	-0.072864	9.106373	0.009288	-0.070322	0.021681	0.851771	0.247335	0.461857	-0.276244	0.961073	-0.005219	-0.445170	-0.123140	0.886939
65073	4.775607	0.053024	9.135899	0.056240	-0.052648	0.015453	0.851477	0.247391	0.462368	-0.276600	0.960973	-0.004796	-0.445510	-0.123807	0.886675
65074	4.705048	0.115393	9.165721	0.043252	-0.050057	0.013974	0.851217	0.247359	0.462864	-0.276827	0.960910	-0.004429	-0.445866	-0.124363	0.886418
65075	4.722357	0.114464	9.142267	0.022425	-0.059139	0.015604	0.850894	0.247407	0.463432	-0.277033	0.960851	-0.004306	-0.446354	-0.124721	0.886122
65076	4.713624	0.040386	9.114205	0.027088	-0.061264	0.014775	0.850581	0.247369	0.464026	-0.277195	0.960805	-0.004086	-0.446850	-0.125150	0.885812
65077	4.769802	-0.009680	9.120670	0.030367	-0.059868	0.011094	0.850267	0.247373	0.464601	-0.277399	0.960747	-0.003873	-0.447322	-0.125586	0.885512
65078	4.757127	0.041618	9.100416	0.041441	-0.042968	0.012996	0.850040	0.247340	0.465033	-0.277610	0.960687	-0.003518	-0.447622	-0.126107	0.885286
65079	4.724378	0.118715	9.065479	0.058968	-0.040905	0.006422	0.849823	0.247322	0.465439	-0.277903	0.960605	-0.003030	-0.447852	-0.126771	0.885075
65080	4.709419	0.202177	9.096880	0.044519	-0.046846	0.009613	0.849587	0.247251	0.465906	-0.278100	0.960549	-0.002633	-0.448176	-0.127331	0.884830
65081	4.823166	0.142164	9.053088	0.012681	-0.071075	0.009304	0.849227	0.247222	0.466579	-0.278209	0.960517	-0.002568	-0.448792	-0.127625	0.884476
65082	4.828261	0.089427	9.001554	0.043133	-0.048507	0.010456	0.848981	0.247156	0.467060	-0.278407	0.960461	-0.002187	-0.449133	-0.128176	0.884223
65083	4.778153	0.151994	9.044236	0.058741	-0.037234	0.011690	0.848765	0.247193	0.467433	-0.278744	0.960364	-0.001726	-0.449333	-0.128829	0.884027
65084	4.774459	0.113643	9.102089	0.031302	-0.035375	0.009737	0.848580	0.247137	0.467798	-0.278883	0.960324	-0.001447	-0.449595	-0.129233	0.883834
65085	4.744617	0.065142	9.060086	0.041051	-0.048414	0.009894	0.848319	0.247141	0.468270	-0.279125	0.960254	-0.001134	-0.449938	-0.129744	0.883585
65086	4.828811	0.083172	9.017263	0.063671	-0.032375	0.010443	0.848145	0.247096	0.468608	-0.279416	0.960170	-0.000572	-0.450085	-0.130451	0.883406
65087	4.769200	0.199496	9.075762	0.080337	-0.028256	0.011306	0.847970	0.247139	0.468902	-0.279847	0.960045	0.000080	-0.450147	-0.131289	0.883250
65088	4.652132	0.152888	9.183063	0.047032	-0.050700	0.008330	0.847720	0.247049	0.469402	-0.280046	0.959986	0.000505	-0.450495	-0.131882	0.882985
65089	4.698191	0.076425	9.158849	0.027909	-0.084577	0.009979	0.847294	0.247004	0.470193	-0.280230	0.959933	0.000701	-0.451180	-0.132356	0.882564
65090	4.599756	0.048972	9.240430	0.057387	-0.092240	0.003886	0.846868	0.246816	0.471058	-0.280438	0.959871	0.001237	-0.451850	-0.133151	0.882101
65091	4.535795	-0.005180	9.314964	0.041571	-0.147950	-0.004353	0.846195	0.246548	0.472407	-0.280563	0.959834	0.001620	-0.453033	-0.133911	0.881379
65092	4.708961	0.065719	9.132017	0.063361	-0.172866	-0.012458	0.845447	0.246094	0.473981	-0.280662	0.959804	0.002286	-0.454366	-0.134961	0.880532
65093	4.484923	0.235503	9.299464	0.082736	-0.198772	-0.003234	0.844535	0.245764	0.475774	-0.280985	0.959707	0.003025	-0.455860	-0.136240	0.879562
65094	4.297487	0.235455	9.509405	0.058985	-0.306535	0.005839	0.843118	0.245299	0.478519	-0.281221	0.959636	0.003564	-0.458330	-0.137575	0.878070
65095	4.559975	0.166341	9.238403	0.028211	-0.409003	0.008281	0.841197	0.244784	0.482150	-0.281394	0.959585	0.003768	-0.461742	-0.138844	0.876081
65096	4.612861	0.338886	9.197632	0.056661	-0.462755	0.015082	0.839010	0.244180	0.486249	-0.281702	0.959493	0.004239	-0.465517	-0.140534	0.873810
65097	4.595193	0.372176	9.189669	-0.000535	-0.551679	0.013253	0.836375	0.243500	0.491106	-0.281783	0.959469	0.004166	-0.470187	-0.141870	0.871090
65098	4.737895	0.183260	9.100564	-0.028655	-0.633895	0.020827	0.833319	0.242694	0.496667	-0.281740	0.959483	0.003863	-0.475606	-0.143150	0.867932
65099	4.832820	0.231742	9.107672	-0.019245	-0.682381	0.015530	0.829993	0.241832	0.502622	-0.281750	0.959481	0.003616	-0.481382	-0.144615	0.864499
65100	4.879586	0.277252	9.055633	-0.033117	-0.743833	0.008656	0.826365	0.240732	0.509086	-0.281580	0.959532	0.003336	-0.487682	-0.146105	0.860709
65101	4.856467	0.214634	9.090138	-0.051801	-0.801522	0.008192	0.822388	0.239604	0.516012	-0.281366	0.959596	0.002847	-0.494481	-0.147529	0.856577
65102	4.851296	0.154108	9.154786	-0.066384	-0.882089	-0.006287	0.818011	0.238134	0.523593	-0.280903	0.959733	0.002362	-0.501947	-0.149011	0.851965
65103	4.761263	0.152612	9.242200	-0.069801	-0.978826	-0.026918	0.813114	0.236379	0.531949	-0.280303	0.959910	0.001909	-0.510172	-0.150659	0.846774
65104	4.544798	0.323715	9.450529	-0.082950	-1.133317	-0.039086	0.807388	0.234184	0.541556	-0.279478	0.960151	0.001469	-0.519631	-0.152539	0.840664
65105	4.209387	0.330810	9.669597	-0.123345	-1.358913	-0.063501	0.800407	0.231458	0.552970	-0.278292	0.960496	0.000783	-0.530944	-0.154514	0.833201
65106	3.951703	0.373858	9.848182	-0.205975	-1.669661	-0.113210	0.791740	0.227673	0.566845	-0.276203	0.961099	-0.000239	-0.544849	-0.156376	0.823824
65107	3.817611	0.289473	9.890185	-0.298719	-2.041751	-0.196813	0.780961	0.222540	0.583589	-0.272975	0.962020	-0.001550	-0.561769	-0.158095	0.812048
65108	3.944796	0.165161	9.966143	-0.412375	-2.426504	-0.285291	0.767859	0.215840	0.603163	-0.268330	0.963322	-0.003124	-0.581715	-0.159449	0.797612
65109	3.831147	-0.177318	10.158341	-0.381918	-2.802015	-0.388376	0.752253	0.207566	0.625325	-0.263086	0.964765	-0.003750	-0.604070	-0.161693	0.780355
65110	3.720706	-0.734327	10.510827	-0.231012	-3.264344	-0.521111	0.733482	0.197087	0.650509	-0.257715	0.966219	-0.002152	-0.628958	-0.166068	0.759496
65111	4.019391	-1.394982	10.460336	0.078472	-3.775968	-0.684755	0.710941	0.184013	0.678751	-0.253246	0.967397	0.002989	-0.656071	-0.174016	0.734363
65112	4.896060	-1.510394	10.509993	0.518320	-4.209638	-0.845121	0.684857	0.168156	0.709010	-0.250752	0.967969	0.012637	-0.684174	-0.186441	0.705086
65113	5.274219	-1.538300	10.666527	0.882032	-4.707490	-1.044856	0.654539	0.148853	0.741230	-0.249892	0.967917	0.026289	-0.713536	-0.202435	0.670736
65114	7.705825	-1.104804	12.170349	1.011062	-5.263338	-1.232738	0.619233	0.125740	0.775074	-0.249342	0.967493	0.042251	-0.744566	-0.219422	0.630456
65115	11.672758	-1.496034	14.075068	0.913238	-5.535911	-1.237273	0.580196	0.101168	0.808169	-0.248836	0.966831	0.057613	-0.775534	-0.234529	0.586126
65116	14.501524	-1.495832	14.913608	1.022692	-5.468362	-1.145777	0.539871	0.076800	0.838237	-0.250438	0.965388	0.072847	-0.803629	-0.249254	0.540419
65117	14.467432	-0.575057	14.151046	1.045932	-5.275404	-1.003118	0.499306	0.053579	0.864768	-0.253736	0.963370	0.086816	-0.828439	-0.262771	0.494611
65118	12.710100	-0.505435	13.505291	0.600249	-5.168774	-0.934229	0.458239	0.030734	0.888298	-0.254266	0.962169	0.097876	-0.851684	-0.270715	0.448718
65119	10.474043	-3.266672	10.907516	0.420004	-4.909339	-1.040595	0.418519	0.007274	0.908179	-0.253300	0.961224	0.109030	-0.872170	-0.275673	0.404133
65120	6.096244	-2.407577	10.606217	1.080985	-4.452324	-1.276192	0.382610	-0.017521	0.923744	-0.257675	0.958125	0.124900	-0.887250	-0.285813	0.362074
65121	2.202198	-1.521848	8.880218	1.221362	-4.201800	-1.422192	0.348733	-0.043387	0.936217	-0.263363	0.954141	0.142319	-0.899458	-0.296196	0.321314
65122	-1.899335	-1.009839	8.448284	1.482529	-3.785860	-1.640190	0.318919	-0.070451	0.945160	-0.271268	0.948730	0.162249	-0.908133	-0.308136	0.283457
65123	11.733130	3.759100	11.966506	1.383747	-3.749470	-1.163868	0.287893	-0.093244	0.953112	-0.280334	0.943447	0.176975	-0.915713	-0.318140	0.245472
65124	21.007428	1.944335	18.372759	-2.488166	-0.752092	-0.513897	0.282388	-0.100427	0.954029	-0.255961	0.950563	0.175825	-0.924522	-0.293845	0.242722
65125	6.676927	-9.343170	13.357106	-0.210347	1.364943	-0.394348	0.295947	-0.100206	0.949934	-0.252857	0.950787	0.179073	-0.921129	-0.293194	0.256045
65126	-1.640295	-5.043816	6.402768	1.134167	2.499678	-0.422825	0.319989	-0.096701	0.942473	-0.261953	0.946967	0.186101	-0.910487	-0.306434	0.277688
65127	-7.220306	-3.970519	2.418144	1.109891	2.178238	-0.345903	0.340595	-0.093196	0.935580	-0.270838	0.943171	0.192550	-0.900357	-0.318972	0.295998
65128	-4.163503	-0.628913	3.894986	0.887172	1.421489	0.117046	0.353087	-0.087449	0.931495	-0.279221	0.940400	0.194124	-0.892953	-0.328635	0.307625
65129	-0.910004	0.191346	6.288934	-0.306479	1.184381	0.500280	0.362211	-0.078898	0.928751	-0.278255	0.941824	0.188527	-0.889594	-0.326716	0.319185
65130	2.141167	-1.750633	7.986928	-1.265307	1.298208	0.873555	0.371431	-0.066431	0.926081	-0.270238	0.946518	0.176283	-0.888263	-0.315739	0.333614
65131	3.550652	-4.013165	7.853467	-0.525015	2.102225	1.131230	0.386943	-0.049149	0.920793	-0.269857	0.948823	0.164047	-0.881732	-0.311960	0.353877
65132	2.911078	-1.402079	7.948745	0.284529	2.852919	1.290317	0.408476	-0.027882	0.912343	-0.277523	0.948419	0.153238	-0.869556	-0.315791	0.379669
65133	2.651444	0.046150	7.501141	-0.078718	3.110852	1.337735	0.431548	-0.005407	0.902074	-0.282439	0.948895	0.140806	-0.856735	-0.315546	0.407966
65134	3.168030	0.467989	7.309285	-0.213686	3.363321	1.325058	0.456438	0.017832	0.889577	-0.286560	0.949473	0.128000	-0.842347	-0.313341	0.438486
65135	4.206689	1.179722	7.797597	-0.258221	3.607656	1.280114	0.482811	0.041195	0.874755	-0.290393	0.949906	0.115545	-0.826175	-0.309809	0.470588
65136	5.493211	1.700689	8.384531	-0.479534	3.825567	1.187942	0.510705	0.064307	0.857348	-0.292433	0.950735	0.102885	-0.808494	-0.303261	0.504350
65137	6.326827	1.601988	8.639742	-0.629739	4.051602	1.069316	0.539910	0.086549	0.837261	-0.292995	0.951817	0.090548	-0.789082	-0.294201	0.539254
65138	7.168019	1.622400	8.937932	-0.636922	4.259871	0.948975	0.570363	0.108002	0.814262	-0.293369	0.952719	0.079128	-0.767217	-0.284011	0.575080
65139	8.108901	1.520802	9.292444	-0.714780	4.384151	0.857124	0.600944	0.128328	0.788922	-0.292963	0.953701	0.068027	-0.743666	-0.272005	0.610716
65140	9.143378	1.007572	9.667417	-0.768654	4.452966	0.831883	0.631142	0.148181	0.761381	-0.292533	0.954572	0.056713	-0.718390	-0.258523	0.645819
65141	9.989222	0.525235	10.037260	-0.705748	4.506319	0.855793	0.660378	0.167659	0.731978	-0.293059	0.955004	0.045650	-0.691388	-0.244658	0.679798
65142	10.678873	0.208193	10.387395	-0.600932	4.526569	0.905421	0.688430	0.187174	0.700735	-0.295165	0.954807	0.034942	-0.662527	-0.230888	0.712565
65143	11.196745	-0.048261	10.634493	-0.492785	4.515827	0.972288	0.714759	0.206544	0.668176	-0.298770	0.954005	0.024701	-0.632341	-0.217286	0.743593
65144	11.465218	-0.257275	10.753093	-0.377158	4.476861	1.019696	0.739349	0.225802	0.634331	-0.303930	0.952574	0.015161	-0.600824	-0.204002	0.772913
65145	11.561341	-0.426125	10.782083	-0.288717	4.401587	1.047049	0.761856	0.244429	0.599859	-0.310076	0.950690	0.006429	-0.568708	-0.190899	0.800080
65146	11.537431	-0.612909	10.800475	-0.235806	4.297931	1.077079	0.782266	0.262684	0.564851	-0.317162	0.948370	-0.001800	-0.536161	-0.177741	0.825191
65147	11.382440	-0.550073	10.728434	-0.209827	4.156808	1.089684	0.800372	0.280090	0.530052	-0.324668	0.945780	-0.009523	-0.503980	-0.164469	0.847912
65148	11.140638	-0.119762	10.673848	-0.229424	3.992389	1.071244	0.816373	0.296600	0.495543	-0.332281	0.943027	-0.017025	-0.472360	-0.150761	0.868416
65149	10.762172	0.493903	10.657979	-0.320852	3.806467	0.994786	0.830426	0.311403	0.461975	-0.338980	0.940472	-0.024607	-0.442137	-0.136165	0.886552
65150	10.518173	1.042254	10.564715	-0.462446	3.619528	0.863242	0.842979	0.324243	0.429248	-0.344292	0.938295	-0.032627	-0.413340	-0.120283	0.902597
65151	10.151312	1.497132	10.217523	-0.621152	3.435387	0.689047	0.854321	0.334516	0.397788	-0.347631	0.936729	-0.041133	-0.386379	-0.103143	0.916555
65152	9.804023	1.991354	9.783398	-0.755896	3.233763	0.478512	0.864752	0.342115	0.367643	-0.348978	0.935798	-0.049968	-0.361135	-0.085089	0.928624
65153	9.617089	2.529956	9.243723	-0.876584	3.020889	0.253186	0.874421	0.346749	0.339344	-0.348090	0.935599	-0.059056	-0.337967	-0.066482	0.938807
65154	9.425765	3.024442	8.566737	-0.934911	2.815087	-0.015059	0.883691	0.348275	0.312722	-0.344946	0.936167	-0.067846	-0.316389	-0.047917	0.947418
65155	9.241345	3.858169	7.680343	-0.879423	2.607527	-0.334640	0.892817	0.346140	0.288210	-0.339255	0.937683	-0.075213	-0.296284	-0.030625	0.954609
65156	9.334900	4.504639	7.488452	-0.942796	2.359215	-0.678871	0.901875	0.340322	0.266088	-0.330486	0.940210	-0.082371	-0.278211	-0.013650	0.960423
65157	9.821660	4.284488	7.080939	-1.358797	2.066830	-0.993788	0.910693	0.331018	0.247114	-0.317770	0.943605	-0.092909	-0.263933	0.006086	0.964522
65158	10.067498	2.847403	5.456298	-1.437246	1.714339	-1.191967	0.918832	0.319490	0.231679	-0.303165	0.947253	-0.103936	-0.252665	0.025263	0.967224
65159	9.869447	2.976280	4.246395	-0.993101	1.685674	-1.336418	0.926932	0.306235	0.216834	-0.288359	0.951117	-0.110569	-0.240095	0.039964	0.969927
65160	9.523004	3.021723	3.280965	-0.942879	1.336392	-1.348044	0.933874	0.292758	0.205361	-0.273593	0.954719	-0.116867	-0.230275	0.052954	0.971684
65161	9.208822	2.116099	2.180478	-1.100646	0.997527	-1.173764	0.939266	0.280922	0.197135	-0.260075	0.957435	-0.125214	-0.223920	0.066340	0.972347
65162	8.704577	0.011242	1.450385	-1.089889	0.571123	-0.890390	0.942816	0.271949	0.192722	-0.249248	0.959116	-0.134056	-0.221299	0.078355	0.972053
65163	8.650724	-1.438055	0.733051	-0.458111	0.117571	-0.653115	0.944675	0.265568	0.192516	-0.242046	0.960507	-0.137262	-0.221365	0.083070	0.971646
65164	9.191186	-0.970503	0.547968	0.468607	-0.445890	-0.362434	0.944563	0.262409	0.197336	-0.239637	0.961849	-0.131984	-0.224441	0.077379	0.971411
65165	8.900057	0.833608	1.326892	0.893385	-0.722007	0.015780	0.942882	0.263063	0.204379	-0.241787	0.962457	-0.123350	-0.229155	0.066888	0.971089
65166	9.114023	1.102382	-0.197280	0.899627	-1.399706	0.345081	0.938763	0.267191	0.217563	-0.247105	0.962101	-0.115329	-0.240132	0.054505	0.969209
65167	9.521537	1.536418	-1.543178	1.085668	-1.959752	0.489786	0.932668	0.272796	0.236034	-0.254356	0.961290	-0.105945	-0.255798	0.038775	0.965952
65168	8.462143	2.989518	-1.398437	0.865147	-2.509693	0.281082	0.925269	0.276222	0.259958	-0.259219	0.960805	-0.098279	-0.276916	0.023549	0.960606
65169	0.019929	1.848156	9.211668	-0.318389	-2.019672	0.047974	0.919347	0.277112	0.279302	-0.258723	0.960608	-0.101467	-0.296418	0.021022	0.954827
65170	4.517399	-2.722466	14.055453	-1.230893	-3.485192	-0.465578	0.909598	0.273337	0.312918	-0.250536	0.961638	-0.111733	-0.331455	0.023235	0.943185
65171	8.658371	-2.589023	13.512613	2.104185	-2.175243	-0.784090	0.904184	0.265987	0.334220	-0.250527	0.963972	-0.089408	-0.345960	-0.002890	0.938245
65172	7.566506	1.767690	12.673041	1.773624	-2.309874	-0.405795	0.897030	0.261665	0.356187	-0.253090	0.964805	-0.071386	-0.362330	-0.026112	0.931684
65173	8.980876	1.171892	12.331780	0.160956	-2.497880	-0.256036	0.888338	0.258418	0.379573	-0.251379	0.965429	-0.068959	-0.384271	-0.034158	0.922588
65174	9.677935	0.209433	13.036527	0.844367	-1.968640	-0.450423	0.881756	0.253178	0.398004	-0.250628	0.966259	-0.059402	-0.399614	-0.047373	0.915459
65175	13.719786	0.581627	14.873507	1.265345	-1.755978	-0.866454	0.876777	0.243796	0.414518	-0.248118	0.967714	-0.044344	-0.411946	-0.063970	0.908960
65176	7.320534	1.009605	10.162771	1.634586	-0.648972	-0.511583	0.875374	0.238274	0.420650	-0.250301	0.967783	-0.027316	-0.413606	-0.081377	0.906812
65177	6.613546	3.747076	12.103296	0.990354	-0.985076	-0.462811	0.872413	0.232908	0.429709	-0.250357	0.968015	-0.016392	-0.419782	-0.093280	0.902819
65178	9.086513	3.574544	11.924812	0.038993	-0.676411	-0.145003	0.869916	0.230754	0.435887	-0.249168	0.968338	-0.015354	-0.425630	-0.095252	0.899870
65179	5.047314	-0.094265	9.596147	0.005342	-0.367032	-0.017725	0.868377	0.230205	0.439234	-0.249010	0.968381	-0.015233	-0.428853	-0.096146	0.898243
65180	5.278704	-0.234576	9.721110	0.120673	-0.331306	-0.001981	0.866958	0.229743	0.442270	-0.249416	0.968294	-0.014077	-0.431482	-0.098105	0.896771
65181	5.673735	0.609637	9.630090	0.171112	-0.208120	0.013938	0.866008	0.229645	0.444178	-0.250249	0.968099	-0.012609	-0.432904	-0.100236	0.895850
65182	5.006090	0.253398	9.470424	0.031357	-0.161930	0.022080	0.865250	0.229573	0.445688	-0.250479	0.968043	-0.012361	-0.434283	-0.100940	0.895103
65183	4.740395	0.010106	9.263495	0.066049	-0.128863	0.024592	0.864613	0.229653	0.446883	-0.250952	0.967926	-0.011884	-0.435279	-0.101871	0.894514
65184	4.884850	0.499406	9.509307	0.128386	-0.109548	0.027810	0.864066	0.229687	0.447922	-0.251655	0.967757	-0.010795	-0.435959	-0.103394	0.894007
65185	4.563254	0.429613	9.250955	0.055115	-0.108653	0.040659	0.863473	0.229941	0.448933	-0.252220	0.967613	-0.010489	-0.436805	-0.104173	0.893504
65186	4.916259	0.251402	9.389934	0.001996	-0.175954	0.033789	0.862618	0.229960	0.450564	-0.252421	0.967560	-0.010556	-0.438375	-0.104626	0.892682
65187	4.569585	-0.169223	9.128552	0.000403	-0.146068	0.037317	0.861867	0.230140	0.451908	-0.252718	0.967480	-0.010725	-0.439680	-0.104962	0.892000
65188	4.693059	-0.229805	9.081668	0.015313	-0.148764	0.036052	0.861121	0.230208	0.453294	-0.252998	0.967408	-0.010685	-0.440980	-0.105481	0.891297
65189	4.591560	-0.385766	9.168673	0.019392	-0.154639	0.025177	0.860358	0.230261	0.454713	-0.253273	0.967336	-0.010631	-0.442308	-0.106021	0.890575
65190	4.926584	-0.132930	9.151823	0.076302	-0.142345	0.019110	0.859679	0.230171	0.456041	-0.253679	0.967237	-0.009973	-0.443395	-0.107115	0.889903
65191	4.782488	0.003183	9.120730	0.073801	-0.107324	0.014224	0.859151	0.230166	0.457038	-0.254102	0.967132	-0.009385	-0.444177	-0.108071	0.889397
65192	4.649670	0.149801	9.211416	0.065850	-0.114057	0.010144	0.858617	0.230018	0.458115	-0.254385	0.967063	-0.008780	-0.445045	-0.108998	0.888850
65193	4.795950	0.167105	9.170615	0.045332	-0.126709	0.018614	0.857989	0.230031	0.459283	-0.254720	0.966978	-0.008467	-0.446064	-0.109724	0.888250
65194	4.832788	0.124566	9.215699	0.052163	-0.100523	0.028001	0.857468	0.230069	0.460236	-0.255096	0.966882	-0.008066	-0.446850	-0.110488	0.887760
65195	4.847007	0.146878	9.154535	0.056883	-0.088415	0.031984	0.856975	0.230252	0.461062	-0.255598	0.966752	-0.007712	-0.447509	-0.111237	0.887334
65196	4.841895	0.153156	9.171413	0.054202	-0.070634	0.034713	0.856569	0.230386	0.461749	-0.256041	0.966638	-0.007326	-0.448032	-0.111952	0.886980
65197	4.790652	0.109820	9.168690	0.027558	-0.062195	0.030240	0.856196	0.230580	0.462342	-0.256397	0.966545	-0.007225	-0.448541	-0.112357	0.886672
65198	4.805606	0.059817	9.149704	0.033910	-0.059022	0.031808	0.855849	0.230698	0.462926	-0.256725	0.966459	-0.007005	-0.449016	-0.112849	0.886369
65199	4.737967	0.113188	9.125814	0.035602	-0.041713	0.026788	0.855577	0.230882	0.463338	-0.257087	0.966364	-0.006817	-0.449327	-0.113285	0.886155
65200	4.745002	0.020026	9.166378	0.016693	-0.058102	0.029266	0.855239	0.230976	0.463914	-0.257316	0.966304	-0.006739	-0.449838	-0.113609	0.885855
65201	4.794287	-0.009974	9.136931	0.011756	-0.052737	0.023114	0.854926	0.231111	0.464423	-0.257539	0.966244	-0.006746	-0.450305	-0.113840	0.885588
65202	4.815203	0.060873	9.106767	0.033617	-0.032974	0.022357	0.854719	0.231167	0.464776	-0.257786	0.966180	-0.006486	-0.450557	-0.114269	0.885404
65203	4.732222	0.093209	9.106991	0.034074	-0.036588	0.020453	0.854485	0.231295	0.465143	-0.258087	0.966101	-0.006283	-0.450828	-0.114679	0.885213
65204	4.724228	0.042996	9.076581	0.008951	-0.045729	0.017466	0.854233	0.231289	0.465609	-0.258181	0.966077	-0.006220	-0.451253	-0.114898	0.884969
65205	4.781042	0.015903	9.080935	0.014551	-0.042549	0.017692	0.853979	0.231383	0.466029	-0.258371	0.966026	-0.006177	-0.451625	-0.115133	0.884748
65206	4.782230	-0.005237	9.081931	0.072977	-0.017911	0.018779	0.853848	0.231422	0.466248	-0.258766	0.965924	-0.005553	-0.451646	-0.115907	0.884636
65207	4.789116	0.072050	9.073387	0.045655	-0.030448	0.015412	0.853654	0.231507	0.466561	-0.259076	0.965843	-0.005225	-0.451834	-0.116415	0.884474
65208	4.771070	0.074891	9.059375	0.030347	-0.034854	0.013731	0.853460	0.231477	0.466931	-0.259236	0.965801	-0.004955	-0.452109	-0.116816	0.884280
65209	4.837177	0.023133	9.046038	0.044423	-0.021688	0.012309	0.853314	0.231542	0.467166	-0.259514	0.965728	-0.004623	-0.452226	-0.117291	0.884158
65210	4.786015	0.054880	9.038716	0.064385	-0.014217	0.009468	0.853224	0.231496	0.467353	-0.259792	0.965656	-0.004033	-0.452236	-0.117973	0.884061
65211	4.797590	0.087210	9.068776	0.062496	-0.014019	0.012302	0.853112	0.231570	0.467521	-0.260152	0.965561	-0.003541	-0.452240	-0.118605	0.883975
65212	4.767504	0.119385	9.073791	0.058048	-0.022581	0.011608	0.852978	0.231534	0.467782	-0.260420	0.965491	-0.003018	-0.452338	-0.119245	0.883839
65213	4.771239	0.148560	9.070049	0.062722	-0.024673	0.010770	0.852822	0.231580	0.468044	-0.260768	0.965398	-0.002517	-0.452431	-0.119904	0.883702
65214	4.843366	0.195731	9.046668	0.055095	-0.026000	0.009892	0.852678	0.231524	0.468335	-0.261008	0.965335	-0.002012	-0.452566	-0.120524	0.883549
65215	4.727009	0.169751	9.150833	0.050954	-0.030947	0.012430	0.852489	0.231577	0.468652	-0.261317	0.965252	-0.001623	-0.452743	-0.121083	0.883381
65216	4.785197	0.115951	9.103853	0.044251	-0.044660	0.011452	0.852255	0.231513	0.469108	-0.261521	0.965197	-0.001221	-0.453065	-0.121641	0.883140
65217	4.733617	0.097858	9.100258	0.034564	-0.051030	0.013693	0.851972	0.231554	0.469603	-0.261767	0.965131	-0.000983	-0.453456	-0.122089	0.882877
65218	4.750961	0.097829	9.076682	0.043541	-0.060586	0.008886	0.851672	0.231446	0.470199	-0.261947	0.965082	-0.000576	-0.453914	-0.122677	0.882560
65219	4.811079	0.098198	9.077419	0.045650	-0.065874	0.013151	0.851322	0.231463	0.470824	-0.262239	0.965003	-0.000238	-0.454402	-0.123266	0.882227
65220	4.748999	0.084264	9.093917	0.056374	-0.068428	0.010619	0.850982	0.231361	0.471489	-0.262493	0.964934	0.000273	-0.454893	-0.123995	0.881872
65221	4.709035	0.125679	9.171081	0.059398	-0.091722	0.006187	0.850532	0.231277	0.472341	-0.262788	0.964853	0.000765	-0.455563	-0.124776	0.881415
65222	4.666746	-0.015129	9.157530	0.040463	-0.113684	0.000220	0.850011	0.231018	0.473404	-0.262882	0.964827	0.001185	-0.456480	-0.125456	0.880845
65223	4.658676	-0.074453	9.234478	0.043441	-0.149539	-0.009015	0.849335	0.230713	0.474764	-0.262977	0.964801	0.001607	-0.457682	-0.126217	0.880111
65224	4.602655	0.062236	9.252059	0.081659	-0.169791	-0.010878	0.848584	0.230275	0.476318	-0.263167	0.964747	0.002441	-0.458965	-0.127422	0.879270
65225	4.307261	0.360393	9.445127	0.108539	-0.225911	0.002170	0.847523	0.229977	0.478347	-0.263657	0.964611	0.003381	-0.460641	-0.128985	0.878164
65226	4.429147	0.348295	9.317836	0.039708	-0.378807	0.007128	0.845752	0.229436	0.481729	-0.263810	0.964567	0.003759	-0.463798	-0.130264	0.876312
65227	4.521327	0.268818	9.255810	0.025657	-0.475529	0.011936	0.843488	0.228899	0.485935	-0.264003	0.964514	0.003923	-0.467793	-0.131597	0.873986
65228	4.681062	0.226353	9.132187	0.004015	-0.556180	0.017116	0.840827	0.228211	0.490846	-0.264075	0.964494	0.003939	-0.472520	-0.132932	0.871237
65229	4.799066	0.195366	9.088620	0.003373	-0.613948	0.016270	0.837850	0.227517	0.496230	-0.264200	0.964460	0.003886	-0.477710	-0.134360	0.868183
65230	4.922544	0.218708	9.090191	-0.007995	-0.655500	0.010518	0.834670	0.226615	0.501967	-0.264159	0.964471	0.003828	-0.483265	-0.135795	0.864878
65231	4.816734	0.183850	9.111168	-0.032578	-0.708815	0.007819	0.831185	0.225694	0.508128	-0.264038	0.964506	0.003506	-0.489301	-0.137079	0.861275
65232	4.815225	0.175008	9.206601	-0.042366	-0.776225	-0.001336	0.827363	0.224494	0.514853	-0.263729	0.964592	0.003213	-0.495902	-0.138440	0.857272
65233	4.764665	0.089300	9.251902	-0.064064	-0.873789	-0.009179	0.823003	0.223159	0.522366	-0.263305	0.964709	0.002712	-0.503326	-0.139774	0.852717
65234	4.645211	0.136927	9.344120	-0.061562	-0.992270	-0.030902	0.818045	0.221349	0.530854	-0.262650	0.964888	0.002416	-0.511680	-0.141406	0.847460
65235	4.487723	0.194178	9.487340	-0.072113	-1.164993	-0.047769	0.812134	0.219199	0.540732	-0.261860	0.965104	0.002063	-0.521410	-0.143272	0.841193
65236	4.239897	0.166562	9.693813	-0.083849	-1.389222	-0.081533	0.805020	0.216290	0.552414	-0.260671	0.965426	0.001872	-0.532910	-0.145505	0.833568
65237	4.029858	0.121875	9.767143	-0.132804	-1.690180	-0.146283	0.796254	0.212367	0.566462	-0.258755	0.965942	0.001590	-0.546832	-0.147841	0.824086
65238	3.760862	0.175167	9.808959	-0.165954	-2.044712	-0.245954	0.785533	0.206825	0.583234	-0.255802	0.966728	0.001711	-0.563475	-0.150537	0.812302
65239	3.913745	0.152508	10.015551	-0.267707	-2.457292	-0.363370	0.772341	0.199550	0.603050	-0.251409	0.967880	0.001713	-0.583338	-0.152935	0.797701
65240	3.663186	-0.261026	10.315698	-0.276617	-2.875839	-0.487243	0.756446	0.190276	0.625767	-0.245955	0.969278	0.002591	-0.606049	-0.155871	0.780006
65241	3.757374	-0.905014	10.507053	-0.072790	-3.365045	-0.649204	0.737178	0.178609	0.651665	-0.240628	0.970598	0.006182	-0.631400	-0.161366	0.758482
65242	4.389737	-1.258809	10.154283	0.328307	-3.839814	-0.815095	0.714353	0.164200	0.680248	-0.236750	0.971468	0.014125	-0.658520	-0.171139	0.732845
65243	5.408239	-1.375082	10.308345	0.653797	-4.231794	-0.992374	0.688194	0.147006	0.710477	-0.234160	0.971858	0.025727	-0.686701	-0.184071	0.703250
65244	5.722967	-1.666321	10.518241	1.016953	-4.626919	-1.197368	0.658544	0.126375	0.741855	-0.233154	0.971555	0.041467	-0.715513	-0.200275	0.669277
65245	8.252208	-1.192746	12.014823	1.135946	-5.089309	-1.382901	0.624546	0.102283	0.774261	-0.232554	0.970771	0.059343	-0.745561	-0.217119	0.630078
65246	11.963686	-1.685222	13.874052	0.947691	-5.321680	-1.368865	0.587234	0.076978	0.805748	-0.231403	0.969886	0.075989	-0.775634	-0.231076	0.587363
65247	13.797210	-1.971544	14.291420	1.186850	-5.189263	-1.343457	0.549367	0.051543	0.833990	-0.233106	0.967923	0.093731	-0.802407	-0.245901	0.543760
65248	13.072599	-0.715356	13.641741	1.178279	-5.075267	-1.241892	0.510935	0.026638	0.859206	-0.236066	0.965440	0.110448	-0.826570	-0.259261	0.499565
65249	12.283000	0.069450	13.573258	0.658769	-5.118087	-1.228457	0.470878	0.001295	0.882198	-0.235533	0.963884	0.124302	-0.850176	-0.266318	0.454177
65250	10.439242	-2.400480	11.768332	0.246701	-4.948979	-1.274832	0.431244	-0.024280	0.901909	-0.231861	0.963083	0.136789	-0.871934	-0.268107	0.409694
65251	6.530619	-3.942279	11.133405	0.768567	-4.566541	-1.591559	0.394682	-0.052001	0.917345	-0.232031	0.960397	0.154271	-0.889038	-0.273741	0.366985
65252	2.461113	-1.861125	9.759427	1.455565	-4.155705	-1.723381	0.361550	-0.080159	0.928901	-0.238515	0.955193	0.175263	-0.901328	-0.284923	0.326230
65253	-1.327844	-1.046277	9.678237	1.509934	-3.837838	-1.778843	0.331038	-0.108280	0.937384	-0.246016	0.949135	0.196518	-0.910983	-0.295667	0.287561
65254	14.653487	2.028660	15.298435	0.397696	-4.024365	-0.736662	0.295993	-0.127170	0.946687	-0.247330	0.947093	0.204555	-0.922614	-0.294691	0.248880
65255	18.318936	-6.796362	19.243087	-1.466572	-0.424622	0.013202	0.291993	-0.128302	0.947775	-0.233781	0.951327	0.200807	-0.927408	-0.280206	0.247787
65256	5.780903	-4.653931	14.773199	1.136489	1.601950	0.173030	0.306439	-0.122058	0.944032	-0.244794	0.948285	0.202069	-0.919876	-0.293015	0.260712
65257	-4.322439	-5.258224	7.539536	0.549458	1.977025	0.173723	0.324081	-0.114582	0.939065	-0.250353	0.946861	0.201933	-0.912302	-0.300540	0.278174
65258	-6.918555	-2.908283	5.353683	1.393488	1.744765	0.282257	0.339274	-0.106501	0.934639	-0.263951	0.942877	0.203254	-0.902897	-0.315658	0.291783
65259	-3.474577	1.037722	7.309785	1.044241	1.378357	0.383848	0.350596	-0.098498	0.931333	-0.274642	0.939918	0.202793	-0.895351	-0.326882	0.302480
65260	-0.735499	1.461980	9.858275	-0.568447	1.147622	0.633622	0.359221	-0.088760	0.929022	-0.271826	0.942354	0.195140	-0.892788	-0.322631	0.314386
65261	1.844933	-1.539897	10.466222	-1.436176	1.459261	0.777613	0.370127	-0.076833	0.925799	-0.261827	0.947546	0.183314	-0.891321	-0.310249	0.330595
65262	2.678714	-2.421108	9.879572	-0.230301	2.458580	0.859085	0.389789	-0.061003	0.918881	-0.263075	0.948847	0.174589	-0.882528	-0.309788	0.353802
65263	1.626856	0.403695	9.634061	-0.062212	2.990745	0.845215	0.413736	-0.043738	0.909346	-0.265903	0.949486	0.166650	-0.870700	-0.310746	0.381206
65264	1.974206	0.798820	8.832500	-0.550691	3.168443	0.778927	0.439189	-0.026474	0.898005	-0.264500	0.951453	0.157409	-0.858576	-0.306654	0.410865
65265	3.105738	1.173853	8.788183	-0.596922	3.417264	0.703619	0.466404	-0.009417	0.884522	-0.262578	0.953399	0.148606	-0.844701	-0.301566	0.442197
65266	4.521551	1.698860	9.143549	-0.779446	3.630858	0.615022	0.495318	0.007359	0.868681	-0.259053	0.955719	0.139614	-0.829187	-0.294188	0.475291
65267	5.812943	1.527703	9.266802	-0.989506	3.871956	0.522530	0.525721	0.023521	0.850332	-0.253575	0.958505	0.130261	-0.811984	-0.284104	0.509870
65268	6.626157	1.181843	9.233611	-1.024563	4.117374	0.449976	0.557748	0.039406	0.829075	-0.247842	0.961209	0.121045	-0.792144	-0.272992	0.545879
65269	7.323856	0.927193	9.191688	-1.038840	4.295007	0.425403	0.590227	0.054933	0.805366	-0.242142	0.963787	0.111719	-0.770065	-0.260952	0.582155
65270	8.123734	0.540701	9.315123	-1.040176	4.406839	0.461829	0.622646	0.070713	0.779302	-0.237111	0.966136	0.101781	-0.745715	-0.248154	0.618327
65271	9.112003	0.264991	9.439403	-0.995382	4.490842	0.555204	0.654213	0.086898	0.751302	-0.233336	0.968109	0.091208	-0.719416	-0.234975	0.653626
65272	9.696526	-0.070620	9.549489	-0.930307	4.560052	0.677221	0.684912	0.103982	0.721168	-0.231369	0.969576	0.079938	-0.690915	-0.221607	0.688133
65273	10.164695	-0.545830	9.619384	-0.884664	4.585507	0.848631	0.713921	0.122030	0.689511	-0.231298	0.970523	0.067723	-0.660923	-0.207831	0.721102
65274	10.416323	-1.219948	9.578763	-0.764299	4.582887	1.050465	0.742927	0.131864	0.656255	-0.221121	0.973713	0.054673	-0.631795	-0.185730	0.752555
65275	10.604739	-1.544146	9.731382	-0.630362	4.548203	1.288144	0.768008	0.152534	0.622011	-0.226947	0.973018	0.041605	-0.598881	-0.173116	0.781903
65276	10.702022	-1.666693	9.928068	-0.501071	4.490211	1.535722	0.790664	0.175083	0.586682	-0.236073	0.971324	0.028282	-0.564907	-0.160862	0.809323
65277	10.750473	-1.360081	10.006430	-0.387225	4.414595	1.744389	0.810605	0.198812	0.550811	-0.247892	0.968669	0.015177	-0.530536	-0.148844	0.834492
65278	10.754883	-0.900955	10.261969	-0.339072	4.322543	1.872131	0.828082	0.223202	0.514258	-0.261573	0.965181	0.002281	-0.495843	-0.136405	0.857632
65279	10.878236	-0.237778	10.576183	-0.332331	4.235079	1.904345	0.843220	0.247016	0.477455	-0.275870	0.961142	-0.010050	-0.461385	-0.123241	0.878599
65280	10.779828	0.281709	10.616727	-0.368590	4.149915	1.839062	0.856494	0.269586	0.440161	-0.289945	0.956795	-0.021815	-0.427025	-0.108938	0.897654
65281	10.442167	0.804191	10.300394	-0.417891	4.050424	1.698736	0.868063	0.289880	0.403035	-0.302853	0.952474	-0.032770	-0.393379	-0.093614	0.914598
65282	10.075257	1.357959	9.950640	-0.519137	3.880961	1.518695	0.878041	0.307727	0.366535	-0.314232	0.948351	-0.043446	-0.360974	-0.077030	0.929389
65283	10.099763	1.787657	9.719047	-0.689108	3.651555	1.318167	0.886464	0.322663	0.331769	-0.323452	0.944674	-0.054504	-0.330999	-0.058996	0.941785
65284	4.579483	1.499201	9.822097	0.037250	2.610124	1.251176	0.890694	0.335971	0.306247	-0.334757	0.940507	-0.058178	-0.307574	-0.050700	0.950173
65285	12.849203	-1.762396	-4.421914	0.221864	0.706783	1.247360	0.888588	0.348007	0.298836	-0.346502	0.936138	-0.059849	-0.300579	-0.050366	0.952426
65286	15.950840	6.921429	6.205699	0.641923	1.270816	0.451578	0.890751	0.352950	0.286338	-0.352465	0.934203	-0.055073	-0.286936	-0.051868	0.956545
65287	21.230982	6.963567	6.391567	-1.210572	0.706941	0.641300	0.890499	0.359229	0.279223	-0.354688	0.932473	-0.068482	-0.284969	-0.038054	0.957781
65288	18.760719	1.718429	1.493084	-0.732224	0.972433	0.324410	0.892099	0.362600	0.269594	-0.355541	0.931533	-0.076399	-0.278838	-0.027697	0.959939
65289	15.006952	3.283548	-1.486195	0.780056	0.765567	-0.515003	0.896017	0.358004	0.262655	-0.353048	0.933164	-0.067538	-0.269279	-0.032214	0.962523
65290	14.918970	6.707308	-3.368988	0.244790	-0.042131	-0.866061	0.898940	0.349894	0.263592	-0.345934	0.936148	-0.062898	-0.268769	-0.034644	0.962581
65291	14.942409	4.425399	-3.938996	-0.125495	-0.455515	-0.303868	0.898747	0.346865	0.268214	-0.342836	0.937260	-0.063306	-0.273345	-0.035058	0.961277
65292	14.423119	0.771353	-4.489849	0.015324	-1.130074	-0.245202	0.896452	0.344111	0.279217	-0.340648	0.938114	-0.062464	-0.283432	-0.039119	0.958194
65293	15.197608	-1.242188	-6.675327	0.719096	-1.864889	-0.074009	0.891279	0.342539	0.297133	-0.342049	0.938048	-0.055386	-0.297697	-0.052270	0.953229
65294	15.837872	0.152160	-7.838155	1.397494	-2.724754	0.150198	0.882394	0.342162	0.322965	-0.347630	0.936665	-0.042557	-0.317071	-0.074721	0.945454
65295	2.879206	7.984597	8.290384	1.111708	-2.077607	-0.719678	0.878140	0.333655	0.342848	-0.344874	0.938179	-0.029692	-0.331560	-0.092165	0.938922
65296	8.620640	10.687614	19.587552	0.305845	-3.132197	-0.078750	0.867622	0.329739	0.372162	-0.345175	0.938164	-0.026515	-0.357892	-0.105457	0.927789
65297	8.602017	0.959060	13.660023	-0.923728	-3.085455	-0.575164	0.858069	0.321031	0.400819	-0.336741	0.941025	-0.032811	-0.387715	-0.106818	0.915569
65298	23.538688	-12.908306	17.675565	-0.103930	-3.435378	-0.579129	0.846183	0.311629	0.432275	-0.331305	0.943005	-0.031282	-0.417386	-0.116745	0.901199
65299	16.297774	4.203030	12.471354	3.812874	0.287910	-0.762028	0.849911	0.304809	0.429817	-0.340441	0.940244	0.006398	-0.402182	-0.151765	0.902894
65300	4.516216	11.415477	13.406081	3.367953	0.422887	-0.559984	0.853510	0.300149	0.425948	-0.348880	0.936344	0.039275	-0.387045	-0.182127	0.903895
65301	5.160401	6.790478	11.038789	-1.587252	-0.679863	0.400555	0.849437	0.302677	0.432254	-0.346030	0.937936	0.023225	-0.398397	-0.169301	0.901453
65302	3.743430	-2.994315	9.770279	-3.815432	-1.550110	0.161725	0.842517	0.301678	0.446268	-0.331595	0.943350	-0.011682	-0.424511	-0.138138	0.894823
65303	8.715137	-4.057326	7.307043	1.061132	-0.008701	0.125585	0.842048	0.302819	0.446381	-0.337112	0.941461	-0.002750	-0.421083	-0.148165	0.894839
65304	3.890771	2.079245	9.789933	1.510438	0.422412	0.030417	0.843707	0.303630	0.442682	-0.343568	0.939067	0.010711	-0.412456	-0.161128	0.896615
65305	4.331626	2.451158	10.473896	-0.337685	-0.283142	0.064053	0.842302	0.303748	0.445268	-0.342682	0.939422	0.007398	-0.416048	-0.158816	0.895367
65306	5.177770	-0.808492	8.976672	-1.134758	-0.561607	0.055312	0.839757	0.303268	0.450373	-0.338278	0.941042	-0.002924	-0.424707	-0.149896	0.892836
65307	5.484448	-1.489244	8.671139	0.214904	-0.020164	0.061466	0.839451	0.303786	0.450596	-0.339679	0.940541	-0.001285	-0.424194	-0.151979	0.892727
65308	4.472114	0.789352	9.462230	0.436395	0.082805	0.048703	0.839638	0.304242	0.449939	-0.341838	0.939756	0.002460	-0.422085	-0.155872	0.893056
65309	4.451985	0.490267	9.375417	-0.184009	-0.173443	0.041756	0.838749	0.304334	0.451532	-0.341382	0.939924	0.000627	-0.424215	-0.154671	0.892255
65310	4.793682	-0.324804	9.037228	-0.041681	-0.132552	0.045185	0.838034	0.304423	0.452797	-0.341487	0.939887	0.000120	-0.425541	-0.154725	0.891614
65311	4.685407	0.227083	9.232630	0.142288	-0.075656	0.044001	0.837549	0.304688	0.453516	-0.342434	0.939541	0.001186	-0.425735	-0.156293	0.891248
65312	4.660534	0.282537	9.194934	0.015199	-0.118322	0.046349	0.836889	0.304809	0.454653	-0.342790	0.939411	0.001180	-0.426746	-0.156838	0.890668
65313	4.734623	0.136036	9.118254	0.021207	-0.117504	0.041192	0.836233	0.304980	0.455743	-0.343198	0.939262	0.001179	-0.427703	-0.157396	0.890111
65314	4.798584	0.129892	9.117951	0.055784	-0.104276	0.037155	0.835661	0.305035	0.456754	-0.343651	0.939096	0.001575	-0.428455	-0.158280	0.889592
65315	4.865910	0.180727	9.164112	0.027599	-0.104394	0.037199	0.835073	0.305187	0.457726	-0.344053	0.938949	0.001648	-0.429279	-0.158858	0.889092
65316	4.858483	0.129817	9.133678	0.022005	-0.086257	0.032718	0.834592	0.305228	0.458576	-0.344325	0.938849	0.001762	-0.429995	-0.159370	0.888654
65317	4.836762	0.160137	9.133794	0.011006	-0.076208	0.029792	0.834149	0.305355	0.459297	-0.344593	0.938750	0.001721	-0.430640	-0.159706	0.888281
65318	4.838880	0.103456	9.084249	0.019175	-0.059644	0.028157	0.833797	0.305394	0.459909	-0.344815	0.938669	0.001831	-0.431143	-0.160110	0.887964
65319	4.716002	0.187096	9.159329	0.029143	-0.046797	0.027386	0.833488	0.305545	0.460369	-0.345142	0.938549	0.001961	-0.431479	-0.160527	0.887726
65320	4.725846	0.134071	9.143555	-0.004235	-0.069090	0.029386	0.833090	0.305581	0.461065	-0.345273	0.938500	0.001857	-0.432142	-0.160740	0.887365
65321	4.700357	0.062293	9.138690	-0.003929	-0.079845	0.026042	0.832643	0.305665	0.461817	-0.345445	0.938437	0.001699	-0.432867	-0.160947	0.886974
65322	4.756686	0.073153	9.102609	0.004043	-0.082647	0.025146	0.832199	0.305640	0.462632	-0.345578	0.938389	0.001687	-0.433613	-0.161279	0.886549
65323	4.744627	0.029872	9.126697	0.002258	-0.086058	0.022745	0.831735	0.305683	0.463439	-0.345749	0.938326	0.001600	-0.434368	-0.161564	0.886127
65324	4.698634	0.037272	9.118035	0.009942	-0.085238	0.023653	0.831284	0.305639	0.464276	-0.345895	0.938272	0.001646	-0.435114	-0.161959	0.885689
65325	4.743722	0.054139	9.101944	0.004630	-0.097090	0.020007	0.830779	0.305638	0.465179	-0.346053	0.938213	0.001592	-0.435951	-0.162299	0.885215
65326	4.753277	-0.023306	9.087978	-0.002010	-0.101640	0.018646	0.830272	0.305520	0.466160	-0.346106	0.938194	0.001555	-0.436874	-0.162632	0.884699
65327	4.766903	-0.076584	9.070069	0.010811	-0.103330	0.016698	0.829750	0.305477	0.467118	-0.346264	0.938136	0.001570	-0.437740	-0.163049	0.884194
65328	4.853642	-0.093507	9.028512	0.035908	-0.094360	0.009147	0.829306	0.305283	0.468033	-0.346405	0.938083	0.001912	-0.438470	-0.163714	0.883709
65329	4.907346	0.010319	8.910393	0.073708	-0.074143	0.015166	0.828915	0.305271	0.468732	-0.346826	0.937926	0.002490	-0.438876	-0.164632	0.883337
65330	4.923948	0.241897	8.913843	0.093189	-0.059135	0.008828	0.828625	0.305131	0.469335	-0.347216	0.937779	0.003338	-0.439114	-0.165726	0.883014
65331	4.972146	0.278048	8.985512	0.052108	-0.060889	0.014719	0.828294	0.305136	0.469916	-0.347539	0.937658	0.003727	-0.439483	-0.166401	0.882703
65332	4.960887	0.152753	8.948227	0.028910	-0.050892	0.015280	0.828018	0.305069	0.470446	-0.347701	0.937597	0.003976	-0.439876	-0.166867	0.882420
65333	4.940681	0.166389	8.987453	0.055376	-0.029511	0.013530	0.827828	0.305114	0.470751	-0.348028	0.937474	0.004399	-0.439974	-0.167477	0.882255
65334	4.878459	0.217002	9.052229	0.056619	-0.025983	0.018008	0.827651	0.305114	0.471061	-0.348335	0.937357	0.004880	-0.440064	-0.168126	0.882087
65335	4.798951	0.182153	9.041695	0.035355	-0.039357	0.014743	0.827414	0.305154	0.471453	-0.348585	0.937263	0.005121	-0.440313	-0.168578	0.881876
65336	4.730727	0.183444	9.113528	0.037420	-0.051800	0.021082	0.827112	0.305139	0.471991	-0.348832	0.937170	0.005417	-0.440682	-0.169127	0.881587
65337	4.640177	0.238967	9.184419	0.033794	-0.099358	0.016002	0.826605	0.305088	0.472911	-0.349086	0.937074	0.005638	-0.441432	-0.169747	0.881092
65338	4.551007	0.192589	9.248174	0.005290	-0.155809	0.022012	0.825840	0.304904	0.474364	-0.349200	0.937031	0.005646	-0.442772	-0.170311	0.880311
65339	4.302059	0.188241	9.404449	0.021648	-0.244566	0.029971	0.824637	0.304735	0.476561	-0.349515	0.936913	0.005692	-0.444761	-0.171259	0.879123
65340	4.371252	0.227643	9.374924	-0.022620	-0.364954	0.035097	0.822886	0.304313	0.479846	-0.349613	0.936879	0.005392	-0.447917	-0.172197	0.877336
65341	4.241440	0.054237	9.533826	-0.048192	-0.490016	0.036798	0.820539	0.303779	0.484184	-0.349671	0.936860	0.004791	-0.452158	-0.173236	0.874953
65342	4.201153	-0.215728	9.496452	-0.072084	-0.639254	0.031428	0.817521	0.302839	0.489845	-0.349511	0.936923	0.004074	-0.457713	-0.174537	0.871800
65343	4.148671	-0.123794	9.490639	-0.034832	-0.768500	0.028771	0.813864	0.301727	0.496574	-0.349557	0.936908	0.003628	-0.464150	-0.176534	0.867987
65344	4.025455	0.136505	9.504405	-0.079066	-0.962159	0.010747	0.809321	0.299998	0.504976	-0.349187	0.937048	0.002955	-0.472300	-0.178722	0.863129
65345	4.099027	0.155958	9.466243	-0.150965	-1.195191	-0.003101	0.803612	0.297787	0.515298	-0.348413	0.937340	0.001672	-0.482511	-0.180880	0.857010
65346	4.343227	0.057795	9.326377	-0.167735	-1.399971	-0.014824	0.796824	0.294977	0.527314	-0.347389	0.937721	0.000383	-0.494360	-0.183489	0.849671
65347	4.544302	0.021058	9.186074	-0.168455	-1.564755	-0.041139	0.789113	0.291663	0.540585	-0.346191	0.938164	-0.000821	-0.507397	-0.186498	0.841289
65348	5.058214	0.099005	8.927919	-0.153444	-1.694379	-0.078452	0.780667	0.287618	0.554828	-0.344702	0.938711	-0.001609	-0.521286	-0.189994	0.831964
65349	5.679658	0.166390	8.648135	-0.118472	-1.727999	-0.117737	0.771927	0.283163	0.569164	-0.343134	0.939285	-0.001926	-0.535152	-0.193813	0.822222
65350	6.099522	0.156845	8.289054	-0.078210	-1.666623	-0.144592	0.763390	0.278421	0.582852	-0.341517	0.939874	-0.001665	-0.548272	-0.197782	0.812576
65351	6.279710	0.121216	8.135729	-0.040200	-1.594774	-0.171085	0.755113	0.273592	0.595779	-0.339966	0.940437	-0.000979	-0.560560	-0.201805	0.803148
65352	6.369439	-0.080465	8.096563	-0.053382	-1.537778	-0.196384	0.747062	0.268492	0.608121	-0.338105	0.941108	-0.000156	-0.572349	-0.205493	0.793845
65353	6.346937	-0.096550	8.165799	-0.010872	-1.466983	-0.234715	0.739356	0.263205	0.619738	-0.336270	0.941765	0.001203	-0.583331	-0.209289	0.784808
65354	5.930297	-0.080488	8.542784	0.011629	-1.490631	-0.274145	0.731490	0.257352	0.631421	-0.334239	0.942483	0.003077	-0.594312	-0.213296	0.775434
65355	5.487182	-0.200846	8.969495	-0.005249	-1.645429	-0.335965	0.722709	0.250605	0.644118	-0.331736	0.943358	0.005184	-0.606335	-0.217424	0.764908
65356	5.187200	-0.322514	9.306556	0.062328	-1.890818	-0.417624	0.712488	0.242383	0.658492	-0.329040	0.944278	0.008445	-0.619752	-0.222687	0.752541
65357	4.908656	-0.312218	9.480334	0.175407	-2.226831	-0.514298	0.700181	0.232452	0.675065	-0.326480	0.945112	0.013187	-0.634947	-0.229628	0.737640
65358	4.755524	-0.457694	9.991793	0.230281	-2.695044	-0.641578	0.684901	0.219968	0.694640	-0.323442	0.946051	0.019326	-0.652914	-0.237912	0.719098
65359	4.967135	-1.106527	10.110520	0.405088	-3.207219	-0.794664	0.666166	0.204608	0.717187	-0.320732	0.946762	0.027810	-0.673315	-0.248551	0.696325
65360	5.871690	-1.342160	10.025984	0.757891	-3.672884	-0.996035	0.644214	0.185674	0.741966	-0.319319	0.946789	0.040319	-0.694999	-0.262898	0.669224
65361	6.846625	-1.377238	10.777522	0.968107	-4.101681	-1.210515	0.619068	0.163057	0.768224	-0.318484	0.946285	0.055798	-0.717860	-0.279210	0.637745
65362	9.988823	-1.432351	11.949700	0.914757	-4.443746	-1.306593	0.590773	0.137844	0.794976	-0.317192	0.945643	0.071747	-0.741874	-0.294546	0.602384
65363	12.843268	-1.705626	12.687224	0.873760	-4.431169	-1.319190	0.561537	0.111974	0.819840	-0.316146	0.944665	0.087517	-0.764675	-0.308333	0.565865
65364	12.432539	-1.214495	12.362141	0.966179	-4.255490	-1.292695	0.532640	0.086277	0.841933	-0.316504	0.942916	0.103608	-0.784933	-0.321661	0.529542
65365	12.330974	0.494295	12.288419	0.713976	-4.300363	-1.248649	0.502365	0.060422	0.862542	-0.315692	0.941507	0.117913	-0.804964	-0.331533	0.492055
65366	11.416968	-0.201008	11.970971	0.181900	-4.346609	-1.266858	0.470887	0.033922	0.881541	-0.310961	0.941507	0.129874	-0.825572	-0.335281	0.453892
65367	9.236436	-0.946137	11.417243	0.046076	-4.302446	-1.374635	0.439143	0.006480	0.898394	-0.305065	0.941636	0.142327	-0.845037	-0.336571	0.415490
65368	6.576531	-4.252503	9.348186	-0.137972	-4.178923	-1.651741	0.408418	-0.023171	0.912501	-0.296846	0.941967	0.156782	-0.863178	-0.334905	0.377838
65369	4.032515	-2.520278	8.979698	0.988779	-3.807746	-1.884803	0.380886	-0.053834	0.923054	-0.297979	0.937895	0.177657	-0.875291	-0.342718	0.341189
65370	0.753470	0.451387	9.868250	1.321977	-3.694465	-2.004148	0.354394	-0.085455	0.931183	-0.302220	0.931905	0.200541	-0.884912	-0.352493	0.304435
65371	4.804512	0.538684	12.005451	0.147370	-3.734230	-1.400474	0.325288	-0.111658	0.939000	-0.298750	0.930009	0.214081	-0.897182	-0.350164	0.269163
65372	22.948159	-3.079059	16.935350	-2.222524	-2.094102	-0.355196	0.307418	-0.122088	0.943710	-0.277518	0.937119	0.211638	-0.910208	-0.326958	0.254206
65373	8.141822	-7.634544	16.386449	0.711208	0.836197	0.041670	0.314855	-0.118973	0.941654	-0.284083	0.934819	0.213096	-0.905629	-0.334602	0.260535
65374	0.644146	-4.729076	10.086908	0.259004	1.494602	0.287421	0.327585	-0.111235	0.938251	-0.287347	0.934277	0.211089	-0.900067	-0.338753	0.274092
65375	-3.534008	-4.674901	5.233460	0.816370	1.433859	0.460686	0.339059	-0.102054	0.935213	-0.296179	0.931968	0.209079	-0.892926	-0.347880	0.285765
65376	-2.889556	-0.766367	5.709899	1.405901	1.242380	0.591919	0.348374	-0.092096	0.932820	-0.310722	0.927548	0.207619	-0.884357	-0.362177	0.294518
65377	-0.605855	1.809402	8.491827	0.522173	0.949646	0.850240	0.354040	-0.080790	0.931734	-0.318291	0.926381	0.201270	-0.879402	-0.367820	0.302261
65378	1.965507	0.641183	10.178233	-0.978168	0.914122	1.010086	0.358973	-0.068036	0.930865	-0.313308	0.930685	0.188845	-0.879191	-0.359438	0.312775
65379	3.735815	-2.198875	10.048570	-0.665603	1.564004	1.113079	0.369183	-0.052121	0.927894	-0.311498	0.933733	0.176385	-0.875599	-0.354155	0.328483
65380	2.999003	-0.389400	10.146129	0.291325	2.369155	1.143186	0.386310	-0.032945	0.921780	-0.318382	0.933175	0.166784	-0.865678	-0.357908	0.350006
65381	2.627103	0.904096	9.673255	-0.114918	2.586398	1.109548	0.404988	-0.013378	0.914224	-0.321759	0.933848	0.156199	-0.855836	-0.357419	0.373893
65382	3.349259	0.765268	9.242463	-0.231573	2.818378	1.054491	0.425660	0.006602	0.904859	-0.324206	0.934700	0.145692	-0.844810	-0.355376	0.400005
65383	4.029763	1.385502	9.416626	-0.274244	3.065654	0.968743	0.448187	0.026468	0.893548	-0.326115	0.935516	0.135862	-0.832333	-0.352291	0.427918
65384	5.007514	1.187153	9.624794	-0.481728	3.278875	0.885991	0.472485	0.046315	0.880121	-0.326259	0.936865	0.125849	-0.818726	-0.346609	0.457766
65385	5.876582	0.872597	9.893757	-0.508248	3.561933	0.827506	0.498642	0.066259	0.864272	-0.326131	0.938151	0.116238	-0.803116	-0.339827	0.489411
65386	6.559705	0.840080	9.968249	-0.497985	3.842217	0.775834	0.526744	0.086557	0.845606	-0.326203	0.939218	0.107059	-0.784941	-0.332232	0.522962
65387	6.961356	0.807954	9.708690	-0.509072	4.072378	0.729329	0.555891	0.106725	0.824376	-0.326181	0.940190	0.098231	-0.764586	-0.323502	0.557454
65388	7.302493	0.675204	9.530384	-0.528358	4.226539	0.698316	0.585575	0.126871	0.800629	-0.326241	0.941041	0.089490	-0.742071	-0.313601	0.592440
65389	7.877226	0.344682	9.454509	-0.590349	4.301615	0.703817	0.614664	0.146704	0.775027	-0.326128	0.941904	0.080356	-0.718212	-0.302150	0.626799
65390	8.434206	-0.268470	9.483021	-0.614540	4.342607	0.767869	0.642909	0.166907	0.747536	-0.326681	0.942500	0.070521	-0.692783	-0.289545	0.660467
65391	8.824414	-0.953318	9.528078	-0.575386	4.379325	0.890901	0.669721	0.187660	0.718510	-0.328593	0.942557	0.060103	-0.665958	-0.276349	0.692914
65392	9.216983	-1.335706	9.701354	-0.485795	4.395081	1.057853	0.694967	0.209607	0.687813	-0.332713	0.941745	0.049183	-0.637435	-0.263025	0.724220
65393	9.617174	-1.456305	9.968616	-0.415187	4.412976	1.244994	0.718241	0.232594	0.655766	-0.338899	0.940065	0.037754	-0.607682	-0.249355	0.754019
65394	9.681134	-1.302159	10.135237	-0.367560	4.424604	1.414828	0.739670	0.256724	0.622078	-0.347112	0.937467	0.025846	-0.576543	-0.235048	0.782528
65395	9.691490	-0.963258	10.310065	-0.371105	4.424950	1.528899	0.759084	0.281062	0.587193	-0.356463	0.934210	0.013648	-0.544725	-0.219673	0.809332
65396	9.734951	-0.536045	10.544998	-0.397634	4.410291	1.564086	0.776800	0.305096	0.550907	-0.366454	0.930435	0.001433	-0.512146	-0.202995	0.834565
65397	9.772711	0.018363	10.872197	-0.462546	4.398967	1.526555	0.792928	0.327770	0.513646	-0.376117	0.926512	-0.010608	-0.479376	-0.184779	0.857937
65398	10.082750	0.631910	11.376805	-0.586042	4.384167	1.434305	0.807808	0.348811	0.475160	-0.384966	0.922648	-0.022836	-0.446371	-0.164474	0.879603
65399	10.421352	1.226392	11.695874	-0.762612	4.384793	1.294864	0.821623	0.367422	0.435819	-0.392211	0.919189	-0.035521	-0.413651	-0.141748	0.899333
65400	10.516164	1.725793	11.643000	-0.954620	4.376602	1.100685	0.834694	0.383283	0.395449	-0.397612	0.916255	-0.048806	-0.381038	-0.116497	0.917190
65401	10.791759	2.156807	11.384565	-1.150162	4.317647	0.885312	0.846923	0.395798	0.355058	-0.400829	0.914000	-0.062774	-0.349368	-0.089153	0.932734
65402	10.565255	2.406874	10.528483	-1.302315	4.197682	0.651323	0.858344	0.404973	0.315027	-0.402104	0.912332	-0.077220	-0.318681	-0.060392	0.945936
65403	4.203200	-1.391880	6.740119	-0.343290	1.995415	0.535388	0.862379	0.410920	0.295714	-0.405617	0.910347	-0.082119	-0.302947	-0.049129	0.951740
65404	19.040075	3.942601	-3.682042	1.695414	1.747026	-0.215266	0.868362	0.409966	0.279061	-0.408767	0.910297	-0.065335	-0.280813	-0.057336	0.958048
65405	17.544098	11.117205	9.254934	-0.341100	1.313452	-0.454675	0.873829	0.406494	0.266805	-0.403839	0.912345	-0.067376	-0.270806	-0.048872	0.961392
65406	25.520128	5.707988	-0.821535	-1.674289	0.898281	-0.015964	0.876331	0.406734	0.258091	-0.399206	0.913057	-0.083441	-0.269590	-0.029910	0.962511
65407	16.668529	1.703441	-0.779213	-0.177113	1.389867	-0.209942	0.880831	0.405158	0.244915	-0.396868	0.913966	-0.084629	-0.258132	-0.022655	0.965844
65408	18.177561	4.193794	-6.571111	0.177887	0.295582	-0.932773	0.885266	0.396679	0.242796	-0.389086	0.917667	-0.080622	-0.254787	-0.023096	0.966721
65409	17.097220	4.495526	-6.619602	0.042729	-0.282342	-0.265045	0.885569	0.394154	0.245786	-0.386822	0.918715	-0.079571	-0.257170	-0.024610	0.966053
65410	16.164381	1.106489	-6.214966	0.317556	-1.024909	-0.070740	0.883180	0.393179	0.255743	-0.386995	0.918920	-0.076302	-0.265008	-0.031583	0.963729
65411	15.597789	2.165481	-5.285086	0.687978	-1.846154	-0.069223	0.878426	0.391809	0.273594	-0.388229	0.918938	-0.069512	-0.278651	-0.045156	0.959330
65412	15.571944	1.009999	-4.279398	0.870596	-2.440778	0.100122	0.871025	0.391348	0.296920	-0.391556	0.918101	-0.061438	-0.296646	-0.062747	0.952924
65413	4.289150	4.166526	5.981773	0.767568	-1.836188	-0.696661	0.868168	0.383635	0.314813	-0.387798	0.920275	-0.052019	-0.309671	-0.076923	0.947727
65414	5.741237	5.598018	19.887664	-0.409499	-2.995749	-0.365110	0.859895	0.377767	0.343325	-0.383250	0.922028	-0.054632	-0.337194	-0.084601	0.937626
65415	8.355700	-2.687953	11.706188	-0.409937	-2.639252	-0.346710	0.851990	0.372226	0.368187	-0.378823	0.923698	-0.057228	-0.361395	-0.090720	0.927989
65416	6.220369	-2.697550	10.183435	1.595756	-2.234039	-0.402558	0.845309	0.366126	0.389108	-0.381203	0.923586	-0.040902	-0.374350	-0.113754	0.920284
65417	13.346118	-4.433198	17.072867	0.460419	-2.921523	-0.850125	0.837246	0.354695	0.416187	-0.375799	0.926104	-0.033272	-0.397234	-0.128546	0.908670
65418	19.975568	2.997882	11.645590	2.489234	-0.770145	-0.729240	0.836951	0.346758	0.423404	-0.379475	0.925171	-0.007577	-0.394349	-0.154329	0.905909
65419	4.977550	7.362619	12.896815	2.693190	0.063772	-0.544910	0.839274	0.341798	0.422839	-0.385357	0.922570	0.019126	-0.383561	-0.178996	0.906003
65420	6.970202	6.348985	12.008261	0.185528	-0.493812	0.076186	0.837079	0.341487	0.427417	-0.386623	0.922009	0.020543	-0.387067	-0.182446	0.903821
65421	4.249909	0.786461	10.865908	-2.399831	-0.980053	0.078371	0.832891	0.340483	0.436307	-0.377752	0.925906	-0.001441	-0.404470	-0.163616	0.899797
65422	6.999923	-3.518445	7.683239	-0.629295	-0.649320	0.108511	0.829833	0.340307	0.442231	-0.375991	0.926593	-0.007499	-0.412320	-0.160052	0.896870
65423	4.873486	0.766674	9.871073	1.342178	0.243123	0.040028	0.830665	0.341049	0.440092	-0.381783	0.924242	0.004367	-0.405262	-0.171647	0.897942
65424	4.646882	2.094082	10.119331	0.193550	-0.187406	0.037985	0.829760	0.340948	0.441873	-0.382792	0.923815	0.006004	-0.406162	-0.174128	0.897057
65425	5.240624	0.185097	9.096856	-0.663997	-0.430413	0.033824	0.827860	0.340489	0.445775	-0.380328	0.924852	-0.000098	-0.412309	-0.169459	0.895145
65426	5.266487	-0.249594	9.203792	0.143705	-0.130544	0.052459	0.827122	0.340621	0.447041	-0.381262	0.924466	0.001024	-0.412926	-0.171287	0.894513
65427	4.768583	0.795970	9.466038	0.151662	-0.085696	0.064364	0.826512	0.341036	0.447852	-0.382393	0.923997	0.002090	-0.413101	-0.172983	0.894105
65428	4.795229	0.113451	9.199327	-0.138912	-0.181943	0.061585	0.825524	0.341160	0.449577	-0.382234	0.924065	0.000643	-0.415219	-0.172375	0.893241
65429	4.751290	-0.168036	9.150536	0.030581	-0.117245	0.063905	0.824782	0.341516	0.450668	-0.382861	0.923806	0.000627	-0.416116	-0.173060	0.892691
65430	4.681592	0.038795	9.211913	0.068944	-0.117830	0.060146	0.824061	0.341736	0.451818	-0.383551	0.923519	0.001041	-0.416907	-0.174153	0.892109
65431	4.752894	-0.034179	9.145970	0.000708	-0.137687	0.060103	0.823245	0.342019	0.453090	-0.384022	0.923324	0.000773	-0.418085	-0.174633	0.891464
65432	4.861455	-0.092488	9.068430	0.051110	-0.115416	0.055935	0.822547	0.342203	0.454217	-0.384604	0.923081	0.001045	-0.418922	-0.175553	0.890890
65433	4.768698	0.075772	9.159250	0.091092	-0.080993	0.051921	0.821997	0.342507	0.454983	-0.385385	0.922754	0.001618	-0.419283	-0.176674	0.890499
65434	4.826304	0.089751	9.123153	0.062248	-0.090957	0.047237	0.821434	0.342652	0.455891	-0.385943	0.922520	0.002026	-0.419874	-0.177612	0.890033
65435	4.837978	0.073058	9.156291	0.042688	-0.083001	0.038571	0.820925	0.342828	0.456674	-0.386412	0.922324	0.002228	-0.420437	-0.178293	0.889631
65436	4.799246	0.046271	9.221888	0.038122	-0.073541	0.037325	0.820471	0.342911	0.457426	-0.386788	0.922165	0.002465	-0.420977	-0.178950	0.889244
65437	4.798224	0.087283	9.143714	0.047671	-0.066295	0.033501	0.820052	0.343069	0.458060	-0.387236	0.921977	0.002734	-0.421383	-0.179619	0.888917
65438	4.731719	0.005022	9.151959	0.023871	-0.075136	0.031282	0.819613	0.343093	0.458826	-0.387503	0.921864	0.002871	-0.421990	-0.180150	0.888521
65439	4.833669	0.044513	9.046878	0.046570	-0.068082	0.028877	0.819203	0.343204	0.459475	-0.387909	0.921692	0.003150	-0.422414	-0.180815	0.888185
65440	4.733153	0.058768	9.124253	0.047070	-0.057534	0.030040	0.818843	0.343248	0.460084	-0.388264	0.921542	0.003498	-0.422786	-0.181498	0.887868
65441	4.764514	0.082674	9.129758	0.032487	-0.067931	0.022688	0.818456	0.343301	0.460731	-0.388559	0.921416	0.003680	-0.423262	-0.182034	0.887532
65442	4.772930	0.031285	9.114670	0.033810	-0.069831	0.025543	0.818060	0.343282	0.461449	-0.388822	0.921304	0.003930	-0.423786	-0.182636	0.887158
65443	4.816785	0.048929	9.099454	0.042072	-0.067728	0.020809	0.817682	0.343317	0.462094	-0.389143	0.921168	0.004205	-0.424222	-0.183259	0.886821
65444	4.832645	0.098254	9.087626	0.030028	-0.064137	0.020438	0.817329	0.343260	0.462759	-0.389349	0.921079	0.004444	-0.424713	-0.183807	0.886473
65445	4.803108	0.031337	9.084675	0.025349	-0.067111	0.016108	0.816970	0.343252	0.463398	-0.389561	0.920989	0.004592	-0.425209	-0.184274	0.886138
65446	4.771622	0.017446	9.093460	0.021964	-0.066600	0.016244	0.816622	0.343153	0.464085	-0.389699	0.920930	0.004778	-0.425750	-0.184755	0.885778
65447	4.810681	0.011308	9.082388	0.039482	-0.074771	0.011887	0.816246	0.343091	0.464791	-0.389937	0.920828	0.005071	-0.426253	-0.185378	0.885406
65448	4.780553	0.041803	9.049222	0.039635	-0.067682	0.013346	0.815904	0.342962	0.465487	-0.390127	0.920745	0.005425	-0.426734	-0.186026	0.885038
65449	4.733827	0.142621	9.101523	0.043826	-0.079045	0.011341	0.815511	0.342887	0.466230	-0.390379	0.920636	0.005759	-0.427254	-0.186703	0.884645
65450	4.776647	0.084406	9.077783	0.040557	-0.101692	0.008638	0.815041	0.342651	0.467225	-0.390536	0.920567	0.006143	-0.428007	-0.187475	0.884117
65451	4.813630	0.055793	9.069463	0.039066	-0.103237	0.009548	0.814550	0.342512	0.468181	-0.390754	0.920473	0.006442	-0.428742	-0.188191	0.883609
65452	4.828910	0.125675	9.018073	0.052428	-0.107134	0.009164	0.814052	0.342269	0.469223	-0.390967	0.920379	0.006927	-0.429492	-0.189089	0.883053
65453	4.841122	0.163580	9.061705	0.040627	-0.114213	0.009055	0.813515	0.342103	0.470275	-0.391188	0.920282	0.007242	-0.430309	-0.189857	0.882490
65454	4.821559	0.120963	9.052047	0.020028	-0.130693	0.005431	0.812928	0.341780	0.471523	-0.391232	0.920262	0.007457	-0.431375	-0.190537	0.881822
65455	4.915664	0.123937	9.004627	0.038688	-0.142577	0.004049	0.812286	0.341512	0.472823	-0.391404	0.920186	0.007778	-0.432429	-0.191383	0.881123
65456	4.875856	0.268679	9.011793	0.061765	-0.133783	0.004740	0.811685	0.341175	0.474095	-0.391625	0.920087	0.008364	-0.433355	-0.192456	0.880434
65457	4.893266	0.296566	9.000383	0.045324	-0.143434	0.012756	0.811002	0.340982	0.475402	-0.391897	0.919968	0.008701	-0.434387	-0.193365	0.879726
65458	4.756995	0.153205	9.126730	0.025603	-0.175779	0.018149	0.810163	0.340685	0.477042	-0.392071	0.919892	0.008904	-0.435794	-0.194248	0.878835
65459	4.787570	0.052066	9.127489	0.018449	-0.210327	0.018194	0.809162	0.340409	0.478934	-0.392271	0.919806	0.008978	-0.437470	-0.195137	0.877805
65460	4.672955	0.064006	9.154155	0.047348	-0.232662	0.021912	0.808053	0.340032	0.481070	-0.392571	0.919674	0.009353	-0.439247	-0.196411	0.876632
65461	4.390481	0.083546	9.427184	0.007219	-0.324450	0.023604	0.806520	0.339577	0.483956	-0.392765	0.919592	0.009301	-0.441884	-0.197583	0.875043
65462	4.577474	-0.051561	9.275129	-0.015233	-0.439243	0.015999	0.804504	0.338731	0.487887	-0.392743	0.919603	0.009154	-0.445562	-0.198979	0.872859
65463	4.379720	-0.054059	9.380039	-0.000314	-0.531562	0.014424	0.802056	0.337767	0.492564	-0.392830	0.919566	0.009080	-0.449879	-0.200776	0.870229
65464	4.298378	0.103681	9.374204	-0.024837	-0.668689	0.000255	0.799024	0.336300	0.498460	-0.392638	0.919650	0.008926	-0.455407	-0.202846	0.866867
65465	4.210119	0.272527	9.404697	-0.045435	-0.851891	-0.007059	0.795130	0.334462	0.505869	-0.392345	0.919778	0.008568	-0.462421	-0.205288	0.862568
65466	4.233512	0.336495	9.394704	-0.090769	-1.046762	-0.007698	0.790270	0.332109	0.514954	-0.391779	0.920025	0.007890	-0.471150	-0.207983	0.857182
65467	4.203716	0.377480	9.458739	-0.121242	-1.273369	-0.017233	0.784257	0.329248	0.525867	-0.391038	0.920348	0.006945	-0.481694	-0.211081	0.850538
65468	4.141235	0.176374	9.530142	-0.156831	-1.525837	-0.034516	0.776941	0.325562	0.538862	-0.389924	0.920828	0.005865	-0.494290	-0.214672	0.842374
65469	4.057416	0.008058	9.589198	-0.159396	-1.790038	-0.074645	0.768239	0.320958	0.553890	-0.388520	0.921427	0.004940	-0.508784	-0.218992	0.832575
65470	4.229287	0.060431	9.431099	-0.141912	-2.058001	-0.148550	0.758170	0.314910	0.570973	-0.386575	0.922246	0.004666	-0.525109	-0.224262	0.820955
65471	4.554280	0.370076	9.489814	-0.123490	-2.285999	-0.233480	0.746846	0.307525	0.589618	-0.384130	0.923265	0.005019	-0.542831	-0.230238	0.807667
65472	4.526204	0.370610	9.548144	-0.216743	-2.548233	-0.302892	0.733912	0.298668	0.610058	-0.380614	0.924720	0.005167	-0.562589	-0.235989	0.792340
65473	4.623174	-0.066358	9.537626	-0.269520	-2.839414	-0.404005	0.719139	0.288108	0.632323	-0.376105	0.926560	0.005570	-0.584281	-0.241825	0.774685
65474	4.784369	-0.603379	9.629087	-0.199250	-3.150914	-0.523514	0.702309	0.275404	0.656440	-0.371123	0.928554	0.007488	-0.607478	-0.248878	0.754341
65475	4.927384	-1.079570	9.256093	0.094178	-3.451700	-0.669626	0.683382	0.260377	0.682050	-0.367038	0.930120	0.012675	-0.631088	-0.259001	0.731196
65476	5.534547	-1.099251	9.189867	0.455718	-3.781726	-0.811266	0.662020	0.242659	0.709117	-0.364442	0.930974	0.021658	-0.654914	-0.272769	0.704759
65477	6.118926	-1.191989	9.299119	0.711263	-4.127995	-0.981975	0.638027	0.221880	0.737354	-0.362775	0.931268	0.033676	-0.679202	-0.288980	0.674667
65478	6.808265	-1.225779	9.212221	1.057580	-4.450488	-1.153356	0.611432	0.197745	0.766190	-0.362817	0.930552	0.049369	-0.703218	-0.308172	0.640714
65479	8.934871	-0.918762	10.413745	1.151067	-4.781913	-1.283592	0.581850	0.170559	0.795211	-0.363366	0.929266	0.066561	-0.727609	-0.327681	0.602669
65480	12.160412	-1.113377	12.160139	1.058435	-4.901852	-1.255138	0.550142	0.142309	0.822856	-0.364033	0.927685	0.082945	-0.751548	-0.345178	0.562163
65481	14.061917	-1.272823	12.189112	1.173071	-4.684654	-1.165626	0.518672	0.114897	0.847218	-0.366716	0.925045	0.099054	-0.772333	-0.362065	0.521929
65482	13.237342	-0.120957	11.391905	1.243137	-4.472303	-1.045871	0.487568	0.088597	0.868578	-0.371118	0.921521	0.114326	-0.790284	-0.378087	0.482184
65483	12.940169	0.643380	11.408086	0.747933	-4.378813	-0.935915	0.456016	0.063155	0.887728	-0.372656	0.919373	0.126022	-0.808194	-0.388285	0.442784
65484	11.818326	-0.585635	11.145275	0.377470	-4.223776	-0.911051	0.424891	0.038184	0.904439	-0.371682	0.918368	0.135839	-0.825421	-0.393880	0.404399
65485	9.007944	-3.162124	9.396089	0.447116	-3.965616	-1.066349	0.395792	0.012630	0.918253	-0.371006	0.916873	0.147303	-0.840061	-0.398979	0.367577
65486	5.884307	-2.100613	9.554767	1.130802	-3.653090	-1.263032	0.369634	-0.013748	0.929076	-0.375694	0.912302	0.162970	-0.849838	-0.409287	0.332053
65487	2.165124	-0.721829	8.634773	1.513466	-3.483586	-1.373808	0.345092	-0.040764	0.937683	-0.383676	0.905641	0.180574	-0.856565	-0.422081	0.296890
65488	-0.331579	-1.113259	10.055798	1.108971	-3.203906	-1.155150	0.322019	-0.064896	0.944506	-0.389332	0.900307	0.194598	-0.862974	-0.430391	0.264649
65489	18.776954	-1.567094	15.895887	-0.510147	-2.988381	0.232182	0.295128	-0.075610	0.952461	-0.385596	0.902653	0.191136	-0.874194	-0.423675	0.237243
65490	13.281702	-10.636109	18.634960	0.635668	0.477475	0.856380	0.295986	-0.065869	0.952918	-0.393658	0.900547	0.184523	-0.870302	-0.429741	0.240620
65491	3.403993	-3.680846	13.384099	1.758102	1.730758	1.162990	0.306225	-0.047898	0.950753	-0.412333	0.893511	0.177821	-0.858026	-0.446480	0.253865
65492	-3.912994	-3.851757	7.246381	1.637319	1.644195	1.130076	0.315530	-0.030343	0.948430	-0.429807	0.886512	0.171353	-0.845994	-0.461709	0.266680
65493	-4.021507	0.708338	7.417898	2.511222	1.573709	0.991445	0.324307	-0.014214	0.945845	-0.454002	0.874862	0.168814	-0.829884	-0.484163	0.277270
65494	-1.771069	4.887862	10.380229	1.748832	1.321030	0.833995	0.331401	-0.000411	0.943490	-0.471157	0.866313	0.165871	-0.817425	-0.499502	0.286903
65495	0.781808	5.044235	12.503650	-0.435988	1.098080	0.739009	0.336862	0.011416	0.941485	-0.470045	0.868449	0.157652	-0.815832	-0.495647	0.297914
65496	2.401214	1.523545	12.321816	-1.633827	1.364819	0.542165	0.345596	0.022862	0.938105	-0.458559	0.876325	0.147576	-0.818711	-0.481178	0.313338
65497	3.015456	-0.962212	10.934131	-0.527278	2.288864	0.335628	0.362709	0.036714	0.931179	-0.455424	0.878756	0.142748	-0.813039	-0.475857	0.335453
65498	2.061811	1.342023	10.762544	-0.101654	2.813949	0.168713	0.384790	0.051628	0.921559	-0.455259	0.879150	0.140837	-0.802917	-0.473741	0.361792
65499	2.715031	1.084048	10.081349	-0.864552	2.845648	0.059582	0.407239	0.065457	0.910973	-0.448562	0.883179	0.137064	-0.795581	-0.464446	0.389026
65500	3.869196	0.123543	9.567667	-0.886761	3.089273	0.047812	0.431588	0.080158	0.898502	-0.441779	0.887202	0.133055	-0.786488	-0.454364	0.418319
65501	4.565368	0.206814	9.672562	-0.981484	3.298259	0.105149	0.456873	0.095844	0.884353	-0.434553	0.891522	0.127877	-0.776164	-0.442722	0.448962
65502	5.614662	-0.430561	9.572789	-1.144549	3.481624	0.224838	0.482858	0.113129	0.868361	-0.426830	0.896257	0.120579	-0.764634	-0.428865	0.481052
65503	6.363638	-0.477889	9.492806	-1.057315	3.711674	0.359893	0.509433	0.131977	0.850330	-0.420579	0.900287	0.112239	-0.750727	-0.414809	0.514142
65504	6.964502	-0.044042	9.472209	-1.053966	3.892767	0.473267	0.536495	0.152219	0.830062	-0.415273	0.903887	0.102647	-0.734657	-0.399772	0.548144
65505	7.599440	0.119998	9.314679	-1.072655	4.028054	0.553785	0.563424	0.172969	0.807858	-0.410507	0.907198	0.092061	-0.716964	-0.383501	0.582142
65506	8.048777	0.348923	9.270036	-1.074625	4.142048	0.612196	0.590336	0.194185	0.783451	-0.406495	0.910080	0.080725	-0.697328	-0.366124	0.616188
65507	8.365583	0.320266	9.198208	-1.088131	4.227624	0.648341	0.616728	0.215142	0.757206	-0.402908	0.912647	0.068853	-0.676249	-0.347548	0.649537
65508	8.597703	0.334151	9.300495	-1.072657	4.293511	0.669072	0.642696	0.235891	0.728901	-0.400052	0.914737	0.056706	-0.653376	-0.328043	0.682266
65509	8.859927	0.333779	9.429701	-1.073249	4.343689	0.699630	0.667745	0.256065	0.698962	-0.397726	0.916438	0.044226	-0.629231	-0.307526	0.713790
65510	9.114258	0.195141	9.694232	-1.098546	4.382525	0.743034	0.691908	0.276013	0.667144	-0.396072	0.917692	0.031104	-0.603648	-0.285758	0.744279
65511	9.361562	0.017707	9.904273	-1.090627	4.427347	0.795690	0.714878	0.295433	0.633774	-0.395204	0.918424	0.017656	-0.576857	-0.263092	0.773317
65512	9.408029	-0.033203	9.940229	-1.064255	4.478833	0.833404	0.736862	0.314476	0.598447	-0.395338	0.918526	0.004102	-0.548400	-0.239612	0.801152
65513	9.359614	0.041648	10.033222	-1.049546	4.494850	0.868633	0.757401	0.332648	0.561862	-0.396199	0.918116	-0.009482	-0.519008	-0.215427	0.827177
65514	9.429537	0.192062	10.283468	-1.067388	4.484274	0.894837	0.776504	0.350080	0.523914	-0.397759	0.917193	-0.023342	-0.488701	-0.190266	0.851452
65515	9.621927	0.670891	10.784949	-1.089144	4.476396	0.913678	0.794039	0.366360	0.485060	-0.399752	0.915862	-0.037349	-0.457931	-0.164248	0.873683
65516	9.780725	1.406831	11.103787	-1.128740	4.473282	0.894102	0.810277	0.381395	0.444959	-0.402009	0.914185	-0.051524	-0.426426	-0.137129	0.894067
65517	10.146559	2.293049	11.350582	-1.191276	4.457549	0.796721	0.825365	0.394129	0.404271	-0.403606	0.912573	-0.065672	-0.394810	-0.108963	0.912279
65518	10.945570	3.112552	11.461972	-1.295263	4.405102	0.629476	0.839547	0.404116	0.363112	-0.404009	0.911246	-0.080043	-0.363231	-0.079501	0.928301
65519	5.783631	-0.703953	9.194111	-1.135823	3.824791	0.498828	0.850890	0.411178	0.326986	-0.404230	0.909980	-0.092384	-0.335537	-0.053569	0.940503
65520	15.708308	-3.020739	-2.265043	1.687642	0.295783	-0.562863	0.854163	0.406311	0.324526	-0.405080	0.911226	-0.074684	-0.326062	-0.067667	0.942924
65521	17.524218	10.204638	-0.362573	3.407386	2.524605	-1.142152	0.866574	0.397836	0.301289	-0.405732	0.913168	-0.038814	-0.290569	-0.088607	0.952743
65522	28.926730	18.425228	5.063064	-1.602461	-0.460352	-0.604676	0.867651	0.391973	0.305842	-0.395785	0.916856	-0.052245	-0.300892	-0.075717	0.950648
65523	28.486347	-0.650642	-6.461584	-2.248693	1.133759	2.186490	0.862267	0.412631	0.293652	-0.407914	0.909491	-0.080207	-0.300169	-0.050625	0.952542
65524	19.920457	-7.895591	-6.253988	-0.111423	-0.011040	-0.283383	0.863399	0.410040	0.293954	-0.405131	0.910715	-0.080421	-0.300684	-0.049654	0.952430
65525	20.621432	3.683766	-10.344699	2.919069	-0.664290	-1.115963	0.865934	0.399407	0.301053	-0.404144	0.913366	-0.049304	-0.294664	-0.078974	0.952332
65526	22.146323	7.985406	-11.067713	0.579791	-1.764292	-0.106653	0.861058	0.396901	0.317881	-0.404943	0.913309	-0.043457	-0.307572	-0.091305	0.947134
65527	23.389298	2.375885	-11.461600	0.982152	-2.097753	1.638980	0.847678	0.409683	0.337050	-0.422010	0.905728	-0.039559	-0.321482	-0.108705	0.940655
65528	6.875597	4.540383	4.309275	0.678562	-1.776660	-0.999461	0.846044	0.398489	0.354142	-0.415710	0.909012	-0.029712	-0.333759	-0.122082	0.934720
65529	7.183835	9.171946	22.660462	0.064225	-2.377410	-0.755199	0.840983	0.388562	0.376519	-0.409533	0.911914	-0.026360	-0.353596	-0.132029	0.926034
65530	5.569157	-1.342189	10.083780	-0.149673	-2.574016	-0.503643	0.833648	0.380358	0.400448	-0.404699	0.914088	-0.025731	-0.375831	-0.140611	0.915958
65531	14.967202	-7.317265	17.391254	0.735775	-2.997142	-0.550348	0.824269	0.370809	0.427880	-0.402955	0.915066	-0.016759	-0.397753	-0.158603	0.903680
65532	23.604240	6.610042	13.801462	2.461321	-0.579339	-0.649856	0.824606	0.363782	0.433230	-0.407257	0.913276	0.008295	-0.392641	-0.183276	0.901245
65533	2.312739	6.345654	9.847509	3.009837	0.873982	-0.557711	0.830235	0.360374	0.425254	-0.414140	0.909426	0.037860	-0.373093	-0.207548	0.904282
65534	5.144832	5.395601	12.703009	-0.375624	-0.585907	0.322696	0.826688	0.361974	0.430770	-0.415318	0.909072	0.033146	-0.379602	-0.206308	0.901853
65535	4.863090	1.579933	9.787370	-2.878131	-0.982079	0.089292	0.822487	0.360840	0.439670	-0.404814	0.914373	0.006850	-0.399551	-0.183619	0.898133
00000	6.414831	-3.937525	7.850004	-0.709276	-0.583204	0.167408	0.819455	0.361185	0.445015	-0.403240	0.915094	-0.000182	-0.407296	-0.179299	0.895523
00001	5.209199	0.127982	9.745124	1.116941	0.207919	0.043534	0.820110	0.361933	0.443198	-0.408085	0.912893	0.009630	-0.401107	-0.188760	0.896372
00002	4.308177	2.036861	9.497019	0.218154	-0.088149	0.035871	0.819604	0.361969	0.444102	-0.409170	0.912386	0.011488	-0.401034	-0.191129	0.895902
00003	4.767864	0.422602	9.402174	-0.495381	-0.377780	0.040585	0.817905	0.361591	0.447531	-0.407475	0.913190	0.006871	-0.406196	-0.187978	0.894242
00004	4.795760	-0.529339	8.956319	-0.027292	-0.199967	0.061743	0.816834	0.361652	0.449433	-0.407784	0.913056	0.006416	-0.408037	-0.188512	0.893291
00005	4.690392	0.170648	9.261226	0.054162	-0.197988	0.055303	0.815790	0.361749	0.451247	-0.408429	0.912766	0.006649	-0.409478	-0.189727	0.892374
00006	4.797286	-0.199086	9.187658	-0.114445	-0.235176	0.058530	0.814580	0.361712	0.453458	-0.408352	0.912808	0.005428	-0.411957	-0.189592	0.891261
00007	4.895309	-0.338142	9.120841	0.012566	-0.177130	0.056597	0.813608	0.361859	0.455083	-0.408837	0.912592	0.005281	-0.413394	-0.190352	0.890434
00008	4.890818	0.052262	9.120480	0.087051	-0.136746	0.054397	0.812813	0.361970	0.456412	-0.409557	0.912266	0.005871	-0.414244	-0.191699	0.889749
00009	4.858464	0.275049	9.132199	0.066751	-0.138742	0.053477	0.812009	0.362158	0.457693	-0.410240	0.911956	0.006219	-0.415144	-0.192814	0.889089
00010	4.913807	0.219462	9.139824	0.041725	-0.148956	0.046627	0.811192	0.362171	0.459129	-0.410709	0.911744	0.006439	-0.416276	-0.193792	0.888346
00011	4.861596	0.239915	9.147533	0.055034	-0.128404	0.042070	0.810474	0.362272	0.460315	-0.411252	0.911497	0.006733	-0.417137	-0.194763	0.887730
00012	4.867992	0.219063	9.145729	0.042257	-0.129942	0.038705	0.809766	0.362247	0.461581	-0.411659	0.911311	0.006993	-0.418110	-0.195676	0.887071
00013	4.862245	0.203357	9.164381	0.016192	-0.122068	0.037227	0.809092	0.362314	0.462709	-0.412001	0.911157	0.006963	-0.419077	-0.196270	0.886483
00014	4.880663	0.119082	9.131722	0.008287	-0.124338	0.036461	0.808413	0.362278	0.463922	-0.412248	0.911045	0.006930	-0.420143	-0.196853	0.885849
00015	4.989080	0.091258	9.103369	0.022058	-0.117951	0.033803	0.807767	0.362320	0.465012	-0.412586	0.910892	0.006967	-0.421051	-0.197486	0.885277
00016	4.924322	0.158537	9.090981	0.011515	-0.095019	0.030191	0.807235	0.362283	0.465964	-0.412797	0.910796	0.006991	-0.421865	-0.197992	0.884776
00017	4.829471	0.216304	9.124548	0.022806	-0.093410	0.030843	0.806704	0.362345	0.466835	-0.413114	0.910652	0.007048	-0.422571	-0.198542	0.884316
00018	4.834193	0.138471	9.113167	-0.013822	-0.115616	0.029282	0.806086	0.362259	0.467968	-0.413210	0.910610	0.006851	-0.423654	-0.198892	0.883719
00019	4.836771	0.077868	9.063362	-0.014265	-0.124499	0.028054	0.805432	0.362233	0.469113	-0.413348	0.910549	0.006593	-0.424762	-0.199217	0.883114
00020	4.734353	0.033544	9.094280	-0.001301	-0.125057	0.026034	0.804785	0.362098	0.470326	-0.413471	0.910494	0.006521	-0.425868	-0.199714	0.882469
00021	4.861788	-0.033323	9.028613	-0.022003	-0.151867	0.022719	0.804033	0.361967	0.471710	-0.413532	0.910468	0.006219	-0.427226	-0.200067	0.881732
00022	4.911100	-0.063404	9.051347	0.000233	-0.143439	0.018656	0.803334	0.361728	0.473083	-0.413602	0.910437	0.006194	-0.428471	-0.200644	0.880996
00023	4.910976	-0.049133	8.973761	0.015864	-0.139135	0.016707	0.802658	0.361567	0.474352	-0.413777	0.910357	0.006254	-0.429568	-0.201296	0.880313
00024	4.998080	-0.020123	8.942465	0.019237	-0.115004	0.012236	0.802104	0.361325	0.475472	-0.413878	0.910310	0.006426	-0.430505	-0.201941	0.879708
00025	4.946646	0.034797	9.001287	0.033957	-0.106952	0.010660	0.801589	0.361172	0.476456	-0.414082	0.910215	0.006673	-0.431267	-0.202640	0.879173
00026	4.941090	0.062837	8.978664	0.027903	-0.109619	0.007115	0.801077	0.360893	0.477526	-0.414180	0.910169	0.006944	-0.432123	-0.203344	0.878590
00027	5.044284	0.002997	8.900917	0.038091	-0.106035	0.008271	0.800574	0.360719	0.478501	-0.414383	0.910074	0.007238	-0.432860	-0.204077	0.878057
00028	5.074497	0.100589	8.877251	0.068385	-0.077540	0.005927	0.800204	0.360494	0.479288	-0.414647	0.909948	0.007870	-0.433290	-0.205033	0.877622
00029	5.025249	0.182449	8.933293	0.058152	-0.065101	0.006073	0.799887	0.360381	0.479902	-0.414920	0.909819	0.008350	-0.433615	-0.205801	0.877282
