// General information: 
//  MT Manager version: 2022.2.0 
//  XDA version: 2022.2.0 build 7381 rev 124627 built on 2023-07-19
// Device information: 
//  DeviceId: 00B4CAF0
//  ProductCode: MTW2-3A7G6
//  Firmware Version: 4.6.0
//  Hardware Version: 2.0.0
// Device settings: 
//  Filter Profile: human(46.1)
//  Option Flags: Orientation Smoother Disabled, Position/Velocity Smoother Disabled, Continuous Zero Rotation Update Disabled, AHS Disabled, ICC Disabled
// Coordinate system: ENU
PacketCounter	Acc_X	Acc_Y	Acc_Z	Gyr_X	Gyr_Y	Gyr_Z	Mat[1][1]	Mat[2][1]	Mat[3][1]	Mat[1][2]	Mat[2][2]	Mat[3][2]	Mat[1][3]	Mat[2][3]	Mat[3][3]
04556	4.476697	-0.555186	9.319042	-0.063612	-0.044815	0.031450	-0.880534	0.186298	0.435837	-0.240724	-0.967873	-0.072626	0.408304	-0.168866	0.897091
04557	4.556255	-0.655744	9.274902	-0.059127	-0.055760	0.029950	-0.880338	0.185989	0.436363	-0.240790	-0.967807	-0.073277	0.408686	-0.169580	0.896782
04558	4.569847	-0.764373	9.301472	-0.059671	-0.055295	0.024203	-0.880141	0.185689	0.436887	-0.240865	-0.967739	-0.073925	0.409066	-0.170296	0.896473
04559	4.475773	-0.700512	9.348186	-0.059865	-0.060134	0.015530	-0.879899	0.185481	0.437463	-0.241028	-0.967653	-0.074519	0.409491	-0.171010	0.896143
04560	4.484255	-0.772560	9.238913	-0.071500	-0.069430	0.008245	-0.879606	0.185310	0.438125	-0.241292	-0.967534	-0.075204	0.409965	-0.171866	0.895763
04561	4.514123	-0.730671	9.295568	-0.069777	-0.081616	-0.000982	-0.879237	0.185214	0.438905	-0.241631	-0.967402	-0.075814	0.410556	-0.172712	0.895329
04562	4.488790	-0.726578	9.295781	-0.063666	-0.076938	-0.006046	-0.878877	0.185167	0.439645	-0.241990	-0.967269	-0.076365	0.411115	-0.173505	0.894919
04563	4.521474	-0.694705	9.252010	-0.070490	-0.094237	-0.016609	-0.878410	0.185239	0.440549	-0.242514	-0.967094	-0.076912	0.411805	-0.174399	0.894428
04564	4.497684	-0.704271	9.282802	-0.057771	-0.103026	-0.015093	-0.877919	0.185232	0.441528	-0.242929	-0.966954	-0.077369	0.412606	-0.175184	0.893905
04565	4.573962	-0.754715	9.200201	-0.062508	-0.103310	-0.013029	-0.877420	0.185257	0.442509	-0.243395	-0.966797	-0.077859	0.413393	-0.176020	0.893378
04566	4.445120	-0.769136	9.265331	-0.057033	-0.117954	-0.014879	-0.876866	0.185221	0.443621	-0.243806	-0.966657	-0.078310	0.414324	-0.176825	0.892787
04567	4.511609	-0.666733	9.290628	-0.057618	-0.116560	-0.015427	-0.876305	0.185235	0.444721	-0.244265	-0.966506	-0.078745	0.415239	-0.177634	0.892201
04568	4.333664	-0.487888	9.464567	-0.109763	-0.160468	-0.011994	-0.875579	0.185093	0.446208	-0.244870	-0.966276	-0.079678	0.416412	-0.179027	0.891375
04569	4.638772	-0.739523	9.192955	-0.123906	-0.167460	-0.010054	-0.874818	0.184955	0.447756	-0.245554	-0.966016	-0.080726	0.417608	-0.180569	0.890505
04570	4.563263	-0.605742	9.251663	-0.130071	-0.179226	-0.010693	-0.874012	0.184761	0.449406	-0.246236	-0.965748	-0.081843	0.418892	-0.182191	0.889571
04571	4.581218	-0.647237	9.304513	-0.138727	-0.207299	-0.001465	-0.873111	0.184411	0.451298	-0.246854	-0.965487	-0.083059	0.420405	-0.183924	0.888499
04572	4.487381	-0.667206	9.519815	-0.156153	-0.234038	0.001101	-0.872098	0.183995	0.453422	-0.247546	-0.965188	-0.084457	0.422098	-0.185897	0.887286
04573	4.447098	-0.717080	9.510451	-0.173702	-0.280333	0.002852	-0.870888	0.183471	0.455952	-0.248293	-0.964860	-0.085999	0.424152	-0.188105	0.885839
04574	4.548293	-0.664248	9.470862	-0.180375	-0.325978	0.003471	-0.869480	0.182847	0.458881	-0.249074	-0.964513	-0.087618	0.426576	-0.190477	0.884167
04575	4.482699	-0.543890	9.482557	-0.193807	-0.380190	0.013304	-0.867848	0.182050	0.462274	-0.249860	-0.964148	-0.089379	0.429429	-0.193071	0.882221
04576	4.464900	-0.576568	9.476642	-0.198436	-0.442899	0.023899	-0.865968	0.180985	0.466201	-0.250553	-0.963793	-0.091245	0.432808	-0.195823	0.879961
04577	4.470454	-0.637240	9.511933	-0.194577	-0.509732	0.032963	-0.863795	0.179729	0.470697	-0.251194	-0.963449	-0.093096	0.436760	-0.198652	0.877370
04578	4.450518	-0.726901	9.511472	-0.190018	-0.591309	0.032237	-0.861249	0.178262	0.475892	-0.251794	-0.963115	-0.094919	0.441418	-0.201576	0.874367
04579	4.486245	-0.769945	9.490405	-0.194247	-0.670802	0.033812	-0.858316	0.176636	0.481760	-0.252442	-0.962762	-0.096763	0.446728	-0.204670	0.870945
04580	4.331251	-0.833098	9.616875	-0.171186	-0.749011	0.018896	-0.854964	0.174936	0.488297	-0.253094	-0.962430	-0.098348	0.452747	-0.207669	0.867118
04581	4.394360	-0.869286	9.629823	-0.200769	-0.859602	0.003309	-0.851014	0.173159	0.495774	-0.254049	-0.961999	-0.100087	0.459603	-0.211126	0.862665
04582	4.389068	-1.062259	9.487428	-0.210487	-0.966665	-0.027119	-0.846432	0.171386	0.504162	-0.255299	-0.961492	-0.101766	0.467306	-0.214850	0.857592
04583	4.362783	-1.002093	9.447878	-0.163859	-1.059478	-0.059902	-0.841238	0.169754	0.513324	-0.256680	-0.961009	-0.102847	0.475851	-0.218279	0.852010
04584	4.373764	-0.850862	9.563401	-0.166302	-1.189332	-0.080956	-0.835280	0.167940	0.523549	-0.258202	-0.960494	-0.103842	0.485426	-0.221919	0.845644
04585	4.225566	-0.974812	9.686974	-0.123877	-1.328203	-0.101278	-0.828466	0.165964	0.534883	-0.259683	-0.960041	-0.104334	0.496194	-0.225337	0.838460
04586	4.224953	-1.092674	9.874720	-0.079073	-1.476157	-0.134719	-0.820668	0.163931	0.547386	-0.261235	-0.959627	-0.104267	0.508194	-0.228565	0.830360
04587	3.895174	-1.039279	10.223503	-0.005559	-1.645281	-0.183876	-0.811671	0.161981	0.561206	-0.262848	-0.959294	-0.103277	0.521632	-0.231338	0.821208
04588	3.454060	-0.991746	10.477867	-0.065811	-1.869417	-0.261103	-0.801055	0.160150	0.576770	-0.265346	-0.958708	-0.102328	0.536565	-0.235014	0.810473
04589	3.231520	-1.895402	10.366593	-0.036781	-2.237276	-0.366593	-0.787829	0.158436	0.595167	-0.268551	-0.958013	-0.100457	0.554262	-0.238976	0.797298
04590	2.477969	-2.585834	10.274776	0.213575	-2.720019	-0.523957	-0.771003	0.156948	0.617189	-0.271473	-0.957687	-0.095594	0.576071	-0.241253	0.780986
04591	3.447951	-3.125427	10.804422	0.477971	-3.317849	-0.739847	-0.749381	0.156099	0.643476	-0.274381	-0.957657	-0.087224	0.602613	-0.241922	0.760481
04592	3.934065	-3.822749	10.373820	0.728549	-3.802465	-0.990309	-0.723121	0.156428	0.672775	-0.277217	-0.957856	-0.075250	0.632651	-0.240920	0.736010
04593	5.640178	-3.023791	10.270070	1.105831	-4.230514	-1.211201	-0.692238	0.158002	0.704160	-0.278709	-0.958567	-0.058903	0.665678	-0.237031	0.707594
04594	6.937256	-1.951892	9.722723	1.289875	-4.572634	-1.314513	-0.657295	0.159911	0.736472	-0.278814	-0.959491	-0.040504	0.700161	-0.231962	0.675254
04595	10.810271	-1.604783	11.473694	1.167337	-4.835843	-1.288066	-0.618957	0.161236	0.768697	-0.278794	-0.960073	-0.023108	0.734279	-0.228611	0.639196
04596	12.848505	-2.798226	12.831118	0.842669	-4.749917	-1.219222	-0.579886	0.162117	0.798405	-0.279828	-0.960014	-0.008309	0.765133	-0.228234	0.602064
04597	15.603134	-5.508765	13.537071	0.628982	-4.244077	-1.241131	-0.543312	0.164444	0.823268	-0.282091	-0.959372	0.005466	0.790720	-0.229267	0.567626
04598	11.803867	-5.746770	10.521522	1.489630	-3.792500	-1.418533	-0.508841	0.169541	0.844001	-0.277635	-0.960347	0.025529	0.814862	-0.221334	0.535734
04599	9.993853	-3.236569	10.729301	1.971080	-3.663149	-1.514640	-0.474344	0.176351	0.862495	-0.269008	-0.961904	0.048731	0.838232	-0.208902	0.503714
04600	7.992361	-1.752452	10.176543	2.012981	-3.588481	-1.489024	-0.439889	0.183446	0.879116	-0.258760	-0.963289	0.071533	0.859966	-0.196014	0.471209
04601	6.348951	-1.288735	9.052735	1.771287	-3.616180	-1.459195	-0.404641	0.190730	0.894365	-0.249751	-0.963876	0.092558	0.879710	-0.185915	0.437658
04602	4.422741	-1.408308	8.096456	1.537206	-3.656042	-1.474024	-0.368470	0.198309	0.908242	-0.241825	-0.963796	0.112331	0.897636	-0.178245	0.403085
04603	2.553497	-1.315202	6.619634	1.385000	-3.762677	-1.538321	-0.330626	0.206656	0.920858	-0.234933	-0.963038	0.131771	0.914053	-0.172773	0.366956
04604	1.649154	-1.665870	6.158282	1.174497	-3.891110	-1.541960	-0.291134	0.214862	0.932242	-0.228940	-0.961787	0.150175	0.928885	-0.169706	0.329200
04605	-1.662818	-2.827005	5.061364	1.060208	-3.754620	-1.579298	-0.252384	0.223772	0.941397	-0.223462	-0.960072	0.168303	0.941471	-0.167889	0.292312
04606	6.538332	-7.909280	5.084889	1.219660	-3.893545	-1.314421	-0.212557	0.229933	0.949711	-0.214996	-0.959108	0.184089	0.953203	-0.165055	0.253300
04607	24.128674	-4.866584	11.350889	3.078316	-1.684226	-0.309607	-0.195735	0.230411	0.953204	-0.186306	-0.963041	0.194532	0.962797	-0.139511	0.231428
04608	13.751643	0.407515	18.371482	1.686627	0.574574	0.679654	-0.202426	0.224634	0.953186	-0.168732	-0.966780	0.192005	0.964652	-0.121966	0.233604
04609	9.422136	-3.923332	12.313273	0.438472	2.189910	1.386746	-0.225715	0.213881	0.950425	-0.161854	-0.970276	0.179910	0.960654	-0.113222	0.253624
04610	2.247148	-4.340494	8.159989	0.354287	2.934695	1.743278	-0.256518	0.200145	0.945590	-0.154293	-0.974259	0.164357	0.954145	-0.103737	0.280796
04611	-0.538833	-4.647575	4.724801	0.435255	3.098107	1.902661	-0.288735	0.184754	0.939414	-0.145307	-0.978294	0.147739	0.946318	-0.093845	0.309314
04612	-0.384108	-3.111751	4.611417	0.838777	3.061671	1.898972	-0.320166	0.168833	0.932196	-0.131657	-0.982373	0.132703	0.938169	-0.080243	0.336750
04613	-0.115977	-1.299610	4.863675	0.743297	3.011590	1.854110	-0.350552	0.152947	0.923970	-0.118789	-0.985868	0.118126	0.928979	-0.068348	0.363766
04614	0.444263	-0.055377	5.200896	0.487136	2.997153	1.783028	-0.380213	0.137287	0.914653	-0.107811	-0.988759	0.103595	0.918594	-0.059222	0.390740
04615	0.800018	0.547499	5.151973	0.062529	3.050385	1.657657	-0.409763	0.122678	0.903905	-0.100801	-0.990936	0.088794	0.906605	-0.054730	0.418415
04616	0.764285	0.684691	5.069236	-0.308260	3.093741	1.521937	-0.439066	0.109303	0.891782	-0.097156	-0.992528	0.073817	0.893187	-0.054231	0.446404
04617	1.015851	0.245625	5.306419	-0.612668	3.053769	1.358273	-0.467433	0.097535	0.878632	-0.096440	-0.993589	0.058990	0.878752	-0.057162	0.473843
04618	2.231946	0.123338	6.361168	-0.753924	2.972652	1.180335	-0.494432	0.087607	0.864790	-0.097374	-0.994228	0.045047	0.863745	-0.061935	0.500109
04619	3.888876	-0.508342	7.422798	-0.864955	2.971916	0.975201	-0.520822	0.079886	0.849919	-0.099888	-0.994476	0.032263	0.847801	-0.068093	0.525924
04620	5.726892	-0.795884	8.398092	-0.855393	3.080755	0.768401	-0.547411	0.074471	0.833544	-0.103005	-0.994455	0.021201	0.830501	-0.074253	0.552046
04621	6.833632	-0.983016	8.928796	-0.852306	3.292528	0.587409	-0.575050	0.071220	0.815012	-0.106768	-0.994217	0.011548	0.811122	-0.080376	0.579328
04622	7.224775	-1.143663	9.139320	-0.816228	3.487778	0.416524	-0.603380	0.070016	0.794374	-0.110891	-0.993827	0.003366	0.789706	-0.086057	0.607419
04623	7.218260	-1.380032	9.234412	-0.803125	3.599150	0.266351	-0.631687	0.070612	0.772001	-0.115561	-0.993294	-0.003704	0.766562	-0.091553	0.635610
04624	7.309199	-1.822976	9.287873	-0.794635	3.612166	0.142915	-0.659070	0.072629	0.748567	-0.120679	-0.992642	-0.009940	0.742337	-0.096887	0.662985
04625	7.696291	-2.292970	9.625975	-0.803675	3.575782	0.086896	-0.685273	0.075375	0.724375	-0.126027	-0.991898	-0.016012	0.717299	-0.102263	0.689220
04626	8.203996	-2.692470	9.807823	-0.805893	3.529901	0.113098	-0.710249	0.077989	0.699617	-0.130961	-0.991133	-0.022465	0.691661	-0.107578	0.714165
04627	8.489303	-2.953076	10.026252	-0.799771	3.486623	0.225975	-0.734207	0.079640	0.674239	-0.134823	-0.990421	-0.029827	0.665404	-0.112802	0.737911
04628	8.647692	-2.946020	10.305580	-0.795733	3.416337	0.395402	-0.756989	0.079699	0.648549	-0.137110	-0.989811	-0.038399	0.638880	-0.117990	0.760204
04629	8.913623	-2.793187	10.491736	-0.812349	3.316320	0.593780	-0.778550	0.077875	0.622732	-0.137701	-0.989289	-0.048441	0.612289	-0.123465	0.780935
04630	9.387240	-2.194125	10.867285	-0.838636	3.202362	0.773773	-0.798765	0.074301	0.597038	-0.136669	-0.988811	-0.059789	0.585915	-0.129354	0.799982
04631	10.005569	-1.554154	11.260010	-0.899525	3.109811	0.915354	-0.817815	0.069428	0.571278	-0.134489	-0.988265	-0.072424	0.559545	-0.136060	0.817555
04632	10.618171	-0.906385	11.670622	-0.993839	3.054654	0.986936	-0.835786	0.063983	0.545314	-0.131804	-0.987526	-0.086142	0.533000	-0.143871	0.833794
04633	11.045619	-0.545421	11.764648	-1.070447	3.031186	0.963853	-0.852789	0.059012	0.518911	-0.129292	-0.986522	-0.100293	0.505998	-0.152620	0.848925
04634	10.955376	0.255040	11.879878	-1.139426	2.995475	0.844886	-0.868597	0.055426	0.492410	-0.127676	-0.985205	-0.114322	0.478788	-0.162169	0.862823
04635	11.278507	1.061450	11.738846	-1.229760	2.938616	0.656801	-0.883101	0.053929	0.466074	-0.127707	-0.983495	-0.128175	0.451469	-0.172712	0.875412
04636	11.360321	1.889255	11.240939	-1.381460	2.893623	0.443042	-0.896312	0.054776	0.440027	-0.129857	-0.981260	-0.142361	0.423983	-0.184741	0.886628
04637	11.233156	2.213765	10.300036	-1.542497	2.811847	0.201782	-0.908110	0.058230	0.414662	-0.134424	-0.978409	-0.156992	0.396567	-0.198306	0.896331
04638	9.786475	-0.458006	11.585118	-1.818658	2.605167	-0.040079	-0.918021	0.064026	0.391328	-0.141808	-0.974622	-0.173210	0.370307	-0.214504	0.903803
04639	8.511625	-0.474123	-0.571959	-0.620721	1.673177	-0.605019	-0.923192	0.073591	0.377229	-0.149681	-0.972848	-0.176529	0.353996	-0.219434	0.909140
04640	15.880393	5.246279	8.092181	-0.084068	1.223211	-0.748805	-0.926281	0.083582	0.367447	-0.156942	-0.972066	-0.174517	0.342596	-0.219320	0.913524
04641	15.066916	4.079320	6.074598	-0.299508	1.213179	-0.869760	-0.928952	0.094742	0.357873	-0.166071	-0.970620	-0.174121	0.330862	-0.221182	0.917392
04642	15.342312	5.148952	8.426753	-0.987033	1.414591	-0.750297	-0.932221	0.105226	0.346254	-0.176289	-0.967636	-0.180562	0.316049	-0.229365	0.920600
04643	12.310275	3.356863	5.689900	-1.080388	1.378893	-0.652562	-0.935282	0.114789	0.334769	-0.185764	-0.964380	-0.188314	0.301228	-0.238315	0.923292
04644	9.743600	1.572717	3.774728	-1.407494	1.169071	-0.541408	-0.937672	0.122881	0.325071	-0.195022	-0.960286	-0.199544	0.287641	-0.250503	0.924398
04645	8.246400	1.406609	3.727069	-1.204845	0.751784	-0.443500	-0.938903	0.129085	0.319058	-0.202635	-0.956633	-0.209265	0.278208	-0.261132	0.924343
04646	7.218126	-0.258843	4.623569	-1.263032	0.330112	-0.319367	-0.939134	0.133038	0.316747	-0.209155	-0.952831	-0.219927	0.272548	-0.272790	0.922661
04647	7.329721	-1.585986	3.841533	-0.694542	-0.172976	-0.221346	-0.938179	0.134694	0.318869	-0.213168	-0.950604	-0.225636	0.272726	-0.279660	0.920549
04648	8.134464	-0.848321	4.439196	0.087523	-0.496356	-0.105797	-0.936566	0.134334	0.323726	-0.213961	-0.950694	-0.224504	0.277606	-0.279527	0.919130
04649	8.939629	1.333593	6.019919	0.640157	-0.586585	0.051433	-0.935010	0.132247	0.329040	-0.211722	-0.952523	-0.218800	0.284482	-0.274245	0.918618
04650	8.592688	2.819109	6.697652	0.756875	-0.532971	0.228179	-0.933932	0.128649	0.333496	-0.207454	-0.954860	-0.212616	0.291089	-0.267754	0.918463
04651	7.255045	3.500946	6.282564	0.733631	-0.520565	0.383271	-0.933167	0.123632	0.337513	-0.201757	-0.957274	-0.207173	0.297480	-0.261422	0.918240
04652	6.227535	3.375234	5.738922	0.624804	-0.570447	0.518042	-0.932457	0.117214	0.341739	-0.195089	-0.959503	-0.203209	0.304081	-0.256153	0.917562
04653	5.393855	2.673609	5.656008	0.586889	-0.647474	0.641372	-0.931672	0.109434	0.346427	-0.187343	-0.961711	-0.200038	0.311272	-0.251270	0.916500
04654	5.144735	2.256151	5.841005	0.660852	-0.677285	0.771558	-0.930926	0.100345	0.351153	-0.178119	-0.964151	-0.196687	0.318828	-0.245648	0.915427
04655	5.166414	2.400305	6.425830	0.758328	-0.612213	0.929471	-0.930537	0.089910	0.354990	-0.167059	-0.966866	-0.193031	0.325872	-0.238926	0.914725
04656	5.048300	2.599294	6.599172	0.826975	-0.458433	1.079095	-0.930742	0.078408	0.357172	-0.154342	-0.969709	-0.189320	0.331508	-0.231335	0.914651
04657	4.299178	2.894331	6.489086	0.900719	-0.306329	1.181747	-0.931441	0.066258	0.357808	-0.140368	-0.972605	-0.185302	0.335728	-0.222823	0.915225
04658	1.416809	2.652401	7.571171	1.091611	-0.460001	0.878909	-0.931044	0.056721	0.360472	-0.128531	-0.975513	-0.178477	0.341522	-0.212502	0.915536
04659	1.943832	10.670715	-0.841002	1.124915	-1.353533	0.454668	-0.926872	0.049495	0.372099	-0.120419	-0.978084	-0.169855	0.355538	-0.202242	0.912519
04660	6.470439	4.258960	2.307561	-0.674462	-2.015801	-1.033560	-0.918196	0.055467	0.392223	-0.132457	-0.976144	-0.172040	0.373324	-0.209919	0.903639
04661	11.879254	-12.585780	13.268810	0.705191	-1.994952	-2.447471	-0.907050	0.075247	0.414244	-0.152124	-0.976003	-0.155809	0.392579	-0.204343	0.896730
04662	38.082402	-18.604707	15.874736	4.112051	0.629843	-3.380883	-0.904111	0.109514	0.413025	-0.166627	-0.980436	-0.104784	0.393469	-0.163557	0.904672
04663	-8.069531	4.813673	12.488392	4.102169	1.508475	-2.112339	-0.906416	0.132436	0.401087	-0.169780	-0.983722	-0.058867	0.386762	-0.121454	0.914146
04664	4.660681	3.241051	13.178675	-2.154526	-1.808621	0.177565	-0.899588	0.128312	0.417466	-0.176690	-0.981075	-0.079204	0.399402	-0.145013	0.905234
04665	18.131894	-1.053274	9.427565	2.443675	0.497307	-0.303177	-0.901022	0.131975	0.413209	-0.169693	-0.983918	-0.055769	0.399204	-0.120368	0.908927
04666	-4.578041	16.126822	16.708583	1.096460	-0.259592	-0.007674	-0.899942	0.131783	0.415618	-0.165407	-0.985162	-0.045783	0.403418	-0.109948	0.908386
04667	9.130323	-8.492827	10.597766	-4.210913	-0.625746	-0.180181	-0.897080	0.132757	0.421453	-0.184008	-0.979401	-0.083160	0.401731	-0.152152	0.903029
04668	3.465752	-6.932134	-0.245525	1.376861	-0.282455	0.053705	-0.896009	0.131848	0.424009	-0.178005	-0.981468	-0.070963	0.406795	-0.139059	0.902874
04669	7.276111	9.782967	16.579451	3.421184	-0.430401	-0.105316	-0.894028	0.132381	0.428005	-0.164892	-0.985516	-0.039612	0.416562	-0.105989	0.902908
04670	3.123088	4.246811	11.221680	-1.736506	-0.241926	0.127979	-0.893210	0.130875	0.430172	-0.171021	-0.983684	-0.055833	0.415847	-0.123439	0.901019
04671	5.512995	-5.000983	6.134113	-0.939628	-0.067058	0.107404	-0.893088	0.129756	0.430763	-0.173991	-0.982617	-0.064742	0.414874	-0.132770	0.900140
04672	4.666312	0.063648	10.017424	1.077217	-0.227678	0.074425	-0.892240	0.128765	0.432813	-0.168881	-0.984080	-0.055377	0.418792	-0.122504	0.899781
04673	5.255544	0.478194	10.483208	-0.324429	-0.112758	0.077265	-0.891870	0.127888	0.433835	-0.169579	-0.983772	-0.058617	0.419299	-0.125848	0.899083
04674	4.696598	-1.467927	8.555576	-0.225919	-0.054919	0.072783	-0.891736	0.127133	0.434331	-0.169922	-0.983569	-0.060971	0.419444	-0.128173	0.898687
04675	4.589028	-0.340792	9.398234	-0.176467	-0.006115	0.073626	-0.891807	0.126425	0.434393	-0.170034	-0.983431	-0.062863	0.419248	-0.129923	0.898527
04676	4.607489	-0.863465	9.140155	-0.246001	-0.011183	0.068198	-0.891849	0.125770	0.434496	-0.170501	-0.983186	-0.065377	0.418968	-0.132389	0.898298
04677	4.512415	-0.895175	8.981790	-0.249458	0.005912	0.056257	-0.891941	0.125248	0.434458	-0.171072	-0.982920	-0.067849	0.418539	-0.134841	0.898133
04678	4.455982	-0.687513	9.165379	-0.230001	-0.001525	0.048163	-0.891991	0.124803	0.434485	-0.171649	-0.982659	-0.070131	0.418198	-0.137135	0.897945
04679	4.499087	-0.490069	9.275000	-0.210692	-0.004738	0.051108	-0.892030	0.124317	0.434544	-0.172102	-0.982427	-0.072231	0.417928	-0.139219	0.897750
04680	4.272141	-0.348228	9.330236	-0.184604	-0.024038	0.056253	-0.891999	0.123761	0.434765	-0.172417	-0.982230	-0.074141	0.417863	-0.141094	0.897487
04681	4.411287	-0.567677	9.251315	-0.186634	-0.039651	0.059990	-0.891908	0.123138	0.435129	-0.172689	-0.982035	-0.076063	0.417945	-0.142983	0.897150
04682	4.435385	-0.618840	9.366774	-0.165275	-0.054765	0.061015	-0.891758	0.122490	0.435619	-0.172881	-0.981864	-0.077818	0.418187	-0.144705	0.896761
04683	4.492060	-0.736424	9.342044	-0.149630	-0.067151	0.059179	-0.891550	0.121834	0.436228	-0.173007	-0.981715	-0.079404	0.418577	-0.146263	0.896326
04684	4.376858	-0.734924	9.358040	-0.123193	-0.080219	0.051188	-0.891276	0.121244	0.436952	-0.173112	-0.981587	-0.080739	0.419118	-0.147602	0.895854
04685	4.472646	-0.793765	9.300537	-0.123430	-0.098066	0.053433	-0.890928	0.120597	0.437840	-0.173182	-0.981465	-0.082064	0.419828	-0.148939	0.895300
04686	4.434156	-0.766765	9.384682	-0.097434	-0.114051	0.047183	-0.890503	0.119993	0.438869	-0.173215	-0.981368	-0.083150	0.420714	-0.150064	0.894696
04687	4.685362	-0.879954	9.232925	-0.106036	-0.122034	0.040033	-0.890029	0.119439	0.439979	-0.173334	-0.981252	-0.084260	0.421667	-0.151257	0.894046
04688	4.535040	-0.711942	9.314682	-0.079679	-0.119281	0.036643	-0.889562	0.118928	0.441061	-0.173389	-0.981166	-0.085141	0.422629	-0.152213	0.893429
04689	4.520777	-0.742572	9.316984	-0.091457	-0.136868	0.034189	-0.889013	0.118406	0.442307	-0.173500	-0.981063	-0.086094	0.423737	-0.153279	0.892722
04690	4.590568	-0.770928	9.228928	-0.083772	-0.147215	0.032666	-0.888418	0.117888	0.443639	-0.173610	-0.980965	-0.086994	0.424939	-0.154307	0.891973
04691	4.566376	-0.732752	9.221173	-0.063465	-0.152105	0.028402	-0.887790	0.117397	0.445024	-0.173656	-0.980896	-0.087671	0.426230	-0.155115	0.891217
04692	4.586692	-0.644762	9.254512	-0.052230	-0.167118	0.041115	-0.887121	0.116763	0.446523	-0.173559	-0.980855	-0.088327	0.427661	-0.155855	0.890402
04693	4.517100	-0.466270	9.435768	-0.087191	-0.210695	0.040006	-0.886258	0.116065	0.448415	-0.173606	-0.980761	-0.089267	0.429428	-0.156961	0.889357
04694	4.706332	-0.876181	9.108320	-0.064135	-0.189020	0.048539	-0.885501	0.115320	0.450099	-0.173497	-0.980708	-0.090062	0.431029	-0.157841	0.888426
04695	4.683730	-0.865209	9.162153	-0.062963	-0.195093	0.047460	-0.884711	0.114569	0.451841	-0.173377	-0.980659	-0.090819	0.432697	-0.158688	0.887464
04696	4.525196	-1.067762	9.250994	-0.068336	-0.198779	0.032770	-0.883879	0.113960	0.453621	-0.173429	-0.980579	-0.091581	0.434374	-0.159617	0.886477
04697	4.892870	-1.084980	8.964222	-0.066263	-0.197841	0.016120	-0.883015	0.113509	0.455412	-0.173603	-0.980488	-0.092225	0.436057	-0.160497	0.885491
04698	4.810725	-0.992956	9.032156	-0.068757	-0.183366	0.005572	-0.882196	0.113188	0.457076	-0.173899	-0.980375	-0.092866	0.437594	-0.161411	0.884566
04699	4.840372	-1.024655	8.936844	-0.053465	-0.161615	-0.003416	-0.881452	0.112983	0.458561	-0.174192	-0.980281	-0.093307	0.438976	-0.162124	0.883751
04700	4.816753	-0.982391	8.929337	-0.046779	-0.151165	-0.008222	-0.880745	0.112847	0.459950	-0.174515	-0.980187	-0.093689	0.440265	-0.162785	0.882988
04701	4.835057	-0.918446	9.026781	-0.032903	-0.135960	-0.011159	-0.880095	0.112758	0.461214	-0.174787	-0.980117	-0.093912	0.441454	-0.163266	0.882305
04702	4.806296	-0.915025	8.984247	-0.036707	-0.127100	-0.010460	-0.879487	0.112681	0.462391	-0.175086	-0.980037	-0.094194	0.442546	-0.163801	0.881659
04703	4.845670	-0.869975	9.037110	-0.030898	-0.117196	-0.008875	-0.878921	0.112599	0.463486	-0.175330	-0.979973	-0.094409	0.443573	-0.164241	0.881061
04704	4.881960	-0.851417	9.022038	-0.029956	-0.114731	-0.001133	-0.878382	0.112450	0.464544	-0.175518	-0.979913	-0.094674	0.444566	-0.164696	0.880475
04705	4.882667	-0.860818	8.975686	-0.032437	-0.103565	-0.000337	-0.877889	0.112306	0.465508	-0.175694	-0.979856	-0.094942	0.445469	-0.165136	0.879936
04706	4.891802	-0.863786	8.970426	-0.028559	-0.100944	0.009824	-0.877428	0.112072	0.466433	-0.175780	-0.979811	-0.095245	0.446342	-0.165561	0.879414
04707	4.849307	-0.895101	8.952337	-0.030228	-0.091340	0.007305	-0.877001	0.111872	0.467283	-0.175880	-0.979766	-0.095529	0.447140	-0.165964	0.878932
04708	4.885394	-0.964732	8.937489	-0.023899	-0.091268	0.004432	-0.876572	0.111706	0.468127	-0.175993	-0.979722	-0.095765	0.447937	-0.166332	0.878457
04709	4.886439	-0.947495	8.960673	-0.028441	-0.075574	0.007550	-0.876216	0.111529	0.468836	-0.176083	-0.979680	-0.096034	0.448599	-0.166701	0.878049
04710	4.857239	-1.005868	8.988535	-0.031008	-0.072777	0.003387	-0.875866	0.111403	0.469518	-0.176238	-0.979623	-0.096328	0.449220	-0.167117	0.877652
04711	4.841597	-0.975872	8.999114	-0.037338	-0.068556	0.000146	-0.875527	0.111310	0.470173	-0.176433	-0.979557	-0.096640	0.449804	-0.167565	0.877267
04712	4.803655	-0.926914	9.055708	-0.039041	-0.071658	-0.001244	-0.875174	0.111231	0.470849	-0.176665	-0.979481	-0.096982	0.450400	-0.168059	0.876867
04713	4.797673	-0.905445	9.138341	-0.055811	-0.079639	-0.000886	-0.874782	0.111129	0.471601	-0.176953	-0.979383	-0.097451	0.451048	-0.168699	0.876411
04714	4.736119	-0.865475	9.171849	-0.060448	-0.095630	-0.003590	-0.874315	0.111031	0.472489	-0.177303	-0.979268	-0.097969	0.451815	-0.169429	0.875875
04715	4.759848	-0.796339	9.180317	-0.062474	-0.127186	-0.001066	-0.873706	0.110849	0.473656	-0.177624	-0.979157	-0.098494	0.452866	-0.170188	0.875185
04716	4.703440	-0.757151	9.211484	-0.065658	-0.158000	0.003461	-0.872967	0.110574	0.475081	-0.177936	-0.979040	-0.099091	0.454167	-0.171037	0.874345
04717	4.719602	-0.735581	9.139721	-0.068419	-0.188053	0.009267	-0.872096	0.110184	0.476768	-0.178196	-0.978930	-0.099715	0.455735	-0.171919	0.873355
04718	4.754182	-0.756063	9.142399	-0.074139	-0.225714	0.016622	-0.871066	0.109661	0.478768	-0.178434	-0.978811	-0.100447	0.457608	-0.172925	0.872176
04719	4.872785	-0.847772	9.017499	-0.077866	-0.249852	0.023457	-0.869930	0.109021	0.480974	-0.178616	-0.978698	-0.101221	0.459693	-0.173965	0.870872
04720	4.897700	-0.943876	9.002870	-0.077308	-0.259801	0.022685	-0.868744	0.108374	0.483258	-0.178820	-0.978579	-0.102008	0.461851	-0.175036	0.869515
04721	5.007188	-1.028356	8.803535	-0.087840	-0.262438	0.026873	-0.867545	0.107674	0.485563	-0.179023	-0.978451	-0.102884	0.464022	-0.176183	0.868126
04722	5.057259	-1.118250	8.810025	-0.086192	-0.247615	0.021973	-0.866404	0.107050	0.487735	-0.179278	-0.978313	-0.103743	0.466052	-0.177324	0.866806
04723	4.958217	-1.092750	8.983339	-0.085604	-0.250133	0.017226	-0.865234	0.106460	0.489936	-0.179558	-0.978176	-0.104551	0.468113	-0.178433	0.865466
04724	5.013512	-1.173982	8.898910	-0.099139	-0.253883	0.010071	-0.864031	0.105935	0.492167	-0.179981	-0.978000	-0.105462	0.470167	-0.179704	0.864089
04725	4.864691	-1.117344	9.124980	-0.087374	-0.276551	0.001265	-0.862697	0.105448	0.494605	-0.180412	-0.977841	-0.106205	0.472446	-0.180855	0.862604
04726	4.810196	-0.908912	9.304067	-0.105416	-0.321961	-0.002827	-0.861137	0.104919	0.497429	-0.180981	-0.977637	-0.107104	0.475068	-0.182256	0.860868
04727	4.828876	-0.763955	9.281226	-0.125227	-0.383267	0.000298	-0.859277	0.104239	0.500776	-0.181605	-0.977405	-0.108163	0.478186	-0.183885	0.858792
04728	4.642625	-0.621717	9.430602	-0.104403	-0.452496	0.007674	-0.857089	0.103356	0.504694	-0.182085	-0.977211	-0.109101	0.481916	-0.185406	0.856377
04729	4.579467	-0.522028	9.479479	-0.118156	-0.554091	0.015513	-0.854401	0.102196	0.509465	-0.182554	-0.977004	-0.110170	0.486491	-0.187134	0.853409
04730	4.512839	-0.595749	9.597935	-0.130056	-0.680419	0.019863	-0.851077	0.100750	0.515283	-0.183066	-0.976771	-0.111383	0.492092	-0.189127	0.849751
04731	4.459890	-0.631759	9.557990	-0.121263	-0.819623	0.026454	-0.847031	0.098958	0.522251	-0.183472	-0.976563	-0.112528	0.498876	-0.191133	0.845335
04732	4.457019	-0.787804	9.474865	-0.131677	-0.950550	0.023906	-0.842264	0.096924	0.530280	-0.183977	-0.976325	-0.113766	0.506699	-0.193380	0.840155
04733	4.369849	-0.901504	9.469235	-0.134628	-1.086733	0.023724	-0.836719	0.094604	0.539400	-0.184496	-0.976082	-0.114998	0.515620	-0.195738	0.834160
04734	4.405228	-1.072479	9.597358	-0.152543	-1.224087	0.005713	-0.830324	0.092163	0.549607	-0.185287	-0.975778	-0.116298	0.525576	-0.198401	0.827289
04735	4.245977	-1.103352	9.785110	-0.194335	-1.370657	-0.021556	-0.822970	0.089658	0.560966	-0.186527	-0.975367	-0.117756	0.536590	-0.201545	0.819421
04736	4.149450	-1.371912	9.838244	-0.292637	-1.551967	-0.061321	-0.814399	0.087122	0.573729	-0.188663	-0.974708	-0.119793	0.548782	-0.205800	0.810238
04737	3.866856	-1.659942	9.980911	-0.318371	-1.766222	-0.134331	-0.804293	0.084782	0.588153	-0.191549	-0.973927	-0.121551	0.562513	-0.210423	0.799563
04738	3.757035	-1.963154	9.401411	-0.252729	-2.056167	-0.224793	-0.792093	0.082626	0.604782	-0.194831	-0.973193	-0.122213	0.578472	-0.214635	0.786958
04739	4.090981	-1.358780	9.333584	0.026089	-2.473607	-0.288809	-0.776940	0.080134	0.624454	-0.196974	-0.973011	-0.120209	0.597968	-0.216396	0.771756
04740	4.134078	-1.025525	9.629946	0.109203	-2.843102	-0.291318	-0.759011	0.076825	0.646530	-0.198591	-0.973011	-0.117521	0.620052	-0.217595	0.753782
04741	3.781320	-1.216745	9.833811	0.277017	-3.332446	-0.283658	-0.737319	0.072368	0.671657	-0.198991	-0.973399	-0.113564	0.645572	-0.217387	0.732106
04742	3.977640	-1.504469	10.169213	0.359362	-3.884016	-0.292877	-0.711058	0.066817	0.699951	-0.198785	-0.973967	-0.108965	0.674448	-0.216620	0.705829
04743	4.228393	-2.207903	10.524570	0.471097	-4.448157	-0.337061	-0.679636	0.060538	0.731047	-0.197907	-0.974766	-0.103269	0.706348	-0.214865	0.674467
04744	5.144828	-2.846825	10.655606	0.573613	-4.996559	-0.464758	-0.642521	0.054426	0.764333	-0.196873	-0.975716	-0.096019	0.740546	-0.212171	0.637633
04745	6.392398	-1.930996	10.513654	0.855717	-5.490695	-0.578059	-0.599697	0.048609	0.798750	-0.194004	-0.977207	-0.086187	0.776355	-0.206647	0.595458
04746	10.221067	-0.867618	11.140438	0.781557	-5.783481	-0.604513	-0.552564	0.042738	0.832374	-0.191325	-0.978520	-0.076768	0.811214	-0.201673	0.548872
04747	15.926242	-0.990711	13.061189	0.413333	-5.800279	-0.502413	-0.503587	0.036049	0.863192	-0.190590	-0.979149	-0.070299	0.842660	-0.199917	0.499958
04748	18.994639	-2.498721	13.661561	0.051683	-5.176569	-0.412249	-0.458471	0.029730	0.888212	-0.192172	-0.979111	-0.066421	0.867683	-0.201142	0.454607
04749	16.592312	-3.501677	11.941089	0.186575	-4.714405	-0.455558	-0.416146	0.024765	0.908961	-0.192554	-0.979359	-0.061473	0.888676	-0.200606	0.412325
04750	13.238963	-3.200893	12.383275	0.403777	-4.496346	-0.586311	-0.374587	0.021581	0.926941	-0.191285	-0.980021	-0.054484	0.907246	-0.197719	0.371231
04751	10.107747	-3.836008	11.697953	0.645134	-4.336362	-0.677716	-0.333558	0.019816	0.942521	-0.187806	-0.981136	-0.045836	0.923833	-0.192300	0.330987
04752	7.020802	-3.551257	10.567234	0.927424	-4.247847	-0.711050	-0.292624	0.018833	0.956042	-0.181430	-0.982738	-0.036174	0.938858	-0.184040	0.290989
04753	3.030414	-2.545285	9.904181	1.180356	-4.230984	-0.700553	-0.251336	0.018214	0.967728	-0.172201	-0.984714	-0.026190	0.952458	-0.173226	0.250631
04754	0.987573	-2.403871	8.173261	1.091109	-4.345353	-0.686428	-0.208480	0.017697	0.977867	-0.163355	-0.986421	-0.016975	0.964288	-0.163279	0.208540
04755	-0.497713	-2.683412	8.307604	1.032174	-4.256650	-0.631993	-0.166192	0.017237	0.985943	-0.154564	-0.987944	-0.008782	0.973905	-0.153851	0.166853
04756	0.787440	-0.161523	6.335835	0.712052	-4.401936	-0.855431	-0.121799	0.019086	0.992371	-0.148866	-0.988857	0.000747	0.981328	-0.147639	0.123284
04757	26.689656	-3.933811	14.185654	1.185522	-2.892503	-0.979956	-0.091917	0.024726	0.995460	-0.138279	-0.990323	0.011830	0.986119	-0.136564	0.094447
04758	12.996400	-0.191051	14.086262	1.607545	-0.412543	-0.732176	-0.086834	0.031484	0.995725	-0.123091	-0.992181	0.020637	0.988589	-0.120773	0.090030
04759	10.746563	-2.171755	13.703480	0.971712	1.612682	-0.498909	-0.102175	0.038355	0.994027	-0.113991	-0.993126	0.026603	0.988214	-0.110592	0.105844
04760	6.024508	-3.564635	10.612325	0.768059	2.874704	-0.397872	-0.130058	0.045393	0.990467	-0.106903	-0.993770	0.031507	0.985727	-0.101786	0.134100
04761	1.400542	-3.922697	7.116836	0.760229	3.403937	-0.444448	-0.163084	0.053173	0.985178	-0.100116	-0.994284	0.037091	0.981519	-0.092583	0.167476
04762	-0.397324	-3.425467	4.507818	0.817480	3.515868	-0.521662	-0.196945	0.061472	0.978486	-0.093086	-0.994696	0.043754	0.975986	-0.082466	0.201622
04763	-1.502891	-2.420047	3.108184	0.841823	3.442501	-0.597355	-0.229904	0.070124	0.970684	-0.086218	-0.994947	0.051456	0.969387	-0.071860	0.234788
04764	-2.101616	-1.390608	2.859563	0.715511	3.200206	-0.673547	-0.260200	0.079008	0.962317	-0.080993	-0.994920	0.059785	0.962152	-0.062385	0.265277
04765	-1.747290	-0.359094	3.182930	0.343029	2.955150	-0.708530	-0.287960	0.087867	0.953603	-0.079698	-0.994526	0.067571	0.954320	-0.056543	0.293386
04766	-1.682999	-0.224013	3.131767	-0.176072	2.750091	-0.710116	-0.313462	0.096506	0.944684	-0.083544	-0.993768	0.073799	0.945919	-0.055789	0.319570
04767	-1.440672	-0.599991	3.688493	-0.721847	2.502470	-0.683914	-0.336433	0.104807	0.935857	-0.092617	-0.992652	0.077873	0.937142	-0.060477	0.343668
04768	0.911971	-2.012748	4.976081	-1.099400	2.284224	-0.643024	-0.357053	0.112698	0.927261	-0.105139	-0.991235	0.079989	0.928148	-0.068931	0.365773
04769	4.648202	-3.466801	6.904371	-1.291285	2.362098	-0.534042	-0.378273	0.119788	0.917911	-0.119080	-0.989650	0.080077	0.918003	-0.079014	0.388622
04770	7.034255	-4.799721	7.528921	-1.239749	2.723983	-0.317656	-0.402668	0.125237	0.906738	-0.131666	-0.988219	0.078020	0.905827	-0.087971	0.414413
04771	7.819583	-5.463485	8.084403	-1.035736	3.248126	-0.012612	-0.431848	0.128369	0.892765	-0.141086	-0.987250	0.073709	0.890844	-0.094125	0.444452
04772	7.203816	-5.293665	7.824161	-0.743433	3.649071	0.340546	-0.464482	0.128524	0.876207	-0.146159	-0.986970	0.067291	0.873438	-0.096810	0.477215
04773	6.867260	-4.911364	7.701903	-0.542253	3.875297	0.688459	-0.498986	0.125536	0.857470	-0.147592	-0.987307	0.058657	0.853950	-0.097287	0.511180
04774	6.554287	-4.159771	7.423790	-0.375943	3.949290	1.001115	-0.533723	0.119500	0.837173	-0.145636	-0.988163	0.048206	0.833024	-0.096194	0.544809
04775	6.420378	-3.547966	7.291624	-0.303149	3.911966	1.261872	-0.567714	0.110805	0.815735	-0.141247	-0.989317	0.036082	0.811018	-0.094736	0.577300
04776	6.774002	-2.746915	7.611784	-0.225785	3.820726	1.448080	-0.600227	0.100086	0.793543	-0.134638	-0.990625	0.023104	0.788416	-0.092974	0.608076
04777	7.230468	-2.769072	8.257273	-0.243789	3.735936	1.554943	-0.631304	0.088174	0.770507	-0.127027	-0.991854	0.009426	0.765062	-0.091924	0.637362
04778	11.260457	-1.488343	7.605724	-0.030228	3.587350	1.526111	-0.660162	0.076309	0.747237	-0.117443	-0.993077	-0.002342	0.741885	-0.089304	0.664553
04779	19.187174	1.517365	14.803264	0.065380	4.546827	1.514037	-0.694919	0.065287	0.716119	-0.106779	-0.994198	-0.012979	0.711116	-0.085485	0.697858
04780	-0.493266	-2.476506	5.431507	-1.210091	4.220875	1.485718	-0.725813	0.054358	0.685741	-0.104686	-0.993990	-0.032011	0.679879	-0.095021	0.727142
04781	10.908091	-3.086469	9.314880	0.328124	3.878818	1.295054	-0.752937	0.045115	0.656544	-0.092994	-0.994931	-0.038279	0.651489	-0.089876	0.753316
04782	8.207973	-0.265460	11.083068	-0.144987	3.551375	1.182196	-0.776610	0.036575	0.628919	-0.084922	-0.995279	-0.046984	0.624231	-0.089897	0.776050
04783	8.333130	-0.980067	10.108956	-0.342608	3.501658	1.057050	-0.798866	0.029294	0.600795	-0.078754	-0.995309	-0.056187	0.596331	-0.092201	0.797426
04784	8.162215	-0.682589	10.724635	-0.283349	3.295586	0.811880	-0.818667	0.024317	0.573753	-0.073885	-0.995259	-0.063242	0.569496	-0.094166	0.816583
04785	11.666636	1.270381	13.775211	-0.589197	3.326996	0.592027	-0.837600	0.021698	0.545853	-0.072322	-0.994820	-0.071433	0.541476	-0.099309	0.834830
04786	14.853910	1.799546	15.060624	-0.859302	3.580569	0.333755	-0.856652	0.022106	0.515421	-0.074061	-0.994003	-0.080460	0.510551	-0.107099	0.853152
04787	15.661950	-0.734913	15.578403	-1.495992	3.725672	-0.109389	-0.874980	0.027497	0.483377	-0.082460	-0.992263	-0.092819	0.477085	-0.121075	0.870477
04788	14.231196	-1.133632	10.103333	0.269336	4.444767	-0.996006	-0.894436	0.042702	0.445152	-0.090086	-0.992229	-0.085828	0.438028	-0.116870	0.891332
04789	9.544007	8.124369	11.508905	-0.637495	3.306042	-1.321168	-0.907136	0.059796	0.416568	-0.104745	-0.990784	-0.085877	0.407593	-0.121536	0.905040
04790	5.292034	10.727759	-5.280256	-1.822872	1.694342	-0.502648	-0.913315	0.067003	0.401704	-0.116637	-0.988089	-0.100376	0.390194	-0.138528	0.910252
04791	21.327995	-3.391993	-1.922349	-2.974762	0.020125	-1.753318	-0.911109	0.084357	0.403440	-0.144234	-0.982197	-0.120360	0.386104	-0.167851	0.907056
04792	27.023950	1.417870	2.093312	0.626343	0.343612	-1.358591	-0.910381	0.098294	0.401927	-0.154240	-0.981979	-0.109211	0.383950	-0.161417	0.909136
04793	29.190614	4.363494	5.450086	-0.565426	0.874046	-0.823108	-0.912383	0.107843	0.394877	-0.163939	-0.980195	-0.111092	0.375076	-0.166094	0.911993
04794	21.548523	-0.579414	-1.337705	-0.407989	1.068612	-0.244269	-0.915906	0.112055	0.385435	-0.167725	-0.979235	-0.113878	0.364671	-0.168948	0.915681
04795	16.934682	1.362798	-2.620498	0.187726	0.621164	0.112714	-0.918330	0.112029	0.379632	-0.166059	-0.979666	-0.112598	0.359298	-0.166443	0.918260
04796	15.370164	2.506223	-0.825530	0.283002	0.102315	0.406529	-0.919339	0.108242	0.378285	-0.161351	-0.980573	-0.111549	0.358862	-0.163589	0.918943
04797	12.982560	2.812364	1.711267	0.474589	-0.185865	0.451061	-0.919367	0.103549	0.379530	-0.155540	-0.981808	-0.108906	0.361348	-0.159157	0.918747
04798	10.443554	5.608802	3.801840	0.833486	-0.338822	0.328278	-0.918612	0.099826	0.382344	-0.149537	-0.983428	-0.102511	0.365774	-0.151342	0.918316
04799	7.626435	7.674765	5.103675	0.394307	-0.584317	0.281469	-0.916852	0.096213	0.387461	-0.145541	-0.984287	-0.099981	0.371753	-0.148059	0.916449
04800	5.504647	5.696856	4.592489	-0.127361	-0.855428	0.264918	-0.913998	0.092359	0.395066	-0.143639	-0.984340	-0.102192	0.379441	-0.150150	0.912951
04801	4.662678	4.165245	4.727570	-0.099646	-1.055549	0.204125	-0.910211	0.088784	0.404515	-0.142198	-0.984369	-0.103912	0.388966	-0.152103	0.908609
04802	3.066672	2.272093	4.632154	0.186030	-1.268867	0.111269	-0.905334	0.085792	0.415945	-0.140498	-0.984741	-0.102691	0.400788	-0.151409	0.903573
04803	10.073144	-5.027285	7.552671	0.653136	-1.549187	-0.534204	-0.898228	0.088777	0.430471	-0.142685	-0.985243	-0.094539	0.415726	-0.146340	0.897640
04804	22.149368	12.343011	11.044000	5.382684	-0.697060	-1.364874	-0.893379	0.101457	0.437698	-0.132208	-0.990403	-0.040276	0.429412	-0.093849	0.898219
04805	16.217836	19.444536	13.634014	-1.375458	0.190744	0.023007	-0.894197	0.101450	0.436027	-0.137917	-0.989040	-0.052718	0.425900	-0.107276	0.898388
04806	3.457750	-3.465012	3.578458	-2.265917	0.236433	0.352121	-0.895669	0.098283	0.433726	-0.144402	-0.986702	-0.074610	0.420625	-0.129456	0.897951
04807	7.552442	-12.650914	9.750690	-0.576479	0.337388	0.114365	-0.897216	0.097627	0.430665	-0.145818	-0.986050	-0.080261	0.416822	-0.134811	0.898936
04808	0.448905	-1.736344	7.190593	2.041861	0.083692	-0.031233	-0.897496	0.098071	0.429980	-0.137610	-0.988559	-0.061761	0.419004	-0.114600	0.900723
04809	7.218596	5.666475	15.974536	1.892125	-0.384824	-0.299379	-0.895437	0.100655	0.433661	-0.132339	-0.990253	-0.043415	0.425064	-0.096266	0.900030
04810	3.735836	1.681328	10.058994	-1.224459	0.056534	0.057273	-0.895728	0.100178	0.433169	-0.137063	-0.989051	-0.054690	0.422948	-0.108359	0.899652
04811	4.811442	-3.911646	7.760062	-0.881836	-0.239494	-0.034173	-0.894635	0.100273	0.435400	-0.141132	-0.988019	-0.062448	0.423922	-0.117317	0.898069
04812	5.251064	1.213676	9.559876	1.277182	-0.228028	-0.017134	-0.893615	0.100221	0.437503	-0.135891	-0.989415	-0.050912	0.427769	-0.104949	0.897775
04813	4.755428	2.974674	10.699662	-0.037552	-0.018924	0.052286	-0.893573	0.099712	0.437704	-0.135614	-0.989425	-0.051459	0.427944	-0.105341	0.897645
04814	4.949842	-1.533569	8.992684	-0.894209	-0.145075	0.084876	-0.893043	0.098745	0.439004	-0.138728	-0.988520	-0.059860	0.428053	-0.114360	0.896489
04815	4.602612	-0.641318	8.944950	0.072821	-0.096195	0.067621	-0.892692	0.097994	0.439884	-0.137841	-0.988667	-0.059483	0.429069	-0.113734	0.896083
04816	4.530641	-0.142048	9.481277	-0.225345	-0.084410	0.076796	-0.892410	0.097170	0.440639	-0.138168	-0.988476	-0.061848	0.429551	-0.116076	0.895551
04817	4.818345	-1.163622	8.906773	-0.225193	-0.081362	0.065409	-0.892119	0.096456	0.441385	-0.138581	-0.988273	-0.064131	0.430023	-0.118380	0.895023
04818	4.615294	-0.462941	9.149068	-0.148061	-0.051724	0.056496	-0.891948	0.095867	0.441857	-0.138759	-0.988144	-0.065713	0.430318	-0.119924	0.894676
04819	4.673813	-0.797619	9.008281	-0.192693	-0.030940	0.060862	-0.891868	0.095256	0.442152	-0.139074	-0.987966	-0.067684	0.430384	-0.121857	0.894383
04820	4.628708	-0.596012	9.088886	-0.144428	-0.009395	0.055986	-0.891879	0.094722	0.442243	-0.139242	-0.987835	-0.069230	0.430306	-0.123324	0.894219
04821	4.606624	-0.650038	9.202101	-0.167606	0.006396	0.063180	-0.891963	0.094134	0.442201	-0.139428	-0.987684	-0.070987	0.430073	-0.124973	0.894102
04822	4.595433	-0.864513	9.197786	-0.160933	0.003974	0.059625	-0.892037	0.093581	0.442169	-0.139634	-0.987531	-0.072697	0.429852	-0.126590	0.893981
04823	4.569359	-0.855090	9.372523	-0.130109	0.004316	0.047651	-0.892090	0.093143	0.442154	-0.139797	-0.987407	-0.074049	0.429689	-0.127870	0.893877
04824	4.622854	-0.723686	9.449824	-0.102073	-0.016937	0.035539	-0.892040	0.092801	0.442326	-0.139964	-0.987303	-0.075126	0.429737	-0.128925	0.893702
04825	4.624790	-0.646809	9.445903	-0.100843	-0.023109	0.030779	-0.891952	0.092495	0.442568	-0.140152	-0.987198	-0.076142	0.429860	-0.129942	0.893496
04826	4.637369	-0.741149	9.355293	-0.102441	-0.039091	0.023168	-0.891790	0.092246	0.442946	-0.140431	-0.987079	-0.077167	0.430104	-0.131020	0.893221
04827	4.676005	-0.739134	9.284858	-0.087282	-0.043017	0.016700	-0.891596	0.092052	0.443376	-0.140687	-0.986977	-0.077999	0.430422	-0.131921	0.892935
04828	4.743146	-0.774991	9.274450	-0.076781	-0.051258	0.014664	-0.891370	0.091870	0.443869	-0.140932	-0.986882	-0.078757	0.430811	-0.132756	0.892624
04829	4.710164	-0.762710	9.202375	-0.053766	-0.059496	0.010876	-0.891096	0.091711	0.444451	-0.141096	-0.986818	-0.079263	0.431323	-0.133341	0.892290
04830	4.707639	-0.687258	9.156515	-0.040889	-0.060832	0.013490	-0.890827	0.091527	0.445029	-0.141198	-0.986768	-0.079695	0.431846	-0.133831	0.891963
04831	4.727915	-0.704454	9.167505	-0.026845	-0.059779	0.019971	-0.890564	0.091277	0.445606	-0.141165	-0.986748	-0.080001	0.432398	-0.134150	0.891648
04832	4.619462	-0.691580	9.257952	-0.019782	-0.067834	0.023140	-0.890277	0.090989	0.446238	-0.141090	-0.986736	-0.080288	0.433014	-0.134438	0.891305
04833	4.582798	-0.713872	9.281694	-0.012946	-0.075753	0.030129	-0.889958	0.090617	0.446949	-0.140908	-0.986743	-0.080515	0.433728	-0.134634	0.890929
04834	4.413527	-0.672472	9.379501	-0.005701	-0.091407	0.029766	-0.889577	0.090231	0.447785	-0.140713	-0.986756	-0.080706	0.434572	-0.134804	0.890491
04835	4.307740	-0.523712	9.559876	-0.066895	-0.167160	0.028158	-0.888856	0.089754	0.449310	-0.140783	-0.986688	-0.081406	0.436022	-0.135613	0.889659
04836	4.451029	-0.751595	9.375981	-0.051823	-0.177506	0.030848	-0.888097	0.089239	0.450909	-0.140781	-0.986638	-0.082012	0.437566	-0.136314	0.888794
04837	4.481897	-0.638147	9.341460	-0.090073	-0.227261	0.025670	-0.887104	0.088703	0.452966	-0.140978	-0.986535	-0.082905	0.439513	-0.137404	0.887665
04838	4.595800	-0.718023	9.249849	-0.102551	-0.255117	0.025477	-0.885989	0.088130	0.455254	-0.141249	-0.986409	-0.083938	0.441669	-0.138672	0.886396
04839	4.647171	-0.783810	9.197137	-0.104990	-0.269529	0.024826	-0.884798	0.087537	0.457679	-0.141524	-0.986283	-0.084957	0.443964	-0.139942	0.885049
04840	4.595139	-0.840031	9.311034	-0.120311	-0.295441	0.019104	-0.883482	0.086964	0.460322	-0.141936	-0.986123	-0.086115	0.446445	-0.141417	0.883566
04841	3.492431	-0.452492	9.361490	-0.014856	-0.292826	-0.003551	-0.882133	0.086612	0.462969	-0.142064	-0.986097	-0.086206	0.449065	-0.141816	0.882173
04842	5.046149	-0.550944	9.676578	-0.260508	-0.520566	-0.017801	-0.879731	0.086072	0.467616	-0.143441	-0.985701	-0.088424	0.453318	-0.144865	0.879498
04843	7.638460	-2.740533	6.795728	-0.505663	-0.295827	0.052123	-0.878429	0.085150	0.470226	-0.145310	-0.984997	-0.093087	0.455245	-0.150099	0.877623
04844	2.663730	0.126174	10.736152	0.469335	-0.219247	-0.017053	-0.877376	0.085024	0.472211	-0.143362	-0.985670	-0.088895	0.457886	-0.145691	0.876992
04845	5.012296	-0.533913	9.027713	-0.428453	-0.418437	0.015437	-0.875441	0.084281	0.475920	-0.145226	-0.985047	-0.092696	0.460990	-0.150265	0.874590
04846	5.350458	-1.516993	7.997252	-0.119964	-0.280951	0.006477	-0.874124	0.083823	0.478415	-0.145769	-0.984864	-0.093781	0.463312	-0.151714	0.873112
04847	4.990050	-0.582829	9.117925	-0.128608	-0.298644	0.002712	-0.872706	0.083369	0.481076	-0.146373	-0.984668	-0.094891	0.465789	-0.153228	0.871528
04848	5.258509	-1.085887	8.450003	-0.096001	-0.263189	0.004657	-0.871456	0.082948	0.483409	-0.146826	-0.984517	-0.095754	0.467982	-0.154423	0.870142
04849	5.162432	-1.052689	8.752449	-0.121303	-0.226546	0.010065	-0.870373	0.082526	0.485428	-0.147338	-0.984335	-0.096833	0.469833	-0.155802	0.868897
04850	5.175953	-1.027944	8.735947	-0.081290	-0.197237	0.000422	-0.869417	0.082243	0.487186	-0.147762	-0.984201	-0.097546	0.471467	-0.156796	0.867833
04851	5.082077	-1.109208	8.824747	-0.097074	-0.175699	-0.001856	-0.868548	0.082014	0.488771	-0.148267	-0.984044	-0.098353	0.472906	-0.157893	0.866850
04852	5.055794	-1.062457	8.875507	-0.084660	-0.166022	-0.007167	-0.867723	0.081850	0.490263	-0.148776	-0.983897	-0.099057	0.474260	-0.158893	0.865928
04853	5.009166	-0.967484	8.909216	-0.085822	-0.173837	-0.013953	-0.866840	0.081739	0.491840	-0.149335	-0.983747	-0.099705	0.475696	-0.159878	0.864958
04854	5.035949	-0.865885	8.908318	-0.078984	-0.175331	-0.012600	-0.865957	0.081611	0.493414	-0.149866	-0.983602	-0.100331	0.477135	-0.160828	0.863989
04855	5.079000	-0.764551	8.888276	-0.084153	-0.191088	-0.003726	-0.865002	0.081369	0.495127	-0.150332	-0.983462	-0.101013	0.478719	-0.161810	0.862929
04856	5.043999	-0.784915	8.834651	-0.077498	-0.199947	0.005436	-0.864023	0.081020	0.496891	-0.150702	-0.983333	-0.101713	0.480369	-0.162765	0.861832
04857	5.066888	-0.812480	8.796174	-0.077365	-0.209698	0.012411	-0.862995	0.080584	0.498743	-0.150998	-0.983215	-0.102415	0.482119	-0.163693	0.860678
04858	5.121303	-0.969586	8.814153	-0.078472	-0.218581	0.025240	-0.861949	0.080006	0.500643	-0.151205	-0.983099	-0.103220	0.483923	-0.164670	0.859478
04859	4.924375	-1.037433	9.003347	-0.067694	-0.234625	0.018993	-0.860803	0.079461	0.502697	-0.151400	-0.983000	-0.103870	0.485898	-0.165520	0.858200
04860	4.901892	-1.188727	9.173198	-0.105811	-0.273990	0.010125	-0.859454	0.078935	0.505082	-0.151874	-0.982825	-0.104833	0.488132	-0.166808	0.856681
04861	4.826737	-1.219061	9.262856	-0.113232	-0.321633	-0.007158	-0.857832	0.078496	0.507900	-0.152521	-0.982627	-0.105739	0.490776	-0.168171	0.854902
04862	4.640070	-1.039421	9.349404	-0.138287	-0.402337	-0.031148	-0.855774	0.078151	0.511414	-0.153514	-0.982362	-0.106764	0.494050	-0.169875	0.852677
04863	4.619838	-0.972208	9.495037	-0.178114	-0.502989	-0.045317	-0.853171	0.077766	0.515802	-0.154816	-0.982020	-0.108021	0.498127	-0.172015	0.849871
04864	4.479013	-0.708953	9.688560	-0.150578	-0.622060	-0.053889	-0.849943	0.077247	0.521182	-0.156075	-0.981710	-0.109022	0.503228	-0.174005	0.846454
04865	4.412101	-0.586429	9.645176	-0.186363	-0.780477	-0.057420	-0.845863	0.076473	0.527890	-0.157537	-0.981338	-0.110266	0.509606	-0.176432	0.842124
04866	4.391361	-0.580053	9.619811	-0.160514	-0.931906	-0.051236	-0.840966	0.075349	0.535816	-0.158839	-0.981006	-0.111344	0.517249	-0.178744	0.836961
04867	4.199802	-0.492352	9.785383	-0.137155	-1.112040	-0.048839	-0.835047	0.073860	0.545198	-0.159995	-0.980721	-0.112194	0.526400	-0.180916	0.830766
04868	4.293550	-0.715760	9.773439	-0.169740	-1.296171	-0.048111	-0.828047	0.071997	0.556017	-0.161343	-0.980369	-0.113334	0.536942	-0.183556	0.823408
04869	4.208083	-0.850114	9.942016	-0.205619	-1.486410	-0.060921	-0.819839	0.069876	0.568314	-0.162993	-0.979944	-0.114644	0.548905	-0.186621	0.814786
04870	4.079373	-1.085646	10.145186	-0.284091	-1.697167	-0.092691	-0.810224	0.067610	0.582208	-0.165373	-0.979337	-0.116412	0.562307	-0.190601	0.804663
04871	3.680948	-1.542962	9.821735	-0.304323	-1.953313	-0.158675	-0.798788	0.065433	0.598044	-0.168416	-0.978643	-0.117873	0.577559	-0.194875	0.792748
04872	3.731240	-1.819741	9.427626	-0.137283	-2.353339	-0.241049	-0.784534	0.063198	0.616857	-0.171175	-0.978211	-0.117485	0.595991	-0.197761	0.778258
04873	3.875268	-1.920432	9.777304	0.041058	-2.730766	-0.304777	-0.767403	0.060797	0.638276	-0.173323	-0.978102	-0.115221	0.617294	-0.199049	0.761136
04874	3.653492	-2.004675	9.655016	0.205178	-3.164381	-0.378953	-0.746785	0.058234	0.662511	-0.174946	-0.978277	-0.111211	0.641643	-0.198954	0.740750
04875	4.275942	-1.778177	9.352522	0.391521	-3.639148	-0.452906	-0.722099	0.055496	0.689560	-0.175739	-0.978793	-0.105259	0.669096	-0.197190	0.716538
04876	4.812891	-1.128714	9.252753	0.595676	-4.092864	-0.471799	-0.693227	0.052145	0.718830	-0.175047	-0.979696	-0.097743	0.699138	-0.193588	0.688280
04877	5.554373	-0.854292	9.315986	0.722024	-4.557486	-0.437699	-0.659825	0.047764	0.749900	-0.172877	-0.980856	-0.089636	0.731263	-0.188784	0.655450
04878	5.950186	-0.431018	9.654960	0.838778	-4.991461	-0.373950	-0.621799	0.042187	0.782040	-0.169042	-0.982240	-0.081418	0.764716	-0.182824	0.617887
04879	8.144410	-0.589282	10.593684	0.706965	-5.420311	-0.290162	-0.578898	0.035306	0.814635	-0.165289	-0.983402	-0.074838	0.798471	-0.177974	0.575125
04880	9.916895	-0.954301	10.588248	0.601455	-5.608959	-0.238991	-0.532760	0.027817	0.845809	-0.161760	-0.984379	-0.069516	0.830662	-0.173853	0.528938
04881	16.439018	-1.419482	12.832058	0.339960	-5.496354	-0.175390	-0.485986	0.020094	0.873736	-0.159811	-0.984923	-0.066238	0.859231	-0.171823	0.481870
04882	17.904478	-3.392434	12.103525	0.229366	-4.926327	-0.208807	-0.442694	0.013748	0.896567	-0.158823	-0.985275	-0.063313	0.882495	-0.170424	0.438359
04883	16.169503	-4.029195	11.196014	0.602120	-4.500504	-0.319706	-0.401981	0.009405	0.915600	-0.154828	-0.986247	-0.057845	0.902463	-0.165013	0.397909
04884	12.858295	-3.753703	11.508514	0.897304	-4.301802	-0.472716	-0.362002	0.007183	0.932149	-0.148494	-0.987646	-0.050057	0.920274	-0.156539	0.358597
04885	9.789690	-4.510770	10.474952	1.206017	-4.188281	-0.579111	-0.322248	0.006650	0.946632	-0.139307	-0.989422	-0.040471	0.936349	-0.144914	0.319766
04886	7.623344	-3.876032	9.872227	1.559966	-4.145929	-0.623444	-0.282238	0.007162	0.959318	-0.126505	-0.991518	-0.029817	0.950967	-0.129774	0.280750
04887	4.861222	-2.792293	9.442518	1.755789	-4.055650	-0.587692	-0.242681	0.008135	0.970072	-0.111267	-0.993599	-0.019503	0.963704	-0.112670	0.242033
04888	2.365714	-2.392641	8.222998	1.622509	-4.118027	-0.535793	-0.202157	0.009180	0.979310	-0.096766	-0.995250	-0.010646	0.974561	-0.096916	0.202085
04889	1.539182	-3.428922	7.628993	1.448439	-4.117983	-0.535784	-0.161337	0.010871	0.986840	-0.083589	-0.996497	-0.002689	0.983353	-0.082923	0.161680
04890	-2.486874	-1.552311	7.304205	1.241664	-3.869129	-0.505191	-0.122715	0.012963	0.992357	-0.072087	-0.997390	0.004115	0.989820	-0.071031	0.123329
04891	24.871895	-3.400618	12.898836	1.158015	-3.634779	-1.259837	-0.085797	0.023206	0.996042	-0.061942	-0.997919	0.017915	0.994385	-0.060160	0.087056
04892	14.886125	-1.074797	12.657062	2.205336	-0.330804	-0.866503	-0.082010	0.031730	0.996126	-0.040753	-0.998764	0.028459	0.995798	-0.038261	0.083202
04893	10.644136	-0.204827	15.080137	1.021796	1.469916	-0.735148	-0.096382	0.039614	0.994556	-0.031274	-0.998835	0.036753	0.994853	-0.027562	0.097509
04894	6.006539	-3.449496	10.627421	0.701119	2.781032	-0.714184	-0.123761	0.047436	0.991178	-0.025126	-0.998686	0.044658	0.991994	-0.019377	0.124790
04895	1.538274	-3.353978	7.639266	0.493299	3.314065	-0.849644	-0.156387	0.056510	0.986078	-0.021477	-0.998320	0.053805	0.987462	-0.012763	0.157338
04896	-0.614561	-3.008880	4.785080	0.335614	3.369049	-1.000928	-0.189306	0.066877	0.979638	-0.019935	-0.997734	0.064260	0.981716	-0.007365	0.190210
04897	-0.771283	-1.891439	3.710558	0.310505	3.251032	-1.118809	-0.220925	0.078242	0.972147	-0.019243	-0.996933	0.075864	0.975101	-0.001947	0.221753
04898	-0.472756	-0.989695	3.743665	-0.059260	3.143419	-1.185589	-0.251166	0.090123	0.963739	-0.022652	-0.995931	0.087230	0.967679	0.000078	0.252185
04899	0.075030	-1.000660	3.799677	-0.511877	3.051314	-1.182091	-0.280284	0.101975	0.954485	-0.030783	-0.994785	0.097242	0.959424	-0.002126	0.281961
04900	0.464477	-1.130564	3.766510	-0.946220	2.998968	-1.121150	-0.308459	0.113316	0.944464	-0.043156	-0.993524	0.105108	0.950258	-0.008338	0.311352
04901	0.581388	-1.732537	3.934345	-1.384976	2.910728	-1.007779	-0.335489	0.123769	0.933878	-0.059554	-0.992135	0.110095	0.940160	-0.018680	0.340221
04902	1.490537	-2.756673	4.341998	-1.634247	2.780386	-0.839125	-0.360857	0.132820	0.923115	-0.077792	-0.990644	0.112127	0.929371	-0.031349	0.367813
04903	3.562844	-3.850727	5.324154	-1.735276	2.735433	-0.610018	-0.385623	0.139952	0.911980	-0.096161	-0.989142	0.111132	0.917632	-0.044842	0.394894
04904	5.656828	-4.960926	6.220222	-1.687070	2.852529	-0.292365	-0.411261	0.144336	0.900018	-0.112737	-0.987857	0.106908	0.904519	-0.057498	0.422539
04905	6.814724	-5.682039	6.837165	-1.474507	3.085257	0.118285	-0.439116	0.145144	0.886628	-0.125532	-0.987095	0.099420	0.889617	-0.067643	0.451670
04906	7.058072	-5.556867	7.144667	-1.172102	3.324292	0.591017	-0.469134	0.141706	0.871684	-0.133219	-0.987103	0.088772	0.873021	-0.074479	0.481961
04907	7.056589	-5.071241	7.046882	-0.904844	3.500376	1.048986	-0.500827	0.134068	0.855101	-0.136021	-0.987847	0.075214	0.854793	-0.078643	0.512976
04908	6.826873	-4.166201	6.934975	-0.696672	3.589674	1.451571	-0.533082	0.122616	0.837131	-0.134446	-0.989147	0.059267	0.835313	-0.080955	0.543782
04909	6.879083	-2.316625	7.158972	-0.485610	3.559738	1.788828	-0.564854	0.107840	0.818114	-0.128706	-0.990804	0.041739	0.815092	-0.081720	0.573539
04910	7.010559	-1.458348	7.679263	-0.546090	3.488301	1.993581	-0.595377	0.090988	0.798278	-0.121578	-0.992328	0.022430	0.794194	-0.083699	0.601872
04911	7.846027	-0.936239	8.673811	-0.552990	3.422423	2.047751	-0.624640	0.073604	0.777437	-0.113490	-0.993535	0.002879	0.772622	-0.086432	0.628955
04912	9.093517	-0.726307	9.062415	-0.627474	3.440255	1.997002	-0.652980	0.056830	0.755240	-0.105553	-0.994278	-0.016445	0.749984	-0.090456	0.655242
04913	18.707391	1.018423	14.259956	-0.118736	4.020111	1.746565	-0.684382	0.043118	0.727848	-0.094816	-0.995036	-0.030208	0.722932	-0.089686	0.685073
04914	-0.261567	-0.654703	7.248969	-1.314835	4.186927	1.778867	-0.715639	0.029451	0.697849	-0.091714	-0.994422	-0.052085	0.692423	-0.101276	0.714348
04915	9.817403	-1.021767	9.141916	-0.147151	3.652346	1.343137	-0.741655	0.019847	0.670487	-0.082992	-0.994597	-0.062360	0.665627	-0.101895	0.739295
04916	8.904522	1.383072	11.270472	-0.460031	3.472180	1.102728	-0.765161	0.012520	0.643717	-0.077730	-0.994294	-0.073056	0.639129	-0.105935	0.761768
04917	10.641527	1.495601	11.673446	-0.555293	3.500701	0.832480	-0.787725	0.008091	0.615974	-0.074802	-0.993771	-0.082606	0.611468	-0.111147	0.783424
04918	11.392401	2.130146	12.845313	-0.697403	3.612812	0.576618	-0.809687	0.006530	0.586825	-0.074405	-0.993011	-0.091611	0.582126	-0.117839	0.804515
04919	12.011169	2.347371	13.410249	-0.948543	3.741187	0.303513	-0.831142	0.008147	0.556000	-0.077348	-0.991866	-0.101091	0.550654	-0.127026	0.825012
04920	11.716887	2.110270	13.048435	-1.209156	3.854077	0.018697	-0.851711	0.013112	0.523848	-0.083694	-0.990258	-0.111289	0.517285	-0.138629	0.844511
04921	11.186509	1.703163	12.372229	-1.353338	3.878412	-0.256291	-0.870904	0.021322	0.490990	-0.092724	-0.988244	-0.121557	0.482627	-0.151391	0.862643
04922	11.190548	1.360554	11.868561	-1.485053	3.811402	-0.481610	-0.888136	0.032137	0.458457	-0.103915	-0.985760	-0.132208	0.447680	-0.165059	0.878828
04923	11.457164	1.039022	11.284253	-1.586387	3.693158	-0.643692	-0.903337	0.044880	0.426578	-0.116559	-0.982772	-0.143432	0.412792	-0.179289	0.893005
04924	11.148915	-7.034256	10.016949	-2.377276	2.923560	-0.822644	-0.913922	0.058534	0.401647	-0.133543	-0.977818	-0.161366	0.383292	-0.201113	0.901466
04925	9.046341	3.872974	-3.916017	1.055668	1.745709	-1.586908	-0.918296	0.077516	0.388233	-0.144161	-0.978790	-0.145559	0.368715	-0.189634	0.909993
04926	21.843739	1.251704	7.520901	-0.116042	1.540116	-1.256728	-0.921954	0.092756	0.376029	-0.156188	-0.977492	-0.141826	0.354410	-0.189488	0.915690
04927	17.202512	3.628782	5.056472	0.651960	1.421562	-1.172125	-0.925029	0.106895	0.364548	-0.164790	-0.977521	-0.131516	0.342295	-0.181730	0.921850
04928	18.746703	3.175025	5.901422	-0.198940	1.580953	-0.742493	-0.929048	0.117051	0.350954	-0.172383	-0.976319	-0.130711	0.327344	-0.181935	0.927225
04929	14.645820	2.371869	3.831864	-0.433944	1.405894	-0.278450	-0.933064	0.122383	0.338252	-0.176412	-0.975180	-0.133801	0.313482	-0.184517	0.931495
04930	12.394291	0.487194	2.023769	-0.718927	1.008070	0.182835	-0.936472	0.122517	0.328649	-0.176962	-0.974047	-0.141129	0.302829	-0.190321	0.933848
04931	11.857981	0.780200	3.199955	-0.654497	0.566532	0.605056	-0.939220	0.117755	0.322488	-0.173291	-0.973499	-0.149228	0.296370	-0.196043	0.934736
04932	11.347591	0.585752	4.373113	-0.714237	0.282848	1.001535	-0.941732	0.108597	0.318352	-0.166018	-0.973199	-0.159126	0.292539	-0.202706	0.934522
04933	10.618935	0.455505	5.248188	-0.697558	0.093205	1.294928	-0.944077	0.096220	0.315375	-0.155884	-0.973079	-0.169757	0.290551	-0.209426	0.933660
04934	9.130307	0.118222	5.657391	-0.550397	-0.045417	1.461767	-0.946115	0.081924	0.313298	-0.143710	-0.973204	-0.179502	0.290197	-0.214853	0.932536
04935	7.771352	-0.061960	5.865119	-0.313692	-0.172685	1.502131	-0.947658	0.066958	0.312187	-0.130440	-0.973636	-0.187133	0.291426	-0.218060	0.931408
04936	6.573535	0.488065	6.415571	-0.079215	-0.276541	1.455505	-0.948630	0.052203	0.312051	-0.116915	-0.974322	-0.192426	0.293993	-0.219025	0.930374
04937	5.928075	0.942204	6.954065	0.101421	-0.358023	1.328814	-0.949025	0.038496	0.312842	-0.104048	-0.975140	-0.195642	0.297534	-0.218220	0.929437
04938	5.562156	1.489082	7.381728	0.257953	-0.395143	1.141098	-0.948944	0.026531	0.314326	-0.092490	-0.976064	-0.196837	0.301580	-0.215860	0.928684
04939	5.070095	2.432009	7.163856	0.417960	-0.403569	0.902356	-0.948494	0.016884	0.316346	-0.082700	-0.977149	-0.195805	0.305812	-0.211882	0.928216
04940	4.708694	3.635196	6.767713	0.505310	-0.375696	0.622941	-0.947811	0.010033	0.318674	-0.075282	-0.978286	-0.193106	0.309817	-0.207019	0.927985
04941	3.996304	3.565233	6.338217	0.466720	-0.423974	0.293442	-0.946687	0.006320	0.322094	-0.071084	-0.979263	-0.189713	0.314215	-0.202495	0.927504
04942	4.214754	4.521470	5.240984	0.561305	-0.620929	-0.094466	-0.944631	0.006032	0.328079	-0.070240	-0.980373	-0.184215	0.320528	-0.197060	0.926515
04943	5.242415	4.175843	4.207574	0.633503	-0.808676	-0.504483	-0.941627	0.009441	0.336525	-0.072978	-0.981562	-0.176663	0.328653	-0.190910	0.924954
04944	6.756617	4.947357	4.232277	0.544089	-1.021538	-0.882525	-0.937526	0.016211	0.347536	-0.079499	-0.982468	-0.168631	0.338709	-0.185725	0.922379
04945	9.417037	4.553629	3.504184	0.445042	-1.217344	-1.246306	-0.932256	0.026253	0.360846	-0.089652	-0.983021	-0.160100	0.350516	-0.181605	0.918781
04946	10.053629	3.286422	3.006889	0.392033	-1.248764	-1.574039	-0.926267	0.039509	0.374792	-0.102926	-0.983203	-0.150727	0.362541	-0.178190	0.914774
04947	5.637916	-0.002953	7.647996	0.569285	-1.047679	-1.771895	-0.920436	0.055121	0.386987	-0.117227	-0.983365	-0.138752	0.372901	-0.173077	0.911586
04948	8.223299	-4.218221	12.210775	0.807156	-0.596195	-1.810544	-0.915925	0.071947	0.394849	-0.130860	-0.983574	-0.124331	0.379418	-0.165547	0.910295
04949	8.745661	-11.233213	18.044446	1.070587	-0.614031	-1.728435	-0.911179	0.087995	0.402503	-0.142582	-0.983909	-0.107672	0.386552	-0.155499	0.909064
04950	24.170536	-7.840049	13.168902	1.244659	-0.715278	-0.505661	-0.907640	0.091933	0.409558	-0.142362	-0.985310	-0.094324	0.394871	-0.143918	0.907395
04951	3.887116	1.967200	7.497333	1.720649	0.763554	-0.191536	-0.910335	0.094882	0.402849	-0.137382	-0.987452	-0.077874	0.390406	-0.126236	0.911947
04952	0.402106	12.699236	15.216365	2.139631	-0.276384	-0.178095	-0.908986	0.096354	0.405538	-0.130635	-0.989753	-0.057647	0.395828	-0.105378	0.912259
04953	7.992561	-0.425902	13.954313	-2.457281	-0.414593	-0.069875	-0.907215	0.096588	0.409430	-0.141033	-0.986791	-0.079709	0.396322	-0.130056	0.908853
04954	1.970412	-8.307886	2.341093	-1.321163	-0.070412	0.042119	-0.906972	0.096107	0.410080	-0.145924	-0.985019	-0.091889	0.395106	-0.143181	0.907409
04955	4.290697	-1.138204	8.538637	2.679779	-0.700562	-0.174165	-0.903887	0.096943	0.416643	-0.136808	-0.988340	-0.066836	0.405306	-0.117413	0.906610
04956	4.853366	6.445456	13.223164	1.220248	-0.253305	-0.143941	-0.902636	0.098115	0.419073	-0.133183	-0.989554	-0.055182	0.409281	-0.105623	0.906274
04957	4.249712	-0.344415	9.410625	-0.995358	-0.435911	0.031898	-0.900853	0.097349	0.423068	-0.137013	-0.988480	-0.064295	0.411935	-0.115886	0.903814
04958	5.284905	-3.327209	7.943019	0.014966	-0.301028	-0.001567	-0.899582	0.097047	0.425834	-0.137010	-0.988489	-0.064162	0.414706	-0.116062	0.902524
04959	6.065743	-0.005752	9.581888	0.761032	-0.129250	-0.039261	-0.898955	0.097322	0.427093	-0.134230	-0.989304	-0.057097	0.416968	-0.108657	0.902403
04960	4.512433	0.003515	9.994903	0.035073	-0.154424	-0.030984	-0.898243	0.097493	0.428550	-0.134407	-0.989305	-0.056657	0.418443	-0.108492	0.901740
04961	5.647648	-0.303140	9.735806	0.169093	-0.056023	-0.002209	-0.897968	0.097486	0.429126	-0.133749	-0.989483	-0.055093	0.419242	-0.106867	0.901563
04962	4.374671	0.097175	9.399585	-0.135285	0.048903	0.023832	-0.898180	0.097335	0.428718	-0.134147	-0.989354	-0.056423	0.418662	-0.108189	0.901675
04963	4.895567	-1.313303	9.030237	-0.134843	0.022941	0.024934	-0.898272	0.097146	0.428567	-0.134518	-0.989229	-0.057715	0.418344	-0.109494	0.901665
04964	4.572165	-0.273150	9.380484	-0.028665	0.044233	0.008516	-0.898443	0.097142	0.428209	-0.134607	-0.989199	-0.058018	0.417948	-0.109766	0.901815
04965	4.485722	-0.429929	9.209388	-0.111567	0.063635	0.024180	-0.898705	0.097005	0.427692	-0.134886	-0.989097	-0.059098	0.417296	-0.110801	0.901991
04966	4.324034	-0.221968	9.355223	-0.070124	0.051236	0.030214	-0.898934	0.096795	0.427258	-0.134952	-0.989042	-0.059868	0.416781	-0.111477	0.902146
04967	4.361690	-0.164477	9.496351	-0.092733	0.034642	0.039837	-0.899095	0.096472	0.426992	-0.135011	-0.988974	-0.060844	0.416414	-0.112354	0.902206
04968	4.448363	-0.359423	9.489807	-0.093807	-0.001028	0.054583	-0.899139	0.095962	0.427014	-0.134956	-0.988914	-0.061932	0.416337	-0.113313	0.902122
04969	4.444880	-0.499636	9.458284	-0.071052	-0.004882	0.052549	-0.899152	0.095469	0.427096	-0.134810	-0.988881	-0.062766	0.416355	-0.114013	0.902025
04970	4.436549	-0.781597	9.426850	-0.084723	-0.032945	0.055180	-0.899064	0.094918	0.427404	-0.134712	-0.988830	-0.063774	0.416577	-0.114914	0.901808
04971	4.489394	-0.794713	9.168464	-0.066136	-0.013568	0.041976	-0.899027	0.094519	0.427571	-0.134641	-0.988792	-0.064519	0.416680	-0.115573	0.901677
04972	4.517264	-0.811423	9.295615	-0.069204	-0.019974	0.031697	-0.898961	0.094214	0.427776	-0.134690	-0.988735	-0.065287	0.416807	-0.116307	0.901524
04973	4.528075	-0.797284	9.303277	-0.043356	-0.003455	0.020748	-0.898937	0.094037	0.427865	-0.134715	-0.988701	-0.065736	0.416849	-0.116732	0.901449
04974	4.503219	-0.645766	9.304990	-0.039857	-0.003695	0.015568	-0.898918	0.093910	0.427934	-0.134786	-0.988663	-0.066170	0.416869	-0.117161	0.901384
04975	4.587348	-0.548471	9.312828	-0.026528	-0.007507	0.013798	-0.898868	0.093797	0.428064	-0.134805	-0.988642	-0.066437	0.416971	-0.117423	0.901303
04976	4.529464	-0.557126	9.324128	-0.023098	-0.004519	0.014438	-0.898843	0.093681	0.428142	-0.134816	-0.988622	-0.066715	0.417020	-0.117687	0.901246
04977	4.539709	-0.568909	9.265318	-0.021240	-0.011156	0.015426	-0.898780	0.093547	0.428303	-0.134798	-0.988609	-0.066942	0.417162	-0.117900	0.901152
04978	4.516189	-0.578866	9.241426	-0.018858	-0.009595	0.017314	-0.898738	0.093396	0.428424	-0.134766	-0.988597	-0.067194	0.417263	-0.118127	0.901076
04979	4.487426	-0.613789	9.281862	-0.028513	-0.008277	0.013190	-0.898684	0.093289	0.428562	-0.134798	-0.988573	-0.067477	0.417370	-0.118409	0.900989
04980	4.478450	-0.637230	9.272508	-0.020500	-0.014879	0.015273	-0.898617	0.093151	0.428732	-0.134791	-0.988556	-0.067735	0.417516	-0.118657	0.900889
04981	4.427125	-0.591530	9.286063	-0.028299	-0.020196	0.012135	-0.898511	0.093040	0.428977	-0.134832	-0.988532	-0.068011	0.417730	-0.118948	0.900751
04982	4.425450	-0.531628	9.345846	-0.029019	-0.032581	0.017426	-0.898373	0.092860	0.429305	-0.134841	-0.988507	-0.068355	0.418023	-0.119296	0.900569
04983	4.396393	-0.803006	9.257042	-0.051042	-0.043089	0.013870	-0.898174	0.092704	0.429755	-0.134962	-0.988456	-0.068843	0.418412	-0.119833	0.900317
04984	4.431491	-0.658270	9.277721	-0.040658	-0.047007	0.009629	-0.897965	0.092584	0.430218	-0.135091	-0.988410	-0.069258	0.418819	-0.120310	0.900064
04985	4.458974	-0.773184	9.234386	-0.056981	-0.053929	0.003502	-0.897706	0.092517	0.430772	-0.135330	-0.988342	-0.069755	0.419297	-0.120915	0.899761
04986	4.404354	-0.708861	9.272427	-0.060776	-0.057729	0.001566	-0.897440	0.092462	0.431337	-0.135616	-0.988263	-0.070316	0.419773	-0.121600	0.899447
04987	4.421420	-0.769775	9.248812	-0.066388	-0.064554	-0.001697	-0.897129	0.092433	0.431990	-0.135942	-0.988178	-0.070874	0.420332	-0.122309	0.899089
04988	4.515289	-0.738014	9.192474	-0.068570	-0.068391	-0.004319	-0.896810	0.092423	0.432655	-0.136314	-0.988084	-0.071480	0.420892	-0.123081	0.898722
04989	4.435949	-0.664500	9.306037	-0.062435	-0.073682	-0.005973	-0.896453	0.092424	0.433392	-0.136663	-0.987999	-0.071984	0.421538	-0.123759	0.898326
04990	4.506148	-0.862272	9.269337	-0.076877	-0.078750	-0.002572	-0.896092	0.092382	0.434148	-0.137055	-0.987894	-0.072671	0.422179	-0.124622	0.897906
04991	4.529498	-0.793772	9.276740	-0.061033	-0.088578	-0.005971	-0.895672	0.092363	0.435019	-0.137399	-0.987810	-0.073161	0.422959	-0.125300	0.897444
04992	4.580095	-0.749832	9.109086	-0.051313	-0.071687	-0.010067	-0.895329	0.092404	0.435716	-0.137751	-0.987730	-0.073586	0.423570	-0.125904	0.897071
04993	4.620331	-0.755655	9.070142	-0.057354	-0.069642	-0.014248	-0.894975	0.092490	0.436423	-0.138154	-0.987642	-0.074007	0.424184	-0.126528	0.896693
04994	4.576343	-0.728977	9.187122	-0.055273	-0.051802	-0.013622	-0.894711	0.092589	0.436944	-0.138556	-0.987552	-0.074450	0.424611	-0.127152	0.896403
04995	4.475773	-0.695487	9.284680	-0.057379	-0.053528	-0.019338	-0.894418	0.092745	0.437509	-0.139005	-0.987459	-0.074848	0.425081	-0.127762	0.896093
04996	4.497448	-0.626282	9.293251	-0.078006	-0.075756	-0.017041	-0.894046	0.092847	0.438247	-0.139534	-0.987336	-0.075480	0.425689	-0.128633	0.895680
04997	4.633464	-0.692368	9.144648	-0.079749	-0.073498	-0.015637	-0.893673	0.092939	0.438989	-0.140046	-0.987217	-0.076094	0.426305	-0.129482	0.895264
04998	4.549506	-0.615653	9.186036	-0.079092	-0.076159	-0.006898	-0.893312	0.092939	0.439722	-0.140490	-0.987100	-0.076779	0.426914	-0.130365	0.894846
04999	4.539014	-0.710547	9.201882	-0.087592	-0.081081	0.001410	-0.892929	0.092852	0.440518	-0.140885	-0.986985	-0.077537	0.427585	-0.131298	0.894389
05000	4.462090	-0.804298	9.288127	-0.102571	-0.090053	0.001513	-0.892520	0.092749	0.441369	-0.141355	-0.986844	-0.078468	0.428284	-0.132424	0.893888
05001	4.436776	-0.901665	9.320358	-0.127431	-0.106083	-0.007241	-0.892016	0.092712	0.442394	-0.141999	-0.986666	-0.079543	0.429120	-0.133773	0.893286
05002	4.429138	-0.926787	9.363539	-0.160871	-0.131184	-0.018647	-0.891399	0.092750	0.443627	-0.142902	-0.986425	-0.080904	0.430100	-0.135513	0.892552
05003	4.440454	-0.791403	9.416032	-0.178965	-0.154010	-0.028594	-0.890656	0.092855	0.445095	-0.143960	-0.986152	-0.082342	0.431286	-0.137414	0.891689
05004	4.524547	-0.780987	9.403417	-0.189913	-0.177496	-0.035672	-0.889811	0.092991	0.446753	-0.145143	-0.985848	-0.083882	0.432631	-0.139483	0.890716
05005	4.272082	-0.697101	9.604297	-0.205913	-0.225412	-0.036752	-0.888741	0.093070	0.448862	-0.146396	-0.985523	-0.085518	0.434404	-0.141715	0.889500
05006	4.352546	-0.812878	9.611850	-0.259962	-0.290019	-0.038589	-0.887395	0.093065	0.451519	-0.147916	-0.985107	-0.087662	0.436636	-0.144577	0.887945
05007	4.227308	-0.752174	9.715447	-0.258404	-0.354366	-0.034970	-0.885751	0.092925	0.454764	-0.149392	-0.984695	-0.089763	0.439462	-0.147445	0.886077
05008	4.301142	-0.674727	9.759064	-0.273523	-0.453327	-0.031976	-0.883676	0.092594	0.458851	-0.150926	-0.984251	-0.092043	0.443101	-0.150589	0.883733
05009	4.330324	-0.578563	9.748058	-0.282981	-0.560582	-0.021633	-0.881106	0.091987	0.463886	-0.152412	-0.983798	-0.094407	0.447686	-0.153884	0.880850
05010	4.326393	-0.592745	9.628844	-0.308318	-0.680531	-0.016674	-0.877988	0.091121	0.469931	-0.153992	-0.983295	-0.097045	0.453238	-0.157570	0.877352
05011	4.249870	-0.618963	9.628781	-0.270557	-0.778603	-0.004859	-0.874386	0.089963	0.476819	-0.155304	-0.982858	-0.099356	0.459707	-0.160927	0.873368
05012	4.272384	-0.678197	9.668920	-0.266946	-0.917569	-0.003743	-0.870098	0.088536	0.484861	-0.156619	-0.982412	-0.101668	0.467332	-0.164400	0.868662
05013	3.984904	-0.748171	9.844724	-0.249520	-1.047909	-0.019930	-0.865083	0.087026	0.494022	-0.158003	-0.981979	-0.103695	0.476095	-0.167762	0.863243
05014	3.971346	-0.914089	10.073409	-0.235363	-1.224565	-0.037609	-0.859101	0.085349	0.504639	-0.159505	-0.981540	-0.105536	0.486316	-0.171159	0.856855
05015	3.485550	-1.060333	10.459808	-0.165000	-1.412372	-0.075253	-0.851986	0.083686	0.516833	-0.160995	-0.981190	-0.106521	0.498197	-0.173962	0.849433
05016	3.242085	-1.524191	10.858409	-0.187335	-1.664041	-0.145682	-0.843314	0.082222	0.531094	-0.163222	-0.980732	-0.107344	0.512035	-0.177211	0.840486
05017	3.052430	-2.008565	11.020339	-0.108656	-1.920015	-0.261588	-0.832857	0.081397	0.547470	-0.166014	-0.980323	-0.106802	0.528004	-0.179838	0.829982
05018	2.774777	-1.675088	11.250241	-0.118576	-2.212181	-0.419865	-0.820237	0.081528	0.566183	-0.170167	-0.979758	-0.105442	0.546126	-0.182833	0.817507
05019	2.601164	-2.705160	10.021896	-0.064146	-2.619855	-0.624623	-0.804530	0.082860	0.588104	-0.175634	-0.979124	-0.102316	0.567349	-0.185607	0.802287
05020	2.546601	-2.910520	9.562644	0.403724	-3.177762	-0.875292	-0.784493	0.085580	0.614204	-0.180291	-0.979126	-0.093850	0.593351	-0.184360	0.783547
05021	4.036506	-2.754825	9.765256	0.865033	-3.709899	-1.079562	-0.759912	0.089454	0.643842	-0.183400	-0.979750	-0.080337	0.623618	-0.179130	0.760929
05022	4.393370	-2.661498	10.091632	1.173475	-4.220082	-1.256815	-0.730524	0.094403	0.676330	-0.185296	-0.980644	-0.063263	0.657267	-0.171536	0.733877
05023	6.592747	-2.535599	9.996109	1.370727	-4.626960	-1.390568	-0.696660	0.100364	0.710347	-0.186001	-0.981576	-0.043732	0.692870	-0.162592	0.702492
05024	8.847483	-2.436975	10.794560	1.329737	-4.949506	-1.453408	-0.658717	0.106813	0.744771	-0.186442	-0.982172	-0.024039	0.728925	-0.154692	0.666887
05025	11.793102	-4.127154	12.066591	0.989922	-4.983977	-1.516950	-0.618649	0.114157	0.777330	-0.188785	-0.982000	-0.006033	0.762649	-0.150481	0.629065
05026	15.321958	-4.601566	13.984202	0.909932	-4.633456	-1.513202	-0.579703	0.122151	0.805620	-0.190822	-0.981557	0.011517	0.792169	-0.147053	0.592321
05027	13.724429	-8.321117	12.402971	0.770911	-4.013792	-1.676715	-0.544150	0.132796	0.828412	-0.194081	-0.980536	0.029698	0.816231	-0.144619	0.559332
05028	9.774056	-6.126487	10.635243	2.079907	-3.800780	-1.936814	-0.508925	0.146611	0.848234	-0.187094	-0.980672	0.057249	0.840233	-0.129563	0.526519
05029	9.034399	-1.631502	11.211253	2.340933	-3.700513	-1.984976	-0.473759	0.161645	0.865693	-0.176953	-0.980435	0.086230	0.862694	-0.112334	0.493093
05030	7.623284	0.105399	10.438697	1.770747	-3.749727	-1.878700	-0.437716	0.176080	0.881703	-0.170099	-0.979145	0.111094	0.882876	-0.101349	0.458539
05031	6.005233	-0.064996	9.446677	1.152986	-3.797492	-1.779636	-0.400810	0.189765	0.896293	-0.167319	-0.977022	0.132034	0.900753	-0.097047	0.423351
05032	3.670396	-0.260605	8.144686	0.825522	-3.816823	-1.807958	-0.363048	0.203744	0.909222	-0.166761	-0.974253	0.151729	0.916726	-0.096538	0.387678
05033	2.266221	-1.537050	7.940028	0.150933	-3.784891	-1.782208	-0.325055	0.217343	0.920381	-0.171544	-0.970638	0.168626	0.930006	-0.103073	0.352795
05034	-3.900386	-3.381013	6.775102	-0.324529	-3.483058	-1.734600	-0.289381	0.230394	0.929073	-0.179945	-0.966391	0.183601	0.940148	-0.114051	0.321113
05035	12.688218	-9.597514	8.829172	0.224953	-3.670134	-1.540993	-0.251878	0.240998	0.937271	-0.182036	-0.963007	0.198696	0.950484	-0.120570	0.286430
05036	21.199233	-5.218639	12.301844	2.033027	-0.942632	-0.493963	-0.241983	0.244733	0.938909	-0.163907	-0.964071	0.209048	0.956336	-0.103307	0.273402
05037	7.883491	-2.577679	16.462517	0.904896	0.791417	0.391478	-0.250167	0.241760	0.937533	-0.154346	-0.965898	0.207889	0.955821	-0.092698	0.278951
05038	5.049906	-4.994015	11.219063	-0.055754	2.129576	0.988095	-0.271926	0.234162	0.933394	-0.152334	-0.968188	0.198511	0.950184	-0.088207	0.298947
05039	0.399881	-4.539744	7.462443	0.144563	2.554024	1.367924	-0.298167	0.223081	0.928079	-0.147129	-0.971427	0.186232	0.943106	-0.081019	0.322469
05040	-2.011004	-3.537709	5.085167	0.122763	2.594549	1.522761	-0.324680	0.210309	0.922146	-0.141270	-0.974812	0.172580	0.935214	-0.074238	0.346213
05041	-1.609360	-2.474782	4.622264	0.168467	2.527717	1.562860	-0.350394	0.196862	0.915680	-0.134493	-0.978105	0.158817	0.926896	-0.067504	0.369199
05042	-0.854337	-1.177581	5.056540	0.033303	2.491233	1.606825	-0.375438	0.182773	0.908648	-0.128393	-0.981168	0.144310	0.917912	-0.062484	0.391834
05043	-0.149784	-0.671858	5.339931	-0.210483	2.509107	1.612990	-0.400412	0.168487	0.900712	-0.124126	-0.983864	0.128861	0.907889	-0.060204	0.414865
05044	0.308250	-0.403800	5.486823	-0.433295	2.568977	1.583414	-0.425491	0.154471	0.891681	-0.121536	-0.986152	0.112843	0.896764	-0.060358	0.438373
05045	0.505555	-0.443976	5.808360	-0.645914	2.633261	1.546922	-0.450855	0.140849	0.881414	-0.120580	-0.988031	0.096208	0.884415	-0.062905	0.462442
05046	1.453533	-0.564893	6.392118	-0.750276	2.657734	1.499038	-0.475945	0.127783	0.870142	-0.120261	-0.989551	0.079539	0.871214	-0.066788	0.486339
05047	2.901036	-0.502479	7.227709	-0.813426	2.738164	1.469913	-0.501416	0.115149	0.857509	-0.120175	-0.990766	0.062772	0.856820	-0.071576	0.510624
05048	4.319119	-0.371559	7.769378	-0.838225	2.912692	1.440513	-0.527826	0.103062	0.843076	-0.119919	-0.991710	0.046154	0.840844	-0.076740	0.535810
05049	5.184539	0.224042	8.469527	-0.825325	3.135729	1.404774	-0.555642	0.091641	0.826356	-0.119243	-0.992416	0.029878	0.822826	-0.081935	0.562355
05050	5.522911	0.126297	8.797288	-0.932227	3.355663	1.305157	-0.584431	0.081575	0.807333	-0.119422	-0.992747	0.013859	0.802608	-0.088314	0.589934
05051	5.901471	0.049077	9.262950	-0.907053	3.505183	1.152419	-0.613610	0.073370	0.786193	-0.119765	-0.992802	-0.000823	0.780474	-0.094664	0.617980
05052	6.249077	-0.052895	9.647132	-0.885031	3.613035	0.975915	-0.642514	0.067248	0.763318	-0.120483	-0.992617	-0.013966	0.756743	-0.100940	0.645872
05053	6.649363	-0.118675	10.076861	-0.848163	3.699085	0.775343	-0.671033	0.063431	0.738709	-0.121766	-0.992234	-0.025410	0.731360	-0.107000	0.673545
05054	7.489964	0.061482	10.232512	-0.800443	3.731673	0.569679	-0.698493	0.061910	0.712933	-0.123658	-0.991706	-0.035035	0.704851	-0.112632	0.700356
05055	15.354899	1.360623	13.662111	-0.265072	4.148596	0.227677	-0.727451	0.064363	0.683134	-0.123927	-0.991542	-0.038547	0.674875	-0.112700	0.729275
05056	-0.021873	0.711803	9.400830	-1.482657	4.221977	0.298347	-0.755593	0.066449	0.651662	-0.131522	-0.989972	-0.051551	0.641702	-0.124659	0.756756
05057	8.008086	-1.041217	10.116338	-0.930826	3.823213	0.089088	-0.779712	0.070500	0.622157	-0.136729	-0.988832	-0.059304	0.611027	-0.131307	0.780643
05058	10.926603	0.046387	12.297597	-1.009709	3.446154	0.022888	-0.800276	0.074960	0.594928	-0.142620	-0.987478	-0.067427	0.582424	-0.138809	0.800946
05059	8.986802	-0.063583	13.115560	-1.143893	3.753443	0.070649	-0.821682	0.079672	0.564351	-0.148584	-0.985885	-0.077153	0.550238	-0.147249	0.821922
05060	13.202669	-0.359822	13.382831	-1.031364	3.613867	0.034940	-0.841020	0.084810	0.534316	-0.153852	-0.984351	-0.085923	0.518667	-0.154468	0.840907
05061	12.101182	-0.063119	13.740979	-0.913469	3.682103	-0.158819	-0.859302	0.092208	0.503088	-0.159845	-0.982761	-0.092901	0.485849	-0.160247	0.859227
05062	12.929798	-6.299893	10.772845	-0.268696	3.727670	-0.853327	-0.875374	0.106573	0.471552	-0.168554	-0.981475	-0.091080	0.453110	-0.159212	0.877122
05063	8.059320	6.614606	9.189293	2.249360	3.059349	-1.159420	-0.886953	0.122487	0.445322	-0.168896	-0.983428	-0.065898	0.429871	-0.133661	0.892942
05064	10.539644	10.687494	10.718569	-0.336361	2.652820	-1.029653	-0.896216	0.136180	0.422200	-0.179527	-0.981639	-0.064462	0.405669	-0.133568	0.904208
05065	8.308785	9.749708	7.044710	-1.611398	1.397826	-0.238835	-0.901357	0.140529	0.409642	-0.188138	-0.979032	-0.078108	0.390076	-0.147472	0.908896
05066	11.705838	-4.167580	-0.840323	-3.739717	0.091823	-0.065083	-0.901558	0.141345	0.408918	-0.203206	-0.972734	-0.111785	0.381968	-0.183876	0.905699
05067	19.050828	-6.037663	-0.126608	1.023054	0.259688	-0.132931	-0.902294	0.143144	0.406664	-0.200546	-0.974361	-0.101994	0.381637	-0.173583	0.907867
05068	20.528156	6.630384	10.132292	1.475106	0.160286	0.438325	-0.903739	0.139162	0.404833	-0.190991	-0.977423	-0.090374	0.383116	-0.158994	0.909914
05069	18.240712	-0.772949	4.998351	-1.083407	0.481215	1.185837	-0.907795	0.128399	0.399276	-0.184413	-0.977221	-0.105029	0.376695	-0.168977	0.910795
05070	16.190112	-0.510244	3.238656	0.847703	0.614937	1.154516	-0.912125	0.118140	0.392519	-0.170776	-0.980029	-0.101875	0.372644	-0.159955	0.914085
05071	13.325748	4.902960	5.075209	0.784837	0.580598	1.219064	-0.916267	0.107116	0.385980	-0.156769	-0.982615	-0.099457	0.368616	-0.151639	0.917130
05072	10.769590	4.164360	3.841584	0.399324	0.405680	1.246967	-0.919608	0.095488	0.381056	-0.143901	-0.984467	-0.100583	0.365533	-0.147331	0.919064
05073	9.860582	6.170838	5.239081	0.358203	0.142035	1.219744	-0.921794	0.083710	0.378535	-0.131408	-0.986074	-0.101935	0.364730	-0.143706	0.919957
05074	8.855471	4.457250	5.694204	-0.210868	-0.076710	1.263094	-0.923083	0.071170	0.377959	-0.120570	-0.986740	-0.108663	0.365214	-0.145875	0.919423
05075	8.394080	3.073786	6.349618	-0.266990	-0.225059	1.228866	-0.923662	0.058744	0.378680	-0.110243	-0.987140	-0.115767	0.367009	-0.148677	0.918259
05076	7.885647	1.927844	6.989889	-0.269158	-0.272113	1.138230	-0.923839	0.047128	0.379869	-0.100764	-0.987332	-0.122564	0.369281	-0.151507	0.916885
05077	6.935663	1.445692	7.414263	-0.180059	-0.260855	1.009801	-0.923829	0.036793	0.381034	-0.092143	-0.987478	-0.128052	0.371551	-0.153408	0.915650
05078	5.870269	1.619597	7.462537	-0.090132	-0.239718	0.859453	-0.923673	0.027967	0.382159	-0.084585	-0.987612	-0.132166	0.373728	-0.154403	0.914596
05079	4.778663	1.865004	6.808679	-0.064142	-0.253663	0.681766	-0.923259	0.020874	0.383612	-0.078570	-0.987677	-0.135354	0.376059	-0.155107	0.913521
05080	4.013347	2.338813	5.877556	-0.009044	-0.342582	0.454502	-0.922291	0.015883	0.386169	-0.074455	-0.987742	-0.137196	0.379256	-0.155287	0.912168
05081	3.414217	2.502602	5.400122	0.085975	-0.478680	0.175036	-0.920573	0.013447	0.390340	-0.072553	-0.987900	-0.137077	0.383774	-0.154510	0.910409
05082	2.921741	3.367760	4.541792	0.235232	-0.644881	-0.148030	-0.917949	0.013950	0.396454	-0.073049	-0.988236	-0.134365	0.389916	-0.152301	0.908169
05083	3.591019	2.666617	4.017396	0.315295	-0.937143	-0.584027	-0.913791	0.018345	0.405769	-0.077193	-0.988617	-0.129143	0.398781	-0.149332	0.904806
05084	12.120301	-4.296319	7.044470	0.766962	-1.148783	-1.400033	-0.907975	0.030548	0.417910	-0.086890	-0.989387	-0.116460	0.409917	-0.142055	0.900993
05085	14.247138	-0.454482	6.663039	3.507509	-0.079890	-2.265096	-0.905580	0.052938	0.420858	-0.093022	-0.992814	-0.075277	0.413849	-0.107318	0.903998
05086	18.083602	17.726219	13.251335	3.100323	-0.332694	-2.056689	-0.902197	0.073102	0.425084	-0.098734	-0.994367	-0.038550	0.419871	-0.076749	0.904333
05087	21.785202	0.488992	5.613863	-4.294337	-0.317503	0.460122	-0.901317	0.068263	0.427748	-0.112616	-0.990475	-0.079228	0.418266	-0.119581	0.900419
05088	5.088955	-20.663161	0.350739	-0.907765	0.458562	0.655519	-0.903930	0.062372	0.423108	-0.110518	-0.989772	-0.090204	0.413155	-0.128299	0.901578
05089	2.250889	1.460714	10.345884	5.005401	0.052955	-0.743542	-0.903337	0.069838	0.423208	-0.096470	-0.994457	-0.041809	0.417943	-0.078594	0.905067
05090	2.489727	14.377799	18.316332	1.096015	-0.216522	-0.246069	-0.902170	0.072161	0.425302	-0.094139	-0.995081	-0.030856	0.420983	-0.067875	0.904525
05091	8.423775	-2.512547	11.352743	-2.896849	-0.236065	0.223820	-0.901358	0.069781	0.427416	-0.104340	-0.992852	-0.057943	0.420318	-0.096824	0.902196
05092	2.440064	-6.187062	3.936988	-0.544717	0.068034	0.026647	-0.901647	0.069616	0.426832	-0.106431	-0.992324	-0.062979	0.419171	-0.102213	0.902135
05093	4.822446	-0.111878	10.111524	2.147579	-0.386559	-0.123477	-0.899847	0.070525	0.430467	-0.098514	-0.994204	-0.043049	0.424936	-0.081144	0.901579
05094	5.079565	4.630610	11.694098	0.533914	-0.211122	-0.048190	-0.898876	0.070872	0.432434	-0.096717	-0.994585	-0.038037	0.427397	-0.076014	0.900863
05095	5.129241	0.570686	9.259952	-0.807177	-0.041873	0.083951	-0.898737	0.070042	0.432859	-0.099444	-0.993996	-0.045633	0.427064	-0.084057	0.900306
05096	5.009934	-1.870665	8.614197	-0.322500	-0.133311	0.074299	-0.898216	0.069222	0.434069	-0.100200	-0.993767	-0.048865	0.427980	-0.087385	0.899554
05097	4.515055	0.073936	9.474647	0.120794	-0.052833	0.050134	-0.897997	0.068716	0.434603	-0.099266	-0.993904	-0.047960	0.428658	-0.086209	0.899344
05098	4.898011	-0.451515	9.180261	-0.223340	-0.031980	0.054058	-0.897889	0.068184	0.434910	-0.099783	-0.993742	-0.050211	0.428764	-0.088480	0.899073
05099	4.702508	-0.816356	9.060233	-0.122894	-0.009381	0.049310	-0.897855	0.067724	0.435053	-0.099901	-0.993664	-0.051493	0.428809	-0.089695	0.898931
05100	4.590673	-0.377161	9.243088	-0.103478	0.004913	0.047689	-0.897899	0.067287	0.435029	-0.099962	-0.993598	-0.052638	0.428702	-0.090750	0.898876
05101	4.649439	-0.574250	9.184556	-0.151462	0.019658	0.053312	-0.897993	0.066813	0.434908	-0.100166	-0.993494	-0.054195	0.428457	-0.092229	0.898843
05102	4.543404	-0.564887	9.184630	-0.133140	0.029273	0.047220	-0.898141	0.066404	0.434665	-0.100357	-0.993396	-0.055604	0.428102	-0.093562	0.898874
05103	4.515631	-0.612351	9.299856	-0.146909	0.018535	0.049933	-0.898227	0.065963	0.434554	-0.100572	-0.993290	-0.057105	0.427871	-0.094997	0.898833
05104	4.456313	-0.509622	9.299319	-0.131146	0.001891	0.052204	-0.898263	0.065479	0.434553	-0.100709	-0.993193	-0.058518	0.427763	-0.096328	0.898743
05105	4.531482	-0.548328	9.406568	-0.136149	-0.017276	0.053795	-0.898200	0.064966	0.434761	-0.100842	-0.993095	-0.059939	0.427865	-0.097680	0.898549
05106	4.485278	-0.500630	9.385822	-0.119218	-0.034783	0.054094	-0.898081	0.064427	0.435086	-0.100912	-0.993008	-0.061253	0.428098	-0.098916	0.898303
05107	4.551084	-0.589886	9.417047	-0.123237	-0.043862	0.049558	-0.897899	0.063929	0.435534	-0.101029	-0.992916	-0.062539	0.428451	-0.100155	0.897997
05108	4.594998	-0.628812	9.353302	-0.110516	-0.048619	0.050286	-0.897717	0.063413	0.435985	-0.101096	-0.992832	-0.063758	0.428816	-0.101313	0.897693
05109	4.585464	-0.627458	9.335464	-0.100986	-0.054387	0.043503	-0.897484	0.062964	0.436529	-0.101174	-0.992755	-0.064817	0.429285	-0.102338	0.897352
05110	4.607885	-0.685631	9.353548	-0.094261	-0.059221	0.039357	-0.897245	0.062544	0.437081	-0.101271	-0.992678	-0.065843	0.429762	-0.103340	0.897009
05111	4.552779	-0.729684	9.295933	-0.083534	-0.058251	0.033973	-0.896985	0.062184	0.437665	-0.101360	-0.992611	-0.066703	0.430283	-0.104194	0.896660
05112	4.622881	-0.757006	9.254377	-0.074324	-0.067054	0.025211	-0.896697	0.061896	0.438295	-0.101499	-0.992544	-0.067488	0.430850	-0.105003	0.896294
05113	4.564574	-0.745146	9.288919	-0.051291	-0.069488	0.016170	-0.896370	0.061700	0.438991	-0.101610	-0.992499	-0.067982	0.431504	-0.105543	0.895916
05114	4.639620	-0.680731	9.242546	-0.035539	-0.072093	0.016206	-0.896051	0.061495	0.439672	-0.101664	-0.992466	-0.068379	0.432155	-0.105969	0.895552
05115	4.540407	-0.670732	9.271833	-0.027665	-0.077761	0.010091	-0.895681	0.061350	0.440446	-0.101728	-0.992442	-0.068634	0.432906	-0.106280	0.895152
05116	4.488337	-0.752844	9.252387	-0.021727	-0.092872	0.008190	-0.895262	0.061202	0.441317	-0.101794	-0.992419	-0.068872	0.433756	-0.106582	0.894704
05117	4.536930	-0.658286	9.175960	-0.009477	-0.087587	-0.000298	-0.894837	0.061149	0.442185	-0.101873	-0.992407	-0.068919	0.434613	-0.106718	0.894272
05118	4.557016	-0.685193	9.218600	-0.025249	-0.099061	0.001803	-0.894383	0.061058	0.443116	-0.102012	-0.992376	-0.069160	0.435515	-0.107059	0.893793
05119	4.311501	-0.473167	9.455279	-0.032196	-0.136429	-0.004739	-0.893739	0.060996	0.444422	-0.102230	-0.992338	-0.069390	0.436784	-0.107450	0.893126
05120	4.771504	-0.824416	9.062539	-0.076640	-0.138192	0.001195	-0.893110	0.060867	0.445701	-0.102600	-0.992250	-0.070087	0.437981	-0.108324	0.892434
05121	4.595095	-0.622651	9.227439	-0.051871	-0.141850	-0.000462	-0.892443	0.060756	0.447050	-0.102867	-0.992193	-0.070511	0.439276	-0.108914	0.891726
05122	4.671559	-0.787171	9.093207	-0.078000	-0.148101	-0.002237	-0.891764	0.060648	0.448418	-0.103276	-0.992101	-0.071203	0.440557	-0.109807	0.890984
05123	4.700749	-0.731355	9.128378	-0.071725	-0.141781	-0.006725	-0.891087	0.060597	0.449769	-0.103688	-0.992017	-0.071775	0.441829	-0.110593	0.890257
05124	4.805296	-0.801803	9.012275	-0.075999	-0.133261	0.000005	-0.890472	0.060481	0.451000	-0.104069	-0.991927	-0.072458	0.442977	-0.111457	0.889578
05125	4.716682	-0.752599	9.074098	-0.065999	-0.128528	-0.005309	-0.889852	0.060428	0.452231	-0.104445	-0.991849	-0.072984	0.444134	-0.112178	0.888910
05126	4.766470	-0.720040	9.066189	-0.077191	-0.123757	-0.002836	-0.889273	0.060348	0.453378	-0.104859	-0.991755	-0.073664	0.445195	-0.113048	0.888269
05127	4.789849	-0.816389	9.046010	-0.077956	-0.117785	-0.001996	-0.888700	0.060273	0.454509	-0.105260	-0.991664	-0.074310	0.446242	-0.113881	0.887637
05128	4.760512	-0.752515	9.063461	-0.076573	-0.113351	-0.001289	-0.888167	0.060187	0.455562	-0.105659	-0.991571	-0.074990	0.447208	-0.114738	0.887040
05129	4.726835	-0.776402	9.085195	-0.075061	-0.111185	-0.001293	-0.887622	0.060110	0.456632	-0.106043	-0.991483	-0.075613	0.448198	-0.115539	0.886436
05130	4.742149	-0.741303	9.113920	-0.078284	-0.106718	-0.002287	-0.887115	0.060041	0.457626	-0.106460	-0.991385	-0.076303	0.449102	-0.116408	0.885865
05131	4.765078	-0.779884	9.023409	-0.081713	-0.109698	-0.002893	-0.886573	0.059980	0.458683	-0.106889	-0.991287	-0.076977	0.450069	-0.117274	0.885260
05132	4.807671	-0.726562	9.042404	-0.079957	-0.106589	0.002184	-0.886070	0.059864	0.459670	-0.107275	-0.991189	-0.077701	0.450969	-0.118159	0.884684
05133	4.827999	-0.777335	8.984186	-0.080604	-0.102874	0.002330	-0.885562	0.059757	0.460662	-0.107655	-0.991093	-0.078387	0.451875	-0.119009	0.884107
05134	4.818471	-0.795091	9.029132	-0.073319	-0.093969	0.005483	-0.885117	0.059622	0.461534	-0.107983	-0.991004	-0.079067	0.452668	-0.119821	0.883592
05135	4.790307	-0.823353	9.124653	-0.074270	-0.093304	0.003640	-0.884652	0.059512	0.462439	-0.108324	-0.990915	-0.079703	0.453494	-0.120603	0.883062
05136	4.675925	-0.828184	9.205271	-0.080767	-0.106043	0.000282	-0.884145	0.059412	0.463421	-0.108734	-0.990812	-0.080423	0.454385	-0.121495	0.882481
05137	4.697163	-0.879476	9.146389	-0.097761	-0.123231	-0.007209	-0.883530	0.059372	0.464597	-0.109279	-0.990688	-0.081215	0.455448	-0.122527	0.881790
05138	4.714662	-0.614538	9.187832	-0.085580	-0.148257	-0.008731	-0.882818	0.059307	0.465956	-0.109792	-0.990572	-0.081935	0.456704	-0.123492	0.881006
05139	4.659607	-0.537297	9.208282	-0.100993	-0.182742	0.003900	-0.881940	0.059080	0.467645	-0.110256	-0.990448	-0.082806	0.458286	-0.124590	0.880029
05140	4.731131	-0.695215	9.126313	-0.115449	-0.213582	0.015976	-0.880950	0.058686	0.469556	-0.110691	-0.990307	-0.083902	0.460081	-0.125889	0.878907
05141	4.763414	-0.795419	9.099862	-0.108727	-0.230374	0.014301	-0.879857	0.058291	0.471650	-0.111104	-0.990177	-0.084886	0.462069	-0.127090	0.877691
05142	4.777511	-0.860766	9.084844	-0.123858	-0.248853	0.018024	-0.878698	0.057826	0.473863	-0.111564	-0.990023	-0.086064	0.464159	-0.128490	0.876383
05143	4.891454	-0.981927	8.996766	-0.140629	-0.258617	0.013958	-0.877464	0.057392	0.476197	-0.112133	-0.989849	-0.087324	0.466352	-0.130021	0.874992
05144	4.799718	-1.060923	9.081723	-0.133792	-0.261435	0.006458	-0.876222	0.057017	0.478523	-0.112747	-0.989672	-0.088530	0.468533	-0.131524	0.873601
05145	4.744837	-1.017066	9.252715	-0.149407	-0.289466	-0.003511	-0.874811	0.056708	0.481134	-0.113517	-0.989471	-0.089779	0.470977	-0.133157	0.872038
05146	4.720809	-1.006150	9.318500	-0.167542	-0.326586	-0.015042	-0.873224	0.056449	0.484039	-0.114486	-0.989232	-0.091171	0.473680	-0.135028	0.870284
05147	4.575764	-0.741635	9.514815	-0.148471	-0.388133	-0.015848	-0.871313	0.056118	0.487508	-0.115368	-0.989021	-0.092347	0.476973	-0.136706	0.868221
05148	4.476445	-0.611500	9.621090	-0.183909	-0.483409	-0.010845	-0.868958	0.055589	0.491754	-0.116388	-0.988756	-0.093893	0.481006	-0.138824	0.865657
05149	4.533690	-0.638524	9.536532	-0.211093	-0.598812	-0.006798	-0.866007	0.054857	0.497014	-0.117506	-0.988456	-0.095645	0.486030	-0.141231	0.862455
05150	4.267268	-0.452788	9.822993	-0.202045	-0.720805	-0.011244	-0.862440	0.053972	0.503273	-0.118637	-0.988156	-0.097331	0.492059	-0.143649	0.858628
05151	4.520204	-0.564348	9.399518	-0.234986	-0.868145	-0.001325	-0.858087	0.052766	0.510785	-0.119851	-0.987814	-0.099297	0.499321	-0.146423	0.853955
05152	4.260845	-0.528610	9.638581	-0.172976	-0.996907	-0.006237	-0.853031	0.051387	0.519323	-0.120821	-0.987549	-0.100740	0.507681	-0.148680	0.848619
05153	4.314756	-0.740502	9.624742	-0.206910	-1.151682	-0.002366	-0.847078	0.049725	0.529137	-0.121940	-0.987237	-0.102435	0.517291	-0.151294	0.842331
05154	4.096059	-0.970206	9.845174	-0.185926	-1.312732	-0.013815	-0.840169	0.047888	0.540206	-0.123074	-0.986941	-0.103923	0.528175	-0.153798	0.835091
05155	4.056092	-1.070656	10.112257	-0.211712	-1.504593	-0.051798	-0.832016	0.046108	0.552832	-0.124677	-0.986588	-0.105355	0.540560	-0.156583	0.826606
05156	3.945172	-1.303685	10.157858	-0.294954	-1.686860	-0.099167	-0.822626	0.044442	0.566843	-0.127157	-0.986070	-0.107225	0.554181	-0.160284	0.816818
05157	3.894961	-1.532346	9.957123	-0.342769	-1.910577	-0.169829	-0.811625	0.043058	0.582590	-0.130509	-0.985439	-0.108985	0.569414	-0.164488	0.805426
05158	3.375710	-1.722157	9.659685	-0.224641	-2.215034	-0.260601	-0.798439	0.041976	0.600610	-0.133952	-0.984949	-0.109236	0.586985	-0.167671	0.792045
05159	3.782817	-1.854373	9.911622	-0.005556	-2.661823	-0.353263	-0.782006	0.041022	0.621919	-0.136815	-0.984793	-0.107075	0.608069	-0.168822	0.775726
05160	3.667352	-2.051550	9.880786	0.223300	-3.078865	-0.453706	-0.762251	0.040336	0.646024	-0.138980	-0.984978	-0.102484	0.632186	-0.167903	0.756406
05161	4.012817	-2.245637	9.578591	0.451672	-3.543721	-0.566382	-0.738522	0.040069	0.673037	-0.140352	-0.985501	-0.095336	0.659459	-0.164870	0.733438
05162	4.971312	-1.958726	9.825184	0.675557	-4.013422	-0.671727	-0.710466	0.040204	0.702582	-0.140707	-0.986323	-0.085845	0.689521	-0.159848	0.706406
05163	5.889544	-2.050374	9.422081	0.824049	-4.376085	-0.725914	-0.678529	0.040567	0.733453	-0.139976	-0.987319	-0.074886	0.721114	-0.153478	0.675603
05164	7.591253	-1.609406	9.673180	1.026872	-4.688598	-0.774413	-0.642836	0.041244	0.764893	-0.137565	-0.988531	-0.062311	0.753550	-0.145278	0.641136
05165	9.387917	-1.154404	10.089244	0.981654	-4.816549	-0.765279	-0.604682	0.042052	0.795356	-0.134823	-0.989598	-0.050179	0.784973	-0.137574	0.604062
05166	13.600728	-1.785484	12.032024	0.710103	-4.875673	-0.731425	-0.564657	0.042736	0.824219	-0.133463	-0.990243	-0.040089	0.814463	-0.132639	0.564851
05167	16.168796	-3.075805	12.484297	0.452676	-4.362431	-0.702851	-0.527600	0.044033	0.848351	-0.133600	-0.990529	-0.031675	0.838921	-0.130052	0.528486
05168	14.300802	-4.588499	11.146157	0.475940	-3.987758	-0.760712	-0.492661	0.046472	0.868980	-0.133480	-0.990792	-0.022689	0.859924	-0.127170	0.494327
05169	10.992938	-2.798961	10.451218	0.824049	-3.795304	-0.904881	-0.458413	0.050789	0.887287	-0.130654	-0.991370	-0.010755	0.879083	-0.120858	0.461093
05170	9.392336	-3.052362	9.824331	0.884511	-3.749073	-0.988191	-0.423798	0.056216	0.904011	-0.127199	-0.991875	0.002049	0.896781	-0.114121	0.427505
05171	7.575762	-2.688891	9.478977	1.010884	-3.697179	-1.039016	-0.389000	0.062505	0.919115	-0.122310	-0.992367	0.015721	0.913082	-0.106301	0.393676
05172	6.286917	-2.595267	8.909921	1.083922	-3.693599	-1.075561	-0.353659	0.069441	0.932793	-0.116363	-0.992760	0.029787	0.928108	-0.098008	0.359179
05173	4.197544	-2.182762	7.822843	1.157257	-3.746663	-1.112535	-0.317338	0.077034	0.945178	-0.109312	-0.993023	0.044233	0.941991	-0.089283	0.323545
05174	3.046770	-2.129578	6.702578	1.152348	-3.892642	-1.191883	-0.279105	0.085590	0.956439	-0.101973	-0.993030	0.059107	0.954831	-0.081034	0.285887
05175	2.086503	-2.772445	6.677519	0.950455	-3.817783	-1.180709	-0.241253	0.094386	0.965861	-0.095956	-0.992702	0.073041	0.965707	-0.075059	0.248549
05176	-2.151265	-2.721160	6.276358	0.731504	-3.888884	-1.254456	-0.202283	0.104016	0.973787	-0.091673	-0.991989	0.086917	0.975027	-0.071688	0.210198
05177	21.283102	-3.839089	10.722170	1.503676	-3.418081	-1.517177	-0.167516	0.116851	0.978920	-0.079799	-0.991300	0.104673	0.982635	-0.060582	0.175383
05178	15.353051	1.023561	13.127956	1.761094	-0.754929	-0.840888	-0.159433	0.124826	0.979285	-0.063878	-0.991199	0.115945	0.985140	-0.044069	0.166004
05179	10.301511	0.792417	14.863694	0.622157	0.940621	-0.321963	-0.168510	0.128442	0.977296	-0.058326	-0.991036	0.120191	0.983973	-0.036748	0.174491
05180	6.733349	-1.491424	11.785460	-0.008498	2.243789	0.022970	-0.190507	0.129044	0.973167	-0.058401	-0.991057	0.119983	0.979947	-0.033976	0.196340
05181	1.933810	-2.609676	8.373204	-0.391412	2.874058	0.237697	-0.218762	0.127712	0.967385	-0.061791	-0.991221	0.116885	0.973820	-0.034206	0.224733
05182	-1.365523	-3.652179	5.368998	-0.560986	2.997551	0.300321	-0.247988	0.125822	0.960558	-0.066567	-0.991399	0.112676	0.966473	-0.036000	0.254231
05183	-1.269636	-3.788708	4.030420	-0.114476	2.821166	0.265937	-0.275373	0.124207	0.953280	-0.067031	-0.991686	0.109848	0.958998	-0.033650	0.281409
05184	-0.193363	-2.209803	5.227445	0.023601	2.742487	0.297589	-0.301715	0.122165	0.945539	-0.065983	-0.992054	0.107120	0.951112	-0.030070	0.307379
05185	0.149966	-1.898629	5.214936	-0.103599	2.744928	0.359179	-0.327994	0.119431	0.937100	-0.065894	-0.992452	0.103422	0.942379	-0.027827	0.333388
05186	0.127591	-1.237622	5.700805	-0.209967	2.736883	0.427687	-0.353893	0.115968	0.928068	-0.066442	-0.992893	0.098732	0.932923	-0.026722	0.359083
05187	0.644310	-0.774010	6.445916	-0.447853	2.713715	0.502845	-0.379473	0.111753	0.918429	-0.068817	-0.993338	0.092434	0.922640	-0.028128	0.384635
05188	2.188578	-0.847624	7.434656	-0.721020	2.721970	0.578993	-0.404800	0.106859	0.908140	-0.073198	-0.993748	0.084304	0.911471	-0.032348	0.410091
05189	3.981058	-1.411745	8.185904	-0.947197	2.849898	0.662592	-0.431171	0.101321	0.896563	-0.079068	-0.994095	0.074318	0.898799	-0.038845	0.436637
05190	5.158100	-2.132435	8.609942	-1.014223	3.084534	0.733451	-0.459228	0.095371	0.883184	-0.084886	-0.994382	0.063241	0.884253	-0.045928	0.464744
05191	5.634670	-2.803936	8.797117	-0.954197	3.320365	0.814025	-0.489101	0.088940	0.867681	-0.089451	-0.994657	0.051533	0.867628	-0.052410	0.494444
05192	5.744008	-2.609507	8.929428	-0.780108	3.485449	0.894848	-0.519792	0.081982	0.850350	-0.091676	-0.994990	0.039888	0.849359	-0.057223	0.524704
05193	5.778992	-2.488516	8.964498	-0.656539	3.576682	0.970025	-0.550793	0.074472	0.831313	-0.092061	-0.995355	0.028172	0.829549	-0.061015	0.555090
05194	5.960040	-1.881714	8.981001	-0.512873	3.618129	1.001419	-0.581304	0.066790	0.810941	-0.090636	-0.995738	0.017040	0.808623	-0.063595	0.584880
05195	6.170154	-1.299852	9.350159	-0.433204	3.631032	1.009747	-0.611253	0.059109	0.789225	-0.088135	-0.996088	0.006341	0.786512	-0.065683	0.614072
05196	6.465669	-1.055280	9.981629	-0.439378	3.642509	0.971581	-0.640287	0.051899	0.766381	-0.085504	-0.996330	-0.003965	0.763362	-0.068068	0.642374
05197	6.911667	-0.839395	10.566202	-0.473205	3.669950	0.917048	-0.668713	0.045344	0.742137	-0.083120	-0.996441	-0.014015	0.738860	-0.071058	0.670102
05198	13.072854	-0.194247	12.366330	-0.224953	3.796638	0.738067	-0.696836	0.040732	0.716073	-0.079758	-0.996595	-0.020926	0.712782	-0.071695	0.697712
05199	0.692268	-0.523478	9.500471	-0.955093	4.107195	0.862001	-0.726269	0.035284	0.686505	-0.080350	-0.996193	-0.033803	0.682699	-0.079711	0.726339
05200	8.647952	-1.435990	11.147525	-0.420711	3.725398	0.595530	-0.751625	0.032410	0.658794	-0.078809	-0.996050	-0.040913	0.654866	-0.082670	0.751210
05201	7.747767	-0.288670	12.215272	-0.690082	3.623830	0.499146	-0.775319	0.030574	0.630829	-0.079479	-0.995610	-0.049430	0.626548	-0.088462	0.774346
05202	9.498614	0.021529	13.050625	-0.767950	3.700119	0.396384	-0.798241	0.030056	0.601587	-0.081104	-0.995022	-0.057904	0.596853	-0.095013	0.796706
05203	10.806361	0.100644	14.085069	-0.961612	3.862907	0.312844	-0.821009	0.030815	0.570083	-0.084212	-0.994156	-0.067542	0.564670	-0.103461	0.818806
05204	11.510863	0.814573	14.512472	-1.114413	4.045325	0.217811	-0.843314	0.033067	0.536403	-0.088546	-0.993014	-0.077995	0.530077	-0.113271	0.840350
05205	11.449833	1.577373	14.163962	-1.395742	4.191012	0.086874	-0.864894	0.037252	0.500570	-0.094996	-0.991368	-0.090359	0.492883	-0.125703	0.860968
05206	11.194675	2.305006	13.391541	-1.683668	4.234849	-0.074912	-0.884850	0.043667	0.463824	-0.103671	-0.989090	-0.104659	0.454194	-0.140693	0.879724
05207	11.207263	2.917070	12.641320	-2.010350	4.164098	-0.249392	-0.902720	0.052403	0.427026	-0.114681	-0.985952	-0.121439	0.414663	-0.158597	0.896048
05208	12.353448	-2.396491	14.596006	-2.650548	3.709835	-0.342598	-0.916980	0.062132	0.394065	-0.128346	-0.981227	-0.143950	0.377723	-0.182576	0.907740
05209	4.767664	-2.052392	-3.760990	-0.731429	2.199189	-1.445082	-0.923118	0.080412	0.376014	-0.144366	-0.978829	-0.145092	0.356386	-0.188221	0.915184
05210	24.653922	8.800585	6.709745	0.879660	1.456397	-1.710552	-0.925619	0.099854	0.365045	-0.157141	-0.978891	-0.130685	0.344290	-0.178328	0.921772
05211	19.358868	5.463348	4.165690	-0.425668	1.628421	-1.582251	-0.928505	0.118287	0.351976	-0.173282	-0.976390	-0.128984	0.328409	-0.180753	0.927079
05212	22.706382	7.777546	8.018619	-0.530337	1.873671	-1.409841	-0.931916	0.135474	0.336420	-0.188134	-0.973625	-0.129075	0.310061	-0.183579	0.932824
05213	17.971222	2.856043	1.999016	-1.178597	1.899767	-1.091021	-0.935495	0.149685	0.320068	-0.201896	-0.969843	-0.136540	0.289978	-0.192353	0.937504
05214	15.012434	0.479647	-0.874767	-1.157337	1.438793	-0.797857	-0.937878	0.160268	0.307732	-0.212677	-0.966317	-0.144916	0.274141	-0.201361	0.940372
05215	14.550348	0.582672	-0.544163	-0.612163	0.862451	-0.526293	-0.939061	0.167137	0.300384	-0.219304	-0.964196	-0.149100	0.264709	-0.205889	0.942093
05216	13.732352	2.241684	2.069644	-0.748749	0.394577	-0.022910	-0.940023	0.168209	0.296753	-0.221524	-0.962580	-0.156099	0.259391	-0.212475	0.942110
05217	12.729245	1.041421	2.720387	-0.909440	0.041109	0.453731	-0.941118	0.163963	0.295658	-0.219644	-0.961349	-0.166023	0.257009	-0.221187	0.940757
05218	10.837147	0.159955	3.184129	-0.761703	-0.259362	0.763859	-0.942087	0.156062	0.296843	-0.214455	-0.960845	-0.175458	0.257838	-0.228956	0.938669
05219	9.121225	0.165445	3.665266	-0.382440	-0.544158	0.905471	-0.942563	0.146128	0.300371	-0.206958	-0.961317	-0.181761	0.262191	-0.233486	0.936344
05220	7.383507	0.644248	4.579706	-0.034051	-0.799613	0.884729	-0.942210	0.135769	0.306279	-0.198753	-0.962473	-0.184777	0.269698	-0.234973	0.933837
05221	6.277525	0.812644	5.558523	0.306089	-1.038993	0.738355	-0.940771	0.126248	0.314661	-0.191003	-0.964147	-0.184226	0.280122	-0.233416	0.931155
05222	6.467898	1.509315	5.455479	0.679146	-1.255846	0.493830	-0.938077	0.118606	0.325492	-0.184460	-0.966309	-0.179505	0.293235	-0.228429	0.928350
05223	6.654670	3.373542	5.847523	1.054131	-1.280550	0.204997	-0.934579	0.113778	0.337070	-0.179419	-0.968900	-0.170415	0.307198	-0.219743	0.925928
05224	6.051530	5.341038	6.848567	1.029022	-1.134486	-0.014098	-0.930976	0.111497	0.347637	-0.176369	-0.971091	-0.160862	0.319651	-0.211071	0.923727
05225	4.006704	5.817163	6.994748	0.664042	-0.970873	-0.147789	-0.927533	0.110937	0.356898	-0.175629	-0.972304	-0.154208	0.329906	-0.205714	0.921327
05226	2.304039	4.558775	6.760010	0.267935	-0.883103	-0.232851	-0.924148	0.111419	0.365427	-0.176933	-0.972584	-0.150913	0.338594	-0.204122	0.918525
05227	2.397986	1.479137	7.575623	0.001113	-0.867890	-0.262667	-0.920673	0.112228	0.373853	-0.179393	-0.972288	-0.149911	0.346668	-0.205086	0.915293
05228	0.387482	-0.113215	-0.232387	0.437344	-1.446551	-0.626006	-0.914396	0.115394	0.388026	-0.183634	-0.972458	-0.143544	0.360775	-0.202511	0.910402
05229	4.612661	4.604312	4.301025	1.657415	-2.030114	-1.116030	-0.904745	0.122319	0.408013	-0.187668	-0.974370	-0.124035	0.382384	-0.188791	0.904511
05230	21.715072	-14.081494	17.348630	0.622649	-1.903016	-1.623917	-0.894120	0.134604	0.427120	-0.199881	-0.973438	-0.111653	0.400746	-0.185204	0.897275
05231	36.749778	2.204450	23.863064	6.335475	0.854329	-2.125706	-0.893341	0.156720	0.421166	-0.193373	-0.980071	-0.045473	0.405646	-0.122065	0.905843
05232	-2.751493	10.771712	4.479274	-3.159751	1.390412	0.800043	-0.900394	0.150818	0.408098	-0.198766	-0.976979	-0.077485	0.387017	-0.150883	0.909644
05233	-8.088610	-0.384799	9.012426	1.042387	-0.903013	-0.366865	-0.896074	0.153115	0.416661	-0.198012	-0.977943	-0.066469	0.397294	-0.142065	0.906628
05234	19.014749	0.353594	19.380099	0.478284	-0.307212	-0.039634	-0.894743	0.153103	0.419517	-0.196502	-0.978543	-0.061978	0.401026	-0.137890	0.905629
05235	-4.470534	0.196799	5.209397	-0.630628	0.117436	0.214256	-0.895583	0.151208	0.418410	-0.197144	-0.977975	-0.068548	0.398829	-0.143877	0.905668
05236	10.368131	-2.173773	11.132059	0.221194	-0.840757	-0.153220	-0.891867	0.151530	0.426159	-0.197666	-0.978051	-0.065910	0.406818	-0.143020	0.902244
05237	1.864896	2.334226	8.383621	0.952473	0.139340	0.086400	-0.892552	0.150913	0.424942	-0.193055	-0.979493	-0.057640	0.407529	-0.133484	0.903384
05238	6.421984	1.678405	10.874208	-0.213193	-0.432095	0.024305	-0.890804	0.150122	0.428873	-0.193755	-0.979233	-0.059676	0.411008	-0.136256	0.901392
05239	4.074822	-0.770707	8.459088	-0.186011	-0.088698	0.103336	-0.890588	0.149026	0.429702	-0.193637	-0.979128	-0.061753	0.411531	-0.138202	0.900857
05240	5.632839	0.628586	10.118912	0.052511	-0.106075	0.116722	-0.890349	0.147767	0.430631	-0.192426	-0.979364	-0.061790	0.412615	-0.137879	0.900410
05241	4.295398	-0.863787	9.371685	-0.332545	-0.141767	0.138619	-0.889979	0.146250	0.431913	-0.192603	-0.979099	-0.065336	0.413330	-0.141335	0.899546
05242	4.642979	-1.372199	9.005282	-0.238634	-0.074502	0.124770	-0.889884	0.144952	0.432546	-0.192523	-0.978931	-0.068029	0.413572	-0.143813	0.899042
05243	4.934057	-1.000514	9.184706	-0.206226	-0.076120	0.087625	-0.889686	0.144021	0.433263	-0.192635	-0.978755	-0.070219	0.413945	-0.145934	0.898528
05244	4.526801	-0.941363	9.015125	-0.195933	-0.037245	0.075136	-0.889649	0.143261	0.433590	-0.192822	-0.978566	-0.072312	0.413937	-0.147938	0.898204
05245	4.744368	-0.860261	9.089004	-0.185044	-0.027239	0.061319	-0.889603	0.142657	0.433884	-0.193081	-0.978373	-0.074198	0.413916	-0.149781	0.897908
05246	4.587153	-0.875555	9.170051	-0.159132	-0.016666	0.052315	-0.889608	0.142150	0.434041	-0.193318	-0.978199	-0.075861	0.413795	-0.151395	0.897693
05247	4.490919	-0.724010	9.213057	-0.129368	-0.011835	0.044878	-0.889593	0.141729	0.434208	-0.193493	-0.978062	-0.077175	0.413744	-0.152671	0.897501
05248	4.527663	-0.627374	9.316959	-0.112760	-0.027959	0.039243	-0.889526	0.141332	0.434475	-0.193655	-0.977935	-0.078365	0.413812	-0.153846	0.897268
05249	4.597321	-0.712005	9.345301	-0.104465	-0.029236	0.040259	-0.889431	0.140930	0.434800	-0.193768	-0.977826	-0.079435	0.413964	-0.154902	0.897017
05250	4.596749	-0.674577	9.306695	-0.069873	-0.036068	0.033421	-0.889319	0.140576	0.435143	-0.193805	-0.977755	-0.080215	0.414187	-0.155669	0.896781
05251	4.572430	-0.744719	9.276098	-0.080057	-0.035644	0.031746	-0.889181	0.140247	0.435532	-0.193893	-0.977671	-0.081029	0.414442	-0.156496	0.896519
05252	4.687126	-0.831276	9.210690	-0.063324	-0.033915	0.027642	-0.889067	0.139953	0.435860	-0.193954	-0.977601	-0.081724	0.414659	-0.157195	0.896297
05253	4.706907	-0.837410	9.191323	-0.053468	-0.028673	0.022600	-0.888939	0.139723	0.436193	-0.194014	-0.977544	-0.082260	0.414904	-0.157752	0.896085
05254	4.673237	-0.884686	9.188284	-0.050212	-0.013855	0.020753	-0.888895	0.139528	0.436346	-0.194083	-0.977484	-0.082808	0.414968	-0.158295	0.895960
05255	4.634217	-0.857020	9.217498	-0.043212	-0.007847	0.018366	-0.888846	0.139372	0.436496	-0.194138	-0.977437	-0.083233	0.415047	-0.158722	0.895848
05256	4.578966	-0.856341	9.196198	-0.043912	-0.009433	0.015748	-0.888810	0.139232	0.436614	-0.194225	-0.977379	-0.083703	0.415084	-0.159197	0.895747
05257	4.556216	-0.800380	9.276163	-0.033629	-0.015152	0.014580	-0.888723	0.139102	0.436832	-0.194274	-0.977342	-0.084026	0.415246	-0.159541	0.895610
05258	4.554646	-0.756271	9.238729	-0.024514	-0.025367	0.012560	-0.888614	0.138968	0.437096	-0.194309	-0.977311	-0.084308	0.415462	-0.159849	0.895455
05259	4.588229	-0.744743	9.302089	-0.019168	-0.034167	0.011333	-0.888442	0.138839	0.437487	-0.194327	-0.977292	-0.084487	0.415822	-0.160078	0.895247
05260	4.573527	-0.788095	9.280999	-0.018502	-0.047389	0.014429	-0.888245	0.138651	0.437945	-0.194321	-0.977272	-0.084724	0.416245	-0.160357	0.895000
05261	4.590511	-0.782606	9.188357	-0.009853	-0.054030	0.008781	-0.887985	0.138515	0.438516	-0.194323	-0.977265	-0.084808	0.416799	-0.160522	0.894713
05262	4.553684	-0.764701	9.247570	-0.007559	-0.059840	0.010959	-0.887729	0.138341	0.439088	-0.194302	-0.977258	-0.084932	0.417353	-0.160712	0.894420
05263	4.555947	-0.820396	9.239648	-0.013073	-0.068882	0.010595	-0.887410	0.138164	0.439790	-0.194302	-0.977247	-0.085053	0.418032	-0.160929	0.894064
05264	4.564739	-0.808210	9.204642	-0.010812	-0.075599	0.007627	-0.887081	0.137996	0.440506	-0.194324	-0.977231	-0.085191	0.418720	-0.161172	0.893699
05265	4.607544	-0.768196	9.202444	-0.011838	-0.084485	0.009074	-0.886692	0.137808	0.441347	-0.194333	-0.977220	-0.085295	0.419539	-0.161398	0.893274
05266	4.589141	-0.790527	9.206380	-0.008146	-0.088050	0.011330	-0.886316	0.137584	0.442170	-0.194311	-0.977213	-0.085425	0.420341	-0.161632	0.892854
05267	4.281023	-0.630774	9.476765	-0.009626	-0.107273	0.014767	-0.885841	0.137303	0.443209	-0.194261	-0.977214	-0.085534	0.421366	-0.161868	0.892328
05268	4.540203	-0.811760	9.297171	-0.068744	-0.159143	0.014672	-0.885170	0.136930	0.444662	-0.194466	-0.977113	-0.086220	0.422679	-0.162791	0.891539
05269	4.644442	-0.916940	9.101096	-0.059242	-0.169545	0.008728	-0.884416	0.136606	0.446259	-0.194679	-0.977024	-0.086744	0.424156	-0.163595	0.890690
05270	4.575044	-0.925378	9.180724	-0.066959	-0.165430	0.005946	-0.883697	0.136305	0.447773	-0.194956	-0.976913	-0.087374	0.425525	-0.164508	0.889868
05271	4.691620	-0.955630	8.998530	-0.070699	-0.164975	0.001585	-0.882944	0.136055	0.449332	-0.195283	-0.976794	-0.087968	0.426936	-0.165418	0.889023
05272	4.767597	-0.899496	8.983613	-0.066851	-0.151619	0.000292	-0.882268	0.135829	0.450725	-0.195611	-0.976674	-0.088570	0.428181	-0.166309	0.888258
05273	4.834783	-0.951420	8.959143	-0.065121	-0.134669	-0.003911	-0.881630	0.135680	0.452017	-0.195965	-0.976556	-0.089089	0.429332	-0.167123	0.887549
05274	4.829171	-0.957290	8.970219	-0.058787	-0.114506	-0.004230	-0.881101	0.135558	0.453083	-0.196299	-0.976442	-0.089598	0.430264	-0.167885	0.886954
05275	4.719784	-0.980114	9.119913	-0.063454	-0.105031	-0.005468	-0.880585	0.135472	0.454113	-0.196661	-0.976323	-0.090094	0.431156	-0.168642	0.886377
05276	4.757278	-0.951092	9.074504	-0.074266	-0.104051	-0.012740	-0.880082	0.135448	0.455093	-0.197139	-0.976171	-0.090701	0.431963	-0.169540	0.885813
05277	4.772012	-0.888988	9.042630	-0.070177	-0.099430	-0.009426	-0.879580	0.135409	0.456074	-0.197565	-0.976035	-0.091238	0.432790	-0.170355	0.885252
05278	4.779428	-0.807060	9.038057	-0.074243	-0.106268	-0.009720	-0.879072	0.135350	0.457070	-0.198017	-0.975885	-0.091857	0.433615	-0.171257	0.884675
05279	4.812757	-0.832749	8.987463	-0.074774	-0.098679	-0.002259	-0.878585	0.135240	0.458038	-0.198402	-0.975749	-0.092466	0.434425	-0.172115	0.884111
05280	4.788073	-0.840193	9.017810	-0.064037	-0.095326	0.002679	-0.878147	0.135078	0.458924	-0.198702	-0.975633	-0.093051	0.435172	-0.172901	0.883589
05281	4.770549	-0.867460	9.020946	-0.069400	-0.096120	0.007251	-0.877689	0.134877	0.459859	-0.198981	-0.975518	-0.093655	0.435969	-0.173704	0.883039
05282	4.754347	-0.970734	9.122668	-0.065386	-0.099809	0.005604	-0.877236	0.134677	0.460781	-0.199262	-0.975402	-0.094265	0.436752	-0.174509	0.882493
05283	4.697940	-0.992392	9.088439	-0.084162	-0.108540	0.005041	-0.876717	0.134475	0.461827	-0.199627	-0.975257	-0.094989	0.437626	-0.175471	0.881869
05284	4.710838	-0.831583	9.157612	-0.076893	-0.117471	-0.000876	-0.876172	0.134305	0.462909	-0.200016	-0.975111	-0.095669	0.438539	-0.176411	0.881228
05285	4.717604	-0.908053	9.176689	-0.099423	-0.144024	0.005856	-0.875497	0.134030	0.464264	-0.200442	-0.974938	-0.096530	0.439691	-0.177570	0.880421
05286	4.661222	-0.872376	9.204568	-0.103135	-0.168054	0.005068	-0.874738	0.133709	0.465785	-0.200897	-0.974752	-0.097467	0.440992	-0.178833	0.879514
05287	4.693073	-0.896123	9.208669	-0.116772	-0.193930	0.001944	-0.873831	0.133379	0.467579	-0.201437	-0.974540	-0.098461	0.442542	-0.180225	0.878451
05288	4.699502	-0.853977	9.221426	-0.124956	-0.222529	0.005432	-0.872826	0.132952	0.469573	-0.201988	-0.974311	-0.099589	0.444270	-0.181772	0.877259
05289	4.676135	-0.814349	9.268701	-0.133060	-0.260807	0.012072	-0.871634	0.132395	0.471938	-0.202517	-0.974080	-0.100770	0.446364	-0.183410	0.875854
05290	4.548409	-0.814845	9.444156	-0.136769	-0.319996	0.016459	-0.870206	0.131673	0.474768	-0.203030	-0.973840	-0.102050	0.448911	-0.185197	0.874175
05291	4.453501	-0.806751	9.508673	-0.150074	-0.401370	0.015806	-0.868375	0.130809	0.478346	-0.203611	-0.973577	-0.103393	0.452182	-0.187180	0.872064
05292	4.503445	-0.714538	9.499296	-0.168826	-0.488934	0.024376	-0.866174	0.129679	0.482624	-0.204211	-0.973281	-0.104985	0.456114	-0.189492	0.869513
05293	4.558131	-0.777509	9.377101	-0.191759	-0.587502	0.028999	-0.863485	0.128314	0.487781	-0.204881	-0.972949	-0.106746	0.460888	-0.192111	0.866415
05294	4.405723	-0.832180	9.516684	-0.167860	-0.684375	0.032608	-0.860348	0.126700	0.493709	-0.205423	-0.972656	-0.108362	0.466479	-0.194649	0.862849
05295	4.368579	-0.817101	9.649069	-0.183444	-0.803940	0.034894	-0.856587	0.124824	0.500677	-0.206027	-0.972336	-0.110070	0.473086	-0.197437	0.858608
05296	4.200368	-0.763700	9.719366	-0.191514	-0.944468	0.027186	-0.852108	0.122707	0.508778	-0.206753	-0.971979	-0.111851	0.480796	-0.200500	0.853601
05297	4.197112	-0.827013	9.617569	-0.262969	-1.125840	0.008012	-0.846604	0.120390	0.518428	-0.208003	-0.971452	-0.114082	0.489893	-0.204417	0.847478
05298	4.044903	-0.935694	9.721399	-0.215972	-1.267669	0.006299	-0.840310	0.117741	0.529165	-0.209064	-0.971005	-0.115941	0.500171	-0.208056	0.840561
05299	3.757746	-0.756072	10.213519	-0.218705	-1.484118	-0.018893	-0.832702	0.114849	0.541680	-0.210371	-0.970520	-0.117621	0.512203	-0.211897	0.832315
05300	3.668493	-1.003978	10.343977	-0.291635	-1.728144	-0.036472	-0.823621	0.111526	0.556067	-0.212232	-0.969844	-0.119835	0.525933	-0.216714	0.822453
05301	3.147312	-1.177059	10.830662	-0.387000	-1.988194	-0.084688	-0.812773	0.108022	0.572478	-0.215033	-0.968898	-0.122467	0.541444	-0.222640	0.810722
05302	3.112616	-2.035405	10.573798	-0.485377	-2.332664	-0.181508	-0.799506	0.104528	0.591494	-0.219212	-0.967597	-0.125311	0.559229	-0.229850	0.796513
05303	2.826812	-2.553644	9.844114	-0.215442	-2.801425	-0.324639	-0.782761	0.101204	0.614039	-0.223051	-0.966759	-0.125000	0.580977	-0.234807	0.779315
05304	3.240871	-2.280135	10.180644	0.072187	-3.295610	-0.448163	-0.762145	0.097779	0.639979	-0.226129	-0.966474	-0.121632	0.606630	-0.237419	0.758704
05305	3.008680	-2.655843	10.248978	0.288845	-3.916376	-0.575640	-0.736433	0.094074	0.669938	-0.228688	-0.966605	-0.115654	0.636686	-0.238378	0.733353
05306	3.673662	-2.567451	10.457256	0.608170	-4.542821	-0.703010	-0.705075	0.090105	0.703385	-0.229824	-0.967393	-0.106451	0.670858	-0.236711	0.702793
05307	5.007116	-2.320106	10.850836	0.856418	-5.126954	-0.797794	-0.667835	0.085839	0.739343	-0.229435	-0.968699	-0.094777	0.708065	-0.232927	0.666625
05308	6.713521	-1.609408	10.763094	1.177424	-5.617222	-0.854654	-0.624961	0.081255	0.776416	-0.226436	-0.970679	-0.080680	0.747095	-0.226230	0.625035
05309	10.741405	-0.580931	11.748941	1.105189	-5.878347	-0.801438	-0.578067	0.075978	0.812444	-0.222828	-0.972511	-0.067599	0.784975	-0.220112	0.579107
05310	16.374773	-0.995881	14.012836	0.561515	-5.820657	-0.621851	-0.529957	0.069275	0.845190	-0.221813	-0.973284	-0.059309	0.818501	-0.218906	0.531165
05311	20.484327	-3.128786	14.653531	0.150868	-5.058486	-0.498884	-0.486727	0.063069	0.871274	-0.223132	-0.973281	-0.054196	0.844576	-0.220788	0.487795
05312	16.451063	-3.895356	11.753518	0.420873	-4.490328	-0.553841	-0.447021	0.058603	0.892602	-0.222157	-0.973862	-0.047320	0.866498	-0.219451	0.448355
05313	12.695311	-3.404856	11.501388	0.636524	-4.210310	-0.657695	-0.408627	0.055911	0.910987	-0.219428	-0.974865	-0.038594	0.885932	-0.215667	0.410625
05314	9.047924	-3.246012	10.623076	0.933918	-3.972588	-0.697220	-0.371517	0.054309	0.926836	-0.213830	-0.976455	-0.028496	0.903467	-0.208772	0.374383
05315	4.944187	-2.736284	9.950230	1.030387	-3.852265	-0.651483	-0.335001	0.052849	0.940735	-0.206775	-0.978210	-0.018680	0.919249	-0.200778	0.338629
05316	0.519021	-1.999994	8.026559	1.106967	-3.897254	-0.679765	-0.297455	0.051877	0.953325	-0.198703	-0.980021	-0.008669	0.933829	-0.192008	0.301821
05317	0.123419	-1.857446	7.933137	0.905001	-3.963716	-0.679241	-0.258837	0.051124	0.964567	-0.192117	-0.981372	0.000461	0.946623	-0.185191	0.263837
05318	-1.403978	0.554300	6.786133	0.528731	-3.987958	-0.994715	-0.218919	0.053593	0.974270	-0.189494	-0.981815	0.011428	0.957166	-0.182117	0.225093
05319	26.532583	-0.765227	13.602345	0.865012	-3.203542	-1.455760	-0.185400	0.062228	0.980691	-0.184157	-0.982511	0.027528	0.965253	-0.175497	0.193618
05320	15.049304	-1.025756	11.897399	1.092829	-0.588973	-0.899681	-0.178036	0.070099	0.981524	-0.175259	-0.983770	0.038469	0.968291	-0.165172	0.187432
05321	11.593907	-2.923653	10.253315	1.164562	1.215968	-0.883506	-0.188318	0.080795	0.978779	-0.165640	-0.984947	0.049435	0.968039	-0.152815	0.198866
05322	7.819587	-1.970874	9.516606	1.182721	2.520654	-0.719638	-0.211472	0.091596	0.973083	-0.155680	-0.986045	0.058983	0.964906	-0.139016	0.222781
05323	3.209671	-3.092495	6.119988	0.731145	3.057982	-0.576462	-0.240044	0.101441	0.965447	-0.149991	-0.986458	0.066356	0.959105	-0.128880	0.252009
05324	-0.094217	-3.311025	3.045630	0.711562	2.934512	-0.471508	-0.267351	0.109759	0.957328	-0.144420	-0.986834	0.072810	0.952715	-0.118791	0.279683
05325	-1.868215	-3.320858	1.293572	0.865969	2.422210	-0.390204	-0.289854	0.116411	0.949965	-0.137328	-0.987363	0.079092	0.947167	-0.107532	0.302177
05326	-0.521529	-2.632107	1.514764	0.888336	1.954737	-0.309342	-0.307859	0.121492	0.943643	-0.129895	-0.987894	0.084811	0.942523	-0.096465	0.319914
05327	0.429531	-2.643419	1.801570	0.632028	1.664315	-0.169382	-0.323338	0.124757	0.938024	-0.124538	-0.988259	0.088509	0.938053	-0.088201	0.335079
05328	0.738462	-2.601178	2.634988	0.369936	1.435503	0.015617	-0.336742	0.125862	0.933147	-0.121062	-0.988588	0.089653	0.933782	-0.082778	0.348137
05329	1.858055	-3.089088	3.482640	0.150162	1.209017	0.216161	-0.348315	0.124758	0.929038	-0.118976	-0.988972	0.088200	0.929796	-0.079812	0.359317
05330	3.873306	-3.551594	4.535661	-0.018699	1.148913	0.439733	-0.359445	0.121351	0.925242	-0.117631	-0.989492	0.084080	0.925722	-0.078615	0.369943
05331	5.894579	-4.168857	5.429780	-0.082808	1.288612	0.708290	-0.372224	0.115392	0.920942	-0.115860	-0.990257	0.077250	0.920883	-0.077946	0.381966
05332	7.311471	-4.277476	6.166014	-0.049628	1.602249	0.996799	-0.388019	0.106788	0.915444	-0.112565	-0.991320	0.067928	0.914751	-0.076690	0.396672
05333	7.152810	-4.379957	6.025327	0.010863	1.966679	1.264024	-0.407383	0.095773	0.908222	-0.107495	-0.992602	0.056454	0.906909	-0.074631	0.414664
05334	6.386456	-4.026650	5.693219	0.151036	2.227790	1.467326	-0.428962	0.082855	0.899515	-0.100035	-0.994017	0.043855	0.897767	-0.071171	0.434684
05335	5.603289	-3.220753	5.415604	0.258540	2.365358	1.602969	-0.451671	0.068570	0.889546	-0.090724	-0.995404	0.030664	0.887560	-0.066853	0.455816
05336	5.414310	-2.364044	5.512405	0.296852	2.408886	1.664232	-0.474300	0.053585	0.878731	-0.080441	-0.996608	0.017355	0.876681	-0.062455	0.477002
05337	5.794478	-1.644217	6.114120	0.301696	2.436231	1.646476	-0.496823	0.038664	0.866990	-0.069873	-0.997546	0.004446	0.865035	-0.058370	0.498305
05338	6.610990	-1.293559	6.899253	0.227955	2.543763	1.548982	-0.519629	0.024687	0.854035	-0.060084	-0.998164	-0.007705	0.852277	-0.055318	0.520158
05339	7.280596	-1.298648	7.508514	0.152501	2.735525	1.400235	-0.543598	0.012217	0.839257	-0.051404	-0.998502	-0.018760	0.837770	-0.053339	0.543412
05340	7.702714	-1.235908	8.035849	0.121066	2.989082	1.205583	-0.568926	0.001786	0.822387	-0.043736	-0.998648	-0.028087	0.821225	-0.051948	0.568235
05341	7.709874	-1.080417	8.135391	0.070524	3.249689	1.000968	-0.595787	-0.006508	0.803116	-0.037386	-0.998658	-0.035826	0.802272	-0.051370	0.594745
05342	7.267391	-0.744054	7.938944	0.010221	3.445456	0.780150	-0.623304	-0.012490	0.781880	-0.032593	-0.998589	-0.041934	0.781300	-0.051621	0.622017
05343	6.994937	-0.535125	7.808789	-0.105513	3.531224	0.547917	-0.650741	-0.016084	0.759129	-0.029966	-0.998453	-0.046843	0.758708	-0.053230	0.649252
05344	7.132664	-0.596943	7.980140	-0.251905	3.548619	0.336212	-0.677311	-0.017462	0.735489	-0.029660	-0.998257	-0.051014	0.735098	-0.056367	0.675613
05345	7.411247	-0.909487	8.168410	-0.395143	3.565076	0.158114	-0.703197	-0.016921	0.710794	-0.031475	-0.997996	-0.054897	0.710298	-0.060975	0.701255
05346	7.662478	-1.290093	8.331589	-0.508881	3.597422	0.034593	-0.728263	-0.014936	0.685135	-0.034822	-0.997664	-0.058763	0.684413	-0.066653	0.726042
05347	7.781484	-1.509923	8.595271	-0.602933	3.632532	-0.029233	-0.752687	-0.012076	0.658268	-0.039134	-0.997243	-0.063041	0.657215	-0.073211	0.750139
05348	7.799875	-1.622967	8.778937	-0.701339	3.638363	-0.043377	-0.776040	-0.008811	0.630622	-0.044023	-0.996707	-0.068100	0.629146	-0.080610	0.773096
05349	7.916097	-1.834167	8.933008	-0.795210	3.629299	-0.006595	-0.798405	-0.005642	0.602095	-0.049012	-0.996029	-0.074325	0.600123	-0.088851	0.794957
05350	8.100907	-1.678010	9.298021	-0.870441	3.592273	0.047198	-0.819430	-0.002728	0.573173	-0.053772	-0.995213	-0.081611	0.570652	-0.097695	0.815360
05351	8.298311	-1.533338	9.615028	-0.965442	3.561252	0.111253	-0.839330	-0.000154	0.543622	-0.058260	-0.994215	-0.090234	0.540491	-0.107407	0.834466
05352	8.402858	-0.977388	9.927862	-1.052081	3.524390	0.164198	-0.857915	0.002216	0.513787	-0.062439	-0.993029	-0.099977	0.509984	-0.117853	0.852073
05353	8.614753	-0.501405	10.084656	-1.180921	3.477977	0.192182	-0.875282	0.004639	0.483591	-0.066658	-0.991567	-0.111136	0.478997	-0.129510	0.868210
05354	8.775156	0.005168	10.252267	-1.307358	3.415439	0.183464	-0.891215	0.007494	0.453519	-0.071143	-0.989798	-0.123447	0.447967	-0.142283	0.882656
05355	9.147247	0.532759	10.506662	-1.419128	3.331099	0.128612	-0.905750	0.011222	0.423664	-0.076165	-0.987684	-0.136672	0.416912	-0.156059	0.895450
05356	9.682268	1.262281	10.636001	-1.487387	3.255147	0.010171	-0.918806	0.016463	0.394365	-0.082089	-0.985253	-0.150125	0.386078	-0.170309	0.906608
