// General information: 
//  MT Manager version: 2022.2.0 
//  XDA version: 2022.2.0 build 7381 rev 124627 built on 2023-07-19
// Device information: 
//  DeviceId: 00B4CBA7
//  ProductCode: MTW2-3A7G6
//  Firmware Version: 4.6.0
//  Hardware Version: 2.0.0
// Device settings: 
//  Filter Profile: human(46.1)
//  Option Flags: Orientation Smoother Disabled, Position/Velocity Smoother Disabled, Continuous Zero Rotation Update Disabled, AHS Disabled, ICC Disabled
// Coordinate system: ENU
PacketCounter	Acc_X	Acc_Y	Acc_Z	Gyr_X	Gyr_Y	Gyr_Z	Mat[1][1]	Mat[2][1]	Mat[3][1]	Mat[1][2]	Mat[2][2]	Mat[3][2]	Mat[1][3]	Mat[2][3]	Mat[3][3]
49640	9.463203	1.492742	-0.059311	-0.156758	0.031551	-0.001190	0.063969	0.156375	0.985624	0.086600	-0.984791	0.150622	0.994187	0.075720	-0.076538
49641	9.591736	1.440081	-0.072987	-0.156177	0.003922	-0.006857	0.063904	0.156476	0.985612	0.085042	-0.984892	0.150847	0.994326	0.074179	-0.076246
49642	9.691454	1.321150	-0.063853	-0.140335	-0.022133	-0.013384	0.064060	0.156710	0.985565	0.083623	-0.984963	0.151179	0.994436	0.072731	-0.076201
49643	9.688536	1.214973	-0.164686	-0.106016	-0.048716	-0.020706	0.064507	0.156986	0.985492	0.082572	-0.985002	0.151503	0.994495	0.071601	-0.076503
49644	9.618138	1.146116	-0.294537	-0.063521	-0.069435	-0.023538	0.065159	0.157360	0.985389	0.081762	-0.985009	0.151893	0.994520	0.070671	-0.077048
49645	9.621289	1.216697	-0.375884	-0.021197	-0.091841	-0.026323	0.066031	0.157720	0.985274	0.081559	-0.984978	0.152207	0.994479	0.070308	-0.077902
49646	9.571438	1.395725	-0.491076	-0.002425	-0.102733	-0.030808	0.067027	0.158210	0.985128	0.080970	-0.984954	0.152673	0.994460	0.069532	-0.078829
49647	9.599081	1.563750	-0.549307	-0.005991	-0.110958	-0.029067	0.068088	0.158610	0.984991	0.080920	-0.984907	0.153003	0.994392	0.069288	-0.079895
49648	9.637357	1.619444	-0.727322	-0.027540	-0.127338	-0.026848	0.069236	0.159087	0.984834	0.080385	-0.984882	0.153444	0.994356	0.068542	-0.080978
49649	9.606659	1.675571	-0.772174	-0.037736	-0.133018	-0.028579	0.070516	0.159497	0.984677	0.080020	-0.984857	0.153795	0.994296	0.067949	-0.082211
49650	9.579146	1.603867	-0.846251	-0.049458	-0.133339	-0.031193	0.071669	0.160016	0.984509	0.079464	-0.984826	0.154283	0.994258	0.067176	-0.083297
49651	9.603471	1.544598	-0.947032	-0.047767	-0.130140	-0.032015	0.072918	0.160455	0.984346	0.079003	-0.984801	0.154677	0.994204	0.066487	-0.084486
49652	9.600788	1.570168	-0.994860	-0.029782	-0.128935	-0.030871	0.074054	0.160958	0.984179	0.078766	-0.984750	0.155124	0.994139	0.066032	-0.085603
49653	9.613528	1.644834	-1.012542	-0.032798	-0.125198	-0.027546	0.075257	0.161349	0.984024	0.078451	-0.984722	0.155463	0.994073	0.065498	-0.086765
49654	9.613633	1.701555	-0.973891	-0.046506	-0.118424	-0.025587	0.076353	0.161775	0.983869	0.077853	-0.984705	0.155870	0.994037	0.064696	-0.087780
49655	9.646528	1.674958	-0.953697	-0.073070	-0.117038	-0.020496	0.077481	0.162089	0.983730	0.077133	-0.984713	0.156176	0.994006	0.063777	-0.088799
49656	9.621357	1.732730	-0.961603	-0.090733	-0.108020	-0.023357	0.078536	0.162482	0.983581	0.075939	-0.984737	0.156609	0.994015	0.062392	-0.089676
49657	9.647310	1.727002	-1.009461	-0.118300	-0.103095	-0.017670	0.079528	0.162757	0.983456	0.074767	-0.984776	0.156929	0.994025	0.061050	-0.090486
49658	9.626880	1.634286	-1.009306	-0.139084	-0.099008	-0.012027	0.080473	0.163020	0.983335	0.073275	-0.984833	0.157272	0.994060	0.059398	-0.091198
49659	9.633796	1.532903	-1.048475	-0.141657	-0.097023	-0.014108	0.081407	0.163254	0.983220	0.071868	-0.984888	0.157580	0.994086	0.057834	-0.091910
49660	9.623045	1.487862	-1.051775	-0.128067	-0.091818	-0.012439	0.082332	0.163527	0.983097	0.070043	-0.984957	0.157970	0.994141	0.055853	-0.092548
49661	9.630674	1.462554	-1.076649	-0.119004	-0.089414	-0.018837	0.083188	0.163800	0.982980	0.068865	-0.984986	0.158306	0.994152	0.054524	-0.093220
49662	9.669639	1.535571	-1.040903	-0.120300	-0.089376	-0.014688	0.084039	0.164095	0.982858	0.067269	-0.985032	0.158706	0.994189	0.052778	-0.093820
49663	9.668464	1.538590	-1.047340	-0.128028	-0.083244	-0.020941	0.084833	0.164382	0.982742	0.066004	-0.985058	0.159072	0.994207	0.051370	-0.094416
49664	9.644202	1.498426	-1.030058	-0.137195	-0.085686	-0.021370	0.085589	0.164756	0.982614	0.064592	-0.985076	0.159542	0.994235	0.049814	-0.094953
49665	9.644466	1.479363	-1.000622	-0.135207	-0.085946	-0.024128	0.086408	0.165074	0.982489	0.063259	-0.985096	0.159948	0.994249	0.048330	-0.095563
49666	9.613003	1.444719	-0.929746	-0.127614	-0.085133	-0.026341	0.087217	0.165464	0.982352	0.061690	-0.985114	0.160452	0.994277	0.046607	-0.096127
49667	9.551525	1.463696	-0.890490	-0.110719	-0.087098	-0.030014	0.088045	0.165838	0.982215	0.060606	-0.985109	0.160894	0.994271	0.045362	-0.096785
49668	9.556564	1.468873	-0.863640	-0.100467	-0.093445	-0.035485	0.088930	0.166317	0.982054	0.059353	-0.985093	0.161457	0.994268	0.043929	-0.097475
49669	9.556850	1.450319	-0.835822	-0.084383	-0.097060	-0.037051	0.089853	0.166762	0.981894	0.058537	-0.985062	0.161944	0.994233	0.042926	-0.098273
49670	9.557801	1.507592	-0.793492	-0.076655	-0.101392	-0.041178	0.090784	0.167316	0.981715	0.057604	-0.985017	0.162552	0.994203	0.041794	-0.099062
49671	9.542880	1.516244	-0.782626	-0.055696	-0.110704	-0.045431	0.091839	0.167848	0.981526	0.057082	-0.984958	0.163094	0.994136	0.041049	-0.100039
49672	9.557075	1.570055	-0.761980	-0.050186	-0.116500	-0.050163	0.092914	0.168463	0.981319	0.056596	-0.984883	0.163717	0.994064	0.040327	-0.101043
49673	9.541949	1.579326	-0.752815	-0.047860	-0.127169	-0.053303	0.094128	0.169078	0.981098	0.056160	-0.984806	0.164329	0.993975	0.039631	-0.102193
49674	9.515510	1.564071	-0.776893	-0.043390	-0.136306	-0.059286	0.095480	0.169788	0.980844	0.055279	-0.984730	0.165079	0.993895	0.038458	-0.103408
49675	9.535920	1.619851	-0.725174	-0.051495	-0.149351	-0.058682	0.096912	0.170461	0.980587	0.054814	-0.984643	0.165749	0.993782	0.037687	-0.104768
49676	9.504144	1.499257	-0.852888	-0.047674	-0.160332	-0.055680	0.098365	0.171171	0.980319	0.054335	-0.984550	0.166458	0.993666	0.036892	-0.106146
49677	9.583713	1.464745	-0.865203	-0.027647	-0.164281	-0.062906	0.099944	0.171889	0.980033	0.054114	-0.984446	0.167145	0.993520	0.036328	-0.107691
49678	9.566125	1.567491	-0.968990	0.000255	-0.174497	-0.060556	0.101588	0.172625	0.979735	0.054276	-0.984325	0.167806	0.993345	0.036129	-0.109365
49679	9.583482	1.640435	-1.044695	0.009468	-0.177276	-0.065503	0.103294	0.173372	0.979425	0.054428	-0.984202	0.168478	0.993161	0.035905	-0.111098
49680	9.580985	1.722323	-1.046488	0.003858	-0.178475	-0.065980	0.104947	0.174192	0.979103	0.054376	-0.984072	0.169248	0.992990	0.035478	-0.112748
49681	9.539503	1.705593	-1.143104	-0.012552	-0.178511	-0.064123	0.106665	0.174925	0.978787	0.054310	-0.983958	0.169931	0.992811	0.035032	-0.114454
49682	9.549016	1.632549	-1.195463	-0.011151	-0.176953	-0.068311	0.108357	0.175737	0.978456	0.053884	-0.983842	0.170737	0.992651	0.034222	-0.116076
49683	9.557827	1.629554	-1.320084	-0.000336	-0.171275	-0.068796	0.110000	0.176511	0.978133	0.053946	-0.983714	0.171452	0.992467	0.033907	-0.117731
49684	9.593520	1.624609	-1.397541	0.004790	-0.175432	-0.068125	0.111657	0.177310	0.977801	0.053867	-0.983587	0.172208	0.992286	0.033443	-0.119375
49685	9.581431	1.659029	-1.395251	0.002246	-0.164727	-0.071790	0.113233	0.178110	0.977474	0.053961	-0.983452	0.172948	0.992102	0.033163	-0.120970
49686	9.579584	1.712691	-1.448040	0.001787	-0.163051	-0.069754	0.114790	0.178916	0.977145	0.053786	-0.983324	0.173729	0.991933	0.032614	-0.122499
49687	9.557438	1.768812	-1.513695	-0.006208	-0.155371	-0.063538	0.116277	0.179631	0.976838	0.053789	-0.983205	0.174399	0.991759	0.032264	-0.123986
49688	9.579869	1.767412	-1.568634	-0.014877	-0.145789	-0.062156	0.117627	0.180359	0.976542	0.053462	-0.983093	0.175129	0.991618	0.031608	-0.125281
49689	9.557698	1.823138	-1.632163	-0.018551	-0.135036	-0.058236	0.118915	0.181013	0.976265	0.053338	-0.982987	0.175763	0.991471	0.031171	-0.126546
49690	9.575905	1.797532	-1.683238	-0.022186	-0.122479	-0.057804	0.120128	0.181662	0.975996	0.052737	-0.982895	0.176455	0.991357	0.030274	-0.127654
49691	9.543934	1.758206	-1.703853	-0.015335	-0.107549	-0.057824	0.121144	0.182302	0.975751	0.052646	-0.982787	0.177081	0.991238	0.029917	-0.128656
49692	9.511403	1.823015	-1.655162	-0.007606	-0.090970	-0.056562	0.121987	0.182962	0.975523	0.052315	-0.982682	0.177762	0.991152	0.029350	-0.129446
49693	9.508930	1.828528	-1.663271	-0.006834	-0.082342	-0.056855	0.122753	0.183584	0.975310	0.052308	-0.982573	0.178367	0.991058	0.029122	-0.130217
49694	9.533482	1.785244	-1.586425	-0.004145	-0.068704	-0.054634	0.123385	0.184219	0.975110	0.052108	-0.982465	0.179016	0.990990	0.028723	-0.130821
49695	9.501577	1.698122	-1.565445	-0.001346	-0.062086	-0.050828	0.123953	0.184776	0.974932	0.052148	-0.982365	0.179555	0.990917	0.028585	-0.131403
49696	9.508243	1.599706	-1.605283	0.016410	-0.053459	-0.055206	0.124506	0.185367	0.974750	0.051813	-0.982268	0.180178	0.990865	0.028071	-0.131902
49697	9.548220	1.570571	-1.636327	0.051738	-0.039707	-0.060428	0.124848	0.186011	0.974583	0.052392	-0.982134	0.180741	0.990792	0.028495	-0.132362
49698	9.544822	1.632785	-1.536086	0.091303	-0.033447	-0.062841	0.125125	0.186695	0.974417	0.053112	-0.981988	0.181325	0.990718	0.029065	-0.132787
49699	9.531276	1.839083	-1.526531	0.109456	-0.023218	-0.060439	0.125302	0.187335	0.974271	0.054263	-0.981835	0.181810	0.990634	0.030086	-0.133192
49700	9.551830	2.009490	-1.576216	0.090666	-0.016142	-0.048272	0.125409	0.187875	0.974154	0.054949	-0.981714	0.182259	0.990582	0.030672	-0.133439
49701	9.542100	2.040618	-1.560289	0.056886	-0.010814	-0.047129	0.125470	0.188381	0.974048	0.055562	-0.981600	0.182684	0.990540	0.031199	-0.133628
49702	9.551585	1.958453	-1.685074	0.027937	-0.000831	-0.038101	0.125292	0.188860	0.973978	0.056063	-0.981493	0.183105	0.990535	0.031662	-0.133562
49703	9.561640	1.800394	-1.823417	0.018806	0.012382	-0.038189	0.125128	0.189270	0.973920	0.056288	-0.981408	0.183494	0.990543	0.031860	-0.133455
49704	9.549093	1.655796	-1.831529	0.045233	0.032292	-0.038515	0.124759	0.189697	0.973884	0.056631	-0.981314	0.183890	0.990570	0.032210	-0.133171
49705	9.542348	1.703683	-1.899606	0.080484	0.049463	-0.034972	0.124229	0.190064	0.973880	0.057462	-0.981214	0.184166	0.990588	0.033083	-0.132817
49706	9.532532	1.913724	-1.794632	0.093783	0.069008	-0.036834	0.123449	0.190487	0.973897	0.058166	-0.981105	0.184524	0.990645	0.033869	-0.132196
49707	9.540437	1.992519	-1.740454	0.070443	0.081894	-0.030902	0.122599	0.190802	0.973943	0.058893	-0.981015	0.184774	0.990707	0.034705	-0.131508
49708	9.557651	1.967828	-1.717788	0.026738	0.096952	-0.024296	0.121618	0.191057	0.974016	0.058988	-0.980956	0.185054	0.990823	0.034949	-0.130572
49709	9.564045	1.831191	-1.562573	-0.004843	0.103768	-0.022674	0.120555	0.191283	0.974103	0.058958	-0.980907	0.185323	0.990954	0.035089	-0.129531
49710	9.500104	1.805843	-1.412891	-0.020331	0.107132	-0.022907	0.119382	0.191546	0.974196	0.058704	-0.980859	0.185662	0.991111	0.035025	-0.128341
49711	9.525465	1.818337	-1.213520	-0.012549	0.107980	-0.018411	0.118280	0.191728	0.974295	0.058592	-0.980820	0.185899	0.991250	0.035098	-0.127245
49712	9.467841	1.869298	-1.015643	-0.022922	0.096783	-0.012847	0.117153	0.191919	0.974393	0.058591	-0.980776	0.186132	0.991384	0.035285	-0.126145
49713	9.462932	1.875941	-0.952391	-0.040465	0.084664	-0.013865	0.116284	0.192065	0.974469	0.058197	-0.980756	0.186360	0.991510	0.035040	-0.125224
49714	9.442736	1.757908	-0.935082	-0.052668	0.072008	-0.017803	0.115512	0.192301	0.974514	0.057468	-0.980732	0.186716	0.991642	0.034436	-0.124338
49715	9.468583	1.630080	-0.946648	-0.039083	0.054866	-0.018365	0.114936	0.192502	0.974542	0.057092	-0.980702	0.186986	0.991731	0.034147	-0.123709
49716	9.473463	1.580489	-0.958237	-0.002153	0.047524	-0.022798	0.114491	0.192742	0.974547	0.056654	-0.980668	0.187297	0.991807	0.033768	-0.123198
49717	9.498694	1.651242	-0.980762	0.040167	0.025735	-0.033771	0.114196	0.193104	0.974510	0.057081	-0.980582	0.187618	0.991817	0.034201	-0.123001
49718	9.491966	1.734792	-0.910387	0.069994	0.022610	-0.036036	0.113813	0.193535	0.974469	0.057942	-0.980466	0.187959	0.991811	0.035070	-0.122803
49719	9.502109	1.838763	-0.863485	0.087165	0.008618	-0.040239	0.113683	0.193967	0.974399	0.058842	-0.980350	0.188286	0.991773	0.035931	-0.122862
49720	9.534623	1.835719	-0.871841	0.098419	-0.003030	-0.042946	0.113590	0.194477	0.974308	0.059846	-0.980214	0.188678	0.991724	0.036877	-0.122981
49721	9.528897	1.890717	-0.858163	0.108772	-0.018096	-0.043438	0.113722	0.194949	0.974198	0.060964	-0.980081	0.189010	0.991640	0.037897	-0.123342
49722	9.544876	1.914288	-0.884907	0.120498	-0.031543	-0.048138	0.113891	0.195502	0.974068	0.062255	-0.979925	0.189398	0.991541	0.039070	-0.123776
49723	9.575332	2.027010	-1.008507	0.126529	-0.042712	-0.044494	0.114265	0.195995	0.973925	0.063551	-0.979780	0.189717	0.991416	0.040216	-0.124410
49724	9.613017	1.981845	-1.216052	0.128669	-0.044775	-0.036938	0.114515	0.196455	0.973803	0.065007	-0.979632	0.189987	0.991292	0.041547	-0.124953
49725	9.601206	2.004228	-1.292574	0.134785	-0.049004	-0.028061	0.114960	0.196791	0.973682	0.066365	-0.979513	0.190134	0.991151	0.042761	-0.125665
49726	9.572469	2.005668	-1.346712	0.139014	-0.040801	-0.025084	0.115272	0.197100	0.973583	0.067774	-0.979393	0.190252	0.991019	0.044053	-0.126255
49727	9.521017	2.114512	-1.347556	0.131032	-0.038269	-0.024217	0.115613	0.197394	0.973483	0.069091	-0.979279	0.190364	0.990889	0.045250	-0.126855
49728	9.512918	2.150149	-1.247566	0.100710	-0.035105	-0.016441	0.115914	0.197603	0.973405	0.069952	-0.979202	0.190449	0.990793	0.046016	-0.127326
49729	9.460420	2.166040	-1.171692	0.068336	-0.040418	-0.007566	0.116287	0.197735	0.973333	0.070628	-0.979147	0.190478	0.990701	0.046594	-0.127828
49730	9.493596	2.074738	-1.020407	0.037039	-0.047567	-0.002761	0.116669	0.197867	0.973261	0.071010	-0.979107	0.190544	0.990629	0.046881	-0.128282
49731	9.514322	1.996079	-1.026593	0.025622	-0.056838	0.006934	0.117214	0.197866	0.973196	0.071246	-0.979101	0.190486	0.990548	0.047008	-0.128862
49732	9.523601	1.891268	-1.065121	0.026097	-0.067372	0.006668	0.117810	0.197904	0.973116	0.071386	-0.979093	0.190477	0.990467	0.047027	-0.129475
49733	9.466796	1.845073	-1.128542	0.049454	-0.073377	0.002664	0.118516	0.197953	0.973020	0.071863	-0.979067	0.190430	0.990348	0.047355	-0.130261
49734	9.470017	1.867952	-1.139094	0.079984	-0.078424	0.005218	0.119336	0.197977	0.972915	0.072320	-0.979048	0.190354	0.990217	0.047645	-0.131153
49735	9.449919	1.960563	-1.237916	0.087030	-0.087951	0.013602	0.120194	0.197926	0.972820	0.073155	-0.979026	0.190150	0.990051	0.048312	-0.132152
49736	9.416374	2.010701	-1.278595	0.075676	-0.083274	0.011079	0.121019	0.197900	0.972723	0.073533	-0.979020	0.190032	0.989923	0.048530	-0.133032
49737	9.468097	1.962545	-1.421268	0.056193	-0.088186	0.014757	0.121880	0.197838	0.972628	0.074062	-0.979015	0.189856	0.989778	0.048895	-0.133975
49738	9.483509	1.934373	-1.414998	0.030082	-0.088880	0.015080	0.122672	0.197799	0.972536	0.074309	-0.979018	0.189744	0.989661	0.048992	-0.134797
49739	9.461691	1.820871	-1.589679	0.020016	-0.079068	0.017093	0.123445	0.197710	0.972457	0.074476	-0.979034	0.189593	0.989553	0.049020	-0.135581
49740	9.573814	1.720253	-1.652909	0.030644	-0.073253	0.013007	0.124133	0.197659	0.972379	0.074741	-0.979038	0.189471	0.989447	0.049157	-0.136304
49741	9.454430	1.755314	-1.741373	0.073989	-0.053517	0.008419	0.124646	0.197643	0.972317	0.075453	-0.979010	0.189331	0.989328	0.049764	-0.136943
49742	9.540507	1.906426	-1.811755	0.085479	-0.047799	0.009098	0.124998	0.197652	0.972270	0.076470	-0.978960	0.189181	0.989206	0.050702	-0.137482
49743	9.566453	1.865944	-1.909532	0.084867	-0.028527	0.004148	0.125261	0.197666	0.972234	0.077294	-0.978918	0.189066	0.989108	0.051466	-0.137898
49744	9.619503	1.977407	-1.931672	0.075215	-0.006486	0.007649	0.125216	0.197660	0.972240	0.078197	-0.978871	0.188937	0.989043	0.052369	-0.138026
49745	9.611025	1.835164	-1.851537	0.051389	0.006651	0.018961	0.125142	0.197511	0.972280	0.078672	-0.978874	0.188724	0.989015	0.052874	-0.138037
49746	9.567634	1.614782	-1.863531	0.056392	0.018327	0.016175	0.124820	0.197429	0.972338	0.079325	-0.978851	0.188568	0.989003	0.053594	-0.137842
49747	9.495451	1.615562	-1.704039	0.087096	0.028880	0.006265	0.124516	0.197392	0.972385	0.080169	-0.978809	0.188430	0.988974	0.054492	-0.137703
49748	9.567419	1.739129	-1.567172	0.110966	0.033222	0.010633	0.124122	0.197334	0.972447	0.081194	-0.978759	0.188251	0.988940	0.055591	-0.137507
49749	9.586909	1.840702	-1.487687	0.116559	0.043050	0.009276	0.123680	0.197259	0.972518	0.082325	-0.978704	0.188044	0.988901	0.056805	-0.137286
49750	9.521367	1.850922	-1.471145	0.103727	0.046180	0.007565	0.123162	0.197226	0.972591	0.083240	-0.978652	0.187914	0.988889	0.057815	-0.136950
49751	9.544334	1.740061	-1.519817	0.116863	0.048160	0.005606	0.122667	0.197183	0.972662	0.084379	-0.978587	0.187743	0.988854	0.059042	-0.136679
49752	9.488167	1.646083	-1.533752	0.139596	0.050785	0.001885	0.122063	0.197189	0.972737	0.085678	-0.978500	0.187606	0.988817	0.060443	-0.136334
49753	9.476201	1.647883	-1.510999	0.177657	0.055160	0.000260	0.121494	0.197193	0.972807	0.087425	-0.978385	0.187405	0.988735	0.062279	-0.136108
49754	9.546156	1.808630	-1.500363	0.204662	0.058976	-0.002285	0.120866	0.197224	0.972879	0.089264	-0.978253	0.187223	0.988647	0.064214	-0.135843
49755	9.503793	1.992550	-1.448831	0.202542	0.062657	0.005858	0.120228	0.197165	0.972970	0.091249	-0.978125	0.186934	0.988544	0.066308	-0.135589
49756	9.557662	2.057211	-1.428306	0.178078	0.058324	0.003556	0.119589	0.197140	0.973054	0.093017	-0.978002	0.186710	0.988456	0.068182	-0.135296
49757	9.583181	1.954608	-1.388332	0.151319	0.063126	0.011137	0.118952	0.197027	0.973155	0.094489	-0.977912	0.186441	0.988394	0.069775	-0.134941
49758	9.598470	1.794491	-1.429393	0.152070	0.064689	0.008979	0.118168	0.196970	0.973262	0.096081	-0.977798	0.186222	0.988334	0.071506	-0.134469
49759	9.476168	1.833615	-1.455376	0.164876	0.059702	0.014305	0.117567	0.196826	0.973364	0.097683	-0.977700	0.185905	0.988249	0.073225	-0.134172
49760	9.500420	1.882636	-1.391360	0.176032	0.058418	0.022239	0.116925	0.196620	0.973483	0.099277	-0.977611	0.185529	0.988166	0.074951	-0.133827
49761	9.516594	2.004912	-1.349708	0.173221	0.056927	0.023807	0.116362	0.196383	0.973598	0.100950	-0.977519	0.185109	0.988063	0.076745	-0.133571
49762	9.504353	2.081253	-1.315781	0.148101	0.058107	0.028726	0.115679	0.196121	0.973732	0.102531	-0.977435	0.184686	0.987981	0.078474	-0.133177
49763	9.406101	2.095939	-1.292991	0.123993	0.054011	0.036648	0.115158	0.195760	0.973867	0.103704	-0.977401	0.184208	0.987919	0.079780	-0.132857
49764	9.439162	1.994493	-1.218200	0.088532	0.046044	0.043794	0.114535	0.195379	0.974017	0.104931	-0.977364	0.183712	0.987862	0.081164	-0.132444
49765	9.469401	1.837583	-1.191114	0.078634	0.041982	0.045738	0.114144	0.194937	0.974151	0.105645	-0.977382	0.183205	0.987831	0.082003	-0.132156
49766	9.471207	1.755966	-1.200258	0.085296	0.032410	0.044029	0.113810	0.194522	0.974273	0.106356	-0.977395	0.182721	0.987793	0.082824	-0.131926
49767	9.502365	1.764996	-1.242187	0.098874	0.030753	0.043689	0.113528	0.194109	0.974389	0.107272	-0.977391	0.182208	0.987727	0.083839	-0.131783
49768	9.515972	1.831092	-1.250330	0.101363	0.026966	0.045900	0.113245	0.193693	0.974504	0.108201	-0.977385	0.181692	0.987658	0.084867	-0.131642
49769	9.476110	1.905639	-1.265682	0.083074	0.022149	0.045415	0.113050	0.193270	0.974611	0.108960	-0.977395	0.181183	0.987597	0.085711	-0.131553
49770	9.594438	1.822855	-1.319163	0.054565	0.016905	0.048715	0.112897	0.192823	0.974717	0.109214	-0.977453	0.180715	0.987586	0.086051	-0.131411
49771	9.526422	1.775157	-1.352372	0.047765	0.024724	0.050519	0.112683	0.192348	0.974836	0.109618	-0.977502	0.180203	0.987566	0.086554	-0.131233
49772	9.433561	1.781983	-1.385062	0.032415	0.014360	0.050274	0.112422	0.191931	0.974948	0.110205	-0.977523	0.179730	0.987530	0.087239	-0.131047
49773	9.647134	1.655427	-1.454732	0.020672	0.015683	0.044388	0.112291	0.191523	0.975043	0.110349	-0.977584	0.179314	0.987529	0.087460	-0.130908
49774	9.615249	1.581284	-1.456995	0.027519	0.032216	0.040407	0.112009	0.191150	0.975149	0.110295	-0.977652	0.178972	0.987567	0.087507	-0.130589
49775	9.455583	1.679821	-1.464436	0.019217	0.027802	0.029268	0.111741	0.190879	0.975233	0.110441	-0.977685	0.178705	0.987581	0.087737	-0.130329
49776	9.524754	1.597943	-1.398781	0.003853	0.024472	0.030646	0.111481	0.190613	0.975315	0.110280	-0.977743	0.178483	0.987629	0.087661	-0.130021
49777	9.619702	1.506503	-1.373323	0.023723	0.027106	0.021618	0.111212	0.190418	0.975384	0.110480	-0.977757	0.178284	0.987637	0.087933	-0.129776
49778	9.661900	1.621631	-1.373042	0.033526	0.031036	0.016262	0.110816	0.190298	0.975452	0.110724	-0.977751	0.178168	0.987654	0.088262	-0.129421
49779	9.557030	1.724775	-1.286389	0.034331	0.034321	0.010540	0.110463	0.190204	0.975510	0.111040	-0.977734	0.178064	0.987658	0.088651	-0.129124
49780	9.389901	1.865834	-1.189836	0.016032	0.029587	0.010027	0.110072	0.190153	0.975564	0.111234	-0.977719	0.178022	0.987680	0.088920	-0.128771
49781	9.384211	1.950044	-1.124183	-0.009107	-0.000686	-0.003798	0.110049	0.190230	0.975552	0.111137	-0.977714	0.178115	0.987693	0.088818	-0.128738
49782	9.812515	1.575708	-1.110310	-0.043044	0.003510	-0.003013	0.109881	0.190332	0.975551	0.110848	-0.977718	0.178269	0.987744	0.088549	-0.128530
49783	9.408968	1.435745	-1.009018	-0.008525	0.015223	0.013055	0.109719	0.190230	0.975589	0.110738	-0.977744	0.178196	0.987775	0.088483	-0.128342
49784	9.390254	1.524143	-0.924324	0.024240	-0.008084	0.007997	0.109673	0.190233	0.975594	0.111035	-0.977716	0.178165	0.987747	0.088785	-0.128351
49785	9.444905	1.602779	-0.821378	0.042222	-0.024507	-0.006646	0.109882	0.190360	0.975546	0.111448	-0.977659	0.178219	0.987677	0.089139	-0.128642
49786	9.459892	1.807041	-0.776663	0.031899	-0.045990	-0.011170	0.110259	0.190559	0.975464	0.111711	-0.977605	0.178350	0.987605	0.089305	-0.129077
49787	9.470935	1.758592	-0.762766	0.009604	-0.071212	-0.014394	0.110920	0.190803	0.975342	0.111810	-0.977563	0.178521	0.987520	0.089252	-0.129765
49788	9.453262	1.588086	-0.768392	0.017998	-0.084492	-0.015198	0.111647	0.191084	0.975203	0.111865	-0.977518	0.178731	0.987432	0.089137	-0.130512
49789	9.445038	1.510160	-0.822286	0.049050	-0.109492	-0.026291	0.112672	0.191479	0.975008	0.112367	-0.977417	0.178966	0.987258	0.089395	-0.131644
49790	9.454135	1.494839	-0.764358	0.080482	-0.132706	-0.030646	0.113792	0.191963	0.974783	0.113235	-0.977268	0.179234	0.987031	0.089984	-0.132942
49791	9.482254	1.587878	-0.812185	0.105197	-0.151768	-0.041915	0.115215	0.192549	0.974500	0.114309	-0.977086	0.179545	0.986741	0.090708	-0.134586
49792	9.485577	1.582871	-0.883160	0.120848	-0.174865	-0.046439	0.116835	0.193199	0.974178	0.115392	-0.976894	0.179899	0.986425	0.091394	-0.136430
49793	9.504344	1.628981	-0.929411	0.133410	-0.194134	-0.051097	0.118664	0.193916	0.973815	0.116757	-0.976665	0.180257	0.986046	0.092310	-0.138536
49794	9.462255	1.724862	-1.057733	0.135361	-0.208658	-0.057057	0.120612	0.194706	0.973418	0.117910	-0.976445	0.180701	0.985672	0.092981	-0.140729
49795	9.480885	1.739257	-1.157619	0.132134	-0.220758	-0.060230	0.122689	0.195539	0.972991	0.119274	-0.976197	0.181144	0.985252	0.093828	-0.143092
49796	9.462629	1.825236	-1.328792	0.132465	-0.229910	-0.067154	0.124736	0.196466	0.972544	0.120740	-0.975920	0.181662	0.984816	0.094765	-0.145454
49797	9.463483	1.865298	-1.447277	0.117416	-0.238674	-0.063887	0.126982	0.197355	0.972073	0.121965	-0.975676	0.182155	0.984378	0.095429	-0.147964
49798	9.492870	1.874425	-1.569408	0.093212	-0.235703	-0.057605	0.129176	0.198186	0.971615	0.122803	-0.975479	0.182647	0.983988	0.095723	-0.150346
49799	9.501030	1.796649	-1.623541	0.090564	-0.235520	-0.056106	0.131396	0.198998	0.971151	0.123756	-0.975274	0.183099	0.983575	0.096127	-0.152775
49800	9.500250	1.868357	-1.691317	0.095876	-0.229379	-0.057415	0.133572	0.199797	0.970690	0.124553	-0.975085	0.183562	0.983181	0.096384	-0.155129
49801	9.462084	1.966677	-1.788206	0.087029	-0.223053	-0.052642	0.135671	0.200565	0.970241	0.125469	-0.974889	0.183981	0.982777	0.096774	-0.157429
49802	9.490131	1.952122	-1.727490	0.058424	-0.223016	-0.047239	0.137702	0.201280	0.969806	0.126071	-0.974732	0.184402	0.982418	0.096872	-0.159598
49803	9.469650	1.849222	-1.644359	0.034527	-0.221923	-0.046218	0.139796	0.201985	0.969360	0.126463	-0.974598	0.184838	0.982071	0.096749	-0.161789
49804	9.458037	1.750080	-1.527762	0.035596	-0.227391	-0.043103	0.141944	0.202657	0.968908	0.126643	-0.974493	0.185272	0.981740	0.096407	-0.163989
49805	9.381524	1.653145	-1.306037	0.048135	-0.238110	-0.049775	0.144191	0.203411	0.968418	0.127176	-0.974338	0.185719	0.981344	0.096380	-0.166360
49806	9.346274	1.674140	-1.091320	0.057812	-0.262379	-0.049150	0.146631	0.204164	0.967893	0.127567	-0.974201	0.186169	0.980931	0.096173	-0.168892
49807	9.336592	1.717598	-0.870156	0.053076	-0.295450	-0.047166	0.149440	0.204947	0.967298	0.128147	-0.974047	0.186579	0.980432	0.096074	-0.171825
49808	9.270252	1.745692	-0.653308	0.043285	-0.335273	-0.052653	0.152730	0.205763	0.966610	0.128007	-0.973965	0.187103	0.979943	0.095157	-0.175093
49809	9.233568	1.711228	-0.494246	0.034880	-0.384180	-0.056816	0.156393	0.206720	0.965820	0.128426	-0.973807	0.187634	0.979310	0.094692	-0.178845
49810	9.240669	1.676821	-0.458926	0.036145	-0.436457	-0.068086	0.160634	0.207777	0.964897	0.128462	-0.973677	0.188281	0.978618	0.093709	-0.183097
49811	9.269862	1.674762	-0.366545	0.048147	-0.495428	-0.074618	0.165357	0.209006	0.963833	0.129045	-0.973470	0.188956	0.977755	0.093133	-0.187941
49812	9.283865	1.656501	-0.399404	0.077397	-0.538983	-0.079176	0.170439	0.210323	0.962660	0.129901	-0.973224	0.189632	0.976768	0.092730	-0.193196
49813	9.359973	1.705138	-0.734379	0.102219	-0.594292	-0.073661	0.176117	0.211629	0.961351	0.131017	-0.972967	0.190184	0.975611	0.092458	-0.199083
49814	9.379941	1.751758	-1.132222	0.119922	-0.635216	-0.080478	0.182234	0.212976	0.959913	0.131956	-0.972726	0.190767	0.974361	0.091902	-0.205367
49815	9.326291	1.710749	-1.520298	0.131689	-0.650919	-0.093656	0.188420	0.214524	0.958372	0.133402	-0.972397	0.191435	0.972986	0.091779	-0.211837
49816	9.229762	1.686297	-1.990494	0.146279	-0.663246	-0.099743	0.194735	0.216085	0.956758	0.134736	-0.972078	0.192121	0.971558	0.091497	-0.218412
49817	9.256085	1.720899	-2.435674	0.172599	-0.666396	-0.106079	0.201033	0.217766	0.955073	0.136613	-0.971682	0.192797	0.970012	0.091716	-0.225090
49818	9.244035	1.702437	-2.772811	0.196694	-0.652851	-0.104711	0.207292	0.219315	0.953379	0.138231	-0.971335	0.193390	0.968464	0.091698	-0.231666
49819	9.223458	1.830692	-2.980056	0.226266	-0.632673	-0.101668	0.213245	0.220924	0.951693	0.140626	-0.970895	0.193872	0.966825	0.092491	-0.238106
49820	9.219227	1.933022	-3.170741	0.225225	-0.616179	-0.106908	0.219134	0.222449	0.949998	0.142424	-0.970527	0.194404	0.965244	0.092702	-0.244357
49821	9.217980	1.991433	-3.318885	0.214953	-0.594062	-0.096000	0.224697	0.223973	0.948339	0.144702	-0.970105	0.194828	0.963625	0.093449	-0.250389
49822	9.259889	1.960094	-3.504468	0.217494	-0.560987	-0.089949	0.230158	0.225207	0.946736	0.146105	-0.969824	0.195180	0.962123	0.093400	-0.256117
49823	9.294281	1.956984	-3.670272	0.214085	-0.521663	-0.086029	0.235019	0.226570	0.945215	0.148356	-0.969421	0.195485	0.960602	0.094286	-0.261445
49824	9.374405	1.964904	-3.869663	0.224812	-0.482293	-0.085581	0.239579	0.227781	0.943778	0.150245	-0.969077	0.195747	0.959181	0.094901	-0.266393
49825	9.355015	1.966914	-4.028812	0.235265	-0.431662	-0.082069	0.243564	0.229028	0.942456	0.152691	-0.968656	0.195934	0.957790	0.096182	-0.270900
49826	9.327346	1.895981	-4.169201	0.250246	-0.381165	-0.074266	0.247262	0.229956	0.941266	0.154487	-0.968360	0.195993	0.956554	0.096952	-0.274964
49827	9.248109	1.917513	-4.243421	0.280977	-0.325515	-0.071402	0.250234	0.231005	0.940223	0.157344	-0.967912	0.195932	0.955314	0.098910	-0.278552
49828	9.247327	2.094194	-4.235694	0.294508	-0.271088	-0.066800	0.252784	0.231859	0.939330	0.159961	-0.967516	0.195769	0.954208	0.100769	-0.281661
49829	9.231980	2.215605	-4.134710	0.286687	-0.227832	-0.053496	0.254842	0.232647	0.938579	0.162825	-0.967092	0.195505	0.953175	0.103001	-0.284337
49830	9.305856	2.337102	-4.100352	0.247584	-0.182820	-0.049593	0.256547	0.233291	0.937955	0.165068	-0.966752	0.195305	0.952332	0.104722	-0.286526
49831	9.362800	2.292353	-3.914812	0.211017	-0.148143	-0.033917	0.257873	0.233814	0.937461	0.167158	-0.966442	0.195061	0.951609	0.106403	-0.288303
49832	9.461819	2.237366	-3.870069	0.193429	-0.112843	-0.028638	0.258875	0.234253	0.937075	0.169066	-0.966159	0.194817	0.951000	0.107995	-0.289719
49833	9.491080	2.212848	-3.724531	0.184392	-0.084035	-0.022958	0.259606	0.234605	0.936785	0.170873	-0.965896	0.194542	0.950477	0.109567	-0.290840
49834	9.412040	2.113966	-3.633027	0.178290	-0.055443	-0.015523	0.260081	0.234863	0.936588	0.172623	-0.965651	0.194216	0.950031	0.111165	-0.291690
49835	9.260098	2.022158	-3.435707	0.161648	-0.033008	-0.011882	0.260345	0.235054	0.936467	0.174184	-0.965434	0.193900	0.949674	0.112636	-0.292288
49836	9.183487	1.822964	-3.227234	0.160348	-0.018057	-0.008441	0.260484	0.235200	0.936392	0.175731	-0.965222	0.193557	0.949351	0.114134	-0.292756
49837	8.993304	1.857499	-3.051761	0.166025	-0.010057	-0.012645	0.260528	0.235372	0.936336	0.177333	-0.964994	0.193235	0.949041	0.115701	-0.293147
49838	8.906804	1.908068	-2.751033	0.174367	-0.025120	-0.002258	0.260743	0.235468	0.936252	0.178997	-0.964775	0.192791	0.948669	0.117317	-0.293707
49839	8.909180	2.081000	-2.639984	0.167470	-0.030847	0.008099	0.261021	0.235464	0.936175	0.180558	-0.964589	0.192268	0.948297	0.118848	-0.294293
49840	8.995782	2.139726	-2.542299	0.144924	-0.049224	0.016657	0.261498	0.235410	0.936056	0.181899	-0.964443	0.191733	0.947909	0.120130	-0.295021
49841	9.071052	2.127264	-2.541324	0.114654	-0.068397	0.024768	0.262162	0.235292	0.935900	0.182915	-0.964356	0.191208	0.947530	0.121063	-0.295856
49842	9.213812	2.048296	-2.574502	0.091109	-0.083313	0.028248	0.262982	0.235169	0.935701	0.183715	-0.964300	0.190723	0.947148	0.121745	-0.296798
49843	9.234966	1.954732	-2.521001	0.078197	-0.107308	0.027426	0.264020	0.235073	0.935433	0.184377	-0.964261	0.190279	0.946730	0.122235	-0.297926
49844	9.204436	1.880592	-2.414553	0.072661	-0.121051	0.030233	0.265201	0.234978	0.935122	0.184994	-0.964231	0.189828	0.946280	0.122650	-0.299184
49845	9.113609	1.766869	-2.297324	0.076261	-0.149948	0.019171	0.266626	0.235016	0.934708	0.185659	-0.964175	0.189465	0.945749	0.123021	-0.300707
49846	9.072627	1.700017	-2.173779	0.085318	-0.183957	0.023317	0.268387	0.235064	0.934191	0.186411	-0.964114	0.189039	0.945103	0.123408	-0.302574
49847	9.055841	1.722275	-1.985592	0.100927	-0.217859	0.017730	0.270449	0.235201	0.933562	0.187311	-0.964023	0.188612	0.944337	0.123857	-0.304775
49848	9.052339	1.685025	-1.833154	0.107791	-0.268464	0.019153	0.272997	0.235393	0.932771	0.188281	-0.963924	0.188150	0.943410	0.124258	-0.307469
49849	9.095771	1.682204	-1.729864	0.117580	-0.314714	0.012860	0.275960	0.235699	0.931822	0.189349	-0.963800	0.187712	0.942334	0.124638	-0.310599
49850	9.110330	1.577927	-1.751728	0.122146	-0.368980	0.014339	0.279441	0.236064	0.930692	0.190461	-0.963672	0.187243	0.941083	0.124937	-0.314250
49851	9.251585	1.435503	-1.767409	0.130555	-0.424180	0.013440	0.283426	0.236503	0.929374	0.191646	-0.963533	0.186751	0.939650	0.125181	-0.318415
49852	9.254031	1.393650	-1.960365	0.145029	-0.478803	0.010409	0.287920	0.237041	0.927854	0.192974	-0.963368	0.186232	0.938010	0.125431	-0.323116
49853	9.285899	1.456084	-2.231033	0.163017	-0.525359	0.002585	0.292819	0.237714	0.926148	0.194489	-0.963162	0.185723	0.936179	0.125743	-0.328265
49854	9.401379	1.461149	-2.590262	0.188220	-0.558421	-0.005609	0.298008	0.238506	0.924287	0.196260	-0.962905	0.185193	0.934170	0.126211	-0.333763
49855	9.482948	1.571933	-2.943756	0.216903	-0.583766	-0.001980	0.303422	0.239303	0.922317	0.198286	-0.962617	0.184527	0.931997	0.126893	-0.339530
49856	9.567836	1.530409	-3.388247	0.247354	-0.584956	-0.014687	0.308816	0.240222	0.920286	0.200628	-0.962261	0.183855	0.929721	0.127857	-0.345357
49857	9.554307	1.439695	-3.665498	0.299542	-0.579753	-0.024188	0.314121	0.241239	0.918222	0.203481	-0.961809	0.183080	0.927321	0.129331	-0.351212
49858	9.423621	1.468069	-3.915184	0.358027	-0.568412	-0.036837	0.319287	0.242364	0.916141	0.206904	-0.961248	0.182189	0.924795	0.131383	-0.357061
49859	9.160489	1.551663	-4.094938	0.411093	-0.548335	-0.043041	0.324232	0.243544	0.914090	0.210836	-0.960590	0.181148	0.922183	0.133989	-0.362802
49860	8.991398	1.623032	-4.178388	0.426897	-0.537682	-0.047149	0.329062	0.244751	0.912039	0.214908	-0.959893	0.180055	0.919528	0.136755	-0.368464
49861	8.912189	1.726039	-4.291020	0.436624	-0.514384	-0.046512	0.333655	0.245946	0.910047	0.219069	-0.959168	0.178903	0.916888	0.139671	-0.373910
49862	8.937501	1.678616	-4.261179	0.431127	-0.499039	-0.036411	0.338122	0.247028	0.908103	0.223129	-0.958465	0.177648	0.914268	0.142557	-0.379197
49863	8.964328	1.686670	-4.302229	0.430124	-0.477304	-0.032046	0.342378	0.248060	0.906225	0.227163	-0.957758	0.176343	0.911688	0.145485	-0.384265
49864	8.950844	1.685617	-4.299472	0.436782	-0.461130	-0.034415	0.346476	0.249097	0.904381	0.231250	-0.957025	0.175003	0.909108	0.148504	-0.389190
49865	8.909844	1.715212	-4.288485	0.439688	-0.444055	-0.034296	0.350397	0.250128	0.902584	0.235359	-0.956272	0.173636	0.906547	0.151590	-0.393945
49866	8.843685	1.798717	-4.276395	0.434041	-0.428877	-0.029836	0.354188	0.251099	0.900833	0.239385	-0.955528	0.172223	0.904016	0.154647	-0.398546
49867	8.898801	1.829971	-4.312348	0.412355	-0.418389	-0.022905	0.357879	0.252008	0.899119	0.243189	-0.954819	0.170822	0.901544	0.157522	-0.402995
49868	8.987550	1.722828	-4.288120	0.393792	-0.406174	-0.014612	0.361479	0.252822	0.897449	0.246780	-0.954151	0.169397	0.899129	0.160239	-0.407297
49869	9.050057	1.646240	-4.336655	0.391844	-0.391544	-0.012855	0.364932	0.253614	0.895826	0.250345	-0.953477	0.167953	0.896745	0.162974	-0.411445
49870	9.100592	1.531735	-4.266165	0.399310	-0.382700	-0.015298	0.368299	0.254419	0.894218	0.253971	-0.952777	0.166478	0.894346	0.165792	-0.415522
49871	9.223824	1.441945	-4.180243	0.413217	-0.382525	-0.017512	0.371640	0.255263	0.892594	0.257726	-0.952033	0.164954	0.891886	0.168742	-0.419601
49872	9.228543	1.405996	-4.044262	0.428794	-0.378335	-0.015740	0.374947	0.256085	0.890974	0.261597	-0.951258	0.163324	0.889371	0.171838	-0.423663
49873	9.234527	1.372755	-3.827602	0.433639	-0.388271	-0.017684	0.378318	0.256963	0.889295	0.265515	-0.950453	0.161681	0.886779	0.174954	-0.427801
49874	9.250766	1.356592	-3.641946	0.428657	-0.404541	-0.021134	0.381822	0.257903	0.887524	0.269382	-0.949639	0.160062	0.884107	0.177967	-0.432067
49875	9.277585	1.280587	-3.486045	0.409537	-0.434336	-0.027631	0.385550	0.258981	0.885596	0.273103	-0.948825	0.158574	0.881343	0.180721	-0.436548
49876	9.252463	1.137114	-3.321704	0.395187	-0.460366	-0.028444	0.389501	0.260110	0.883534	0.276678	-0.948030	0.157126	0.878486	0.183254	-0.441226
49877	9.301559	0.963095	-3.232668	0.396409	-0.494234	-0.037654	0.393699	0.261415	0.881285	0.280303	-0.947193	0.155744	0.875461	0.185710	-0.446184
49878	9.321037	0.917976	-3.232382	0.415540	-0.539458	-0.048783	0.398255	0.262901	0.878792	0.284109	-0.946288	0.154340	0.872167	0.188206	-0.451556
49879	9.309930	0.823497	-3.306606	0.422249	-0.578633	-0.057209	0.403096	0.264575	0.876079	0.288015	-0.945330	0.152969	0.868655	0.190663	-0.457260
49880	9.287681	0.733927	-3.442897	0.443436	-0.621940	-0.073859	0.408253	0.266474	0.873110	0.292132	-0.944286	0.151601	0.864863	0.193172	-0.463353
49881	9.251455	0.625655	-3.632424	0.471371	-0.661026	-0.090351	0.413658	0.268649	0.869894	0.296573	-0.943119	0.150234	0.860774	0.195841	-0.469803
49882	9.117619	0.508929	-3.657351	0.533826	-0.708279	-0.116191	0.419373	0.271142	0.866377	0.301607	-0.941759	0.148740	0.856247	0.198928	-0.476727
49883	9.131981	0.311258	-3.664133	0.588324	-0.738656	-0.138663	0.425225	0.273965	0.862628	0.307218	-0.940192	0.147158	0.851352	0.202440	-0.483961
49884	9.070875	0.363445	-3.715837	0.683399	-0.784840	-0.148586	0.431408	0.276956	0.858593	0.313612	-0.938396	0.145121	0.845893	0.206659	-0.491688
49885	9.053409	0.492509	-3.766254	0.713593	-0.818973	-0.151353	0.437800	0.280121	0.854321	0.320289	-0.936476	0.142925	0.840087	0.211057	-0.499709
49886	9.025933	0.463507	-3.756114	0.744930	-0.867311	-0.162196	0.444519	0.283469	0.849734	0.327190	-0.934445	0.140567	0.833876	0.215540	-0.508127
49887	8.978676	0.519023	-3.681750	0.772510	-0.910372	-0.186728	0.451430	0.287230	0.844814	0.334447	-0.932221	0.138235	0.827259	0.220142	-0.516896
49888	8.935314	0.594208	-3.755479	0.777218	-0.960484	-0.203411	0.458641	0.291231	0.839543	0.341717	-0.929925	0.135904	0.820291	0.224555	-0.526020
49889	8.929947	0.781873	-3.821776	0.776667	-1.014551	-0.220772	0.466131	0.295615	0.833867	0.349085	-0.927508	0.133674	0.812934	0.228780	-0.535535
49890	9.034693	0.921862	-3.821390	0.761737	-1.064427	-0.236995	0.473896	0.300229	0.827820	0.356298	-0.925068	0.131532	0.805279	0.232618	-0.545357
49891	9.199384	1.060120	-3.897247	0.724957	-1.113246	-0.255321	0.481865	0.305230	0.821365	0.363333	-0.922588	0.129692	0.797368	0.235935	-0.555463
49892	9.253798	1.229334	-4.099001	0.662663	-1.155651	-0.273741	0.490019	0.310449	0.814557	0.369851	-0.920201	0.128219	0.789361	0.238435	-0.565736
49893	9.229489	1.352915	-4.297387	0.590302	-1.199112	-0.303442	0.498271	0.316140	0.807330	0.375992	-0.917829	0.127354	0.781252	0.240093	-0.576194
49894	9.190068	1.393040	-4.568362	0.511808	-1.237618	-0.340949	0.506589	0.322192	0.799725	0.381610	-0.915541	0.127118	0.773137	0.240786	-0.586755
49895	9.280817	1.229832	-4.826711	0.462108	-1.275596	-0.392627	0.514856	0.328887	0.791680	0.387176	-0.913140	0.127551	0.764864	0.240849	-0.597473
49896	9.253241	0.973197	-5.112998	0.467086	-1.304505	-0.419094	0.523136	0.335794	0.783308	0.392828	-0.910655	0.128035	0.756317	0.240726	-0.608306
49897	9.091910	1.043064	-5.390508	0.531237	-1.329777	-0.431709	0.531390	0.342956	0.774600	0.399106	-0.907901	0.128181	0.747221	0.241034	-0.619326
49898	8.851095	1.133482	-5.717519	0.562670	-1.343826	-0.439225	0.539596	0.350117	0.765672	0.405556	-0.905058	0.128044	0.737808	0.241430	-0.630358
49899	8.605984	1.153075	-6.007271	0.570747	-1.350694	-0.427602	0.547715	0.357277	0.756546	0.412073	-0.902156	0.127714	0.728151	0.241802	-0.641349
49900	8.457908	1.132947	-6.318379	0.569490	-1.348279	-0.412050	0.555753	0.364184	0.747334	0.418383	-0.899330	0.127124	0.718397	0.242022	-0.652174
49901	8.330928	1.287953	-6.552114	0.582173	-1.333157	-0.395828	0.563562	0.370999	0.738077	0.424762	-0.896454	0.126280	0.708502	0.242341	-0.662794
49902	8.140852	1.300952	-6.770716	0.572152	-1.309089	-0.380437	0.571144	0.377509	0.728890	0.430863	-0.893684	0.125243	0.698678	0.242520	-0.673077
49903	7.857911	1.437365	-6.836715	0.568151	-1.291809	-0.370995	0.578463	0.383985	0.719678	0.436948	-0.890882	0.124121	0.688808	0.242663	-0.683124
49904	7.645357	1.603755	-6.853672	0.542283	-1.268128	-0.349101	0.585601	0.390097	0.710560	0.442607	-0.888256	0.122881	0.679095	0.242539	-0.692824
49905	7.361338	1.755788	-6.973623	0.505518	-1.234072	-0.317613	0.592475	0.395937	0.701575	0.447899	-0.885771	0.121641	0.669596	0.242166	-0.702137
49906	7.166550	1.969543	-7.145716	0.456379	-1.201286	-0.277862	0.599214	0.401231	0.692789	0.452511	-0.883600	0.120350	0.660436	0.241380	-0.711027
49907	6.975061	2.188648	-7.202934	0.370207	-1.151615	-0.222137	0.605727	0.405995	0.684297	0.456292	-0.881800	0.119274	0.651838	0.239992	-0.719382
49908	6.679257	2.258441	-7.338132	0.277027	-1.099065	-0.159928	0.612115	0.409968	0.676196	0.458988	-0.880523	0.118357	0.643929	0.237918	-0.727152
49909	6.379332	2.270209	-7.315606	0.173713	-1.030623	-0.092334	0.618257	0.413250	0.668568	0.460682	-0.879720	0.117751	0.636813	0.235197	-0.734270
49910	6.114824	2.206226	-7.377300	0.073779	-0.976748	-0.018114	0.624359	0.415636	0.661380	0.461199	-0.879505	0.117331	0.630454	0.231771	-0.740817
49911	5.871778	2.141932	-7.539351	-0.030288	-0.914019	0.046545	0.630277	0.417358	0.654648	0.460731	-0.879755	0.117291	0.624882	0.227691	-0.746779
49912	5.657811	2.143768	-7.588778	-0.084198	-0.861720	0.110997	0.636145	0.418278	0.648354	0.459449	-0.880437	0.117207	0.619860	0.223325	-0.752263
49913	5.551534	2.069568	-7.448579	-0.134086	-0.791106	0.165187	0.641755	0.418604	0.642589	0.457581	-0.881411	0.117194	0.615443	0.218827	-0.757195
49914	5.697682	1.989790	-6.886240	-0.139176	-0.691778	0.217302	0.646982	0.418151	0.637624	0.455280	-0.882644	0.116871	0.611665	0.214684	-0.761431
49915	5.542013	1.796642	-6.861841	-0.144429	-0.521780	0.261107	0.651320	0.416987	0.633959	0.452719	-0.884029	0.116354	0.608956	0.211222	-0.764564
49916	5.600109	1.890754	-6.271940	-0.080199	-0.361242	0.289123	0.654810	0.415159	0.631560	0.450303	-0.885419	0.115153	0.607002	0.208990	-0.766728
49917	6.470836	1.479057	-5.316256	-0.141803	-0.142142	0.277039	0.656884	0.413032	0.630800	0.447642	-0.886848	0.114533	0.606729	0.207137	-0.767446
49918	7.490715	1.226650	-5.120399	-0.220400	0.091146	0.304784	0.657676	0.410110	0.631880	0.444260	-0.888575	0.114315	0.608354	0.205536	-0.766590
49919	7.845186	1.150827	-5.223617	-0.261758	0.344045	0.360697	0.657141	0.406228	0.634937	0.440308	-0.890571	0.114075	0.611797	0.204604	-0.764095
49920	7.686848	1.095585	-5.349198	-0.265355	0.589556	0.432715	0.655403	0.401127	0.639957	0.435791	-0.892882	0.113352	0.616874	0.204596	-0.760005
49921	7.429654	0.829688	-5.339610	-0.234142	0.831231	0.506698	0.652413	0.394923	0.646834	0.431040	-0.895366	0.111906	0.623347	0.205803	-0.754376
49922	7.431301	0.540502	-5.318708	-0.165950	1.049039	0.573330	0.648280	0.387565	0.655382	0.426216	-0.897979	0.109429	0.630930	0.208393	-0.747328
49923	7.521946	0.471415	-5.243708	-0.063588	1.263177	0.617785	0.642845	0.379383	0.665446	0.421838	-0.900470	0.105863	0.639377	0.212657	-0.738901
49924	7.571574	0.617225	-5.244658	0.003765	1.462751	0.646112	0.636126	0.370352	0.676892	0.417665	-0.902913	0.101506	0.648768	0.218144	-0.729050
49925	7.672092	0.882435	-5.269707	-0.019484	1.649620	0.660768	0.628051	0.360763	0.689494	0.413374	-0.905361	0.097174	0.659298	0.223989	-0.717743
49926	7.638863	1.158165	-5.339114	-0.123097	1.823301	0.661649	0.618629	0.350570	0.703135	0.408357	-0.908027	0.093447	0.671225	0.229321	-0.704889
49927	7.611577	1.242151	-5.455006	-0.272262	1.983202	0.662024	0.607837	0.339990	0.717594	0.402464	-0.910933	0.090686	0.684513	0.233683	-0.690532
49928	7.687336	1.133257	-5.531306	-0.387097	2.136489	0.668624	0.595712	0.328795	0.732817	0.395684	-0.914114	0.088484	0.698971	0.237253	-0.674648
49929	7.786405	0.875701	-5.622908	-0.447046	2.296642	0.686834	0.582144	0.317050	0.748724	0.388490	-0.917392	0.086416	0.714271	0.240565	-0.657225
49930	7.897609	0.932080	-5.479290	-0.491804	2.452914	0.706153	0.567126	0.304558	0.765253	0.380798	-0.920811	0.084260	0.730316	0.243621	-0.638191
49931	7.999820	0.899831	-5.385704	-0.580459	2.598269	0.732067	0.550657	0.291475	0.782189	0.372427	-0.924407	0.082284	0.747044	0.245998	-0.617584
49932	8.024243	1.006623	-5.442950	-0.671096	2.728373	0.766692	0.532837	0.277577	0.799397	0.363115	-0.928278	0.080294	0.764350	0.247489	-0.595414
49933	8.322202	1.388925	-5.424674	-0.796395	2.836359	0.772911	0.513640	0.263395	0.816576	0.352919	-0.932335	0.078742	0.782063	0.247740	-0.571842
49934	8.632960	1.612426	-5.488345	-0.963109	2.937160	0.787957	0.493112	0.248717	0.833655	0.341244	-0.936763	0.077631	0.800246	0.246199	-0.546802
49935	8.878635	1.688753	-5.462994	-1.107657	3.037712	0.807010	0.471192	0.233739	0.850497	0.328390	-0.941415	0.076791	0.818620	0.243112	-0.520345
49936	9.553846	1.715337	-5.379552	-1.259859	3.100030	0.827446	0.448157	0.218417	0.866862	0.314071	-0.946347	0.076074	0.836968	0.238163	-0.492710
49937	9.863940	1.552455	-5.476126	-1.366259	3.190576	0.860311	0.423766	0.202787	0.882780	0.298761	-0.951366	0.075127	0.855082	0.231904	-0.463741
49938	9.943268	1.528721	-5.381132	-1.379365	3.270768	0.921999	0.398158	0.186477	0.898163	0.282972	-0.956337	0.073113	0.872581	0.225044	-0.433541
49939	10.046239	1.400376	-5.257781	-1.348335	3.343825	0.983937	0.371376	0.169668	0.912849	0.267305	-0.961074	0.069883	0.889173	0.218056	-0.402273
49940	10.176076	1.322157	-5.037548	-1.255948	3.405129	1.033293	0.343479	0.152370	0.926718	0.252265	-0.965457	0.065240	0.904646	0.211370	-0.370052
49941	10.313788	1.244217	-4.701423	-1.151801	3.447997	1.070903	0.314635	0.134861	0.939584	0.238233	-0.969392	0.059364	0.918831	0.205162	-0.337133
49942	10.609877	1.036699	-4.583692	-1.001922	3.468586	1.081745	0.285010	0.117310	0.951319	0.225640	-0.972803	0.052359	0.931588	0.199733	-0.303728
49943	11.025957	0.928554	-4.337935	-0.764371	3.469847	1.084093	0.254851	0.099916	0.961804	0.215542	-0.975492	0.044226	0.942652	0.196039	-0.270141
49944	11.192372	1.029081	-4.084926	-0.526450	3.455598	1.054087	0.224301	0.082868	0.970990	0.207953	-0.977499	0.035386	0.952074	0.193983	-0.236486
49945	11.053465	1.405910	-3.728223	-0.301077	3.407709	0.984489	0.193715	0.066669	0.978790	0.203006	-0.978819	0.026493	0.959825	0.193568	-0.203146
49946	10.643235	1.827368	-3.376828	-0.149201	3.318788	0.876511	0.163476	0.051648	0.985194	0.199933	-0.979641	0.018181	0.966076	0.194001	-0.170474
49947	10.241985	2.105224	-3.045587	-0.077499	3.179898	0.765638	0.134169	0.038000	0.990230	0.198030	-0.980137	0.010781	0.970970	0.194649	-0.139030
49948	10.090113	2.304503	-2.767255	-0.055510	3.013091	0.627641	0.106049	0.025984	0.994021	0.196678	-0.980457	0.004647	0.974716	0.195010	-0.109087
49949	10.007267	2.387918	-2.495583	-0.096897	2.804580	0.507182	0.079636	0.015582	0.996702	0.195246	-0.980754	-0.000267	0.977516	0.194623	-0.081145
49950	9.771261	2.034165	-2.345810	-0.160736	2.595540	0.402837	0.054975	0.006618	0.998466	0.193361	-0.981119	-0.004144	0.979586	0.193292	-0.055216
49951	9.556112	1.851735	-2.192873	-0.184544	2.343922	0.292593	0.032530	-0.000728	0.999471	0.191406	-0.981486	-0.006945	0.980972	0.191530	-0.031788
49952	9.282746	1.335470	-2.031113	-0.207702	2.088559	0.172901	0.012319	-0.006371	0.999904	0.189302	-0.981881	-0.008589	0.981842	0.189390	-0.010890
49953	8.807283	0.697256	-2.024934	-0.143720	1.815198	0.062534	-0.005419	-0.010373	0.999932	0.187869	-0.982151	-0.009170	0.982179	0.187807	0.007271
49954	8.327848	0.195459	-1.961071	0.007134	1.530108	-0.055626	-0.020590	-0.012661	0.999708	0.187915	-0.982148	-0.008568	0.981969	0.187684	0.022602
49955	7.940629	0.066344	-1.915326	0.195634	1.230735	-0.178430	-0.033038	-0.013193	0.999367	0.189767	-0.981806	-0.006688	0.981273	0.189426	0.034941
49956	7.767057	0.153721	-1.864113	0.355131	0.928774	-0.292900	-0.042746	-0.012053	0.999013	0.193126	-0.981167	-0.003574	0.980242	0.192783	0.044268
49957	7.687915	0.260116	-1.970711	0.453523	0.642876	-0.397170	-0.049849	-0.009375	0.998713	0.197364	-0.980330	0.000648	0.979062	0.197142	0.050719
49958	7.608088	0.374578	-2.206905	0.503034	0.378072	-0.469647	-0.054522	-0.005485	0.998497	0.202033	-0.979362	0.005652	0.977860	0.202038	0.054505
49959	7.627479	0.426053	-2.440107	0.509504	0.137425	-0.530070	-0.056979	-0.000542	0.998375	0.206695	-0.978341	0.011265	0.976745	0.207001	0.055857
49960	7.565265	0.469568	-2.755631	0.495274	-0.067570	-0.567871	-0.057540	0.005199	0.998330	0.211205	-0.977289	0.017262	0.975747	0.211845	0.055135
49961	7.468542	0.584819	-3.045263	0.478034	-0.241290	-0.590616	-0.056477	0.011519	0.998337	0.215509	-0.976220	0.023456	0.974867	0.216475	0.052652
49962	7.478104	0.658523	-3.327589	0.442265	-0.390328	-0.595189	-0.054000	0.018230	0.998375	0.219498	-0.975161	0.029678	0.974117	0.220744	0.048657
49963	7.502533	0.796320	-3.528738	0.391318	-0.513951	-0.589926	-0.050331	0.025159	0.998416	0.222980	-0.974166	0.035788	0.973523	0.224428	0.043421
49964	7.509664	0.905414	-3.767606	0.310320	-0.608836	-0.575517	-0.045725	0.032193	0.998435	0.225743	-0.973293	0.041721	0.973113	0.227298	0.037236
49965	7.484830	1.097084	-4.045149	0.202641	-0.672518	-0.556948	-0.040474	0.039181	0.998412	0.227454	-0.972635	0.047390	0.972947	0.229011	0.030455
49966	7.439835	1.151045	-4.260877	0.081938	-0.716287	-0.527874	-0.034734	0.046019	0.998337	0.228086	-0.972211	0.052750	0.973021	0.229538	0.023272
49967	7.481586	1.257771	-4.353082	-0.061998	-0.741148	-0.483809	-0.028654	0.052454	0.998212	0.227308	-0.972117	0.057608	0.973401	0.228553	0.015931
49968	7.586297	1.180858	-4.358872	-0.189021	-0.742474	-0.432232	-0.022426	0.058415	0.998040	0.225405	-0.972292	0.061973	0.974007	0.226353	0.008638
49969	7.752686	1.124338	-4.427163	-0.288666	-0.731257	-0.382581	-0.016188	0.063814	0.997831	0.222498	-0.972709	0.065817	0.974799	0.223081	0.001548
49970	7.923399	1.022082	-4.469467	-0.362533	-0.712022	-0.332463	-0.009999	0.068701	0.997587	0.218980	-0.973271	0.069221	0.975678	0.219144	-0.005312
49971	8.138788	1.091435	-4.392371	-0.412791	-0.692439	-0.275664	-0.003869	0.072921	0.997330	0.214912	-0.973972	0.072047	0.976626	0.214617	-0.011903
49972	8.335373	1.100298	-4.372644	-0.459272	-0.663629	-0.222428	0.002124	0.076581	0.997061	0.210496	-0.974758	0.074420	0.977592	0.209719	-0.018191
49973	9.572009	1.196847	-1.690702	-0.401551	-0.562047	-0.175486	0.007225	0.079494	0.996809	0.206558	-0.975455	0.076294	0.978408	0.205348	-0.023467
49974	12.803341	0.729893	2.522082	-0.605832	-0.136834	-0.080983	0.008383	0.080652	0.996707	0.200715	-0.976592	0.077336	0.979614	0.199406	-0.024375
49975	13.931639	0.688361	1.754493	-0.468909	0.247398	0.155092	0.006236	0.078684	0.996880	0.196089	-0.977641	0.075939	0.980566	0.195004	-0.021525
49976	12.934339	2.856473	0.395538	-0.501442	0.327106	0.330514	0.003649	0.074907	0.997184	0.191228	-0.978840	0.072829	0.981539	0.190423	-0.017896
49977	12.038712	4.804117	1.174998	-1.077536	0.268472	0.381413	0.001691	0.070708	0.997496	0.180611	-0.981114	0.069241	0.983553	0.180042	-0.014429
49978	11.620408	3.699512	1.652931	-1.700785	0.269615	0.407458	-0.000281	0.066336	0.997797	0.163945	-0.984294	0.065485	0.986469	0.163603	-0.010599
49979	11.680638	1.069325	1.362811	-1.859135	0.247134	0.443496	-0.002065	0.061619	0.998098	0.145564	-0.987450	0.061263	0.989347	0.145414	-0.006931
49980	10.421447	-0.788263	0.043651	-1.567131	0.141901	0.391602	-0.002948	0.057653	0.998332	0.130150	-0.989823	0.057545	0.991490	0.130102	-0.004585
49981	9.060608	-1.346211	-1.659748	-1.447090	-0.150425	0.219987	-0.001212	0.055696	0.998447	0.115774	-0.991726	0.055462	0.993275	0.115662	-0.005246
49982	10.145012	-1.287269	-0.833745	-1.451007	-0.444272	0.134272	0.003335	0.054940	0.998484	0.101436	-0.993358	0.054320	0.994837	0.101101	-0.008886
49983	11.800515	-1.957480	-0.016292	-1.801615	-0.520877	0.155187	0.008639	0.053916	0.998508	0.083469	-0.995099	0.053009	0.996473	0.082886	-0.013097
49984	11.964549	-4.146141	-0.321371	-1.931101	-0.476919	0.216567	0.013542	0.052197	0.998545	0.064260	-0.996618	0.051225	0.997841	0.063473	-0.016850
49985	10.667429	-4.190719	-0.711721	-1.579976	-0.469093	0.238112	0.018334	0.050123	0.998575	0.048431	-0.997615	0.049185	0.998658	0.047460	-0.020718
49986	9.951910	-3.115324	-0.928417	-1.381400	-0.507862	0.141971	0.023456	0.048983	0.998524	0.034642	-0.998239	0.048155	0.999124	0.033462	-0.025112
49987	10.351776	-4.407219	-1.519316	-1.127188	-0.497620	-0.006358	0.028403	0.049225	0.998384	0.023362	-0.998547	0.048569	0.999323	0.021945	-0.029512
49988	10.310947	-5.135027	-1.875683	-0.337062	-0.420982	-0.145056	0.032571	0.050815	0.998177	0.020050	-0.998539	0.050179	0.999268	0.018379	-0.033542
49989	9.438769	-3.377095	-1.888618	0.557669	-0.373618	-0.286503	0.036215	0.053795	0.997895	0.025703	-0.998270	0.052882	0.999013	0.023733	-0.037535
49990	9.236363	-0.890629	-1.741149	1.160967	-0.355738	-0.364612	0.039647	0.057575	0.997554	0.037417	-0.997724	0.056098	0.998513	0.035101	-0.041711
49991	9.465477	1.134973	-1.677517	1.450337	-0.299310	-0.357884	0.042450	0.061311	0.997216	0.052023	-0.996897	0.059077	0.997743	0.049370	-0.045508
49992	9.426542	2.901434	-1.428639	1.494069	-0.248782	-0.321956	0.044734	0.064696	0.996902	0.067042	-0.995846	0.061619	0.996747	0.064078	-0.048885
49993	9.352085	4.382643	-1.116890	1.233815	-0.222767	-0.270203	0.046730	0.067581	0.996619	0.079440	-0.994800	0.063733	0.995744	0.076194	-0.051856
49994	9.287678	5.047654	-1.001053	0.696334	-0.221737	-0.200557	0.048764	0.069799	0.996368	0.086468	-0.994105	0.065409	0.995060	0.082965	-0.054512
49995	9.271523	4.726592	-0.808556	0.055231	-0.223426	-0.129592	0.050848	0.071313	0.996157	0.087065	-0.993966	0.066712	0.994904	0.083339	-0.056750
49996	9.338677	3.623364	-0.674384	-0.521607	-0.234945	-0.061122	0.053126	0.072175	0.995976	0.081937	-0.994336	0.067686	0.995221	0.078011	-0.058739
49997	9.583586	2.058708	-0.450721	-0.883124	-0.250833	0.003763	0.055601	0.072361	0.995827	0.073126	-0.994987	0.068217	0.995772	0.069028	-0.060614
49998	9.915304	0.576680	-0.373336	-1.002138	-0.259164	0.042216	0.058203	0.072182	0.995692	0.063165	-0.995650	0.068486	0.996304	0.058907	-0.062509
49999	10.027371	-0.173077	-0.333878	-0.938790	-0.271251	0.045099	0.060907	0.071919	0.995549	0.053767	-0.996189	0.068676	0.996694	0.049344	-0.064542
50000	10.010197	-0.360355	-0.198034	-0.832619	-0.285786	0.020406	0.063758	0.071918	0.995371	0.045495	-0.996572	0.069091	0.996928	0.040879	-0.066812
50001	10.044996	-0.414523	-0.130337	-0.743656	-0.303534	-0.006434	0.066758	0.072135	0.995158	0.038068	-0.996841	0.069703	0.997043	0.033231	-0.069293
50002	9.939446	-0.225005	-0.165164	-0.645873	-0.308413	-0.030696	0.069815	0.072602	0.994914	0.031682	-0.997006	0.070531	0.997057	0.026597	-0.071906
50003	9.804454	0.281701	-0.211588	-0.587710	-0.321008	-0.035047	0.072982	0.073068	0.994653	0.025832	-0.997117	0.071353	0.996999	0.020486	-0.074659
50004	9.741433	0.584915	-0.300864	-0.587358	-0.335459	-0.049525	0.076308	0.073686	0.994358	0.020041	-0.997177	0.072357	0.996883	0.014406	-0.077569
50005	9.705716	0.522837	-0.394878	-0.565537	-0.344688	-0.064602	0.079709	0.074411	0.994037	0.014438	-0.997191	0.073489	0.996714	0.008494	-0.080560
50006	9.624034	0.244011	-0.554206	-0.480361	-0.344434	-0.088309	0.083124	0.075377	0.993684	0.009749	-0.997149	0.074825	0.996492	0.003467	-0.083622
50007	9.532616	0.103773	-0.607050	-0.339578	-0.354304	-0.116197	0.086622	0.076583	0.993293	0.006449	-0.997063	0.076312	0.996220	-0.000205	-0.086862
50008	9.473704	0.208868	-0.698556	-0.192711	-0.361836	-0.133602	0.090212	0.077974	0.992865	0.004669	-0.996953	0.077870	0.995912	-0.002389	-0.090301
50009	9.520565	0.386308	-0.740192	-0.088196	-0.376777	-0.143098	0.093935	0.079431	0.992405	0.003908	-0.996834	0.079415	0.995571	-0.003582	-0.093948
50010	9.592009	0.554450	-0.824296	-0.037647	-0.393981	-0.144912	0.097844	0.080921	0.991906	0.003691	-0.996711	0.080949	0.995195	-0.004259	-0.097821
50011	9.636851	0.828397	-1.010406	-0.018524	-0.435714	-0.152291	0.102152	0.082460	0.991345	0.003645	-0.996583	0.082520	0.994762	-0.004816	-0.102103
50012	9.795970	0.824673	-0.946944	-0.105006	-0.450531	-0.155103	0.106620	0.084042	0.990742	0.002781	-0.996443	0.084226	0.994296	-0.006225	-0.106475
50013	9.771152	0.430734	-1.171593	-0.147914	-0.465528	-0.155160	0.111222	0.085596	0.990102	0.001465	-0.996297	0.085967	0.993794	-0.008111	-0.110936
50014	9.634603	0.535569	-1.256944	-0.129480	-0.479306	-0.162367	0.115976	0.087231	0.989414	0.000381	-0.996140	0.087779	0.993252	-0.009803	-0.115561
50015	9.553724	0.679711	-1.230303	-0.137215	-0.494741	-0.162285	0.120866	0.088836	0.988686	-0.000803	-0.995978	0.089590	0.992668	-0.011623	-0.120309
50016	9.607498	0.656817	-1.203521	-0.123590	-0.501262	-0.161196	0.125836	0.090438	0.987920	-0.001815	-0.995813	0.091392	0.992049	-0.013293	-0.125145
50017	9.587711	0.928885	-1.312823	-0.081996	-0.499564	-0.162966	0.130772	0.092033	0.987132	-0.002432	-0.995649	0.093150	0.991410	-0.014582	-0.129979
50018	9.598453	1.190983	-1.429343	-0.046510	-0.488129	-0.162630	0.135607	0.093638	0.986328	-0.002661	-0.995486	0.094873	0.990759	-0.015490	-0.134745
50019	9.669098	1.451346	-1.737473	-0.046585	-0.462761	-0.153869	0.140172	0.095138	0.985546	-0.002923	-0.995329	0.096498	0.990123	-0.016407	-0.139240
50020	9.558529	1.558451	-2.054940	-0.070735	-0.431821	-0.145294	0.144445	0.096571	0.984789	-0.003398	-0.995172	0.098088	0.989507	-0.017514	-0.143419
50021	9.479109	1.504672	-2.344466	-0.115029	-0.394538	-0.130126	0.148330	0.097836	0.984086	-0.004358	-0.995020	0.099580	0.988928	-0.019059	-0.147165
50022	9.394327	1.403160	-2.594033	-0.154774	-0.363056	-0.117811	0.151919	0.098999	0.983422	-0.005688	-0.994867	0.101030	0.988377	-0.020942	-0.150577
50023	9.431308	1.144671	-2.768954	-0.183581	-0.318434	-0.114557	0.155052	0.100111	0.982821	-0.007338	-0.994708	0.102479	0.987879	-0.023102	-0.153496
50024	9.507233	1.082058	-2.874205	-0.187097	-0.283223	-0.105084	0.157852	0.101153	0.982268	-0.008996	-0.994551	0.103864	0.987422	-0.025232	-0.156082
50025	9.667879	1.028340	-2.820204	-0.198425	-0.245055	-0.094447	0.160259	0.102070	0.981783	-0.010817	-0.994398	0.105147	0.987016	-0.027471	-0.158257
50026	9.764929	1.068274	-2.760545	-0.215336	-0.211229	-0.086117	0.162350	0.102932	0.981350	-0.012777	-0.994242	0.106397	0.986651	-0.029812	-0.160100
50027	9.781006	0.980272	-2.661635	-0.233549	-0.181957	-0.087954	0.164136	0.103792	0.980962	-0.014949	-0.994073	0.107680	0.986325	-0.032338	-0.161611
50028	9.800592	0.921340	-2.452615	-0.226786	-0.159634	-0.094111	0.165722	0.104739	0.980595	-0.017003	-0.993893	0.109033	0.986026	-0.034743	-0.162929
50029	9.774734	0.952806	-2.171662	-0.201699	-0.141998	-0.095254	0.167118	0.105678	0.980257	-0.018845	-0.993715	0.110341	0.985757	-0.036913	-0.164076
50030	9.654069	1.009220	-1.861214	-0.156207	-0.129337	-0.090876	0.168408	0.106597	0.979937	-0.020207	-0.993553	0.111551	0.985510	-0.038587	-0.165169
50031	9.673301	1.150100	-1.604251	-0.110222	-0.134664	-0.084349	0.169732	0.107424	0.979618	-0.021161	-0.993415	0.112604	0.985263	-0.039843	-0.166341
50032	9.693201	1.162379	-1.353738	-0.070596	-0.146171	-0.078057	0.171186	0.108206	0.979279	-0.021698	-0.993296	0.113548	0.985000	-0.040687	-0.167691
50033	9.682005	1.128977	-1.169834	-0.026430	-0.163478	-0.074840	0.172792	0.108925	0.978917	-0.021841	-0.993198	0.114369	0.984716	-0.041143	-0.169237
50034	9.647230	1.124733	-1.034288	0.019956	-0.190046	-0.071746	0.174676	0.109624	0.978504	-0.021495	-0.993121	0.115099	0.984391	-0.041138	-0.171118
50035	9.582736	1.052709	-0.878094	0.067493	-0.224019	-0.068015	0.176874	0.110251	0.978039	-0.020722	-0.993069	0.115692	0.984015	-0.040730	-0.173363
50036	9.508440	1.054826	-0.827138	0.120172	-0.255147	-0.065399	0.179394	0.110862	0.977511	-0.019399	-0.993038	0.116183	0.983586	-0.039805	-0.175995
50037	9.503349	1.135544	-0.869233	0.145346	-0.296910	-0.061324	0.182304	0.111397	0.976911	-0.017870	-0.993022	0.116569	0.983080	-0.038708	-0.179041
50038	9.446415	1.280500	-0.897746	0.159875	-0.335453	-0.057821	0.185607	0.111907	0.976231	-0.016168	-0.993011	0.116905	0.982491	-0.037482	-0.182500
50039	9.397583	1.316419	-1.044831	0.136420	-0.376046	-0.051287	0.189287	0.112320	0.975477	-0.014743	-0.992999	0.117198	0.981811	-0.036565	-0.186306
50040	9.384532	1.312526	-1.279580	0.113512	-0.402449	-0.044186	0.193238	0.112678	0.974660	-0.013519	-0.992984	0.117476	0.981059	-0.035877	-0.190358
50041	9.433077	1.289988	-1.536691	0.107309	-0.422271	-0.037774	0.197362	0.112945	0.973803	-0.012403	-0.992974	0.117682	0.980252	-0.035304	-0.194575
50042	9.434749	1.351939	-1.833057	0.108480	-0.434273	-0.029980	0.201615	0.113156	0.972906	-0.011255	-0.992971	0.117822	0.979400	-0.034705	-0.198924
50043	9.442797	1.360311	-2.116617	0.109000	-0.437328	-0.019486	0.205877	0.113242	0.972004	-0.010158	-0.992981	0.117837	0.978525	-0.034133	-0.203282
50044	9.421610	1.351510	-2.355661	0.121573	-0.434627	-0.014288	0.210124	0.113304	0.971087	-0.008912	-0.992999	0.117789	0.977634	-0.033404	-0.207643
50045	9.448686	1.403514	-2.609260	0.142859	-0.429212	-0.016168	0.214298	0.113365	0.970167	-0.007491	-0.993022	0.117690	0.976740	-0.032488	-0.211953
50046	9.449090	1.444639	-2.708090	0.134819	-0.407758	0.000917	0.218273	0.113293	0.969289	-0.006147	-0.993059	0.117456	0.975868	-0.031596	-0.216062
50047	9.491144	1.426749	-2.747731	0.130651	-0.388192	0.010054	0.222038	0.113115	0.968455	-0.004904	-0.993106	0.117118	0.975026	-0.030754	-0.219952
50048	9.505994	1.434175	-2.885189	0.113882	-0.370338	0.019727	0.225641	0.112876	0.967649	-0.003807	-0.993155	0.116739	0.974203	-0.030025	-0.223667
50049	9.515124	1.372939	-2.928556	0.080212	-0.344428	0.029519	0.228972	0.112522	0.966908	-0.003102	-0.993207	0.116317	0.973428	-0.029632	-0.227068
50050	9.435948	1.231977	-2.994808	0.052864	-0.326511	0.036798	0.232144	0.112131	0.966197	-0.002639	-0.993257	0.115906	0.972678	-0.029457	-0.230282
50051	9.423782	1.128059	-3.008052	0.046233	-0.305623	0.032946	0.235093	0.111756	0.965527	-0.002275	-0.993302	0.115525	0.971970	-0.029355	-0.233264
50052	9.408058	1.178475	-2.995510	0.059567	-0.277165	0.038629	0.237781	0.111363	0.964914	-0.001754	-0.993355	0.115077	0.971317	-0.029056	-0.236006
50053	9.405696	1.275400	-2.983898	0.062048	-0.250549	0.041985	0.240192	0.110916	0.964368	-0.001260	-0.993414	0.114570	0.970725	-0.028733	-0.238470
50054	9.407386	1.296306	-2.954634	0.055730	-0.231922	0.050582	0.242438	0.110418	0.963863	-0.000807	-0.993479	0.114014	0.970166	-0.028419	-0.240768
50055	9.369889	1.251571	-2.928342	0.043094	-0.207986	0.045186	0.244434	0.109953	0.963412	-0.000506	-0.993536	0.113519	0.969666	-0.028236	-0.242798
50056	9.351583	1.103499	-2.872029	0.036361	-0.190617	0.044844	0.246278	0.109526	0.962991	-0.000228	-0.993588	0.113064	0.969199	-0.028065	-0.244674
50057	9.364687	0.898621	-2.789995	0.056501	-0.177195	0.041671	0.247974	0.109105	0.962603	0.000209	-0.993644	0.112570	0.968767	-0.027714	-0.246420
50058	9.318542	0.889704	-2.662440	0.104314	-0.171524	0.034935	0.249633	0.108783	0.962211	0.001167	-0.993703	0.112041	0.968340	-0.026846	-0.248188
50059	9.356385	0.936302	-2.509814	0.136380	-0.171168	0.036266	0.251269	0.108420	0.961826	0.002389	-0.993773	0.111397	0.967914	-0.025693	-0.249963
50060	9.425793	0.973643	-2.369984	0.138563	-0.180844	0.036302	0.253017	0.108084	0.961405	0.003671	-0.993840	0.110765	0.967455	-0.024496	-0.251856
50061	9.473871	1.016220	-2.241561	0.144790	-0.189224	0.033782	0.254827	0.107746	0.960965	0.004979	-0.993906	0.110119	0.966974	-0.023277	-0.253811
50062	9.435336	1.031467	-2.118966	0.141948	-0.208832	0.025663	0.256845	0.107513	0.960454	0.006318	-0.993959	0.109574	0.966432	-0.022075	-0.255973
50063	9.390687	0.976721	-1.959776	0.137954	-0.230321	0.021909	0.259050	0.107288	0.959887	0.007587	-0.994007	0.109054	0.965834	-0.020967	-0.258311
50064	9.278083	1.092005	-1.810997	0.141595	-0.258672	0.020276	0.261546	0.107103	0.959230	0.008933	-0.994050	0.108555	0.965150	-0.019823	-0.260947
50065	9.233866	1.212624	-1.691524	0.126979	-0.295570	0.026594	0.264378	0.106824	0.958485	0.010082	-0.994098	0.108012	0.964366	-0.018893	-0.263895
50066	9.223075	1.263862	-1.681854	0.110510	-0.330391	0.032437	0.267562	0.106510	0.957636	0.011093	-0.994146	0.107471	0.963477	-0.018133	-0.267177
50067	9.252374	1.380231	-1.672553	0.107745	-0.371412	0.043846	0.271122	0.106050	0.956685	0.012006	-0.994207	0.106807	0.962470	-0.017472	-0.270825
50068	9.318381	1.510080	-1.682297	0.080633	-0.415952	0.052823	0.275124	0.105524	0.955600	0.012670	-0.994270	0.106146	0.961325	-0.017096	-0.274885
50069	9.375278	1.504194	-1.805570	0.029474	-0.454953	0.063299	0.279481	0.104859	0.954408	0.012772	-0.994337	0.105505	0.960066	-0.017297	-0.279238
50070	9.379266	1.290913	-1.856789	0.015506	-0.490653	0.067771	0.284191	0.104172	0.953092	0.012765	-0.994403	0.104881	0.958683	-0.017640	-0.283930
50071	9.318506	1.063521	-1.959758	0.034211	-0.528234	0.074452	0.289239	0.103380	0.951658	0.012874	-0.994482	0.104119	0.957170	-0.017863	-0.288974
50072	9.297091	0.961293	-1.969789	0.076151	-0.567763	0.074693	0.294672	0.102610	0.950074	0.013421	-0.994565	0.103253	0.955504	-0.017675	-0.294447
50073	9.351837	1.004112	-2.091177	0.110899	-0.610154	0.075940	0.300485	0.101791	0.948339	0.014249	-0.994657	0.102247	0.953680	-0.017211	-0.300330
50074	9.341815	0.985312	-2.227417	0.125904	-0.640253	0.078025	0.306588	0.100980	0.946471	0.015247	-0.994750	0.101192	0.951720	-0.016593	-0.306518
50075	9.363491	0.881065	-2.363260	0.140442	-0.670388	0.076711	0.312952	0.100150	0.944474	0.016340	-0.994846	0.100077	0.949628	-0.015886	-0.312975
50076	9.380739	0.842019	-2.595778	0.169646	-0.699480	0.074671	0.319591	0.099372	0.942331	0.017749	-0.994939	0.098901	0.947389	-0.014883	-0.319737
50077	9.300077	0.924951	-2.862889	0.193012	-0.720157	0.067552	0.326396	0.098640	0.940072	0.019353	-0.995029	0.097687	0.945035	-0.013691	-0.326682
50078	9.336517	0.949388	-3.130779	0.205652	-0.726236	0.068386	0.333255	0.097937	0.937736	0.021103	-0.995116	0.096430	0.942600	-0.012347	-0.333694
50079	9.314657	0.888505	-3.373955	0.217937	-0.737970	0.067398	0.340195	0.097223	0.935315	0.022925	-0.995203	0.095109	0.940075	-0.010914	-0.340792
50080	9.328956	0.802821	-3.521670	0.246126	-0.743218	0.068501	0.347180	0.096538	0.932816	0.025035	-0.995287	0.093686	0.937464	-0.009173	-0.347960
50081	9.312367	0.880532	-3.636691	0.260538	-0.744409	0.075751	0.354146	0.095765	0.930274	0.027206	-0.995377	0.092110	0.934794	-0.007311	-0.355115
50082	9.498728	0.700433	-3.738378	0.249732	-0.743391	0.097495	0.361104	0.094819	0.927692	0.029223	-0.995479	0.090372	0.932068	-0.005524	-0.362242
50083	9.624509	0.865973	-3.833434	0.268894	-0.740162	0.120438	0.368007	0.093628	0.925097	0.031285	-0.995601	0.088319	0.929296	-0.003560	-0.369317
50084	9.645477	1.116615	-3.876912	0.247188	-0.742447	0.125437	0.374928	0.092430	0.922435	0.033146	-0.995718	0.086301	0.926461	-0.001781	-0.376386
50085	9.654935	1.263807	-3.953330	0.213682	-0.740582	0.131671	0.381801	0.091154	0.919739	0.034624	-0.995837	0.084322	0.923596	-0.000349	-0.383368
50086	9.776539	1.259439	-3.990704	0.195738	-0.728188	0.145876	0.388559	0.089775	0.917040	0.035903	-0.995962	0.082289	0.920724	0.000951	-0.390213
50087	9.762142	1.340984	-4.032910	0.186959	-0.719234	0.155131	0.395205	0.088284	0.914341	0.037014	-0.996093	0.080179	0.917847	0.002156	-0.396929
50088	9.676604	1.298233	-4.011712	0.165933	-0.709802	0.165962	0.401763	0.086724	0.911628	0.037912	-0.996227	0.078064	0.914959	0.003198	-0.403535
50089	9.605698	1.071940	-3.993220	0.133752	-0.705945	0.181412	0.408259	0.084984	0.908902	0.038400	-0.996375	0.075915	0.912058	0.003909	-0.410042
50090	9.597100	0.766235	-3.888158	0.144021	-0.708370	0.195447	0.414775	0.083144	0.906117	0.038948	-0.996526	0.073611	0.909090	0.004759	-0.416573
50091	9.601280	0.655137	-3.672977	0.175396	-0.718842	0.200857	0.421356	0.081223	0.903251	0.039701	-0.996679	0.071104	0.906026	0.005900	-0.423182
50092	9.593296	0.749540	-3.332981	0.206318	-0.741372	0.216198	0.428138	0.079193	0.900237	0.040690	-0.996832	0.068339	0.902797	0.007372	-0.430004
50093	9.737369	0.772000	-3.025047	0.212581	-0.779025	0.238944	0.435235	0.076916	0.897025	0.041576	-0.996998	0.065316	0.899357	0.008867	-0.437126
50094	9.931468	0.714105	-2.669311	0.219611	-0.823012	0.249336	0.442715	0.074586	0.893555	0.042492	-0.997160	0.062180	0.895655	0.010441	-0.444627
50095	10.219061	0.508051	-2.293514	0.223907	-0.878868	0.261922	0.450660	0.072114	0.889778	0.043326	-0.997324	0.058886	0.891644	0.012013	-0.452578
50096	10.452813	0.271080	-2.034036	0.250792	-0.949894	0.252374	0.459206	0.069794	0.885584	0.044447	-0.997465	0.055564	0.887217	0.013846	-0.461145
50097	10.582299	0.114013	-1.799086	0.293360	-1.029161	0.230082	0.468395	0.067695	0.880922	0.045980	-0.997577	0.052212	0.882322	0.016049	-0.470372
50098	10.619183	-0.078577	-1.759514	0.355227	-1.119884	0.197884	0.478323	0.065986	0.875701	0.048202	-0.997643	0.048846	0.876860	0.018846	-0.480376
50099	10.690339	-0.327156	-1.836134	0.409776	-1.208609	0.163722	0.488944	0.064642	0.869917	0.050996	-0.997663	0.045472	0.870823	0.022128	-0.491098
50100	10.813927	-0.570458	-2.068347	0.501657	-1.299513	0.126548	0.500266	0.063758	0.863521	0.054749	-0.997619	0.041941	0.864139	0.026296	-0.502565
50101	10.891911	-0.498790	-2.120862	0.629189	-1.382644	0.095589	0.512196	0.063246	0.856536	0.059685	-0.997495	0.037964	0.856792	0.031678	-0.514688
50102	10.896410	-0.281901	-2.310010	0.765776	-1.464542	0.064868	0.524705	0.063167	0.848937	0.065899	-0.997265	0.033473	0.848730	0.038380	-0.527432
50103	10.833404	-0.399712	-2.752424	0.858119	-1.530525	0.037564	0.537633	0.063479	0.840786	0.072953	-0.996925	0.028619	0.840017	0.045951	-0.540611
50104	10.787512	-0.367367	-2.985584	0.965175	-1.575986	-0.007209	0.550768	0.064389	0.832171	0.081068	-0.996433	0.023445	0.830712	0.054550	-0.554023
50105	10.622473	-0.085818	-3.280416	1.055071	-1.603640	-0.081077	0.563920	0.066189	0.823173	0.090242	-0.995753	0.018245	0.820884	0.063996	-0.567498
50106	10.372531	0.374914	-3.665435	1.094006	-1.629425	-0.169998	0.577023	0.069043	0.813805	0.100144	-0.994883	0.013399	0.810565	0.073766	-0.580984
50107	10.073790	0.729435	-4.174731	1.042964	-1.641848	-0.263408	0.589945	0.072990	0.804138	0.110090	-0.993877	0.009446	0.799903	0.082955	-0.594368
50108	9.732973	1.003009	-4.860555	1.001359	-1.606781	-0.329831	0.602302	0.077708	0.794477	0.120022	-0.992752	0.006111	0.789194	0.091674	-0.607263
50109	9.234105	1.371355	-5.418736	0.969805	-1.573831	-0.391337	0.614126	0.083139	0.784816	0.130016	-0.991506	0.003296	0.778425	0.100014	-0.619720
50110	8.824764	1.415675	-5.903008	0.915941	-1.539228	-0.460216	0.625372	0.089342	0.775195	0.139964	-0.990156	0.001203	0.767672	0.107747	-0.631721
50111	8.470906	1.227161	-6.104314	0.837499	-1.479867	-0.531572	0.635862	0.096287	0.765773	0.149715	-0.988729	0.000005	0.757143	0.114645	-0.643111
50112	8.105387	1.107666	-6.260204	0.814122	-1.411530	-0.566966	0.645567	0.103604	0.756644	0.159494	-0.987199	-0.000906	0.746864	0.121265	-0.653827
50113	7.616801	1.103629	-6.437133	0.746605	-1.313739	-0.579489	0.654340	0.110992	0.748011	0.168814	-0.985647	-0.001421	0.737117	0.127205	-0.663685
50114	7.079939	0.936301	-6.683198	0.661012	-1.189560	-0.568556	0.662036	0.118193	0.740094	0.177430	-0.984132	-0.001551	0.728167	0.132342	-0.672502
50115	6.447786	0.749255	-7.049672	0.576531	-1.041804	-0.562582	0.668537	0.125166	0.733070	0.185363	-0.982669	-0.001263	0.720208	0.136729	-0.680152
50116	5.856007	0.463357	-7.407930	0.520923	-0.878871	-0.564960	0.673732	0.131995	0.727092	0.192926	-0.981213	-0.000639	0.713347	0.140706	-0.686540
50117	5.326216	0.175650	-7.590823	0.497092	-0.723386	-0.560355	0.677746	0.138560	0.722123	0.200260	-0.979743	0.000038	0.707500	0.144586	-0.691764
50118	4.843927	-0.061730	-7.676527	0.508825	-0.579710	-0.570159	0.680634	0.145059	0.718119	0.207762	-0.978179	0.000674	0.702547	0.148739	-0.695920
50119	4.359560	-0.388068	-7.817465	0.507228	-0.459474	-0.577385	0.682607	0.151434	0.714924	0.215267	-0.976554	0.001316	0.698361	0.153001	-0.699201
50120	3.964432	-0.745990	-7.675504	0.593413	-0.376045	-0.581899	0.683915	0.157766	0.712299	0.223420	-0.974721	0.001372	0.694510	0.158203	-0.701874
50121	3.548580	-0.736385	-7.825379	0.707668	-0.310133	-0.566115	0.684748	0.163817	0.710130	0.232213	-0.972665	0.000467	0.690795	0.164582	-0.704071
50122	3.664185	0.643527	-7.258251	0.877476	-0.232750	-0.497278	0.685140	0.169110	0.708509	0.241710	-0.970346	-0.002131	0.687139	0.172714	-0.705699
50123	4.627487	2.668750	-5.816130	0.635961	-0.091038	-0.372838	0.684825	0.172922	0.707893	0.248644	-0.968587	-0.003938	0.684975	0.178710	-0.706308
50124	5.850904	3.763318	-4.750882	-0.057868	0.101459	-0.235409	0.683508	0.175103	0.708630	0.249915	-0.968266	-0.001795	0.685828	0.178325	-0.705578
50125	6.687929	3.711106	-4.484409	-0.908501	0.312080	-0.111100	0.681060	0.175674	0.710842	0.244439	-0.969649	0.005436	0.690222	0.170056	-0.703331
50126	7.164395	3.149570	-4.593893	-1.697257	0.519913	0.007679	0.677431	0.174859	0.714501	0.232684	-0.972398	0.017363	0.697815	0.154490	-0.699419
50127	7.525828	2.231251	-5.038879	-2.289640	0.722001	0.145164	0.672656	0.172444	0.719581	0.215627	-0.975941	0.032314	0.707841	0.133425	-0.693656
50128	7.774141	1.049208	-5.287539	-2.632001	0.930202	0.295286	0.666582	0.168545	0.726127	0.194951	-0.979617	0.048419	0.719488	0.109284	-0.685853
50129	8.046386	-0.019869	-5.587831	-2.699162	1.145451	0.455632	0.659081	0.163002	0.734195	0.172355	-0.982985	0.063516	0.732056	0.084680	-0.675961
50130	7.330616	-0.705767	-9.005394	-2.289787	1.283751	0.571483	0.650491	0.156536	0.743208	0.151792	-0.985583	0.074729	0.744191	0.064203	-0.664874
50131	7.830545	0.322929	-8.170871	-1.698868	1.264615	0.488201	0.641692	0.151042	0.751943	0.135919	-0.987293	0.082327	0.754823	0.049375	-0.654067
50132	9.353438	-1.474647	-7.198081	-1.698194	1.297562	0.322913	0.632207	0.147417	0.760646	0.121031	-0.988471	0.090977	0.765288	0.034545	-0.642761
50133	8.834685	-4.109532	-8.297125	-1.157799	1.266171	0.138910	0.622598	0.145709	0.768857	0.111258	-0.989013	0.097338	0.774593	0.024939	-0.631968
50134	7.638707	-4.174928	-7.804157	-0.274457	1.130674	-0.002178	0.613763	0.145539	0.775960	0.109188	-0.989064	0.099145	0.781904	0.023874	-0.622942
50135	7.715889	-3.293988	-6.923411	0.379753	1.098337	0.037741	0.605160	0.144916	0.782803	0.111951	-0.989013	0.096545	0.788193	0.029211	-0.614734
50136	7.989679	-2.067076	-6.181638	0.749172	1.233892	0.183629	0.595575	0.142738	0.790517	0.116802	-0.989016	0.090581	0.794763	0.038386	-0.605705
50137	7.949509	-0.730129	-5.352421	0.883645	1.441115	0.293270	0.584395	0.139248	0.799433	0.122139	-0.989037	0.082989	0.802225	0.049143	-0.594996
50138	7.934478	0.471376	-5.076572	0.825652	1.619708	0.372073	0.571768	0.134729	0.809277	0.126657	-0.989093	0.075180	0.810580	0.059515	-0.582596
50139	8.187784	1.972985	-4.703445	0.550964	1.760541	0.425170	0.557935	0.129448	0.819727	0.128757	-0.989301	0.068590	0.819836	0.067277	-0.568633
50140	8.395461	3.227356	-4.031208	-0.125887	1.900027	0.447838	0.542796	0.123768	0.830695	0.125261	-0.989950	0.065647	0.830471	0.068420	-0.552844
50141	8.406880	2.983008	-4.068933	-1.008978	1.985497	0.469961	0.526728	0.117871	0.841822	0.114316	-0.991165	0.067254	0.842312	0.060810	-0.535549
50142	8.600063	2.064710	-4.365310	-1.751765	2.043126	0.472454	0.509858	0.112153	0.852916	0.097028	-0.992636	0.072524	0.854769	0.045780	-0.516985
50143	8.781198	0.935793	-4.654359	-2.220211	2.113991	0.482376	0.492048	0.106644	0.864012	0.075499	-0.993957	0.079687	0.867288	0.026023	-0.497126
50144	9.002160	-0.240355	-4.826253	-2.441711	2.183782	0.525240	0.473277	0.101153	0.875087	0.051661	-0.994863	0.087058	0.879398	0.004006	-0.476071
50145	9.302097	-1.143457	-4.908786	-2.383836	2.276654	0.570523	0.453329	0.095672	0.886194	0.027920	-0.995259	0.093164	0.890906	-0.017492	-0.453851
50146	9.425066	-1.644764	-4.649318	-2.112369	2.383297	0.604558	0.432037	0.090347	0.897319	0.006318	-0.995248	0.097165	0.901834	-0.036310	-0.430555
50147	9.297696	-1.550261	-4.411109	-1.743640	2.486037	0.633080	0.409448	0.085182	0.908348	-0.012160	-0.995034	0.098792	0.912253	-0.051496	-0.406378
50148	9.489707	-1.077352	-4.129440	-1.391317	2.572412	0.652504	0.385693	0.080203	0.919134	-0.027525	-0.994771	0.098353	0.922216	-0.063233	-0.381469
50149	9.429446	-0.635060	-3.856918	-1.112051	2.673195	0.674614	0.360662	0.075347	0.929648	-0.040353	-0.994538	0.096262	0.931823	-0.072232	-0.355652
50150	9.714448	-0.210087	-3.647006	-0.874225	2.738358	0.679310	0.334682	0.070690	0.939676	-0.050923	-0.994369	0.092942	0.940954	-0.078957	-0.329197
50151	9.929896	0.170391	-3.454547	-0.659789	2.808508	0.672514	0.307742	0.066330	0.949155	-0.059323	-0.994289	0.088719	0.949619	-0.083609	-0.302049
50152	10.117814	0.569723	-3.415554	-0.472552	2.835796	0.669707	0.280251	0.062108	0.957915	-0.065828	-0.994312	0.083727	0.957667	-0.086523	-0.274568
50153	10.408537	0.833656	-3.281583	-0.330234	2.852501	0.663825	0.252354	0.058042	0.965893	-0.070777	-0.994418	0.078248	0.965043	-0.088109	-0.246838
50154	10.590627	1.129722	-3.104625	-0.274479	2.857396	0.643901	0.224187	0.054199	0.973038	-0.075002	-0.994531	0.072676	0.971656	-0.089273	-0.218896
50155	10.638782	1.084646	-2.927189	-0.278192	2.872602	0.623676	0.195691	0.050623	0.979358	-0.079031	-0.994604	0.067203	0.977476	-0.090551	-0.190634
50156	10.307006	0.705060	-2.799874	-0.211935	2.875940	0.613728	0.166983	0.047161	0.984831	-0.082255	-0.994707	0.061581	0.982523	-0.091290	-0.162220
50157	9.843987	0.137923	-2.596513	-0.064241	2.815281	0.601308	0.138743	0.043785	0.989360	-0.083817	-0.994918	0.055785	0.986775	-0.090665	-0.134368
50158	9.504969	-0.371379	-2.420103	0.256749	2.716637	0.569825	0.111388	0.040556	0.992949	-0.082028	-0.995382	0.049857	0.990386	-0.087004	-0.107546
50159	9.569703	0.034182	-2.188409	0.646977	2.547832	0.467185	0.085726	0.038071	0.995591	-0.076084	-0.996102	0.044641	0.993409	-0.079576	-0.082495
50160	9.572750	0.646613	-1.963140	0.882917	2.376255	0.337390	0.061824	0.036512	0.997419	-0.067594	-0.996883	0.040682	0.995796	-0.069935	-0.059163
50161	9.476661	1.226113	-1.792600	1.030593	2.185389	0.219000	0.039885	0.035780	0.998563	-0.057449	-0.997623	0.038040	0.997551	-0.058883	-0.037735
50162	9.119372	1.731102	-1.790051	1.012051	1.926143	0.133915	0.020565	0.035504	0.999158	-0.047428	-0.998210	0.036446	0.998663	-0.048138	-0.018844
50163	8.552409	1.826347	-1.857486	0.875300	1.663286	0.067832	0.003899	0.035593	0.999359	-0.038710	-0.998612	0.035718	0.999243	-0.038824	-0.002516
50164	8.040871	1.640858	-1.730345	0.717590	1.384551	0.014421	-0.009965	0.035969	0.999303	-0.031571	-0.998866	0.035639	0.999452	-0.031194	0.011090
50165	8.015539	1.390248	-1.772763	0.604055	1.091731	-0.023163	-0.020891	0.036549	0.999113	-0.025556	-0.999025	0.036012	0.999455	-0.024781	0.021805
50166	8.128005	1.093951	-1.900380	0.491615	0.822368	-0.064759	-0.029116	0.037418	0.998875	-0.020685	-0.999108	0.036824	0.999362	-0.019589	0.029864
50167	8.054496	0.818133	-2.097803	0.368360	0.573691	-0.123690	-0.034847	0.038798	0.998639	-0.017062	-0.999124	0.038222	0.999247	-0.015707	0.035479
50168	7.860983	0.407551	-2.241254	0.230637	0.337854	-0.190315	-0.038212	0.040790	0.998437	-0.014849	-0.999079	0.040248	0.999159	-0.013288	0.038782
50169	7.757371	0.254092	-2.362848	0.161937	0.107327	-0.250755	-0.039270	0.043352	0.998288	-0.013348	-0.998992	0.042857	0.999139	-0.011642	0.039809
50170	7.770935	0.219482	-2.626749	0.115465	-0.121583	-0.293747	-0.038034	0.046314	0.998203	-0.012328	-0.998871	0.045875	0.999200	-0.010561	0.038562
50171	7.799741	0.024338	-2.846346	0.077782	-0.329957	-0.318167	-0.034720	0.049501	0.998170	-0.011686	-0.998724	0.049122	0.999329	-0.009959	0.035254
50172	7.775570	-0.098460	-3.265548	0.092483	-0.520552	-0.339241	-0.029492	0.052880	0.998165	-0.010891	-0.998557	0.052579	0.999506	-0.009321	0.030025
50173	7.755297	0.211509	-3.579103	0.108781	-0.696363	-0.344039	-0.022517	0.056295	0.998160	-0.009912	-0.998377	0.056084	0.999697	-0.008631	0.023039
50174	7.788385	0.628637	-3.977550	0.068440	-0.860429	-0.346464	-0.013890	0.059721	0.998118	-0.009311	-0.998179	0.059595	0.999860	-0.008466	0.014420
50175	7.892123	0.863874	-4.055766	-0.009539	-0.976874	-0.343675	-0.004111	0.063108	0.997998	-0.009455	-0.997965	0.063067	0.999947	-0.009177	0.004700
50176	8.667524	0.955790	-2.847371	-0.093299	-0.986280	-0.346168	0.005782	0.066506	0.997769	-0.010401	-0.997728	0.066563	0.999929	-0.010763	-0.005077
50177	9.736755	1.116615	-1.993305	0.041370	-0.879657	-0.347616	0.014591	0.069921	0.997446	-0.009969	-0.997492	0.070070	0.999844	-0.010966	-0.013857
50178	10.500541	2.280866	-1.846226	0.238298	-0.880098	-0.355982	0.023420	0.073426	0.997026	-0.007530	-0.997258	0.073620	0.999697	-0.009232	-0.022803
50179	11.766520	2.828436	-1.637404	0.086020	-0.961440	-0.361328	0.033034	0.076983	0.996485	-0.006585	-0.996991	0.077241	0.999433	-0.009114	-0.032427
50180	12.884257	2.781528	-0.591560	-0.307980	-0.946624	-0.337482	0.042520	0.080293	0.995864	-0.009535	-0.996687	0.080767	0.999050	-0.012929	-0.041614
50181	12.473793	2.151881	-0.815838	-0.633291	-0.875486	-0.248924	0.051275	0.082673	0.995257	-0.015759	-0.996377	0.083578	0.998560	-0.019970	-0.049786
50182	11.425696	2.039045	-1.425632	-0.718092	-0.848456	-0.127591	0.059769	0.083797	0.994689	-0.022847	-0.996094	0.085288	0.997951	-0.027823	-0.057621
50183	10.545980	1.944999	-1.903452	-0.813584	-0.815599	-0.069065	0.067903	0.084265	0.994127	-0.030934	-0.995770	0.086517	0.997212	-0.036627	-0.065009
50184	9.956881	0.845077	-2.267653	-0.965582	-0.786341	-0.086645	0.075774	0.084859	0.993508	-0.040480	-0.995289	0.088099	0.996303	-0.046893	-0.071982
50185	9.571706	-0.796731	-2.523798	-0.890906	-0.756777	-0.117666	0.083343	0.085683	0.992831	-0.049272	-0.994724	0.089982	0.995302	-0.056419	-0.078681
50186	9.248407	-0.925901	-2.676212	-0.585683	-0.740616	-0.146780	0.090792	0.086758	0.992084	-0.054959	-0.994243	0.091977	0.994352	-0.062874	-0.085501
50187	9.197002	0.335980	-2.657492	-0.420580	-0.706808	-0.168073	0.097893	0.088011	0.991298	-0.058994	-0.993817	0.094061	0.993447	-0.067688	-0.092095
50188	9.336982	1.029672	-2.730267	-0.470284	-0.647621	-0.161264	0.104430	0.089212	0.990523	-0.063494	-0.993339	0.096159	0.992503	-0.072934	-0.098070
50189	9.598647	0.972881	-2.744633	-0.531979	-0.561977	-0.153923	0.110087	0.090358	0.989806	-0.068619	-0.992792	0.098263	0.991550	-0.078737	-0.103093
50190	9.807513	0.879175	-2.638647	-0.499107	-0.474759	-0.151247	0.114910	0.091527	0.989150	-0.073387	-0.992243	0.100338	0.990661	-0.084121	-0.107302
50191	10.060877	0.847968	-2.513804	-0.448223	-0.405897	-0.162264	0.119033	0.092830	0.988541	-0.077649	-0.991700	0.102476	0.989849	-0.088957	-0.110837
50192	10.098618	0.657218	-2.546921	-0.359029	-0.349588	-0.183883	0.122650	0.094388	0.987951	-0.080971	-0.991197	0.104751	0.989141	-0.092843	-0.113928
50193	9.800050	0.853306	-2.795984	-0.200647	-0.339194	-0.207027	0.126155	0.096165	0.987338	-0.082710	-0.990805	0.107071	0.988556	-0.095170	-0.117041
50194	9.837107	0.955645	-2.527200	-0.164502	-0.335107	-0.212910	0.129658	0.098004	0.986704	-0.084057	-0.990435	0.109421	0.987989	-0.097127	-0.120180
50195	9.757676	0.712205	-2.336054	-0.137057	-0.290132	-0.206263	0.132680	0.099807	0.986121	-0.085152	-0.990091	0.111666	0.987494	-0.098786	-0.122867
50196	9.581951	1.027859	-2.127063	-0.057545	-0.264795	-0.194243	0.135476	0.101518	0.985566	-0.085455	-0.989833	0.113705	0.987089	-0.099626	-0.125423
50197	9.537974	1.655402	-1.824418	-0.104902	-0.260824	-0.175358	0.138182	0.103037	0.985033	-0.086262	-0.989542	0.115610	0.986643	-0.100946	-0.127849
50198	9.676005	1.750952	-1.605897	-0.254891	-0.254116	-0.159034	0.140844	0.104402	0.984512	-0.088547	-0.989111	0.117557	0.986064	-0.103733	-0.130066
50199	9.728410	1.520513	-1.507247	-0.365161	-0.249143	-0.144284	0.143412	0.105610	0.984012	-0.091953	-0.988567	0.119500	0.985382	-0.107621	-0.132061
50200	9.787256	1.264445	-1.431325	-0.406615	-0.245606	-0.151725	0.145990	0.106893	0.983494	-0.095729	-0.987954	0.121588	0.984643	-0.111900	-0.133999
50201	9.748023	1.041926	-1.470535	-0.389296	-0.237191	-0.157265	0.148461	0.108221	0.982979	-0.099341	-0.987334	0.123704	0.983916	-0.116015	-0.135830
50202	9.593249	0.880543	-1.579918	-0.304833	-0.222640	-0.162303	0.150831	0.109615	0.982464	-0.102087	-0.986793	0.125770	0.983274	-0.119266	-0.137649
50203	9.489026	1.059480	-1.695171	-0.201589	-0.205412	-0.160384	0.152998	0.110995	0.981973	-0.103835	-0.986366	0.127669	0.982756	-0.121497	-0.139387
50204	9.490648	1.316597	-1.953501	-0.140726	-0.186763	-0.154917	0.155012	0.112346	0.981504	-0.104971	-0.986015	0.129441	0.982320	-0.123095	-0.141051
50205	9.506800	1.562371	-2.089297	-0.135947	-0.170494	-0.147026	0.156825	0.113630	0.981068	-0.106088	-0.985674	0.131121	0.981912	-0.124642	-0.142523
50206	9.513634	1.656579	-2.185391	-0.174098	-0.143534	-0.141199	0.158403	0.114894	0.980667	-0.107565	-0.985287	0.132810	0.981498	-0.126523	-0.143714
50207	9.532891	1.593307	-2.229620	-0.192902	-0.104227	-0.138335	0.159558	0.116169	0.980330	-0.109249	-0.984874	0.134489	0.981125	-0.128559	-0.144454
50208	9.508303	1.491137	-2.263606	-0.205872	-0.080350	-0.131604	0.160511	0.117414	0.980026	-0.111047	-0.984447	0.136132	0.980767	-0.130680	-0.144976
50209	9.567190	1.363985	-2.249672	-0.213334	-0.052836	-0.131324	0.161159	0.118682	0.979766	-0.112938	-0.984004	0.137772	0.980445	-0.132856	-0.145177
50210	9.605459	1.288805	-2.166616	-0.194535	-0.032241	-0.127714	0.161640	0.119950	0.979533	-0.114628	-0.983585	0.139362	0.980170	-0.134808	-0.145237
50211	9.683709	1.197317	-2.005058	-0.168641	-0.013888	-0.126789	0.161906	0.121223	0.979332	-0.116086	-0.983195	0.140893	0.979954	-0.136498	-0.145113
50212	9.745930	1.037427	-1.901807	-0.134240	-0.001177	-0.131562	0.162092	0.122568	0.979134	-0.117177	-0.982844	0.142431	0.979794	-0.137819	-0.144949
50213	9.781731	0.874338	-1.646870	-0.101340	-0.004089	-0.138954	0.162279	0.123973	0.978926	-0.117955	-0.982525	0.143982	0.979669	-0.138835	-0.144820
50214	9.740153	0.805066	-1.357611	-0.050917	-0.006326	-0.153158	0.162543	0.125520	0.978685	-0.118198	-0.982256	0.145608	0.979596	-0.139346	-0.144822
50215	9.729212	0.854027	-1.062310	0.030152	-0.031054	-0.172003	0.163033	0.127211	0.978385	-0.117633	-0.982073	0.147292	0.979583	-0.139104	-0.145146
50216	9.619545	1.131611	-0.783002	0.110280	-0.062971	-0.173139	0.163874	0.128873	0.978027	-0.116265	-0.981997	0.148877	0.979606	-0.138108	-0.145940
50217	9.560027	1.520833	-0.489323	0.164046	-0.103091	-0.171933	0.165066	0.130465	0.977616	-0.114385	-0.981991	0.150362	0.979627	-0.136645	-0.147170
50218	9.459479	1.747921	-0.266106	0.180431	-0.146869	-0.166640	0.166713	0.131950	0.977137	-0.112338	-0.982011	0.151775	0.979585	-0.135072	-0.148891
50219	9.374554	1.722331	-0.104466	0.184599	-0.197926	-0.165488	0.168819	0.133354	0.976584	-0.110262	-0.982031	0.153159	0.979460	-0.133536	-0.151082
50220	9.375204	1.532202	-0.084704	0.209447	-0.256978	-0.161347	0.171530	0.134648	0.975934	-0.107931	-0.982085	0.154466	0.979249	-0.131829	-0.153925
50221	9.368192	1.443994	-0.054709	0.257261	-0.318316	-0.160402	0.174801	0.135852	0.975187	-0.105144	-0.982197	0.155675	0.978974	-0.129747	-0.157405
50222	9.340126	1.443370	-0.158288	0.310208	-0.376759	-0.160390	0.178670	0.136993	0.974325	-0.101818	-0.982369	0.156796	0.978627	-0.127218	-0.161572
50223	9.354428	1.612131	-0.368967	0.352136	-0.433018	-0.155206	0.183045	0.138018	0.973368	-0.098101	-0.982590	0.157774	0.978198	-0.124368	-0.166319
50224	9.376357	1.860066	-0.779359	0.349626	-0.477987	-0.145187	0.187873	0.138908	0.972321	-0.094406	-0.982811	0.158648	0.977646	-0.121598	-0.171530
50225	9.407821	2.024276	-1.153777	0.308671	-0.509837	-0.135501	0.192964	0.139671	0.971214	-0.091140	-0.982986	0.159471	0.976964	-0.119289	-0.176951
50226	9.389987	2.045660	-1.513832	0.263226	-0.526649	-0.126912	0.198234	0.140347	0.970055	-0.088311	-0.983113	0.160283	0.976168	-0.117440	-0.182492
50227	9.340902	1.994035	-1.799568	0.231451	-0.528827	-0.116284	0.203477	0.140918	0.968886	-0.085828	-0.983211	0.161027	0.975311	-0.115923	-0.187966
50228	9.341587	1.878356	-2.108005	0.218043	-0.527520	-0.105827	0.208721	0.141405	0.967698	-0.083472	-0.983305	0.161690	0.974406	-0.114523	-0.193433
50229	9.322014	1.913065	-2.302229	0.197410	-0.525598	-0.092565	0.213899	0.141762	0.966515	-0.081361	-0.983391	0.162243	0.973462	-0.113340	-0.198812
50230	9.393241	1.947452	-2.398569	0.175294	-0.514500	-0.077532	0.218979	0.141999	0.965342	-0.079473	-0.983471	0.162694	0.972488	-0.112345	-0.204074
50231	9.377175	1.902234	-2.526842	0.150429	-0.500272	-0.073177	0.223881	0.142203	0.964186	-0.077857	-0.983527	0.163134	0.971502	-0.111591	-0.209121
50232	9.380984	1.801719	-2.665590	0.118979	-0.485994	-0.059128	0.228658	0.142301	0.963050	-0.076551	-0.983568	0.163508	0.970493	-0.111109	-0.214007
50233	9.330416	1.613020	-2.791257	0.105123	-0.465421	-0.055752	0.233196	0.142378	0.961950	-0.075409	-0.983597	0.163862	0.969501	-0.110752	-0.218635
50234	9.315896	1.514652	-2.826418	0.124969	-0.444790	-0.053939	0.237559	0.142474	0.960868	-0.074054	-0.983650	0.164161	0.968546	-0.110154	-0.223125
50235	9.230165	1.532309	-2.822011	0.142600	-0.424239	-0.047115	0.241683	0.142517	0.959832	-0.072567	-0.983731	0.164337	0.967638	-0.109369	-0.227409
50236	9.234498	1.527899	-2.721191	0.146112	-0.405080	-0.047778	0.245648	0.142603	0.958812	-0.071020	-0.983814	0.164516	0.966754	-0.108508	-0.231545
50237	9.274422	1.540946	-2.686479	0.141139	-0.403551	-0.044313	0.249561	0.142647	0.957795	-0.069552	-0.983896	0.164656	0.965858	-0.107709	-0.235621
50238	9.294327	1.508948	-2.629136	0.129094	-0.393538	-0.044743	0.253405	0.142721	0.956774	-0.068176	-0.983962	0.164833	0.964955	-0.106998	-0.239610
50239	9.307730	1.404186	-2.593381	0.128100	-0.387868	-0.052751	0.257163	0.142871	0.955748	-0.066811	-0.984016	0.165074	0.964056	-0.106306	-0.243507
50240	9.303561	1.278743	-2.589335	0.162348	-0.386604	-0.056745	0.260939	0.143076	0.954694	-0.065083	-0.984098	0.165272	0.963159	-0.105261	-0.247478
50241	9.369930	1.386572	-2.686449	0.210940	-0.386641	-0.066711	0.264686	0.143374	0.953617	-0.062883	-0.984215	0.165428	0.962282	-0.103752	-0.251492
50242	9.389750	1.479864	-2.749015	0.234879	-0.382295	-0.072973	0.268422	0.143753	0.952515	-0.060413	-0.984344	0.165581	0.961405	-0.101990	-0.255535
50243	9.354238	1.535098	-2.830036	0.254981	-0.374170	-0.074614	0.272043	0.144154	0.951426	-0.057767	-0.984486	0.165680	0.960550	-0.100033	-0.259496
50244	9.304378	1.694431	-2.822075	0.275700	-0.368077	-0.075008	0.275633	0.144582	0.950327	-0.054899	-0.984643	0.165726	0.959694	-0.097852	-0.263463
50245	9.320096	1.812193	-2.863074	0.272646	-0.361575	-0.066839	0.279119	0.144935	0.949256	-0.052103	-0.984802	0.165682	0.958842	-0.095704	-0.267325
50246	9.324938	1.881670	-2.903071	0.257847	-0.357451	-0.056462	0.282587	0.145207	0.948187	-0.049457	-0.984956	0.165577	0.957966	-0.093685	-0.271155
50247	9.315542	1.929728	-2.919813	0.245393	-0.358523	-0.055398	0.286028	0.145464	0.947116	-0.046954	-0.985095	0.165477	0.957070	-0.091802	-0.274935
50248	9.320349	1.998597	-2.959836	0.223518	-0.357533	-0.038502	0.289480	0.145573	0.946050	-0.044688	-0.985234	0.165277	0.956140	-0.090121	-0.278700
50249	9.308756	1.972336	-2.941989	0.195560	-0.353438	-0.028375	0.292851	0.145581	0.945010	-0.042740	-0.985360	0.165042	0.955202	-0.088723	-0.282341
50250	9.236288	1.984365	-2.950776	0.164876	-0.354165	-0.024068	0.296255	0.145563	0.943951	-0.041076	-0.985462	0.164856	0.954225	-0.087613	-0.285969
50251	9.200145	1.967076	-2.863178	0.139903	-0.357617	-0.016339	0.299654	0.145456	0.942895	-0.039696	-0.985552	0.164653	0.953222	-0.086768	-0.289550
50252	9.228872	1.931086	-2.880216	0.103070	-0.361995	0.001430	0.303115	0.145188	0.941829	-0.038697	-0.985635	0.164395	0.952168	-0.086277	-0.293142
50253	9.188531	1.835973	-2.888960	0.073039	-0.371882	0.003064	0.306633	0.144881	0.940737	-0.038015	-0.985695	0.164196	0.951068	-0.086110	-0.296739
50254	9.178875	1.656721	-2.954235	0.061480	-0.372929	0.005515	0.310189	0.144565	0.939619	-0.037424	-0.985747	0.164017	0.949938	-0.086041	-0.300358
50255	9.207229	1.543696	-3.014577	0.082922	-0.383833	0.008769	0.313811	0.144193	0.938473	-0.036667	-0.985824	0.163730	0.948777	-0.085791	-0.304075
50256	9.264414	1.444758	-3.145769	0.118150	-0.385107	0.008505	0.317472	0.143840	0.937295	-0.035551	-0.985928	0.163345	0.947601	-0.085179	-0.307891
50257	9.288116	1.455764	-3.199097	0.166155	-0.382369	0.006931	0.321071	0.143492	0.936121	-0.034002	-0.986071	0.162810	0.946444	-0.084104	-0.311720
50258	9.273326	1.571815	-3.305767	0.192078	-0.382412	0.003788	0.324700	0.143194	0.934915	-0.032175	-0.986229	0.162228	0.945270	-0.082756	-0.315621
50259	9.251882	1.667921	-3.334500	0.192816	-0.379278	0.001665	0.328263	0.142911	0.933713	-0.030361	-0.986382	0.161646	0.944098	-0.081411	-0.319454
50260	9.298189	1.577777	-3.289934	0.178923	-0.374361	0.002489	0.331807	0.142642	0.932500	-0.028658	-0.986521	0.161103	0.942912	-0.080179	-0.323247
50261	9.305133	1.520780	-3.262972	0.184223	-0.381525	0.006010	0.335381	0.142324	0.931270	-0.026944	-0.986669	0.160494	0.941697	-0.078919	-0.327076
50262	9.279494	1.430767	-3.086889	0.191389	-0.374954	-0.006240	0.338924	0.142150	0.930013	-0.025100	-0.986802	0.159977	0.940479	-0.077563	-0.330883
50263	9.294557	1.126433	-2.998175	0.193454	-0.397049	0.000798	0.342636	0.141881	0.928693	-0.023286	-0.986944	0.159371	0.939180	-0.076232	-0.334859
50264	9.221274	1.167979	-2.909035	0.212014	-0.413425	-0.001865	0.346529	0.141644	0.927284	-0.021269	-0.987093	0.158728	0.937798	-0.074726	-0.339044
50265	9.174049	1.361528	-2.731848	0.194497	-0.445674	-0.009455	0.350687	0.141451	0.925748	-0.019414	-0.987217	0.158198	0.936291	-0.073451	-0.343458
50266	9.146458	1.324326	-2.596116	0.162093	-0.481774	-0.015793	0.355209	0.141311	0.924044	-0.017823	-0.987304	0.157836	0.934617	-0.072534	-0.348181
50267	9.154365	1.231930	-2.444586	0.159460	-0.520435	-0.017250	0.360051	0.141150	0.922193	-0.016273	-0.987388	0.157482	0.932791	-0.071708	-0.353213
50268	9.133064	1.200335	-2.571443	0.188527	-0.565216	-0.028849	0.365333	0.141086	0.920123	-0.014393	-0.987473	0.157128	0.930766	-0.070648	-0.358726
50269	9.120271	1.203957	-2.550168	0.219478	-0.601083	-0.039564	0.370906	0.141100	0.917888	-0.012207	-0.987564	0.156744	0.928590	-0.069342	-0.364571
50270	9.166541	1.103819	-2.706008	0.276543	-0.650853	-0.043447	0.376956	0.141136	0.915415	-0.009464	-0.987684	0.156176	0.926183	-0.067535	-0.370978
50271	9.141817	1.192518	-2.863417	0.355805	-0.688923	-0.048180	0.383312	0.141200	0.912762	-0.005989	-0.987845	0.155330	0.923600	-0.065007	-0.377807
50272	9.182894	1.355011	-3.121053	0.409319	-0.723822	-0.054652	0.389997	0.141330	0.909906	-0.001989	-0.988020	0.154316	0.920814	-0.061992	-0.385044
50273	9.171624	1.578383	-3.355532	0.433384	-0.747441	-0.053871	0.396849	0.141455	0.906919	0.002209	-0.988198	0.153166	0.917881	-0.058781	-0.392477
50274	9.171720	1.665231	-3.644485	0.429931	-0.761469	-0.053019	0.403831	0.141593	0.903810	0.006375	-0.988361	0.151991	0.914811	-0.055617	-0.400033
50275	9.128544	1.710477	-3.912680	0.418615	-0.766862	-0.043872	0.410810	0.141656	0.900649	0.010379	-0.988519	0.150742	0.911662	-0.052579	-0.407564
50276	9.133806	1.740988	-4.192007	0.398311	-0.770936	-0.031524	0.417828	0.141623	0.897420	0.014150	-0.988670	0.149436	0.908416	-0.049740	-0.415098
50277	9.293973	1.688330	-4.446418	0.389568	-0.759085	-0.019965	0.424688	0.141497	0.894214	0.017769	-0.988823	0.148029	0.905165	-0.046977	-0.422456
50278	9.383934	1.714450	-4.578756	0.370204	-0.743454	-0.007781	0.431409	0.141286	0.891024	0.021164	-0.988974	0.146570	0.901908	-0.044374	-0.429643
50279	9.416669	1.700951	-4.716038	0.347389	-0.726921	-0.002621	0.437932	0.141041	0.887875	0.024307	-0.989113	0.145134	0.898679	-0.041978	-0.436593
50280	9.362783	1.618434	-4.755636	0.317785	-0.711056	0.004046	0.444317	0.140763	0.884742	0.027158	-0.989241	0.143750	0.895458	-0.039843	-0.443360
50281	9.384251	1.481462	-4.716691	0.293930	-0.697906	0.015981	0.450539	0.140376	0.881651	0.029718	-0.989371	0.142341	0.892262	-0.037930	-0.449923
50282	9.591171	1.382547	-4.673329	0.288218	-0.683493	0.023186	0.456639	0.139946	0.878576	0.032199	-0.989503	0.140880	0.889069	-0.036042	-0.456352
50283	9.664187	1.228104	-4.519509	0.295163	-0.678954	0.025947	0.462652	0.139495	0.875496	0.034704	-0.989636	0.139342	0.885860	-0.034084	-0.462699
50284	9.625514	1.141908	-4.247651	0.318662	-0.669144	0.021093	0.468581	0.139116	0.872398	0.037441	-0.989763	0.137721	0.882627	-0.031870	-0.468993
50285	9.659709	1.175300	-4.088476	0.338549	-0.684830	0.029019	0.474605	0.138662	0.869208	0.040292	-0.989901	0.135915	0.879276	-0.029484	-0.475398
50286	9.749543	1.065489	-3.818970	0.346611	-0.714761	0.032779	0.480893	0.138184	0.865821	0.043194	-0.990037	0.134018	0.875715	-0.027051	-0.482071
50287	9.816773	0.904012	-3.596535	0.369815	-0.737559	0.033984	0.487333	0.137701	0.862291	0.046267	-0.990173	0.131975	0.871990	-0.024421	-0.488915
50288	9.833422	0.790109	-3.319809	0.409197	-0.781749	0.027682	0.494148	0.137293	0.858468	0.049704	-0.990298	0.129766	0.867956	-0.021454	-0.496178
50289	9.890731	0.807351	-2.994968	0.443225	-0.841920	0.015973	0.501425	0.137011	0.854284	0.053469	-0.990402	0.127458	0.863548	-0.018233	-0.503937
50290	9.917272	0.693802	-2.753924	0.443540	-0.909049	0.009005	0.509256	0.136812	0.849671	0.057252	-0.990482	0.125171	0.858708	-0.015098	-0.512242
50291	10.012926	0.485505	-2.565207	0.433830	-0.983411	-0.003171	0.517652	0.136753	0.844592	0.060990	-0.990531	0.123001	0.853415	-0.012160	-0.521091
50292	10.028486	0.303877	-2.474561	0.443932	-1.060459	-0.019967	0.526655	0.136873	0.838988	0.064875	-0.990546	0.120875	0.847600	-0.009230	-0.530555
50293	10.009092	0.141103	-2.473564	0.444348	-1.141467	-0.060726	0.536232	0.137428	0.832808	0.068958	-0.990491	0.119048	0.841249	-0.006408	-0.540609
50294	9.901360	-0.093855	-2.670494	0.457152	-1.224013	-0.091570	0.546414	0.138303	0.826017	0.073282	-0.990383	0.117347	0.834303	-0.003588	-0.551294
50295	9.848602	-0.224641	-2.815594	0.511241	-1.301835	-0.130410	0.557106	0.139612	0.818622	0.078257	-0.990206	0.115617	0.826746	-0.000348	-0.562575
50296	9.752533	-0.299632	-2.981793	0.586613	-1.377684	-0.176150	0.568286	0.141397	0.810591	0.084064	-0.989947	0.113748	0.818526	0.003500	-0.574459
50297	9.733805	-0.153466	-3.128193	0.680753	-1.451165	-0.220474	0.579886	0.143707	0.801923	0.090883	-0.989587	0.111617	0.809613	0.008156	-0.586908
50298	9.694367	0.133061	-3.446294	0.740892	-1.511518	-0.256849	0.591795	0.146420	0.792679	0.098332	-0.989134	0.109295	0.800068	0.013266	-0.599763
50299	9.672897	0.424736	-3.825481	0.772113	-1.565867	-0.291538	0.603925	0.149594	0.782877	0.106226	-0.988573	0.106954	0.789931	0.018570	-0.612914
50300	9.643151	0.685095	-4.408475	0.799235	-1.604074	-0.327313	0.616134	0.153173	0.772604	0.114470	-0.987908	0.104571	0.779279	0.024011	-0.626217
50301	9.375964	0.964332	-5.029486	0.801543	-1.638560	-0.362774	0.628360	0.157235	0.761867	0.122943	-0.987124	0.102325	0.768146	0.029370	-0.639600
50302	9.047493	1.112494	-5.739121	0.796936	-1.646949	-0.393124	0.640400	0.161639	0.750840	0.131488	-0.986244	0.100169	0.756703	0.034578	-0.652844
50303	8.526582	1.454096	-6.190580	0.850155	-1.637815	-0.448211	0.652065	0.166712	0.739607	0.140783	-0.985184	0.097947	0.744977	0.040256	-0.665874
50304	8.159866	1.757893	-6.503361	0.838897	-1.636789	-0.521417	0.663384	0.172547	0.728113	0.150388	-0.983940	0.096154	0.733011	0.045712	-0.678679
50305	8.040083	1.758179	-6.780868	0.750329	-1.632216	-0.561887	0.674357	0.178896	0.716407	0.159618	-0.982586	0.095116	0.720947	0.050209	-0.691168
50306	7.935501	2.027100	-6.729205	0.640934	-1.594210	-0.577108	0.684791	0.185392	0.704763	0.168103	-0.981203	0.094772	0.709086	0.053574	-0.703084
50307	7.646524	2.044521	-6.876096	0.511066	-1.510640	-0.573438	0.694410	0.191881	0.693525	0.175670	-0.979835	0.095202	0.697807	0.055723	-0.714115
50308	7.181473	2.051535	-7.086863	0.428336	-1.424465	-0.557464	0.703255	0.198150	0.682766	0.182519	-0.978506	0.095982	0.687110	0.057118	-0.724305
50309	6.730791	2.088690	-7.186069	0.359685	-1.318178	-0.530073	0.711240	0.204132	0.672657	0.188740	-0.977225	0.096994	0.677137	0.057971	-0.733570
50310	6.256774	1.968663	-7.415566	0.274821	-1.211503	-0.508365	0.718393	0.209813	0.663242	0.194215	-0.976012	0.098391	0.667976	0.058129	-0.741909
50311	5.811068	1.617616	-7.677770	0.233670	-1.092229	-0.470461	0.724696	0.215077	0.654644	0.199181	-0.974869	0.099790	0.659654	0.058075	-0.749322
50312	5.402535	1.492499	-7.854080	0.264520	-0.973746	-0.432793	0.730188	0.219879	0.646900	0.204063	-0.973770	0.100645	0.652062	0.058518	-0.755904
50313	5.002889	1.358925	-8.016305	0.296735	-0.839716	-0.392876	0.734801	0.224239	0.640144	0.208886	-0.972714	0.100963	0.645317	0.059529	-0.761592
50314	4.656681	1.158604	-8.177354	0.343952	-0.699297	-0.355610	0.738520	0.228140	0.634460	0.213719	-0.971698	0.100633	0.639462	0.061276	-0.766377
50315	4.250017	0.998105	-8.334430	0.457428	-0.574952	-0.319860	0.741467	0.231648	0.629735	0.219020	-0.970667	0.099181	0.634238	0.064385	-0.770452
50316	4.036775	0.875797	-8.269820	0.581621	-0.466045	-0.309117	0.743705	0.234983	0.625849	0.224998	-0.969553	0.096663	0.629507	0.068926	-0.773931
50317	4.088529	0.861980	-7.891519	0.661978	-0.334798	-0.287456	0.745126	0.238049	0.622992	0.231313	-0.968389	0.093366	0.625525	0.074537	-0.776636
50318	3.982713	0.950280	-7.385619	0.732613	-0.184977	-0.227205	0.745728	0.240420	0.621360	0.237590	-0.967269	0.089117	0.622448	0.081171	-0.778441
50319	4.710042	1.449801	-5.612914	0.671474	-0.000624	-0.153305	0.745340	0.241942	0.621235	0.242928	-0.966324	0.084881	0.620850	0.087650	-0.779014
50320	5.979077	2.076587	-3.971461	0.386674	0.243508	-0.071004	0.743633	0.242442	0.623083	0.245874	-0.965798	0.082348	0.621737	0.091963	-0.777808
50321	6.992169	2.255322	-4.313978	-0.095958	0.524746	0.017087	0.740377	0.241833	0.627183	0.245169	-0.965919	0.083026	0.625886	0.092295	-0.774434
50322	7.603119	2.129059	-4.627430	-0.460113	0.794670	0.121190	0.735646	0.239974	0.633433	0.241397	-0.966621	0.085852	0.632892	0.089752	-0.769020
50323	7.892067	1.810075	-4.766785	-0.789258	1.070459	0.250542	0.729391	0.236657	0.641858	0.234548	-0.967898	0.090335	0.642632	0.084657	-0.761484
50324	8.018855	1.227339	-4.771970	-1.033066	1.343459	0.384905	0.721534	0.231875	0.652398	0.225072	-0.969631	0.095703	0.654776	0.077784	-0.751810
50325	8.019843	0.480298	-4.998323	-1.191417	1.583248	0.506777	0.712144	0.225827	0.664721	0.213573	-0.971661	0.101295	0.668758	0.069830	-0.740193
50326	7.982139	0.114855	-5.330596	-1.155487	1.802005	0.599776	0.701172	0.218834	0.678579	0.201531	-0.973753	0.105783	0.683918	0.062583	-0.726870
50327	7.836313	0.339853	-5.773733	-1.059476	1.987588	0.654593	0.688677	0.211309	0.693594	0.189669	-0.975784	0.108956	0.699821	0.056518	-0.712079
50328	7.279201	0.727404	-7.877128	-1.012108	2.122202	0.680424	0.674872	0.203550	0.709306	0.177867	-0.977735	0.111348	0.716178	0.051017	-0.696051
50329	5.737965	2.007048	-11.707943	-0.479070	1.950724	0.606131	0.661798	0.196672	0.723425	0.170368	-0.979182	0.110348	0.730067	0.050220	-0.681527
50330	7.678821	2.477688	-8.478057	-0.646043	1.701054	0.430584	0.649964	0.191656	0.735401	0.162793	-0.980328	0.111608	0.742324	0.047177	-0.668378
50331	9.298511	-0.187151	-9.126400	-0.883266	1.521905	0.282006	0.639005	0.188258	0.745809	0.154384	-0.981247	0.115412	0.753550	0.041392	-0.656086
50332	8.275532	-1.412408	-8.709925	-0.581469	1.302877	0.148150	0.629325	0.186318	0.754477	0.149040	-0.981750	0.118125	0.762717	0.038109	-0.645609
50333	7.080459	-1.606447	-7.641379	-0.252711	1.181376	0.099195	0.620392	0.184936	0.762176	0.146497	-0.982023	0.119036	0.770488	0.037807	-0.636332
50334	7.248897	-1.541485	-6.786151	0.025189	1.255790	0.193253	0.610927	0.182567	0.770349	0.145494	-0.982366	0.117429	0.778203	0.040340	-0.626715
50335	7.270306	-1.087839	-5.707905	0.269406	1.477046	0.270559	0.599740	0.179314	0.779845	0.145976	-0.982732	0.113702	0.786768	0.045647	-0.615559
50336	7.033382	-0.481666	-5.130543	0.401108	1.700909	0.276052	0.586659	0.175773	0.790528	0.147493	-0.983025	0.109118	0.796289	0.052582	-0.602626
50337	7.172401	0.453594	-5.071561	0.448159	1.878554	0.271759	0.571984	0.172082	0.802011	0.149521	-0.983239	0.104330	0.806522	0.060242	-0.588127
50338	7.650372	1.581731	-4.809911	0.218139	2.057995	0.274616	0.555658	0.168087	0.814243	0.149718	-0.983570	0.100871	0.817820	0.065857	-0.571694
50339	7.993410	2.137004	-4.574048	-0.258630	2.221332	0.277975	0.537738	0.163917	0.827024	0.146076	-0.984197	0.100089	0.830361	0.066986	-0.553185
50340	8.153034	1.739980	-4.739529	-0.757073	2.332851	0.282269	0.518587	0.159626	0.839993	0.138222	-0.985148	0.101875	0.843779	0.063275	-0.532948
50341	8.539244	1.163414	-4.827123	-1.065185	2.427618	0.284597	0.498289	0.155406	0.852970	0.127721	-0.986229	0.105073	0.857552	0.056585	-0.511275
50342	8.719634	0.667537	-4.901304	-1.256329	2.523591	0.287268	0.476795	0.151262	0.865902	0.115434	-0.987326	0.108912	0.871402	0.048025	-0.488213
50343	8.871385	0.239537	-4.867517	-1.334776	2.618088	0.320409	0.454126	0.147003	0.878726	0.102223	-0.988378	0.112517	0.885054	0.038729	-0.463875
50344	8.980317	0.035361	-4.901108	-1.298386	2.734856	0.365370	0.430061	0.142462	0.891489	0.088999	-0.989351	0.115167	0.898402	0.029812	-0.438160
50345	8.998284	-0.009868	-4.735191	-1.159835	2.843551	0.412011	0.404648	0.137684	0.904048	0.076786	-0.990225	0.116440	0.911243	0.022301	-0.411265
50346	9.248970	-0.067514	-4.554335	-0.969911	2.962246	0.450894	0.377769	0.132647	0.916349	0.066085	-0.991023	0.116213	0.923538	0.016655	-0.383144
50347	9.375732	-0.167875	-4.383851	-0.718014	3.068051	0.495227	0.349538	0.127316	0.928232	0.057610	-0.991770	0.114337	0.935150	0.013510	-0.353996
50348	9.602188	0.026926	-4.165496	-0.411073	3.139954	0.526673	0.320269	0.121673	0.939480	0.051933	-0.992481	0.110834	0.945902	0.013293	-0.324179
50349	10.055164	0.314657	-4.166520	-0.109148	3.202400	0.540227	0.290067	0.115883	0.949964	0.049243	-0.993134	0.106113	0.955738	0.015999	-0.293782
50350	10.287408	0.596431	-4.151650	0.160069	3.263578	0.544000	0.258974	0.109873	0.959615	0.049233	-0.993719	0.100491	0.964629	0.021220	-0.262757
50351	10.382880	0.837791	-3.880715	0.385796	3.310344	0.545968	0.227161	0.103663	0.968324	0.051636	-0.994202	0.094320	0.972487	0.028575	-0.231196
50352	10.050578	0.906719	-3.459505	0.515490	3.339392	0.572205	0.194854	0.096881	0.976036	0.055403	-0.994608	0.087664	0.979266	0.036994	-0.199170
50353	9.678777	0.781079	-3.251757	0.669274	3.308333	0.575663	0.162673	0.089811	0.982584	0.060938	-0.994862	0.080845	0.984797	0.046725	-0.167310
50354	9.955136	1.358465	-2.407375	0.995828	3.160982	0.510106	0.131790	0.083067	0.987791	0.069956	-0.994778	0.074321	0.988806	0.059307	-0.136912
50355	10.537082	0.991437	-3.608879	1.053435	2.851627	0.443821	0.103861	0.076820	0.991621	0.079851	-0.994438	0.068675	0.991381	0.072050	-0.109418
50356	10.135620	1.510120	-3.160584	1.215315	2.552400	0.369436	0.078835	0.071141	0.994346	0.091514	-0.993755	0.063844	0.992678	0.085963	-0.084853
50357	9.051762	1.827995	-2.960027	1.171109	2.287710	0.308228	0.056393	0.066002	0.996225	0.102919	-0.992881	0.059955	0.993090	0.099149	-0.062785
50358	8.539628	2.000269	-2.343240	1.076316	2.012743	0.325710	0.036739	0.060670	0.997481	0.113403	-0.991961	0.056158	0.992870	0.111054	-0.043324
50359	8.397802	2.189614	-1.705152	0.877944	1.772559	0.348355	0.019528	0.055201	0.998284	0.122004	-0.991144	0.052420	0.992338	0.120771	-0.026089
50360	8.249532	2.222117	-2.078167	0.620125	1.426041	0.353822	0.005804	0.049947	0.998735	0.128067	-0.990565	0.048794	0.991749	0.127622	-0.012146
50361	7.984444	2.046021	-2.281638	0.027509	1.120748	0.273101	-0.004988	0.045846	0.998936	0.128321	-0.990660	0.046107	0.991720	0.128415	-0.000942
50362	7.170413	0.876201	-2.178430	-0.322735	0.778446	0.137508	-0.012551	0.043524	0.998974	0.125097	-0.991135	0.044754	0.992065	0.125531	0.006995
50363	7.302835	0.544442	-2.356510	-0.406413	0.410534	-0.004524	-0.016657	0.043101	0.998932	0.121046	-0.991635	0.044804	0.992507	0.121663	0.011301
50364	7.814480	-0.147508	-2.721443	-0.412755	0.067971	-0.099065	-0.017463	0.044033	0.998877	0.116900	-0.992088	0.045777	0.992990	0.117569	0.012177
50365	8.153274	-0.644053	-3.359144	-0.279770	-0.209995	-0.132255	-0.015556	0.045629	0.998837	0.114082	-0.992354	0.047110	0.993350	0.114682	0.010232
50366	7.933135	-0.060075	-3.884555	-0.171237	-0.449834	-0.121180	-0.011232	0.047374	0.998814	0.112333	-0.992494	0.048337	0.993607	0.112743	0.005826
50367	7.636563	0.704743	-4.414384	-0.234234	-0.658500	-0.129001	-0.004858	0.049428	0.998766	0.109977	-0.992693	0.049662	0.993922	0.110083	-0.000614
50368	7.322297	1.029706	-4.968620	-0.307911	-0.857055	-0.156800	0.003490	0.051945	0.998644	0.106888	-0.992948	0.051275	0.994265	0.106564	-0.009018
50369	7.593233	1.110394	-5.165935	-0.251399	-1.071711	-0.228982	0.013879	0.055385	0.998369	0.104391	-0.993089	0.053641	0.994439	0.103476	-0.019565
50370	8.496518	0.705769	-5.608581	-0.183184	-1.269825	-0.290893	0.026211	0.059608	0.997878	0.102610	-0.993109	0.056628	0.994376	0.100908	-0.032147
50371	9.715734	0.864038	-4.042872	-0.033380	-1.325064	-0.346390	0.039004	0.064417	0.997161	0.102374	-0.992926	0.060139	0.993981	0.099738	-0.045322
50372	11.119870	1.224521	-2.225592	-0.077174	-1.154102	-0.362617	0.050115	0.069199	0.996343	0.101757	-0.992759	0.063831	0.993546	0.098186	-0.056793
50373	11.749853	0.521928	-2.360008	-0.227522	-0.938316	-0.293495	0.059115	0.073060	0.995574	0.099642	-0.992769	0.066938	0.993266	0.095244	-0.065967
50374	11.544562	0.763676	-2.322211	-0.054312	-0.815730	-0.211797	0.067019	0.075975	0.994855	0.099228	-0.992661	0.069123	0.992805	0.094085	-0.074065
50375	10.889515	2.583519	-1.758853	0.089840	-0.734844	-0.151629	0.074135	0.078213	0.994176	0.100212	-0.992458	0.070605	0.992200	0.094394	-0.081414
50376	10.822863	3.788535	-1.401956	-0.122801	-0.663951	-0.137104	0.080600	0.080238	0.993512	0.099097	-0.992461	0.072114	0.991808	0.092641	-0.087944
50377	10.438851	2.763438	-2.033369	-0.526473	-0.594607	-0.142288	0.086335	0.082225	0.992867	0.093980	-0.992816	0.074049	0.991824	0.086917	-0.093442
50378	10.033326	1.012468	-2.993236	-0.692718	-0.563292	-0.130180	0.091819	0.084039	0.992223	0.087235	-0.993280	0.076056	0.991947	0.079573	-0.098534
50379	9.547622	0.850643	-3.303059	-0.648539	-0.535791	-0.096336	0.097028	0.085445	0.991607	0.080879	-0.993690	0.077710	0.991990	0.072660	-0.103327
50380	9.501102	1.174203	-3.339442	-0.686942	-0.522469	-0.067706	0.102178	0.086532	0.990995	0.074144	-0.994101	0.079159	0.991999	0.065388	-0.107991
50381	9.507093	0.804820	-3.419635	-0.711352	-0.497604	-0.049649	0.107054	0.087374	0.990407	0.067127	-0.994493	0.080478	0.991985	0.057867	-0.112330
50382	9.708087	0.441158	-3.122396	-0.688072	-0.481398	-0.034789	0.111830	0.088037	0.989820	0.060355	-0.994831	0.081664	0.991893	0.050608	-0.116565
50383	10.039609	0.334377	-2.654056	-0.682338	-0.432701	-0.049874	0.116070	0.088778	0.989266	0.053631	-0.995105	0.083010	0.991792	0.043421	-0.120263
50384	10.078730	0.259888	-2.489236	-0.662601	-0.386167	-0.067422	0.119891	0.089659	0.988730	0.047155	-0.995304	0.084537	0.991667	0.036488	-0.123556
50385	10.086796	0.134374	-2.152563	-0.636218	-0.339771	-0.104572	0.123191	0.090854	0.988215	0.040961	-0.995417	0.086410	0.991537	0.029833	-0.126348
50386	10.133224	-0.470537	-1.868364	-0.555269	-0.295836	-0.131650	0.126101	0.092299	0.987714	0.035632	-0.995441	0.088472	0.991377	0.024038	-0.128815
50387	9.971119	-1.022257	-1.695059	-0.351395	-0.265418	-0.159388	0.128655	0.093986	0.987226	0.032340	-0.995367	0.090546	0.991162	0.020278	-0.131098
50388	9.739662	-0.864866	-1.543668	-0.064306	-0.263707	-0.203756	0.131231	0.096115	0.986681	0.031973	-0.995181	0.092690	0.990836	0.019384	-0.133672
50389	9.514776	-0.322745	-1.340693	0.163575	-0.276705	-0.238847	0.133871	0.098589	0.986082	0.033899	-0.994912	0.094870	0.990419	0.020727	-0.136532
50390	9.436828	0.380810	-1.125049	0.289608	-0.299509	-0.263056	0.136772	0.101316	0.985408	0.037122	-0.994581	0.097106	0.989907	0.023298	-0.139792
50391	9.402797	0.989720	-0.978726	0.281869	-0.321702	-0.269961	0.139829	0.104121	0.984686	0.040273	-0.994231	0.099411	0.989356	0.025756	-0.143215
50392	9.399945	1.249322	-0.928342	0.187799	-0.343970	-0.263180	0.143150	0.106871	0.983914	0.042501	-0.993899	0.101772	0.988788	0.027249	-0.146819
50393	9.402125	1.273167	-0.929736	0.109538	-0.356362	-0.259582	0.146538	0.109591	0.983116	0.043949	-0.993584	0.104207	0.988228	0.027937	-0.150414
50394	9.446407	1.246234	-1.066914	0.076947	-0.369454	-0.253596	0.150102	0.112257	0.982277	0.045085	-0.993277	0.106625	0.987642	0.028282	-0.154154
50395	9.475520	1.338079	-1.329017	0.069319	-0.372527	-0.247348	0.153644	0.114861	0.981428	0.046134	-0.992972	0.108990	0.987049	0.028532	-0.157863
50396	9.489357	1.382552	-1.586742	0.057833	-0.373134	-0.242338	0.157239	0.117418	0.980555	0.047083	-0.992669	0.111319	0.986438	0.028664	-0.161615
50397	9.463690	1.396425	-1.742922	0.041492	-0.360531	-0.234110	0.160660	0.119887	0.979702	0.047854	-0.992375	0.113590	0.985849	0.028633	-0.165172
50398	9.366890	1.405716	-1.877979	0.015259	-0.358710	-0.227541	0.164112	0.122292	0.978832	0.048377	-0.992089	0.115838	0.985255	0.028343	-0.168730
50399	9.377778	1.490647	-1.973146	-0.033739	-0.360519	-0.213061	0.167537	0.124548	0.977967	0.048388	-0.991831	0.118025	0.984678	0.027548	-0.172195
50400	9.493711	1.479434	-1.987641	-0.108786	-0.359860	-0.200982	0.171008	0.126684	0.977091	0.047663	-0.991602	0.120224	0.984116	0.026012	-0.175610
50401	9.605672	1.254544	-2.120529	-0.171792	-0.350444	-0.192046	0.174343	0.128718	0.976236	0.046294	-0.991395	0.122449	0.983596	0.023846	-0.178802
50402	9.635532	0.979340	-2.227788	-0.183298	-0.341902	-0.195604	0.177642	0.130782	0.975366	0.044843	-0.991176	0.124735	0.983073	0.021580	-0.181939
50403	9.629627	0.800903	-2.236708	-0.146248	-0.331881	-0.208277	0.180789	0.132956	0.974494	0.043769	-0.990927	0.127078	0.982548	0.019679	-0.184968
50404	9.581750	0.815588	-2.200883	-0.076258	-0.317985	-0.220880	0.183843	0.135252	0.973606	0.043429	-0.990639	0.129417	0.981996	0.018490	-0.187995
50405	9.555813	0.883132	-2.082218	-0.013800	-0.317292	-0.227651	0.186835	0.137606	0.972706	0.043706	-0.990325	0.131704	0.981419	0.017906	-0.191042
50406	9.494844	0.975857	-2.043566	0.051600	-0.309803	-0.234338	0.189799	0.140027	0.971786	0.044658	-0.989984	0.133927	0.980807	0.017979	-0.194151
50407	9.547408	1.174414	-1.917378	0.123298	-0.319712	-0.229154	0.192806	0.142396	0.970850	0.046297	-0.989632	0.135956	0.980144	0.018734	-0.197400
50408	9.556557	1.328115	-1.832734	0.163959	-0.326532	-0.228586	0.195924	0.144765	0.969875	0.048351	-0.989266	0.137892	0.979426	0.019878	-0.200821
50409	9.574187	1.384594	-1.695229	0.176638	-0.339823	-0.231000	0.199114	0.147161	0.968864	0.050528	-0.988887	0.139818	0.978673	0.021115	-0.204337
50410	9.467282	1.292063	-1.586764	0.199876	-0.361993	-0.234583	0.202560	0.149603	0.967775	0.052959	-0.988489	0.141721	0.977837	0.022545	-0.208151
50411	9.383931	1.293688	-1.490920	0.232887	-0.391228	-0.235213	0.206233	0.152061	0.966615	0.055707	-0.988074	0.143551	0.976916	0.024243	-0.212244
50412	9.339308	1.408183	-1.433604	0.262523	-0.429077	-0.239272	0.210311	0.154576	0.965337	0.058773	-0.987634	0.145342	0.975866	0.026169	-0.216795
50413	9.387976	1.574746	-1.596735	0.277238	-0.463164	-0.230411	0.214665	0.157019	0.963983	0.061958	-0.987194	0.147002	0.974720	0.028171	-0.221645
50414	9.384898	1.716331	-1.837498	0.287188	-0.489441	-0.216632	0.219319	0.159343	0.962553	0.065231	-0.986761	0.148487	0.973470	0.030222	-0.226809
50415	9.366302	1.944793	-2.191076	0.298497	-0.501460	-0.207153	0.224035	0.161585	0.961092	0.068586	-0.986328	0.149840	0.972165	0.032348	-0.232054
50416	9.306049	2.102623	-2.547762	0.281859	-0.505622	-0.189210	0.228837	0.163664	0.959608	0.071759	-0.985920	0.151039	0.970816	0.034297	-0.237359
50417	9.214203	2.280083	-2.785257	0.260607	-0.501722	-0.171924	0.233555	0.165576	0.958142	0.074678	-0.985539	0.152107	0.969472	0.036026	-0.242542
50418	9.198970	2.306108	-3.059217	0.220848	-0.485747	-0.146542	0.238171	0.167246	0.956715	0.077173	-0.985206	0.153014	0.968152	0.037389	-0.247555
50419	9.267407	2.352903	-3.215841	0.181058	-0.460417	-0.111990	0.242515	0.168565	0.955391	0.079187	-0.984943	0.153678	0.966911	0.038386	-0.252211
50420	9.318265	2.319576	-3.413325	0.134083	-0.431948	-0.083759	0.246644	0.169607	0.954149	0.080703	-0.984741	0.154184	0.965740	0.038974	-0.256568
50421	9.367051	2.268851	-3.549609	0.079534	-0.398440	-0.054288	0.250422	0.170338	0.953034	0.081599	-0.984611	0.154541	0.964692	0.039066	-0.260467
50422	9.383251	2.210372	-3.612425	0.002271	-0.363129	-0.032078	0.253919	0.170849	0.952017	0.081721	-0.984546	0.154890	0.963767	0.038470	-0.263957
50423	9.134485	2.008680	-3.668189	-0.070485	-0.332171	-0.027279	0.257073	0.171284	0.951092	0.081105	-0.984519	0.155382	0.962982	0.037194	-0.266986
50424	9.385048	1.554556	-3.527002	-0.139603	-0.325466	-0.002543	0.260228	0.171483	0.950197	0.079790	-0.984556	0.155832	0.962245	0.035265	-0.269891
50425	9.880189	0.745060	-3.549179	-0.090905	-0.234027	0.005626	0.262460	0.171550	0.949571	0.078895	-0.984590	0.156070	0.961712	0.033955	-0.271950
50426	8.802405	1.329057	-3.238041	-0.041415	-0.234743	-0.045027	0.264706	0.172127	0.948843	0.078637	-0.984517	0.156661	0.961118	0.033145	-0.274143
50427	9.096229	1.417550	-3.125648	-0.051027	-0.263000	-0.058737	0.267163	0.172833	0.948026	0.078297	-0.984426	0.157404	0.960465	0.032176	-0.276534
50428	9.447999	1.300607	-2.969077	-0.079672	-0.251529	-0.060181	0.269556	0.173559	0.947215	0.077715	-0.984337	0.158245	0.959844	0.030957	-0.278822
50429	9.367350	1.094110	-2.835531	-0.049964	-0.235916	-0.046642	0.271760	0.174131	0.946480	0.077357	-0.984264	0.158872	0.959251	0.030041	-0.280954
50430	9.173815	1.018981	-2.644717	0.011297	-0.238071	-0.053861	0.274027	0.174786	0.945706	0.077631	-0.984157	0.159398	0.958584	0.029737	-0.283254
50431	9.167629	1.149158	-2.507970	0.067164	-0.256190	-0.085138	0.276392	0.175741	0.944840	0.078504	-0.983981	0.160057	0.957833	0.029936	-0.285761
50432	9.213274	1.199929	-2.333820	0.108134	-0.277512	-0.093647	0.279000	0.176798	0.943876	0.079817	-0.983774	0.160678	0.956968	0.030508	-0.288584
50433	9.207076	1.330788	-2.202552	0.149578	-0.302638	-0.095069	0.281794	0.177868	0.942844	0.081510	-0.983552	0.161186	0.956006	0.031430	-0.291657
50434	9.181914	1.399687	-2.174733	0.160456	-0.330730	-0.105650	0.284891	0.179063	0.941686	0.083358	-0.983304	0.161758	0.954928	0.032414	-0.295061
50435	9.123843	1.520909	-2.497432	0.165958	-0.361729	-0.107014	0.288230	0.180275	0.940439	0.085244	-0.983050	0.162317	0.953759	0.033382	-0.298711
50436	9.165916	1.716154	-2.853826	0.168300	-0.377519	-0.108253	0.291758	0.181516	0.939111	0.087178	-0.982788	0.162874	0.952511	0.034350	-0.302560
50437	9.176171	1.784176	-3.246414	0.179420	-0.377976	-0.108188	0.295236	0.182752	0.937783	0.089199	-0.982521	0.163389	0.951251	0.035411	-0.306377
50438	9.216982	2.000028	-3.608997	0.183104	-0.367872	-0.099558	0.298667	0.183913	0.936469	0.091252	-0.982264	0.163803	0.949985	0.036532	-0.310152
50439	9.123151	2.131604	-3.867157	0.168496	-0.343789	-0.093638	0.301820	0.185001	0.935243	0.093129	-0.982021	0.164200	0.948805	0.037539	-0.313623
50440	9.056533	2.146450	-4.030203	0.140125	-0.317304	-0.078397	0.304779	0.185942	0.934096	0.094714	-0.981813	0.164538	0.947702	0.038325	-0.316847
50441	9.046534	2.118502	-4.078542	0.112406	-0.288848	-0.059910	0.307433	0.186683	0.933078	0.095959	-0.981651	0.164784	0.946719	0.038877	-0.319706
50442	9.089087	2.092525	-4.052134	0.085002	-0.262100	-0.037863	0.309901	0.187211	0.932155	0.096902	-0.981536	0.164913	0.945818	0.039221	-0.322320
50443	9.143668	2.216941	-3.869893	0.058176	-0.242810	-0.016032	0.312157	0.187505	0.931343	0.097499	-0.981476	0.164920	0.945014	0.039324	-0.324656
50444	9.250994	2.291425	-3.628021	-0.006338	-0.225134	0.005706	0.314313	0.187593	0.930600	0.097445	-0.981479	0.164937	0.944305	0.038841	-0.326771
50445	9.363905	2.097451	-3.476418	-0.069406	-0.217269	0.015527	0.316355	0.187565	0.929913	0.096738	-0.981527	0.165065	0.943696	0.037739	-0.328656
50446	9.442982	1.768082	-3.276309	-0.104347	-0.208307	0.017134	0.318360	0.187532	0.929235	0.095726	-0.981587	0.165301	0.943124	0.036327	-0.330450
50447	9.423448	1.402490	-3.103184	-0.099914	-0.211075	0.016029	0.320342	0.187491	0.928562	0.094731	-0.981645	0.165528	0.942554	0.034938	-0.332223
50448	9.418165	1.347285	-2.869532	-0.065575	-0.229837	0.007550	0.322538	0.187554	0.927789	0.094115	-0.981670	0.165728	0.941866	0.033865	-0.334277
50449	9.494944	1.233417	-2.595998	-0.047946	-0.262946	-0.000252	0.324989	0.187685	0.926907	0.093662	-0.981678	0.165936	0.941068	0.032888	-0.336614
50450	9.651591	0.889615	-2.402669	-0.042311	-0.301758	-0.005184	0.327846	0.187890	0.925859	0.093305	-0.981672	0.166177	0.940112	0.031907	-0.339368
50451	9.589056	0.942213	-2.200147	0.002826	-0.346771	-0.011417	0.331069	0.188153	0.924658	0.093367	-0.981642	0.166318	0.938976	0.031270	-0.342559
50452	9.413962	1.075208	-1.954108	0.014556	-0.404005	-0.027744	0.334856	0.188602	0.923201	0.093616	-0.981575	0.166572	0.937607	0.030649	-0.346342
50453	9.190149	1.043694	-1.847793	0.024377	-0.470776	-0.050023	0.339195	0.189278	0.921477	0.094011	-0.981466	0.166994	0.936007	0.029986	-0.350703
50454	9.099993	1.025859	-1.678871	0.060305	-0.549251	-0.062259	0.344292	0.190102	0.919415	0.094805	-0.981320	0.167400	0.934064	0.029531	-0.355883
