// General information: 
//  MT Manager version: 2022.2.0 
//  XDA version: 2022.2.0 build 7381 rev 124627 built on 2023-07-19
// Device information: 
//  DeviceId: 00B4CBA7
//  ProductCode: MTW2-3A7G6
//  Firmware Version: 4.6.0
//  Hardware Version: 2.0.0
// Device settings: 
//  Filter Profile: human(46.1)
//  Option Flags: Orientation Smoother Disabled, Position/Velocity Smoother Disabled, Continuous Zero Rotation Update Disabled, AHS Disabled, ICC Disabled
// Coordinate system: ENU
PacketCounter	Acc_X	Acc_Y	Acc_Z	Gyr_X	Gyr_Y	Gyr_Z	Mat[1][1]	Mat[2][1]	Mat[3][1]	Mat[1][2]	Mat[2][2]	Mat[3][2]	Mat[1][3]	Mat[2][3]	Mat[3][3]
35760	9.662867	-0.889157	-1.058867	-0.048578	0.001188	-0.004174	-0.160080	-0.018270	0.986935	-0.686435	0.720558	-0.098000	-0.709353	-0.693154	-0.127888
35761	9.972495	-0.441270	-0.128738	-0.321980	0.115472	-0.019949	-0.159096	-0.017646	0.987105	-0.684131	0.722834	-0.097342	-0.711796	-0.690796	-0.127072
35762	10.055655	0.354497	0.062784	-0.876052	0.412908	-0.011870	-0.156023	-0.014913	0.987641	-0.677884	0.728863	-0.096084	-0.718422	-0.684497	-0.123828
35763	8.930247	0.219230	-0.420380	-1.303920	0.454538	0.022078	-0.152829	-0.011681	0.988184	-0.668367	0.737786	-0.094646	-0.727962	-0.674934	-0.120562
35764	8.968372	-2.308503	-2.234678	-1.027353	0.149563	0.015987	-0.151803	-0.010579	0.988354	-0.660826	0.744689	-0.093526	-0.735027	-0.667328	-0.120036
35765	9.981911	-1.565087	-0.873363	-0.179738	0.072266	0.024416	-0.151390	-0.009989	0.988424	-0.659519	0.745853	-0.093476	-0.736285	-0.666036	-0.119503
35766	9.599404	-0.579787	-0.802476	-0.357629	0.003537	0.024396	-0.151486	-0.009804	0.988411	-0.656844	0.748239	-0.093247	-0.738653	-0.663357	-0.119787
35767	9.756885	-0.753338	-1.321552	-0.199609	-0.070314	0.023867	-0.152161	-0.010158	0.988304	-0.655351	0.749553	-0.093195	-0.739839	-0.661867	-0.120710
35768	9.735320	-1.015159	-1.536641	-0.187849	-0.097190	0.017654	-0.152958	-0.010689	0.988175	-0.653933	0.750803	-0.093100	-0.740929	-0.660440	-0.121831
35769	9.704047	-1.188408	-1.850154	-0.030368	-0.100913	0.003510	-0.153748	-0.011353	0.988045	-0.653615	0.751082	-0.093078	-0.741046	-0.660111	-0.122898
35770	9.729455	-1.067381	-1.764853	-0.000546	-0.098782	0.001342	-0.154451	-0.012016	0.987927	-0.653608	0.751092	-0.093048	-0.740906	-0.660088	-0.123860
35771	9.816328	-1.157322	-1.809300	-0.054424	-0.077282	-0.004089	-0.154968	-0.012617	0.987839	-0.653235	0.751437	-0.092879	-0.741127	-0.659684	-0.124691
35772	9.681545	-1.129415	-1.681597	-0.042965	-0.075578	0.001191	-0.155498	-0.013128	0.987749	-0.652914	0.751727	-0.092795	-0.741299	-0.659344	-0.125463
35773	9.658705	-1.052469	-1.335424	-0.080432	-0.077621	-0.003664	-0.156039	-0.013769	0.987655	-0.652424	0.752177	-0.092590	-0.741616	-0.658818	-0.126352
35774	9.621649	-1.020274	-1.078814	-0.131365	-0.083408	-0.001804	-0.156608	-0.014353	0.987557	-0.651451	0.753047	-0.092363	-0.742351	-0.657810	-0.127283
35775	9.619045	-1.099573	-0.873339	-0.179089	-0.091477	-0.005864	-0.157210	-0.014995	0.987451	-0.650013	0.754329	-0.092032	-0.743484	-0.656325	-0.128335
35776	9.587065	-1.268010	-0.847161	-0.173968	-0.099887	-0.013984	-0.157824	-0.015777	0.987341	-0.648740	0.755474	-0.091628	-0.744465	-0.654989	-0.129467
35777	9.518913	-1.224767	-0.827738	-0.119382	-0.113299	-0.026449	-0.158497	-0.016767	0.987217	-0.647876	0.756270	-0.091171	-0.745074	-0.654044	-0.130729
35778	9.491536	-0.985139	-0.705939	-0.055214	-0.129836	-0.033529	-0.159209	-0.017891	0.987083	-0.647517	0.756632	-0.090725	-0.745235	-0.653597	-0.132048
35779	9.548292	-0.954733	-0.856259	-0.031524	-0.149633	-0.046495	-0.160036	-0.019325	0.986922	-0.647464	0.756742	-0.090173	-0.745103	-0.653427	-0.133619
35780	9.868216	-1.107847	-0.591286	0.098480	-0.131732	-0.057397	-0.160608	-0.020642	0.986802	-0.648289	0.756093	-0.089696	-0.744263	-0.654139	-0.134816
35781	9.760066	-0.377164	-0.242274	0.149595	-0.103982	-0.073093	-0.160906	-0.021939	0.986726	-0.649549	0.755077	-0.089134	-0.743098	-0.655269	-0.135747
35782	9.639154	0.214328	-0.416702	-0.256437	-0.097265	-0.057506	-0.161219	-0.023032	0.986650	-0.647733	0.756747	-0.088175	-0.744614	-0.653302	-0.136920
35783	9.528834	-1.812845	-2.890621	-0.371601	-0.130161	-0.056169	-0.161769	-0.024336	0.986529	-0.645056	0.759161	-0.087047	-0.746816	-0.650448	-0.138507
35784	9.665794	-1.445263	-2.609580	0.155320	-0.084693	-0.073244	-0.161890	-0.025465	0.986480	-0.646333	0.758137	-0.086498	-0.745685	-0.651598	-0.139194
35785	9.514277	-0.852449	-2.580864	-0.014835	-0.085000	-0.076564	-0.162073	-0.026699	0.986418	-0.646420	0.758154	-0.085689	-0.745569	-0.651528	-0.140135
35786	9.525226	-1.445450	-2.935290	0.113482	-0.077728	-0.072614	-0.162145	-0.027778	0.986376	-0.647383	0.757400	-0.085090	-0.744718	-0.652360	-0.140792
35787	9.601524	-0.733521	-2.060986	0.208887	-0.054603	-0.075106	-0.162070	-0.028763	0.986360	-0.649058	0.756020	-0.084602	-0.743274	-0.653917	-0.141197
35788	9.621025	-0.661399	-1.625923	0.080083	-0.038812	-0.073192	-0.161846	-0.029592	0.986372	-0.649771	0.755480	-0.083951	-0.742700	-0.654503	-0.141499
35789	9.688330	-0.759974	-1.286738	0.093294	-0.033451	-0.062008	-0.161674	-0.030345	0.986378	-0.650595	0.754829	-0.083415	-0.742015	-0.655219	-0.141779
35790	9.675881	-0.866410	-0.513171	0.016138	-0.043205	-0.075954	-0.161463	-0.031223	0.986385	-0.650837	0.754706	-0.082647	-0.741850	-0.655320	-0.142178
35791	9.765295	-1.884195	-0.701071	-0.010777	-0.053692	-0.108060	-0.161139	-0.032448	0.986398	-0.650950	0.754732	-0.081512	-0.741821	-0.655230	-0.142739
35792	9.484442	-2.500378	-0.640954	0.199521	-0.072396	-0.131156	-0.160783	-0.033934	0.986406	-0.652638	0.753385	-0.080461	-0.740413	-0.656703	-0.143278
35793	9.180862	-2.827635	-1.276454	0.509800	-0.139945	-0.157664	-0.160810	-0.036059	0.986326	-0.656565	0.750055	-0.079625	-0.736928	-0.660392	-0.144292
35794	9.666726	-1.310223	-1.337928	0.974038	-0.171577	-0.166595	-0.160931	-0.038464	0.986216	-0.663977	0.743531	-0.079350	-0.730229	-0.667595	-0.145197
35795	9.837072	1.155187	-0.610100	0.738928	-0.150489	-0.130318	-0.161169	-0.040520	0.986095	-0.669655	0.738447	-0.079106	-0.724974	-0.673092	-0.146150
35796	9.782251	0.876321	-1.432632	0.136619	-0.153277	-0.104100	-0.161544	-0.042342	0.985957	-0.670812	0.737489	-0.078238	-0.723820	-0.674030	-0.147541
35797	9.589335	-0.253088	-2.490126	0.078125	-0.145927	-0.094973	-0.161928	-0.044076	0.985818	-0.671573	0.736888	-0.077364	-0.723028	-0.674576	-0.148923
35798	9.565220	-0.268685	-2.221597	0.225918	-0.123534	-0.091960	-0.162164	-0.045608	0.985709	-0.673353	0.735326	-0.076753	-0.721317	-0.676177	-0.149954
35799	9.637831	0.459059	-1.623971	0.072189	-0.033996	-0.109484	-0.161582	-0.046626	0.985757	-0.673973	0.734866	-0.075716	-0.720869	-0.676608	-0.150165
35800	9.369828	0.715620	-1.524946	-0.212192	0.004791	-0.091408	-0.160894	-0.047287	0.985838	-0.672588	0.736262	-0.074454	-0.722314	-0.675043	-0.150264
35801	9.424266	-0.156369	-1.656767	-0.371545	-0.018080	-0.070217	-0.160523	-0.047990	0.985865	-0.670053	0.738701	-0.073143	-0.724749	-0.672323	-0.150734
35802	9.601121	-0.755064	-1.317357	-0.387320	-0.017420	-0.059967	-0.160211	-0.048572	0.985887	-0.667336	0.741275	-0.071925	-0.727320	-0.669441	-0.151174
35803	9.659353	-0.975138	-1.401218	-0.337219	-0.033462	-0.052169	-0.160084	-0.049193	0.985877	-0.664866	0.743595	-0.070856	-0.729607	-0.666819	-0.151744
35804	9.747892	-0.743111	-1.087203	-0.278248	-0.045289	-0.052478	-0.160029	-0.049906	0.985850	-0.662916	0.745426	-0.069873	-0.731391	-0.664718	-0.152373
35805	9.788859	-0.693294	-1.204082	-0.313079	-0.048648	-0.061030	-0.159927	-0.050681	0.985827	-0.660621	0.747566	-0.068738	-0.733487	-0.662252	-0.153037
35806	9.764913	-0.783090	-1.506474	-0.294402	-0.049592	-0.059265	-0.159863	-0.051474	0.985796	-0.658553	0.749487	-0.067660	-0.735358	-0.660015	-0.153714
35807	9.802531	-0.528315	-1.394412	-0.313813	-0.011679	-0.076956	-0.159360	-0.052205	0.985839	-0.656484	0.751419	-0.066329	-0.737315	-0.657757	-0.154018
35808	9.678182	-0.353579	-1.623631	-0.419240	0.037083	-0.072749	-0.158572	-0.052531	0.985949	-0.653501	0.754136	-0.064924	-0.740129	-0.654614	-0.153914
35809	9.598867	-0.529136	-1.747093	-0.402207	0.030547	-0.066039	-0.157951	-0.052905	0.986029	-0.650634	0.756722	-0.063622	-0.742783	-0.651593	-0.153947
35810	9.662726	-0.528327	-1.711728	-0.395991	0.018442	-0.061751	-0.157375	-0.053276	0.986101	-0.647783	0.759268	-0.062361	-0.745392	-0.648594	-0.154001
35811	9.673689	-0.611811	-1.867062	-0.435347	0.015205	-0.060255	-0.156869	-0.053654	0.986161	-0.644528	0.762139	-0.061060	-0.748315	-0.645187	-0.154137
35812	9.615585	-0.984236	-2.156542	-0.397623	0.000404	-0.065599	-0.156407	-0.054175	0.986206	-0.641649	0.764667	-0.059757	-0.750882	-0.642144	-0.154360
35813	9.618368	-1.060468	-2.196074	-0.301000	0.003592	-0.077095	-0.155857	-0.054726	0.986263	-0.639340	0.766696	-0.058491	-0.752962	-0.639674	-0.154483
35814	9.600931	-0.961162	-2.081833	-0.319148	0.035778	-0.088620	-0.154984	-0.055200	0.986374	-0.637070	0.768689	-0.057082	-0.755064	-0.637236	-0.154301
35815	9.521845	-0.893683	-2.018348	-0.358849	0.051731	-0.094718	-0.153950	-0.055615	0.986512	-0.634420	0.770991	-0.055540	-0.757503	-0.634414	-0.153977
35816	9.534634	-0.990130	-1.872869	-0.284195	0.038710	-0.092917	-0.153031	-0.056110	0.986627	-0.632405	0.772743	-0.054144	-0.759371	-0.632234	-0.153738
35817	9.608728	-0.886881	-1.509196	-0.218409	0.032376	-0.098683	-0.152149	-0.056714	0.986729	-0.630874	0.774088	-0.052786	-0.760821	-0.630533	-0.153556
35818	9.624745	-0.809195	-1.409588	-0.171569	0.006716	-0.108762	-0.151376	-0.057538	0.986800	-0.629731	0.775111	-0.051407	-0.761922	-0.629200	-0.153566
35819	9.687945	-0.650078	-1.059218	-0.113521	0.003604	-0.120870	-0.150536	-0.058519	0.986871	-0.629117	0.775703	-0.049968	-0.762595	-0.628379	-0.153586
35820	9.687343	-0.322094	-0.734787	-0.176940	0.045806	-0.124793	-0.149365	-0.059223	0.987007	-0.627952	0.776745	-0.048422	-0.763784	-0.627025	-0.153208
35821	9.629315	-0.429750	-0.822723	-0.330616	0.054193	-0.134625	-0.148102	-0.060011	0.987150	-0.625697	0.778677	-0.046536	-0.765878	-0.624549	-0.152873
35822	9.503201	-0.589147	-1.164553	-0.285907	0.070738	-0.136623	-0.146670	-0.060659	0.987324	-0.623704	0.780381	-0.044709	-0.767777	-0.622355	-0.152292
35823	9.458130	-0.552390	-1.275964	-0.244844	0.009418	-0.136551	-0.145775	-0.061690	0.987393	-0.621919	0.781902	-0.042966	-0.769393	-0.620342	-0.152348
35824	9.685556	-0.525379	-1.531267	-0.177110	-0.032012	-0.136344	-0.145138	-0.062979	0.987405	-0.620752	0.782918	-0.041307	-0.770456	-0.618928	-0.152726
35825	9.547914	-0.404063	-1.607543	-0.138983	-0.057402	-0.137709	-0.144733	-0.064494	0.987367	-0.619960	0.783629	-0.039691	-0.771169	-0.617873	-0.153400
35826	9.444570	-0.435123	-1.701781	-0.078550	-0.082321	-0.137741	-0.144478	-0.066106	0.987297	-0.619551	0.784028	-0.038168	-0.771545	-0.617196	-0.154231
35827	9.462966	-0.590868	-1.808315	-0.051320	-0.106997	-0.140402	-0.144434	-0.067925	0.987180	-0.619378	0.784237	-0.036660	-0.771693	-0.616732	-0.155341
35828	9.679649	-0.575570	-1.802858	0.083768	-0.108023	-0.144107	-0.144338	-0.069745	0.987067	-0.620229	0.783625	-0.035325	-0.771027	-0.617307	-0.156365
35829	9.793794	0.190255	-1.389870	0.087355	-0.083913	-0.136347	-0.144175	-0.071403	0.986973	-0.621127	0.782968	-0.034089	-0.770334	-0.617950	-0.157235
35830	9.688787	0.857030	-1.438912	-0.121339	-0.055941	-0.125719	-0.143790	-0.072757	0.986930	-0.620371	0.783630	-0.032615	-0.771015	-0.616952	-0.157814
35831	9.479733	0.633296	-1.405060	-0.490492	-0.057420	-0.093752	-0.143677	-0.073907	0.986861	-0.616712	0.786583	-0.030880	-0.773966	-0.613046	-0.158593
35832	9.530033	-1.635661	-2.336024	-0.620484	-0.079693	-0.101447	-0.143637	-0.075217	0.986768	-0.612041	0.790299	-0.028849	-0.777672	-0.608086	-0.159552
35833	9.593794	-2.342214	-2.158561	-0.155976	-0.060473	-0.125081	-0.143335	-0.076619	0.986704	-0.610985	0.791171	-0.027320	-0.778558	-0.606777	-0.160215
35834	9.535763	-1.941019	-2.017909	0.014237	-0.059638	-0.156527	-0.142807	-0.078244	0.986653	-0.611317	0.790967	-0.025756	-0.778395	-0.606836	-0.160787
35835	9.626315	-1.610528	-2.123136	0.366932	-0.070732	-0.177042	-0.142272	-0.080167	0.986576	-0.614572	0.788479	-0.024556	-0.775925	-0.609815	-0.161447
35836	9.718252	-0.331503	-1.057789	0.530631	-0.058127	-0.214225	-0.141365	-0.082232	0.986536	-0.618981	0.785061	-0.023258	-0.772579	-0.613935	-0.161881
35837	9.551478	-0.205317	-1.392146	0.443131	-0.041393	-0.224340	-0.140288	-0.084270	0.986518	-0.622666	0.782186	-0.021731	-0.769809	-0.617320	-0.162203
35838	9.620501	0.771476	-1.150988	0.632219	-0.047100	-0.215210	-0.139268	-0.086265	0.986490	-0.627819	0.778087	-0.020592	-0.765799	-0.622205	-0.162521
35839	9.723817	2.279073	-0.031866	0.135269	-0.006775	-0.199144	-0.138179	-0.087910	0.986498	-0.629053	0.777133	-0.018859	-0.764983	-0.623166	-0.162684
35840	9.276436	1.376004	-1.223812	-0.519142	0.006925	-0.169407	-0.137028	-0.089211	0.986542	-0.625304	0.780211	-0.016301	-0.768257	-0.619122	-0.162695
35841	9.291652	-0.530001	-1.933350	-0.504362	-0.040960	-0.164406	-0.136294	-0.090827	0.986496	-0.621772	0.783076	-0.013806	-0.771248	-0.615258	-0.163203
35842	9.665448	-0.418897	-1.665253	-0.150812	-0.036159	-0.170759	-0.135477	-0.092412	0.986461	-0.620838	0.783850	-0.011832	-0.772144	-0.614035	-0.163566
35843	9.740642	0.424895	-1.227464	-0.160241	-0.055835	-0.167876	-0.134943	-0.094105	0.986375	-0.619711	0.784767	-0.009910	-0.773142	-0.612605	-0.164217
35844	9.748475	0.278336	-1.462110	-0.239767	-0.074228	-0.162369	-0.134477	-0.095859	0.986269	-0.618072	0.786082	-0.007871	-0.774534	-0.610644	-0.164958
35845	9.821689	0.022920	-1.804627	-0.168671	-0.080046	-0.151243	-0.134196	-0.097581	0.986139	-0.616929	0.786995	-0.006078	-0.775493	-0.609194	-0.165812
35846	9.775521	0.288093	-1.593729	-0.143444	-0.065250	-0.147733	-0.133756	-0.099166	0.986040	-0.616011	0.787726	-0.004340	-0.776299	-0.607992	-0.166451
35847	9.717300	0.730313	-1.299192	-0.310741	-0.037796	-0.135742	-0.133260	-0.100514	0.985971	-0.613733	0.789510	-0.002464	-0.778186	-0.605451	-0.166899
35848	9.710430	0.806087	-1.429926	-0.421274	-0.042547	-0.115885	-0.132848	-0.101712	0.985904	-0.610600	0.791939	-0.000576	-0.780717	-0.602069	-0.167312
35849	9.791739	0.740179	-1.297402	-0.488794	-0.055273	-0.100994	-0.132690	-0.102901	0.985802	-0.606917	0.794764	0.001268	-0.783610	-0.598131	-0.167909
35850	9.845477	0.424924	-1.622720	-0.491389	-0.069508	-0.093598	-0.132635	-0.104086	0.985685	-0.603180	0.797599	0.003060	-0.786500	-0.594139	-0.168572
35851	9.864235	0.358664	-1.908149	-0.391900	-0.070414	-0.085420	-0.132690	-0.105236	0.985555	-0.600195	0.799840	0.004599	-0.788771	-0.590915	-0.169293
35852	9.745627	-0.134039	-2.345090	-0.328639	-0.087009	-0.075925	-0.132889	-0.106383	0.985405	-0.597697	0.801700	0.005947	-0.790632	-0.588183	-0.170121
35853	9.788975	-0.804579	-2.622315	-0.076451	-0.104351	-0.070592	-0.133327	-0.107620	0.985212	-0.597179	0.802079	0.006800	-0.790949	-0.587441	-0.171207
35854	9.736581	-0.491846	-2.375887	0.193712	-0.099886	-0.063658	-0.133702	-0.108743	0.985037	-0.598791	0.800873	0.007137	-0.789666	-0.588878	-0.172193
35855	9.695636	0.294205	-1.935801	0.248538	-0.100791	-0.044715	-0.134253	-0.109739	0.984852	-0.600757	0.799399	0.007180	-0.788078	-0.590693	-0.173248
35856	9.594470	0.743337	-1.710072	0.142506	-0.093714	-0.022110	-0.134825	-0.110495	0.984689	-0.601905	0.798535	0.007192	-0.787104	-0.591720	-0.174170
35857	9.498882	0.731029	-1.596033	0.055114	-0.110011	0.001520	-0.135715	-0.111182	0.984490	-0.602303	0.798236	0.007119	-0.786646	-0.591995	-0.175298
35858	9.563117	0.605635	-1.507089	0.036024	-0.121588	0.011656	-0.136707	-0.111835	0.984278	-0.602567	0.798038	0.006983	-0.786272	-0.592139	-0.176486
35859	9.587414	0.534166	-1.539567	0.008532	-0.130236	0.017085	-0.137876	-0.112534	0.984036	-0.602614	0.798004	0.006825	-0.786032	-0.592052	-0.177840
35860	9.685782	0.619054	-1.664582	0.040061	-0.122026	0.027123	-0.138965	-0.113065	0.983822	-0.602887	0.797800	0.006529	-0.785631	-0.592226	-0.179032
35861	9.579561	0.499179	-1.674782	-0.003325	-0.133056	0.037640	-0.140242	-0.113640	0.983574	-0.602937	0.797765	0.006203	-0.785366	-0.592164	-0.180398
35862	9.522197	0.237144	-1.667128	0.072682	-0.151879	0.047900	-0.141689	-0.114183	0.983304	-0.603437	0.797391	0.005642	-0.784722	-0.592562	-0.181884
35863	9.473223	0.358264	-1.273212	0.147723	-0.177801	0.061066	-0.143510	-0.114802	0.982968	-0.604439	0.796637	0.004794	-0.783619	-0.593456	-0.183716
35864	9.545838	0.493599	-0.896783	0.163335	-0.208333	0.066060	-0.145507	-0.115539	0.982588	-0.605619	0.795745	0.003885	-0.782338	-0.594508	-0.185759
35865	9.450065	0.383411	-0.655396	0.133511	-0.242602	0.071592	-0.147903	-0.116492	0.982117	-0.606608	0.794996	0.002944	-0.781122	-0.595324	-0.188247
35866	9.448764	0.098870	-0.665552	0.117491	-0.282672	0.072886	-0.150518	-0.117622	0.981585	-0.607413	0.794384	0.002048	-0.779996	-0.595919	-0.191015
35867	9.446091	-0.190591	-0.957883	0.149040	-0.316900	0.071386	-0.153464	-0.119006	0.980962	-0.608470	0.793576	0.001083	-0.778597	-0.596720	-0.194197
35868	9.453970	-0.121354	-1.097223	0.196005	-0.348914	0.072611	-0.156587	-0.120540	0.980281	-0.609879	0.792495	0.000029	-0.776871	-0.597848	-0.197609
35869	9.466438	-0.096183	-1.380046	0.192235	-0.384728	0.082921	-0.160216	-0.122254	0.979482	-0.611225	0.791456	-0.001194	-0.775071	-0.598875	-0.201529
35870	9.772583	0.328738	-1.454400	0.254739	-0.390687	0.095350	-0.163790	-0.123868	0.978688	-0.613040	0.790048	-0.002604	-0.772887	-0.600401	-0.205338
35871	9.669066	0.851540	-1.440652	0.134316	-0.383255	0.107900	-0.167442	-0.125359	0.977879	-0.613868	0.789399	-0.003916	-0.771446	-0.600945	-0.209132
35872	9.610708	0.742737	-1.979312	-0.005029	-0.404562	0.122539	-0.171281	-0.126847	0.977022	-0.613619	0.789586	-0.005061	-0.770801	-0.600387	-0.213076
35873	9.999120	0.455913	-2.263924	0.051787	-0.391093	0.134355	-0.175182	-0.128240	0.976148	-0.613966	0.789305	-0.006490	-0.769647	-0.600459	-0.217007
35874	9.689634	0.590255	-2.122909	0.000692	-0.342055	0.145935	-0.178676	-0.129166	0.975393	-0.613711	0.789491	-0.007874	-0.769047	-0.600016	-0.220334
35875	9.318928	-0.518050	-2.965739	-0.041126	-0.399461	0.144253	-0.182641	-0.130506	0.974480	-0.613258	0.789830	-0.009162	-0.768477	-0.599281	-0.224289
35876	9.558377	-1.255646	-3.055580	0.424590	-0.407781	0.139238	-0.186591	-0.131883	0.973545	-0.616255	0.787464	-0.011437	-0.765123	-0.602086	-0.228207
35877	9.554912	-0.477868	-2.260288	0.601319	-0.398301	0.150364	-0.190562	-0.133185	0.972599	-0.620663	0.783948	-0.014255	-0.760568	-0.606372	-0.232053
35878	9.501449	-0.429549	-1.928434	0.604475	-0.434253	0.156267	-0.194795	-0.134630	0.971560	-0.624944	0.780481	-0.017148	-0.755976	-0.610511	-0.236170
35879	9.404654	-0.939410	-1.225189	0.612998	-0.491726	0.134975	-0.199430	-0.136627	0.970341	-0.629234	0.776961	-0.019925	-0.751194	-0.614545	-0.240920
35880	9.585395	-1.255180	-1.562187	0.829744	-0.513905	0.115513	-0.203972	-0.138930	0.969069	-0.635207	0.771999	-0.023022	-0.744921	-0.620255	-0.245715
35881	9.568832	0.285072	-1.176626	1.331798	-0.528683	0.129018	-0.208779	-0.141290	0.967703	-0.644811	0.763844	-0.027590	-0.735275	-0.629746	-0.250580
35882	9.396039	2.478273	0.048616	1.075452	-0.512043	0.174836	-0.213623	-0.143228	0.966360	-0.652306	0.757282	-0.031959	-0.727229	-0.637189	-0.255202
35883	9.133731	1.730839	-1.244266	0.255070	-0.610923	0.206492	-0.219490	-0.145561	0.964695	-0.653589	0.756057	-0.034627	-0.724324	-0.638114	-0.261084
35884	9.130271	-0.038857	-2.614829	0.397849	-0.640441	0.236458	-0.225631	-0.147893	0.962922	-0.655937	0.753863	-0.037915	-0.720304	-0.640171	-0.267103
35885	9.420269	-0.032802	-2.170034	0.683010	-0.644994	0.256442	-0.231989	-0.150126	0.961064	-0.660200	0.749902	-0.042223	-0.714365	-0.644289	-0.273082
35886	9.618832	0.057934	-2.309703	0.757902	-0.637134	0.289528	-0.238405	-0.152105	0.959181	-0.664909	0.745441	-0.047053	-0.707855	-0.648986	-0.278852
35887	9.728526	0.470944	-1.501647	0.857504	-0.650144	0.328495	-0.245215	-0.153955	0.957166	-0.670203	0.740310	-0.052623	-0.700498	-0.654400	-0.284716
35888	9.674783	0.490140	-1.091490	0.692987	-0.690692	0.354840	-0.252383	-0.155892	0.954987	-0.674154	0.736312	-0.057969	-0.694132	-0.658439	-0.290927
35889	10.079759	0.947623	-0.927924	0.914201	-0.740503	0.384497	-0.260177	-0.157986	0.952548	-0.679455	0.730888	-0.064363	-0.686038	-0.663960	-0.297505
35890	9.630438	2.037538	0.855628	0.656948	-0.763368	0.431624	-0.268296	-0.159944	0.949966	-0.682803	0.727203	-0.070404	-0.679557	-0.667528	-0.304316
35891	9.531223	1.213564	-0.189325	-0.022095	-0.901441	0.452696	-0.277543	-0.162722	0.946832	-0.681503	0.727997	-0.074654	-0.677144	-0.665989	-0.312946
35892	10.064566	0.317010	-1.125314	0.260997	-0.986061	0.475494	-0.287406	-0.165854	0.943340	-0.681924	0.727042	-0.079936	-0.672590	-0.666260	-0.322056
35893	10.587258	1.078638	-0.110175	0.370864	-1.032239	0.499791	-0.297801	-0.169078	0.939536	-0.682861	0.725482	-0.085887	-0.667095	-0.667150	-0.331506
35894	10.622538	0.520558	-0.501241	0.017103	-1.125528	0.510778	-0.308740	-0.172891	0.935301	-0.681430	0.726243	-0.090692	-0.663576	-0.665342	-0.342034
35895	11.072784	-0.141329	-1.471278	0.044007	-1.171692	0.513593	-0.320039	-0.176990	0.930725	-0.680178	0.726776	-0.095680	-0.659495	-0.663680	-0.352981
35896	11.336231	-0.131712	-1.802475	0.069421	-1.191002	0.515460	-0.331338	-0.181160	0.925957	-0.678960	0.727240	-0.100673	-0.655155	-0.662045	-0.363962
35897	12.443319	-0.737679	-1.996617	0.057439	-1.279813	0.496140	-0.343107	-0.186070	0.920682	-0.677776	0.727657	-0.105524	-0.650306	-0.660222	-0.375778
35898	13.122887	-1.448821	-0.997986	0.247079	-1.231832	0.556869	-0.354822	-0.190172	0.915388	-0.677438	0.727075	-0.111539	-0.644344	-0.659695	-0.386812
35899	12.325828	-0.008468	0.502233	0.233916	-1.209818	0.615078	-0.366822	-0.193724	0.909897	-0.676829	0.726595	-0.118164	-0.638235	-0.659190	-0.397649
35900	11.762851	-0.341420	1.444736	-0.393734	-1.367505	0.702735	-0.380240	-0.197603	0.903532	-0.671703	0.730555	-0.122905	-0.635793	-0.653638	-0.410517
35901	11.316822	-1.773748	0.235021	-0.491000	-1.514609	0.773819	-0.395088	-0.201787	0.896207	-0.665671	0.735199	-0.127923	-0.633077	-0.647120	-0.424793
35902	11.735021	-0.540810	1.227339	0.129658	-1.596166	0.836331	-0.410661	-0.205968	0.888220	-0.663126	0.736066	-0.135905	-0.625796	-0.644813	-0.438857
35903	11.974028	1.279736	2.870319	-0.155121	-1.739537	0.893073	-0.427468	-0.210671	0.879141	-0.658661	0.738677	-0.143252	-0.619223	-0.640292	-0.454522
35904	12.586200	1.214014	2.914124	-0.691944	-1.940384	0.929643	-0.445500	-0.216131	0.868802	-0.650342	0.745059	-0.148131	-0.615293	-0.631011	-0.472483
35905	13.229469	0.705015	2.339638	-0.848167	-2.079759	0.948838	-0.464528	-0.221942	0.857296	-0.640833	0.752391	-0.152453	-0.611185	-0.620202	-0.491734
35906	13.646728	1.198219	1.728259	-0.833981	-2.144082	0.939371	-0.483526	-0.228042	0.845103	-0.631314	0.759629	-0.156229	-0.606338	-0.609066	-0.511267
35907	13.686227	2.493598	0.232801	-1.313191	-2.155504	0.871425	-0.502098	-0.234435	0.832429	-0.619309	0.769313	-0.156889	-0.603618	-0.594304	-0.531458
35908	12.990918	2.198224	-3.193452	-1.757526	-2.245121	0.759464	-0.520263	-0.241701	0.819089	-0.604836	0.781397	-0.153596	-0.602910	-0.575325	-0.552722
35909	12.281097	0.992638	-5.956126	-1.495017	-2.342071	0.593675	-0.537992	-0.250423	0.804893	-0.592972	0.791088	-0.150216	-0.599123	-0.558094	-0.574093
35910	11.445944	0.466759	-6.712527	-1.097550	-2.333877	0.419875	-0.554347	-0.259966	0.790644	-0.584151	0.798200	-0.147118	-0.592846	-0.543410	-0.594339
35911	10.476004	-0.876500	-8.308316	-0.841365	-2.226794	0.313262	-0.569450	-0.269483	0.776598	-0.577610	0.803374	-0.144765	-0.584887	-0.531007	-0.613138
35912	8.758925	-0.106742	-8.806745	-0.289745	-2.020868	0.303377	-0.582891	-0.277720	0.763617	-0.574197	0.805726	-0.145267	-0.574923	-0.523141	-0.629116
35913	8.378658	0.907758	-8.093501	-0.361789	-1.885388	0.263145	-0.595157	-0.285456	0.751201	-0.570746	0.808211	-0.145067	-0.565718	-0.515083	-0.643935
35914	8.666474	0.270536	-5.917308	-0.264880	-1.489582	0.174319	-0.604496	-0.291696	0.741281	-0.568229	0.810064	-0.144614	-0.558302	-0.508636	-0.655430
35915	7.691490	0.820091	-4.187225	-0.455268	-0.963121	0.028652	-0.609918	-0.296364	0.734961	-0.565645	0.812360	-0.141835	-0.555018	-0.502235	-0.663110
35916	6.592835	-0.283690	-5.425188	-0.953846	-0.503708	-0.147809	-0.611861	-0.300100	0.731823	-0.561261	0.816659	-0.134369	-0.557326	-0.492959	-0.668116
35917	5.797284	-2.712111	-6.905365	-0.787786	-0.061339	-0.331586	-0.610231	-0.303161	0.731924	-0.559012	0.819428	-0.126663	-0.561359	-0.486447	-0.669511
35918	5.585891	-3.946806	-6.989018	-0.105103	0.384998	-0.498434	-0.605246	-0.305395	0.735127	-0.561467	0.818416	-0.122271	-0.564298	-0.486753	-0.666812
35919	5.511188	-3.414055	-6.337345	0.569815	0.861622	-0.634411	-0.596673	-0.306391	0.741691	-0.568635	0.813588	-0.121363	-0.566246	-0.494166	-0.659671
35920	5.511486	-2.499947	-6.175651	0.900353	1.308121	-0.724461	-0.585069	-0.305748	0.751141	-0.578043	0.806863	-0.121812	-0.568824	-0.505460	-0.648806
35921	5.488869	-2.091303	-6.024369	1.122321	1.719999	-0.794090	-0.570503	-0.303344	0.763222	-0.589169	0.798593	-0.122997	-0.572194	-0.519837	-0.634321
35922	5.390254	-1.564826	-5.693707	1.280238	2.089520	-0.854857	-0.553387	-0.299122	0.777360	-0.601341	0.789251	-0.124386	-0.576326	-0.536292	-0.616636
35923	5.553660	-0.908640	-5.527967	1.237365	2.431288	-0.890951	-0.533774	-0.292895	0.793283	-0.613483	0.779770	-0.124886	-0.582000	-0.553327	-0.595907
35924	5.757719	-0.377164	-5.293425	1.015050	2.735144	-0.906463	-0.512106	-0.284599	0.810401	-0.624187	0.771450	-0.123514	-0.590032	-0.569094	-0.572707
35925	6.060803	-0.880559	-5.782536	0.563214	2.971784	-0.889762	-0.488697	-0.274356	0.828193	-0.632114	0.765626	-0.119366	-0.601337	-0.581846	-0.547584
35926	6.223117	-2.545463	-6.462768	0.464028	3.127505	-0.861989	-0.464194	-0.262572	0.845920	-0.639052	0.760579	-0.114594	-0.613300	-0.593781	-0.520853
35927	6.358812	-2.507155	-5.734899	0.707418	3.293747	-0.829620	-0.438373	-0.249080	0.863590	-0.647282	0.754115	-0.111067	-0.623582	-0.607676	-0.491809
35928	6.786620	-1.359521	-5.390240	0.457215	3.432728	-0.785829	-0.411625	-0.233947	0.880815	-0.653511	0.749408	-0.106356	-0.635208	-0.619400	-0.461361
35929	7.222688	-1.064348	-5.450924	0.048724	3.527002	-0.749030	-0.383961	-0.217557	0.897353	-0.656907	0.747325	-0.099895	-0.648881	-0.627833	-0.429858
35930	7.701294	-1.483089	-5.686058	-0.410627	3.600917	-0.713293	-0.355588	-0.200224	0.912945	-0.656856	0.748419	-0.091702	-0.664904	-0.632281	-0.397647
35931	8.035539	-2.316839	-6.292853	-0.652028	3.674191	-0.646153	-0.326505	-0.181788	0.927549	-0.654763	0.751236	-0.083249	-0.681675	-0.634506	-0.364310
35932	8.212841	-2.347866	-5.880154	-0.653567	3.713856	-0.570225	-0.297134	-0.162509	0.940905	-0.652039	0.754405	-0.075614	-0.697536	-0.635975	-0.330122
35933	8.432079	-2.263216	-5.648539	-0.866179	3.698228	-0.491651	-0.267747	-0.142715	0.952861	-0.647400	0.759091	-0.068222	-0.713572	-0.635149	-0.295637
35934	8.622167	-3.030415	-5.719186	-0.862670	3.569192	-0.437647	-0.239161	-0.123430	0.963103	-0.642294	0.763980	-0.061586	-0.728190	-0.633324	-0.261993
35935	8.778908	-3.777847	-4.889355	-0.684141	3.392960	-0.408189	-0.211542	-0.105072	0.971705	-0.638268	0.767780	-0.055931	-0.740178	-0.632040	-0.229482
35936	9.128108	-4.075858	-4.900462	-0.324428	3.237506	-0.388089	-0.184935	-0.087604	0.978838	-0.636624	0.769459	-0.051415	-0.748672	-0.632660	-0.198070
35937	9.665364	-2.934462	-4.317960	0.068250	3.142206	-0.368574	-0.158893	-0.070491	0.984776	-0.637849	0.768670	-0.047895	-0.753592	-0.635749	-0.167099
35938	10.137427	-2.034273	-4.105630	0.016464	3.049686	-0.345937	-0.133605	-0.053752	0.989576	-0.638479	0.768353	-0.044467	-0.757954	-0.637765	-0.136975
35939	9.717520	-2.240387	-3.930438	0.079306	2.929515	-0.307201	-0.109312	-0.037366	0.993305	-0.639527	0.767648	-0.041502	-0.760957	-0.639782	-0.107810
35940	9.286208	-2.978531	-4.455393	0.161175	2.739150	-0.313808	-0.086405	-0.022241	0.996012	-0.641060	0.766525	-0.038496	-0.762612	-0.641829	-0.080489
35941	9.485176	-2.663201	-4.357237	0.769133	2.486658	-0.291109	-0.065535	-0.008400	0.997815	-0.647202	0.761463	-0.036097	-0.759496	-0.648154	-0.055339
35942	9.135968	-0.601798	-2.924143	1.056674	2.217199	-0.223137	-0.047273	0.004348	0.998873	-0.655321	0.754572	-0.034298	-0.753870	-0.656203	-0.032821
35943	8.414417	1.621115	-2.254505	0.685912	1.900817	-0.107923	-0.032201	0.016084	0.999352	-0.660578	0.750016	-0.033357	-0.750066	-0.661224	-0.013527
35944	9.189228	2.192112	-1.120349	-0.211283	1.507133	0.017800	-0.020970	0.026148	0.999438	-0.658982	0.751413	-0.033485	-0.751866	-0.659314	0.001474
35945	8.410011	0.606935	-2.222938	-1.486767	1.181056	0.204169	-0.013305	0.035422	0.999284	-0.647736	0.761033	-0.035601	-0.761749	-0.647745	0.012819
35946	6.980458	-2.473496	-4.917132	-1.926486	0.733668	0.314230	-0.009652	0.042508	0.999050	-0.632899	0.773251	-0.039015	-0.774174	-0.632674	0.019440
35947	6.714114	-4.470854	-6.203512	-1.158537	0.277597	0.369564	-0.009756	0.047125	0.998841	-0.623875	0.780345	-0.042910	-0.781463	-0.623571	0.021787
35948	6.764324	-2.457795	-5.495357	-0.580983	-0.077142	0.388501	-0.012746	0.049661	0.998685	-0.619276	0.783773	-0.046878	-0.785070	-0.619059	0.020764
35949	6.936579	-0.295577	-5.389824	-0.763674	-0.349489	0.397794	-0.017903	0.050625	0.998557	-0.613213	0.788272	-0.050958	-0.789715	-0.613241	0.016932
35950	6.989823	0.313602	-5.933927	-1.180548	-0.528628	0.372326	-0.024332	0.050332	0.998436	-0.603765	0.795276	-0.054804	-0.796791	-0.604154	0.011038
35951	7.163629	0.039602	-7.032737	-1.396081	-0.598999	0.293433	-0.030842	0.049060	0.998320	-0.592490	0.803502	-0.057790	-0.804987	-0.593277	0.004286
35952	8.224838	-1.489693	-7.691192	-0.792473	-0.641494	0.155054	-0.036905	0.046499	0.998236	-0.586036	0.808112	-0.059309	-0.809444	-0.587191	-0.002573
35953	10.458887	-0.238735	-4.858302	0.080361	-0.315131	0.008090	-0.039464	0.044660	0.998222	-0.586644	0.807669	-0.059327	-0.808883	-0.587943	-0.005674
35954	11.279042	1.308803	-2.039832	-0.272152	0.107970	-0.137343	-0.037756	0.044160	0.998311	-0.584489	0.809333	-0.057906	-0.810523	-0.585688	-0.004747
35955	11.375754	-0.481351	-1.151995	-0.643203	0.398349	-0.257830	-0.032984	0.044322	0.998473	-0.579293	0.813245	-0.055236	-0.814452	-0.580230	-0.001148
35956	11.585652	-1.796806	0.216316	-1.112371	0.395621	-0.187281	-0.028643	0.045046	0.998574	-0.570250	0.819738	-0.053336	-0.820972	-0.570965	0.002207
35957	12.433793	-2.998915	0.877238	-1.015449	0.043209	-0.076922	-0.027817	0.044589	0.998618	-0.561842	0.825576	-0.052513	-0.826777	-0.562526	0.002087
35958	13.626041	-4.464317	2.419465	-1.175832	-0.250610	-0.044146	-0.029624	0.042801	0.998644	-0.552090	0.832159	-0.052042	-0.833258	-0.552883	-0.001022
35959	12.302406	-7.921651	0.726184	-0.818084	-0.407003	-0.001418	-0.032986	0.040498	0.998635	-0.545210	0.836689	-0.051939	-0.837651	-0.546179	-0.005519
35960	10.523130	-5.501438	1.269061	0.246371	-0.498048	0.007562	-0.037167	0.037810	0.998594	-0.547264	0.835343	-0.051998	-0.836134	-0.548427	-0.010355
35961	9.566996	-1.877898	1.157371	0.151850	-0.539812	0.007576	-0.041692	0.034882	0.998521	-0.548525	0.834512	-0.052056	-0.835094	-0.549884	-0.015659
35962	9.387861	-0.095941	-0.837960	0.058907	-0.532145	-0.008503	-0.046060	0.031858	0.998431	-0.549016	0.834196	-0.051945	-0.834542	-0.550547	-0.020932
35963	9.225771	2.045554	-1.741835	0.204843	-0.440863	-0.012635	-0.049636	0.029301	0.998337	-0.550728	0.833074	-0.051832	-0.833208	-0.552385	-0.025214
35964	9.432210	3.321345	-2.356989	-0.142640	-0.275706	-0.041259	-0.051679	0.027411	0.998287	-0.549556	0.833878	-0.051346	-0.833857	-0.551268	-0.028031
35965	9.005079	2.271856	-4.444294	-0.204078	-0.206662	-0.094541	-0.052855	0.025446	0.998278	-0.547880	0.835044	-0.050293	-0.834885	-0.549595	-0.030195
35966	9.337730	2.033662	-3.842445	0.201213	-0.251206	-0.196665	-0.053843	0.022397	0.998298	-0.549660	0.833988	-0.048356	-0.833652	-0.551328	-0.032594
35967	9.939427	0.256924	-2.872627	0.227546	-0.187878	-0.225708	-0.054138	0.019418	0.998345	-0.551627	0.832815	-0.046112	-0.832332	-0.553211	-0.034375
35968	9.734014	-1.639269	-1.469879	0.445692	-0.077221	-0.215893	-0.053557	0.017169	0.998417	-0.555444	0.830385	-0.044075	-0.829828	-0.556925	-0.034936
35969	9.481802	-2.743193	-0.122557	0.402847	-0.053040	-0.229294	-0.052693	0.014909	0.998499	-0.558848	0.828213	-0.041858	-0.827594	-0.560215	-0.035309
35970	9.295419	-4.619807	-0.644029	0.515270	-0.199628	-0.251901	-0.052900	0.011679	0.998531	-0.563233	0.825354	-0.039492	-0.824603	-0.564495	-0.037084
35971	10.184565	-4.683117	0.218105	1.107725	-0.316622	-0.243134	-0.054095	0.007829	0.998505	-0.572425	0.819102	-0.037434	-0.818171	-0.573594	-0.039828
35972	10.135590	-0.866241	1.902705	1.401235	-0.365824	-0.206604	-0.055850	0.004002	0.998431	-0.583941	0.811001	-0.035915	-0.809873	-0.585031	-0.042957
35973	10.109550	2.277607	2.812631	0.625894	-0.426990	-0.170740	-0.058272	0.000077	0.998301	-0.589072	0.807346	-0.034447	-0.805977	-0.590079	-0.047000
35974	9.452570	1.181389	1.178358	-0.117383	-0.527872	-0.128725	-0.061741	-0.004099	0.998084	-0.588199	0.808040	-0.033067	-0.806356	-0.589114	-0.052300
35975	9.617871	0.721785	0.721535	0.019211	-0.606719	-0.127112	-0.065855	-0.008736	0.997791	-0.588417	0.807933	-0.031763	-0.805871	-0.589209	-0.058347
35976	10.068093	1.698537	1.278319	-0.000118	-0.631740	-0.147684	-0.070047	-0.013675	0.997450	-0.588513	0.807922	-0.030252	-0.805448	-0.589131	-0.064640
35977	9.683215	1.458882	0.493659	-0.068653	-0.667200	-0.165267	-0.074417	-0.018974	0.997047	-0.588065	0.808311	-0.028509	-0.805383	-0.588449	-0.071311
35978	9.786649	1.220666	0.129863	0.216032	-0.711594	-0.202952	-0.078918	-0.024831	0.996572	-0.589955	0.806998	-0.026611	-0.803570	-0.590032	-0.078335
35979	9.997759	1.324655	0.033360	0.275014	-0.669432	-0.205238	-0.083046	-0.030481	0.996079	-0.592304	0.805335	-0.024738	-0.801423	-0.592036	-0.084934
35980	9.600524	0.933746	-0.720177	0.195532	-0.669064	-0.157739	-0.087438	-0.035740	0.995529	-0.594001	0.804127	-0.023303	-0.799699	-0.593382	-0.091541
35981	10.050417	0.323438	-1.738550	0.040603	-0.660742	-0.092132	-0.092140	-0.040443	0.994924	-0.594382	0.803872	-0.022369	-0.798887	-0.593426	-0.098107
35982	10.168428	-0.096033	-2.592588	-0.053826	-0.601356	-0.029862	-0.096737	-0.044274	0.994325	-0.593977	0.804182	-0.021980	-0.798645	-0.592732	-0.104092
35983	9.908971	-0.860330	-3.631063	-0.108346	-0.576143	-0.015747	-0.101216	-0.047858	0.993713	-0.593088	0.804847	-0.021647	-0.798751	-0.591550	-0.109847
35984	9.955906	-1.000014	-4.232354	0.242604	-0.497941	-0.022965	-0.105023	-0.051017	0.993160	-0.595044	0.803401	-0.021654	-0.796801	-0.593249	-0.114733
35985	9.702277	0.054342	-3.589564	0.483476	-0.422972	-0.035103	-0.108149	-0.053864	0.992674	-0.598887	0.800537	-0.021808	-0.793498	-0.596858	-0.118836
35986	9.597069	0.050889	-2.394626	0.365481	-0.375200	-0.045490	-0.110819	-0.056496	0.992234	-0.601830	0.798328	-0.021760	-0.790898	-0.599567	-0.122471
35987	9.276470	-1.437645	-2.181719	0.257608	-0.360564	-0.049068	-0.113347	-0.059108	0.991796	-0.603876	0.796788	-0.021527	-0.788978	-0.601361	-0.126007
35988	9.742043	-1.214996	-1.065373	0.613728	-0.362877	-0.032741	-0.115974	-0.061583	0.991341	-0.608741	0.793065	-0.021949	-0.784847	-0.606015	-0.129463
35989	9.981620	0.367816	0.527733	0.589707	-0.368522	-0.008326	-0.118782	-0.063940	0.990860	-0.613327	0.789506	-0.022577	-0.780846	-0.610403	-0.132995
35990	9.721081	0.973204	0.957303	0.115631	-0.407533	0.019916	-0.122054	-0.066295	0.990307	-0.614204	0.788815	-0.022893	-0.779652	-0.611044	-0.136997
35991	9.424866	0.443288	0.203917	-0.025850	-0.470083	0.024403	-0.125843	-0.069023	0.989646	-0.613933	0.789022	-0.023037	-0.779262	-0.610476	-0.141668
35992	9.373842	0.953618	0.025204	0.220307	-0.510998	0.019537	-0.129910	-0.072015	0.988907	-0.615621	0.787692	-0.023511	-0.777261	-0.611846	-0.146663
35993	9.424623	1.794900	0.129710	0.197152	-0.547410	0.021316	-0.134263	-0.075245	0.988085	-0.617083	0.786533	-0.023954	-0.775359	-0.612946	-0.152035
35994	9.467361	1.378511	-0.251969	-0.102029	-0.582414	0.038289	-0.138985	-0.078533	0.987176	-0.616238	0.787190	-0.024137	-0.775199	-0.611690	-0.157803
35995	9.464768	-0.084534	-1.410982	-0.211320	-0.621942	0.046874	-0.144066	-0.082009	0.986164	-0.614498	0.788547	-0.024195	-0.775653	-0.609482	-0.163997
35996	9.710322	-0.984418	-2.546060	-0.025848	-0.601319	0.049566	-0.149003	-0.085305	0.985150	-0.614224	0.788748	-0.024603	-0.774937	-0.608769	-0.169922
35997	9.714956	-0.886659	-3.189145	0.185166	-0.561959	0.049686	-0.153629	-0.088384	0.984168	-0.615545	0.787694	-0.025348	-0.772983	-0.609694	-0.175417
35998	9.734991	-0.537623	-3.447118	0.292868	-0.529528	0.054455	-0.158021	-0.091212	0.983214	-0.617719	0.785956	-0.026367	-0.770358	-0.611517	-0.180541
35999	9.634091	-0.260923	-3.439025	0.337926	-0.483657	0.060062	-0.162087	-0.093752	0.982313	-0.620182	0.783976	-0.027511	-0.767530	-0.613672	-0.185215
36000	9.578720	-0.016973	-2.867558	0.340137	-0.451347	0.061206	-0.165895	-0.096071	0.981453	-0.622687	0.781944	-0.028711	-0.764683	-0.615901	-0.189543
36001	9.459357	-0.220349	-1.994228	0.181444	-0.425580	0.061735	-0.169507	-0.098264	0.980618	-0.623926	0.780923	-0.029597	-0.762879	-0.616850	-0.193681
36002	9.401365	-0.528161	-1.046017	0.086761	-0.431753	0.071938	-0.173217	-0.100389	0.979754	-0.624464	0.780460	-0.030435	-0.761604	-0.617093	-0.197878
36003	9.361343	-0.859647	-0.468194	-0.004411	-0.478191	0.074715	-0.177298	-0.102805	0.978773	-0.624257	0.780600	-0.031090	-0.760834	-0.616518	-0.202576
36004	9.473100	-0.396839	0.002137	0.168466	-0.514235	0.076280	-0.181653	-0.105406	0.977697	-0.625400	0.779642	-0.032144	-0.758865	-0.617291	-0.207545
36005	9.521897	0.563174	1.036995	0.103754	-0.577542	0.079309	-0.186500	-0.108397	0.976457	-0.626009	0.779114	-0.033076	-0.757186	-0.617440	-0.213162
36006	9.379206	0.581286	0.607562	-0.067950	-0.654392	0.077896	-0.191910	-0.111849	0.975018	-0.625348	0.779620	-0.033651	-0.756380	-0.616184	-0.219562
36007	9.373014	0.779860	-0.058902	0.134998	-0.744732	0.094795	-0.198096	-0.115738	0.973326	-0.626157	0.778919	-0.034817	-0.754112	-0.616352	-0.226771
36008	9.293094	1.536357	0.243134	0.422892	-0.820659	0.132431	-0.205068	-0.119799	0.971388	-0.629071	0.776465	-0.037043	-0.749811	-0.618669	-0.234591
36009	9.517369	2.199597	0.561249	0.236362	-0.905106	0.185791	-0.212976	-0.123995	0.969158	-0.630430	0.775248	-0.039353	-0.746458	-0.619367	-0.243279
36010	9.618525	0.736235	-0.503212	-0.061375	-1.007115	0.212929	-0.221796	-0.128595	0.966576	-0.629511	0.775897	-0.041224	-0.744663	-0.617613	-0.253043
36011	9.648737	-0.297591	-1.909803	0.269907	-1.041706	0.237991	-0.230994	-0.133224	0.963791	-0.630957	0.774560	-0.044156	-0.740631	-0.618311	-0.262978
36012	9.436236	0.268376	-1.655502	0.440499	-1.039433	0.261275	-0.240288	-0.137664	0.960890	-0.633595	0.772186	-0.047813	-0.735404	-0.620304	-0.272770
36013	9.008369	-0.479131	-2.613683	0.132644	-1.082398	0.278902	-0.249958	-0.142255	0.957750	-0.633869	0.771771	-0.050799	-0.731937	-0.619785	-0.283082
36014	8.916169	-1.347366	-4.071324	0.283785	-1.085993	0.293725	-0.259716	-0.146747	0.954470	-0.635194	0.770435	-0.054387	-0.727376	-0.620399	-0.293308
36015	9.130356	-0.423670	-3.722339	0.712748	-1.066729	0.320283	-0.269441	-0.150958	0.951111	-0.639490	0.766493	-0.059506	-0.720037	-0.624260	-0.303061
36016	8.946244	0.541582	-2.593151	0.552763	-1.077106	0.333554	-0.279270	-0.155167	0.947592	-0.642541	0.763545	-0.064337	-0.713547	-0.626835	-0.312937
36017	9.443927	0.069645	-2.405309	0.221721	-1.112381	0.334233	-0.289296	-0.159624	0.943837	-0.643151	0.762701	-0.068143	-0.708988	-0.626743	-0.323309
36018	9.519793	-0.905391	-2.280681	0.378106	-1.162269	0.318064	-0.299521	-0.164514	0.939799	-0.644889	0.760844	-0.072344	-0.703139	-0.627735	-0.333982
36019	9.810276	-0.855170	-0.843813	0.890660	-1.224912	0.312257	-0.310061	-0.169897	0.935413	-0.650143	0.755773	-0.078234	-0.693668	-0.632410	-0.344793
36020	10.273697	0.538135	1.133758	1.214519	-1.332826	0.331425	-0.321363	-0.175900	0.930476	-0.657454	0.748623	-0.085545	-0.681528	-0.639236	-0.356226
36021	11.825756	2.398662	2.693266	1.267501	-1.499996	0.387314	-0.334008	-0.182678	0.924699	-0.664753	0.741164	-0.093694	-0.668238	-0.645991	-0.368990
36022	13.617999	4.334314	4.220058	1.004096	-1.695909	0.475283	-0.348376	-0.190182	0.917859	-0.669786	0.735541	-0.101814	-0.655760	-0.650238	-0.383626
36023	14.598664	3.750600	5.042961	-0.002579	-1.955840	0.514367	-0.364524	-0.199103	0.909659	-0.667954	0.736549	-0.106453	-0.648814	-0.646416	-0.401482
36024	16.375755	0.239595	3.729878	-0.137472	-2.297120	0.424618	-0.382142	-0.210777	0.899745	-0.665491	0.738302	-0.109691	-0.641163	-0.640689	-0.422406
36025	16.073451	-2.745320	3.532654	0.127350	-2.296330	0.505275	-0.400039	-0.221729	0.889272	-0.664377	0.738540	-0.114724	-0.631325	-0.636706	-0.442757
36026	15.701724	-2.875570	2.740981	0.686899	-2.478648	0.519286	-0.418932	-0.233699	0.877428	-0.666546	0.735348	-0.122389	-0.616613	-0.636120	-0.463832
36027	15.462933	-2.241693	2.978287	0.666075	-2.615853	0.635878	-0.439004	-0.245668	0.864247	-0.667970	0.732555	-0.131069	-0.600909	-0.634831	-0.485693
36028	14.356055	-1.509023	1.442551	0.319665	-2.754968	0.747413	-0.460317	-0.257641	0.849546	-0.666519	0.732410	-0.139028	-0.586397	-0.630236	-0.508863
36029	14.019406	-0.674621	-0.262648	0.567830	-2.871111	0.782603	-0.482002	-0.269975	0.833539	-0.666257	0.730770	-0.148581	-0.569013	-0.626967	-0.532105
36030	13.566087	0.665455	-1.278389	0.382871	-2.816481	0.786574	-0.503003	-0.281838	0.817041	-0.664544	0.730545	-0.157118	-0.552603	-0.621990	-0.554760
36031	12.888796	1.268492	-3.813947	-0.228734	-2.701684	0.741423	-0.522540	-0.293110	0.800649	-0.659660	0.733932	-0.161839	-0.540186	-0.612723	-0.576862
36032	12.506065	1.468933	-5.949747	-0.632486	-2.513120	0.689529	-0.540496	-0.303296	0.784777	-0.652622	0.739820	-0.163556	-0.530988	-0.600565	-0.597808
36033	12.167322	2.746281	-5.548347	-1.377194	-2.085004	0.642054	-0.555560	-0.310898	0.771165	-0.641979	0.749797	-0.160209	-0.528409	-0.584077	-0.616147
36034	9.560586	2.908760	-8.316876	-2.244929	-1.819996	0.590755	-0.568934	-0.316871	0.758885	-0.626765	0.764503	-0.150667	-0.532428	-0.561362	-0.633555
36035	7.445609	1.534850	-10.958355	-1.834003	-1.879891	0.397765	-0.581283	-0.324214	0.746321	-0.614867	0.775760	-0.141896	-0.532961	-0.541370	-0.650285
36036	7.761165	0.711686	-8.592469	-1.303091	-1.740780	0.220952	-0.591864	-0.331801	0.734578	-0.606658	0.783428	-0.134930	-0.530719	-0.525498	-0.664973
36037	5.710309	-1.008257	-10.051708	-1.344337	-1.490296	0.179982	-0.600729	-0.338145	0.724419	-0.598593	0.790887	-0.127216	-0.529916	-0.510054	-0.677520
36038	5.679745	-3.268701	-11.037540	-0.309851	-1.470112	0.135237	-0.609249	-0.344542	0.714217	-0.596162	0.792909	-0.126041	-0.522883	-0.502579	-0.688482
36039	7.155935	-2.471796	-6.799025	0.808750	-1.091085	0.123325	-0.615514	-0.349111	0.706586	-0.599714	0.789168	-0.132504	-0.511357	-0.505307	-0.695111
36040	7.565868	-0.315469	-4.034878	0.872695	-0.433100	0.090274	-0.618228	-0.350624	0.703460	-0.603604	0.785042	-0.139184	-0.503445	-0.510659	-0.696973
36041	6.725775	1.099176	-4.151867	0.342711	0.190781	0.001028	-0.617158	-0.349685	0.704866	-0.605451	0.783190	-0.141571	-0.502539	-0.514134	-0.695069
36042	5.670545	0.553315	-4.894121	-0.113268	0.695286	-0.174694	-0.612561	-0.347497	0.709940	-0.605972	0.783155	-0.139520	-0.507510	-0.515668	-0.690304
36043	4.720607	-1.283867	-6.429540	-0.223006	1.099510	-0.378089	-0.604527	-0.344820	0.718085	-0.607256	0.782904	-0.135279	-0.515545	-0.517842	-0.682681
36044	4.441357	-2.618707	-7.033597	0.266096	1.482559	-0.553055	-0.593431	-0.341434	0.728878	-0.611969	0.779610	-0.133048	-0.522814	-0.525005	-0.671592
36045	4.258424	-2.493090	-6.499737	0.713326	1.850548	-0.675333	-0.579423	-0.336890	0.742141	-0.619799	0.773441	-0.132806	-0.529262	-0.536930	-0.656954
36046	4.371899	-2.548698	-6.427457	0.986755	2.192578	-0.764599	-0.562944	-0.330860	0.757381	-0.629438	0.765508	-0.133437	-0.535632	-0.551842	-0.639194
36047	4.428088	-2.027765	-6.213643	1.197511	2.515714	-0.813458	-0.544111	-0.322977	0.774357	-0.640505	0.756045	-0.134720	-0.541937	-0.569282	-0.618241
36048	4.560764	-1.299185	-5.882164	1.202495	2.789902	-0.861244	-0.523297	-0.313335	0.792452	-0.651678	0.746343	-0.135233	-0.549068	-0.587191	-0.594753
36049	4.973811	-0.869023	-5.839735	0.886261	3.038094	-0.905951	-0.500411	-0.301998	0.811410	-0.661327	0.738194	-0.133104	-0.558780	-0.603214	-0.569120
36050	5.356250	-1.782554	-6.556761	0.586998	3.215837	-0.935481	-0.475996	-0.289273	0.830511	-0.669224	0.731839	-0.128651	-0.570585	-0.617035	-0.541941
36051	5.539320	-2.772781	-6.455210	0.805067	3.362003	-0.955086	-0.450101	-0.275235	0.849502	-0.678370	0.724036	-0.124843	-0.580709	-0.632469	-0.512601
36052	6.024659	-1.745571	-5.643413	0.835829	3.528208	-0.973743	-0.422757	-0.259678	0.868242	-0.687527	0.716075	-0.120598	-0.590409	-0.647923	-0.481261
36053	6.581961	-1.019775	-5.593797	0.308527	3.674539	-0.979651	-0.393960	-0.242655	0.886518	-0.693450	0.711524	-0.113406	-0.603260	-0.659433	-0.448581
36054	6.765944	-1.910207	-6.198713	-0.139592	3.754045	-0.965754	-0.364282	-0.224636	0.903790	-0.696268	0.710189	-0.104122	-0.618473	-0.667210	-0.415116
36055	7.157741	-2.820817	-6.451104	-0.212193	3.789877	-0.958906	-0.333778	-0.206028	0.919861	-0.698355	0.709486	-0.094495	-0.633160	-0.673930	-0.380692
36056	7.547668	-2.731244	-6.239898	-0.122076	3.808232	-0.947454	-0.302756	-0.186970	0.934548	-0.700598	0.708448	-0.085230	-0.646144	-0.680546	-0.345478
36057	7.911799	-1.757733	-5.628374	-0.178381	3.827394	-0.913967	-0.271290	-0.167286	0.947849	-0.702115	0.707996	-0.076003	-0.658359	-0.686118	-0.309526
36058	8.370499	-1.173287	-5.464844	-0.481341	3.826648	-0.849375	-0.239849	-0.147019	0.959613	-0.701090	0.709969	-0.066461	-0.671524	-0.688716	-0.273359
36059	8.730878	-1.274626	-5.562211	-0.797974	3.813756	-0.757428	-0.208585	-0.126150	0.969834	-0.697418	0.714389	-0.057072	-0.685639	-0.688284	-0.236990
36060	8.921251	-2.300843	-5.538935	-0.904421	3.767049	-0.656154	-0.177905	-0.104984	0.978431	-0.692425	0.719847	-0.048663	-0.699212	-0.686148	-0.200758
36061	9.032468	-3.158474	-5.291744	-0.737066	3.699299	-0.579311	-0.147746	-0.083813	0.985468	-0.688204	0.724325	-0.041576	-0.710314	-0.684345	-0.164696
36062	9.365371	-3.231242	-4.891499	-0.411132	3.618194	-0.503407	-0.118413	-0.062728	0.990981	-0.685938	0.726771	-0.035959	-0.717961	-0.684010	-0.129086
36063	9.620370	-2.584269	-4.535047	-0.105608	3.537018	-0.447160	-0.089787	-0.041760	0.995085	-0.685666	0.727241	-0.031348	-0.722358	-0.685110	-0.093930
36064	9.773192	-1.651329	-3.853746	0.038432	3.410600	-0.398980	-0.062339	-0.021289	0.997828	-0.686245	0.726855	-0.027365	-0.724694	-0.686461	-0.059921
36065	9.934213	-0.979963	-3.015920	-0.103547	3.266819	-0.357254	-0.036078	-0.001479	0.999348	-0.685688	0.727510	-0.023678	-0.727001	-0.686095	-0.027262
36066	9.862406	-0.974468	-2.652567	-0.348690	3.076338	-0.310701	-0.011504	0.017302	0.999784	-0.683218	0.729927	-0.020494	-0.730124	-0.683306	0.003424
36067	9.820236	-1.142083	-2.490055	-0.398797	2.824942	-0.259345	0.011027	0.034655	0.999338	-0.680304	0.732712	-0.017902	-0.732848	-0.679656	0.031656
36068	10.002658	-0.988088	-1.926548	-0.437724	2.560019	-0.217453	0.031328	0.050384	0.998238	-0.677039	0.735776	-0.015889	-0.735280	-0.675348	0.057162
36069	9.987756	-1.545771	-2.209000	-0.575043	2.256085	-0.175480	0.049223	0.064244	0.996720	-0.672734	0.739743	-0.014458	-0.738246	-0.669815	0.079631
36070	9.069644	-1.955862	-2.238725	-0.097208	1.883669	-0.107245	0.063878	0.076028	0.995057	-0.671949	0.740475	-0.013441	-0.737837	-0.667769	0.098387
36071	8.002473	-0.479332	-0.855865	0.075771	1.477991	-0.087249	0.075460	0.085233	0.993499	-0.672438	0.740049	-0.012415	-0.736297	-0.667130	0.113158
36072	7.622529	-0.201838	-0.277245	-0.622764	1.046109	-0.067599	0.083664	0.091661	0.992269	-0.667781	0.744254	-0.012446	-0.739641	-0.661578	0.123477
36073	7.336274	-2.528411	-1.847611	-1.055577	0.602691	-0.038364	0.088468	0.095310	0.991509	-0.659894	0.751241	-0.013335	-0.746133	-0.653111	0.129355
36074	7.335142	-3.564057	-2.649135	-0.375505	0.206469	-0.007157	0.090089	0.096581	0.991240	-0.657073	0.753702	-0.013718	-0.748424	-0.650081	0.131361
36075	8.035990	-1.675667	-1.428743	0.190901	-0.166294	0.042585	0.088637	0.095795	0.991447	-0.658528	0.752429	-0.013827	-0.747318	-0.651670	0.129777
36076	8.694862	0.318767	-0.795958	-0.039999	-0.421922	0.135775	0.084620	0.094046	0.991965	-0.658339	0.752569	-0.015190	-0.747950	-0.651764	0.125597
36077	7.210064	0.923075	-1.398297	-1.000641	-0.728885	0.236449	0.077650	0.091072	0.992812	-0.651001	0.758847	-0.018694	-0.755095	-0.644870	0.118212
36078	7.651577	-2.079773	-3.872930	-1.116722	-1.087678	0.260291	0.067740	0.086062	0.993984	-0.642706	0.765783	-0.022503	-0.763112	-0.637315	0.107187
36079	10.358961	-2.478457	-3.150921	0.402261	-1.067815	0.231557	0.058162	0.080959	0.995019	-0.645889	0.763044	-0.024330	-0.761213	-0.641256	0.096671
36080	11.516201	1.703567	0.773888	0.500934	-0.656109	0.201494	0.051903	0.078251	0.995582	-0.649799	0.759667	-0.025832	-0.758332	-0.645587	0.090276
36081	11.485602	2.546453	2.384565	-1.122010	-0.224457	0.141773	0.049310	0.077836	0.995746	-0.641263	0.766804	-0.028184	-0.765735	-0.637145	0.087725
36082	11.178944	1.161501	0.419358	-1.643015	0.216777	0.026022	0.050847	0.079382	0.995547	-0.628603	0.777153	-0.029862	-0.776063	-0.624285	0.089416
36083	9.585450	2.934440	0.840518	-1.995623	0.460647	-0.036688	0.054732	0.081873	0.995139	-0.612945	0.789508	-0.031244	-0.788228	-0.608255	0.093395
36084	8.133415	-1.217146	-3.411022	-2.292856	-0.059313	-0.121778	0.055026	0.080525	0.995233	-0.594638	0.803352	-0.032123	-0.802108	-0.590035	0.092088
36085	10.781668	-5.524056	-2.003162	-0.553850	-0.381825	-0.144888	0.052856	0.077036	0.995626	-0.590049	0.806769	-0.031099	-0.805636	-0.585824	0.088098
36086	12.539277	-4.575915	-0.748693	0.284873	-0.407988	-0.082838	0.050091	0.073950	0.996003	-0.592292	0.805165	-0.029993	-0.804165	-0.588422	0.084132
36087	12.972258	-0.432139	1.339648	0.946097	-0.363231	-0.090992	0.047774	0.071010	0.996331	-0.599803	0.799649	-0.028232	-0.798720	-0.596254	0.080794
36088	12.285665	2.692563	3.411572	0.045648	-0.312390	-0.092697	0.045865	0.068383	0.996604	-0.600118	0.799448	-0.027237	-0.798596	-0.596831	0.077704
36089	10.564310	0.237616	1.845471	-1.102119	-0.314635	-0.038583	0.043614	0.066146	0.996856	-0.591174	0.806071	-0.027622	-0.805364	-0.588111	0.074260
36090	9.710942	-2.779162	-0.932732	-0.984997	-0.601538	-0.037200	0.038999	0.062306	0.997295	-0.583189	0.811856	-0.027915	-0.811399	-0.580523	0.067998
36091	10.794568	-3.300403	-1.685247	-0.514335	-0.729163	-0.072313	0.033525	0.057437	0.997786	-0.578939	0.814909	-0.027458	-0.814682	-0.576736	0.060573
36092	10.458529	-3.000862	-3.022505	0.191139	-0.677966	-0.055491	0.028356	0.053045	0.998189	-0.580471	0.813841	-0.026759	-0.813787	-0.578662	0.053868
36093	10.333833	-0.079734	-1.752755	0.453964	-0.620910	-0.101549	0.023904	0.048542	0.998535	-0.584069	0.811304	-0.025458	-0.811352	-0.582605	0.047745
36094	10.088557	-0.960988	-2.591147	0.242564	-0.582670	-0.136695	0.020009	0.044009	0.998831	-0.586000	0.809957	-0.023948	-0.810064	-0.584835	0.041996
36095	9.948911	-0.939995	-1.973864	0.768074	-0.545702	-0.145807	0.016469	0.039549	0.999082	-0.592118	0.805547	-0.022127	-0.805683	-0.591210	0.036684
36096	9.618107	0.433655	-0.224045	0.652778	-0.477636	-0.140936	0.013498	0.035556	0.999277	-0.597338	0.801729	-0.020458	-0.801876	-0.596630	0.032061
36097	9.141770	-0.116249	-0.245490	0.465885	-0.457305	-0.129411	0.010608	0.031699	0.999441	-0.600970	0.799046	-0.018964	-0.799201	-0.600433	0.027526
36098	9.373743	0.220526	0.192566	0.525960	-0.442374	-0.130053	0.007894	0.027973	0.999578	-0.605148	0.795921	-0.017495	-0.796074	-0.604754	0.023210
36099	9.276722	0.723861	0.771492	0.413003	-0.434668	-0.136724	0.005283	0.024176	0.999694	-0.608360	0.793501	-0.015974	-0.793644	-0.608089	0.018900
36100	9.169933	0.904120	1.472799	0.237895	-0.465696	-0.138495	0.002464	0.020218	0.999793	-0.610235	0.792087	-0.014514	-0.792216	-0.610073	0.014290
36101	9.316369	0.208194	1.369850	-0.022285	-0.507855	-0.130226	-0.000771	0.016003	0.999872	-0.609966	0.792318	-0.013151	-0.792427	-0.609898	0.009151
36102	9.388080	-0.216586	0.991990	0.045130	-0.550325	-0.135669	-0.004273	0.011548	0.999924	-0.610322	0.792066	-0.011755	-0.792142	-0.610326	0.003663
36103	9.618019	0.174979	1.240402	0.097403	-0.597375	-0.141160	-0.008143	0.006703	0.999944	-0.611052	0.791523	-0.010282	-0.791548	-0.611102	-0.002349
36104	9.832905	0.361543	1.034105	0.113589	-0.663014	-0.149021	-0.012447	0.001446	0.999921	-0.611961	0.790839	-0.008762	-0.790790	-0.612022	-0.008959
36105	10.186192	0.788572	0.862682	0.152770	-0.704222	-0.141485	-0.017138	-0.004057	0.999845	-0.613140	0.789941	-0.007305	-0.789789	-0.613170	-0.016026
36106	9.868363	1.016127	0.703050	0.018055	-0.733543	-0.109013	-0.022232	-0.009439	0.999708	-0.613299	0.789827	-0.006182	-0.789538	-0.613257	-0.023349
36107	9.789813	0.343596	0.085316	-0.064070	-0.791064	-0.086027	-0.027948	-0.015041	0.999496	-0.612739	0.790268	-0.005241	-0.789791	-0.612577	-0.031302
36108	10.137303	0.132239	-0.374807	0.092047	-0.804359	-0.077454	-0.033792	-0.020605	0.999216	-0.613485	0.789694	-0.004463	-0.788983	-0.613155	-0.039326
36109	10.163816	0.857648	-0.553439	0.125979	-0.768725	-0.051267	-0.039528	-0.025795	0.998885	-0.614467	0.788933	-0.003943	-0.787952	-0.613938	-0.047035
36110	9.953833	1.093690	-1.141306	0.026695	-0.752079	-0.040632	-0.045173	-0.030756	0.998506	-0.614690	0.788761	-0.003514	-0.787474	-0.613930	-0.054535
36111	9.915286	0.971809	-1.605327	0.021366	-0.724223	-0.014577	-0.050792	-0.035397	0.998082	-0.614814	0.788665	-0.003318	-0.787035	-0.613804	-0.061820
36112	9.968655	0.814850	-1.908309	-0.002479	-0.681809	-0.000998	-0.056121	-0.039612	0.997638	-0.614792	0.788683	-0.003269	-0.786690	-0.613523	-0.068615
36113	9.928246	0.268565	-2.678484	-0.051307	-0.622154	0.010289	-0.061080	-0.043428	0.997188	-0.614350	0.789027	-0.003267	-0.786666	-0.612821	-0.074874
36114	9.767981	-0.399798	-3.258899	0.093611	-0.565414	0.009866	-0.065556	-0.046840	0.996749	-0.615076	0.788461	-0.003401	-0.785738	-0.613299	-0.080498
36115	9.614738	-0.782143	-2.981026	0.307935	-0.526173	0.000431	-0.069688	-0.050155	0.996307	-0.617418	0.786627	-0.003587	-0.783542	-0.615388	-0.085785
36116	9.642851	-1.005499	-2.417835	0.487943	-0.495624	-0.010701	-0.073467	-0.053320	0.995871	-0.621238	0.783613	-0.003874	-0.780171	-0.618957	-0.090694
36117	9.638299	-1.034371	-1.683194	0.554675	-0.457318	-0.009476	-0.077013	-0.056340	0.995437	-0.625491	0.780220	-0.004233	-0.776422	-0.622962	-0.095327
36118	9.590358	-0.924961	-1.014126	0.635610	-0.467175	-0.005030	-0.080569	-0.059323	0.994982	-0.630413	0.776246	-0.004766	-0.772068	-0.627633	-0.099939
36119	9.869667	-0.199752	-0.084296	0.717381	-0.475634	0.001446	-0.084243	-0.062390	0.994490	-0.635833	0.771807	-0.005442	-0.767215	-0.632788	-0.104689
36120	9.641475	0.546429	0.639761	0.557242	-0.484520	0.023537	-0.088070	-0.065306	0.993971	-0.640074	0.768288	-0.006235	-0.763249	-0.636764	-0.109464
36121	9.479350	0.908387	0.770941	0.406571	-0.522864	0.029620	-0.092232	-0.068491	0.993379	-0.643135	0.765722	-0.006918	-0.760178	-0.639515	-0.114673
36122	9.610252	1.210382	0.972070	0.298259	-0.558854	0.036021	-0.096674	-0.071817	0.992722	-0.645362	0.763840	-0.007589	-0.757735	-0.641398	-0.120192
36123	9.413048	1.175197	0.763143	0.169420	-0.604203	0.034926	-0.101498	-0.075515	0.991966	-0.646592	0.762793	-0.008090	-0.756054	-0.642218	-0.126249
36124	9.493786	1.598601	0.444025	0.263458	-0.646596	0.046657	-0.106650	-0.079339	0.991126	-0.648530	0.761138	-0.008856	-0.753681	-0.643719	-0.132629
36125	9.476820	2.254650	1.094451	0.060144	-0.669948	0.065488	-0.112118	-0.083231	0.990203	-0.648918	0.760799	-0.009527	-0.752552	-0.643629	-0.139309
36126	9.355058	1.177793	0.257081	-0.461324	-0.733939	0.088381	-0.118190	-0.087288	0.989147	-0.645338	0.763836	-0.009705	-0.754699	-0.639481	-0.146608
36127	9.518299	-0.413499	-1.279281	-0.396187	-0.769775	0.103869	-0.124685	-0.091470	0.987971	-0.642127	0.766532	-0.010070	-0.756391	-0.635658	-0.154311
36128	9.587691	-0.291755	-1.461052	-0.107709	-0.759070	0.108373	-0.131091	-0.095481	0.986762	-0.641172	0.767319	-0.010932	-0.756117	-0.634117	-0.161808
36129	9.545450	-0.259636	-2.146501	-0.192856	-0.761438	0.111050	-0.137576	-0.099526	0.985478	-0.639551	0.768661	-0.011654	-0.756338	-0.631867	-0.169401
36130	9.411486	-0.462310	-3.228591	-0.025316	-0.750348	0.109115	-0.143915	-0.103447	0.984168	-0.639205	0.768933	-0.012647	-0.755451	-0.630905	-0.176785
36131	9.397446	-0.002535	-2.839891	0.132443	-0.722008	0.109195	-0.150050	-0.107237	0.982845	-0.640040	0.768216	-0.013896	-0.753548	-0.631145	-0.183907
36132	9.191638	-0.404899	-2.944126	0.050626	-0.716580	0.113627	-0.156142	-0.110908	0.981488	-0.640246	0.768022	-0.015069	-0.752133	-0.630747	-0.190929
36133	9.476332	-0.499524	-2.598834	0.280737	-0.721245	0.120812	-0.162323	-0.114602	0.980060	-0.642116	0.766425	-0.016730	-0.749225	-0.632028	-0.197996
36134	9.798998	0.124952	-1.569182	0.289973	-0.697898	0.142333	-0.168427	-0.117950	0.978632	-0.644049	0.764756	-0.018671	-0.746213	-0.633431	-0.204771
36135	9.657330	-0.063614	-1.425214	0.111305	-0.704460	0.175989	-0.174798	-0.121139	0.977124	-0.644563	0.764275	-0.020555	-0.744301	-0.633411	-0.211675
36136	9.420610	-0.253769	-1.481330	0.304250	-0.747957	0.196204	-0.181589	-0.124406	0.975474	-0.646473	0.762587	-0.023088	-0.741011	-0.634810	-0.218902
36137	9.547406	0.449560	-1.002945	0.551667	-0.800543	0.212565	-0.188865	-0.127950	0.973632	-0.650137	0.759361	-0.026321	-0.735970	-0.637965	-0.226602
36138	9.458857	1.036780	-0.382119	0.518817	-0.841786	0.240206	-0.196574	-0.131535	0.971626	-0.653480	0.756356	-0.029816	-0.730974	-0.640799	-0.234635
36139	9.433012	0.589516	-0.328990	0.390690	-0.914897	0.254603	-0.204897	-0.135543	0.969353	-0.655786	0.754218	-0.033156	-0.726610	-0.642482	-0.243424
36140	9.058666	0.031589	-0.262494	0.473386	-0.966050	0.262148	-0.213584	-0.139809	0.966869	-0.658667	0.751533	-0.036830	-0.721485	-0.644710	-0.252603
36141	9.356566	0.027354	-0.486180	0.624091	-1.057267	0.283376	-0.223031	-0.144575	0.964031	-0.662515	0.747920	-0.041109	-0.715074	-0.647854	-0.262593
36142	9.683906	1.141201	0.099855	0.980723	-1.116892	0.338126	-0.233187	-0.149346	0.960895	-0.668715	0.742035	-0.046952	-0.706006	-0.653513	-0.272903
36143	9.385086	2.216609	1.525009	0.651499	-1.203113	0.394314	-0.244259	-0.154352	0.957347	-0.672320	0.738398	-0.052486	-0.698802	-0.656463	-0.284134
36144	9.103687	1.549057	1.236714	0.221248	-1.361707	0.445085	-0.256704	-0.160024	0.953150	-0.672749	0.737645	-0.057342	-0.693911	-0.655951	-0.297012
36145	8.994894	1.049923	1.393561	0.222841	-1.475431	0.486795	-0.270134	-0.166162	0.948376	-0.673005	0.736986	-0.062573	-0.688543	-0.655165	-0.310913
36146	9.103738	1.074242	1.197814	0.189208	-1.618734	0.512533	-0.284651	-0.173002	0.942891	-0.672885	0.736616	-0.067984	-0.682788	-0.653809	-0.326089
36147	9.511456	1.201243	1.002063	0.255735	-1.737069	0.528070	-0.299971	-0.180502	0.936716	-0.673083	0.735881	-0.073744	-0.676000	-0.652609	-0.342235
36148	9.573427	0.937238	0.993254	0.013600	-1.865795	0.540544	-0.316133	-0.188688	0.929762	-0.671515	0.736789	-0.078799	-0.670170	-0.649260	-0.359630
36149	10.186417	-0.135689	-0.519749	0.062033	-2.071708	0.545076	-0.333551	-0.198143	0.921674	-0.670185	0.737425	-0.084004	-0.663021	-0.645712	-0.378761
36150	11.756990	0.590101	-0.910195	0.709604	-2.180149	0.556560	-0.351580	-0.208157	0.912722	-0.672947	0.733969	-0.091828	-0.650795	-0.646499	-0.398127
36151	14.202478	2.999381	-0.445665	1.020667	-2.332775	0.576552	-0.370426	-0.219077	0.902657	-0.677449	0.728578	-0.101179	-0.635490	-0.648983	-0.418298
36152	17.965438	3.107233	2.532896	0.747504	-2.452778	0.600636	-0.389884	-0.230650	0.891511	-0.679871	0.725075	-0.109737	-0.621101	-0.648897	-0.439507
36153	17.339206	-0.374870	2.370424	-0.269224	-2.498689	0.765138	-0.410424	-0.241227	0.879410	-0.675182	0.728592	-0.115253	-0.612929	-0.641064	-0.461904
36154	17.031670	-2.073805	1.564369	0.402950	-2.541847	0.840401	-0.431474	-0.251381	0.866394	-0.674097	0.728082	-0.124458	-0.599519	-0.637734	-0.483604
36155	15.991944	-0.377648	3.369725	0.604687	-2.634774	0.990247	-0.453650	-0.260969	0.852113	-0.673364	0.726709	-0.135924	-0.583766	-0.635444	-0.505399
36156	15.891775	0.991949	2.297087	-0.178306	-2.722386	1.147668	-0.477049	-0.269810	0.836437	-0.667004	0.730876	-0.144656	-0.572302	-0.626915	-0.528629
36157	15.089215	-0.316426	-1.230344	-0.712676	-2.795406	1.226686	-0.500937	-0.278166	0.819565	-0.657066	0.738567	-0.150940	-0.563317	-0.614120	-0.552749
36158	14.023457	0.023870	-2.540288	-0.497446	-2.727965	1.231488	-0.524166	-0.285651	0.802280	-0.647992	0.745060	-0.158085	-0.552590	-0.602734	-0.575635
36159	12.719061	0.994783	-4.049631	-1.438563	-2.629779	1.154066	-0.545912	-0.292622	0.785081	-0.634034	0.756826	-0.158790	-0.547705	-0.584454	-0.598693
36160	11.793099	-1.002115	-8.438814	-2.015270	-2.567400	0.967673	-0.565983	-0.299962	0.767910	-0.617648	0.771235	-0.153972	-0.546054	-0.561444	-0.621777
36161	11.891275	-1.664329	-8.491655	-1.247042	-2.263042	0.779560	-0.582928	-0.306472	0.752509	-0.606529	0.780393	-0.152017	-0.540664	-0.545034	-0.640797
36162	10.568804	0.485960	-7.529238	-1.544813	-1.764810	0.656130	-0.596373	-0.310806	0.740094	-0.594334	0.790695	-0.146862	-0.539543	-0.527447	-0.656272
36163	7.921139	0.465203	-9.432358	-1.803143	-1.750401	0.442453	-0.608298	-0.316388	0.727923	-0.582076	0.801316	-0.138130	-0.539594	-0.507731	-0.671601
36164	7.788428	-1.022584	-8.176235	-1.282150	-1.630899	0.252607	-0.618511	-0.322534	0.716530	-0.573642	0.808526	-0.131225	-0.537009	-0.492196	-0.685102
36165	5.432148	-1.773873	-9.703589	-1.272287	-1.512730	0.246237	-0.627904	-0.327914	0.705839	-0.565416	0.815406	-0.124170	-0.534829	-0.477059	-0.697404
36166	6.368522	-3.965500	-8.989519	-0.428744	-1.517850	0.142748	-0.636747	-0.333950	0.695004	-0.562254	0.817897	-0.122124	-0.527659	-0.468531	-0.708558
36167	8.237145	-3.865569	-5.041794	0.450390	-0.976605	0.096618	-0.642289	-0.337789	0.688014	-0.564117	0.816026	-0.125988	-0.518880	-0.469041	-0.714678
36168	7.780190	-0.477397	-2.946314	0.535227	-0.157854	0.005359	-0.643110	-0.338514	0.686890	-0.566868	0.813515	-0.129820	-0.514849	-0.472865	-0.715073
36169	6.499054	0.636160	-3.843120	-0.433447	0.438904	-0.218502	-0.639481	-0.338276	0.690387	-0.566166	0.814724	-0.125221	-0.520116	-0.470950	-0.712521
36170	4.953125	-2.376252	-6.665390	-0.741949	0.874321	-0.487495	-0.632106	-0.338173	0.697195	-0.565390	0.816550	-0.116540	-0.529883	-0.467852	-0.707346
36171	3.676014	-5.147393	-7.998892	0.013722	1.228166	-0.722001	-0.621331	-0.338337	0.706736	-0.570125	0.813947	-0.111567	-0.537499	-0.472248	-0.698625
36172	3.475570	-5.212594	-7.754770	1.030215	1.587704	-0.902163	-0.607546	-0.338062	0.718750	-0.581245	0.805951	-0.112238	-0.541334	-0.485960	-0.686149
36173	3.762921	-4.022719	-6.938014	1.765644	1.907892	-1.002714	-0.591178	-0.336657	0.732919	-0.596963	0.793701	-0.116939	-0.542350	-0.506657	-0.670190
36174	4.034578	-2.536464	-5.995373	2.062518	2.238208	-1.042374	-0.572691	-0.333274	0.748968	-0.614239	0.779505	-0.122810	-0.542895	-0.530378	-0.651126
36175	4.151912	-1.344598	-5.709196	1.905939	2.558803	-1.049103	-0.552114	-0.327543	0.766738	-0.630649	0.765596	-0.127063	-0.545393	-0.553695	-0.629260
36176	4.197893	-0.961559	-5.782810	1.563060	2.834586	-1.056444	-0.529809	-0.319595	0.785596	-0.644948	0.753350	-0.128479	-0.550768	-0.574738	-0.605253
36177	4.351334	-1.286753	-6.211016	1.166006	3.073124	-1.046205	-0.505824	-0.309497	0.805204	-0.656961	0.743141	-0.127057	-0.559057	-0.593256	-0.579226
36178	4.758559	-2.519730	-7.097474	1.058327	3.242809	-1.016778	-0.480781	-0.297500	0.824829	-0.667956	0.733676	-0.124719	-0.568053	-0.610912	-0.551454
36179	4.972337	-2.470036	-6.276638	1.353561	3.419035	-0.988209	-0.454464	-0.283477	0.844454	-0.680424	0.722300	-0.123717	-0.574878	-0.630812	-0.521144
36180	5.384031	-1.281064	-5.373537	1.060117	3.583863	-0.945024	-0.427195	-0.267356	0.863727	-0.690743	0.712910	-0.120966	-0.583419	-0.648290	-0.489226
36181	5.581131	-1.372145	-5.807954	0.471325	3.697116	-0.911767	-0.398965	-0.249622	0.882335	-0.697388	0.707372	-0.115214	-0.595379	-0.661296	-0.456301
36182	5.993571	-2.359417	-6.495347	0.142095	3.774139	-0.884959	-0.370014	-0.230738	0.899917	-0.701657	0.704295	-0.107916	-0.608907	-0.671363	-0.422498
36183	6.528784	-3.007255	-6.693779	0.047985	3.858887	-0.860111	-0.340107	-0.210698	0.916479	-0.705093	0.701989	-0.100275	-0.622231	-0.680307	-0.387313
36184	7.020109	-3.143270	-6.727629	0.084949	3.912332	-0.830058	-0.309624	-0.189751	0.931734	-0.708331	0.699743	-0.092881	-0.634350	-0.688734	-0.351063
36185	7.621278	-2.537253	-6.498224	0.161716	3.957210	-0.795726	-0.278570	-0.167876	0.945630	-0.711782	0.697125	-0.085922	-0.644798	-0.697018	-0.313690
36186	8.230780	-1.808732	-6.108340	0.023672	4.000026	-0.750051	-0.247188	-0.145106	0.958041	-0.713913	0.695785	-0.078815	-0.655154	-0.703440	-0.275582
36187	8.334282	-1.698058	-5.916174	-0.237752	4.013881	-0.686260	-0.215686	-0.121557	0.968867	-0.713993	0.696486	-0.071564	-0.666103	-0.707200	-0.237013
36188	8.220424	-2.323196	-6.141560	-0.402801	3.977252	-0.628965	-0.184455	-0.097802	0.977963	-0.712549	0.698649	-0.064526	-0.676942	-0.708749	-0.198558
36189	8.212493	-2.686658	-5.661281	-0.241584	3.915908	-0.546217	-0.153818	-0.073820	0.985338	-0.711876	0.699848	-0.058697	-0.685254	-0.710467	-0.160200
36190	8.578922	-2.552808	-5.172497	-0.199744	3.838576	-0.454914	-0.124111	-0.049731	0.991021	-0.711133	0.700990	-0.053882	-0.692017	-0.711435	-0.122366
36191	9.310021	-2.505257	-5.736326	0.043765	3.730211	-0.372409	-0.095511	-0.025759	0.995095	-0.711882	0.700503	-0.050194	-0.695775	-0.713184	-0.085243
36192	9.806463	-1.290471	-4.807260	0.458560	3.620400	-0.288007	-0.068235	-0.001901	0.997667	-0.715306	0.697189	-0.047595	-0.695472	-0.716885	-0.048933
36193	10.062796	0.262623	-3.691947	0.254515	3.509381	-0.209930	-0.042265	0.021823	0.998868	-0.717213	0.695364	-0.045539	-0.695571	-0.718326	-0.013737
36194	10.369922	0.471688	-3.352783	-0.146666	3.288772	-0.110772	-0.018526	0.044625	0.998832	-0.716222	0.696459	-0.044400	-0.697627	-0.716208	0.019059
36195	10.838168	-0.250009	-2.827903	-0.246937	2.997231	-0.034314	0.002714	0.065789	0.997830	-0.714502	0.698242	-0.044093	-0.699628	-0.712832	0.048901
36196	10.825736	-0.563426	-1.957585	-0.259576	2.683126	0.015923	0.021427	0.084958	0.996154	-0.712681	0.700083	-0.044378	-0.701161	-0.708989	0.075548
36197	10.271753	-0.621118	-0.988564	-0.299923	2.243821	0.049793	0.036874	0.101143	0.994188	-0.710580	0.702171	-0.045080	-0.702649	-0.704788	0.097762
36198	9.212665	-1.130472	-0.681326	-0.358632	1.746634	0.054146	0.048812	0.113777	0.992306	-0.708074	0.704641	-0.045964	-0.704449	-0.700383	0.114958
36199	8.196227	-0.589752	-0.716225	-0.324938	1.228231	0.060680	0.057095	0.122754	0.990793	-0.705798	0.706859	-0.046903	-0.706109	-0.696622	0.126998
36200	7.590062	-0.486311	-0.815082	-0.397814	0.640889	0.075116	0.061132	0.127720	0.989925	-0.703022	0.709538	-0.048129	-0.708536	-0.692996	0.133165
36201	7.510994	-0.415318	-1.074192	-0.398076	0.099921	0.097095	0.061210	0.129063	0.989746	-0.700232	0.712192	-0.049565	-0.711286	-0.690018	0.133967
36202	7.443056	0.154769	-2.085319	-0.520447	-0.340600	0.132783	0.057886	0.127647	0.990129	-0.696593	0.715614	-0.051532	-0.715128	-0.686734	0.130342
36203	7.160542	0.771601	-3.400145	-0.517666	-0.718686	0.138098	0.051821	0.123663	0.990970	-0.692923	0.719025	-0.053492	-0.719147	-0.683894	0.122950
36204	7.989303	1.609266	-3.484430	-0.820638	-0.947199	0.111963	0.044240	0.117996	0.992028	-0.687043	0.724491	-0.055535	-0.725269	-0.679109	0.113120
36205	9.004819	2.052354	-3.994815	-1.339208	-0.900997	0.113071	0.036939	0.112671	0.992946	-0.677256	0.733455	-0.058031	-0.734819	-0.670335	0.103400
36206	8.826846	2.754402	-4.233479	-1.805045	-0.804021	0.113040	0.030255	0.108146	0.993674	-0.663912	0.745327	-0.060903	-0.747198	-0.657870	0.094350
36207	9.320231	0.152495	-5.488999	-2.227399	-0.967451	0.035290	0.022770	0.102025	0.994521	-0.647024	0.759851	-0.063136	-0.762129	-0.642042	0.083314
36208	12.299605	-4.633581	-3.622031	-1.114733	-0.731834	-0.066421	0.017624	0.096826	0.995145	-0.638468	0.767039	-0.063324	-0.769446	-0.634253	0.075338
36209	12.952608	-3.406114	0.625928	-0.572466	0.081293	-0.054853	0.018642	0.096806	0.995129	-0.633940	0.770803	-0.063108	-0.773158	-0.629675	0.075738
36210	10.230980	-1.647932	1.044068	-1.529652	0.453396	-0.023836	0.022349	0.099426	0.994794	-0.622029	0.780373	-0.064021	-0.782675	-0.617360	0.079287
36211	8.100174	-4.468899	-0.247312	-1.768479	0.212072	-0.010590	0.024125	0.100532	0.994641	-0.607991	0.791260	-0.065229	-0.793578	-0.603159	0.080212
36212	9.573278	-7.265967	0.712875	-1.044370	-0.067186	-0.002404	0.023634	0.100087	0.994698	-0.599663	0.797527	-0.066000	-0.799904	-0.594923	0.078867
36213	11.320138	-6.623874	1.821976	-0.048929	-0.203691	0.013136	0.021958	0.098895	0.994856	-0.599197	0.797870	-0.066088	-0.800301	-0.594663	0.076777
36214	11.884523	-4.060091	2.795326	0.232555	-0.344740	0.020522	0.019108	0.096981	0.995103	-0.601054	0.796472	-0.066082	-0.798980	-0.596848	0.073509
36215	11.566974	-2.083883	2.667186	0.362763	-0.451872	0.033196	0.015329	0.094478	0.995409	-0.603903	0.794313	-0.066092	-0.796911	-0.600117	0.069232
36216	10.985040	1.232689	2.896301	0.498312	-0.475835	0.015020	0.011483	0.091708	0.995720	-0.607862	0.791306	-0.065871	-0.793959	-0.604504	0.064833
36217	10.105736	3.864957	2.649578	0.172386	-0.514024	0.013788	0.007350	0.088649	0.996036	-0.609187	0.790289	-0.065842	-0.792993	-0.606288	0.059812
36218	9.503786	4.212227	0.279398	-0.004794	-0.707591	-0.038360	0.002002	0.084031	0.996461	-0.609141	0.790358	-0.065426	-0.793059	-0.606855	0.052769
36219	10.088370	4.159970	0.578239	-0.066895	-0.850244	-0.110095	-0.004038	0.077930	0.996951	-0.608552	0.790905	-0.064289	-0.793504	-0.606956	0.044230
36220	9.666177	1.038583	-0.065580	-0.382846	-0.800259	-0.134151	-0.009553	0.071997	0.997359	-0.605513	0.793332	-0.063068	-0.795778	-0.604517	0.036016
36221	9.353734	-1.150003	-0.367974	-0.075738	-0.757530	-0.173716	-0.014496	0.065958	0.997717	-0.604858	0.793972	-0.061276	-0.796201	-0.604365	0.028386
36222	9.243609	-2.414124	-0.352270	0.026943	-0.750843	-0.216651	-0.019132	0.059674	0.998035	-0.605104	0.793952	-0.059071	-0.795917	-0.605044	0.020919
36223	8.905752	-3.256732	-0.655126	0.294458	-0.849558	-0.213969	-0.024555	0.052747	0.998306	-0.607422	0.792346	-0.056806	-0.794000	-0.607787	0.012583
36224	9.921458	-2.501887	0.381580	0.253964	-0.873993	-0.172714	-0.030406	0.046034	0.998477	-0.609478	0.790891	-0.055024	-0.792219	-0.610223	0.004009
36225	9.830126	-0.858919	-0.606254	0.026959	-0.811693	-0.114901	-0.036105	0.040102	0.998543	-0.609671	0.790827	-0.053804	-0.791832	-0.610725	-0.004104
36226	10.116032	1.773197	-0.030053	-0.420009	-0.821598	-0.065241	-0.042193	0.034556	0.998512	-0.606361	0.793416	-0.053080	-0.794069	-0.607698	-0.012523
36227	10.168351	0.192556	-1.504833	-1.217832	-0.843615	-0.028064	-0.048723	0.029174	0.998386	-0.596597	0.800821	-0.052516	-0.801061	-0.598193	-0.021613
36228	10.135594	-1.646458	-2.520296	-0.944053	-0.812602	-0.050504	-0.054924	0.023913	0.998204	-0.589032	0.806453	-0.051730	-0.806241	-0.590815	-0.030208
36229	10.162429	-1.085472	-2.250287	-0.482281	-0.750391	-0.102780	-0.060354	0.018589	0.998004	-0.585127	0.809370	-0.050461	-0.808693	-0.587004	-0.037972
36230	10.183319	0.157460	-2.156254	-0.060438	-0.691753	-0.144835	-0.065071	0.013333	0.997792	-0.584725	0.809753	-0.048953	-0.808618	-0.586619	-0.044896
36231	10.018870	1.011058	-1.453760	0.134437	-0.666706	-0.147370	-0.069573	0.008146	0.997544	-0.585834	0.809040	-0.047465	-0.807439	-0.587698	-0.051515
36232	10.047997	0.658659	-1.101417	0.094170	-0.662998	-0.116873	-0.074208	0.003278	0.997237	-0.586675	0.808497	-0.046314	-0.806416	-0.588491	-0.058074
36233	10.198759	0.092135	-1.138773	0.122096	-0.629493	-0.073214	-0.078828	-0.001105	0.996888	-0.587631	0.807845	-0.045571	-0.805280	-0.589394	-0.064331
36234	9.926019	0.066129	-0.719360	0.099135	-0.589675	-0.018470	-0.083436	-0.004757	0.996502	-0.588441	0.807264	-0.045416	-0.804224	-0.590171	-0.070154
36235	9.665521	-0.273139	-0.888582	-0.031101	-0.595051	0.005774	-0.088233	-0.008306	0.996065	-0.588100	0.807515	-0.045361	-0.803961	-0.589788	-0.076134
36236	9.638320	-0.434819	-1.346447	0.058346	-0.577733	0.020433	-0.092966	-0.011574	0.995602	-0.588547	0.807177	-0.045573	-0.803100	-0.590196	-0.081851
36237	9.726019	0.339318	-1.093046	0.129268	-0.572981	0.029285	-0.097715	-0.014806	0.995104	-0.589470	0.806486	-0.045884	-0.801858	-0.591068	-0.087534
36238	9.601147	0.281578	-0.936262	0.013792	-0.594241	0.042369	-0.102699	-0.018001	0.994550	-0.589536	0.806415	-0.046281	-0.801187	-0.591076	-0.093430
36239	9.472207	-0.008979	-1.198176	0.051091	-0.586888	0.054097	-0.107697	-0.021120	0.993959	-0.589799	0.806194	-0.046775	-0.800336	-0.591274	-0.099281
36240	9.681708	0.254659	-1.349331	0.168826	-0.571248	0.061202	-0.112596	-0.024032	0.993350	-0.591079	0.805213	-0.047518	-0.798716	-0.592499	-0.104869
36241	9.540736	0.645550	-1.398763	0.088080	-0.534266	0.084584	-0.117341	-0.026605	0.992735	-0.591594	0.804784	-0.048359	-0.797651	-0.592971	-0.110173
36242	9.490829	-0.001327	-1.701150	-0.069912	-0.523479	0.083737	-0.121982	-0.029057	0.992107	-0.590934	0.805226	-0.049073	-0.797444	-0.592256	-0.115394
36243	9.503574	-0.866690	-2.160306	0.037488	-0.499248	0.061000	-0.126303	-0.031611	0.991488	-0.591062	0.805098	-0.049625	-0.796676	-0.592299	-0.120370
36244	9.553460	-0.927004	-1.639615	0.210375	-0.485160	0.051764	-0.130440	-0.034096	0.990870	-0.592668	0.803871	-0.050358	-0.794815	-0.593825	-0.125065
36245	9.635995	-0.962452	-1.055399	0.169263	-0.500286	0.065687	-0.134785	-0.036629	0.990198	-0.593830	0.802964	-0.051129	-0.793220	-0.594901	-0.129979
36246	9.674593	-1.165223	-0.462235	0.092542	-0.517984	0.078565	-0.139328	-0.039106	0.989474	-0.594454	0.802447	-0.051991	-0.791967	-0.595441	-0.135050
36247	9.539923	-1.097449	0.007417	0.081654	-0.552035	0.097105	-0.144257	-0.041697	0.988661	-0.594874	0.802072	-0.052971	-0.790768	-0.595771	-0.140509
36248	9.716951	-0.692395	0.335779	0.067375	-0.602957	0.112555	-0.149661	-0.044412	0.987739	-0.595240	0.801722	-0.054142	-0.789488	-0.596045	-0.146422
36249	9.795639	-0.245769	0.449660	0.073173	-0.648177	0.126897	-0.155511	-0.047335	0.986699	-0.595543	0.801409	-0.055416	-0.788127	-0.596240	-0.152818
36250	9.558985	0.206298	0.255795	0.068340	-0.692038	0.138609	-0.161756	-0.050375	0.985544	-0.595861	0.801073	-0.056852	-0.786629	-0.596443	-0.159595
36251	9.462834	0.718300	-0.069628	0.133770	-0.730464	0.143326	-0.168329	-0.053658	0.984269	-0.596601	0.800411	-0.058395	-0.784686	-0.597046	-0.166744
36252	9.473372	1.010165	-0.334745	-0.025956	-0.757727	0.162231	-0.175208	-0.056905	0.982885	-0.596119	0.800658	-0.059909	-0.783546	-0.596413	-0.174204
36253	9.568931	-0.100022	-1.468381	-0.261985	-0.787861	0.181760	-0.182441	-0.060207	0.981372	-0.593667	0.802385	-0.061139	-0.783757	-0.593762	-0.182131
36254	9.505793	-1.058177	-3.149341	-0.057542	-0.783270	0.183419	-0.189634	-0.063406	0.979805	-0.592875	0.802843	-0.062792	-0.782648	-0.592810	-0.189839
36255	9.572104	-0.879392	-3.135181	0.271185	-0.758143	0.190351	-0.196665	-0.066449	0.978216	-0.594551	0.801419	-0.065092	-0.779635	-0.594401	-0.197119
36256	9.553777	-1.092956	-3.376937	0.123378	-0.733032	0.185774	-0.203448	-0.069345	0.976627	-0.595141	0.800814	-0.067117	-0.777442	-0.594885	-0.204194
36257	9.447813	-1.950946	-4.194369	0.280551	-0.725229	0.175651	-0.210103	-0.072329	0.975000	-0.596878	0.799331	-0.069324	-0.774334	-0.596522	-0.211113
36258	9.623774	-1.338505	-3.575755	0.731316	-0.685653	0.157783	-0.216309	-0.075203	0.973424	-0.602184	0.795068	-0.072390	-0.768495	-0.601839	-0.217267
36259	9.450994	-0.456037	-2.335155	0.833568	-0.680640	0.150497	-0.222412	-0.078195	0.971812	-0.608156	0.790209	-0.075602	-0.762023	-0.607828	-0.223307
36260	9.148931	-0.587815	-1.288798	0.826700	-0.715247	0.156597	-0.228766	-0.081355	0.970076	-0.614077	0.785287	-0.078956	-0.755365	-0.613763	-0.229605
36261	8.847941	-0.499348	-0.403448	1.070244	-0.789306	0.180932	-0.235797	-0.084880	0.968089	-0.621622	0.778895	-0.083116	-0.746985	-0.621383	-0.236424
36262	9.105936	0.857008	1.536456	1.493192	-0.888861	0.224585	-0.243763	-0.088735	0.965767	-0.632154	0.769734	-0.088834	-0.735500	-0.632168	-0.243727
36263	8.774699	2.224295	4.352903	1.179106	-1.022529	0.280138	-0.252994	-0.093154	0.962973	-0.640007	0.762551	-0.094378	-0.725524	-0.640187	-0.252540
36264	8.271489	1.670734	4.784643	0.551694	-1.271632	0.322935	-0.264219	-0.098879	0.959381	-0.643159	0.759323	-0.098869	-0.718704	-0.643158	-0.264222
36265	8.774299	1.210285	4.463823	0.552531	-1.474569	0.361511	-0.277061	-0.105693	0.955022	-0.646084	0.756182	-0.103748	-0.711205	-0.645769	-0.277795
36266	9.881831	1.915447	4.312455	0.392568	-1.645155	0.412217	-0.291338	-0.113236	0.949894	-0.647695	0.754098	-0.108756	-0.703998	-0.646926	-0.293040
36267	11.037425	2.196280	3.188253	0.079938	-1.814172	0.489475	-0.307183	-0.121308	0.943887	-0.646763	0.754190	-0.113558	-0.698095	-0.645354	-0.310132
36268	12.108728	2.099023	1.627359	-0.084590	-1.965289	0.536822	-0.324284	-0.129931	0.936994	-0.644485	0.755410	-0.118298	-0.692444	-0.642241	-0.328706
36269	13.248158	1.829914	0.399044	-0.105668	-2.075073	0.568905	-0.342197	-0.138955	0.929297	-0.641846	0.756877	-0.123175	-0.686247	-0.638615	-0.348189
36270	13.297403	0.943216	-0.904684	-0.312146	-2.154763	0.566311	-0.360518	-0.148386	0.920874	-0.637729	0.759676	-0.127257	-0.680682	-0.633146	-0.368507
36271	14.660692	-0.740634	-2.921977	0.109500	-2.353874	0.514180	-0.379650	-0.159383	0.911297	-0.636559	0.759794	-0.132308	-0.671310	-0.630326	-0.389913
36272	17.211296	-1.695141	-0.432022	1.275541	-2.376012	0.543685	-0.398844	-0.170340	0.901059	-0.642904	0.752613	-0.142297	-0.653910	-0.636049	-0.409687
36273	16.623731	-1.037494	3.005851	1.318807	-2.294115	0.647799	-0.417761	-0.180175	0.890513	-0.648776	0.745325	-0.153557	-0.636055	-0.641893	-0.428261
36274	15.513300	-0.449259	4.073480	0.363837	-2.285565	0.770680	-0.437127	-0.189110	0.879294	-0.647784	0.744415	-0.161934	-0.623936	-0.640378	-0.447907
36275	15.284459	0.042377	4.466729	0.092524	-2.317206	0.935721	-0.457421	-0.196956	0.867164	-0.644218	0.745601	-0.170473	-0.612983	-0.636621	-0.467937
36276	14.052374	2.207213	4.047396	-1.607431	-2.110029	1.029210	-0.476886	-0.202504	0.855320	-0.629565	0.757758	-0.171611	-0.613374	-0.620318	-0.488854
36277	12.939774	0.234748	-1.547282	-2.544170	-2.296128	0.958238	-0.496860	-0.209147	0.842251	-0.609315	0.775151	-0.166961	-0.617953	-0.596153	-0.512578
36278	12.384627	-0.152015	-3.074162	-1.741271	-2.261192	0.855090	-0.515942	-0.215764	0.829005	-0.594245	0.787187	-0.164955	-0.616991	-0.577740	-0.534359
36279	10.671103	-0.131267	-5.681267	-2.060576	-2.440323	0.712613	-0.535061	-0.223970	0.814584	-0.577886	0.800375	-0.159522	-0.616245	-0.556091	-0.557679
36280	10.698014	-1.830786	-8.601464	-1.257932	-2.550004	0.513011	-0.553602	-0.233846	0.799275	-0.567397	0.808442	-0.156469	-0.609577	-0.540128	-0.580239
36281	9.839293	-0.147425	-8.230677	-0.725307	-2.466785	0.368825	-0.570497	-0.244068	0.784196	-0.561029	0.813142	-0.155067	-0.599816	-0.528422	-0.600825
36282	8.748228	-0.548680	-8.562141	-0.738973	-2.318321	0.248967	-0.585659	-0.254178	0.769673	-0.555207	0.817620	-0.152456	-0.590549	-0.516616	-0.619968
36283	7.216167	-1.167128	-8.990085	-0.684206	-2.185177	0.239325	-0.599688	-0.263419	0.755635	-0.549861	0.821689	-0.149935	-0.581401	-0.505409	-0.637601
36284	8.063441	-2.021478	-7.590785	-0.407279	-1.944673	0.209557	-0.612025	-0.271467	0.742786	-0.546260	0.824285	-0.148844	-0.571861	-0.496850	-0.652774
36285	8.143308	-1.055369	-4.744843	-0.137576	-1.435530	0.156691	-0.620937	-0.277308	0.733169	-0.544589	0.825353	-0.149049	-0.563791	-0.491826	-0.663511
36286	6.896229	0.274669	-3.663264	-0.561016	-0.941008	-0.017924	-0.626106	-0.282077	0.726927	-0.541564	0.828035	-0.145141	-0.560981	-0.484551	-0.671201
36287	6.245493	-1.453351	-5.703126	-1.034946	-0.550151	-0.244248	-0.627785	-0.286782	0.723631	-0.537357	0.832260	-0.136350	-0.563146	-0.474447	-0.676584
36288	5.770395	-4.096013	-8.074609	-0.565103	-0.143341	-0.429326	-0.626262	-0.291062	0.723242	-0.536879	0.833679	-0.129383	-0.565293	-0.469321	-0.678367
36289	5.571891	-4.583964	-8.094527	0.529179	0.296214	-0.577373	-0.621374	-0.294505	0.726059	-0.543550	0.829445	-0.128740	-0.564311	-0.474645	-0.675474
36290	5.403663	-3.313433	-7.047166	1.277322	0.742921	-0.692323	-0.613362	-0.296672	0.731965	-0.555035	0.821248	-0.132242	-0.561892	-0.487379	-0.668385
36291	5.345878	-2.463711	-6.602281	1.537771	1.180752	-0.787399	-0.602215	-0.297286	0.740917	-0.568536	0.811238	-0.136602	-0.560450	-0.503501	-0.657558
36292	4.964330	-2.227317	-6.412153	1.674442	1.590452	-0.861600	-0.588314	-0.296101	0.752470	-0.583065	0.800091	-0.141026	-0.560287	-0.521707	-0.643351
36293	4.647425	-1.924356	-6.246632	1.810886	1.947910	-0.943313	-0.571722	-0.293263	0.766244	-0.598771	0.787627	-0.145317	-0.560898	-0.541886	-0.625901
36294	4.513649	-1.563707	-6.107897	1.840669	2.268879	-1.012155	-0.552807	-0.288660	0.781716	-0.614818	0.774508	-0.148783	-0.562497	-0.562862	-0.605627
36295	4.512439	-1.298403	-5.943089	1.772972	2.557264	-1.066352	-0.531648	-0.282213	0.798565	-0.630673	0.761246	-0.150849	-0.565333	-0.583832	-0.582699
36296	4.756599	-1.019759	-5.980319	1.535426	2.825910	-1.103097	-0.508535	-0.273792	0.816352	-0.645144	0.749060	-0.150660	-0.570247	-0.603281	-0.557558
36297	5.206045	-1.362016	-6.552315	1.223588	3.042943	-1.115495	-0.483711	-0.263490	0.834624	-0.657763	0.738530	-0.148058	-0.577383	-0.620602	-0.530549
36298	5.448592	-2.165143	-6.456705	1.251808	3.213440	-1.116237	-0.457603	-0.251471	0.852855	-0.670301	0.727773	-0.145064	-0.584206	-0.638052	-0.501592
36299	5.781003	-1.583567	-5.695964	1.304206	3.372687	-1.108759	-0.430201	-0.237677	0.870883	-0.682934	0.716586	-0.141791	-0.590362	-0.655754	-0.470594
36300	6.318901	-0.423217	-5.228692	1.008011	3.496105	-1.097845	-0.401838	-0.222320	0.888313	-0.693503	0.707371	-0.136678	-0.597980	-0.670970	-0.438428
36301	6.700318	-0.020580	-4.858703	0.382102	3.589424	-1.078500	-0.372568	-0.205667	0.904928	-0.700025	0.702452	-0.128558	-0.609228	-0.681368	-0.405683
36302	6.898056	-0.955330	-5.233957	-0.318139	3.660216	-1.057039	-0.342543	-0.188080	0.920483	-0.701850	0.702545	-0.117633	-0.624557	-0.686336	-0.372656
36303	7.248944	-2.142998	-5.986779	-0.670107	3.740785	-1.023887	-0.311594	-0.169592	0.934959	-0.700983	0.705304	-0.105681	-0.641508	-0.688320	-0.338650
36304	7.696768	-3.062842	-6.611937	-0.623433	3.805447	-0.984672	-0.279951	-0.150343	0.948169	-0.699853	0.708026	-0.094369	-0.657141	-0.689997	-0.303430
36305	8.204738	-2.919077	-6.489511	-0.376767	3.866663	-0.949107	-0.247568	-0.130353	0.960061	-0.699871	0.709292	-0.084169	-0.669993	-0.692757	-0.266829
36306	8.801560	-2.422699	-6.266607	-0.250882	3.884964	-0.907661	-0.214939	-0.109842	0.970431	-0.700279	0.709946	-0.074746	-0.680743	-0.695638	-0.229515
36307	9.343292	-2.024842	-5.108294	-0.169140	3.862289	-0.870934	-0.182298	-0.089131	0.979195	-0.700853	0.710262	-0.065828	-0.689618	-0.698272	-0.191947
36308	9.358876	-2.724736	-4.585639	-0.363712	3.777037	-0.853015	-0.150074	-0.068833	0.986276	-0.699746	0.712132	-0.056774	-0.698450	-0.698663	-0.155038
36309	9.421559	-3.927303	-4.622388	-0.031803	3.648356	-0.825573	-0.118647	-0.049214	0.991716	-0.700627	0.711878	-0.048495	-0.703594	-0.700577	-0.118942
36310	10.274609	-3.322733	-4.588366	0.503128	3.576304	-0.813766	-0.087725	-0.029865	0.995697	-0.705005	0.708023	-0.040878	-0.703755	-0.705558	-0.083167
36311	10.737374	-1.577001	-3.911695	0.821640	3.480031	-0.766664	-0.057797	-0.010632	0.998272	-0.711322	0.702057	-0.033707	-0.700486	-0.712041	-0.048140
36312	10.475033	-0.378457	-2.861572	0.718382	3.309372	-0.655740	-0.029959	0.008411	0.999516	-0.716625	0.696923	-0.027344	-0.696815	-0.717097	-0.014851
36313	10.270316	-0.513334	-2.337776	0.394652	3.080551	-0.519915	-0.004734	0.026882	0.999627	-0.719440	0.694204	-0.022076	-0.694539	-0.719276	0.016053
36314	10.116106	-1.294304	-2.460800	0.264266	2.832101	-0.418311	0.017955	0.044346	0.998855	-0.721238	0.692459	-0.017778	-0.692454	-0.720093	0.044417
36315	9.914746	-2.225280	-2.415589	0.370274	2.538996	-0.334753	0.037970	0.060285	0.997459	-0.723673	0.689998	-0.014155	-0.689098	-0.721296	0.069825
36316	9.874012	-2.616480	-2.105898	0.715321	2.217059	-0.294292	0.055349	0.074273	0.995701	-0.728435	0.685033	-0.010606	-0.682876	-0.724716	0.092019
36317	9.532717	-1.951993	-0.947686	1.030333	1.837695	-0.259783	0.069774	0.085821	0.993864	-0.735229	0.677783	-0.006911	-0.674218	-0.730236	0.110390
36318	8.605166	-0.490440	0.037727	0.968582	1.437203	-0.199333	0.080910	0.094991	0.992185	-0.741561	0.670875	-0.003757	-0.665989	-0.735461	0.124723
36319	8.029986	1.087484	0.462607	0.498904	0.979307	-0.113382	0.088304	0.101395	0.990920	-0.744740	0.667352	-0.001920	-0.661486	-0.737808	0.134443
36320	7.647879	1.243373	0.728134	-0.282318	0.487648	-0.006959	0.091620	0.104922	0.990251	-0.742855	0.669449	-0.002201	-0.663153	-0.735411	0.139277
36321	7.586092	-0.407242	-0.281467	-0.884413	0.004901	0.061317	0.091252	0.105313	0.990244	-0.736975	0.675908	-0.003970	-0.669732	-0.729423	0.139290
36322	7.836335	-0.789251	-1.328797	-0.758615	-0.399261	0.128390	0.087656	0.103262	0.990784	-0.731978	0.681300	-0.006248	-0.675666	-0.724684	0.135306
36323	7.645135	0.715126	-1.007142	-0.987096	-0.763123	0.227425	0.080863	0.099249	0.991772	-0.725415	0.688244	-0.009728	-0.683546	-0.718659	0.127650
36324	7.457701	0.252673	-2.438917	-1.583043	-1.153856	0.324503	0.070602	0.093245	0.993137	-0.714733	0.699240	-0.014841	-0.695825	-0.708780	0.116013
36325	8.486247	-1.232315	-4.330888	-1.607847	-1.413833	0.342270	0.058297	0.085633	0.994620	-0.703608	0.710309	-0.019915	-0.708193	-0.698662	0.101661
36326	9.828280	-1.076558	-3.963902	-0.803944	-1.368121	0.336187	0.046241	0.078483	0.995842	-0.698056	0.715641	-0.023986	-0.714548	-0.694045	0.087877
36327	9.781772	1.434354	-1.620547	-1.197822	-1.114577	0.307317	0.036137	0.072914	0.996683	-0.689498	0.723748	-0.027948	-0.723385	-0.686201	0.076428
36328	9.870033	0.426813	-3.076264	-2.080368	-0.848615	0.244689	0.028300	0.068919	0.997221	-0.674369	0.737708	-0.031846	-0.737852	-0.671593	0.067354
36329	10.247188	-0.772870	-2.594168	-1.653633	-0.486224	0.175758	0.023550	0.066887	0.997483	-0.662031	0.748679	-0.034573	-0.749107	-0.659550	0.061912
36330	10.531432	0.944643	0.189253	-1.823817	0.036902	0.074426	0.023372	0.067667	0.997434	-0.648269	0.760541	-0.036406	-0.761053	-0.645754	0.061642
36331	9.759191	0.386868	-1.077778	-2.255301	0.178017	-0.020650	0.024909	0.068532	0.997338	-0.630837	0.775009	-0.037500	-0.775516	-0.628223	0.062537
36332	9.390932	-2.123514	-1.445696	-2.060593	0.029086	-0.107654	0.025837	0.067848	0.997361	-0.614688	0.787870	-0.037673	-0.788347	-0.612092	0.062062
36333	9.920687	-5.526705	-1.333899	-1.660519	-0.122014	-0.109282	0.025567	0.066128	0.997484	-0.601378	0.798084	-0.037494	-0.798556	-0.598906	0.060173
36334	10.916061	-7.914919	-0.249788	-0.837013	-0.187557	-0.056701	0.024434	0.064532	0.997616	-0.594650	0.803115	-0.037386	-0.803613	-0.592319	0.057997
36335	12.156005	-7.794842	1.176205	0.104444	-0.107158	-0.043428	0.023856	0.063453	0.997700	-0.595392	0.802592	-0.036808	-0.803081	-0.593144	0.056926
36336	12.033088	-5.053911	1.914239	0.519914	-0.024923	-0.047052	0.023967	0.062903	0.997732	-0.599539	0.799535	-0.036006	-0.799986	-0.597317	0.056875
36337	10.705342	-1.892865	2.146174	0.661562	-0.088506	-0.041722	0.023531	0.061971	0.997801	-0.604751	0.795639	-0.035153	-0.796067	-0.602593	0.056199
36338	9.956723	1.093449	2.445558	0.278115	-0.252618	-0.022101	0.021685	0.060245	0.997948	-0.606949	0.793981	-0.034743	-0.794445	-0.604950	0.053784
36339	10.231220	1.488283	0.560907	-0.078676	-0.457280	0.009256	0.018016	0.057491	0.998183	-0.606274	0.794493	-0.034817	-0.795052	-0.604545	0.049168
36340	10.293834	2.729691	-0.891163	0.344394	-0.681728	-0.054618	0.012964	0.052901	0.998516	-0.608992	0.792444	-0.034076	-0.793071	-0.607646	0.042490
36341	10.492836	3.781052	0.235649	0.091153	-0.747187	-0.089741	0.007609	0.047573	0.998839	-0.609643	0.791986	-0.033077	-0.792640	-0.608683	0.035029
36342	9.706030	1.176619	-0.479525	-0.229206	-0.701754	-0.097168	0.002663	0.042512	0.999092	-0.607812	0.793431	-0.032141	-0.794077	-0.607174	0.027952
36343	9.712528	-0.424433	-0.469946	-0.034402	-0.646061	-0.164674	-0.001444	0.037200	0.999307	-0.607463	0.793765	-0.030427	-0.794347	-0.607086	0.021451
36344	9.611287	-1.304890	-1.248975	0.248773	-0.613758	-0.221995	-0.004934	0.031682	0.999486	-0.609437	0.792336	-0.028125	-0.792819	-0.609262	0.015399
36345	9.541566	-0.187035	-1.201146	0.765321	-0.598723	-0.266595	-0.008013	0.025827	0.999634	-0.615430	0.787786	-0.025287	-0.788151	-0.615407	0.009582
36346	9.677295	1.282645	-0.193435	0.565689	-0.560004	-0.260589	-0.010777	0.020296	0.999736	-0.619895	0.784359	-0.022606	-0.784611	-0.619975	0.004128
36347	9.490851	0.137899	-0.562413	-0.004676	-0.572485	-0.188397	-0.014081	0.015182	0.999786	-0.619804	0.784485	-0.020642	-0.784631	-0.619961	-0.001637
36348	9.623266	-2.100522	-1.180232	-0.142888	-0.630186	-0.126247	-0.018216	0.010263	0.999781	-0.618695	0.785393	-0.019336	-0.785420	-0.618912	-0.007957
36349	10.012835	-2.838941	-1.082155	0.012743	-0.619075	-0.108540	-0.022390	0.005495	0.999734	-0.618740	0.785386	-0.018174	-0.785277	-0.618982	-0.014185
36350	10.098586	-1.190498	-0.772892	0.295982	-0.607201	-0.116027	-0.026402	0.000795	0.999651	-0.621082	0.783560	-0.017026	-0.783300	-0.621315	-0.020194
36351	10.332644	0.892208	0.046148	0.121383	-0.596809	-0.103047	-0.030420	-0.003802	0.999530	-0.621990	0.782863	-0.015952	-0.782434	-0.622183	-0.026180
36352	10.201309	0.906510	-0.428413	-0.082337	-0.616466	-0.092942	-0.034636	-0.008388	0.999365	-0.621369	0.783375	-0.014960	-0.782752	-0.621493	-0.032345
36353	10.151778	0.951997	0.098866	-0.001478	-0.614136	-0.094651	-0.038840	-0.013027	0.999161	-0.621318	0.783435	-0.013938	-0.782596	-0.621337	-0.038523
36354	9.880493	0.792390	0.373444	-0.136952	-0.614639	-0.103896	-0.042977	-0.017681	0.998920	-0.620282	0.784275	-0.012805	-0.783201	-0.620162	-0.044673
36355	9.865281	0.184468	-0.112604	-0.008974	-0.630428	-0.110929	-0.047211	-0.022541	0.998631	-0.620186	0.784369	-0.011615	-0.783033	-0.619885	-0.051011
36356	9.817104	0.730834	0.055647	0.302866	-0.643600	-0.098570	-0.051601	-0.027335	0.998294	-0.622597	0.782469	-0.010756	-0.780840	-0.622089	-0.057394
36357	9.823655	1.629315	0.336280	0.284690	-0.659390	-0.050492	-0.056412	-0.031918	0.997897	-0.624770	0.780741	-0.010346	-0.778769	-0.624039	-0.063985
36358	9.819702	1.810593	0.286482	0.006921	-0.661550	0.002543	-0.061548	-0.036051	0.997453	-0.624816	0.780704	-0.010338	-0.778342	-0.623861	-0.070576
36359	9.732061	1.310874	-0.740676	-0.300840	-0.623152	0.031218	-0.066580	-0.039768	0.996988	-0.622375	0.782651	-0.010345	-0.779882	-0.621190	-0.076860
36360	9.561461	0.662652	-1.792868	-0.335059	-0.591754	0.037215	-0.071401	-0.043168	0.996513	-0.619728	0.784747	-0.010410	-0.781562	-0.618311	-0.082785
36361	9.620629	0.172726	-2.297951	-0.224273	-0.562514	0.033958	-0.075994	-0.046459	0.996025	-0.617867	0.786213	-0.010469	-0.782601	-0.616207	-0.088453
36362	9.730314	0.058750	-2.674375	-0.131929	-0.503954	0.024681	-0.080061	-0.049392	0.995565	-0.616810	0.787041	-0.010556	-0.783030	-0.614920	-0.093477
36363	9.636239	-0.022542	-2.851754	-0.087176	-0.451126	0.032065	-0.083778	-0.052000	0.995127	-0.616013	0.787663	-0.010702	-0.783268	-0.613908	-0.098022
36364	9.622821	-0.571331	-2.743601	-0.100791	-0.420391	0.036407	-0.087266	-0.054317	0.994703	-0.615188	0.788305	-0.010924	-0.783536	-0.612882	-0.102207
36365	9.717693	-1.196199	-2.690575	-0.000427	-0.390587	0.035643	-0.090534	-0.056521	0.994288	-0.615061	0.788400	-0.011187	-0.783265	-0.612560	-0.106141
36366	9.674663	-1.036901	-1.897572	0.173795	-0.374664	0.042203	-0.093696	-0.058510	0.993880	-0.616377	0.787364	-0.011755	-0.781857	-0.613706	-0.109837
36367	9.623036	-0.632117	-0.995328	0.163190	-0.385662	0.043186	-0.096968	-0.060629	0.993439	-0.617519	0.786460	-0.012278	-0.780556	-0.614659	-0.113701
36368	9.550370	-0.448713	-0.319406	0.175988	-0.424645	0.049828	-0.100557	-0.062875	0.992943	-0.618838	0.785412	-0.012937	-0.779056	-0.615772	-0.117888
36369	9.544368	0.354267	0.656343	0.246609	-0.465849	0.058227	-0.104535	-0.065376	0.992370	-0.620611	0.783999	-0.013725	-0.777120	-0.617310	-0.122529
36370	9.553932	1.149936	1.464317	0.102337	-0.531903	0.065640	-0.109043	-0.068171	0.991697	-0.621331	0.783415	-0.014465	-0.775924	-0.617749	-0.127783
36371	9.578966	0.973032	1.373062	-0.135759	-0.599944	0.083509	-0.114206	-0.071300	0.990895	-0.620103	0.784376	-0.015030	-0.776163	-0.616174	-0.133793
36372	9.487463	0.508705	0.877018	-0.141047	-0.674904	0.096734	-0.120013	-0.074719	0.989957	-0.618891	0.785319	-0.015755	-0.776254	-0.614566	-0.140491
36373	9.501248	0.500657	0.442143	-0.050841	-0.715701	0.108370	-0.126222	-0.078339	0.988904	-0.618288	0.785775	-0.016670	-0.775750	-0.613531	-0.147618
36374	9.628207	0.679987	0.011268	-0.055554	-0.745831	0.124951	-0.132748	-0.081954	0.987756	-0.617692	0.786219	-0.017781	-0.775136	-0.612489	-0.154991
36375	9.405383	0.351143	-0.813238	-0.181231	-0.767467	0.147679	-0.139591	-0.085557	0.986506	-0.616014	0.787509	-0.018867	-0.775268	-0.610336	-0.162634
36376	9.448603	-0.407237	-1.910419	-0.222242	-0.795490	0.155019	-0.146683	-0.089206	0.985153	-0.614066	0.789002	-0.019986	-0.775504	-0.607881	-0.170511
36377	9.603977	-1.220838	-3.234327	-0.076960	-0.778643	0.148718	-0.153614	-0.092831	0.983761	-0.613176	0.789661	-0.021232	-0.774866	-0.606480	-0.178225
36378	9.540712	-0.737873	-3.466575	0.239184	-0.716014	0.131655	-0.159931	-0.096165	0.982433	-0.614817	0.788336	-0.022921	-0.772283	-0.607683	-0.185203
36379	9.572727	0.165571	-3.263017	0.208507	-0.678407	0.123932	-0.165911	-0.099385	0.981120	-0.616152	0.787248	-0.024447	-0.769955	-0.608575	-0.191850
36380	9.291666	-0.209229	-3.063257	0.025188	-0.653752	0.119978	-0.171650	-0.102443	0.979817	-0.616141	0.787218	-0.025633	-0.768704	-0.608106	-0.198245
36381	9.076464	-0.994684	-2.825630	0.051981	-0.664004	0.111735	-0.177427	-0.105673	0.978444	-0.616270	0.787080	-0.026746	-0.767288	-0.607732	-0.204772
36382	9.235346	-1.175634	-1.715280	0.175917	-0.673355	0.106626	-0.183213	-0.108954	0.977017	-0.617424	0.786128	-0.028115	-0.764997	-0.608385	-0.211300
36383	9.239790	-0.965588	-1.070895	0.330051	-0.725300	0.105961	-0.189395	-0.112610	0.975422	-0.619674	0.784294	-0.029776	-0.761665	-0.610083	-0.218323
36384	9.292291	0.083115	0.155408	0.587526	-0.791251	0.117081	-0.196099	-0.116561	0.973632	-0.623907	0.780836	-0.032182	-0.756495	-0.613767	-0.225844
36385	9.083604	0.939641	1.537089	0.539579	-0.907937	0.127098	-0.203727	-0.121221	0.971494	-0.627657	0.777721	-0.034581	-0.751360	-0.616810	-0.234528
36386	8.939045	1.006763	1.594596	0.451341	-1.043524	0.140627	-0.212397	-0.126602	0.968948	-0.630744	0.775109	-0.036986	-0.746358	-0.619014	-0.244484
36387	9.768563	1.608096	2.086154	0.682266	-1.175558	0.181211	-0.222259	-0.132557	0.965935	-0.635365	0.771156	-0.040368	-0.739536	-0.622693	-0.255618
36388	9.785258	1.588339	3.020525	0.223646	-1.219050	0.243287	-0.232765	-0.138298	0.962650	-0.636461	0.770095	-0.043259	-0.735349	-0.622758	-0.267272
36389	8.950672	0.009851	0.896747	0.082339	-1.366744	0.261792	-0.244428	-0.144835	0.958790	-0.636397	0.769993	-0.045924	-0.731610	-0.621397	-0.280380
36390	8.658174	0.564821	0.475786	0.765930	-1.524742	0.322409	-0.257546	-0.151886	0.954254	-0.641160	0.765699	-0.051170	-0.722900	-0.625008	-0.294586
36391	9.330938	1.622461	2.568334	0.678019	-1.697091	0.384991	-0.272182	-0.159617	0.948915	-0.644980	0.762085	-0.056812	-0.714086	-0.627494	-0.310376
36392	10.011078	1.176298	2.010251	0.084466	-1.854114	0.418963	-0.288040	-0.168061	0.942756	-0.644409	0.762244	-0.061004	-0.708357	-0.625092	-0.327856
36393	10.305655	0.454635	0.462774	0.196624	-1.968415	0.416999	-0.304558	-0.177206	0.935864	-0.644541	0.761758	-0.065514	-0.701293	-0.623155	-0.346216
36394	10.776306	0.720961	-0.538196	0.575196	-2.103503	0.398152	-0.321744	-0.187317	0.928113	-0.647302	0.758898	-0.071231	-0.691000	-0.623687	-0.365422
36395	12.559755	1.963300	-1.236163	0.976700	-2.210174	0.392975	-0.339371	-0.198198	0.919535	-0.652677	0.753563	-0.078458	-0.677377	-0.626786	-0.385096
36396	14.182721	3.173659	-0.728568	0.852107	-2.280362	0.401101	-0.357260	-0.209522	0.910201	-0.657000	0.749031	-0.085456	-0.663864	-0.628532	-0.405255
36397	15.675328	1.859946	-0.851374	0.446373	-2.443289	0.341575	-0.375526	-0.222332	0.899749	-0.658683	0.746979	-0.090331	-0.652010	-0.626571	-0.426956
36398	16.877684	-1.514255	0.403281	0.550746	-2.491518	0.370344	-0.394020	-0.235186	0.888502	-0.660820	0.744378	-0.096014	-0.638800	-0.624971	-0.448715
36399	15.986620	-2.765578	0.697759	1.188908	-2.429703	0.515336	-0.412675	-0.246613	0.876859	-0.666249	0.738165	-0.105951	-0.621137	-0.627929	-0.468928
36400	15.220496	-0.067828	2.980438	1.364338	-2.466084	0.642340	-0.432021	-0.257450	0.864337	-0.671887	0.731188	-0.118038	-0.601603	-0.631731	-0.488865
36401	14.592626	1.340165	3.213218	0.316369	-2.673386	0.736112	-0.452769	-0.268914	0.850109	-0.670563	0.731096	-0.125876	-0.587661	-0.627044	-0.511341
36402	14.126457	-0.589659	-0.015723	-0.695245	-2.781300	0.726665	-0.473816	-0.280865	0.834633	-0.663149	0.737406	-0.128319	-0.579423	-0.614287	-0.535650
36403	13.236339	-2.401272	-3.804176	-0.368190	-2.697743	0.662779	-0.493574	-0.292417	0.819071	-0.657908	0.741486	-0.131739	-0.568807	-0.603896	-0.558362
36404	12.477009	-0.823674	-4.085444	0.119276	-2.541743	0.565786	-0.511547	-0.303507	0.803867	-0.655748	0.742451	-0.136971	-0.555260	-0.597201	-0.578823
36405	11.719760	0.279593	-5.178307	-0.782804	-2.464065	0.438654	-0.527880	-0.314813	0.788819	-0.649245	0.748355	-0.135813	-0.547561	-0.583830	-0.599433
36406	11.187808	-0.909253	-7.097411	-1.272412	-2.246299	0.300373	-0.542047	-0.325504	0.774747	-0.640709	0.756634	-0.130374	-0.543762	-0.567056	-0.618684
36407	9.694834	0.053647	-7.720138	-1.195052	-1.916051	0.171136	-0.553409	-0.334951	0.762592	-0.633388	0.763809	-0.124161	-0.540887	-0.551728	-0.634852
36408	7.573235	0.646722	-8.821579	-1.208498	-1.926677	-0.001230	-0.563764	-0.345463	0.750217	-0.626892	0.770370	-0.116346	-0.537752	-0.535897	-0.650875
36409	7.689624	-1.271779	-7.981944	-0.781320	-1.822288	-0.190181	-0.572209	-0.356618	0.738512	-0.623881	0.773776	-0.109744	-0.532306	-0.523540	-0.665249
36410	5.812759	-1.721411	-9.079155	-0.660031	-1.597348	-0.166484	-0.579607	-0.366210	0.727974	-0.621359	0.776586	-0.104056	-0.527228	-0.512645	-0.677662
36411	6.026417	-3.418026	-9.169986	-0.042759	-1.577311	-0.214958	-0.586406	-0.375952	0.717488	-0.622472	0.775945	-0.102166	-0.518322	-0.506526	-0.689038
36412	7.233768	-3.175456	-5.942753	0.861869	-1.134818	-0.223868	-0.590791	-0.383470	0.709871	-0.628222	0.770711	-0.106503	-0.506264	-0.508877	-0.696233
36413	7.034254	-0.291485	-3.576206	0.984875	-0.509799	-0.245124	-0.591691	-0.387997	0.706654	-0.634699	0.764659	-0.111596	-0.497051	-0.514543	-0.698703
36414	6.631535	1.269917	-3.265081	0.244657	0.030893	-0.325281	-0.589439	-0.390346	0.707242	-0.637851	0.762123	-0.110971	-0.495689	-0.516526	-0.698208
36415	5.842652	0.138584	-5.419351	-0.431067	0.477394	-0.433076	-0.584181	-0.391221	0.711111	-0.638334	0.762585	-0.104855	-0.501261	-0.515180	-0.695217
36416	5.254827	-2.092853	-7.265491	-0.227066	0.843790	-0.530349	-0.576505	-0.390934	0.717504	-0.640283	0.761673	-0.099459	-0.507622	-0.516744	-0.689417
36417	4.983890	-2.751374	-7.249855	0.391342	1.250398	-0.599570	-0.566160	-0.389010	0.726729	-0.645789	0.757231	-0.097766	-0.512269	-0.524665	-0.679932
36418	4.829954	-2.337679	-7.057093	0.862279	1.618714	-0.638348	-0.553662	-0.385249	0.738269	-0.653811	0.750171	-0.098863	-0.515741	-0.537426	-0.667221
36419	5.023639	-1.667488	-6.467116	1.174165	1.957362	-0.639099	-0.539216	-0.379365	0.751883	-0.663459	0.741255	-0.101800	-0.518718	-0.553736	-0.651390
36420	5.209812	-1.055869	-6.213097	1.165662	2.291988	-0.601242	-0.523229	-0.370930	0.767231	-0.672740	0.732436	-0.104681	-0.523118	-0.570919	-0.632771
36421	5.323005	-0.926889	-6.283459	1.096655	2.574613	-0.566885	-0.505737	-0.360157	0.783912	-0.681501	0.723943	-0.107062	-0.528948	-0.588382	-0.611572
36422	5.436722	-0.603632	-5.891256	1.063733	2.837747	-0.539183	-0.486901	-0.347112	0.801524	-0.689854	0.715676	-0.109131	-0.535751	-0.606070	-0.587919
36423	5.870927	-0.078618	-5.844321	0.704524	3.071792	-0.501399	-0.466711	-0.331847	0.819792	-0.696121	0.709591	-0.109066	-0.545524	-0.621576	-0.562180
36424	6.181379	-0.909524	-6.310843	0.524306	3.227628	-0.450704	-0.445743	-0.314765	0.837996	-0.701078	0.704832	-0.108168	-0.556599	-0.635716	-0.534849
36425	6.515682	-0.783231	-5.489996	0.554852	3.375876	-0.403219	-0.423830	-0.295909	0.856041	-0.706008	0.699985	-0.107582	-0.567381	-0.649968	-0.505588
36426	6.942958	-0.039204	-4.994394	0.164687	3.507907	-0.353143	-0.401161	-0.275400	0.873627	-0.708419	0.697893	-0.105297	-0.580699	-0.661136	-0.475066
36427	7.023901	-0.080279	-5.116325	-0.422466	3.593600	-0.295412	-0.377795	-0.253599	0.890482	-0.707130	0.699878	-0.100689	-0.597694	-0.667727	-0.443737
36428	7.208240	-1.104047	-5.584377	-0.898903	3.637512	-0.257118	-0.353849	-0.231090	0.906305	-0.702617	0.705267	-0.094494	-0.617350	-0.670221	-0.411925
36429	7.560401	-2.505893	-6.287772	-1.139750	3.688704	-0.232112	-0.328975	-0.208022	0.921142	-0.696295	0.712365	-0.087800	-0.637926	-0.670270	-0.379195
36430	7.849920	-3.863438	-6.715423	-0.845646	3.699586	-0.215812	-0.303516	-0.184764	0.934741	-0.691513	0.717615	-0.082692	-0.655506	-0.671484	-0.345575
36431	8.078752	-3.545647	-5.701064	-0.383890	3.745009	-0.230068	-0.277034	-0.161210	0.947240	-0.689672	0.719777	-0.079207	-0.669033	-0.675228	-0.310584
36432	8.435057	-2.535128	-5.175570	-0.334485	3.741272	-0.273553	-0.249856	-0.137879	0.958416	-0.688137	0.721634	-0.075580	-0.681204	-0.678406	-0.275184
36433	8.686707	-2.053894	-4.876744	-0.380116	3.705755	-0.342642	-0.221962	-0.115186	0.968228	-0.686363	0.723761	-0.071243	-0.692560	-0.680369	-0.239707
36434	8.831966	-2.543175	-4.466150	-0.538950	3.649895	-0.429381	-0.193502	-0.093489	0.976635	-0.683492	0.726984	-0.065830	-0.703844	-0.680261	-0.204572
36435	8.869703	-3.485438	-4.912215	-0.524527	3.603815	-0.509351	-0.164403	-0.072708	0.983710	-0.680707	0.730111	-0.059800	-0.713869	-0.679450	-0.169525
36436	8.924442	-3.734710	-4.973596	-0.124728	3.534805	-0.580135	-0.135076	-0.052925	0.989421	-0.680680	0.730600	-0.053846	-0.720021	-0.680752	-0.134711
36437	9.280263	-3.281124	-4.617045	0.306404	3.446037	-0.631431	-0.105850	-0.034014	0.993800	-0.683667	0.728221	-0.047893	-0.722077	-0.684498	-0.100337
36438	9.769558	-2.596951	-4.325196	0.622400	3.353393	-0.658159	-0.077104	-0.015769	0.996898	-0.688756	0.723786	-0.041822	-0.720881	-0.689844	-0.066668
36439	10.189229	-1.844985	-4.318018	0.730032	3.260842	-0.678325	-0.048892	0.001914	0.998802	-0.694446	0.718675	-0.035371	-0.717882	-0.695343	-0.033809
36440	10.316670	-1.544127	-4.347587	0.987559	3.106824	-0.657032	-0.022057	0.018902	0.999578	-0.701734	0.711851	-0.028946	-0.712097	-0.702076	-0.002437
36441	10.042611	-0.694865	-3.590213	1.425714	2.894516	-0.613537	0.002805	0.035006	0.999383	-0.711875	0.701943	-0.022589	-0.702300	-0.711373	0.026889
36442	9.834673	1.337317	-2.624465	1.403116	2.663543	-0.562629	0.025440	0.050127	0.998419	-0.721570	0.692149	-0.016365	-0.691874	-0.720012	0.053779
36443	9.714035	3.011400	-2.085309	0.877120	2.356926	-0.476941	0.045170	0.063838	0.996938	-0.727423	0.686101	-0.010975	-0.684701	-0.724700	0.077428
36444	9.260330	2.880728	-1.892398	0.136203	1.988368	-0.359190	0.061413	0.075760	0.995233	-0.728154	0.685376	-0.007241	-0.682657	-0.724238	0.097256
36445	8.770324	1.664602	-2.077412	-0.386328	1.581099	-0.281598	0.074321	0.085197	0.993588	-0.725289	0.688428	-0.004779	-0.684421	-0.720283	0.112957
36446	8.374184	0.756398	-2.468892	-0.705050	1.185788	-0.227375	0.084138	0.092111	0.992188	-0.720258	0.693698	-0.003322	-0.688585	-0.714352	0.124711
36447	7.803785	0.444987	-3.043240	-0.667685	0.774079	-0.160738	0.090691	0.096436	0.991199	-0.715459	0.698651	-0.002511	-0.692744	-0.708934	0.132358
36448	7.924141	1.112852	-1.713849	-0.671617	0.350341	-0.039337	0.093440	0.098615	0.990729	-0.710744	0.703445	-0.002986	-0.697218	-0.703875	0.135820
36449	8.733912	1.602187	-0.490539	-1.324101	0.021923	0.096736	0.092962	0.099373	0.990698	-0.701479	0.712668	-0.005662	-0.706602	-0.694427	0.135959
36450	7.270027	0.791275	-1.158695	-2.255022	-0.307363	0.194734	0.089448	0.098644	0.991095	-0.685531	0.727967	-0.010584	-0.722528	-0.678479	0.132738
36451	6.944949	-1.646936	-2.941536	-2.584986	-0.718170	0.249195	0.082558	0.095581	0.991992	-0.666760	0.745094	-0.016301	-0.740686	-0.660075	0.125244
36452	7.682288	-4.414577	-3.852647	-1.858058	-1.060602	0.212903	0.073260	0.090225	0.993223	-0.653030	0.757052	-0.020604	-0.753780	-0.647095	0.114381
36453	10.828716	-3.983630	-1.181552	-0.495420	-0.894820	0.109757	0.065823	0.085187	0.994188	-0.649285	0.760223	-0.022152	-0.757692	-0.644053	0.105351
36454	11.644876	0.473099	2.394881	-0.623271	-0.362642	0.105233	0.062418	0.083638	0.994539	-0.644605	0.764145	-0.023806	-0.761963	-0.639600	0.101610
36455	10.395422	2.484849	2.306825	-1.968332	-0.127177	0.072943	0.061013	0.083306	0.994655	-0.629452	0.776589	-0.026431	-0.774640	-0.624475	0.099819
36456	9.682454	-0.761108	0.381341	-2.598648	-0.060928	0.017027	0.060461	0.083040	0.994710	-0.609111	0.792550	-0.029140	-0.790777	-0.604127	0.098499
36457	8.778948	-1.990394	1.737361	-2.577135	0.154885	0.048011	0.061448	0.084250	0.994548	-0.588481	0.807874	-0.032078	-0.806172	-0.583302	0.099222
36458	7.980157	-3.997756	0.085699	-2.958776	0.008302	0.064269	0.061174	0.084796	0.994519	-0.564403	0.824732	-0.035602	-0.823230	-0.559131	0.098311
36459	9.106848	-8.096413	-1.819566	-1.862914	-0.339146	0.012599	0.058326	0.082946	0.994846	-0.548903	0.835047	-0.037441	-0.833848	-0.543890	0.094234
36460	12.711632	-7.463284	-0.073347	-0.062838	-0.534681	-0.080518	0.054336	0.079338	0.995366	-0.548322	0.835463	-0.036660	-0.834500	-0.543789	0.088899
36461	13.739233	-2.504573	2.555521	0.586328	-0.471291	-0.092756	0.050941	0.075929	0.995811	-0.553110	0.832366	-0.035172	-0.831550	-0.549001	0.084399
36462	11.738451	0.972809	2.801066	0.149178	-0.430666	-0.031792	0.047566	0.073269	0.996177	-0.554323	0.831578	-0.034695	-0.830942	-0.550553	0.080169
36463	9.854079	2.091424	1.092172	-0.145960	-0.500815	-0.048572	0.043692	0.070055	0.996586	-0.553045	0.832446	-0.034270	-0.832005	-0.549660	0.075115
36464	9.373103	3.337428	0.033033	-0.213459	-0.593629	-0.114196	0.039408	0.065818	0.997053	-0.551209	0.833704	-0.033248	-0.833436	-0.548275	0.069134
36465	9.680344	3.679972	-1.155721	-0.331058	-0.784225	-0.197089	0.033972	0.059816	0.997631	-0.548321	0.835677	-0.031434	-0.835577	-0.545955	0.061188
36466	10.328015	0.827754	-1.714999	-0.715883	-0.825441	-0.242159	0.028406	0.053276	0.998176	-0.542238	0.839711	-0.029387	-0.839744	-0.540414	0.052741
36467	9.397314	-4.174780	-3.107978	-0.345640	-0.841154	-0.246638	0.022691	0.046588	0.998656	-0.539201	0.841744	-0.027017	-0.841872	-0.537863	0.044220
36468	10.008254	-5.118547	-2.494504	0.621208	-0.845191	-0.338286	0.017449	0.039148	0.999081	-0.544342	0.838538	-0.023350	-0.838682	-0.543435	0.035942
36469	10.130291	-3.500563	-1.712488	1.252401	-0.872020	-0.340529	0.012050	0.031448	0.999433	-0.554694	0.831826	-0.019486	-0.831967	-0.554145	0.027468
36470	10.207683	-0.052401	0.056886	1.431491	-0.870530	-0.321109	0.006671	0.023886	0.999692	-0.566508	0.823903	-0.015905	-0.824030	-0.566227	0.019028
36471	10.150369	3.094174	1.072488	0.815127	-0.819530	-0.219022	0.001195	0.017352	0.999849	-0.573143	0.819344	-0.013534	-0.819455	-0.573040	0.010925
36472	9.777965	3.177792	0.382848	-0.317979	-0.854087	-0.104492	-0.005185	0.011585	0.999919	-0.570527	0.821184	-0.012472	-0.821263	-0.570545	0.002352
36473	10.107395	0.692828	-1.534904	-0.667428	-0.860747	-0.083214	-0.011784	0.005938	0.999913	-0.564976	0.825027	-0.011558	-0.825023	-0.565063	-0.006367
36474	10.081942	0.435610	-1.828223	-0.425547	-0.782918	-0.140550	-0.017432	0.000339	0.999848	-0.561472	0.827435	-0.010070	-0.827312	-0.561562	-0.014233
36475	9.671884	0.108828	-1.998961	-0.167316	-0.742256	-0.200958	-0.022437	-0.005566	0.999733	-0.560056	0.828417	-0.007957	-0.828151	-0.560085	-0.021705
36476	9.923280	0.121552	-1.843426	0.215510	-0.716704	-0.234776	-0.027022	-0.011558	0.999568	-0.561889	0.827194	-0.005626	-0.826771	-0.561798	-0.028847
36477	10.000645	0.493396	-1.517510	0.488614	-0.688205	-0.212061	-0.031498	-0.017271	0.999355	-0.565908	0.824460	-0.003588	-0.823866	-0.565656	-0.035743
36478	10.075193	0.782536	-1.038591	0.548928	-0.683923	-0.167271	-0.036142	-0.022558	0.999092	-0.570470	0.821316	-0.002092	-0.820523	-0.570027	-0.042553
36479	10.252310	0.392734	-0.774294	0.361789	-0.669683	-0.108400	-0.041003	-0.027359	0.998784	-0.573397	0.819277	-0.001097	-0.818251	-0.572745	-0.049280
36480	9.853550	-0.877903	-1.482324	0.225110	-0.653922	-0.070044	-0.045917	-0.031710	0.998442	-0.575260	0.817970	-0.000477	-0.816681	-0.574386	-0.055801
36481	9.768835	-1.126388	-1.881102	0.541537	-0.654440	-0.061140	-0.050893	-0.036067	0.998053	-0.579625	0.814883	-0.000109	-0.813293	-0.578502	-0.062377
36482	9.775284	0.315899	-1.217394	0.720210	-0.619658	-0.047681	-0.055611	-0.040083	0.997648	-0.585484	0.810684	-0.000065	-0.808774	-0.584110	-0.068551
36483	9.428652	0.930881	-1.269573	0.594934	-0.615909	-0.033865	-0.060379	-0.044052	0.997203	-0.590226	0.807238	-0.000077	-0.804977	-0.588580	-0.074741
36484	9.708137	1.205205	-1.132013	0.661153	-0.604973	-0.021797	-0.065077	-0.047830	0.996733	-0.595541	0.803325	-0.000335	-0.800685	-0.593617	-0.080763
36485	9.588766	1.487194	-0.733120	0.567585	-0.580053	-0.005598	-0.069675	-0.051416	0.996244	-0.599998	0.800001	-0.000674	-0.796962	-0.597791	-0.086589
36486	9.547213	1.122095	-0.484578	0.375611	-0.568383	-0.004610	-0.074140	-0.054884	0.995736	-0.602983	0.797754	-0.000925	-0.794302	-0.600480	-0.092239
36487	9.700047	0.740864	-0.688031	0.311959	-0.551794	0.006024	-0.078549	-0.058243	0.995207	-0.605369	0.795944	-0.001199	-0.792059	-0.602562	-0.097779
36488	10.062820	1.196709	-0.280583	0.327778	-0.514756	0.037227	-0.082816	-0.061081	0.994691	-0.607925	0.793992	-0.001858	-0.789664	-0.604852	-0.102888
36489	9.625633	1.398578	0.269724	-0.019433	-0.495612	0.076466	-0.087189	-0.063557	0.994162	-0.607623	0.794222	-0.002514	-0.789425	-0.604295	-0.107866
36490	9.431789	0.404499	-0.472780	-0.367987	-0.553467	0.090638	-0.092082	-0.066198	0.993549	-0.604627	0.796503	-0.002968	-0.791168	-0.601000	-0.113369
36491	9.718923	-0.572350	-0.777629	-0.200790	-0.569682	0.088829	-0.097121	-0.068994	0.992878	-0.602871	0.797831	-0.003531	-0.791905	-0.598920	-0.119081
36492	9.463432	-0.140352	-0.240954	-0.060115	-0.562205	0.085851	-0.102060	-0.071700	0.992191	-0.602304	0.798256	-0.004270	-0.791716	-0.598036	-0.124655
36493	9.480184	-0.249355	-0.366882	-0.090389	-0.619491	0.080467	-0.107442	-0.074841	0.991390	-0.601424	0.798915	-0.004868	-0.791672	-0.596770	-0.130848
36494	9.591338	-0.203344	-0.356541	0.062732	-0.658323	0.077840	-0.113089	-0.078174	0.990505	-0.601830	0.798604	-0.005684	-0.790577	-0.596758	-0.137361
36495	9.473536	-0.005683	-0.237461	0.029366	-0.691972	0.091791	-0.119100	-0.081648	0.989519	-0.601880	0.798559	-0.006552	-0.789655	-0.596353	-0.144251
36496	9.704829	-0.246637	-0.769946	0.000081	-0.714881	0.086718	-0.125234	-0.085242	0.988458	-0.601770	0.798635	-0.007370	-0.788790	-0.595748	-0.151313
36497	9.856528	0.320317	-1.426898	0.000990	-0.658324	0.090093	-0.130957	-0.088518	0.987428	-0.601592	0.798762	-0.008181	-0.787996	-0.595100	-0.157855
36498	9.602417	0.394498	-2.324060	-0.103843	-0.655543	0.093290	-0.136653	-0.091695	0.986366	-0.600644	0.799467	-0.008894	-0.787752	-0.593670	-0.164326
36499	9.631307	-0.113514	-3.160283	-0.032122	-0.642928	0.097536	-0.142293	-0.094804	0.985274	-0.600183	0.799804	-0.009720	-0.787104	-0.592728	-0.170706
36500	9.497406	-0.199504	-3.357632	0.164656	-0.627390	0.106015	-0.147833	-0.097704	0.984175	-0.601320	0.798933	-0.011010	-0.785213	-0.593431	-0.176860
36501	9.448959	-0.208433	-3.027929	0.259917	-0.612064	0.106842	-0.153269	-0.100564	0.983054	-0.603121	0.797552	-0.012446	-0.782786	-0.594808	-0.182892
36502	9.307455	-0.320827	-2.711057	0.330152	-0.605348	0.115176	-0.158665	-0.103279	0.981916	-0.605517	0.795706	-0.014150	-0.779855	-0.596812	-0.188788
36503	9.157551	-0.458242	-1.984043	0.427029	-0.628190	0.120358	-0.164281	-0.106157	0.980685	-0.608569	0.793338	-0.016068	-0.776309	-0.599454	-0.194934
36504	9.211411	-0.409266	-1.182433	0.537460	-0.676586	0.129635	-0.170280	-0.109225	0.979324	-0.612510	0.790250	-0.018363	-0.771904	-0.602972	-0.201465
36505	9.085869	-0.124702	-0.062738	0.733532	-0.751999	0.149327	-0.176978	-0.112674	0.977744	-0.617819	0.786033	-0.021248	-0.766145	-0.607829	-0.208723
36506	9.176333	0.670560	1.191032	0.911696	-0.852887	0.175093	-0.184539	-0.116538	0.975891	-0.624452	0.780668	-0.024858	-0.758950	-0.613984	-0.216836
36507	9.335987	1.367511	2.572033	0.816406	-0.954236	0.210574	-0.193062	-0.120850	0.973716	-0.630157	0.775939	-0.028640	-0.752083	-0.619124	-0.225959
36508	8.983114	1.106193	2.718383	0.516128	-1.090094	0.241599	-0.202727	-0.125768	0.971125	-0.633545	0.773038	-0.032142	-0.746674	-0.621768	-0.236395
36509	8.755833	0.862614	2.292411	0.587466	-1.238371	0.264519	-0.213598	-0.131504	0.968030	-0.637309	0.769764	-0.036053	-0.740414	-0.624635	-0.248229
36510	8.995078	1.745702	2.419095	0.649881	-1.357587	0.324659	-0.225647	-0.137537	0.964452	-0.641384	0.766134	-0.040805	-0.733287	-0.627791	-0.261090
36511	8.571154	2.063892	2.731653	0.201376	-1.479371	0.387091	-0.238918	-0.143909	0.960317	-0.641914	0.765456	-0.044994	-0.728605	-0.627191	-0.275258
36512	8.013017	1.123539	1.635039	-0.074810	-1.701902	0.425760	-0.253986	-0.151320	0.955298	-0.640321	0.766554	-0.048820	-0.724900	-0.624096	-0.291587
36513	9.325857	1.135585	1.711949	0.133884	-1.849552	0.468306	-0.270304	-0.159303	0.949504	-0.640026	0.766481	-0.053606	-0.719237	-0.622197	-0.309141
36514	10.062836	1.882797	2.339218	-0.039286	-1.927244	0.501531	-0.287292	-0.167439	0.943095	-0.638348	0.767546	-0.058186	-0.714126	-0.618739	-0.327394
36515	10.372066	1.326793	0.875259	-0.487358	-2.064941	0.510763	-0.305211	-0.176251	0.935832	-0.633338	0.771446	-0.061265	-0.711146	-0.611397	-0.347081
36516	10.971686	0.368928	-1.810029	-0.332554	-2.184708	0.503171	-0.323843	-0.185674	0.927713	-0.629401	0.774380	-0.064724	-0.706385	-0.604864	-0.367641
36517	12.659168	1.333912	-3.069499	0.407915	-2.227433	0.508958	-0.342623	-0.195235	0.918963	-0.630551	0.772904	-0.070888	-0.696430	-0.603740	-0.387920
36518	14.186939	2.477614	-2.458910	0.213833	-2.218438	0.529444	-0.361280	-0.204532	0.909749	-0.630171	0.772674	-0.076540	-0.687285	-0.600950	-0.408042
36519	14.764297	0.146987	-3.951834	0.123397	-2.455212	0.471715	-0.380950	-0.215626	0.899101	-0.629249	0.772946	-0.081241	-0.677439	-0.596707	-0.430136
36520	17.396815	-1.748997	-1.012510	1.562804	-2.472702	0.463088	-0.400364	-0.226928	0.887813	-0.637881	0.764593	-0.092223	-0.657888	-0.603242	-0.450869
36521	16.707270	-0.360064	3.113015	1.899346	-2.376104	0.651752	-0.419862	-0.236449	0.876246	-0.647498	0.754569	-0.106640	-0.635974	-0.612142	-0.469915
36522	15.916706	0.651731	5.605536	0.989629	-2.448014	0.824788	-0.440546	-0.245272	0.863575	-0.650168	0.750488	-0.118526	-0.619032	-0.613685	-0.490092
36523	15.247650	-0.250864	4.039445	-0.503414	-2.634514	0.952688	-0.462813	-0.254152	0.849241	-0.642806	0.755911	-0.124091	-0.610413	-0.603329	-0.513216
36524	14.481260	-2.546134	-0.684851	-0.733076	-2.808539	0.949656	-0.485870	-0.263731	0.833293	-0.633868	0.762744	-0.128189	-0.601782	-0.590481	-0.537765
36525	14.352919	-2.458977	-2.789205	0.099182	-2.728054	0.864838	-0.507455	-0.273170	0.817231	-0.630230	0.764438	-0.135814	-0.587622	-0.583963	-0.560078
36526	13.375610	-0.065457	-3.787731	0.055450	-2.611176	0.862619	-0.528009	-0.281752	0.801138	-0.626098	0.766506	-0.143073	-0.573766	-0.577135	-0.581127
36527	12.544367	0.739105	-5.205586	-0.893761	-2.499308	0.829122	-0.547289	-0.289643	0.785227	-0.616630	0.773913	-0.144311	-0.565899	-0.563175	-0.602157
36528	11.679232	-0.989459	-7.438348	-1.580201	-2.380760	0.751492	-0.565277	-0.296990	0.769584	-0.603549	0.784861	-0.140435	-0.562308	-0.543866	-0.622912
36529	10.918799	-1.901579	-7.655185	-1.245100	-2.125865	0.657619	-0.580999	-0.303223	0.755312	-0.592895	0.793448	-0.137532	-0.557598	-0.527727	-0.640772
36530	9.383204	-0.480399	-6.925771	-1.467205	-1.726641	0.525155	-0.593671	-0.308024	0.743422	-0.581656	0.802667	-0.131919	-0.556086	-0.510732	-0.655684
36531	7.547908	0.160159	-8.239309	-1.736685	-1.452708	0.326353	-0.603523	-0.312711	0.733466	-0.570122	0.812333	-0.122782	-0.557423	-0.492267	-0.668545
36532	6.288730	-0.831925	-8.708760	-1.569817	-1.315708	0.121066	-0.611521	-0.318116	0.724461	-0.560645	0.820304	-0.113043	-0.558318	-0.475294	-0.679983
36533	4.878242	-2.288325	-10.201974	-1.198045	-1.200375	0.064663	-0.618470	-0.323245	0.716246	-0.553643	0.826076	-0.105253	-0.557651	-0.461640	-0.689865
36534	5.508941	-3.752946	-10.527702	-0.439611	-1.169875	0.004237	-0.624963	-0.328595	0.708129	-0.551193	0.828096	-0.102195	-0.552818	-0.454183	-0.698649
36535	7.086768	-4.469871	-7.229550	0.809478	-0.805137	-0.043008	-0.629037	-0.332662	0.702601	-0.555974	0.824216	-0.107519	-0.543328	-0.458262	-0.703414
36536	7.127905	-1.553247	-3.882653	1.302385	-0.086307	-0.065938	-0.629107	-0.333632	0.702078	-0.563432	0.817953	-0.116175	-0.535507	-0.468660	-0.702559
36537	6.096278	0.937697	-3.613952	0.633926	0.533718	-0.123451	-0.625447	-0.332159	0.706036	-0.567686	0.814496	-0.119705	-0.535302	-0.475676	-0.697985
36538	5.145088	0.220900	-5.213725	-0.094248	0.994688	-0.228819	-0.618762	-0.329306	0.713226	-0.568619	0.814181	-0.117390	-0.542038	-0.478191	-0.691034
36539	4.308543	-2.284189	-7.369699	-0.142319	1.380918	-0.335701	-0.609195	-0.325448	0.723163	-0.569984	0.813715	-0.113957	-0.551362	-0.481613	-0.681211
36540	3.889208	-3.570115	-8.200827	0.498804	1.752073	-0.424490	-0.597009	-0.320399	0.735476	-0.575330	0.809911	-0.114189	-0.559084	-0.491313	-0.667859
36541	3.688134	-3.083387	-7.666068	1.136704	2.116869	-0.471601	-0.582274	-0.313665	0.750048	-0.584577	0.802691	-0.118137	-0.565002	-0.507249	-0.650747
36542	3.735532	-2.141060	-7.030638	1.449887	2.446499	-0.485363	-0.565491	-0.304921	0.766318	-0.595610	0.793691	-0.123707	-0.570498	-0.526382	-0.630439
36543	3.938484	-1.214498	-6.581029	1.489638	2.734402	-0.453804	-0.546978	-0.293862	0.783875	-0.606751	0.784294	-0.129364	-0.576773	-0.546377	-0.607293
36544	4.099434	-0.570337	-6.261888	1.295692	2.997382	-0.419912	-0.526969	-0.280505	0.802260	-0.616547	0.775883	-0.133700	-0.584956	-0.565086	-0.581811
36545	4.471125	-0.683618	-6.400219	0.933715	3.221548	-0.413550	-0.505288	-0.265260	0.821170	-0.624255	0.769363	-0.135596	-0.595810	-0.581135	-0.554340
36546	4.672280	-1.751653	-6.947248	0.785198	3.410550	-0.432957	-0.482015	-0.248530	0.840175	-0.631130	0.763626	-0.136198	-0.607730	-0.595909	-0.524934
36547	4.636167	-2.272403	-5.972655	1.082653	3.545063	-0.484152	-0.457130	-0.230805	0.858930	-0.640086	0.755892	-0.137541	-0.617513	-0.612664	-0.493276
36548	4.876533	-1.698652	-4.496262	0.911642	3.666540	-0.545680	-0.430749	-0.212195	0.877171	-0.648196	0.749028	-0.137111	-0.627931	-0.627639	-0.460187
36549	5.298904	-2.328950	-5.159933	0.226979	3.745841	-0.602178	-0.402960	-0.193028	0.894630	-0.652190	0.746346	-0.132726	-0.642084	-0.636952	-0.426639
36550	5.572221	-4.454845	-6.460537	0.148922	3.724196	-0.676448	-0.374338	-0.174222	0.910779	-0.655793	0.744150	-0.127189	-0.655597	-0.644894	-0.392817
