// General information: 
//  MT Manager version: 2022.2.0 
//  XDA version: 2022.2.0 build 7381 rev 124627 built on 2023-07-19
// Device information: 
//  DeviceId: 00B4CAF0
//  ProductCode: MTW2-3A7G6
//  Firmware Version: 4.6.0
//  Hardware Version: 2.0.0
// Device settings: 
//  Filter Profile: human(46.1)
//  Option Flags: Orientation Smoother Disabled, Position/Velocity Smoother Disabled, Continuous Zero Rotation Update Disabled, AHS Disabled, ICC Disabled
// Coordinate system: ENU
PacketCounter	Acc_X	Acc_Y	Acc_Z	Gyr_X	Gyr_Y	Gyr_Z	Mat[1][1]	Mat[2][1]	Mat[3][1]	Mat[1][2]	Mat[2][2]	Mat[3][2]	Mat[1][3]	Mat[2][3]	Mat[3][3]
21630	4.512037	0.686921	9.049503	0.033258	-0.054370	0.002594	0.866967	0.102051	0.487806	-0.152252	0.986250	0.064266	-0.474540	-0.129986	0.870583
21631	4.763336	0.561270	9.024358	0.044405	-0.092982	0.011129	0.866492	0.102018	0.488656	-0.152529	0.986187	0.064579	-0.475318	-0.130491	0.870083
21632	4.942716	0.548806	8.950384	0.063297	-0.110910	0.001462	0.865976	0.101680	0.489639	-0.152603	0.986140	0.065110	-0.476233	-0.131104	0.869491
21633	5.073463	0.646590	8.882593	0.071125	-0.112261	-0.005274	0.865433	0.101458	0.490645	-0.152867	0.986058	0.065734	-0.477135	-0.131892	0.868877
21634	5.081943	0.796316	8.874103	0.085251	-0.097674	-0.012542	0.864964	0.101118	0.491540	-0.153074	0.985973	0.066533	-0.477917	-0.132791	0.868310
21635	5.139276	0.922406	8.907330	0.077348	-0.096615	-0.010615	0.864502	0.100863	0.492405	-0.153322	0.985886	0.067237	-0.478674	-0.133623	0.867765
21636	5.196233	0.811313	8.861626	0.063147	-0.088199	-0.006671	0.864096	0.100646	0.493162	-0.153554	0.985807	0.067864	-0.479332	-0.134368	0.867286
21637	5.180401	0.813681	8.911566	0.056853	-0.084577	-0.002491	0.863678	0.100485	0.493927	-0.153775	0.985739	0.068350	-0.480015	-0.134986	0.866813
21638	5.090228	0.687721	8.890609	0.047360	-0.074971	-0.003006	0.863329	0.100243	0.494584	-0.153862	0.985695	0.068794	-0.480613	-0.135490	0.866403
21639	5.072754	0.755705	8.923243	0.048898	-0.074184	-0.005970	0.862965	0.100061	0.495256	-0.154016	0.985640	0.069228	-0.481217	-0.136019	0.865984
21640	5.176644	0.697259	8.880894	0.047290	-0.075273	-0.007821	0.862641	0.099725	0.495888	-0.154007	0.985608	0.069699	-0.481801	-0.136495	0.865585
21641	5.230499	0.672115	8.830766	0.051964	-0.056689	-0.012420	0.862371	0.099503	0.496403	-0.154120	0.985556	0.070191	-0.482249	-0.137036	0.865250
21642	5.185733	0.786121	8.834525	0.051945	-0.048533	-0.013418	0.862151	0.099241	0.496837	-0.154200	0.985505	0.070731	-0.482616	-0.137593	0.864957
21643	5.188836	0.879081	8.825590	0.048774	-0.038911	-0.013995	0.861968	0.099027	0.497196	-0.154285	0.985457	0.071203	-0.482915	-0.138085	0.864711
21644	5.120210	0.846863	8.888654	0.037800	-0.031260	-0.007113	0.861796	0.098806	0.497540	-0.154284	0.985433	0.071541	-0.483223	-0.138417	0.864486
21645	4.880138	0.803730	8.922330	0.036214	-0.039032	-0.007567	0.861602	0.098655	0.497905	-0.154364	0.985396	0.071873	-0.483543	-0.138784	0.864248
21646	5.006085	0.819886	8.895602	0.033096	-0.062034	-0.004127	0.861332	0.098370	0.498427	-0.154318	0.985380	0.072201	-0.484038	-0.139106	0.863920
21647	5.059719	0.943912	8.875285	0.025267	-0.071380	0.001396	0.860968	0.098262	0.499078	-0.154422	0.985349	0.072394	-0.484652	-0.139397	0.863528
21648	5.092562	0.812685	8.907540	0.019038	-0.079634	0.008768	0.860521	0.098282	0.499845	-0.154667	0.985300	0.072537	-0.485368	-0.139729	0.863072
21649	5.002784	0.704306	8.900057	0.017416	-0.083678	0.006147	0.860088	0.098203	0.500604	-0.154774	0.985276	0.072637	-0.486100	-0.139955	0.862624
21650	4.891433	0.560572	8.956516	0.033107	-0.102817	0.000900	0.859550	0.098074	0.501552	-0.154972	0.985223	0.072937	-0.486988	-0.140420	0.862047
21651	4.901877	0.757807	9.004308	0.034554	-0.124563	-0.006418	0.858936	0.097813	0.502654	-0.155055	0.985187	0.073249	-0.488043	-0.140855	0.861379
21652	5.181336	0.850018	8.983622	0.028399	-0.135841	0.006486	0.858254	0.097605	0.503859	-0.155172	0.985151	0.073474	-0.489206	-0.141244	0.860656
21653	5.074101	0.718433	9.016614	0.025145	-0.150612	0.002655	0.857495	0.097396	0.505189	-0.155287	0.985119	0.073659	-0.490498	-0.141611	0.859859
21654	5.015459	0.611315	9.005324	0.024951	-0.162349	-0.006734	0.856728	0.096927	0.506578	-0.155158	0.985121	0.073915	-0.491876	-0.141925	0.859020
21655	4.815382	0.532706	9.097707	0.051628	-0.192956	-0.010480	0.855777	0.096527	0.508260	-0.155292	0.985063	0.074393	-0.493487	-0.142593	0.857985
21656	4.647376	1.022797	9.424157	0.024226	-0.220488	-0.037721	0.854731	0.095785	0.510157	-0.155042	0.985071	0.074808	-0.495375	-0.143037	0.856822
21657	4.137500	0.596144	9.388887	-0.044161	-0.333442	-0.051828	0.853138	0.094775	0.513005	-0.154349	0.985190	0.074677	-0.498330	-0.142892	0.855131
21658	5.064152	1.424904	9.213411	-0.056192	-0.416191	-0.007013	0.851014	0.094156	0.516634	-0.154082	0.985265	0.074244	-0.502030	-0.142786	0.852982
21659	4.981095	1.050909	9.102549	-0.078311	-0.467554	0.008409	0.848627	0.093549	0.520655	-0.153728	0.985375	0.073515	-0.506163	-0.142426	0.850596
21660	4.908260	1.134595	9.166064	-0.112959	-0.530553	0.032168	0.845873	0.093087	0.525198	-0.153424	0.985502	0.072429	-0.510842	-0.141844	0.847892
21661	5.200829	1.200942	9.086682	-0.138001	-0.584380	0.062877	0.842759	0.092857	0.530222	-0.153215	0.985645	0.070912	-0.516026	-0.141000	0.844888
21662	5.135278	0.977722	9.030582	-0.139691	-0.655882	0.088248	0.839255	0.092664	0.535783	-0.153085	0.985780	0.069302	-0.521743	-0.140183	0.841507
21663	5.176566	0.914880	9.028054	-0.128902	-0.727397	0.113163	0.835246	0.092739	0.542000	-0.153324	0.985861	0.067593	-0.528068	-0.139559	0.837656
21664	5.013774	0.626074	9.134741	-0.142775	-0.799437	0.116669	0.830785	0.092725	0.548815	-0.153488	0.985960	0.065764	-0.535012	-0.138872	0.833353
21665	4.927024	0.123523	9.166788	-0.125070	-0.877665	0.088794	0.825902	0.092361	0.556198	-0.153518	0.986057	0.064218	-0.542512	-0.138424	0.828565
21666	4.880014	-0.140090	9.272248	-0.125274	-0.982515	0.030778	0.820463	0.091224	0.564374	-0.152993	0.986217	0.063005	-0.550848	-0.138038	0.823111
21667	5.095731	-0.028943	9.193603	-0.110124	-1.097026	-0.051225	0.814429	0.089182	0.573369	-0.151930	0.986421	0.062377	-0.560021	-0.137914	0.816919
21668	5.046986	0.142842	9.284250	-0.106492	-1.222590	-0.121461	0.807659	0.086228	0.583311	-0.150240	0.986693	0.062166	-0.570189	-0.137845	0.809867
21669	5.063404	0.036559	9.169494	-0.064239	-1.390025	-0.180111	0.799903	0.082508	0.594430	-0.148389	0.986940	0.062693	-0.581494	-0.138356	0.801700
21670	5.234780	0.419781	9.023584	-0.016755	-1.568547	-0.234507	0.790958	0.078040	0.606874	-0.146457	0.987148	0.063940	-0.594084	-0.139455	0.792222
21671	5.264419	0.452391	8.967034	-0.025308	-1.761596	-0.315751	0.780806	0.072433	0.620560	-0.143790	0.987427	0.065665	-0.608002	-0.140502	0.781405
21672	5.244517	0.551977	8.805426	0.039855	-1.998866	-0.392983	0.769006	0.065725	0.635853	-0.140989	0.987644	0.068427	-0.623499	-0.142269	0.768771
21673	4.815852	0.452455	8.976728	0.152616	-2.253133	-0.443429	0.755363	0.058083	0.652727	-0.138540	0.987704	0.072433	-0.640495	-0.145142	0.754122
21674	4.663874	0.250273	9.207717	0.229636	-2.576445	-0.523711	0.739269	0.049142	0.671614	-0.136145	0.987646	0.077593	-0.659504	-0.148799	0.736827
21675	5.025430	-0.275958	9.839730	0.311944	-2.901868	-0.634219	0.720659	0.038474	0.692221	-0.133570	0.987458	0.084175	-0.680301	-0.153121	0.716760
21676	5.164777	-1.060777	9.903793	0.398817	-3.207075	-0.820084	0.699473	0.025436	0.714206	-0.130570	0.987094	0.092722	-0.702630	-0.158110	0.693766
21677	6.638573	-1.388446	10.855468	0.524128	-3.519097	-1.015970	0.675613	0.009719	0.737193	-0.127294	0.986434	0.103655	-0.726184	-0.163871	0.667685
21678	8.585385	-1.635848	11.567781	0.605251	-3.697128	-1.199528	0.649773	-0.008246	0.760083	-0.123828	0.985436	0.116548	-0.749974	-0.169849	0.639289
21679	8.901880	-1.836239	11.505807	0.709604	-3.829403	-1.373897	0.622249	-0.028426	0.782303	-0.120459	0.983961	0.131567	-0.773496	-0.176103	0.608845
21680	9.599974	-1.802756	11.463871	0.770743	-3.933191	-1.528863	0.593077	-0.050402	0.803566	-0.117386	0.981962	0.148229	-0.796542	-0.182239	0.576463
21681	10.724864	-2.758884	12.039343	0.891458	-4.008999	-1.676354	0.562611	-0.074300	0.823376	-0.114863	0.979269	0.166852	-0.818704	-0.188448	0.542413
21682	10.406626	-4.832846	11.467008	1.324068	-3.908573	-1.806330	0.532066	-0.099319	0.840858	-0.116244	0.975124	0.188734	-0.838685	-0.198163	0.507285
21683	8.812997	-4.301843	10.166044	2.016631	-3.797038	-1.958583	0.502200	-0.126201	0.855493	-0.123168	0.968769	0.215214	-0.855935	-0.213450	0.470971
21684	5.947805	-4.845466	9.085391	2.757094	-3.704658	-2.099152	0.472748	-0.154602	0.867529	-0.137176	0.959576	0.245758	-0.870455	-0.235186	0.432430
21685	0.433487	-5.686042	6.179691	3.705593	-3.874587	-2.332557	0.442196	-0.186534	0.877307	-0.158959	0.946352	0.281336	-0.882720	-0.263861	0.388822
21686	6.603739	-0.264867	9.439323	4.213218	-4.343503	-2.434731	0.407455	-0.221260	0.886016	-0.186519	0.929591	0.317917	-0.893975	-0.294795	0.337498
21687	21.817423	7.410144	19.848278	3.048123	-2.770536	-1.521212	0.385580	-0.243802	0.889881	-0.207781	0.916742	0.341191	-0.898975	-0.316457	0.302820
21688	12.059491	6.451245	20.013872	1.347809	-1.026229	-0.826266	0.377696	-0.254402	0.890295	-0.217288	0.910312	0.352303	-0.900073	-0.326514	0.288543
21689	6.080138	1.023528	15.532725	-0.054102	0.193336	-0.279384	0.380007	-0.256341	0.888754	-0.215708	0.909782	0.354637	-0.899480	-0.326476	0.290429
21690	0.410134	-4.214499	10.357820	-0.440034	0.749394	0.143926	0.386187	-0.252454	0.887202	-0.212936	0.911442	0.352040	-0.897507	-0.324871	0.298230
21691	-1.619917	-5.757575	7.761395	-0.211896	0.833957	0.389086	0.392798	-0.246223	0.886050	-0.212518	0.913107	0.347954	-0.894732	-0.324978	0.306340
21692	-1.249635	-3.611684	8.078898	0.096234	0.833230	0.521791	0.398853	-0.238370	0.885492	-0.215861	0.914085	0.343298	-0.891247	-0.328069	0.313130
21693	0.441667	-0.412641	9.623611	0.075655	0.955775	0.575634	0.406067	-0.229983	0.884431	-0.218816	0.915190	0.338447	-0.887259	-0.330960	0.321304
21694	2.247816	1.600652	10.778254	-0.252864	1.269874	0.559042	0.415825	-0.220245	0.882372	-0.219272	0.917330	0.332305	-0.882615	-0.331660	0.333155
21695	3.114390	1.883455	10.822083	-0.677523	1.709683	0.464100	0.429824	-0.210359	0.878066	-0.215239	0.920575	0.325905	-0.876883	-0.329076	0.350408
21696	3.362855	1.268425	10.023617	-0.998557	2.132573	0.337825	0.447665	-0.199819	0.871589	-0.208326	0.924586	0.318969	-0.869595	-0.324366	0.372277
21697	3.683603	0.669662	9.028508	-1.177910	2.454979	0.226981	0.468411	-0.189854	0.862871	-0.199140	0.928820	0.312467	-0.860776	-0.318195	0.397262
21698	4.751709	0.622921	8.685319	-1.272553	2.721652	0.191722	0.491379	-0.179093	0.852333	-0.189544	0.933184	0.305355	-0.850070	-0.311600	0.424601
21699	5.920278	0.738809	8.688567	-1.338529	2.988957	0.256419	0.516096	-0.167514	0.839990	-0.179507	0.937758	0.297302	-0.837510	-0.304220	0.453903
21700	6.398983	0.712897	8.482008	-1.367457	3.276136	0.374959	0.542812	-0.153663	0.825677	-0.170449	0.942503	0.287462	-0.822376	-0.296774	0.485410
21701	6.417828	0.826655	8.008144	-1.338176	3.502223	0.549493	0.570368	-0.138232	0.809674	-0.162584	0.947234	0.276248	-0.805138	-0.289204	0.517798
21702	6.504489	1.278106	7.493492	-1.285336	3.630088	0.740202	0.598166	-0.120364	0.792281	-0.157060	0.951874	0.263189	-0.785830	-0.281866	0.550475
21703	6.886790	1.339080	7.047330	-1.233600	3.688420	0.919561	0.625318	-0.101357	0.773760	-0.153086	0.956331	0.248989	-0.765207	-0.274149	0.582495
21704	7.276161	0.895980	7.001111	-1.112870	3.705226	1.092128	0.651579	-0.080436	0.754304	-0.152085	0.960322	0.233779	-0.743179	-0.267044	0.613492
21705	7.535166	0.455069	7.246295	-0.896412	3.711551	1.241759	0.676807	-0.058711	0.733816	-0.153745	0.963560	0.218893	-0.719927	-0.260968	0.643118
21706	7.884013	0.356593	7.680636	-0.636675	3.743814	1.383110	0.701175	-0.035259	0.712117	-0.159213	0.965813	0.204587	-0.694986	-0.256829	0.671590
21707	8.265028	1.052558	8.434238	-0.462679	3.801389	1.537942	0.724562	-0.010717	0.689126	-0.166993	0.967355	0.190624	-0.668672	-0.253198	0.699119
21708	9.245655	2.133622	9.302226	-0.450524	3.887723	1.705295	0.747138	0.016068	0.664475	-0.176993	0.968421	0.175594	-0.640670	-0.248800	0.726388
21709	9.963966	3.074252	9.753917	-0.568216	4.009434	1.865217	0.768817	0.043965	0.637956	-0.187548	0.969265	0.159222	-0.611348	-0.242060	0.753433
21710	10.875900	3.517046	9.633158	-0.716348	4.104021	1.975075	0.789404	0.073291	0.609483	-0.199081	0.969752	0.141236	-0.580696	-0.232829	0.780117
21711	11.474162	4.023999	9.346252	-0.818344	4.140267	2.028561	0.808624	0.102351	0.579355	-0.210643	0.969837	0.122665	-0.549325	-0.221227	0.805792
21712	11.083534	4.967404	8.985763	-0.878430	4.083246	1.996179	0.826068	0.130981	0.548139	-0.222676	0.969334	0.103953	-0.517714	-0.207929	0.829902
21713	11.215059	6.813924	8.547066	-0.961204	3.911687	1.795966	0.841618	0.156213	0.516988	-0.232799	0.968690	0.086281	-0.487322	-0.192970	0.851633
21714	13.756673	10.476939	7.242247	-1.186454	3.733711	1.436173	0.855846	0.177481	0.485827	-0.239741	0.968413	0.068557	-0.458314	-0.175147	0.871362
21715	16.193730	13.122645	4.042511	-1.636771	3.524613	1.013287	0.869083	0.193064	0.455435	-0.241174	0.969226	0.049354	-0.431891	-0.152732	0.888900
21716	16.728909	10.842397	-0.723878	-1.779020	3.110154	0.395730	0.881164	0.201618	0.427668	-0.237429	0.970895	0.031483	-0.408873	-0.129283	0.903388
21717	16.460861	7.621312	-4.132388	-1.296792	2.449116	-0.327515	0.891700	0.201374	0.405363	-0.229325	0.973123	0.021036	-0.390232	-0.111718	0.913914
21718	17.156450	6.468345	-5.369208	-0.516593	1.708602	-0.795816	0.900013	0.195665	0.389477	-0.220347	0.975232	0.019247	-0.376064	-0.103143	0.920835
21719	19.414218	5.048470	-5.581960	0.127237	1.097839	-0.816523	0.905843	0.188813	0.379207	-0.213428	0.976675	0.023532	-0.365919	-0.102250	0.925013
21720	17.493971	-4.670304	-10.792183	1.568295	-0.247879	-0.638083	0.906284	0.182419	0.381278	-0.213450	0.976120	0.040348	-0.364813	-0.117950	0.923579
21721	20.566158	9.339589	-11.118353	1.816418	-1.245070	-0.293213	0.902314	0.177955	0.392635	-0.217475	0.974331	0.058179	-0.372203	-0.137884	0.917852
21722	26.637733	6.377891	-9.336956	0.813213	-2.045064	1.151296	0.891937	0.186255	0.412017	-0.230921	0.971063	0.060922	-0.388748	-0.149481	0.909137
21723	7.415169	2.376825	4.712685	0.197511	-1.998093	1.548561	0.880293	0.198212	0.431041	-0.245410	0.967792	0.056154	-0.406027	-0.155213	0.900583
21724	9.853441	2.879797	14.997669	0.466422	-2.238676	0.158679	0.870590	0.196124	0.451229	-0.248674	0.966752	0.059594	-0.424539	-0.164091	0.890416
21725	17.274410	16.008363	27.502866	-0.061951	-1.648069	-0.330585	0.864275	0.190188	0.465680	-0.245519	0.967500	0.060534	-0.439032	-0.166651	0.882881
21726	24.811097	0.593263	9.478722	-0.110751	-0.269383	0.326274	0.862287	0.192784	0.468291	-0.247746	0.967084	0.058062	-0.441683	-0.166083	0.881665
21727	-7.991628	-0.623891	12.079101	0.076628	-0.581115	-0.000749	0.859691	0.191793	0.473441	-0.248059	0.966964	0.058714	-0.446540	-0.167917	0.878866
21728	14.439129	4.079967	6.971994	0.123489	0.080564	0.025113	0.859981	0.192055	0.472808	-0.248712	0.966737	0.059688	-0.445618	-0.168924	0.879141
21729	5.772109	-0.018570	8.875059	0.071659	-0.349665	0.024575	0.858340	0.191687	0.475929	-0.249223	0.966575	0.060175	-0.448487	-0.170263	0.877422
21730	4.123226	2.013638	9.269095	0.029177	0.062515	-0.009432	0.858649	0.191568	0.475420	-0.249159	0.966569	0.060528	-0.447931	-0.170428	0.877674
21731	5.353613	1.735455	9.111077	0.009313	-0.065605	0.048643	0.858217	0.191913	0.476061	-0.249598	0.966467	0.060353	-0.448514	-0.170619	0.877339
21732	5.353523	1.277537	8.871781	0.016468	-0.078393	0.061374	0.857713	0.192229	0.476840	-0.250074	0.966350	0.060253	-0.449212	-0.170925	0.876923
21733	5.367472	0.739285	8.839452	0.026628	-0.058418	0.061688	0.857279	0.192712	0.477425	-0.250702	0.966193	0.060166	-0.449690	-0.171271	0.876610
21734	4.903371	0.434950	9.012231	0.046109	-0.010831	0.037427	0.857134	0.192916	0.477604	-0.251110	0.966070	0.060436	-0.449740	-0.171733	0.876494
21735	4.980285	0.454085	8.968908	0.052117	-0.019613	0.033825	0.856944	0.193195	0.477832	-0.251613	0.965922	0.060706	-0.449820	-0.172250	0.876351
21736	4.887512	0.805226	8.948350	0.065031	-0.014642	0.024247	0.856820	0.193260	0.478028	-0.251992	0.965791	0.061215	-0.449845	-0.172909	0.876209
21737	4.842323	1.448430	8.996238	0.073620	-0.029685	0.039605	0.856570	0.193577	0.478347	-0.252641	0.965594	0.061645	-0.449956	-0.173653	0.876004
21738	4.815706	1.386628	9.069064	0.033365	-0.043789	0.065384	0.856213	0.193980	0.478822	-0.253218	0.965441	0.061676	-0.450311	-0.174054	0.875743
21739	5.075023	0.882223	8.934815	-0.021493	-0.032150	0.084578	0.855837	0.194726	0.479191	-0.253824	0.965321	0.061058	-0.450684	-0.173886	0.875584
21740	4.825130	0.499771	9.057665	-0.044712	-0.019274	0.093596	0.855517	0.195446	0.479470	-0.254291	0.965248	0.060269	-0.451028	-0.173486	0.875486
21741	4.923807	0.166881	8.924227	-0.050265	-0.004297	0.084558	0.855266	0.196240	0.479594	-0.254767	0.965177	0.059398	-0.451237	-0.172986	0.875478
21742	4.897072	0.137730	9.021656	-0.047238	-0.009283	0.078689	0.855029	0.196832	0.479774	-0.255092	0.965136	0.058655	-0.451502	-0.172538	0.875430
21743	4.821127	0.093003	9.052442	-0.031481	-0.014133	0.063631	0.854786	0.197407	0.479970	-0.255472	0.965072	0.058049	-0.451746	-0.172239	0.875362
21744	5.002759	0.182357	9.054816	-0.014695	-0.030859	0.051996	0.854517	0.197717	0.480322	-0.255727	0.965025	0.057714	-0.452112	-0.172148	0.875191
21745	4.918965	0.317801	9.064953	-0.003230	-0.021004	0.048287	0.854281	0.198132	0.480569	-0.256103	0.964942	0.057428	-0.452343	-0.172135	0.875074
21746	5.029012	0.417554	8.957276	0.004929	-0.020365	0.031289	0.854112	0.198260	0.480817	-0.256271	0.964901	0.057366	-0.452568	-0.172216	0.874942
21747	5.111105	0.496937	8.947543	-0.003992	-0.009634	0.027459	0.853982	0.198494	0.480953	-0.256466	0.964861	0.057174	-0.452704	-0.172174	0.874880
21748	5.040164	0.523344	8.957829	-0.006289	0.005939	0.015482	0.853971	0.198519	0.480962	-0.256452	0.964869	0.057090	-0.452732	-0.172097	0.874881
21749	5.025959	0.644277	8.937611	-0.004524	0.007662	0.008071	0.853968	0.198595	0.480935	-0.256479	0.964868	0.056987	-0.452721	-0.172015	0.874902
21750	5.020729	1.158351	8.955115	-0.012182	0.013572	0.010951	0.854007	0.198577	0.480873	-0.256387	0.964899	0.056875	-0.452700	-0.171861	0.874944
21751	4.938980	1.074490	8.965031	-0.037484	0.014760	0.023398	0.853998	0.198813	0.480792	-0.256395	0.964925	0.056410	-0.452713	-0.171447	0.875018
21752	4.817651	0.816045	8.994196	-0.050512	0.011004	0.041133	0.853945	0.199091	0.480771	-0.256397	0.964959	0.055815	-0.452812	-0.170931	0.875068
21753	4.846799	0.861304	8.995854	-0.057543	-0.004210	0.046750	0.853789	0.199520	0.480869	-0.256514	0.964971	0.055062	-0.453039	-0.170361	0.875062
21754	4.931100	0.682123	8.940393	-0.067113	-0.002225	0.059651	0.853629	0.199954	0.480974	-0.256597	0.964996	0.054233	-0.453293	-0.169712	0.875056
21755	4.813025	0.442155	8.979340	-0.065916	-0.012304	0.055644	0.853414	0.200454	0.481147	-0.256751	0.965003	0.053364	-0.453611	-0.169077	0.875014
21756	4.805809	0.336125	9.009852	-0.050652	-0.026375	0.046177	0.853181	0.200712	0.481454	-0.256788	0.965027	0.052746	-0.454029	-0.168633	0.874883
21757	4.726205	0.228410	9.005817	-0.027526	-0.039679	0.038593	0.852885	0.201002	0.481857	-0.256970	0.965003	0.052295	-0.454482	-0.168424	0.874688
21758	4.554132	0.174614	9.076869	0.002794	-0.067753	0.032228	0.852502	0.201043	0.482516	-0.257118	0.964969	0.052212	-0.455116	-0.168574	0.874330
21759	4.304206	0.043634	9.155405	0.038860	-0.106445	0.029644	0.851925	0.201134	0.483497	-0.257525	0.964851	0.052384	-0.455966	-0.169140	0.873777
21760	4.482184	0.252340	9.154128	0.086710	-0.162725	0.026087	0.851114	0.200991	0.484982	-0.258038	0.964677	0.053050	-0.457189	-0.170296	0.872913
21761	5.234678	0.516290	8.795068	0.112658	-0.182112	0.017040	0.850220	0.200828	0.486616	-0.258676	0.964458	0.053926	-0.458490	-0.171725	0.871950
21762	5.404518	0.884112	8.758675	0.101991	-0.142437	0.004536	0.849554	0.200505	0.487910	-0.259076	0.964299	0.054832	-0.459497	-0.172988	0.871170
21763	5.331420	0.778113	8.880063	0.089043	-0.118589	-0.007137	0.849011	0.200214	0.488974	-0.259402	0.964166	0.055618	-0.460317	-0.174061	0.870524
21764	5.268489	0.803267	8.906517	0.082504	-0.088646	-0.006256	0.848617	0.199882	0.489792	-0.259626	0.964061	0.056401	-0.460916	-0.175026	0.870013
21765	5.198581	0.773544	8.933788	0.078506	-0.071773	-0.003798	0.848279	0.199703	0.490450	-0.259933	0.963938	0.057079	-0.461364	-0.175903	0.869598
21766	5.200176	1.000425	8.877129	0.072589	-0.061056	0.005002	0.847982	0.199529	0.491035	-0.260211	0.963825	0.057722	-0.461754	-0.176720	0.869226
21767	5.162216	1.075622	8.852454	0.056092	-0.042485	0.009282	0.847745	0.199527	0.491445	-0.260526	0.963715	0.058140	-0.462012	-0.177322	0.868966
21768	4.842066	1.019974	8.968818	0.036978	-0.045598	0.019312	0.847486	0.199498	0.491902	-0.260740	0.963641	0.058406	-0.462365	-0.177757	0.868689
21769	4.784345	0.862603	9.018763	0.033599	-0.079312	0.042596	0.846992	0.199750	0.492651	-0.261234	0.963503	0.058465	-0.462993	-0.178216	0.868261
21770	4.921665	0.665900	8.892652	0.029422	-0.100568	0.046877	0.846403	0.199896	0.493602	-0.261657	0.963385	0.058530	-0.463829	-0.178694	0.867716
21771	4.841606	0.488787	8.874989	0.038094	-0.118080	0.039630	0.845735	0.200050	0.494685	-0.262145	0.963245	0.058641	-0.464772	-0.179274	0.867092
21772	4.706555	-0.031811	8.843555	0.059081	-0.143718	0.017994	0.845025	0.199818	0.495990	-0.262441	0.963136	0.059109	-0.465895	-0.180116	0.866314
21773	4.613279	0.137130	8.968693	0.083513	-0.164066	-0.013341	0.844278	0.199376	0.497438	-0.262694	0.963020	0.059875	-0.467105	-0.181225	0.865431
21774	5.041996	0.371274	8.981164	0.103234	-0.181103	-0.031366	0.843509	0.198638	0.499035	-0.262819	0.962918	0.060955	-0.468421	-0.182572	0.864436
21775	4.945337	0.469772	9.037619	0.120692	-0.207738	-0.021864	0.842575	0.198029	0.500851	-0.263177	0.962748	0.062084	-0.469899	-0.184123	0.863304
21776	5.176396	0.671052	8.883060	0.128224	-0.212898	-0.021456	0.841636	0.197286	0.502720	-0.263470	0.962586	0.063338	-0.471416	-0.185759	0.862126
21777	5.241951	0.919679	8.936632	0.114349	-0.205533	-0.016635	0.840692	0.196725	0.504516	-0.263846	0.962414	0.064384	-0.472887	-0.187242	0.860999
21778	5.193381	0.738662	8.936864	0.100489	-0.197734	-0.006995	0.839768	0.196184	0.506262	-0.264177	0.962260	0.065317	-0.474341	-0.188593	0.859903
21779	5.090226	0.748170	9.058950	0.085035	-0.192824	-0.024712	0.838901	0.195564	0.507937	-0.264349	0.962156	0.066150	-0.475778	-0.189766	0.858850
21780	5.016200	0.797419	9.202903	0.026588	-0.202322	-0.072583	0.838123	0.194377	0.509674	-0.263777	0.962269	0.066777	-0.477463	-0.190408	0.857772
21781	4.715321	-0.002283	9.112406	-0.036958	-0.219325	-0.140981	0.837428	0.192585	0.511494	-0.262395	0.962621	0.067158	-0.479441	-0.190453	0.856658
21782	4.021838	0.912638	9.562534	0.027561	-0.312903	-0.109591	0.836213	0.190802	0.514143	-0.261493	0.962808	0.067992	-0.482048	-0.191300	0.855005
21783	5.026696	1.433039	9.137120	-0.000460	-0.506333	-0.041939	0.833853	0.189409	0.518472	-0.261116	0.962897	0.068182	-0.486320	-0.192235	0.852372
21784	4.872727	1.384128	9.140263	-0.042623	-0.499139	-0.003929	0.831421	0.188303	0.522763	-0.260784	0.963008	0.067877	-0.490644	-0.192762	0.849771
21785	4.945066	1.868630	9.222922	-0.077399	-0.573256	0.071553	0.828389	0.187868	0.527709	-0.260971	0.963031	0.066822	-0.495646	-0.193072	0.846793
21786	4.899374	1.480176	9.253064	-0.120826	-0.661980	0.137525	0.824727	0.187798	0.533439	-0.261404	0.963031	0.065110	-0.501491	-0.193141	0.843329
21787	4.958215	1.339202	9.241946	-0.167212	-0.771950	0.187699	0.820320	0.188097	0.540087	-0.262079	0.963009	0.062674	-0.508320	-0.192958	0.839272
21788	5.135938	1.136628	9.087940	-0.226820	-0.857727	0.231411	0.815322	0.188543	0.547451	-0.262693	0.963040	0.059557	-0.515988	-0.192370	0.834716
21789	5.048678	0.768335	9.151642	-0.238869	-0.952655	0.256513	0.809672	0.189165	0.555561	-0.263509	0.963022	0.056134	-0.524399	-0.191845	0.829579
21790	5.274136	0.742462	8.883824	-0.243356	-1.065670	0.263020	0.803336	0.189548	0.564555	-0.264246	0.963015	0.052680	-0.533690	-0.191501	0.823713
21791	5.343317	0.730733	8.731181	-0.274842	-1.146711	0.266984	0.796433	0.189908	0.574133	-0.264875	0.963043	0.048884	-0.543631	-0.191007	0.817301
21792	5.192408	0.531217	8.736339	-0.289691	-1.232724	0.274051	0.788941	0.190065	0.584335	-0.265342	0.963104	0.044985	-0.554226	-0.190539	0.810265
21793	5.241266	0.289334	8.926040	-0.269438	-1.371586	0.274862	0.780509	0.190080	0.595546	-0.265963	0.963104	0.041171	-0.565746	-0.190528	0.802266
21794	5.161079	-0.044034	9.014124	-0.241820	-1.506851	0.244566	0.771242	0.189427	0.607703	-0.266356	0.963132	0.037818	-0.578135	-0.191033	0.793263
21795	4.987030	-0.141245	9.172784	-0.205406	-1.723912	0.215793	0.760560	0.188182	0.621398	-0.266780	0.963127	0.034855	-0.591926	-0.192286	0.782719
21796	4.716420	-0.578675	9.405408	-0.098952	-1.999784	0.171224	0.748115	0.185819	0.637021	-0.267354	0.963031	0.033064	-0.607327	-0.195046	0.770137
21797	4.489245	-0.998697	9.137113	0.045734	-2.311793	0.076561	0.733649	0.181974	0.654709	-0.268175	0.962808	0.032901	-0.624373	-0.199714	0.755164
21798	4.172567	-0.226465	9.124214	0.117813	-2.686497	-0.023110	0.716657	0.176261	0.674785	-0.268710	0.962623	0.033938	-0.643581	-0.205643	0.737234
21799	4.080792	-0.759388	9.163181	0.229025	-3.069588	-0.150301	0.696956	0.168367	0.697068	-0.269117	0.962411	0.036618	-0.664701	-0.213114	0.716069
21800	4.885315	-0.714995	9.374496	0.248591	-3.441694	-0.316390	0.674526	0.157756	0.721199	-0.268544	0.962409	0.040647	-0.687676	-0.221091	0.691535
21801	5.945829	-0.782926	9.571361	0.362006	-3.727489	-0.442540	0.649609	0.145064	0.746301	-0.268116	0.962272	0.046335	-0.711422	-0.230195	0.663994
21802	8.013416	-1.108223	10.418541	0.519006	-3.939355	-0.566140	0.622615	0.130271	0.771609	-0.268209	0.961844	0.054031	-0.735129	-0.240593	0.633799
21803	8.266212	-0.671673	11.047404	0.659476	-4.027228	-0.720534	0.594454	0.113404	0.796093	-0.268717	0.961108	0.063744	-0.757903	-0.251816	0.601808
21804	8.923089	-0.033634	11.323728	0.602756	-4.263160	-0.798476	0.563746	0.094757	0.820494	-0.268724	0.960392	0.073721	-0.781011	-0.262046	0.566881
21805	9.181385	0.277704	11.208125	0.483651	-4.414635	-0.868386	0.531056	0.074641	0.844043	-0.267771	0.959849	0.083594	-0.803914	-0.270403	0.529721
21806	9.963654	-1.016239	11.245353	0.359928	-4.583695	-0.936871	0.496129	0.053114	0.866623	-0.265906	0.959462	0.093422	-0.826529	-0.276789	0.490140
21807	10.975488	-2.561522	11.019042	0.483300	-4.742699	-1.077065	0.459240	0.029475	0.887823	-0.264774	0.958562	0.105135	-0.847935	-0.283355	0.448014
21808	12.836268	-3.390901	11.744661	0.892796	-4.631184	-1.263457	0.422828	0.004107	0.906201	-0.266913	0.956195	0.120206	-0.866011	-0.292703	0.405402
21809	12.740115	-3.698739	12.511137	1.408044	-4.313303	-1.428543	0.388997	-0.022455	0.920965	-0.273373	0.951859	0.138676	-0.879743	-0.305712	0.364132
21810	8.223102	-5.102334	11.306651	2.045132	-4.105441	-1.594472	0.357102	-0.050467	0.932701	-0.285575	0.944828	0.160461	-0.889340	-0.323657	0.322988
21811	2.581393	-5.741788	8.622386	2.838401	-4.098382	-1.761938	0.325699	-0.080808	0.942014	-0.304854	0.934152	0.185536	-0.894977	-0.347606	0.279618
21812	-5.361702	-3.309522	7.054653	3.557761	-4.541983	-1.930918	0.291119	-0.115013	0.949748	-0.330912	0.919363	0.212765	-0.897634	-0.376223	0.229585
21813	27.233856	5.736744	22.215375	2.774544	-3.569090	-1.184770	0.263084	-0.139662	0.954611	-0.352512	0.907137	0.229866	-0.898066	-0.396986	0.189421
21814	15.933985	6.753334	25.434251	1.271185	-0.753934	-0.778095	0.259152	-0.149563	0.954186	-0.362020	0.900870	0.239529	-0.895423	-0.407509	0.179318
21815	6.356159	1.605442	19.362967	0.037731	1.008111	-0.402079	0.269586	-0.149094	0.951365	-0.361262	0.900127	0.243434	-0.892644	-0.409319	0.188800
21816	-1.149594	-2.115425	12.202428	-0.381573	1.851889	-0.007390	0.286186	-0.141362	0.947689	-0.358029	0.901640	0.242611	-0.888770	-0.408732	0.207425
21817	-2.740522	-2.984488	8.487880	-0.316645	2.032835	0.238603	0.303320	-0.130927	0.943851	-0.355894	0.903271	0.239669	-0.883933	-0.408607	0.227384
21818	-2.314639	-1.399432	7.811972	-0.140913	2.087739	0.361830	0.320511	-0.118825	0.939762	-0.356013	0.904254	0.235755	-0.877797	-0.410129	0.247520
21819	-0.865293	0.633498	8.495966	-0.057264	2.204061	0.362530	0.338457	-0.106511	0.934934	-0.356675	0.904910	0.232211	-0.870764	-0.412061	0.268283
21820	0.326358	2.379180	9.077179	-0.132853	2.454430	0.249100	0.358929	-0.093809	0.928639	-0.356642	0.905656	0.229334	-0.862541	-0.413506	0.291610
21821	1.137454	3.020563	9.198118	-0.320717	2.745655	0.093519	0.382125	-0.081641	0.920497	-0.354205	0.907076	0.227491	-0.853533	-0.412975	0.317699
21822	2.317095	2.733019	9.364781	-0.482950	3.054165	-0.067522	0.408364	-0.069336	0.910182	-0.350097	0.908962	0.226318	-0.843013	-0.411072	0.346913
21823	3.398231	2.402680	9.304781	-0.570937	3.380738	-0.228011	0.437419	-0.057590	0.897412	-0.344323	0.911169	0.226304	-0.830726	-0.407989	0.378733
21824	4.423255	2.075818	8.689187	-0.648209	3.680312	-0.367869	0.469068	-0.045635	0.881982	-0.337587	0.913560	0.226809	-0.816095	-0.404135	0.413116
21825	4.980320	1.653321	7.868015	-0.730823	3.903403	-0.460032	0.502110	-0.034192	0.864128	-0.329418	0.916325	0.227669	-0.799606	-0.398974	0.448832
21826	5.130449	1.721613	7.118500	-0.858393	4.019576	-0.469001	0.535494	-0.022194	0.844247	-0.320481	0.919542	0.227450	-0.781369	-0.392363	0.485297
21827	5.438846	2.022170	6.658637	-1.065532	4.029327	-0.420127	0.567898	-0.010463	0.823032	-0.309907	0.923619	0.225580	-0.762528	-0.383169	0.521279
21828	6.178680	2.561382	6.629092	-1.339076	3.984128	-0.358597	0.599058	0.001651	0.800704	-0.298019	0.928612	0.221052	-0.743179	-0.371048	0.556784
21829	7.020045	2.410742	6.666654	-1.652619	3.945218	-0.297000	0.628837	0.013193	0.777425	-0.284043	0.934649	0.213893	-0.723798	-0.355326	0.591489
21830	7.590726	1.383170	6.878049	-1.839577	3.904759	-0.193111	0.657303	0.025330	0.753201	-0.269964	0.941024	0.203946	-0.703614	-0.337392	0.625376
21831	8.375468	0.550372	7.555421	-1.835161	3.886541	-0.002623	0.684222	0.038039	0.728281	-0.257199	0.947057	0.192174	-0.682414	-0.318803	0.657781
21832	9.371175	0.655645	8.531246	-1.718162	3.942184	0.286050	0.709992	0.053406	0.702181	-0.247976	0.952215	0.178311	-0.659105	-0.300723	0.689309
21833	11.142415	0.888093	9.555300	-1.553017	4.091312	0.647312	0.734824	0.071516	0.674477	-0.242589	0.956357	0.162890	-0.633391	-0.283316	0.720103
21834	12.369053	0.940610	10.035271	-1.307188	4.351575	1.072396	0.759170	0.094220	0.644037	-0.242836	0.959026	0.145945	-0.603897	-0.267192	0.750944
21835	13.322010	1.478951	10.058627	-0.951722	4.611281	1.538854	0.782450	0.120969	0.610851	-0.249085	0.959855	0.128974	-0.570726	-0.253069	0.781170
21836	13.729386	2.489702	9.953345	-0.555136	4.793430	1.992605	0.803834	0.152382	0.575005	-0.262153	0.958449	0.112481	-0.533973	-0.241156	0.810381
21837	14.945894	4.014988	9.239615	-0.180237	4.853193	2.308309	0.822531	0.185921	0.537471	-0.279980	0.954978	0.098128	-0.495029	-0.231195	0.837553
21838	17.211563	6.946045	7.043208	0.046184	4.815345	2.408679	0.838380	0.220187	0.498635	-0.300511	0.949911	0.085803	-0.454766	-0.221781	0.862555
21839	18.648036	9.736023	3.373781	0.004901	4.641316	2.276817	0.851503	0.251787	0.459941	-0.319756	0.944535	0.074905	-0.415570	-0.210850	0.884785
21840	18.306809	9.392086	-1.166534	-0.120789	4.162402	1.892265	0.861823	0.278437	0.423952	-0.335713	0.939699	0.065286	-0.380209	-0.198591	0.903329
21841	17.845854	7.330645	-4.257785	-0.003202	3.378359	1.183135	0.870130	0.296069	0.393977	-0.345932	0.936314	0.060389	-0.351007	-0.188836	0.917134
21842	14.530075	8.558880	-5.565497	0.306921	1.929019	0.354769	0.875465	0.303170	0.376364	-0.350205	0.934636	0.061746	-0.333044	-0.185861	0.924412
21843	21.201824	3.050078	-18.742655	0.213160	-0.459762	0.281416	0.872924	0.304924	0.380821	-0.353364	0.933388	0.062620	-0.336360	-0.189231	0.922526
21844	27.450718	5.661360	-10.876089	0.346360	-1.351357	-0.167571	0.868893	0.300798	0.393123	-0.353115	0.933220	0.066414	-0.346893	-0.196524	0.917084
21845	27.723336	2.300541	-12.117187	0.008110	-1.594779	-0.072106	0.863492	0.296941	0.407686	-0.352504	0.933427	0.066748	-0.360724	-0.201347	0.910679
21846	22.514979	-0.939254	-12.885425	0.185778	-2.438548	0.093850	0.854133	0.292705	0.429861	-0.353918	0.932796	0.068067	-0.381049	-0.210274	0.900326
21847	4.627594	0.853312	11.227263	-0.585796	-2.958550	0.098135	0.842095	0.287341	0.456411	-0.352422	0.933761	0.062367	-0.408258	-0.213368	0.887581
21848	46.687139	-9.802000	38.226636	0.405120	-3.558653	-0.368131	0.828373	0.275928	0.487506	-0.350944	0.933945	0.067713	-0.436619	-0.227179	0.870490
21849	-2.861858	6.360813	2.316800	-0.839515	3.617239	-0.188255	0.844315	0.282049	0.455610	-0.345800	0.936311	0.061191	-0.409333	-0.209215	0.888074
21850	13.584776	9.601387	15.630281	1.500979	-3.951586	0.298330	0.826556	0.275933	0.490578	-0.354530	0.932190	0.073008	-0.437166	-0.234270	0.868334
21851	-0.456247	-1.685611	7.582414	-0.752276	1.916268	-0.172623	0.835399	0.278680	0.473758	-0.349838	0.934394	0.067245	-0.423936	-0.221915	0.878084
21852	12.303839	2.742416	6.848702	0.344817	-0.756521	0.050893	0.832012	0.277293	0.480484	-0.351598	0.933524	0.070083	-0.429110	-0.227247	0.874199
21853	3.574413	0.255436	9.564871	0.020196	-0.234597	0.051631	0.830806	0.277227	0.482604	-0.352096	0.933344	0.069985	-0.431034	-0.228066	0.873038
21854	5.710598	2.651012	9.066731	-0.030503	0.010181	0.052836	0.830683	0.277567	0.482620	-0.352257	0.933317	0.069530	-0.431139	-0.227764	0.873065
21855	5.342570	1.311227	8.912376	-0.075194	-0.003302	0.097162	0.830311	0.278452	0.482751	-0.352721	0.933227	0.068378	-0.431476	-0.227051	0.873084
21856	5.303148	1.050660	8.881009	-0.056120	-0.017841	0.099391	0.829906	0.279150	0.483044	-0.353149	0.933130	0.067483	-0.431905	-0.226591	0.872991
21857	4.345441	1.234280	9.029406	-0.071153	-0.039036	0.124222	0.829282	0.280207	0.483503	-0.353854	0.932953	0.066235	-0.432526	-0.226017	0.872833
21858	4.356204	0.828995	9.178121	-0.075354	-0.099883	0.147299	0.828350	0.281170	0.484541	-0.354596	0.932762	0.064937	-0.433704	-0.225607	0.872355
21859	5.079483	0.166373	8.855491	-0.056534	-0.118303	0.145561	0.827303	0.282246	0.485701	-0.355536	0.932489	0.063711	-0.434929	-0.225393	0.871800
21860	5.030322	0.259029	8.943020	-0.035459	-0.082567	0.116165	0.826555	0.282953	0.486563	-0.356184	0.932296	0.062911	-0.435820	-0.225305	0.871377
21861	4.899985	0.034166	8.991080	-0.015947	-0.097910	0.099413	0.825758	0.283644	0.487513	-0.356916	0.932059	0.062261	-0.436731	-0.225414	0.870893
21862	5.265576	0.348810	8.865563	0.008215	-0.097967	0.075054	0.825084	0.283942	0.488481	-0.357423	0.931880	0.062036	-0.437591	-0.225779	0.870366
21863	5.170487	0.465295	8.875903	0.010555	-0.076940	0.056080	0.824530	0.284276	0.489220	-0.357912	0.931706	0.061827	-0.438233	-0.226076	0.869966
21864	5.211572	0.511229	8.815329	0.027026	-0.073104	0.038567	0.824094	0.284287	0.489948	-0.358197	0.931589	0.061943	-0.438821	-0.226545	0.869548
21865	5.237858	0.486486	8.802222	0.038243	-0.060600	0.011770	0.823771	0.284245	0.490517	-0.358442	0.931478	0.062192	-0.439228	-0.227054	0.869210
21866	5.228501	0.695893	8.887265	0.034885	-0.046731	0.006773	0.823562	0.284024	0.490995	-0.358504	0.931432	0.062529	-0.439569	-0.227520	0.868915
21867	5.139532	0.740078	8.947593	0.026154	-0.037591	0.011590	0.823339	0.284032	0.491364	-0.358695	0.931348	0.062673	-0.439829	-0.227851	0.868697
21868	5.156982	0.683488	8.948716	0.018993	-0.029458	0.013107	0.823181	0.283915	0.491696	-0.358746	0.931318	0.062839	-0.440084	-0.228122	0.868497
21869	5.185874	0.686850	8.870844	0.013454	-0.021154	0.013138	0.823026	0.283974	0.491922	-0.358893	0.931259	0.062866	-0.440255	-0.228288	0.868366
21870	5.085049	0.806396	8.884739	0.011631	-0.022251	0.019120	0.822881	0.283921	0.492195	-0.358952	0.931231	0.062939	-0.440478	-0.228466	0.868207
21871	5.061443	0.798080	8.850971	0.005351	-0.022006	0.020569	0.822695	0.284047	0.492434	-0.359125	0.931170	0.062859	-0.440685	-0.228559	0.868077
21872	4.997800	0.711041	8.886539	0.003717	-0.021305	0.025369	0.822527	0.284066	0.492702	-0.359211	0.931139	0.062829	-0.440927	-0.228663	0.867927
21873	4.967938	0.672865	8.919876	-0.004225	-0.023279	0.023178	0.822326	0.284213	0.492953	-0.359363	0.931092	0.062653	-0.441178	-0.228670	0.867797
21874	4.959079	0.605372	8.888994	-0.001867	-0.031616	0.024622	0.822116	0.284202	0.493310	-0.359419	0.931076	0.062577	-0.441525	-0.228751	0.867600
21875	5.052519	0.552438	8.846862	0.001371	-0.031277	0.021649	0.821884	0.284317	0.493630	-0.359583	0.931021	0.062457	-0.441822	-0.228834	0.867426
21876	5.015992	0.471331	8.859867	0.013577	-0.037981	0.011171	0.821699	0.284152	0.494033	-0.359584	0.931012	0.062588	-0.442166	-0.229075	0.867187
21877	4.917223	0.461255	8.923441	0.026082	-0.040530	0.003136	0.821493	0.284072	0.494421	-0.359704	0.930952	0.062774	-0.442450	-0.229414	0.866953
21878	4.849309	0.480153	8.974360	0.043421	-0.058266	-0.001697	0.821259	0.283757	0.494991	-0.359745	0.930906	0.063220	-0.442852	-0.229990	0.866595
21879	4.947090	0.576390	8.911855	0.059201	-0.075864	-0.006539	0.820931	0.283505	0.495679	-0.359933	0.930798	0.063740	-0.443307	-0.230738	0.866164
21880	5.067517	0.793647	8.874833	0.070432	-0.090682	-0.007783	0.820572	0.283062	0.496525	-0.360050	0.930704	0.064447	-0.443875	-0.231657	0.865627
21881	5.265121	0.883596	8.789272	0.062909	-0.087881	-0.010510	0.820204	0.282744	0.497313	-0.360222	0.930598	0.065019	-0.444415	-0.232472	0.865131
21882	5.146971	0.748854	8.846355	0.059049	-0.078223	-0.010153	0.819909	0.282306	0.498048	-0.360268	0.930537	0.065639	-0.444922	-0.233249	0.864662
21883	5.148064	0.723033	8.854467	0.060404	-0.080156	-0.008953	0.819570	0.282019	0.498770	-0.360443	0.930431	0.066181	-0.445406	-0.234018	0.864204
21884	5.210012	0.897449	8.873606	0.054370	-0.075172	-0.000234	0.819253	0.281675	0.499484	-0.360546	0.930352	0.066713	-0.445905	-0.234742	0.863751
21885	5.212615	1.016401	8.917312	0.054671	-0.084052	0.019841	0.818791	0.281645	0.500258	-0.360932	0.930178	0.067061	-0.446441	-0.235468	0.863276
21886	5.098868	1.032288	8.933447	0.059565	-0.095406	0.034818	0.818258	0.281574	0.501169	-0.361342	0.929990	0.067463	-0.447086	-0.236296	0.862716
21887	5.271237	1.106784	8.759369	0.049323	-0.100015	0.053979	0.817600	0.281822	0.502103	-0.361983	0.929731	0.067593	-0.447771	-0.237017	0.862162
21888	5.166185	1.026763	8.737192	0.024006	-0.084540	0.058182	0.817025	0.282004	0.502936	-0.362437	0.929556	0.067565	-0.448453	-0.237485	0.861679
21889	5.013726	0.692551	8.817895	0.006733	-0.085670	0.056015	0.816422	0.282304	0.503746	-0.362903	0.929392	0.067317	-0.449173	-0.237770	0.861225
21890	4.927100	0.443869	8.860642	0.007431	-0.096811	0.049046	0.815830	0.282353	0.504677	-0.363190	0.929289	0.067199	-0.450017	-0.238116	0.860689
21891	4.885866	0.302571	8.951089	0.024454	-0.119897	0.032140	0.815157	0.282349	0.505765	-0.363541	0.929150	0.067223	-0.450951	-0.238663	0.860048
21892	4.953471	0.473219	8.967252	0.042974	-0.141668	0.023354	0.814449	0.282064	0.507062	-0.363791	0.929029	0.067535	-0.452027	-0.239469	0.859259
21893	5.114617	0.602748	8.917935	0.053645	-0.163920	0.012747	0.813646	0.281771	0.508513	-0.364116	0.928875	0.067907	-0.453211	-0.240410	0.858372
21894	5.229087	0.608290	8.864111	0.054683	-0.170596	0.006720	0.812866	0.281252	0.510045	-0.364278	0.928774	0.068405	-0.454477	-0.241402	0.857424
21895	5.055576	0.530408	8.938629	0.049858	-0.174009	-0.005000	0.812077	0.280767	0.511567	-0.364443	0.928678	0.068834	-0.455755	-0.242336	0.856482
21896	5.028828	0.569480	8.993289	0.040534	-0.194689	-0.029701	0.811307	0.279877	0.513274	-0.364271	0.928705	0.069383	-0.457262	-0.243262	0.855415
21897	4.873408	0.572175	9.183217	-0.049230	-0.198215	-0.110049	0.810783	0.278354	0.514927	-0.363131	0.929142	0.069504	-0.459093	-0.243339	0.854412
21898	4.285423	-0.178301	9.239284	-0.039375	-0.250326	-0.150223	0.810194	0.276183	0.517019	-0.361593	0.929704	0.070002	-0.461342	-0.243666	0.853106
21899	4.120460	1.459549	9.525978	0.036291	-0.456295	-0.086436	0.808377	0.274245	0.520880	-0.361039	0.929864	0.070736	-0.464948	-0.245240	0.850694
21900	5.122002	1.164676	9.093008	-0.037441	-0.503042	-0.046666	0.806212	0.272417	0.525177	-0.360355	0.930131	0.070717	-0.469219	-0.246263	0.848049
21901	4.933690	1.749128	9.246573	-0.052567	-0.592038	0.005553	0.803383	0.270989	0.530227	-0.360129	0.930256	0.070220	-0.474218	-0.247364	0.844943
21902	5.177477	1.686489	9.070191	-0.101381	-0.672098	0.075131	0.799924	0.269861	0.536001	-0.360109	0.930354	0.069018	-0.480045	-0.248227	0.841391
21903	5.102667	1.564303	9.091519	-0.160973	-0.750326	0.148402	0.795746	0.269358	0.542434	-0.360492	0.930364	0.066844	-0.486656	-0.248734	0.837435
21904	5.246528	1.111252	9.007379	-0.229928	-0.844113	0.187501	0.790940	0.268859	0.549662	-0.360733	0.930474	0.063951	-0.494253	-0.248862	0.832936
21905	5.268511	0.869868	9.032845	-0.299176	-0.921259	0.206873	0.785585	0.268474	0.557475	-0.360848	0.930673	0.060299	-0.502638	-0.248534	0.828001
21906	5.236532	0.574769	9.005325	-0.348338	-1.013476	0.221716	0.779649	0.267893	0.566022	-0.360712	0.930981	0.056225	-0.511893	-0.248007	0.822471
21907	5.101147	0.275893	9.157301	-0.346138	-1.117926	0.217848	0.773067	0.267132	0.575333	-0.360590	0.931267	0.052125	-0.521865	-0.247755	0.816257
21908	5.141453	0.125950	9.130375	-0.343089	-1.235946	0.195454	0.765855	0.265744	0.585530	-0.360165	0.931640	0.048258	-0.532679	-0.247846	0.809213
21909	5.229689	-0.217808	9.088443	-0.305926	-1.384931	0.190744	0.757692	0.264064	0.596803	-0.359946	0.931904	0.044647	-0.544373	-0.248645	0.801145
21910	5.180470	1.107118	9.249422	-0.278308	-1.556757	0.186102	0.748449	0.261797	0.609332	-0.359715	0.932145	0.041350	-0.557161	-0.250134	0.791836
21911	4.560369	-0.067393	9.353930	-0.149086	-1.815188	0.239045	0.737327	0.259435	0.623732	-0.360624	0.931909	0.038684	-0.571226	-0.253456	0.780680
21912	4.347382	0.366753	9.522233	-0.157052	-2.132138	0.221624	0.724180	0.255922	0.640365	-0.361225	0.931779	0.036118	-0.587435	-0.257472	0.767221
21913	4.213238	-0.099714	9.220452	-0.067653	-2.494644	0.205457	0.708534	0.251322	0.659406	-0.362267	0.931445	0.034251	-0.605593	-0.263149	0.751006
21914	3.823213	0.436553	9.156446	-0.044558	-2.937292	0.173093	0.689817	0.244988	0.681273	-0.363099	0.931173	0.032800	-0.626348	-0.269996	0.731294
21915	3.750464	0.172291	9.453671	-0.013649	-3.400525	0.117319	0.667673	0.236741	0.705809	-0.363781	0.930939	0.031872	-0.649520	-0.278040	0.707685
21916	4.491335	-0.070267	9.999119	0.049859	-3.861184	0.004358	0.642074	0.225773	0.732644	-0.364070	0.930814	0.032222	-0.674681	-0.287423	0.679848
21917	6.119267	-0.511249	10.176879	0.086029	-4.224081	-0.097157	0.613345	0.212492	0.760693	-0.364023	0.930787	0.033505	-0.700924	-0.297460	0.648246
21918	8.498404	-0.971932	10.981674	0.205860	-4.428122	-0.225681	0.582548	0.196888	0.788589	-0.364066	0.930654	0.036587	-0.726700	-0.308413	0.613831
21919	8.825400	-0.647686	11.615151	0.277066	-4.502041	-0.349664	0.550520	0.179475	0.815301	-0.364103	0.930454	0.041031	-0.751236	-0.319442	0.577582
21920	9.557644	0.648897	11.508612	0.126198	-4.761864	-0.363736	0.515444	0.160629	0.841733	-0.363087	0.930681	0.044737	-0.776199	-0.328682	0.538037
21921	9.818026	-0.330633	11.506827	-0.103607	-4.901195	-0.454711	0.478402	0.140102	0.866893	-0.359979	0.931721	0.048079	-0.800966	-0.335064	0.496171
21922	9.460394	-1.021077	10.475185	-0.093184	-5.011247	-0.578613	0.439729	0.117728	0.890381	-0.356522	0.932797	0.052738	-0.824336	-0.340631	0.452151
21923	11.768693	-0.452532	10.827788	-0.040149	-5.043628	-0.713909	0.400108	0.093732	0.911662	-0.353157	0.933702	0.058994	-0.845691	-0.345564	0.406684
21924	13.398038	-0.080967	11.725337	-0.001446	-4.766719	-0.845223	0.362324	0.069248	0.929476	-0.349894	0.934406	0.066779	-0.863884	-0.349414	0.362787
21925	10.979008	-3.465397	10.066625	0.160730	-4.582731	-0.990321	0.325801	0.043859	0.944420	-0.347856	0.934413	0.076607	-0.879119	-0.353481	0.319689
21926	7.972824	-5.858422	9.473599	0.816645	-4.378784	-1.146484	0.291074	0.017501	0.956541	-0.351549	0.931840	0.089927	-0.889769	-0.362446	0.277387
21927	0.133524	-5.946919	5.497376	1.930540	-4.090542	-1.409766	0.259599	-0.010811	0.965656	-0.364858	0.924727	0.108438	-0.894141	-0.380477	0.236114
21928	4.978999	0.515448	12.036851	2.237171	-4.575670	-1.358425	0.223695	-0.041102	0.973792	-0.381669	0.915626	0.126323	-0.896822	-0.399924	0.189134
21929	25.705904	3.923792	24.277981	1.763418	-2.261540	-0.859509	0.206742	-0.058180	0.976664	-0.395586	0.908028	0.137830	-0.894857	-0.414850	0.164712
21930	13.312160	1.895093	22.671519	1.136945	-0.320877	-0.479318	0.205826	-0.063756	0.976509	-0.404845	0.902930	0.144284	-0.890919	-0.425032	0.160035
21931	4.848627	-1.516603	16.173603	0.883755	0.998067	-0.194730	0.215453	-0.061253	0.974591	-0.412252	0.899028	0.147640	-0.885228	-0.433587	0.168447
21932	1.142812	-3.472543	11.454868	1.064420	1.667150	-0.007071	0.230228	-0.053823	0.971647	-0.421765	0.894300	0.149474	-0.876989	-0.444220	0.183192
21933	-0.820806	-3.833652	8.605515	1.423648	1.872210	0.075270	0.246196	-0.044735	0.968187	-0.434324	0.887930	0.151469	-0.866458	-0.457798	0.199175
21934	-1.029095	-3.211828	7.646158	1.725053	1.932152	0.042939	0.262688	-0.035119	0.964242	-0.449466	0.879837	0.154493	-0.853801	-0.473977	0.215338
21935	-0.151308	-1.721596	8.010521	1.834598	2.039099	-0.075678	0.280273	-0.025974	0.959569	-0.464767	0.870980	0.159326	-0.839904	-0.490631	0.232040
21936	0.836657	-0.052204	8.824616	1.647076	2.251931	-0.237078	0.300208	-0.016529	0.953731	-0.478017	0.862633	0.165417	-0.825454	-0.505559	0.251068
21937	2.142779	0.941232	9.612808	1.216101	2.570608	-0.391743	0.323111	-0.006790	0.946337	-0.486722	0.856391	0.172328	-0.811604	-0.516284	0.273405
21938	3.146233	0.748604	9.828439	0.703355	2.984348	-0.546385	0.349869	0.004360	0.936788	-0.490782	0.852628	0.179328	-0.797950	-0.522500	0.300448
21939	3.410074	0.120958	9.311689	0.270708	3.394758	-0.699843	0.380134	0.016141	0.924791	-0.490340	0.851300	0.186695	-0.784261	-0.524431	0.331522
21940	3.540623	-0.216967	8.540820	-0.084440	3.708984	-0.819161	0.413025	0.028970	0.910259	-0.486701	0.851817	0.193728	-0.769761	-0.523038	0.365921
21941	4.270715	0.077173	8.100105	-0.417252	3.925779	-0.894570	0.447253	0.041748	0.893433	-0.479643	0.854323	0.200189	-0.754922	-0.518064	0.402123
21942	5.490625	0.557335	8.017074	-0.780743	4.132648	-0.945653	0.482673	0.055311	0.874053	-0.469702	0.858684	0.205042	-0.739194	-0.509512	0.440443
21943	5.936563	0.677963	7.763928	-1.149445	4.331110	-0.981794	0.518860	0.068619	0.852101	-0.456352	0.865094	0.208216	-0.722860	-0.496893	0.480178
21944	6.275077	0.333189	7.247084	-1.455071	4.461672	-0.978596	0.555161	0.082392	0.827652	-0.441011	0.872846	0.208924	-0.705199	-0.480990	0.520905
21945	6.686000	-0.271071	6.995922	-1.648605	4.504964	-0.917643	0.590462	0.095572	0.801387	-0.424252	0.881457	0.207468	-0.686560	-0.462492	0.561014
21946	7.220351	-0.554515	6.915399	-1.719833	4.500348	-0.799460	0.624262	0.109355	0.773524	-0.408089	0.889967	0.203526	-0.666154	-0.442720	0.600199
21947	7.838154	-0.747528	7.025003	-1.733489	4.454634	-0.637408	0.655991	0.122896	0.744696	-0.392619	0.898219	0.197620	-0.644613	-0.422019	0.637475
21948	8.380449	-0.884577	7.231043	-1.691237	4.374814	-0.394794	0.685219	0.137853	0.715173	-0.379611	0.905603	0.189152	-0.621588	-0.401097	0.672867
21949	8.931101	-0.460207	8.025429	-1.624465	4.265580	-0.092197	0.711556	0.153658	0.685622	-0.369036	0.912098	0.178580	-0.597914	-0.380088	0.705713
21950	10.513924	0.183436	9.215530	-1.604624	4.181278	0.248764	0.735120	0.171932	0.655773	-0.361811	0.917528	0.165030	-0.573316	-0.358583	0.736700
21951	12.757530	0.176626	10.552216	-1.586900	4.204761	0.590014	0.756549	0.191953	0.625130	-0.357294	0.921981	0.149303	-0.547699	-0.336310	0.766108
21952	14.608136	-0.282558	11.999728	-1.462462	4.348583	0.857110	0.776650	0.214560	0.592266	-0.356448	0.924893	0.132357	-0.519384	-0.313907	0.794797
21953	15.196073	0.200563	12.740814	-1.230402	4.540068	1.075854	0.795659	0.238265	0.556917	-0.358688	0.926197	0.116199	-0.488128	-0.292214	0.822400
21954	16.666568	2.641705	12.551800	-1.086072	4.619981	1.248993	0.812854	0.263377	0.519521	-0.364008	0.926002	0.100088	-0.454716	-0.270467	0.848576
21955	20.398868	6.980594	10.175179	-1.221067	4.631846	1.442239	0.827831	0.288687	0.480995	-0.370475	0.925186	0.082333	-0.421241	-0.246355	0.872849
21956	23.357389	11.879144	5.580774	-1.719992	4.516713	1.576931	0.840164	0.314202	0.442043	-0.377004	0.924295	0.059564	-0.389863	-0.216695	0.895014
21957	23.236532	11.776899	0.166374	-2.191718	4.122679	1.517581	0.849923	0.336457	0.405496	-0.381559	0.923745	0.033280	-0.363378	-0.183006	0.913491
21958	20.755261	7.803080	-4.942169	-1.760550	3.434212	1.102077	0.857714	0.352740	0.374035	-0.385007	0.922828	0.012585	-0.340731	-0.154800	0.927329
21959	21.014295	2.786307	-8.384190	-0.474060	2.649856	0.223433	0.865593	0.358712	0.349392	-0.385353	0.922740	0.007328	-0.319770	-0.140982	0.936948
21960	19.327042	-0.946537	-17.419461	1.895656	0.900205	-0.828692	0.871538	0.352583	0.340744	-0.384217	0.922823	0.027846	-0.304629	-0.155188	0.939744
21961	22.650814	11.047516	-16.506445	2.062170	-0.175839	-1.222379	0.875667	0.340997	0.341948	-0.379742	0.923666	0.051353	-0.298335	-0.174821	0.938315
21962	26.738451	11.211576	-16.607148	0.928528	-1.534063	-0.190061	0.871715	0.336512	0.356192	-0.380938	0.922610	0.060640	-0.308220	-0.188548	0.932443
21963	15.358642	0.511769	-11.059690	1.104273	-2.096601	1.105472	0.860811	0.342535	0.376396	-0.393983	0.916686	0.066812	-0.322152	-0.205806	0.924047
21964	1.264381	13.802813	11.361227	-0.416332	-2.167002	0.964603	0.849783	0.346792	0.396993	-0.400787	0.914253	0.059260	-0.342402	-0.209468	0.915906
21965	4.199325	5.822159	15.532701	-0.084016	-2.710332	0.386292	0.838620	0.344517	0.421929	-0.403736	0.913105	0.056884	-0.365668	-0.218052	0.904843
21966	8.248034	11.596926	14.093737	0.084935	-2.616611	-0.129162	0.829315	0.337373	0.445439	-0.402870	0.913401	0.058256	-0.387211	-0.227767	0.893415
21967	40.196426	-1.656668	33.577836	0.055059	-3.505299	0.149282	0.814622	0.330526	0.476597	-0.404303	0.912783	0.058027	-0.415850	-0.239960	0.877205
21968	-3.142267	-7.234448	0.235875	-0.263828	2.352069	-0.006309	0.824250	0.335798	0.455907	-0.403021	0.913487	0.055808	-0.397725	-0.229741	0.888276
21969	22.819831	6.853870	9.125934	0.725081	-2.335417	0.166843	0.814081	0.331774	0.476653	-0.407315	0.911221	0.061402	-0.413965	-0.244135	0.876944
21970	-3.217938	0.199306	11.420459	-0.165757	0.886842	-0.200288	0.818572	0.331881	0.468823	-0.404830	0.912356	0.060979	-0.407496	-0.239709	0.881185
21971	7.060999	1.605277	8.343731	0.114159	-0.124380	-0.009768	0.818090	0.331481	0.469947	-0.405199	0.912123	0.062003	-0.408097	-0.241146	0.880514
21972	6.902484	2.028072	8.579159	0.063058	-0.157548	0.003180	0.817467	0.330928	0.471418	-0.405322	0.912026	0.062625	-0.409221	-0.242270	0.879684
21973	5.034565	1.495619	9.133052	-0.029176	-0.020754	0.041500	0.817199	0.331243	0.471661	-0.405526	0.911969	0.062146	-0.409555	-0.242056	0.879587
21974	5.393216	1.264181	8.987169	-0.028296	0.006883	0.051692	0.817054	0.331520	0.471717	-0.405663	0.911935	0.061741	-0.409707	-0.241804	0.879586
21975	5.210119	1.681953	9.027014	-0.075508	0.044712	0.075743	0.816915	0.332305	0.471405	-0.405956	0.911875	0.060692	-0.409694	-0.240950	0.879826
21976	4.815923	0.601176	9.001246	-0.098721	0.064783	0.081763	0.816887	0.332990	0.470970	-0.406047	0.911911	0.059530	-0.409660	-0.239865	0.880138
21977	4.610883	0.477060	8.984489	-0.079999	0.057849	0.067192	0.816837	0.333728	0.470535	-0.406251	0.911888	0.058483	-0.409558	-0.238926	0.880441
21978	4.076427	0.573223	9.058986	-0.052848	0.018958	0.067023	0.816680	0.334170	0.470493	-0.406411	0.911861	0.057792	-0.409712	-0.238411	0.880509
21979	4.519333	0.743877	9.060914	-0.049805	-0.031975	0.085223	0.816188	0.334858	0.470858	-0.406885	0.911704	0.056925	-0.410221	-0.238047	0.880370
21980	4.963413	0.334224	8.961496	-0.051015	-0.051711	0.098467	0.815612	0.335422	0.471454	-0.407311	0.911565	0.056101	-0.410943	-0.237785	0.880105
21981	4.442924	0.141526	9.075889	-0.035264	-0.040547	0.088919	0.815069	0.336123	0.471895	-0.407874	0.911359	0.055344	-0.411463	-0.237583	0.879916
21982	4.253601	0.080294	9.234455	0.001693	-0.114952	0.096186	0.814239	0.336520	0.473043	-0.408500	0.911100	0.054990	-0.412484	-0.238013	0.879322
21983	4.821813	0.273593	9.066945	0.035169	-0.166986	0.095220	0.813145	0.336976	0.474597	-0.409402	0.910705	0.054821	-0.413745	-0.238879	0.878494
21984	5.032195	0.460722	9.029144	0.044034	-0.149330	0.080370	0.812232	0.337150	0.476035	-0.410078	0.910396	0.054908	-0.414868	-0.239809	0.877711
21985	5.173267	0.772235	8.925308	0.034246	-0.141878	0.072023	0.811332	0.337451	0.477354	-0.410787	0.910081	0.054838	-0.415925	-0.240583	0.876998
21986	5.223183	0.715787	8.901711	0.017270	-0.113705	0.065906	0.810622	0.337578	0.478469	-0.411234	0.909883	0.054756	-0.416866	-0.241149	0.876396
21987	5.140020	0.749321	8.923764	0.015478	-0.103256	0.061644	0.809923	0.337876	0.479442	-0.411781	0.909648	0.054570	-0.417685	-0.241622	0.875875
21988	5.120574	0.632055	8.948626	0.001695	-0.087191	0.059533	0.809348	0.338007	0.480320	-0.412110	0.909510	0.054380	-0.418475	-0.241957	0.875406
21989	5.094602	0.475476	8.878449	0.006037	-0.078666	0.053587	0.808783	0.338289	0.481072	-0.412551	0.909324	0.054149	-0.419132	-0.242262	0.875007
21990	5.107125	0.393502	8.870126	0.015183	-0.059269	0.037469	0.808414	0.338288	0.481693	-0.412759	0.909227	0.054182	-0.419639	-0.242625	0.874663
21991	5.008637	0.504688	8.977028	0.018123	-0.051194	0.026666	0.808074	0.338392	0.482190	-0.413032	0.909103	0.054186	-0.420024	-0.242947	0.874389
21992	5.033386	0.473833	8.911477	0.024919	-0.051110	0.014444	0.807833	0.338203	0.482726	-0.413097	0.909060	0.054414	-0.420424	-0.243370	0.874079
21993	5.011077	0.472276	8.930466	0.030114	-0.046898	0.013935	0.807564	0.338200	0.483178	-0.413318	0.908949	0.054583	-0.420725	-0.243786	0.873819
21994	5.043988	0.589538	8.897799	0.036205	-0.050943	0.007130	0.807352	0.337947	0.483709	-0.413373	0.908903	0.054943	-0.421076	-0.244310	0.873503
21995	5.103363	0.710706	8.843503	0.040421	-0.041796	0.005983	0.807137	0.337884	0.484112	-0.413573	0.908794	0.055241	-0.421293	-0.244803	0.873261
21996	5.081776	0.723510	8.894916	0.033889	-0.030179	0.006435	0.807015	0.337675	0.484460	-0.413613	0.908755	0.055583	-0.421486	-0.245235	0.873046
21997	5.030041	0.603867	8.890764	0.030167	-0.022821	0.003032	0.806892	0.337632	0.484696	-0.413746	0.908680	0.055806	-0.421591	-0.245570	0.872901
21998	5.155300	0.600369	8.903446	0.031270	-0.015435	-0.003298	0.806873	0.337371	0.484910	-0.413697	0.908680	0.056172	-0.421677	-0.245929	0.872759
21999	5.199632	0.566172	8.840859	0.034830	-0.001419	-0.012920	0.806906	0.337235	0.484949	-0.413721	0.908648	0.056513	-0.421590	-0.246234	0.872714
22000	5.063854	0.540924	8.917148	0.039177	0.007092	-0.018896	0.807045	0.336889	0.484958	-0.413580	0.908680	0.057023	-0.421461	-0.246589	0.872677
22001	5.145756	0.683752	8.929961	0.034509	0.008555	-0.015671	0.807132	0.336752	0.484908	-0.413580	0.908658	0.057374	-0.421295	-0.246857	0.872681
22002	5.132101	0.946151	8.898766	0.016189	0.016465	-0.005489	0.807255	0.336553	0.484842	-0.413452	0.908701	0.057618	-0.421185	-0.246971	0.872702
22003	4.862514	0.897117	9.029726	0.003508	0.021025	0.010532	0.807286	0.336684	0.484700	-0.413533	0.908667	0.057572	-0.421047	-0.246916	0.872784
22004	4.836339	0.888704	8.997327	-0.004773	-0.005679	0.023740	0.807195	0.336695	0.484843	-0.413551	0.908664	0.057491	-0.421203	-0.246914	0.872709
22005	4.743051	0.789115	8.893134	-0.009661	-0.016814	0.035445	0.806963	0.336959	0.485045	-0.413777	0.908579	0.057209	-0.421424	-0.246867	0.872616
22006	4.516593	0.583735	9.045351	0.002573	-0.059526	0.038545	0.806584	0.336972	0.485667	-0.413947	0.908507	0.057121	-0.421983	-0.247113	0.872276
22007	4.868015	0.538898	8.963914	0.016809	-0.097952	0.042571	0.805980	0.337100	0.486580	-0.414342	0.908333	0.057035	-0.422750	-0.247579	0.871772
22008	4.956649	0.552888	8.948021	0.029618	-0.110933	0.037432	0.805386	0.336978	0.487647	-0.414619	0.908197	0.057185	-0.423609	-0.248244	0.871166
22009	4.853719	0.386455	8.887749	0.042381	-0.126043	0.027175	0.804725	0.336894	0.488795	-0.414997	0.908010	0.057397	-0.424494	-0.249037	0.870509
22010	4.780278	0.242718	8.891295	0.060216	-0.153233	0.011632	0.804055	0.336433	0.490213	-0.415199	0.907884	0.057936	-0.425565	-0.250120	0.869675
22011	4.819994	0.358989	8.929356	0.075329	-0.179851	-0.013297	0.803330	0.335844	0.491803	-0.415393	0.907750	0.058631	-0.426744	-0.251392	0.868730
22012	4.932024	0.344944	8.922667	0.094990	-0.205173	-0.031526	0.802612	0.334860	0.493643	-0.415402	0.907678	0.059681	-0.428084	-0.252961	0.867615
22013	5.135338	0.600131	8.871832	0.095546	-0.202264	-0.038737	0.801891	0.333978	0.495408	-0.415481	0.907576	0.060677	-0.429355	-0.254488	0.866539
22014	5.048790	0.709171	8.939639	0.086545	-0.197258	-0.034940	0.801215	0.332980	0.497171	-0.415431	0.907532	0.061668	-0.430664	-0.255949	0.865458
22015	5.211577	0.692863	8.909890	0.076166	-0.203524	-0.028666	0.800442	0.332180	0.498948	-0.415509	0.907443	0.062445	-0.432024	-0.257301	0.864380
22016	5.089786	0.649600	8.968677	0.064655	-0.192478	-0.022221	0.799728	0.331305	0.500672	-0.415470	0.907410	0.063182	-0.433382	-0.258543	0.863328
22017	4.990164	0.710956	9.151004	0.022261	-0.189265	-0.054295	0.799117	0.330305	0.502305	-0.415112	0.907543	0.063622	-0.434848	-0.259354	0.862347
22018	5.159545	0.711682	8.999251	-0.000513	-0.188879	-0.075277	0.798632	0.328956	0.503959	-0.414369	0.907851	0.064063	-0.436446	-0.259988	0.861349
22019	4.761546	0.668137	9.136644	-0.031261	-0.202309	-0.092870	0.798117	0.327568	0.505675	-0.413470	0.908249	0.064239	-0.438236	-0.260352	0.860329
22020	3.516294	0.965389	9.707827	0.030612	-0.326751	-0.027170	0.796818	0.326296	0.508539	-0.413250	0.908316	0.064705	-0.440801	-0.261712	0.858604
22021	5.063812	1.276781	9.203970	-0.015766	-0.488243	0.011115	0.794596	0.325098	0.512766	-0.413248	0.908332	0.064489	-0.444797	-0.263143	0.856103
22022	4.837723	1.175031	9.244822	-0.032248	-0.554456	0.040425	0.791973	0.323831	0.517602	-0.413288	0.908344	0.064071	-0.449412	-0.264661	0.853219
22023	5.043797	1.061080	9.058099	-0.078625	-0.634007	0.075976	0.788778	0.322820	0.523083	-0.413511	0.908318	0.062982	-0.454794	-0.265980	0.849951
22024	4.876868	1.670211	9.220985	-0.119501	-0.677330	0.123440	0.785191	0.321965	0.528974	-0.413799	0.908296	0.061385	-0.460701	-0.267088	0.846415
22025	5.265115	0.892220	8.997654	-0.172635	-0.784615	0.169646	0.780831	0.321388	0.535735	-0.414304	0.908224	0.059002	-0.467605	-0.268028	0.842322
22026	5.152793	0.704755	9.064928	-0.240623	-0.836569	0.173318	0.776194	0.320546	0.542931	-0.414381	0.908372	0.056113	-0.475196	-0.268535	0.837900
22027	4.950618	0.619290	9.192970	-0.293966	-0.932672	0.186208	0.770934	0.319713	0.550857	-0.414390	0.908577	0.052616	-0.483674	-0.268834	0.832939
22028	5.110324	0.444387	9.173490	-0.311384	-1.039828	0.184910	0.765113	0.318426	0.559649	-0.414154	0.908883	0.049071	-0.493030	-0.269326	0.827276
22029	5.042749	0.326972	9.158155	-0.299894	-1.150202	0.189379	0.758583	0.317025	0.569251	-0.414080	0.909102	0.045509	-0.503079	-0.270238	0.820904
22030	5.188143	0.455831	9.006441	-0.253458	-1.265832	0.197318	0.751351	0.315224	0.579746	-0.414150	0.909222	0.042368	-0.513763	-0.271935	0.813695
22031	5.157670	0.611128	8.983994	-0.222828	-1.404101	0.218152	0.743135	0.313354	0.591236	-0.414598	0.909157	0.039266	-0.525222	-0.274305	0.805542
22032	5.333241	0.528182	8.938905	-0.191852	-1.584279	0.251254	0.733690	0.311107	0.604078	-0.415305	0.908958	0.036290	-0.537792	-0.277503	0.796098
22033	5.093431	0.395171	8.994806	-0.119195	-1.773400	0.275396	0.722870	0.308630	0.618229	-0.416637	0.908450	0.033645	-0.551246	-0.281898	0.785278
22034	4.700978	0.420168	9.144420	-0.121400	-2.038046	0.286037	0.710303	0.305275	0.634252	-0.417883	0.907973	0.030969	-0.566430	-0.287041	0.772505
22035	4.399339	0.165783	8.996035	-0.098196	-2.339783	0.287833	0.695627	0.301079	0.652268	-0.419317	0.907397	0.028347	-0.583332	-0.293226	0.757458
22036	4.265840	0.177017	8.974534	-0.074082	-2.711299	0.253786	0.678501	0.295186	0.672683	-0.420503	0.906914	0.026170	-0.602340	-0.300621	0.739468
22037	4.275318	0.140511	8.917082	-0.043188	-3.082433	0.211715	0.658699	0.287685	0.695236	-0.421628	0.906441	0.024389	-0.623174	-0.309196	0.718368
22038	5.117251	-0.604741	9.403982	0.037773	-3.443516	0.122035	0.636351	0.277836	0.719628	-0.422547	0.906027	0.023848	-0.645376	-0.319253	0.693950
22039	5.699835	-1.130231	9.593694	0.131041	-3.709038	-0.041183	0.612143	0.265390	0.744882	-0.423124	0.905726	0.025026	-0.668018	-0.330497	0.666727
22040	7.403435	-1.895886	10.160259	0.221538	-3.922985	-0.227159	0.586456	0.250016	0.770430	-0.423172	0.905609	0.028237	-0.690649	-0.342584	0.636899
22041	9.645983	-1.563091	10.900476	0.378263	-4.031037	-0.414424	0.559907	0.232164	0.795364	-0.423421	0.905301	0.033819	-0.712193	-0.355710	0.605188
22042	8.490639	-0.455091	10.831019	0.411854	-4.116360	-0.546308	0.532469	0.212223	0.819413	-0.423337	0.905058	0.040687	-0.732982	-0.368553	0.571757
22043	9.016956	-0.038123	10.548300	0.299875	-4.298385	-0.635381	0.503166	0.190359	0.842963	-0.422247	0.905229	0.047620	-0.754010	-0.379900	0.535859
22044	9.385113	-0.132824	10.581225	0.231080	-4.404867	-0.710183	0.472484	0.166905	0.865391	-0.420486	0.905636	0.054909	-0.774565	-0.389828	0.498079
22045	10.280967	-0.252532	10.295307	0.178252	-4.578785	-0.780383	0.439795	0.141759	0.886840	-0.418295	0.906152	0.062592	-0.794739	-0.398488	0.457818
22046	12.631061	-1.282932	11.236279	0.221630	-4.571813	-0.884716	0.406718	0.115292	0.906249	-0.416285	0.906418	0.071513	-0.813195	-0.406344	0.416651
22047	12.517116	-2.296364	11.842337	0.452758	-4.347940	-0.998366	0.375152	0.088364	0.922742	-0.416068	0.905589	0.082436	-0.828341	-0.414849	0.376499
22048	10.230640	-4.057946	10.851973	0.945579	-4.167111	-1.160156	0.345243	0.060333	0.936572	-0.419756	0.902482	0.096595	-0.839412	-0.426481	0.336901
22049	4.832459	-5.662003	9.166766	1.698616	-4.068660	-1.343288	0.316632	0.030524	0.948057	-0.429594	0.895716	0.114637	-0.845691	-0.443577	0.296725
22050	-2.124550	-4.040152	6.888934	2.579303	-4.046673	-1.537014	0.289117	-0.001539	0.957293	-0.446798	0.884181	0.136361	-0.846630	-0.467141	0.254944
22051	7.125552	4.485024	16.110767	2.337567	-4.130973	-1.486758	0.260850	-0.034340	0.964768	-0.462482	0.872777	0.156110	-0.847388	-0.486910	0.211782
22052	20.878007	8.191230	26.007381	1.325145	-1.724552	-1.248031	0.252092	-0.053597	0.966218	-0.470557	0.865683	0.170791	-0.845592	-0.497716	0.193011
22053	9.624599	4.654489	23.068516	0.103713	0.239955	-1.143751	0.259460	-0.062324	0.963741	-0.468478	0.864519	0.182032	-0.844517	-0.498722	0.195110
22054	1.710367	-0.168318	15.945781	-0.509193	1.566400	-1.030056	0.277517	-0.063321	0.958632	-0.461511	0.866367	0.190831	-0.842610	-0.495378	0.211209
22055	-1.825691	-2.775378	10.900199	-0.544719	2.170932	-0.896127	0.299844	-0.060405	0.952074	-0.454314	0.868517	0.198184	-0.838864	-0.491965	0.232977
22056	-2.910938	-3.183106	8.187990	-0.364907	2.303435	-0.766320	0.322632	-0.055556	0.944893	-0.449015	0.869817	0.204458	-0.833243	-0.490236	0.255686
22057	-1.543111	-1.990587	7.805762	-0.228563	2.315839	-0.633342	0.344654	-0.049752	0.937410	-0.444975	0.870619	0.209809	-0.826566	-0.489436	0.277924
22058	1.166681	-0.246642	8.727331	-0.233838	2.467490	-0.504478	0.367264	-0.041833	0.929175	-0.441423	0.871477	0.213711	-0.818696	-0.488648	0.301596
22059	3.557668	1.193578	9.477591	-0.390444	2.813533	-0.434297	0.392052	-0.031934	0.919389	-0.436565	0.873236	0.216494	-0.809757	-0.486250	0.328413
22060	5.019288	1.853794	9.390888	-0.622202	3.242961	-0.406109	0.419980	-0.019505	0.907324	-0.430099	0.876086	0.217917	-0.799144	-0.481760	0.359549
22061	5.540111	1.688860	8.659532	-0.813628	3.652719	-0.419488	0.450706	-0.005739	0.892654	-0.421791	0.879942	0.218621	-0.786738	-0.475047	0.394174
22062	5.727907	1.195251	7.565367	-0.911143	3.950929	-0.448582	0.483448	0.009232	0.875324	-0.412797	0.884186	0.218666	-0.771931	-0.467045	0.431268
22063	5.725391	0.704682	6.584909	-0.927547	4.099158	-0.450671	0.516565	0.024175	0.855906	-0.403430	0.888567	0.218385	-0.755251	-0.458109	0.468756
22064	6.062305	0.329148	5.911720	-0.890719	4.111472	-0.371295	0.549095	0.035360	0.835011	-0.387526	0.895981	0.216891	-0.740485	-0.442682	0.505682
22065	6.691989	0.085548	5.892770	-0.806202	4.073790	-0.236994	0.579744	0.051060	0.813197	-0.380269	0.899631	0.214614	-0.720619	-0.433655	0.540972
22066	7.454539	0.507738	6.177837	-0.718093	4.059114	-0.111470	0.609561	0.062955	0.790236	-0.367336	0.905795	0.211189	-0.702496	-0.419014	0.575262
22067	7.827405	1.072625	6.468107	-0.713146	4.099437	-0.030862	0.637981	0.079637	0.765923	-0.362187	0.908786	0.207194	-0.679560	-0.409593	0.608632
22068	7.896083	1.749518	6.428574	-0.791631	4.137070	0.023670	0.666274	0.091875	0.740026	-0.350215	0.914683	0.201753	-0.658353	-0.393591	0.641606
22069	7.814907	2.682843	6.619212	-0.986982	4.157041	0.079728	0.692831	0.108672	0.712865	-0.344354	0.918436	0.194666	-0.633566	-0.380348	0.673743
22070	8.305391	3.712132	7.048059	-1.304557	4.131317	0.147884	0.718874	0.120816	0.684561	-0.331061	0.925430	0.184329	-0.611244	-0.359141	0.705265
22071	9.336586	4.069446	7.355170	-1.646107	4.100974	0.218772	0.742705	0.137134	0.655427	-0.322774	0.930904	0.170983	-0.586692	-0.338544	0.735650
22072	10.284576	3.644137	7.564580	-1.828655	4.089043	0.254208	0.766407	0.148080	0.625054	-0.308043	0.938604	0.155343	-0.563675	-0.311599	0.764968
22073	11.305201	3.466267	8.199494	-1.803899	4.074381	0.259159	0.788037	0.162723	0.593734	-0.300099	0.943624	0.139692	-0.537530	-0.288262	0.792443
22074	12.894859	4.285093	9.357255	-1.604751	4.092941	0.274035	0.809947	0.170996	0.561022	-0.287020	0.949748	0.124893	-0.511473	-0.262181	0.818325
22075	16.260470	7.065138	10.065444	-1.474899	4.167644	0.343309	0.829648	0.184726	0.526840	-0.282488	0.952856	0.110751	-0.481545	-0.240710	0.842718
22076	19.799069	7.936498	8.678940	-1.506792	4.315478	0.372177	0.850038	0.192607	0.490243	-0.272159	0.957479	0.095724	-0.450961	-0.214793	0.866313
22077	21.380679	7.248713	5.153045	-1.341994	4.373658	0.377344	0.867986	0.205133	0.452241	-0.269554	0.959475	0.082145	-0.417063	-0.193204	0.888105
22078	20.052799	5.004148	0.931053	-0.924042	4.099862	0.411906	0.884205	0.213038	0.415687	-0.265444	0.961442	0.071889	-0.384344	-0.173906	0.906662
22079	18.738519	2.825235	-2.255925	-0.268223	3.476192	0.429652	0.895883	0.223024	0.384257	-0.268259	0.960966	0.067692	-0.354161	-0.163724	0.920741
22080	19.242347	1.605097	-3.984338	0.343626	2.689387	0.404028	0.904556	0.229061	0.359596	-0.270676	0.960176	0.069251	-0.329413	-0.159975	0.930535
22081	19.550978	3.004948	-7.656054	0.414779	1.028521	0.833371	0.905587	0.238692	0.350625	-0.279546	0.957568	0.070129	-0.319008	-0.161524	0.933886
22082	19.897416	-2.420781	-14.525698	0.625343	-0.148759	1.229866	0.901956	0.248900	0.352880	-0.291253	0.953965	0.071568	-0.318822	-0.167329	0.932928
22083	26.246929	0.927711	-10.444709	0.781690	-1.101918	1.615155	0.893548	0.262350	0.364340	-0.308258	0.948496	0.073023	-0.326417	-0.177560	0.928399
22084	20.323377	2.350315	-6.047172	0.943745	-1.464103	1.924491	0.882871	0.276829	0.379348	-0.327386	0.941945	0.074555	-0.336686	-0.190015	0.922245
22085	8.118526	10.493958	7.319570	0.181117	-1.362555	1.393286	0.873543	0.287282	0.392927	-0.340225	0.937674	0.070812	-0.348094	-0.195541	0.916839
22086	6.671753	13.108208	13.171585	0.029843	-1.319874	0.758877	0.866655	0.290529	0.405588	-0.345595	0.935913	0.068053	-0.359824	-0.199147	0.911519
22087	-3.924494	9.066586	13.029094	-0.237324	-1.142794	0.268601	0.861540	0.290746	0.416193	-0.347030	0.935615	0.064764	-0.370567	-0.200228	0.906967
22088	-0.657660	7.170359	8.479545	0.008144	-1.826478	-0.198695	0.855710	0.283894	0.432626	-0.343983	0.936673	0.065723	-0.386571	-0.205056	0.899175
22089	0.986813	1.793474	8.169150	-0.363602	-2.025777	0.024412	0.847593	0.279929	0.450805	-0.342731	0.937363	0.062335	-0.405118	-0.207340	0.890443
22090	27.414892	-7.248226	26.651537	-0.274472	-2.980954	0.256278	0.834612	0.274855	0.477365	-0.342426	0.937704	0.058782	-0.431471	-0.212522	0.876737
22091	21.665313	-2.580943	3.842202	0.048336	1.566375	-0.140438	0.841733	0.276820	0.463526	-0.341433	0.937999	0.059843	-0.418222	-0.208635	0.884060
22092	-1.531813	4.885735	9.457034	0.555086	-1.524137	0.065065	0.835550	0.272513	0.477066	-0.342504	0.937303	0.064460	-0.429589	-0.217256	0.876500
22093	7.448156	1.316815	8.840135	-0.189932	0.836782	-0.022758	0.839182	0.274084	0.469735	-0.341482	0.937783	0.062874	-0.423277	-0.213168	0.880566
22094	7.450633	-0.671748	9.907020	0.084025	-0.436895	0.051771	0.837616	0.272059	0.473691	-0.340556	0.938083	0.063418	-0.427108	-0.214438	0.878405
22095	3.017593	2.889852	9.862460	-0.072273	-0.005340	0.026797	0.837488	0.272283	0.473790	-0.340450	0.938174	0.062631	-0.427444	-0.213754	0.878408
22096	5.476248	-0.296943	9.043471	-0.080886	-0.050862	0.072269	0.837493	0.271266	0.474362	-0.338978	0.938774	0.061628	-0.428601	-0.212412	0.878170
22097	5.414367	0.037545	8.901717	-0.030516	-0.028427	0.018024	0.837296	0.271358	0.474658	-0.338976	0.938799	0.061250	-0.428988	-0.212182	0.878037
22098	5.228044	1.045971	8.768600	-0.024077	-0.029477	0.011864	0.837610	0.269780	0.475004	-0.337191	0.939456	0.061027	-0.429782	-0.211284	0.877865
22099	5.178317	0.835818	8.837955	-0.020139	0.003181	0.002801	0.837599	0.269796	0.475013	-0.337106	0.939501	0.060812	-0.429868	-0.211066	0.877875
22100	4.949641	1.044366	8.836160	-0.009148	0.016693	-0.000289	0.838130	0.268261	0.474947	-0.335351	0.940131	0.060779	-0.430208	-0.210215	0.877913
22101	4.868158	0.917226	8.855585	-0.009016	0.020313	0.005123	0.838185	0.268335	0.474807	-0.335333	0.940145	0.060651	-0.430113	-0.210055	0.877998
22102	4.786311	1.035071	8.997667	-0.002387	0.012059	0.011645	0.838638	0.266949	0.474789	-0.333761	0.940706	0.060624	-0.430454	-0.209307	0.878009
22103	4.817304	0.831538	8.949645	-0.008760	0.007748	0.037106	0.838533	0.267297	0.474779	-0.334012	0.940635	0.060346	-0.430463	-0.209184	0.878034
22104	4.715778	0.851367	9.075986	0.003897	-0.010287	0.026343	0.838835	0.266013	0.474966	-0.332601	0.941137	0.060305	-0.430966	-0.208560	0.877936
22105	4.936136	0.257877	9.030597	0.017106	-0.047630	0.025905	0.838529	0.266140	0.475434	-0.332870	0.941042	0.060307	-0.431354	-0.208827	0.877682
22106	5.030780	0.669457	9.097017	0.021540	-0.038820	0.018453	0.838698	0.264832	0.475867	-0.331593	0.941483	0.060461	-0.432008	-0.208503	0.877437
22107	5.029914	0.857198	9.036166	0.003478	-0.028914	0.025803	0.838473	0.264997	0.476171	-0.331802	0.941417	0.060344	-0.432284	-0.208592	0.877280
22108	4.951206	0.716239	9.021448	-0.010526	-0.027623	0.026962	0.838663	0.263787	0.476510	-0.330449	0.941904	0.060175	-0.432953	-0.207929	0.877107
22109	4.944792	0.669304	9.001459	-0.017362	-0.029833	0.034035	0.838407	0.264027	0.476827	-0.330637	0.941859	0.059836	-0.433306	-0.207823	0.876958
22110	4.923516	0.444288	8.962328	-0.015617	-0.029440	0.031065	0.838570	0.262863	0.477183	-0.329307	0.942340	0.059600	-0.434002	-0.207118	0.876780
22111	4.893847	0.403444	8.940746	-0.004091	-0.042839	0.021150	0.838300	0.262956	0.477606	-0.329443	0.942303	0.059439	-0.434420	-0.207172	0.876561
22112	5.032328	0.437609	8.917938	0.014703	-0.047430	0.010168	0.838447	0.261571	0.478107	-0.328083	0.942769	0.059568	-0.435164	-0.206803	0.876279
22113	4.790636	0.578707	8.962625	0.019891	-0.047459	-0.000554	0.838228	0.261449	0.478558	-0.328142	0.942739	0.059720	-0.435541	-0.207094	0.876023
22114	4.759704	0.533513	8.962424	0.032993	-0.069729	0.001952	0.838284	0.260001	0.479248	-0.326859	0.943164	0.060047	-0.436397	-0.206983	0.875623
22115	4.981712	0.808716	8.910128	0.041955	-0.073764	0.001576	0.837943	0.259844	0.479930	-0.327032	0.943082	0.060383	-0.436923	-0.207550	0.875226
22116	5.120289	0.948616	8.898946	0.026855	-0.065685	0.008733	0.837995	0.258456	0.480589	-0.325765	0.943505	0.060625	-0.437769	-0.207363	0.874848
22117	5.040722	0.917503	8.950665	0.011562	-0.058170	0.018903	0.837664	0.258494	0.481144	-0.325951	0.943442	0.060611	-0.438264	-0.207601	0.874544
22118	5.008328	0.856122	8.918736	0.000255	-0.058352	0.026188	0.837691	0.257280	0.481748	-0.324706	0.943876	0.060535	-0.439136	-0.207136	0.874216
22119	4.941461	0.759171	8.921642	-0.009755	-0.060483	0.034719	0.837298	0.257464	0.482333	-0.324930	0.943816	0.060259	-0.439719	-0.207179	0.873913
22120	4.843336	0.636149	8.936722	-0.008811	-0.064488	0.038677	0.837247	0.256379	0.482998	-0.323777	0.944226	0.060045	-0.440665	-0.206656	0.873560
22121	4.640917	0.495954	8.982729	0.000316	-0.096276	0.036012	0.836691	0.256501	0.483895	-0.324056	0.944143	0.059850	-0.441515	-0.206885	0.873077
22122	4.799530	0.479569	8.938516	0.017658	-0.123270	0.036205	0.836373	0.255319	0.485070	-0.323048	0.944486	0.059876	-0.442855	-0.206779	0.872423
22123	4.859293	0.469840	8.933815	0.045171	-0.147576	0.024838	0.835624	0.255228	0.486407	-0.323432	0.944339	0.060125	-0.443988	-0.207562	0.871661
22124	4.791535	0.237087	8.954879	0.075715	-0.159292	0.011347	0.835210	0.253770	0.487878	-0.322511	0.944613	0.060775	-0.445433	-0.208106	0.870794
22125	4.817371	0.400267	8.955811	0.097868	-0.175161	-0.000181	0.834415	0.253382	0.489437	-0.322921	0.944419	0.061604	-0.446624	-0.209453	0.869860
22126	5.086192	0.630637	8.932354	0.121508	-0.187216	0.000041	0.833876	0.251859	0.491140	-0.322229	0.944583	0.062706	-0.448129	-0.210549	0.868821
22127	5.311077	0.993017	8.873808	0.112970	-0.166676	-0.004138	0.833127	0.251448	0.492620	-0.322677	0.944364	0.063685	-0.449199	-0.212014	0.867911
22128	5.075990	0.906789	8.901961	0.098470	-0.153807	0.002479	0.832716	0.250037	0.494030	-0.321929	0.944559	0.064572	-0.450496	-0.212813	0.867044
22129	5.065817	0.925264	8.946586	0.092185	-0.165377	0.009427	0.831925	0.249753	0.495504	-0.322398	0.944349	0.065301	-0.451620	-0.214075	0.866147
22130	5.232918	1.036638	8.863864	0.080462	-0.170926	0.012638	0.831413	0.248349	0.497067	-0.321599	0.944574	0.065981	-0.453130	-0.214714	0.865200
22131	5.307161	0.967586	8.806734	0.060722	-0.162545	0.021343	0.830592	0.248180	0.498522	-0.322026	0.944401	0.066378	-0.454331	-0.215670	0.864332
22132	5.209572	0.825445	8.886757	0.052066	-0.155511	0.022383	0.830076	0.247020	0.499955	-0.321317	0.944615	0.066764	-0.455773	-0.216063	0.863474
22133	4.995224	0.602978	8.897045	0.049307	-0.166042	0.021869	0.829233	0.246846	0.501437	-0.321698	0.944465	0.067058	-0.457036	-0.216918	0.862592
22134	5.049342	0.667364	8.915610	0.051020	-0.179535	0.017830	0.828652	0.245469	0.503071	-0.320808	0.944739	0.067455	-0.458713	-0.217286	0.861609
22135	5.213319	0.654718	8.864006	0.047424	-0.183647	0.016953	0.827739	0.245208	0.504698	-0.321141	0.944604	0.067756	-0.460126	-0.218164	0.860633
22136	5.228679	0.761088	8.866435	0.048456	-0.190173	0.009525	0.827106	0.243806	0.506414	-0.320260	0.944874	0.068171	-0.461877	-0.218568	0.859592
22137	5.203003	0.798043	8.864139	0.045496	-0.188320	0.009801	0.826188	0.243465	0.508073	-0.320525	0.944761	0.068490	-0.463333	-0.219436	0.858587
22138	5.122328	0.605884	8.927362	0.035212	-0.185146	-0.000842	0.825588	0.242024	0.509734	-0.319554	0.945064	0.068842	-0.465070	-0.219723	0.857573
22139	5.088481	0.505270	9.004094	0.014641	-0.196451	-0.036378	0.824774	0.241227	0.511427	-0.319296	0.945130	0.069132	-0.466689	-0.220314	0.856541
22140	4.714561	0.121715	9.043568	0.016784	-0.211800	-0.064169	0.824232	0.239159	0.513268	-0.317752	0.945612	0.069651	-0.468694	-0.220500	0.855398
22141	4.030751	0.565490	9.546359	0.003229	-0.281013	-0.086833	0.823172	0.237696	0.515643	-0.317026	0.945823	0.070104	-0.471043	-0.221179	0.853931
22142	4.599986	1.234532	9.438777	-0.019078	-0.522606	-0.051225	0.821098	0.235077	0.520132	-0.315434	0.946344	0.070249	-0.475710	-0.221748	0.851192
22143	4.656114	1.043115	9.344462	-0.085569	-0.538294	-0.035263	0.818620	0.233526	0.524716	-0.314709	0.946627	0.069685	-0.480437	-0.222178	0.848421
22144	4.829665	1.868531	9.380882	-0.112578	-0.651971	0.021261	0.815608	0.231404	0.530317	-0.313369	0.947146	0.068662	-0.486399	-0.222187	0.845014
22145	5.120782	1.743848	9.220022	-0.158280	-0.762772	0.090654	0.811572	0.230545	0.536843	-0.313305	0.947299	0.066823	-0.493145	-0.222427	0.841032
22146	5.278929	1.652428	9.030695	-0.223659	-0.854175	0.160538	0.807065	0.229165	0.544178	-0.312363	0.947796	0.064125	-0.501074	-0.221734	0.836516
22147	5.312852	1.309431	8.917380	-0.274196	-0.939298	0.221167	0.801611	0.229159	0.552183	-0.312728	0.947907	0.060605	-0.509530	-0.221265	0.831517
22148	5.344919	0.908548	8.934764	-0.293867	-1.028037	0.256568	0.795745	0.228390	0.560918	-0.312212	0.948313	0.056793	-0.518955	-0.220318	0.825921
22149	5.296290	0.589138	8.791116	-0.317953	-1.125342	0.265498	0.789002	0.228409	0.570356	-0.312621	0.948417	0.052655	-0.528908	-0.219851	0.819708
22150	5.303602	0.355371	8.730896	-0.338809	-1.217565	0.253678	0.781925	0.227222	0.580485	-0.311743	0.948929	0.048479	-0.539824	-0.218869	0.812826
22151	5.280925	0.140689	8.777087	-0.353086	-1.327281	0.238638	0.773922	0.226562	0.591367	-0.311644	0.949170	0.044206	-0.551292	-0.218507	0.805190
22152	5.239533	-0.142477	8.946759	-0.312430	-1.465887	0.214093	0.765289	0.224532	0.603257	-0.310542	0.949698	0.040474	-0.563824	-0.218311	0.796519
22153	4.882518	-0.109655	9.263039	-0.223061	-1.667777	0.190084	0.755163	0.222661	0.616563	-0.310684	0.949772	0.037532	-0.577238	-0.219899	0.786410
22154	4.658661	-0.188584	9.398572	-0.143059	-1.952689	0.168928	0.743414	0.219124	0.631918	-0.310123	0.950037	0.035406	-0.592587	-0.222294	0.774226
22155	4.018414	-0.355080	9.723160	-0.058665	-2.322836	0.134539	0.729009	0.215164	0.649808	-0.310730	0.949887	0.034078	-0.609912	-0.226758	0.759334
22156	3.132639	-0.482595	9.754340	0.025566	-2.785009	0.048832	0.711751	0.208527	0.670765	-0.310364	0.950010	0.033989	-0.630146	-0.232373	0.740890
22157	2.856411	-0.260052	9.959889	0.113610	-3.372248	-0.055827	0.690257	0.200003	0.695373	-0.310670	0.949866	0.035185	-0.653475	-0.240319	0.717787
22158	3.735084	-1.035060	10.355164	0.258210	-3.981700	-0.224427	0.664550	0.187460	0.723348	-0.310016	0.949946	0.038631	-0.679900	-0.249921	0.689402
22159	5.481861	-1.122550	11.045848	0.420196	-4.397864	-0.408655	0.635286	0.172300	0.752811	-0.310242	0.949617	0.044465	-0.707221	-0.261801	0.656734
22160	8.141049	-0.767607	11.691364	0.461501	-4.710096	-0.603475	0.603295	0.153393	0.782627	-0.309004	0.949634	0.052073	-0.735222	-0.273250	0.620309
22161	10.318968	0.024336	12.329889	0.500667	-4.724514	-0.711470	0.570104	0.133427	0.810665	-0.308543	0.949269	0.060745	-0.761434	-0.284756	0.582350
22162	10.093579	1.396347	11.325832	0.292002	-4.869226	-0.737359	0.534735	0.111841	0.837586	-0.305883	0.949603	0.068484	-0.787715	-0.292824	0.541996
22163	10.574564	0.892314	10.905690	-0.044840	-4.936017	-0.724476	0.497385	0.090362	0.862811	-0.301750	0.950479	0.074406	-0.813361	-0.297362	0.500021
22164	9.582437	-0.822781	9.616773	-0.173253	-5.001818	-0.768865	0.458439	0.067609	0.886151	-0.295639	0.951917	0.080318	-0.838112	-0.298801	0.456384
22165	12.156485	-1.781593	10.384248	-0.004214	-4.946287	-0.865605	0.418949	0.044489	0.906919	-0.291770	0.952426	0.088061	-0.859856	-0.301505	0.411998
22166	11.808684	-2.031385	10.586656	0.352945	-4.662912	-0.992636	0.381342	0.020393	0.924209	-0.289707	0.952030	0.098531	-0.877866	-0.305324	0.368957
22167	9.923194	-3.542477	9.848632	0.852823	-4.454991	-1.154545	0.345253	-0.004406	0.938499	-0.293024	0.949493	0.112254	-0.891593	-0.313758	0.326524
22168	5.642635	-5.409484	8.691747	1.638835	-4.289017	-1.357736	0.310814	-0.031414	0.949951	-0.302053	0.944378	0.130059	-0.901198	-0.327359	0.284037
22169	-0.969134	-4.176283	5.928316	2.632669	-4.179866	-1.631707	0.278102	-0.060939	0.958617	-0.320998	0.934714	0.152544	-0.905329	-0.350136	0.240385
22170	8.315001	4.754108	13.623857	2.621262	-4.453673	-1.676313	0.243165	-0.092784	0.965537	-0.339454	0.924330	0.174313	-0.908648	-0.370142	0.193268
22171	22.854816	9.187156	24.030522	1.669678	-2.104932	-1.424488	0.228932	-0.113856	0.966761	-0.351224	0.916578	0.191117	-0.907872	-0.383302	0.169845
22172	11.315290	6.528207	22.221313	0.386196	-0.224489	-1.336048	0.231381	-0.127327	0.964495	-0.349865	0.914181	0.204617	-0.907776	-0.384787	0.166977
22173	4.254767	1.926450	16.065531	-0.390522	1.127962	-1.244111	0.245892	-0.134401	0.959934	-0.343319	0.914062	0.215922	-0.906459	-0.382658	0.178618
22174	0.217412	-1.540090	11.175933	-0.594074	1.834755	-1.077369	0.265767	-0.138030	0.954105	-0.332141	0.915992	0.225035	-0.905014	-0.376704	0.197595
22175	-1.663717	-2.933332	7.958446	-0.463957	2.057112	-0.898410	0.287264	-0.138556	0.947777	-0.325433	0.916505	0.232621	-0.900873	-0.375261	0.218188
22176	-1.463051	-2.552878	7.078584	-0.258712	2.109020	-0.711488	0.308150	-0.138009	0.941274	-0.318057	0.917543	0.238653	-0.896596	-0.372920	0.238846
22177	0.425312	-1.065031	7.740542	-0.140470	2.211976	-0.528452	0.329551	-0.134618	0.934491	-0.315082	0.917358	0.243265	-0.890011	-0.374610	0.259900
22178	2.471063	0.528816	8.662018	-0.205120	2.452905	-0.389947	0.352191	-0.129953	0.926862	-0.309013	0.918633	0.246219	-0.883444	-0.373128	0.283377
22179	4.055451	1.254764	9.363376	-0.378827	2.805523	-0.303501	0.377750	-0.122303	0.917795	-0.304541	0.919675	0.247898	-0.874391	-0.373149	0.310161
22180	5.079798	1.529070	9.559265	-0.530909	3.186697	-0.271376	0.405960	-0.114190	0.906729	-0.295595	0.922424	0.248510	-0.864766	-0.368910	0.340714
22181	5.470403	1.828182	9.082566	-0.660744	3.528115	-0.307285	0.437112	-0.104080	0.893365	-0.288593	0.924530	0.248916	-0.851849	-0.366623	0.374086
22182	5.598944	1.720522	8.119028	-0.814521	3.765085	-0.384397	0.469785	-0.095343	0.877617	-0.276774	0.928118	0.248985	-0.838271	-0.359871	0.409628
22183	5.453875	1.192797	7.012753	-0.938980	3.840253	-0.438263	0.502833	-0.085726	0.860122	-0.266810	0.931086	0.248778	-0.822175	-0.354583	0.445308
22184	5.480598	0.290905	6.241816	-0.996111	3.761980	-0.438215	0.534465	-0.078046	0.841579	-0.253551	0.935060	0.247739	-0.806262	-0.345791	0.479969
22185	5.838381	-0.286714	6.058824	-0.963580	3.628511	-0.395926	0.564361	-0.069350	0.822610	-0.243655	0.938080	0.246247	-0.788751	-0.339405	0.512519
22186	6.588323	0.221837	6.536878	-0.956326	3.491136	-0.344964	0.592355	-0.062235	0.803270	-0.231715	0.941728	0.243836	-0.771637	-0.330567	0.543417
22187	7.913754	1.009177	7.113215	-1.071880	3.448431	-0.298055	0.619297	-0.053814	0.783311	-0.221701	0.945066	0.240208	-0.753206	-0.322421	0.573345
22188	9.086637	1.262066	7.361181	-1.288455	3.538562	-0.283906	0.646220	-0.046471	0.761735	-0.208293	0.949506	0.234633	-0.734175	-0.310289	0.603910
22189	8.850978	1.451976	7.051572	-1.512790	3.680842	-0.243159	0.673322	-0.037627	0.738392	-0.195707	0.954010	0.227075	-0.712977	-0.297403	0.634992
22190	8.224925	2.387927	6.436843	-1.774508	3.783181	-0.094233	0.700086	-0.028728	0.713480	-0.180779	0.959508	0.216019	-0.690795	-0.280214	0.666544
22191	8.007043	3.186889	5.660404	-2.095267	3.830903	0.151851	0.725811	-0.016925	0.687686	-0.167600	0.965221	0.200647	-0.667164	-0.260888	0.697731
22192	8.063259	3.409901	4.954483	-2.340506	3.813247	0.454960	0.750133	-0.003717	0.661277	-0.154486	0.971329	0.180705	-0.642989	-0.237711	0.728051
22193	9.466764	3.143114	5.165297	-2.369583	3.772070	0.751356	0.772767	0.012108	0.634575	-0.145235	0.976663	0.158228	-0.617850	-0.214436	0.756491
22194	12.212701	2.368106	6.122309	-2.126329	3.823703	0.972026	0.794579	0.029065	0.606465	-0.139413	0.980900	0.135647	-0.590938	-0.192331	0.783454
22195	14.295511	2.217106	6.732468	-1.619761	3.995576	1.174485	0.815937	0.047917	0.576151	-0.139510	0.983428	0.115782	-0.561056	-0.174850	0.809101
22196	15.432985	2.954758	6.942026	-1.054026	4.167060	1.368754	0.836727	0.068642	0.543302	-0.145237	0.984401	0.099306	-0.528010	-0.161999	0.833644
22197	16.409693	4.322998	6.684240	-0.568297	4.266924	1.581925	0.856109	0.090915	0.508735	-0.155699	0.984040	0.086158	-0.492783	-0.152970	0.856601
22198	16.899507	5.601418	6.030977	-0.218827	4.246917	1.749086	0.873420	0.114828	0.473236	-0.170099	0.982528	0.075536	-0.456293	-0.146472	0.877692
22199	17.590844	5.641524	4.820944	0.041379	4.093406	1.771083	0.888194	0.138091	0.438226	-0.185856	0.980235	0.067807	-0.420201	-0.141672	0.896304
22200	18.977371	4.367127	2.926327	0.330660	3.791439	1.600829	0.900320	0.159542	0.404932	-0.201946	0.977307	0.063947	-0.385540	-0.139347	0.912108
22201	15.917694	3.882241	-0.615631	0.719610	3.332548	1.319097	0.909870	0.177063	0.375213	-0.216523	0.974086	0.065385	-0.353912	-0.140734	0.924630
22202	20.296887	-2.893750	-14.615933	1.019393	-0.006465	1.925198	0.905407	0.196147	0.376517	-0.237977	0.968922	0.067501	-0.351576	-0.150718	0.923947
22203	24.163741	1.436011	-12.653412	1.144841	-0.449931	1.589519	0.899882	0.210784	0.381815	-0.256334	0.963902	0.072011	-0.352853	-0.162674	0.921429
22204	30.943974	1.929690	-13.768210	1.110838	-1.188982	2.038450	0.890127	0.228580	0.394239	-0.278763	0.957485	0.074251	-0.360506	-0.175992	0.916003
22205	21.145675	1.975309	-10.668799	1.116336	-1.666088	2.502669	0.876709	0.249370	0.411335	-0.304939	0.949467	0.074329	-0.372013	-0.190597	0.908449
22206	2.526840	10.288329	8.843643	0.046645	-2.078133	1.449801	0.864197	0.259247	0.431224	-0.317917	0.945632	0.068619	-0.389990	-0.196394	0.899632
22207	13.681277	22.850333	17.190740	0.321022	-2.235568	-0.729496	0.857563	0.247836	0.450737	-0.312893	0.946848	0.074684	-0.408270	-0.205079	0.889527
22208	32.000206	17.776171	28.892063	-0.899943	-1.679436	0.554962	0.848779	0.249688	0.466079	-0.313926	0.947273	0.064218	-0.425470	-0.200821	0.882409
22209	-8.814230	-16.406506	6.379182	-0.123955	0.775569	0.023733	0.851968	0.251437	0.459272	-0.313578	0.947471	0.062989	-0.419309	-0.197682	0.886060
22210	18.378585	4.153258	8.556411	0.581246	-1.576144	0.065669	0.844995	0.248938	0.473301	-0.316732	0.946084	0.067864	-0.430889	-0.207254	0.878283
22211	2.297204	5.830979	8.812755	-0.257729	0.390035	0.042364	0.846523	0.250120	0.469935	-0.315957	0.946519	0.065375	-0.428451	-0.203820	0.880277
22212	7.954813	-3.051033	8.384438	-0.031200	-0.071685	0.107339	0.845798	0.251075	0.470730	-0.316890	0.946255	0.064673	-0.429193	-0.203870	0.879904
22213	4.456941	1.594649	9.296083	0.016653	-0.148535	0.030582	0.845049	0.251040	0.472092	-0.317194	0.946154	0.064652	-0.430441	-0.204379	0.879176
22214	5.309986	0.344029	8.650488	-0.001410	-0.079805	0.035648	0.844512	0.251305	0.472912	-0.317651	0.946008	0.064543	-0.431158	-0.204729	0.878743
22215	5.113332	0.616819	8.972349	0.031942	-0.016296	0.006746	0.844407	0.251314	0.473094	-0.317820	0.945936	0.064769	-0.431240	-0.205050	0.878628
22216	5.510792	0.863596	8.991117	0.045527	-0.020892	0.005142	0.844209	0.251446	0.473378	-0.318261	0.945757	0.065216	-0.431302	-0.205714	0.878442
22217	5.432848	1.395379	8.927371	0.028223	0.014381	0.004214	0.844244	0.251494	0.473290	-0.318392	0.945699	0.065421	-0.431137	-0.205923	0.878474
22218	4.962179	0.911287	9.020586	-0.002341	0.004091	0.022511	0.844098	0.251840	0.473366	-0.318773	0.945575	0.065366	-0.431141	-0.206072	0.878437
22219	5.058881	1.055239	8.931013	-0.006425	0.011410	0.028284	0.844044	0.252109	0.473319	-0.318957	0.945527	0.065153	-0.431111	-0.205961	0.878478
22220	4.821935	0.960041	9.043388	-0.022432	0.008757	0.028445	0.843905	0.252499	0.473358	-0.319278	0.945437	0.064894	-0.431145	-0.205897	0.878476
22221	4.918997	0.556565	8.972102	-0.023263	0.002532	0.028845	0.843811	0.252755	0.473390	-0.319394	0.945422	0.064530	-0.431243	-0.205650	0.878486
22222	4.830807	0.601366	8.974444	-0.022196	-0.003134	0.024759	0.843644	0.253051	0.473529	-0.319643	0.945355	0.064288	-0.431385	-0.205597	0.878429
22223	4.893769	0.454055	8.960074	-0.012856	-0.006346	0.018463	0.843544	0.253190	0.473632	-0.319717	0.945345	0.064065	-0.431525	-0.205470	0.878390
22224	4.844093	0.294334	9.052829	0.003047	-0.008389	0.009627	0.843397	0.253352	0.473808	-0.319969	0.945256	0.064115	-0.431626	-0.205678	0.878291
22225	4.947002	0.373867	8.992263	0.016419	-0.007755	-0.003572	0.843362	0.253280	0.473909	-0.319983	0.945242	0.064253	-0.431685	-0.205832	0.878226
22226	4.900007	0.573030	9.000710	0.025056	-0.004534	-0.010319	0.843303	0.253236	0.474037	-0.320131	0.945169	0.064587	-0.431689	-0.206220	0.878133
22227	4.921871	0.555651	8.970582	0.032278	-0.000849	-0.018630	0.843346	0.253036	0.474067	-0.320087	0.945160	0.064936	-0.431639	-0.206506	0.878091
22228	4.944791	0.736866	8.983849	0.030507	-0.003369	-0.020749	0.843310	0.252948	0.474179	-0.320230	0.945082	0.065368	-0.431603	-0.206972	0.877998
22229	5.064795	1.063346	8.907012	0.029198	0.001788	-0.013639	0.843348	0.252801	0.474190	-0.320214	0.945067	0.065667	-0.431540	-0.207222	0.877970
22230	4.935368	0.965488	8.902647	0.022629	0.002838	-0.006005	0.843289	0.252872	0.474256	-0.320456	0.944964	0.065960	-0.431476	-0.207602	0.877912
22231	4.955899	0.878360	8.979604	0.017661	0.002697	-0.001623	0.843293	0.252840	0.474267	-0.320492	0.944942	0.066101	-0.431442	-0.207741	0.877896
22232	4.980498	0.778280	8.948221	0.015884	0.002396	0.001351	0.843219	0.252945	0.474342	-0.320726	0.944849	0.066299	-0.431411	-0.208039	0.877841
22233	4.900818	0.768841	8.957357	0.011983	-0.003413	0.001651	0.843186	0.252931	0.474408	-0.320765	0.944830	0.066374	-0.431447	-0.208139	0.877799
22234	4.889085	0.800213	8.887083	0.014634	-0.005832	0.004503	0.843064	0.253058	0.474557	-0.321033	0.944727	0.066547	-0.431487	-0.208451	0.877706
22235	4.905917	0.778798	8.933678	0.012091	-0.013341	0.004579	0.842979	0.253051	0.474712	-0.321097	0.944701	0.066609	-0.431606	-0.208578	0.877617
22236	4.869325	0.734166	8.936527	0.016989	-0.024622	0.002848	0.842785	0.253112	0.475024	-0.321346	0.944602	0.066808	-0.431799	-0.208952	0.877433
22237	4.862432	0.705504	8.949250	0.019462	-0.028533	0.005424	0.842631	0.253081	0.475314	-0.321449	0.944559	0.066930	-0.432023	-0.209187	0.877267
22238	4.786852	0.621823	9.009552	0.022696	-0.037637	0.010248	0.842360	0.253173	0.475744	-0.321773	0.944433	0.067144	-0.432310	-0.209641	0.877017
22239	4.743571	0.527670	8.939704	0.036264	-0.054647	0.008000	0.842085	0.253111	0.476264	-0.321970	0.944348	0.067401	-0.432699	-0.210100	0.876715
22240	4.892872	0.684295	8.934827	0.052733	-0.063386	0.001132	0.841723	0.253093	0.476914	-0.322380	0.944170	0.067921	-0.433098	-0.210918	0.876322
22241	4.956834	0.700396	8.865937	0.067956	-0.067946	-0.001934	0.841421	0.252908	0.477543	-0.322631	0.944043	0.068503	-0.433496	-0.211710	0.875934
22242	4.999519	0.758932	8.912026	0.069363	-0.072859	-0.010542	0.841061	0.252739	0.478267	-0.322995	0.943866	0.069223	-0.433925	-0.212698	0.875482
22243	4.928540	0.857835	8.927428	0.064931	-0.068510	-0.005323	0.840768	0.252519	0.478898	-0.323205	0.943752	0.069794	-0.434337	-0.213463	0.875092
22244	4.278742	0.357635	9.061509	0.061249	-0.083984	-0.003561	0.840352	0.252341	0.479722	-0.323534	0.943593	0.070405	-0.434896	-0.214372	0.874592
22245	4.343415	0.300125	9.120679	0.099757	-0.152925	-0.013543	0.839717	0.251861	0.481084	-0.323828	0.943424	0.071321	-0.435903	-0.215677	0.873769
22246	5.038962	0.782612	8.833885	0.114737	-0.173608	-0.022580	0.838947	0.251382	0.482675	-0.324316	0.943167	0.072489	-0.437020	-0.217354	0.872795
22247	4.902701	0.918599	8.948206	0.102801	-0.156547	-0.021783	0.838320	0.250812	0.484059	-0.324556	0.943009	0.073469	-0.438045	-0.218695	0.871945
22248	4.938585	0.819079	8.931093	0.102528	-0.179601	-0.014842	0.837506	0.250352	0.485703	-0.325019	0.942769	0.074491	-0.439257	-0.220249	0.870944
22249	5.240486	1.119342	8.880823	0.086373	-0.189416	-0.000169	0.836660	0.249908	0.487387	-0.325369	0.942590	0.075222	-0.440607	-0.221516	0.869940
22250	4.943393	0.840064	8.987074	0.068169	-0.180939	0.009761	0.835767	0.249635	0.489056	-0.325847	0.942377	0.075823	-0.441947	-0.222728	0.868951
22251	5.128316	0.991856	8.972861	0.067213	-0.207708	0.020754	0.834767	0.249343	0.490910	-0.326290	0.942187	0.076284	-0.443508	-0.223858	0.867864
22252	5.153690	0.827607	8.906408	0.056539	-0.192598	0.022850	0.833756	0.249218	0.492687	-0.326891	0.941943	0.076719	-0.444964	-0.225020	0.866818
22253	5.085376	0.805794	8.952610	0.056896	-0.204004	0.016251	0.832781	0.248886	0.494502	-0.327252	0.941786	0.077110	-0.446523	-0.226043	0.865749
22254	4.986125	0.665354	8.980419	0.051787	-0.210858	0.005487	0.831736	0.248561	0.496419	-0.327699	0.941591	0.077588	-0.448138	-0.227209	0.864609
22255	4.999631	0.559183	8.983434	0.051000	-0.221078	-0.007199	0.830754	0.247966	0.498359	-0.327840	0.941504	0.078044	-0.449855	-0.228217	0.863451
22256	5.022463	0.763288	9.012060	0.055202	-0.240085	-0.018017	0.829657	0.247317	0.500503	-0.328074	0.941371	0.078664	-0.451704	-0.229466	0.862154
22257	4.920341	0.704664	9.116742	0.049101	-0.253406	-0.026758	0.828584	0.246458	0.502700	-0.328046	0.941336	0.079200	-0.453690	-0.230533	0.860825
22258	5.058590	0.758935	9.108703	0.042143	-0.272945	-0.035009	0.827382	0.245576	0.505105	-0.328091	0.941270	0.079792	-0.455845	-0.231739	0.859361
22259	4.795470	0.847396	9.291808	0.022724	-0.294338	-0.050318	0.826188	0.244394	0.507627	-0.327751	0.941352	0.080221	-0.458250	-0.232653	0.857834
22260	4.828318	0.864439	9.307214	-0.039675	-0.362076	-0.081376	0.824716	0.242858	0.510748	-0.327035	0.941590	0.080348	-0.461403	-0.233297	0.855968
22261	3.287015	1.654860	10.084661	-0.087490	-0.484009	-0.070868	0.822689	0.241036	0.514863	-0.326017	0.941978	0.079943	-0.465720	-0.233622	0.853537
22262	5.419987	2.220825	9.330997	-0.126637	-0.713103	0.040764	0.819143	0.239817	0.521049	-0.325887	0.942127	0.078705	-0.472020	-0.234274	0.849890
22263	4.664545	1.593451	9.441247	-0.191928	-0.790235	0.086904	0.815087	0.238760	0.527851	-0.325655	0.942380	0.076602	-0.479147	-0.234335	0.845875
22264	4.887865	1.713098	9.415539	-0.231447	-0.914926	0.154198	0.810089	0.238145	0.535764	-0.325936	0.942500	0.073887	-0.487362	-0.234480	0.841129
22265	4.998836	1.190348	9.309513	-0.226601	-1.046391	0.217027	0.804218	0.237710	0.544728	-0.326544	0.942527	0.070795	-0.496592	-0.234812	0.835619
22266	4.907630	0.995072	9.263149	-0.252196	-1.176182	0.239105	0.797462	0.237266	0.554761	-0.327333	0.942499	0.067440	-0.506861	-0.235372	0.829272
22267	5.172709	0.781972	9.050876	-0.281674	-1.286726	0.252246	0.790025	0.236587	0.565585	-0.327862	0.942577	0.063683	-0.518041	-0.235745	0.822228
22268	4.992015	0.352779	9.192742	-0.309452	-1.426880	0.245094	0.781669	0.235594	0.577486	-0.328307	0.942676	0.059808	-0.530291	-0.236342	0.814207
22269	4.560255	-0.064716	9.453270	-0.307640	-1.616265	0.208051	0.772288	0.233703	0.590724	-0.328240	0.942928	0.056084	-0.543903	-0.237213	0.804922
22270	4.416456	-0.643103	9.717833	-0.320455	-1.871509	0.119556	0.761489	0.230470	0.605820	-0.327567	0.943348	0.052863	-0.559316	-0.238702	0.793844
22271	4.115976	-1.045550	9.827228	-0.261632	-2.182002	-0.011840	0.749115	0.225097	0.623023	-0.325960	0.944014	0.050860	-0.576694	-0.241181	0.780548
22272	3.906033	-0.802564	9.876987	-0.088236	-2.595156	-0.133956	0.734243	0.217621	0.643062	-0.324658	0.944451	0.051078	-0.596225	-0.246279	0.764109
22273	3.395074	-0.675768	9.738581	0.158651	-3.098604	-0.279141	0.716311	0.207201	0.666308	-0.323565	0.944659	0.054087	-0.618227	-0.254337	0.743712
22274	3.122361	-0.028227	9.471402	0.389919	-3.644988	-0.403580	0.694546	0.194046	0.692786	-0.323416	0.944370	0.059725	-0.642657	-0.265540	0.718666
22275	4.692891	-0.058564	10.176506	0.518090	-4.185624	-0.498690	0.668670	0.177929	0.721957	-0.323383	0.943901	0.066887	-0.669554	-0.278194	0.688698
22276	6.254789	-0.891561	11.023350	0.638153	-4.475014	-0.675705	0.640203	0.158914	0.751590	-0.323563	0.943134	0.076197	-0.696741	-0.291968	0.655215
22277	9.377379	-0.271946	11.955400	0.740993	-4.639071	-0.804106	0.609835	0.137437	0.780521	-0.323765	0.942123	0.087071	-0.723379	-0.305804	0.619036
22278	10.178832	0.308101	11.578541	0.539887	-4.699214	-0.883950	0.578013	0.114598	0.807941	-0.322755	0.941461	0.097367	-0.749487	-0.317046	0.581164
22279	10.642623	-1.211940	11.444467	0.372473	-4.686406	-0.962391	0.545360	0.090452	0.833307	-0.320152	0.941264	0.107354	-0.774651	-0.325332	0.542286
22280	10.514638	-2.938719	10.738065	0.445523	-4.663531	-1.091721	0.512116	0.064964	0.856456	-0.318222	0.940525	0.118940	-0.797792	-0.333454	0.502331
22281	11.457748	-2.976682	10.746600	0.816996	-4.613591	-1.276736	0.478870	0.037319	0.877092	-0.318462	0.938425	0.133944	-0.818087	-0.343462	0.461268
22282	12.019826	-3.028062	11.087767	1.271434	-4.360626	-1.390486	0.447264	0.009221	0.894355	-0.322974	0.934140	0.151887	-0.834052	-0.356787	0.420785
22283	7.432397	-2.852852	9.744402	1.736070	-4.141277	-1.495511	0.417325	-0.019843	0.908541	-0.331061	0.927740	0.172330	-0.846309	-0.372700	0.380600
22284	4.510321	-2.916859	7.995618	2.317667	-4.081688	-1.604347	0.388005	-0.050246	0.920287	-0.344331	0.918308	0.195313	-0.854920	-0.392666	0.339007
22285	-3.521556	0.294654	8.249517	2.718304	-4.043658	-1.776014	0.359549	-0.082812	0.929444	-0.360977	0.906162	0.220379	-0.860477	-0.414745	0.295917
22286	11.728721	10.950719	19.617362	1.896501	-3.763461	-1.857519	0.333849	-0.115364	0.935540	-0.370946	0.896325	0.242901	-0.866570	-0.428128	0.256444
22287	17.445952	10.796551	26.553079	0.083564	-1.323001	-1.506724	0.327884	-0.134543	0.935088	-0.366652	0.894097	0.257210	-0.870665	-0.427187	0.243829
22288	5.624116	3.767743	21.036584	-1.150151	0.352728	-1.355962	0.335878	-0.145136	0.930657	-0.352148	0.897056	0.266987	-0.873600	-0.417404	0.250192
22289	-0.435953	-2.252236	14.101235	-1.477327	1.375459	-1.201520	0.351995	-0.150308	0.923854	-0.335072	0.901375	0.274316	-0.873972	-0.406115	0.266916
22290	-2.642118	-4.183188	9.931972	-1.171040	1.767444	-0.964315	0.370662	-0.151800	0.916279	-0.321421	0.904626	0.279894	-0.871377	-0.398258	0.286518
22291	-3.004755	-3.346829	8.081245	-0.824633	1.828333	-0.747524	0.388889	-0.151363	0.908765	-0.311379	0.906768	0.284279	-0.867069	-0.393524	0.305501
22292	-1.066807	-1.357781	8.402786	-0.682212	1.906915	-0.567869	0.407210	-0.148891	0.901117	-0.303305	0.908586	0.287187	-0.861502	-0.390259	0.324826
22293	1.607015	0.321641	9.606789	-0.784949	2.145164	-0.424606	0.426860	-0.144457	0.892706	-0.294762	0.911022	0.288365	-0.854931	-0.386227	0.346298
22294	3.470685	1.007429	10.253734	-0.967010	2.533696	-0.324898	0.449464	-0.137519	0.882650	-0.285209	0.914273	0.287681	-0.846544	-0.381042	0.371711
22295	4.552845	1.354668	9.941167	-1.131113	2.982387	-0.302610	0.475372	-0.129053	0.870268	-0.274258	0.918154	0.285964	-0.835945	-0.374617	0.401071
22296	5.028396	1.668179	8.941020	-1.296102	3.381807	-0.339510	0.504446	-0.119428	0.855144	-0.261956	0.922541	0.283368	-0.822747	-0.366954	0.434087
22297	5.198905	1.662887	7.809091	-1.457580	3.636190	-0.367181	0.534998	-0.109680	0.837704	-0.248129	0.927412	0.279893	-0.807595	-0.357600	0.468948
22298	5.718704	1.292964	7.185212	-1.574443	3.751206	-0.345541	0.565925	-0.099450	0.818436	-0.233765	0.932603	0.274964	-0.790622	-0.346931	0.504536
22299	6.294071	0.655252	6.972213	-1.588096	3.797343	-0.305862	0.596267	-0.089378	0.797796	-0.219541	0.937745	0.269140	-0.772184	-0.335628	0.539524
22300	6.986403	0.402863	7.016353	-1.505881	3.807514	-0.253572	0.625937	-0.078942	0.775868	-0.206647	0.942514	0.262611	-0.751997	-0.324709	0.573641
22301	7.929236	0.334778	7.185525	-1.421745	3.811076	-0.170138	0.654504	-0.068404	0.752957	-0.194983	0.946939	0.255514	-0.730483	-0.314049	0.606439
22302	8.426200	-0.067461	7.164050	-1.362402	3.810761	-0.032270	0.682068	-0.056673	0.729089	-0.185120	0.951139	0.247114	-0.707470	-0.303518	0.638250
22303	8.573196	-0.573573	7.354136	-1.299065	3.789915	0.161979	0.708111	-0.043850	0.704738	-0.177176	0.955105	0.237453	-0.683511	-0.293005	0.668551
22304	8.933143	-0.341488	7.961000	-1.241605	3.749998	0.410735	0.732648	-0.028836	0.679997	-0.171972	0.958839	0.225949	-0.658523	-0.282482	0.697532
22305	9.799458	1.286975	8.642671	-1.304780	3.746782	0.698102	0.755631	-0.011790	0.654892	-0.168709	0.962599	0.211991	-0.632898	-0.270673	0.725381
22306	10.748976	3.404425	9.100277	-1.565610	3.815885	0.965873	0.777726	0.007878	0.628554	-0.166601	0.966746	0.194024	-0.606124	-0.255616	0.753176
22307	11.278350	5.019652	9.036820	-1.917551	3.900235	1.156172	0.798898	0.028653	0.600784	-0.164325	0.971261	0.172191	-0.578584	-0.236287	0.780646
22308	11.510919	6.226195	8.488053	-2.195673	3.972359	1.225409	0.819367	0.049805	0.571101	-0.162035	0.975716	0.147384	-0.549892	-0.213300	0.807540
22309	11.276579	6.251786	7.879104	-2.296456	3.996239	1.138538	0.838910	0.068945	0.539885	-0.159155	0.979662	0.122200	-0.520480	-0.188440	0.832821
22310	10.777590	5.897183	7.577682	-2.131337	3.920353	0.938120	0.857284	0.085318	0.507725	-0.156502	0.982692	0.099118	-0.490480	-0.164433	0.855798
22311	11.537972	5.936605	8.029865	-1.801435	3.784759	0.725796	0.874139	0.098262	0.475632	-0.154190	0.984803	0.079926	-0.460550	-0.143205	0.876006
22312	13.872081	7.609054	8.145316	-1.523347	3.663244	0.598505	0.889565	0.109266	0.443549	-0.152821	0.986209	0.063545	-0.430489	-0.124311	0.893995
22313	15.672820	7.820348	5.707553	-1.508331	3.497449	0.534237	0.903288	0.118538	0.412335	-0.151309	0.987338	0.047629	-0.401469	-0.105413	0.909786
22314	16.966558	4.984817	1.614320	-1.385876	3.156634	0.472026	0.914841	0.126391	0.383525	-0.150319	0.988089	0.032937	-0.374794	-0.087784	0.922943
22315	17.874981	1.044128	-2.577508	-0.932325	2.549937	0.361942	0.923561	0.132030	0.360004	-0.150229	0.988386	0.022915	-0.352797	-0.075247	0.932669
22316	14.533158	-12.554283	-12.440060	1.075432	0.671711	0.384274	0.925314	0.136466	0.353796	-0.157604	0.987000	0.031491	-0.344900	-0.084899	0.934792
22317	19.680613	3.294021	-12.818430	2.074828	-0.375895	0.332868	0.923463	0.139371	0.357479	-0.167815	0.984567	0.049655	-0.345042	-0.105844	0.932600
22318	29.240390	6.873336	-9.772191	1.768453	-1.356462	1.441661	0.916142	0.152079	0.370884	-0.187338	0.980416	0.060740	-0.354383	-0.125127	0.926691
22319	27.629441	-1.582158	-8.599364	1.605467	-1.448486	2.582881	0.905707	0.175360	0.385932	-0.216614	0.974040	0.065766	-0.364380	-0.143163	0.920180
22320	12.429232	7.230820	-0.972043	2.074707	-1.490606	2.978372	0.893210	0.201991	0.401716	-0.251091	0.965209	0.072972	-0.373000	-0.166047	0.912852
22321	5.447994	15.274246	10.187480	0.527370	-1.507235	2.732426	0.880265	0.225689	0.417369	-0.277297	0.958476	0.066553	-0.385018	-0.174320	0.906297
22322	1.782745	10.742857	9.981572	0.699238	-1.969059	2.089313	0.866495	0.242077	0.436561	-0.298260	0.952343	0.063910	-0.400284	-0.185586	0.897402
22323	7.929596	26.230193	18.323561	0.567864	-2.438991	-0.041202	0.856606	0.237000	0.458320	-0.300208	0.951365	0.069135	-0.419645	-0.196812	0.886094
22324	43.940482	9.022956	19.153375	-0.695534	-1.186991	0.617200	0.849693	0.240413	0.469279	-0.302392	0.951282	0.060176	-0.431950	-0.193037	0.880997
22325	-18.166530	-3.819353	8.199251	0.145208	0.279266	-0.278773	0.851723	0.238280	0.466681	-0.300619	0.951679	0.062737	-0.429181	-0.193728	0.882198
22326	25.203728	1.324153	5.574199	0.531724	-0.269110	-0.001286	0.850571	0.237574	0.469135	-0.302758	0.950675	0.067488	-0.429961	-0.199438	0.880544
22327	0.338719	4.717813	12.311837	-0.058587	-0.175677	0.031456	0.849705	0.237502	0.470737	-0.302747	0.950727	0.066802	-0.431677	-0.199276	0.879741
22328	4.903156	-0.728399	9.104870	-0.049505	-0.015953	0.092767	0.849355	0.238161	0.471036	-0.303167	0.950649	0.066001	-0.432071	-0.198861	0.879641
22329	5.144682	2.957106	9.070398	-0.077314	-0.041708	0.114575	0.848814	0.239146	0.471513	-0.303779	0.950539	0.064758	-0.432705	-0.198203	0.879478
22330	5.565516	-0.269381	8.725933	-0.108947	-0.084737	0.139230	0.848023	0.240109	0.472445	-0.304333	0.950466	0.063215	-0.433864	-0.197388	0.879090
22331	5.438512	0.214894	8.830971	-0.063007	-0.026077	0.088594	0.847627	0.240878	0.472765	-0.304784	0.950387	0.062220	-0.434322	-0.196830	0.878989
22332	5.221082	0.743539	8.887802	-0.074423	0.016579	0.077094	0.847462	0.241457	0.472765	-0.304963	0.950391	0.061270	-0.434518	-0.196099	0.879056
22333	4.885725	0.618734	8.898013	-0.076234	0.031349	0.057831	0.847408	0.242046	0.472560	-0.305095	0.950411	0.060303	-0.434530	-0.195277	0.879233
22334	4.721748	-0.016641	8.878663	-0.040853	0.017830	0.040123	0.847362	0.242276	0.472526	-0.305107	0.950437	0.059822	-0.434612	-0.194862	0.879284
22335	4.739645	0.459883	8.952688	0.026144	-0.006756	-0.006019	0.847337	0.242184	0.472617	-0.305143	0.950411	0.060058	-0.434635	-0.195105	0.879219
22336	4.992365	0.346938	8.897277	0.057359	-0.025700	-0.017152	0.847275	0.241789	0.472930	-0.305100	0.950383	0.060709	-0.434786	-0.195728	0.879006
22337	4.909405	0.633669	8.984855	0.065077	-0.019607	-0.029660	0.847267	0.241447	0.473119	-0.305105	0.950338	0.061398	-0.434799	-0.196372	0.878856
22338	4.699253	0.504606	8.977265	0.076557	-0.028639	-0.030678	0.847233	0.240920	0.473450	-0.305033	0.950303	0.062280	-0.434916	-0.197183	0.878616
22339	4.307876	0.307772	9.176904	0.082134	-0.069708	-0.023892	0.846989	0.240533	0.474082	-0.305160	0.950209	0.063092	-0.435301	-0.198109	0.878217
22340	4.773512	0.889633	9.088295	0.077292	-0.103000	-0.009978	0.846566	0.240059	0.475076	-0.305271	0.950121	0.063879	-0.436045	-0.199105	0.877623
22341	5.307933	1.039146	8.957299	0.048711	-0.087695	0.002200	0.846164	0.239882	0.475882	-0.305475	0.950028	0.064274	-0.436683	-0.199756	0.877157
22342	5.008810	0.859738	9.047772	0.017747	-0.068220	0.010321	0.845830	0.239668	0.476583	-0.305497	0.950010	0.064442	-0.437314	-0.200102	0.876765
22343	5.126017	0.671595	8.914489	0.017957	-0.065498	0.012402	0.845492	0.239632	0.477200	-0.305654	0.949954	0.064518	-0.437858	-0.200407	0.876423
22344	5.025276	0.760969	8.953050	0.010214	-0.050889	0.014666	0.845220	0.239494	0.477751	-0.305681	0.949940	0.064599	-0.438364	-0.200640	0.876117
22345	4.930110	0.380060	8.954038	0.021346	-0.038806	0.009683	0.845006	0.239485	0.478133	-0.305829	0.949884	0.064718	-0.438672	-0.200913	0.875900
22346	4.966170	0.598860	8.930273	0.041253	-0.046007	0.001631	0.844795	0.239235	0.478632	-0.305883	0.949839	0.065131	-0.439042	-0.201428	0.875597
22347	5.012085	0.760599	8.912617	0.048091	-0.045209	-0.007233	0.844605	0.239053	0.479058	-0.306006	0.949769	0.065565	-0.439321	-0.201971	0.875331
22348	4.906145	0.723936	8.877476	0.063748	-0.045413	-0.007977	0.844424	0.238713	0.479546	-0.306080	0.949700	0.066220	-0.439617	-0.202697	0.875015
22349	4.921034	0.775276	8.892014	0.079900	-0.058194	-0.017256	0.844208	0.238408	0.480078	-0.306258	0.949589	0.066980	-0.439909	-0.203573	0.874665
22350	5.027987	0.878382	8.860006	0.085284	-0.052546	-0.017491	0.844024	0.237964	0.480621	-0.306348	0.949497	0.067868	-0.440198	-0.204519	0.874298
22351	5.013779	0.934815	8.949722	0.082305	-0.049689	-0.013997	0.843835	0.237706	0.481081	-0.306564	0.949372	0.068633	-0.440410	-0.205397	0.873986
22352	5.000877	0.861853	8.888766	0.077232	-0.050144	-0.008090	0.843633	0.237355	0.481608	-0.306698	0.949273	0.069406	-0.440703	-0.206261	0.873634
22353	4.969602	0.836671	8.920859	0.075242	-0.053192	-0.007180	0.843407	0.237154	0.482102	-0.306942	0.949145	0.070076	-0.440966	-0.207080	0.873308
22354	4.979944	0.865175	8.926102	0.062688	-0.062600	0.001401	0.843121	0.236866	0.482744	-0.307093	0.949052	0.070675	-0.441408	-0.207834	0.872905
22355	4.938513	0.882744	8.919485	0.063494	-0.065582	0.008729	0.842791	0.236789	0.483357	-0.307419	0.948909	0.071165	-0.441811	-0.208570	0.872526
22356	4.931085	0.835415	8.920836	0.062039	-0.077784	0.008023	0.842416	0.236533	0.484135	-0.307624	0.948801	0.071725	-0.442383	-0.209354	0.872048
22357	4.936020	0.723509	8.874378	0.066954	-0.088038	0.009571	0.841984	0.236415	0.484945	-0.307973	0.948648	0.072241	-0.442963	-0.210176	0.871556
22358	4.765564	0.548096	8.961589	0.075825	-0.094407	0.004208	0.841546	0.236088	0.485864	-0.308209	0.948518	0.072939	-0.443631	-0.211129	0.870986
22359	4.609580	0.515264	9.021780	0.086681	-0.121804	0.001441	0.840987	0.235820	0.486960	-0.308578	0.948342	0.073665	-0.444433	-0.212216	0.870312
22360	5.020185	0.577062	8.909928	0.095172	-0.143816	-0.003600	0.840351	0.235314	0.488300	-0.308838	0.948187	0.074566	-0.445454	-0.213467	0.869484
22361	4.993060	0.717317	8.863955	0.097602	-0.140720	-0.013849	0.839753	0.234858	0.489548	-0.309129	0.948022	0.075461	-0.446379	-0.214702	0.868705
22362	4.937544	0.780454	8.969049	0.106376	-0.148330	-0.020994	0.839147	0.234176	0.490911	-0.309297	0.947880	0.076541	-0.447401	-0.216066	0.867841
22363	5.009075	0.905302	8.904361	0.096826	-0.161554	-0.019087	0.838469	0.233621	0.492332	-0.309542	0.947726	0.077454	-0.448501	-0.217340	0.866954
22364	5.154284	1.024658	8.873837	0.079650	-0.169352	-0.007205	0.837723	0.233021	0.493885	-0.309710	0.947607	0.078233	-0.449779	-0.218498	0.866001
22365	5.045359	0.854388	8.916110	0.071562	-0.170371	-0.004621	0.836956	0.232580	0.495390	-0.309965	0.947472	0.078854	-0.451029	-0.219551	0.865084
22366	4.998353	0.614551	8.891212	0.071909	-0.182004	-0.009742	0.836155	0.231925	0.497046	-0.310079	0.947375	0.079577	-0.452433	-0.220662	0.864068
22367	5.082932	0.589327	8.853773	0.077454	-0.179070	-0.021447	0.835397	0.231302	0.498610	-0.310222	0.947264	0.080332	-0.453734	-0.221789	0.863096
22368	5.051813	0.719898	8.905370	0.086228	-0.188673	-0.035191	0.834639	0.230390	0.500298	-0.310192	0.947191	0.081303	-0.455146	-0.223047	0.862028
22369	5.163574	0.808466	8.908699	0.080673	-0.188371	-0.050968	0.833925	0.229461	0.501913	-0.310106	0.947139	0.082233	-0.456512	-0.224223	0.861000
22370	5.280825	0.918856	8.919749	0.058314	-0.195117	-0.059310	0.833206	0.228304	0.503632	-0.309753	0.947180	0.083083	-0.458062	-0.225227	0.859914
22371	4.952918	0.793333	9.131196	0.032051	-0.210947	-0.075598	0.832458	0.227087	0.505416	-0.309241	0.947291	0.083720	-0.459764	-0.225989	0.858805
22372	4.929413	0.750115	9.279590	-0.007122	-0.244620	-0.097002	0.831620	0.225459	0.507521	-0.308277	0.947563	0.084200	-0.461924	-0.226479	0.857516
22373	4.576322	0.894812	9.555563	-0.108602	-0.293299	-0.168624	0.830765	0.223172	0.509926	-0.306343	0.948198	0.084107	-0.464741	-0.226085	0.856097
22374	3.635308	0.961073	9.762960	-0.125327	-0.374719	-0.155114	0.829479	0.220702	0.513085	-0.304349	0.948861	0.083877	-0.468334	-0.225731	0.854230
22375	5.019429	2.357674	9.624660	-0.133818	-0.643765	-0.045701	0.826569	0.218789	0.518570	-0.303311	0.949274	0.082952	-0.474116	-0.225853	0.851002
22376	4.724414	1.598456	9.456793	-0.233571	-0.694163	-0.008994	0.823272	0.216985	0.524539	-0.301998	0.949856	0.081066	-0.480646	-0.225149	0.847518
22377	4.796243	1.981136	9.618865	-0.295148	-0.831197	0.068795	0.819022	0.215746	0.531655	-0.301103	0.950381	0.078188	-0.488406	-0.224120	0.843344
22378	4.890936	1.565492	9.524859	-0.292843	-0.991907	0.156816	0.813650	0.214860	0.540193	-0.300813	0.950734	0.074939	-0.497479	-0.223472	0.838198
22379	4.571395	1.338345	9.557656	-0.303755	-1.161004	0.221353	0.807132	0.214348	0.550085	-0.301050	0.950948	0.071177	-0.507845	-0.223052	0.832070
22380	4.700538	0.834255	9.443165	-0.349396	-1.347886	0.234115	0.799491	0.213413	0.561488	-0.301008	0.951263	0.067037	-0.519816	-0.222608	0.824765
22381	4.723099	0.731601	9.401947	-0.347537	-1.535951	0.236570	0.790676	0.212220	0.574277	-0.301028	0.951544	0.062825	-0.533117	-0.222548	0.816247
22382	4.707548	0.708183	9.326574	-0.357189	-1.756101	0.233608	0.780468	0.210379	0.588736	-0.300806	0.951882	0.058624	-0.548074	-0.222850	0.806196
22383	4.597017	0.401740	9.370646	-0.348929	-2.006327	0.217814	0.768632	0.207947	0.604949	-0.300520	0.952216	0.054515	-0.564706	-0.223702	0.794396
22384	4.227328	0.128656	9.495665	-0.260014	-2.335120	0.174456	0.754690	0.204208	0.623492	-0.300234	0.952477	0.051452	-0.583355	-0.226023	0.780135
22385	3.813123	0.225456	9.395280	-0.089229	-2.741383	0.135264	0.737986	0.199211	0.644741	-0.300681	0.952419	0.049891	-0.604125	-0.230680	0.762771
22386	3.613549	-0.197814	9.068566	0.111514	-3.225467	0.049621	0.717961	0.191983	0.669085	-0.301612	0.952095	0.050457	-0.627345	-0.238030	0.741471
22387	3.525666	-0.239839	8.952461	0.277988	-3.693776	-0.060433	0.694480	0.182411	0.696006	-0.302931	0.951544	0.052883	-0.652634	-0.247568	0.716086
22388	4.843342	-0.855441	9.518049	0.394179	-4.090507	-0.154404	0.667687	0.170461	0.724664	-0.304395	0.950851	0.056795	-0.679366	-0.258506	0.686758
22389	6.374992	-1.168650	9.899925	0.571388	-4.317750	-0.290480	0.638640	0.156241	0.753477	-0.306422	0.949824	0.062765	-0.705864	-0.270966	0.654471
22390	8.791987	-1.343604	11.231504	0.765368	-4.517803	-0.456421	0.607547	0.139238	0.781984	-0.308983	0.948400	0.071188	-0.731721	-0.284870	0.619220
22391	8.878753	-0.934385	11.948617	0.847571	-4.638321	-0.557816	0.574732	0.120382	0.809439	-0.311958	0.946661	0.080712	-0.756548	-0.298899	0.581630
22392	9.707499	-0.278121	12.478879	0.755658	-4.791982	-0.633195	0.539849	0.099679	0.835839	-0.314158	0.945076	0.090201	-0.780940	-0.311281	0.541513
22393	10.033185	-1.114576	12.301326	0.716913	-4.969282	-0.730120	0.502718	0.077005	0.861014	-0.316001	0.943461	0.100124	-0.804623	-0.322415	0.498629
22394	10.604499	-1.831266	11.531561	0.791433	-5.155622	-0.865042	0.463373	0.051881	0.884643	-0.318215	0.941442	0.111468	-0.827058	-0.333158	0.452748
22395	12.123892	-3.008463	11.971969	1.058294	-5.110753	-1.004406	0.423790	0.025074	0.905413	-0.322580	0.938251	0.125005	-0.846371	-0.345044	0.405710
22396	12.091078	-2.411281	12.820218	1.555592	-4.881406	-1.108682	0.385719	-0.002547	0.922613	-0.331338	0.932902	0.141099	-0.861067	-0.360121	0.358994
22397	7.989745	-3.428649	11.472107	2.061625	-4.733315	-1.205142	0.348750	-0.031261	0.936694	-0.344740	0.925095	0.159227	-0.871509	-0.378446	0.311850
22398	4.239970	-3.325343	8.611542	2.767265	-4.642422	-1.254825	0.312604	-0.060906	0.947929	-0.364783	0.913723	0.179005	-0.877047	-0.401746	0.263416
22399	-6.378234	1.964582	9.106766	3.151141	-4.569419	-1.395289	0.277704	-0.092528	0.956200	-0.388300	0.899608	0.199824	-0.878694	-0.426784	0.213896
22400	20.678638	12.696917	24.772893	1.766774	-3.999759	-1.209651	0.247276	-0.120635	0.961406	-0.400690	0.890674	0.214818	-0.882214	-0.438345	0.171905
22401	18.617824	9.825423	30.222554	0.067172	-0.869721	-1.121969	0.244048	-0.134463	0.960396	-0.398493	0.888961	0.225723	-0.884106	-0.437799	0.163367
22402	3.509406	1.886132	21.816197	-0.927914	0.983730	-1.157215	0.257374	-0.140444	0.956051	-0.387394	0.891398	0.235235	-0.885260	-0.430912	0.175015
22403	-3.456018	-2.075505	14.158344	-1.052909	1.843235	-1.090366	0.277811	-0.142334	0.950033	-0.375126	0.894369	0.243689	-0.884365	-0.424081	0.195072
22404	-4.369167	-2.284122	10.593952	-0.892298	2.074071	-1.032446	0.300055	-0.142743	0.943181	-0.364299	0.896653	0.251596	-0.881620	-0.419093	0.217044
22405	-3.880285	-0.926166	9.422633	-0.815634	2.126145	-1.031549	0.322435	-0.143171	0.935702	-0.353877	0.898590	0.259436	-0.877956	-0.414775	0.239072
22406	-1.718777	1.359426	10.020222	-0.986097	2.273182	-1.041099	0.346100	-0.143051	0.927228	-0.341810	0.901157	0.266614	-0.873717	-0.409210	0.262994
22407	0.584648	2.812960	10.800442	-1.376471	2.558530	-1.041232	0.371844	-0.142131	0.917350	-0.326041	0.905255	0.272416	-0.869154	-0.400390	0.290273
22408	2.638387	3.338098	10.776114	-1.841350	2.951203	-1.067902	0.400939	-0.140057	0.905335	-0.306011	0.911005	0.276455	-0.863484	-0.387884	0.322398
22409	4.230066	2.849528	10.158519	-2.246604	3.388418	-1.110138	0.433308	-0.137366	0.890716	-0.282027	0.918012	0.278774	-0.855982	-0.372001	0.359041
22410	5.159656	2.127527	9.179922	-2.491632	3.755575	-1.128054	0.468462	-0.133973	0.873267	-0.255789	0.925534	0.279209	-0.845645	-0.354171	0.399308
22411	5.878937	1.336213	8.316119	-2.580783	4.008424	-1.051472	0.504619	-0.129952	0.853506	-0.228978	0.933056	0.277443	-0.832424	-0.335437	0.441081
22412	6.704960	0.932955	7.766387	-2.534993	4.137029	-0.876534	0.540785	-0.124493	0.831897	-0.203557	0.940224	0.273028	-0.816160	-0.316987	0.483118
22413	7.549537	0.854186	7.687960	-2.414775	4.225002	-0.643936	0.576081	-0.117577	0.808892	-0.180440	0.946895	0.266143	-0.797228	-0.299276	0.524272
22414	8.421617	1.667360	7.832977	-2.289150	4.298582	-0.407886	0.610741	-0.108754	0.784327	-0.160089	0.953109	0.256816	-0.775479	-0.282411	0.564692
22415	9.007637	2.220155	7.760831	-2.270563	4.386150	-0.219317	0.644535	-0.098867	0.758156	-0.141339	0.959107	0.245229	-0.751398	-0.265215	0.604204
22416	8.694177	1.990197	7.412637	-2.262853	4.457021	-0.088803	0.677701	-0.088086	0.730043	-0.124132	0.964847	0.231649	-0.724785	-0.247611	0.642943
22417	8.333154	1.961852	7.141866	-2.236104	4.461565	0.058436	0.709317	-0.076898	0.700683	-0.108609	0.970239	0.216428	-0.696472	-0.229616	0.679855
22418	8.619717	1.949393	7.353920	-2.236378	4.382195	0.301183	0.739017	-0.064102	0.670631	-0.095639	0.975398	0.198625	-0.666864	-0.210926	0.714705
22419	10.033934	1.972403	7.967818	-2.225260	4.293871	0.620569	0.766418	-0.049414	0.640439	-0.085772	0.980235	0.178276	-0.636590	-0.191566	0.747031
22420	12.369740	1.275358	8.655480	-2.152886	4.269080	0.987735	0.792215	-0.031733	0.609416	-0.080212	0.984568	0.155540	-0.604947	-0.172104	0.777444
22421	14.697917	1.535070	9.534578	-1.885944	4.362106	1.392670	0.816736	-0.010895	0.576909	-0.080291	0.987949	0.132326	-0.571398	-0.154396	0.806019
22422	16.792927	3.548395	9.909971	-1.607692	4.501769	1.750822	0.840281	0.013232	0.541990	-0.086025	0.990291	0.109193	-0.535283	-0.138378	0.833261
22423	20.037498	5.534564	8.608267	-1.485186	4.693917	1.961813	0.862710	0.038779	0.504210	-0.095037	0.991723	0.086337	-0.496688	-0.122403	0.859254
22424	22.122368	6.139714	5.054318	-1.383510	4.817294	2.051655	0.883647	0.064828	0.463644	-0.106482	0.992239	0.064205	-0.455883	-0.106104	0.883692
22425	22.171356	5.544008	0.457043	-1.156643	4.618022	2.004918	0.901503	0.089255	0.423469	-0.119310	0.991839	0.044942	-0.416002	-0.091039	0.904795
22426	20.717291	3.634205	-3.965959	-0.705441	3.998992	1.791868	0.915196	0.110578	0.387541	-0.132871	0.990645	0.031117	-0.380475	-0.079971	0.921327
22427	18.541380	2.110677	-6.756886	-0.050632	3.065869	1.388024	0.924487	0.126688	0.359547	-0.145427	0.989042	0.025437	-0.352384	-0.075804	0.932780
22428	19.013397	4.010412	-7.133094	0.332312	2.038885	0.983399	0.929997	0.138060	0.340654	-0.155754	0.987479	0.025009	-0.332936	-0.076316	0.939856
22429	22.382888	5.309859	-7.207411	0.038784	1.222437	0.838438	0.932647	0.147240	0.329377	-0.163664	0.986259	0.022539	-0.321532	-0.074928	0.943929
22430	17.909776	-6.430068	-11.088146	-0.088743	0.358520	1.109452	0.931915	0.158492	0.326214	-0.173755	0.984625	0.017994	-0.318346	-0.073450	0.945125
22431	19.072560	-7.474570	-18.345150	2.075575	-1.538928	1.056030	0.925001	0.167547	0.341029	-0.190253	0.981146	0.034003	-0.328902	-0.096335	0.939438
22432	15.643570	-3.368085	-9.444845	3.171094	-2.479197	1.910575	0.912707	0.183472	0.365108	-0.218548	0.974172	0.056798	-0.345257	-0.131633	0.929231
22433	7.933259	16.942323	8.449751	2.427906	-2.474821	2.145925	0.898951	0.200668	0.389382	-0.246551	0.966518	0.071108	-0.362076	-0.159925	0.918327
22434	7.998449	14.695787	14.092548	1.249820	-2.265092	2.781756	0.883255	0.223648	0.412120	-0.275980	0.958514	0.071315	-0.379073	-0.176726	0.908334
22435	6.857907	16.046053	12.001080	0.806523	-2.149982	2.487261	0.867740	0.243442	0.433316	-0.300855	0.951238	0.068064	-0.395617	-0.189427	0.898668
22436	19.605671	31.306390	26.065127	0.398671	-3.291734	0.639190	0.852307	0.243012	0.463162	-0.307921	0.948924	0.068753	-0.422798	-0.201216	0.883603
22437	33.523193	4.823441	9.257629	-0.428429	0.775342	0.205456	0.854919	0.246476	0.456468	-0.307848	0.949281	0.063992	-0.417544	-0.195230	0.887436
22438	-1.836058	-10.433487	10.474483	0.150857	-2.132976	0.328226	0.844804	0.245156	0.475609	-0.311125	0.948220	0.063871	-0.435324	-0.201932	0.877335
22439	9.814303	9.933096	8.153089	0.485012	1.289816	-0.701731	0.852496	0.241090	0.463817	-0.307223	0.948954	0.071414	-0.422923	-0.203375	0.883048
22440	6.848143	0.387221	8.643638	-0.076683	-0.874374	0.397560	0.847532	0.242888	0.471906	-0.310126	0.948192	0.068950	-0.430710	-0.204788	0.878949
22441	3.569488	-0.597161	9.646196	0.038620	-0.130163	0.027394	0.846873	0.242857	0.473103	-0.310497	0.948057	0.069138	-0.431738	-0.205449	0.878290
22442	5.167767	0.176850	8.766234	-0.002841	-0.101825	0.072249	0.846201	0.243149	0.474153	-0.310952	0.947929	0.068839	-0.432726	-0.205691	0.877747
22443	5.669796	-1.354849	8.541306	0.091728	-0.049452	-0.014362	0.846019	0.242888	0.474613	-0.311200	0.947786	0.069690	-0.432904	-0.206659	0.877432
