// General information: 
//  MT Manager version: 2022.2.0 
//  XDA version: 2022.2.0 build 7381 rev 124627 built on 2023-07-19
// Device information: 
//  DeviceId: 00B4CB9F
//  ProductCode: MTW2-3A7G6
//  Firmware Version: 4.6.0
//  Hardware Version: 2.0.0
// Device settings: 
//  Filter Profile: human(46.1)
//  Option Flags: Orientation Smoother Disabled, Position/Velocity Smoother Disabled, Continuous Zero Rotation Update Disabled, AHS Disabled, ICC Disabled
// Coordinate system: ENU
PacketCounter	Acc_X	Acc_Y	Acc_Z	Gyr_X	Gyr_Y	Gyr_Z	Mat[1][1]	Mat[2][1]	Mat[3][1]	Mat[1][2]	Mat[2][2]	Mat[3][2]	Mat[1][3]	Mat[2][3]	Mat[3][3]
35718	9.582249	1.028532	1.331099	0.074628	0.052311	-0.022707	0.181525	-0.015470	0.983265	-0.558753	0.821171	0.116074	-0.809224	-0.570472	0.140419
35719	9.595050	1.030243	1.355337	0.071413	0.048708	-0.022857	0.182003	-0.015325	0.983179	-0.559388	0.820700	0.116345	-0.808678	-0.571153	0.140798
35720	9.574144	1.107348	1.348239	0.068438	0.041911	-0.026588	0.182436	-0.015309	0.983099	-0.559930	0.820283	0.116681	-0.808205	-0.571753	0.141077
35721	9.562612	1.076794	1.415363	0.058526	0.037876	-0.026530	0.182924	-0.015270	0.983009	-0.560511	0.819835	0.117038	-0.807692	-0.572397	0.141408
35722	9.605011	1.129155	1.451486	0.052398	0.036442	-0.028368	0.183322	-0.015299	0.982934	-0.560920	0.819508	0.117370	-0.807318	-0.572864	0.141652
35723	9.611462	1.126174	1.507940	0.042203	0.031134	-0.025800	0.183694	-0.015282	0.982865	-0.561369	0.819159	0.117655	-0.806921	-0.573363	0.141896
35724	9.638016	1.126697	1.550898	0.035195	0.032029	-0.030043	0.184067	-0.015349	0.982794	-0.561636	0.818930	0.117978	-0.806650	-0.573688	0.142117
35725	9.655193	1.080217	1.567546	0.031447	0.030358	-0.024126	0.184363	-0.015344	0.982738	-0.561788	0.818797	0.118176	-0.806476	-0.573878	0.142336
35726	9.658769	1.034792	1.563987	0.031450	0.030354	-0.024115	0.184689	-0.015372	0.982677	-0.562035	0.818590	0.118436	-0.806230	-0.574173	0.142545
35727	9.660207	1.013459	1.563554	0.042249	0.032050	-0.021722	0.185023	-0.015291	0.982615	-0.562555	0.818200	0.118659	-0.805790	-0.574730	0.142784
35728	9.645841	1.017679	1.545904	0.048637	0.030274	-0.023404	0.185344	-0.015313	0.982554	-0.562942	0.817894	0.118937	-0.805447	-0.575165	0.142971
35729	9.660951	1.072412	1.540812	0.053867	0.026007	-0.021975	0.185647	-0.015280	0.982498	-0.563456	0.817504	0.119181	-0.805017	-0.575720	0.143157
35730	9.612892	1.074675	1.515636	0.058505	0.025336	-0.025459	0.185940	-0.015347	0.982441	-0.563918	0.817140	0.119494	-0.804626	-0.576235	0.143284
35731	9.610085	1.102375	1.520026	0.059891	0.016599	-0.030179	0.186136	-0.015437	0.982403	-0.564402	0.816765	0.119772	-0.804241	-0.576764	0.143316
35732	9.595906	1.107415	1.500525	0.060460	0.012060	-0.029256	0.186344	-0.015611	0.982361	-0.564872	0.816388	0.120124	-0.803863	-0.577293	0.143310
35733	9.573107	1.131734	1.517089	0.057525	0.006198	-0.028984	0.186481	-0.015781	0.982332	-0.565245	0.816088	0.120414	-0.803569	-0.577713	0.143265
35734	9.588571	1.109879	1.534096	0.062193	0.002931	-0.025467	0.186594	-0.015977	0.982307	-0.565735	0.815701	0.120731	-0.803198	-0.578253	0.143166
35735	9.552364	1.134846	1.529365	0.070651	-0.004809	-0.017866	0.186543	-0.016102	0.982315	-0.566265	0.815308	0.120899	-0.802836	-0.578804	0.142972
35736	9.563730	1.160327	1.550914	0.072693	-0.011718	-0.012596	0.186466	-0.016277	0.982327	-0.566864	0.814861	0.121105	-0.802431	-0.579427	0.142717
35737	9.566468	1.205047	1.608579	0.075329	-0.011616	-0.011337	0.186379	-0.016371	0.982342	-0.567610	0.814318	0.121263	-0.801924	-0.580188	0.142480
35738	9.562122	1.255439	1.612178	0.077967	-0.015044	-0.007095	0.186244	-0.016521	0.982365	-0.568260	0.813841	0.121421	-0.801494	-0.580853	0.142185
35739	9.557837	1.305660	1.615440	0.070962	-0.017704	-0.008374	0.186095	-0.016626	0.982391	-0.568978	0.813320	0.121547	-0.801020	-0.581578	0.141895
35740	9.585335	1.305085	1.653256	0.065454	-0.018248	-0.004284	0.185918	-0.016772	0.982422	-0.569534	0.812915	0.121659	-0.800666	-0.582141	0.141584
35741	9.549587	1.328267	1.646792	0.050892	-0.018074	-0.003784	0.185696	-0.016846	0.982463	-0.569993	0.812591	0.121668	-0.800390	-0.582590	0.141293
35742	9.603948	1.258057	1.662960	0.043626	-0.017511	-0.001527	0.185510	-0.016965	0.982496	-0.570379	0.812313	0.121722	-0.800159	-0.582975	0.141015
35743	9.599320	1.240082	1.603929	0.035486	-0.021684	0.004298	0.185220	-0.016996	0.982550	-0.570728	0.812080	0.121635	-0.799977	-0.583298	0.140714
35744	9.601908	1.216068	1.598824	0.028215	-0.017592	0.003561	0.185004	-0.017074	0.982589	-0.571000	0.811892	0.121617	-0.799833	-0.583558	0.140454
35745	9.608763	1.220348	1.562925	0.033202	-0.022154	0.011557	0.184775	-0.017095	0.982632	-0.571306	0.811687	0.121550	-0.799667	-0.583843	0.140213
35746	9.625070	1.194941	1.577867	0.029067	-0.020865	0.001968	0.184542	-0.017205	0.982674	-0.571582	0.811493	0.121549	-0.799524	-0.584109	0.139920
35747	9.654211	1.178573	1.525750	0.029130	-0.018953	0.009993	0.184286	-0.017190	0.982722	-0.571897	0.811287	0.121437	-0.799357	-0.584395	0.139678
35748	9.634501	1.174677	1.537075	0.025339	-0.018015	0.008883	0.184037	-0.017227	0.982768	-0.572156	0.811116	0.121362	-0.799230	-0.584632	0.139418
35749	9.621185	1.175420	1.514865	0.022112	-0.018082	0.005707	0.183845	-0.017250	0.982804	-0.572403	0.810949	0.121309	-0.799097	-0.584862	0.139215
35750	9.655305	1.177455	1.519678	0.018916	-0.017190	0.006539	0.183616	-0.017302	0.982846	-0.572606	0.810815	0.121248	-0.799004	-0.585047	0.138971
35751	9.639061	1.135564	1.438346	0.015403	-0.014992	0.002897	0.183470	-0.017309	0.982873	-0.572877	0.810629	0.121213	-0.798844	-0.585304	0.138810
35752	9.619242	1.131831	1.450226	0.011363	-0.014351	0.008322	0.183253	-0.017330	0.982913	-0.573023	0.810539	0.121125	-0.798789	-0.585428	0.138603
35753	9.614400	1.112792	1.392338	0.014271	-0.009458	0.004035	0.183132	-0.017294	0.982936	-0.573274	0.810370	0.121065	-0.798636	-0.585663	0.138491
35754	9.614621	1.112293	1.391213	0.010516	-0.011081	0.009926	0.182932	-0.017283	0.982974	-0.573416	0.810286	0.120960	-0.798580	-0.585780	0.138317
35755	9.598906	1.137108	1.372864	0.007559	-0.006365	0.001219	0.182722	-0.017196	0.983014	-0.573666	0.810132	0.120805	-0.798448	-0.585996	0.138164
35756	9.623307	1.168937	1.327830	0.010790	-0.006300	0.004400	0.182592	-0.017201	0.983038	-0.573800	0.810044	0.120753	-0.798382	-0.586116	0.138037
35757	9.657157	1.171213	1.334123	0.005233	-0.000737	-0.001536	0.182494	-0.017152	0.983057	-0.573913	0.809976	0.120673	-0.798323	-0.586212	0.137972
35758	9.623356	1.169054	1.327371	0.005546	0.001482	-0.000057	0.182451	-0.017148	0.983065	-0.573998	0.809918	0.120658	-0.798272	-0.586292	0.137928
35759	9.606716	1.127333	1.248128	0.005574	0.005965	0.000955	0.182461	-0.017046	0.983065	-0.574180	0.809797	0.120611	-0.798139	-0.586463	0.137969
35760	9.628967	1.106289	1.232454	0.008241	0.007037	0.006202	0.182426	-0.016958	0.983073	-0.574298	0.809724	0.120539	-0.798062	-0.586566	0.137976
35761	9.623843	1.087161	1.176509	0.009117	0.008248	0.005616	0.182444	-0.016823	0.983072	-0.574453	0.809625	0.120465	-0.797946	-0.586707	0.138047
35762	9.634436	1.119684	1.112537	0.003856	0.004502	0.006139	0.182390	-0.016751	0.983084	-0.574535	0.809578	0.120387	-0.797899	-0.586774	0.138035
35763	9.630098	1.167249	1.118340	0.000664	0.001875	0.009964	0.182336	-0.016539	0.983097	-0.574963	0.809294	0.120255	-0.797603	-0.587172	0.138054
35764	9.663080	1.178490	1.037944	-0.015666	0.003174	0.008613	0.182257	-0.016455	0.983113	-0.574895	0.809361	0.120125	-0.797670	-0.587081	0.138052
35765	9.687456	1.209596	0.993949	-0.030301	-0.002071	0.004066	0.182192	-0.016353	0.983127	-0.574895	0.809380	0.120001	-0.797685	-0.587058	0.138062
35766	9.699066	1.231752	1.016961	-0.048376	-0.006720	0.006895	0.182044	-0.016340	0.983155	-0.574562	0.809639	0.119844	-0.797959	-0.586701	0.138002
35767	9.650488	1.243311	1.080057	-0.065287	-0.012427	0.009614	0.181875	-0.016284	0.983187	-0.574189	0.809935	0.119631	-0.798266	-0.586293	0.137957
35768	9.652963	1.217322	1.076784	-0.077810	-0.015605	0.012409	0.181625	-0.016279	0.983233	-0.573632	0.810367	0.119379	-0.798724	-0.585696	0.137845
35769	9.662997	1.107933	1.152340	-0.085591	-0.016608	0.023765	0.181309	-0.016146	0.983294	-0.573028	0.810854	0.118974	-0.799229	-0.585026	0.137763
35770	9.593895	1.047283	1.165661	-0.081252	-0.026576	0.024818	0.180900	-0.016103	0.983370	-0.572464	0.811308	0.118595	-0.799725	-0.584398	0.137547
35771	9.639978	0.991832	1.218572	-0.067198	-0.028358	0.033419	0.180461	-0.015933	0.983453	-0.572177	0.811576	0.118142	-0.800029	-0.584030	0.137341
35772	9.630123	0.954580	1.280413	-0.057919	-0.036792	0.032443	0.179927	-0.015888	0.983552	-0.571813	0.811894	0.117720	-0.800410	-0.583589	0.136996
35773	9.684783	0.956331	1.270630	-0.048577	-0.036264	0.033501	0.179382	-0.015848	0.983652	-0.571295	0.812323	0.117271	-0.800902	-0.582992	0.136662
35774	9.717307	0.901779	1.301992	-0.038078	-0.036790	0.034425	0.178836	-0.015786	0.983752	-0.571093	0.812525	0.116857	-0.801168	-0.582712	0.136294
35775	9.734937	0.939275	1.378662	-0.026112	-0.032620	0.033706	0.178290	-0.015671	0.983853	-0.570910	0.812719	0.116404	-0.801421	-0.582445	0.135953
35776	9.717675	0.985580	1.361437	-0.017138	-0.031717	0.026249	0.177831	-0.015646	0.983937	-0.570860	0.812798	0.116099	-0.801558	-0.582336	0.135609
35777	9.721578	1.025015	1.418200	-0.021761	-0.031041	0.029763	0.177413	-0.015550	0.984014	-0.570843	0.812857	0.115766	-0.801662	-0.582256	0.135335
35778	9.700104	1.042904	1.431925	-0.029985	-0.030039	0.021612	0.176994	-0.015552	0.984089	-0.570683	0.813009	0.115489	-0.801869	-0.582043	0.135023
35779	9.689124	1.017404	1.406164	-0.041067	-0.033001	0.021783	0.176506	-0.015521	0.984177	-0.570402	0.813258	0.115123	-0.802177	-0.581696	0.134692
35780	9.658046	0.911450	1.418742	-0.043104	-0.029629	0.019521	0.176102	-0.015537	0.984249	-0.570131	0.813486	0.114850	-0.802458	-0.581377	0.134398
35781	9.604763	0.903549	1.423159	-0.034367	-0.029049	0.018602	0.175643	-0.015489	0.984332	-0.569948	0.813663	0.114504	-0.802688	-0.581130	0.134086
35782	9.623310	0.851875	1.434605	-0.016337	-0.032421	0.017663	0.175227	-0.015536	0.984405	-0.569890	0.813735	0.114284	-0.802821	-0.581028	0.133735
35783	9.588040	0.871904	1.427912	0.006727	-0.032375	0.022726	0.174834	-0.015485	0.984476	-0.570157	0.813581	0.114051	-0.802717	-0.581246	0.133413
35784	9.614241	0.891745	1.467480	0.026148	-0.040016	0.018093	0.174355	-0.015573	0.984560	-0.570440	0.813406	0.113884	-0.802620	-0.581488	0.132938
35785	9.583276	0.863901	1.453674	0.038733	-0.042989	0.025280	0.173708	-0.015535	0.984675	-0.570855	0.813163	0.113534	-0.802465	-0.581828	0.132385
35786	9.557825	0.854564	1.496355	0.052916	-0.042826	0.016233	0.173217	-0.015655	0.984759	-0.571350	0.812832	0.113420	-0.802219	-0.582288	0.131852
35787	9.530275	0.870407	1.541952	0.066545	-0.041670	0.009264	0.172710	-0.015744	0.984847	-0.571989	0.812399	0.113296	-0.801872	-0.582889	0.131304
35788	9.556603	0.892186	1.580416	0.079685	-0.042114	0.011399	0.172252	-0.015900	0.984925	-0.572690	0.811910	0.113264	-0.801471	-0.583566	0.130748
35789	9.524986	0.957327	1.631643	0.083978	-0.041492	0.003437	0.171772	-0.016095	0.985005	-0.573212	0.811547	0.113222	-0.801200	-0.584065	0.130175
35790	9.593399	0.962726	1.639699	0.084219	-0.044725	-0.000074	0.171360	-0.016360	0.985073	-0.573929	0.811028	0.113308	-0.800776	-0.584778	0.129588
35791	9.614112	0.967424	1.621114	0.079277	-0.042729	-0.001010	0.171012	-0.016600	0.985129	-0.574566	0.810564	0.113400	-0.800392	-0.585415	0.129079
35792	9.640455	0.990564	1.659272	0.078129	-0.041686	-0.000849	0.170629	-0.016853	0.985191	-0.575232	0.810080	0.113484	-0.799996	-0.586078	0.128528
35793	9.667254	1.000031	1.606947	0.085623	-0.045515	-0.006640	0.170252	-0.017156	0.985251	-0.575843	0.809629	0.113605	-0.799637	-0.586692	0.127962
35794	9.660250	1.007309	1.547548	0.084791	-0.053809	0.000031	0.169767	-0.017475	0.985329	-0.576564	0.809104	0.113688	-0.799221	-0.587405	0.127284
35795	9.674858	1.084789	1.536369	0.074776	-0.051715	-0.009921	0.169352	-0.017808	0.985395	-0.577193	0.808638	0.113811	-0.798854	-0.588037	0.126666
35796	9.629758	1.215195	1.450457	0.064033	-0.055976	-0.005214	0.168880	-0.018182	0.985469	-0.577738	0.808233	0.113919	-0.798560	-0.588582	0.125990
35797	9.646353	1.268480	1.436062	0.042321	-0.060302	-0.013921	0.168407	-0.018582	0.985542	-0.578148	0.807925	0.114025	-0.798364	-0.588992	0.125317
35798	9.637086	1.299934	1.378951	0.009933	-0.059891	-0.015975	0.167966	-0.019066	0.985608	-0.578242	0.807837	0.114171	-0.798388	-0.589097	0.124664
35799	9.615987	1.231171	1.324834	-0.017497	-0.061493	-0.017039	0.167524	-0.019544	0.985674	-0.578027	0.807978	0.114262	-0.798636	-0.588888	0.124059
35800	9.614856	1.165046	1.257040	-0.037524	-0.065305	-0.009324	0.167002	-0.020006	0.985754	-0.577754	0.808171	0.114283	-0.798943	-0.588609	0.123407
35801	9.613722	1.098398	1.189225	-0.050055	-0.064929	-0.009454	0.166447	-0.020394	0.985840	-0.577422	0.808418	0.114214	-0.799299	-0.588256	0.122783
35802	9.594516	1.095125	1.197211	-0.053757	-0.066560	-0.003485	0.165880	-0.020815	0.985926	-0.577029	0.808706	0.114158	-0.799701	-0.587844	0.122137
35803	9.613197	1.122132	1.180048	-0.059303	-0.076073	-0.001303	0.165130	-0.021241	0.986043	-0.576392	0.809188	0.113958	-0.800315	-0.587166	0.121378
35804	9.622103	1.101345	1.136594	-0.055652	-0.080882	0.009417	0.164373	-0.021641	0.986161	-0.576005	0.809490	0.113773	-0.800749	-0.586735	0.120593
35805	9.661198	1.053425	1.129344	-0.048913	-0.092050	0.014290	0.163447	-0.022048	0.986306	-0.575486	0.809902	0.113472	-0.801312	-0.586151	0.119688
35806	9.640490	1.072435	1.137438	-0.043393	-0.095088	0.013237	0.162554	-0.022500	0.986443	-0.575202	0.810132	0.113264	-0.801698	-0.585816	0.118748
35807	9.613939	0.996021	1.113580	-0.040196	-0.104044	0.014477	0.161537	-0.022983	0.986599	-0.574725	0.810510	0.112981	-0.802245	-0.585274	0.117718
35808	9.587094	0.996772	1.063829	-0.036489	-0.110471	0.010627	0.160534	-0.023545	0.986749	-0.574492	0.810699	0.112808	-0.802613	-0.584990	0.116618
35809	9.625999	1.026122	1.028892	-0.038789	-0.108376	0.010940	0.159544	-0.024051	0.986898	-0.574216	0.810925	0.112591	-0.803008	-0.584655	0.115568
35810	9.607418	1.021436	1.032557	-0.033269	-0.111420	0.009884	0.158537	-0.024623	0.987046	-0.574007	0.811095	0.112430	-0.803357	-0.584396	0.114455
35811	9.672510	1.072764	1.040083	-0.043508	-0.109636	0.006583	0.157504	-0.025186	0.987197	-0.573528	0.811465	0.112207	-0.803902	-0.583858	0.113365
35812	9.671678	1.095858	1.033173	-0.054576	-0.104570	0.004878	0.156580	-0.025758	0.987329	-0.573140	0.811758	0.112071	-0.804359	-0.583426	0.112342
35813	9.706755	1.096838	1.029697	-0.068247	-0.103154	0.005014	0.155625	-0.026263	0.987467	-0.572614	0.812160	0.111844	-0.804919	-0.582843	0.111354
35814	9.742264	1.020573	1.051255	-0.078108	-0.102699	0.006238	0.154706	-0.026812	0.987597	-0.572038	0.812590	0.111670	-0.805505	-0.582219	0.110376
35815	9.754847	0.951340	0.999661	-0.076316	-0.095792	0.006059	0.153800	-0.027296	0.987725	-0.571313	0.813133	0.111431	-0.806193	-0.581438	0.109465
35816	9.731347	0.904120	0.945501	-0.069510	-0.094450	0.009840	0.152927	-0.027766	0.987847	-0.570811	0.813513	0.111232	-0.806715	-0.580884	0.108559
35817	9.704304	0.827893	0.921977	-0.059230	-0.096285	0.013214	0.152042	-0.028156	0.987973	-0.570513	0.813755	0.110989	-0.807093	-0.580526	0.107662
35818	9.705244	0.826645	0.913170	-0.034075	-0.093170	0.003678	0.151213	-0.028668	0.988085	-0.570287	0.813927	0.110889	-0.807408	-0.580260	0.106728
35819	9.686447	0.822581	0.918299	-0.010408	-0.094157	0.006405	0.150393	-0.029153	0.988196	-0.570171	0.814021	0.110789	-0.807643	-0.580103	0.105801
35820	9.710435	0.854139	0.864332	0.007959	-0.095347	0.006742	0.149529	-0.029652	0.988313	-0.570289	0.813950	0.110704	-0.807720	-0.580177	0.104799
35821	9.712991	0.867322	0.945552	0.024184	-0.089582	0.001743	0.148628	-0.030134	0.988434	-0.570233	0.814009	0.110561	-0.807926	-0.580070	0.103801
35822	9.711885	0.891733	0.939548	0.039271	-0.090819	-0.001056	0.147844	-0.030670	0.988535	-0.570592	0.813754	0.110585	-0.807816	-0.580400	0.102809
35823	9.694355	0.979708	1.010025	0.045875	-0.091361	-0.005339	0.147021	-0.031160	0.988642	-0.571048	0.813438	0.110559	-0.807644	-0.580817	0.101798
35824	9.686111	1.062089	1.133715	0.049365	-0.094563	-0.005688	0.146234	-0.031757	0.988740	-0.571482	0.813122	0.110638	-0.807480	-0.581226	0.100758
35825	9.690468	1.129782	1.186493	0.043210	-0.096008	-0.007384	0.145463	-0.032336	0.988835	-0.571877	0.812835	0.110707	-0.807340	-0.581596	0.099745
35826	9.677307	1.169886	1.250315	0.031627	-0.097984	-0.004879	0.144644	-0.032947	0.988935	-0.572169	0.812623	0.110759	-0.807280	-0.581858	0.098690
35827	9.642805	1.230586	1.331101	0.022887	-0.103089	-0.004700	0.143822	-0.033617	0.989032	-0.572150	0.812628	0.110821	-0.807440	-0.581813	0.097640
35828	9.681703	1.299570	1.388962	0.011457	-0.099605	0.002770	0.142946	-0.034174	0.989140	-0.572290	0.812535	0.110777	-0.807497	-0.581910	0.096591
35829	9.680406	1.308641	1.503622	-0.000275	-0.094461	-0.000825	0.142082	-0.034698	0.989247	-0.572178	0.812626	0.110683	-0.807728	-0.581751	0.095606
35830	9.670433	1.338291	1.444196	-0.018734	-0.093619	0.005542	0.141238	-0.035198	0.989350	-0.572078	0.812710	0.110583	-0.807947	-0.581604	0.094650
35831	9.651176	1.281106	1.477762	-0.030054	-0.089805	0.006452	0.140415	-0.035662	0.989450	-0.571709	0.812990	0.110435	-0.808352	-0.581184	0.093768
35832	9.691557	1.286541	1.441447	-0.042494	-0.080416	0.008442	0.139661	-0.036061	0.989543	-0.571421	0.813213	0.110284	-0.808686	-0.580847	0.092968
35833	9.746354	1.290431	1.425475	-0.052954	-0.075379	0.008733	0.138963	-0.036412	0.989628	-0.570957	0.813563	0.110108	-0.809134	-0.580336	0.092266
35834	9.713445	1.286514	1.414003	-0.067108	-0.068434	0.011996	0.138285	-0.036712	0.989712	-0.570474	0.813930	0.109900	-0.809591	-0.579802	0.091611
35835	9.732089	1.196798	1.328268	-0.073879	-0.069205	0.018966	0.137563	-0.036983	0.989802	-0.569647	0.814549	0.109605	-0.810296	-0.578915	0.090985
35836	9.730118	1.165458	1.353949	-0.080776	-0.054432	0.011137	0.137003	-0.037207	0.989872	-0.569051	0.814993	0.109393	-0.810809	-0.578274	0.090484
35837	9.748323	1.076088	1.269701	-0.082740	-0.050097	0.012891	0.136514	-0.037377	0.989933	-0.568409	0.815470	0.109174	-0.811341	-0.577591	0.090078
35838	9.735225	1.013707	1.149946	-0.078959	-0.042992	0.011845	0.136042	-0.037528	0.989992	-0.567828	0.815904	0.108958	-0.811827	-0.576968	0.089688
35839	9.757945	0.929424	1.032424	-0.071616	-0.042643	0.013437	0.135543	-0.037633	0.990056	-0.567186	0.816387	0.108682	-0.812360	-0.576277	0.089310
35840	9.726155	0.917007	0.899670	-0.057246	-0.039641	0.016081	0.135074	-0.037730	0.990117	-0.566786	0.816696	0.108444	-0.812717	-0.575833	0.088929
35841	9.696463	0.995444	0.833237	-0.039715	-0.033612	0.008170	0.134744	-0.037844	0.990157	-0.566463	0.816939	0.108310	-0.812997	-0.575481	0.088640
35842	9.706443	1.003935	0.762499	-0.035593	-0.036867	0.009696	0.134334	-0.037977	0.990208	-0.566230	0.817121	0.108155	-0.813227	-0.575214	0.088263
35843	9.721169	1.017262	0.657950	-0.033534	-0.032196	0.009882	0.133941	-0.038104	0.990257	-0.565659	0.817541	0.107968	-0.813689	-0.574609	0.087948
35844	9.705772	0.964530	0.663440	-0.040611	-0.026761	0.006730	0.133629	-0.038202	0.990295	-0.565382	0.817750	0.107838	-0.813933	-0.574305	0.087676
35845	9.735859	0.899360	0.603417	-0.033789	-0.025404	0.010355	0.133330	-0.038191	0.990336	-0.565317	0.817820	0.107648	-0.814027	-0.574206	0.087450
35846	9.777722	0.803267	0.593427	-0.019846	-0.024974	0.018083	0.132969	-0.038186	0.990384	-0.565223	0.817914	0.107423	-0.814151	-0.574072	0.087174
35847	9.750554	0.780152	0.548825	-0.009041	-0.027802	0.019202	0.132570	-0.038161	0.990439	-0.565104	0.818031	0.107158	-0.814299	-0.573907	0.086882
35848	9.713471	0.763154	0.450389	0.004517	-0.034113	0.024536	0.132098	-0.038156	0.990502	-0.565217	0.817988	0.106890	-0.814297	-0.573969	0.086489
35849	9.735101	0.740090	0.428963	0.021111	-0.042261	0.024948	0.131558	-0.038191	0.990573	-0.565264	0.817992	0.106610	-0.814352	-0.573961	0.086025
35850	9.680121	0.756511	0.436983	0.043580	-0.046704	0.026552	0.130972	-0.038241	0.990648	-0.565698	0.817725	0.106356	-0.814145	-0.574337	0.085466
35851	9.732173	0.784010	0.425708	0.061657	-0.049770	0.018643	0.130360	-0.038373	0.990724	-0.565979	0.817559	0.106138	-0.814048	-0.574565	0.084859
35852	9.748287	0.834001	0.411921	0.061717	-0.057877	0.020796	0.129716	-0.038535	0.990802	-0.566553	0.817185	0.105955	-0.813752	-0.575086	0.084170
35853	9.697036	0.802817	0.411673	0.067817	-0.065504	0.020630	0.129026	-0.038679	0.990887	-0.567316	0.816682	0.105750	-0.813329	-0.575791	0.083430
35854	9.609880	0.793920	0.408734	0.071862	-0.077814	0.020317	0.128222	-0.038960	0.990980	-0.567971	0.816249	0.105580	-0.812999	-0.576386	0.082533
35855	9.672187	0.815451	0.447205	0.079474	-0.084292	0.021474	0.127395	-0.039255	0.991075	-0.568661	0.815790	0.105409	-0.812647	-0.577014	0.081604
35856	9.692317	0.878383	0.520024	0.087539	-0.092126	0.027155	0.126436	-0.039565	0.991185	-0.569451	0.815268	0.105182	-0.812244	-0.577730	0.080549
35857	9.677711	1.016340	0.563013	0.077399	-0.089368	0.028038	0.125549	-0.039882	0.991285	-0.569978	0.814927	0.104976	-0.812011	-0.578190	0.079582
35858	9.830204	1.082295	0.688670	0.060570	-0.091192	0.021807	0.124629	-0.040231	0.991387	-0.570541	0.814558	0.104779	-0.811758	-0.578686	0.078564
35859	9.800961	1.092087	0.764703	0.032870	-0.090494	0.021028	0.123802	-0.040651	0.991474	-0.570602	0.814532	0.104646	-0.811841	-0.578692	0.077645
35860	9.782210	1.095877	0.894451	0.012708	-0.088157	0.019198	0.122922	-0.041004	0.991569	-0.570773	0.814439	0.104436	-0.811855	-0.578798	0.076708
35861	9.797755	1.101702	1.029777	-0.015716	-0.079284	0.014314	0.122152	-0.041377	0.991649	-0.570415	0.814713	0.104258	-0.812223	-0.578386	0.075917
35862	9.780210	1.019761	1.062237	-0.049625	-0.067358	0.010628	0.121489	-0.041679	0.991717	-0.570068	0.814977	0.104087	-0.812565	-0.577992	0.075250
35863	9.817719	0.918911	1.083000	-0.077196	-0.057257	0.005126	0.120907	-0.041924	0.991778	-0.569398	0.815472	0.103886	-0.813122	-0.577277	0.074725
35864	9.754370	0.788277	1.087750	-0.084384	-0.044047	0.006398	0.120457	-0.042125	0.991824	-0.568763	0.815934	0.103731	-0.813633	-0.576608	0.074326
35865	9.715422	0.718870	1.016879	-0.068797	-0.041798	0.002220	0.120080	-0.042367	0.991860	-0.568059	0.816435	0.103646	-0.814180	-0.575881	0.073971
35866	9.735908	0.774865	0.971348	-0.048459	-0.034415	-0.007287	0.119785	-0.042624	0.991884	-0.567700	0.816684	0.103653	-0.814474	-0.575509	0.073629
35867	9.703699	0.879541	0.908544	-0.031067	-0.033282	-0.009708	0.119498	-0.042921	0.991906	-0.567136	0.817072	0.103681	-0.814909	-0.574935	0.073297
35868	9.704662	0.933957	0.878215	-0.030459	-0.029064	-0.024022	0.119342	-0.043284	0.991909	-0.566903	0.817210	0.103868	-0.815094	-0.574712	0.072990
35869	9.709999	1.002479	0.938438	-0.037111	-0.029130	-0.030161	0.119222	-0.043667	0.991907	-0.566563	0.817418	0.104083	-0.815348	-0.574387	0.072714
35870	9.777509	0.955717	0.972866	-0.048773	-0.027512	-0.030570	0.119115	-0.044074	0.991902	-0.566173	0.817658	0.104322	-0.815634	-0.574015	0.072442
35871	9.770396	0.916194	0.910980	-0.067162	-0.030840	-0.031448	0.118906	-0.044467	0.991909	-0.565340	0.818218	0.104451	-0.816242	-0.573186	0.072152
35872	9.746574	0.902212	0.832951	-0.075843	-0.031432	-0.030186	0.118764	-0.044893	0.991907	-0.564729	0.818612	0.104667	-0.816686	-0.572590	0.071869
35873	9.729873	0.929900	0.814358	-0.087919	-0.036945	-0.026320	0.118539	-0.045314	0.991915	-0.563832	0.819213	0.104805	-0.817338	-0.571697	0.071560
35874	9.717438	0.962261	0.761786	-0.103085	-0.036679	-0.027161	0.118337	-0.045744	0.991919	-0.563002	0.819762	0.104972	-0.817940	-0.570874	0.071254
35875	9.689993	0.996213	0.689964	-0.123809	-0.042440	-0.028590	0.118046	-0.046173	0.991934	-0.561890	0.820513	0.105062	-0.818746	-0.569760	0.070914
35876	9.681011	0.980768	0.630902	-0.139742	-0.038539	-0.034376	0.117867	-0.046673	0.991932	-0.560749	0.821266	0.105275	-0.819553	-0.568634	0.070628
35877	9.629377	0.953652	0.635053	-0.142606	-0.044504	-0.033756	0.117591	-0.047137	0.991943	-0.559504	0.822099	0.105393	-0.820443	-0.567390	0.070298
35878	9.686892	0.966602	0.587975	-0.147595	-0.047043	-0.035406	0.117347	-0.047693	0.991945	-0.558296	0.822892	0.105612	-0.821301	-0.566192	0.069937
35879	9.725192	0.976176	0.555355	-0.149254	-0.049558	-0.033997	0.117071	-0.048243	0.991951	-0.556882	0.823827	0.105790	-0.822300	-0.564785	0.069581
35880	9.703622	0.945934	0.597048	-0.151389	-0.050699	-0.037080	0.116805	-0.048833	0.991954	-0.555638	0.824636	0.106024	-0.823179	-0.563551	0.069188
35881	9.695766	0.991613	0.634416	-0.157528	-0.052187	-0.038550	0.116536	-0.049367	0.991959	-0.554535	0.825353	0.106223	-0.823960	-0.562455	0.068807
35882	9.668778	1.033499	0.686523	-0.155670	-0.053377	-0.036657	0.116244	-0.049968	0.991963	-0.553255	0.826183	0.106450	-0.824862	-0.561182	0.068394
35883	9.696976	1.056937	0.724807	-0.169301	-0.056165	-0.043527	0.115927	-0.050581	0.991969	-0.551773	0.827146	0.106660	-0.825898	-0.559707	0.067979
35884	9.763062	1.034266	0.760486	-0.185216	-0.052724	-0.042534	0.115670	-0.051225	0.991966	-0.550239	0.828133	0.106926	-0.826957	-0.558186	0.067604
35885	9.808747	0.947853	0.713275	-0.197973	-0.050592	-0.035905	0.115385	-0.051760	0.991971	-0.548499	0.829268	0.107071	-0.828152	-0.556449	0.067294
35886	9.833514	0.881203	0.684427	-0.196735	-0.047626	-0.028369	0.115090	-0.052258	0.991980	-0.546881	0.830320	0.107191	-0.829262	-0.554831	0.066983
35887	9.812797	0.766002	0.624402	-0.176533	-0.045394	-0.025774	0.114747	-0.052671	0.991997	-0.545267	0.831378	0.107215	-0.830372	-0.553206	0.066678
35888	9.778666	0.765703	0.617026	-0.152837	-0.041367	-0.029342	0.114507	-0.053140	0.992000	-0.544009	0.832181	0.107374	-0.831229	-0.551952	0.066382
35889	9.746809	0.849444	0.553723	-0.147475	-0.040776	-0.033596	0.114224	-0.053543	0.992011	-0.542796	0.832961	0.107458	-0.832061	-0.550734	0.066081
35890	9.761982	0.904238	0.544582	-0.145209	-0.029830	-0.041512	0.114145	-0.054050	0.991993	-0.541586	0.833712	0.107744	-0.832860	-0.549548	0.065891
35891	9.742770	0.958072	0.532132	-0.145462	-0.022173	-0.054038	0.114167	-0.054592	0.991961	-0.540196	0.834567	0.108102	-0.833759	-0.548195	0.065789
35892	9.740432	0.986744	0.535397	-0.147916	-0.020996	-0.057579	0.114246	-0.055184	0.991919	-0.538942	0.835320	0.108546	-0.834559	-0.546988	0.065691
35893	9.669628	1.011832	0.530137	-0.147881	-0.020597	-0.064021	0.114374	-0.055807	0.991869	-0.537573	0.836138	0.109033	-0.835424	-0.545673	0.065633
35894	9.676956	0.974932	0.487452	-0.147553	-0.027923	-0.057853	0.114396	-0.056439	0.991831	-0.536319	0.836884	0.109480	-0.836227	-0.544462	0.065467
35895	9.684359	0.937862	0.444280	-0.142866	-0.027668	-0.057483	0.114443	-0.057002	0.991793	-0.535265	0.837504	0.109898	-0.836895	-0.543450	0.065335
35896	9.664902	0.992433	0.431950	-0.133210	-0.029864	-0.049854	0.114404	-0.057577	0.991764	-0.534139	0.838174	0.110275	-0.837620	-0.542356	0.065136
35897	9.675731	1.042598	0.457661	-0.119228	-0.028977	-0.049008	0.114349	-0.058178	0.991736	-0.532682	0.839052	0.110640	-0.838555	-0.540931	0.064955
35898	9.737835	1.068932	0.502917	-0.115030	-0.022751	-0.052162	0.114380	-0.058734	0.991699	-0.531703	0.839618	0.111052	-0.839172	-0.539992	0.064807
35899	9.758615	0.999081	0.508020	-0.109388	-0.029852	-0.043915	0.114279	-0.059178	0.991685	-0.530862	0.840116	0.111308	-0.839718	-0.539168	0.064592
35900	9.792696	0.950519	0.535943	-0.097566	-0.025963	-0.038760	0.114210	-0.059639	0.991665	-0.530045	0.840594	0.111599	-0.840243	-0.538372	0.064394
35901	9.756672	0.866880	0.584640	-0.087926	-0.028132	-0.031227	0.114065	-0.060003	0.991660	-0.529184	0.841114	0.111763	-0.840805	-0.537518	0.064189
35902	9.794566	0.878121	0.553276	-0.072474	-0.025553	-0.035751	0.113984	-0.060437	0.991643	-0.528580	0.841457	0.112041	-0.841196	-0.536933	0.063967
35903	9.752302	0.920724	0.589493	-0.052207	-0.021778	-0.036062	0.113916	-0.060823	0.991627	-0.527954	0.841817	0.112285	-0.841598	-0.536325	0.063785
35904	9.766991	0.976393	0.581752	-0.039422	-0.019294	-0.041684	0.113918	-0.061273	0.991599	-0.527621	0.841979	0.112642	-0.841807	-0.536020	0.063588
35905	9.722498	1.043914	0.622808	-0.026132	-0.013242	-0.048413	0.114022	-0.061710	0.991560	-0.527379	0.842075	0.113051	-0.841944	-0.535818	0.063471
35906	9.703081	1.044059	0.636667	-0.019646	-0.009548	-0.045465	0.114126	-0.062139	0.991521	-0.527208	0.842128	0.113459	-0.842038	-0.535686	0.063348
35907	9.670194	1.076393	0.602467	-0.012329	-0.004595	-0.043167	0.114289	-0.062487	0.991480	-0.527093	0.842149	0.113835	-0.842087	-0.535612	0.063312
35908	9.677288	1.093505	0.535113	-0.006507	0.004197	-0.047670	0.114520	-0.062861	0.991430	-0.527029	0.842129	0.114272	-0.842096	-0.535599	0.063311
35909	9.678402	1.128639	0.506409	-0.003845	0.009310	-0.052137	0.114748	-0.063143	0.991386	-0.526990	0.842105	0.114631	-0.842089	-0.535604	0.063354
35910	9.721639	1.124651	0.440151	-0.002339	0.014988	-0.049883	0.115081	-0.063477	0.991326	-0.526959	0.842062	0.115093	-0.842063	-0.535633	0.063456
35911	9.774175	1.136036	0.431581	-0.003819	0.022851	-0.049151	0.115397	-0.063739	0.991272	-0.526599	0.842237	0.115459	-0.842245	-0.535326	0.063627
35912	9.768054	1.131652	0.343413	-0.011609	0.027869	-0.047365	0.115826	-0.063984	0.991207	-0.526492	0.842244	0.115890	-0.842253	-0.535286	0.063867
35913	9.750583	1.107759	0.356939	-0.014090	0.033126	-0.043445	0.116246	-0.064118	0.991149	-0.526325	0.842303	0.116219	-0.842300	-0.535176	0.064167
35914	9.734821	1.113803	0.341348	-0.009274	0.034318	-0.039213	0.116685	-0.064259	0.991088	-0.526247	0.842303	0.116570	-0.842287	-0.535160	0.064468
35915	9.735911	1.148148	0.315077	-0.010267	0.027673	-0.043532	0.117089	-0.064445	0.991028	-0.525990	0.842415	0.116926	-0.842392	-0.534962	0.064740
35916	9.697940	1.088673	0.371677	-0.003469	0.014571	-0.030061	0.117314	-0.064614	0.990991	-0.525972	0.842390	0.117190	-0.842372	-0.534981	0.064839
35917	9.688414	1.076070	0.315863	-0.002805	0.009964	-0.029150	0.117472	-0.064750	0.990963	-0.525844	0.842443	0.117380	-0.842430	-0.534881	0.064915
35918	9.720610	1.050896	0.350234	0.006821	0.003815	-0.029209	0.117601	-0.064970	0.990933	-0.525913	0.842363	0.117643	-0.842369	-0.534980	0.064895
35919	9.718688	1.023231	0.379615	0.021256	-0.001129	-0.025049	0.117633	-0.065087	0.990922	-0.526266	0.842123	0.117787	-0.842144	-0.535344	0.064809
35920	9.685162	1.080404	0.474288	0.034533	-0.000032	-0.026226	0.117715	-0.065302	0.990898	-0.526572	0.841896	0.118038	-0.841941	-0.535674	0.064718
35921	9.735163	1.139961	0.596721	0.034360	0.002659	-0.016174	0.117693	-0.065426	0.990892	-0.526414	0.841984	0.118119	-0.842043	-0.535521	0.064654
35922	9.688074	1.228935	0.643288	0.038180	0.006728	-0.020816	0.117803	-0.065560	0.990870	-0.526756	0.841741	0.118318	-0.841814	-0.535886	0.064626
35923	9.705506	1.316090	0.731994	0.030546	-0.001418	-0.011512	0.117789	-0.065646	0.990867	-0.526898	0.841642	0.118394	-0.841727	-0.536031	0.064547
35924	9.668180	1.365882	0.860448	0.016109	0.003515	-0.015677	0.117845	-0.065753	0.990853	-0.527061	0.841521	0.118528	-0.841617	-0.536208	0.064513
35925	9.707469	1.378653	0.955635	-0.011942	-0.000330	-0.008066	0.117808	-0.065848	0.990851	-0.526633	0.841785	0.118556	-0.841890	-0.535782	0.064492
35926	9.686737	1.344528	1.000280	-0.043641	0.003075	-0.009399	0.117828	-0.065905	0.990845	-0.526300	0.841988	0.118590	-0.842095	-0.535455	0.064524
35927	9.719155	1.316871	1.035131	-0.077822	0.002697	-0.008790	0.117771	-0.066022	0.990844	-0.524963	0.842828	0.118556	-0.842938	-0.534118	0.064602
35928	9.737052	1.236442	1.076441	-0.105857	0.003813	-0.006657	0.117782	-0.066052	0.990840	-0.524108	0.843364	0.118522	-0.843468	-0.533267	0.064715
35929	9.743595	1.164425	1.065100	-0.120599	0.001987	-0.013185	0.117776	-0.066212	0.990830	-0.522450	0.844391	0.118527	-0.844497	-0.531619	0.064856
35930	9.759251	1.107917	1.110617	-0.128043	0.000140	-0.011882	0.117783	-0.066305	0.990823	-0.521400	0.845040	0.118530	-0.845144	-0.530576	0.064960
35931	9.765818	1.035928	1.098965	-0.132999	0.002066	-0.012489	0.117763	-0.066372	0.990821	-0.520054	0.845877	0.118473	-0.845976	-0.529233	0.065096
35932	9.679937	1.057183	1.076829	-0.129645	-0.006470	-0.017972	0.117746	-0.066552	0.990811	-0.518982	0.846527	0.118535	-0.846637	-0.528170	0.065136
35933	9.660801	1.053280	1.092146	-0.133924	-0.008658	-0.024190	0.117708	-0.066884	0.990793	-0.517246	0.847570	0.118665	-0.847704	-0.526451	0.065170
35934	9.657596	1.022129	0.997256	-0.131738	-0.011632	-0.028482	0.117701	-0.067180	0.990774	-0.516141	0.848221	0.118830	-0.848378	-0.525365	0.065162
35935	9.709041	1.000046	1.016019	-0.123916	-0.016649	-0.030226	0.117607	-0.067494	0.990764	-0.514828	0.849001	0.118949	-0.849188	-0.524062	0.065101
35936	9.646643	0.979892	0.968633	-0.114944	-0.018186	-0.031172	0.117557	-0.067848	0.990746	-0.513861	0.849559	0.119151	-0.849781	-0.523112	0.065007
35937	9.712650	1.010193	0.980849	-0.106137	-0.026097	-0.024110	0.117431	-0.068228	0.990735	-0.512713	0.850228	0.119323	-0.850491	-0.521975	0.064862
35938	9.714958	0.987715	0.974489	-0.095674	-0.030962	-0.024847	0.117239	-0.068594	0.990732	-0.511916	0.850687	0.119476	-0.850998	-0.521179	0.064620
35939	9.728635	0.985944	0.866580	-0.090015	-0.037539	-0.023282	0.116925	-0.068993	0.990741	-0.510624	0.851451	0.119556	-0.851817	-0.519875	0.064327
35940	9.728714	0.987453	0.863974	-0.082228	-0.033501	-0.023058	0.116702	-0.069357	0.990742	-0.509942	0.851840	0.119700	-0.852256	-0.519191	0.064043
35941	9.715874	0.967382	0.837601	-0.071110	-0.038447	-0.021946	0.116422	-0.069688	0.990752	-0.509253	0.852240	0.119787	-0.852706	-0.518489	0.063730
35942	9.708223	0.985056	0.748305	-0.060006	-0.038877	-0.019827	0.116135	-0.070052	0.990760	-0.508764	0.852514	0.119913	-0.853037	-0.517989	0.063367
35943	9.729555	0.967552	0.725533	-0.051377	-0.042580	-0.022307	0.115754	-0.070460	0.990776	-0.507905	0.853013	0.120002	-0.853600	-0.517111	0.062953
35944	9.715793	1.002561	0.674113	-0.043926	-0.040730	-0.023568	0.115470	-0.070864	0.990780	-0.507549	0.853201	0.120176	-0.853851	-0.516746	0.062552
35945	9.724066	0.964286	0.627623	-0.041115	-0.038711	-0.031535	0.115198	-0.071402	0.990773	-0.506475	0.853804	0.120420	-0.854524	-0.515674	0.062193
35946	9.761853	0.976425	0.595039	-0.032015	-0.034848	-0.027582	0.114985	-0.071810	0.990768	-0.506216	0.853927	0.120641	-0.854707	-0.515414	0.061837
35947	9.770060	0.938415	0.548750	-0.025716	-0.036464	-0.029672	0.114723	-0.072265	0.990766	-0.505549	0.854293	0.120849	-0.855137	-0.514744	0.061474
35948	9.765306	0.879140	0.478274	-0.010954	-0.043130	-0.031756	0.114459	-0.072750	0.990761	-0.505464	0.854304	0.121125	-0.855222	-0.514658	0.061010
35949	9.756989	0.922583	0.517242	-0.002338	-0.042835	-0.026745	0.114150	-0.073132	0.990768	-0.505505	0.854255	0.121297	-0.855239	-0.514685	0.060544
35950	9.706422	0.980010	0.465636	0.006120	-0.047360	-0.033226	0.113857	-0.073652	0.990763	-0.505566	0.854177	0.121597	-0.855243	-0.514741	0.060018
35951	9.699319	1.054870	0.474958	0.009291	-0.052684	-0.035280	0.113484	-0.074216	0.990764	-0.505228	0.854338	0.121866	-0.855492	-0.514391	0.059458
35952	9.646204	1.137080	0.427121	0.005167	-0.057986	-0.045051	0.113160	-0.074891	0.990750	-0.505266	0.854256	0.122283	-0.855512	-0.514430	0.058827
35953	9.696643	1.172516	0.415677	-0.004593	-0.057797	-0.043315	0.112793	-0.075560	0.990741	-0.504873	0.854437	0.122643	-0.855793	-0.514031	0.058226
35954	9.730550	1.179380	0.414095	-0.011029	-0.061560	-0.046166	0.112443	-0.076264	0.990727	-0.504772	0.854436	0.123062	-0.855898	-0.513929	0.057580
35955	9.752715	1.109889	0.412923	-0.021284	-0.060438	-0.042333	0.112055	-0.076943	0.990719	-0.504204	0.854722	0.123409	-0.856284	-0.513353	0.056981
35956	9.750148	1.137529	0.412022	-0.026559	-0.061253	-0.037880	0.111666	-0.077574	0.990713	-0.503979	0.854806	0.123737	-0.856467	-0.513116	0.056357
35957	9.714734	1.107372	0.431174	-0.023729	-0.060285	-0.032857	0.111243	-0.078130	0.990717	-0.503628	0.854979	0.123976	-0.856728	-0.512745	0.055762
35958	9.704081	1.174703	0.473535	-0.025037	-0.060629	-0.030105	0.110820	-0.078690	0.990720	-0.503426	0.855061	0.124227	-0.856902	-0.512521	0.055143
35959	9.677022	1.213364	0.525972	-0.031001	-0.060821	-0.034017	0.110351	-0.079266	0.990727	-0.502860	0.855362	0.124447	-0.857295	-0.511930	0.054531
35960	9.689923	1.238159	0.544257	-0.037810	-0.057769	-0.036272	0.109983	-0.079864	0.990720	-0.502542	0.855505	0.124753	-0.857529	-0.511599	0.053956
35961	9.714265	1.229884	0.486317	-0.050619	-0.050384	-0.041443	0.109628	-0.080479	0.990709	-0.501547	0.856047	0.125039	-0.858156	-0.510595	0.053482
35962	9.731781	1.207798	0.496559	-0.065759	-0.040933	-0.046184	0.109452	-0.081076	0.990680	-0.500978	0.856323	0.125429	-0.858511	-0.510037	0.053109
35963	9.794043	1.124273	0.463121	-0.072361	-0.041571	-0.045461	0.109193	-0.081723	0.990656	-0.499693	0.857022	0.125776	-0.859293	-0.508758	0.052744
35964	9.796073	1.104935	0.455716	-0.078448	-0.027684	-0.052796	0.109163	-0.082308	0.990610	-0.499007	0.857356	0.126225	-0.859695	-0.508100	0.052519
35965	9.775310	1.050102	0.368201	-0.076137	-0.025251	-0.052169	0.109126	-0.082845	0.990570	-0.498096	0.857828	0.126616	-0.860228	-0.507216	0.052346
35966	9.804135	1.105394	0.380271	-0.072837	-0.024685	-0.055719	0.109135	-0.083440	0.990519	-0.497454	0.858129	0.127097	-0.860598	-0.506609	0.052144
35967	9.735225	1.105047	0.370975	-0.069045	-0.021070	-0.053867	0.109133	-0.084043	0.990468	-0.496365	0.858692	0.127553	-0.861227	-0.505554	0.051996
35968	9.727319	1.181236	0.384320	-0.073452	-0.025163	-0.051043	0.109114	-0.084600	0.990423	-0.495722	0.858999	0.127987	-0.861600	-0.504939	0.051791
35969	9.708036	1.181332	0.397574	-0.080258	-0.026111	-0.060735	0.109102	-0.085273	0.990366	-0.494550	0.859598	0.128495	-0.862274	-0.503805	0.051612
35970	9.652786	1.233784	0.383128	-0.086636	-0.030462	-0.057040	0.109066	-0.085908	0.990315	-0.493786	0.859964	0.128982	-0.862717	-0.503072	0.051372
35971	9.670219	1.212756	0.394765	-0.089866	-0.035602	-0.054416	0.108917	-0.086509	0.990279	-0.492814	0.860463	0.129371	-0.863291	-0.502115	0.051086
35972	9.681963	1.208117	0.444834	-0.091550	-0.033117	-0.058529	0.108863	-0.087170	0.990227	-0.492006	0.860851	0.129871	-0.863759	-0.501336	0.050827
35973	9.734293	1.221218	0.431878	-0.097823	-0.031587	-0.056315	0.108741	-0.087806	0.990185	-0.490686	0.861541	0.130285	-0.864525	-0.500037	0.050600
35974	9.696355	1.216018	0.459964	-0.093088	-0.025310	-0.057607	0.108749	-0.088419	0.990129	-0.489864	0.861935	0.130775	-0.864990	-0.499250	0.050421
35975	9.745447	1.221797	0.481542	-0.087548	-0.017746	-0.059546	0.108809	-0.088959	0.990074	-0.489104	0.862297	0.131230	-0.865412	-0.498529	0.050315
35976	9.781549	1.206280	0.479969	-0.087940	-0.010940	-0.058898	0.108946	-0.089512	0.990009	-0.488325	0.862661	0.131736	-0.865835	-0.497798	0.050273
35977	9.818187	1.222248	0.450631	-0.085055	-0.003522	-0.061841	0.109083	-0.089984	0.989951	-0.487365	0.863139	0.132160	-0.866358	-0.496884	0.050299
35978	9.769293	1.140635	0.480281	-0.076565	-0.004564	-0.054425	0.109253	-0.090467	0.989889	-0.486689	0.863449	0.132626	-0.866717	-0.496257	0.050305
35979	9.735028	1.174010	0.448593	-0.069646	-0.001701	-0.053674	0.109342	-0.090982	0.989832	-0.485228	0.864208	0.133036	-0.867524	-0.494840	0.050347
35980	9.685199	1.209875	0.397970	-0.064103	-0.009051	-0.056208	0.109480	-0.091503	0.989768	-0.484656	0.864453	0.133527	-0.867826	-0.494316	0.050293
35981	9.694806	1.260206	0.426913	-0.068218	-0.010407	-0.058395	0.109542	-0.091936	0.989721	-0.483880	0.864831	0.133890	-0.868251	-0.493573	0.050249
35982	9.679005	1.299647	0.379778	-0.078293	-0.011982	-0.064431	0.109693	-0.092542	0.989648	-0.483176	0.865138	0.134455	-0.868625	-0.492923	0.050186
35983	9.672905	1.352854	0.390051	-0.083035	-0.013814	-0.062014	0.109730	-0.093163	0.989586	-0.481835	0.865810	0.134939	-0.869364	-0.491624	0.050116
35984	9.653488	1.353050	0.404823	-0.083885	-0.010606	-0.060296	0.109872	-0.093728	0.989517	-0.481086	0.866145	0.135460	-0.869761	-0.490926	0.050074
35985	9.693931	1.398967	0.471622	-0.078986	-0.007421	-0.065125	0.110029	-0.094355	0.989440	-0.479823	0.866759	0.136014	-0.870439	-0.489721	0.050095
35986	9.686976	1.388693	0.538966	-0.071500	-0.006609	-0.053579	0.110173	-0.094842	0.989377	-0.479187	0.867038	0.136475	-0.870771	-0.489132	0.050077
35987	9.664919	1.411638	0.559765	-0.069275	0.000364	-0.051929	0.110280	-0.095326	0.989319	-0.477915	0.867676	0.136878	-0.871456	-0.487905	0.050129
35988	9.695011	1.379461	0.626244	-0.057849	0.001718	-0.042140	0.110440	-0.095673	0.989267	-0.477410	0.867898	0.137232	-0.871712	-0.487442	0.050176
35989	9.728588	1.386184	0.631267	-0.050647	0.006822	-0.039971	0.110556	-0.096066	0.989216	-0.476193	0.868514	0.137564	-0.872363	-0.486267	0.050273
35990	9.699310	1.339306	0.618223	-0.044921	0.010744	-0.039023	0.110780	-0.096343	0.989164	-0.475804	0.868675	0.137894	-0.872547	-0.485924	0.050391
35991	9.735955	1.353758	0.590533	-0.038894	0.016875	-0.036628	0.110978	-0.096612	0.989116	-0.474962	0.869090	0.138179	-0.872981	-0.485127	0.050563
35992	9.672873	1.335029	0.546275	-0.037117	0.020260	-0.033947	0.111261	-0.096798	0.989066	-0.474646	0.869218	0.138462	-0.873116	-0.484861	0.050765
35993	9.712016	1.294068	0.541697	-0.029654	0.017740	-0.036367	0.111460	-0.097022	0.989021	-0.473925	0.869571	0.138714	-0.873483	-0.484183	0.050941
35994	9.664853	1.304579	0.487493	-0.027072	0.011994	-0.033923	0.111670	-0.097248	0.988976	-0.473697	0.869649	0.139002	-0.873580	-0.483997	0.051047
35995	9.717149	1.316287	0.478212	-0.021486	0.014532	-0.030491	0.111843	-0.097382	0.988943	-0.473359	0.869804	0.139184	-0.873741	-0.483691	0.051185
35996	9.707261	1.337878	0.394260	-0.023790	0.012636	-0.037499	0.112075	-0.097636	0.988892	-0.473155	0.869863	0.139508	-0.873821	-0.483534	0.051293
35997	9.722254	1.338987	0.414375	-0.028032	0.009880	-0.037205	0.112206	-0.097929	0.988848	-0.472336	0.870264	0.139782	-0.874247	-0.482753	0.051393
35998	9.716098	1.389597	0.426461	-0.034750	0.007762	-0.033956	0.112378	-0.098177	0.988804	-0.472040	0.870379	0.140066	-0.874385	-0.482495	0.051468
35999	9.644482	1.409872	0.425055	-0.037951	0.002592	-0.031406	0.112392	-0.098525	0.988767	-0.470813	0.871005	0.140307	-0.875045	-0.481294	0.051508
36000	9.596963	1.356451	0.425720	-0.040855	-0.000376	-0.027404	0.112462	-0.098754	0.988736	-0.470470	0.871155	0.140523	-0.875220	-0.480974	0.051511
36001	9.603635	1.427278	0.460866	-0.041710	-0.007582	-0.025322	0.112366	-0.099094	0.988713	-0.469266	0.871775	0.140705	-0.875878	-0.479780	0.051456
36002	9.609305	1.413584	0.421334	-0.043629	-0.018874	-0.017630	0.112228	-0.099327	0.988706	-0.468910	0.871947	0.140823	-0.876087	-0.479418	0.051281
36003	9.608972	1.383158	0.447742	-0.036560	-0.025565	-0.012599	0.111916	-0.099536	0.988720	-0.468145	0.872360	0.140812	-0.876536	-0.478623	0.051034
36004	9.645924	1.363773	0.444161	-0.032745	-0.026412	-0.011843	0.111684	-0.099754	0.988724	-0.467890	0.872486	0.140879	-0.876701	-0.478348	0.050769
36005	9.670973	1.343371	0.545831	-0.020393	-0.032757	-0.004855	0.111232	-0.099977	0.988753	-0.466957	0.872998	0.140804	-0.877256	-0.477367	0.050421
36006	9.707740	1.259865	0.597113	-0.010793	-0.034169	-0.004227	0.110897	-0.100165	0.988771	-0.466904	0.873026	0.140806	-0.877327	-0.477276	0.050048
36007	9.738882	1.223432	0.659140	-0.000227	-0.033481	-0.000299	0.110401	-0.100421	0.988801	-0.465898	0.873574	0.140737	-0.877924	-0.476218	0.049657
36008	9.767421	1.242077	0.698614	0.007698	-0.032965	0.002647	0.110044	-0.100544	0.988828	-0.466014	0.873522	0.140680	-0.877907	-0.476289	0.049271
36009	9.733480	1.238984	0.691471	0.016887	-0.031474	-0.003556	0.109586	-0.100790	0.988854	-0.465201	0.873962	0.140633	-0.878396	-0.475427	0.048886
36010	9.743468	1.284667	0.718192	0.021140	-0.022211	-0.011709	0.109389	-0.100986	0.988856	-0.465419	0.873831	0.140725	-0.878305	-0.475626	0.048587
36011	9.724916	1.280291	0.730438	0.026128	-0.024073	-0.011194	0.109051	-0.101299	0.988861	-0.464661	0.874223	0.140798	-0.878748	-0.474839	0.048265
36012	9.715174	1.268328	0.670395	0.027896	-0.020681	-0.008525	0.108853	-0.101460	0.988866	-0.464942	0.874064	0.140862	-0.878624	-0.475099	0.047972
36013	9.696626	1.263838	0.682801	0.030371	-0.021319	-0.011477	0.108547	-0.101687	0.988877	-0.464508	0.874289	0.140892	-0.878891	-0.474635	0.047667
36014	9.712339	1.294496	0.670795	0.038504	-0.023921	-0.012065	0.108337	-0.101894	0.988879	-0.464879	0.874075	0.140995	-0.878721	-0.474984	0.047326
36015	9.709484	1.319614	0.673401	0.045092	-0.023199	-0.012819	0.107976	-0.102242	0.988882	-0.464136	0.874455	0.141090	-0.879158	-0.474211	0.046966
36016	9.696718	1.299894	0.646446	0.048911	-0.024047	-0.012061	0.107765	-0.102450	0.988884	-0.464599	0.874192	0.141198	-0.878940	-0.474650	0.046609
36017	9.712389	1.298745	0.661793	0.045597	-0.030622	-0.007005	0.107275	-0.102797	0.988901	-0.463692	0.874669	0.141224	-0.879478	-0.473695	0.046164
36018	9.702561	1.255021	0.628763	0.050044	-0.030991	-0.010819	0.106997	-0.103027	0.988907	-0.464166	0.874402	0.141319	-0.879262	-0.474138	0.045737
36019	9.684124	1.250512	0.639853	0.049798	-0.033788	-0.005823	0.106508	-0.103324	0.988929	-0.463565	0.874721	0.141317	-0.879639	-0.473484	0.045268
36020	9.687173	1.259495	0.601978	0.060365	-0.042953	-0.007891	0.106111	-0.103585	0.988944	-0.464132	0.874409	0.141388	-0.879387	-0.474004	0.044708
36021	9.660245	1.326043	0.627863	0.070480	-0.045294	-0.009323	0.105580	-0.103914	0.988967	-0.464046	0.874449	0.141422	-0.879497	-0.473857	0.044103
36022	9.654680	1.374845	0.633150	0.074134	-0.046971	-0.012476	0.105169	-0.104234	0.988977	-0.464729	0.874066	0.141543	-0.879185	-0.474492	0.043484
36023	9.710331	1.330326	0.639250	0.074266	-0.045595	-0.014937	0.104594	-0.104806	0.988977	-0.463789	0.874536	0.141728	-0.879750	-0.473501	0.042864
36024	9.747378	1.343676	0.604118	0.079136	-0.042382	-0.019782	0.104257	-0.105168	0.988974	-0.464510	0.874122	0.141923	-0.879409	-0.474185	0.042282
36025	9.755905	1.306399	0.555133	0.080038	-0.035762	-0.015437	0.103802	-0.105649	0.988971	-0.463917	0.874407	0.142103	-0.879776	-0.473551	0.041753
36026	9.789938	1.343395	0.526746	0.082515	-0.020078	-0.020283	0.103664	-0.105910	0.988957	-0.464667	0.873976	0.142303	-0.879397	-0.474287	0.041387
36027	9.820931	1.435561	0.476593	0.082658	-0.008830	-0.016782	0.103525	-0.106115	0.988950	-0.464908	0.873828	0.142429	-0.879286	-0.474516	0.041129
36028	9.762202	1.507626	0.468856	0.071953	0.005415	-0.020128	0.103610	-0.106253	0.988926	-0.465565	0.873446	0.142623	-0.878928	-0.475186	0.041030
36029	9.733378	1.490490	0.426203	0.066759	0.010407	-0.017127	0.103662	-0.106272	0.988919	-0.465920	0.873247	0.142681	-0.878734	-0.475548	0.041008
36030	9.717352	1.494732	0.408151	0.048743	0.018122	-0.020112	0.103859	-0.106350	0.988890	-0.466372	0.872976	0.142865	-0.878470	-0.476029	0.041068
36031	9.725555	1.457153	0.365416	0.043248	0.020905	-0.018559	0.103874	-0.106573	0.988864	-0.465313	0.873515	0.143020	-0.879030	-0.474988	0.041146
36032	9.681119	1.410648	0.334349	0.037578	0.022856	-0.020936	0.104117	-0.106635	0.988832	-0.465667	0.873296	0.143207	-0.878814	-0.475376	0.041268
36033	9.723586	1.376036	0.295843	0.033985	0.023980	-0.011339	0.104160	-0.106689	0.988822	-0.464958	0.873668	0.143243	-0.879184	-0.474681	0.041395
36034	9.737804	1.290016	0.243381	0.041133	0.023218	-0.007732	0.104345	-0.106635	0.988808	-0.465357	0.873446	0.143301	-0.878951	-0.475101	0.041516
36035	9.752020	1.235038	0.162734	0.048318	0.028362	-0.005605	0.104403	-0.106746	0.988790	-0.464484	0.873897	0.143386	-0.879406	-0.474247	0.041656
36036	9.733252	1.292922	0.123251	0.065369	0.034848	-0.007797	0.104690	-0.106637	0.988771	-0.465095	0.873560	0.143455	-0.879049	-0.474891	0.041857
36037	9.721559	1.357057	0.174353	0.085672	0.029602	-0.004158	0.104745	-0.106598	0.988770	-0.464815	0.873713	0.143434	-0.879190	-0.474619	0.041968
36038	9.702887	1.383431	0.162382	0.089212	0.026524	-0.004784	0.104944	-0.106503	0.988759	-0.465639	0.873266	0.143484	-0.878731	-0.475462	0.042052
36039	9.697066	1.399743	0.202109	0.090703	0.021265	0.004375	0.104893	-0.106580	0.988756	-0.465108	0.873546	0.143502	-0.879018	-0.474930	0.042057
36040	9.650247	1.374122	0.175170	0.084629	0.013171	0.010984	0.104901	-0.106410	0.988773	-0.465908	0.873137	0.143394	-0.878593	-0.475720	0.042016
36041	9.657360	1.379889	0.265689	0.076237	0.003130	0.010599	0.104610	-0.106470	0.988798	-0.465045	0.873617	0.143267	-0.879085	-0.474823	0.041876
36042	9.617545	1.391907	0.300080	0.056195	0.004683	0.009877	0.104549	-0.106350	0.988817	-0.465594	0.873343	0.143158	-0.878801	-0.475355	0.041791
36043	9.664614	1.353967	0.383814	0.047122	-0.005260	0.007622	0.104270	-0.106377	0.988844	-0.465151	0.873600	0.143028	-0.879069	-0.474875	0.041609
36044	9.664716	1.353464	0.383040	0.032116	0.000337	0.005941	0.104189	-0.106312	0.988859	-0.465484	0.873436	0.142948	-0.878902	-0.475192	0.041516
36045	9.698979	1.294318	0.443370	0.025053	-0.003437	0.001318	0.103960	-0.106302	0.988884	-0.465087	0.873670	0.142811	-0.879140	-0.474764	0.041387
36046	9.699004	1.263363	0.471387	0.024504	-0.001979	-0.003034	0.103900	-0.106326	0.988888	-0.465344	0.873532	0.142816	-0.879011	-0.475012	0.041282
36047	9.764383	1.294307	0.483451	0.026396	0.002811	-0.002894	0.103676	-0.106523	0.988890	-0.464138	0.874172	0.142826	-0.879674	-0.473790	0.041189
36048	9.714502	1.262571	0.489725	0.021052	0.002978	-0.011308	0.103698	-0.106596	0.988880	-0.464357	0.874042	0.142912	-0.879556	-0.474013	0.041138
36049	9.698695	1.234869	0.499920	0.020123	0.006741	-0.016090	0.103546	-0.106959	0.988857	-0.462755	0.874863	0.143085	-0.880418	-0.472414	0.041093
36050	9.689771	1.276507	0.543808	0.021976	0.005632	-0.014446	0.103606	-0.107047	0.988841	-0.462978	0.874726	0.143202	-0.880294	-0.472648	0.041067
36051	9.652496	1.298363	0.545008	0.031690	-0.000326	-0.014731	0.103396	-0.107378	0.988827	-0.461643	0.875409	0.143333	-0.881019	-0.471306	0.040943
36052	9.686364	1.334868	0.519746	0.028617	0.002319	-0.022576	0.103464	-0.107553	0.988801	-0.461917	0.875232	0.143533	-0.880868	-0.471594	0.040875
36053	9.688952	1.344496	0.485704	0.023956	-0.004022	-0.021203	0.103209	-0.107934	0.988786	-0.460383	0.876016	0.143679	-0.881700	-0.470050	0.040722
36054	9.694432	1.361367	0.417888	0.021602	-0.001980	-0.020772	0.103231	-0.108114	0.988764	-0.460597	0.875874	0.143858	-0.881586	-0.470272	0.040621
36055	9.734119	1.350535	0.382638	0.019247	0.000063	-0.020343	0.103101	-0.108440	0.988742	-0.459590	0.876373	0.144040	-0.882127	-0.469266	0.040517
36056	9.715342	1.347055	0.397507	0.021012	0.003485	-0.017707	0.103157	-0.108567	0.988722	-0.459802	0.876238	0.144188	-0.882010	-0.469490	0.040471
36057	9.686725	1.329141	0.355528	0.016131	0.006716	-0.020775	0.102968	-0.109054	0.988688	-0.457714	0.877289	0.144436	-0.883117	-0.467409	0.040417
36058	9.707969	1.312377	0.335729	0.024089	0.000843	-0.009851	0.102964	-0.109125	0.988681	-0.457961	0.877148	0.144508	-0.882989	-0.467656	0.040340
36059	9.744909	1.293343	0.334487	0.024630	0.005800	-0.013424	0.102871	-0.109173	0.988685	-0.457431	0.877429	0.144483	-0.883275	-0.467118	0.040323
36060	9.756454	1.230877	0.286300	0.030435	0.005218	-0.013490	0.102923	-0.109255	0.988671	-0.457730	0.877255	0.144593	-0.883114	-0.467426	0.040280
36061	9.727959	1.212378	0.243933	0.038980	0.000285	-0.013544	0.102759	-0.109518	0.988659	-0.456863	0.877687	0.144711	-0.883582	-0.466552	0.040156
36062	9.730566	1.252227	0.181017	0.049918	-0.000797	-0.015526	0.102767	-0.109646	0.988644	-0.457332	0.877420	0.144849	-0.883338	-0.467024	0.040025
36063	9.739080	1.244637	0.108222	0.053368	0.000661	-0.015160	0.102495	-0.110024	0.988630	-0.455765	0.878212	0.144987	-0.884179	-0.465444	0.039867
36064	9.714451	1.288233	0.131994	0.061121	-0.005560	-0.014552	0.102456	-0.110166	0.988618	-0.456335	0.877894	0.145120	-0.883890	-0.466010	0.039673
36065	9.698687	1.291185	0.111523	0.067326	-0.014852	-0.006227	0.102144	-0.110421	0.988622	-0.455863	0.878130	0.145179	-0.884169	-0.465505	0.039358
36066	9.664561	1.287695	0.105316	0.078238	-0.018308	0.007153	0.101893	-0.110432	0.988647	-0.456606	0.877756	0.145104	-0.883815	-0.466207	0.039013
36067	9.690124	1.330385	0.148515	0.093259	-0.036206	0.018405	0.100964	-0.110856	0.988695	-0.454255	0.879001	0.144945	-0.885132	-0.463754	0.038391
36068	9.654445	1.403935	0.244827	0.095478	-0.045529	0.022063	0.100405	-0.110861	0.988751	-0.455166	0.878566	0.144728	-0.884727	-0.464578	0.037752
36069	9.621757	1.484649	0.306445	0.079013	-0.057472	0.021218	0.099443	-0.111208	0.988809	-0.453845	0.879281	0.144532	-0.885514	-0.463139	0.036967
36070	9.654856	1.534513	0.437093	0.061274	-0.063849	0.021549	0.098723	-0.111303	0.988871	-0.454453	0.879004	0.144307	-0.885283	-0.463642	0.036196
36071	9.679446	1.625167	0.610998	0.046073	-0.059123	0.015887	0.097884	-0.111433	0.988940	-0.453906	0.879335	0.144010	-0.885657	-0.462982	0.035493
36072	9.725362	1.728786	0.737047	0.011582	-0.051516	0.008736	0.097332	-0.111583	0.988977	-0.454061	0.879274	0.143893	-0.885638	-0.463062	0.034916
36073	9.761543	1.756249	0.865565	-0.019936	-0.035599	0.002451	0.096790	-0.111699	0.989017	-0.453114	0.879793	0.143708	-0.886182	-0.462047	0.034543
36074	9.750612	1.758542	0.969289	-0.062188	-0.021757	-0.005318	0.096565	-0.111834	0.989024	-0.452602	0.880057	0.143704	-0.886469	-0.461511	0.034367
36075	9.768066	1.646607	0.911257	-0.092787	-0.015490	-0.005215	0.096054	-0.112322	0.989018	-0.449254	0.881760	0.143772	-0.888225	-0.458131	0.034235
36076	9.735683	1.502315	0.861129	-0.102239	-0.000920	-0.011482	0.096041	-0.112415	0.989009	-0.448379	0.882198	0.143816	-0.888669	-0.457263	0.034322
36077	9.736987	1.423618	0.757549	-0.097010	0.003955	-0.008477	0.095999	-0.112476	0.989006	-0.447133	0.882832	0.143803	-0.889301	-0.456022	0.034459
36078	9.719626	1.370726	0.640597	-0.086919	0.011997	-0.010348	0.096095	-0.112500	0.988994	-0.446394	0.883200	0.143840	-0.889662	-0.455304	0.034652
36079	9.730781	1.337928	0.566038	-0.072560	0.016393	-0.004579	0.096032	-0.112577	0.988992	-0.444587	0.884116	0.143809	-0.890573	-0.453503	0.034854
36080	9.733537	1.314328	0.563921	-0.057466	0.022581	-0.005890	0.096203	-0.112513	0.988982	-0.444114	0.884354	0.143811	-0.890791	-0.453056	0.035109
36081	9.717617	1.316435	0.548512	-0.035600	0.030338	-0.004012	0.096073	-0.112730	0.988970	-0.441308	0.885753	0.143836	-0.892198	-0.450259	0.035349
36082	9.683460	1.281953	0.576658	-0.016063	0.023813	0.000349	0.096228	-0.112607	0.988969	-0.441209	0.885809	0.143792	-0.892230	-0.450179	0.035556
36083	9.707517	1.270702	0.525570	-0.001508	0.025054	0.002612	0.096081	-0.112683	0.988975	-0.439197	0.886822	0.143712	-0.893238	-0.448162	0.035717
36084	9.707285	1.301362	0.498966	0.014991	0.020659	0.005540	0.096185	-0.112528	0.988982	-0.439380	0.886745	0.143628	-0.893137	-0.448354	0.035849
36085	9.746810	1.350068	0.408520	0.017380	0.024510	0.003600	0.096173	-0.112420	0.988996	-0.438617	0.887144	0.143495	-0.893513	-0.447591	0.036010
36086	9.743640	1.404694	0.386926	0.022924	0.027598	0.000594	0.096361	-0.112278	0.988994	-0.438867	0.887026	0.143462	-0.893370	-0.447860	0.036199
36087	9.762009	1.410157	0.374460	0.018713	0.030746	-0.000624	0.096412	-0.112224	0.988995	-0.437979	0.887474	0.143401	-0.893800	-0.446984	0.036411
36088	9.729410	1.358737	0.239385	0.015490	0.029636	0.009371	0.096579	-0.111995	0.989004	-0.438171	0.887400	0.143278	-0.893688	-0.447190	0.036631
36089	9.656955	1.350450	0.110267	0.011297	0.026383	0.016092	0.096519	-0.111845	0.989027	-0.437156	0.887933	0.143074	-0.894192	-0.446168	0.036809
36090	9.628710	1.359566	0.041115	0.011785	0.013143	0.023493	0.096477	-0.111564	0.989063	-0.437328	0.887890	0.142811	-0.894112	-0.446323	0.036871
36091	9.544881	1.414042	-0.041991	0.003228	-0.004142	0.027125	0.096252	-0.111051	0.989143	-0.437841	0.887724	0.142270	-0.893885	-0.446781	0.036823
36092	9.581046	1.367291	-0.173761	-0.007478	-0.022548	0.027695	0.095873	-0.110892	0.989197	-0.437846	0.887772	0.141958	-0.893924	-0.446726	0.036560
36093	9.592967	1.300544	-0.224966	-0.007078	-0.041184	0.030201	0.095150	-0.110866	0.989270	-0.436792	0.888353	0.141568	-0.894516	-0.445576	0.036101
36094	9.633361	1.222421	-0.206661	-0.011477	-0.051198	0.034536	0.094484	-0.110774	0.989344	-0.436767	0.888426	0.141187	-0.894599	-0.445453	0.035560
36095	9.715115	1.154650	-0.094751	-0.012009	-0.056163	0.038143	0.093484	-0.110785	0.989438	-0.435032	0.889357	0.140682	-0.895549	-0.443589	0.034945
36096	9.762589	1.145173	-0.044155	-0.009731	-0.053688	0.038721	0.092778	-0.110665	0.989518	-0.435026	0.889427	0.140260	-0.895625	-0.443479	0.034377
36097	9.764643	1.165361	0.080011	-0.001827	-0.052661	0.035299	0.091957	-0.110603	0.989601	-0.434263	0.889870	0.139810	-0.896080	-0.442604	0.033799
36098	9.745191	1.266724	0.167051	0.001045	-0.043349	0.023341	0.091411	-0.110573	0.989655	-0.434339	0.889875	0.139543	-0.896099	-0.442602	0.033318
36099	9.707544	1.301579	0.326926	-0.004854	-0.048155	0.018528	0.090434	-0.110945	0.989703	-0.431518	0.891278	0.139341	-0.897560	-0.439676	0.032727
36100	9.718262	1.252877	0.437217	-0.014312	-0.043474	0.006391	0.089960	-0.111065	0.989733	-0.431440	0.891332	0.139237	-0.897645	-0.439536	0.032267
36101	9.700213	1.215951	0.476965	-0.023065	-0.045287	0.004071	0.089298	-0.111202	0.989778	-0.430296	0.891917	0.139029	-0.898260	-0.438312	0.031797
36102	9.727619	1.118452	0.471667	-0.020027	-0.047427	0.005514	0.088792	-0.111346	0.989807	-0.430165	0.891995	0.138932	-0.898373	-0.438117	0.031304
36103	9.740787	1.139832	0.490805	-0.015961	-0.045546	0.001290	0.088253	-0.111499	0.989838	-0.429714	0.892231	0.138817	-0.898642	-0.437598	0.030830
36104	9.756795	1.137478	0.505361	-0.018510	-0.040332	0.005206	0.087812	-0.111614	0.989864	-0.429597	0.892302	0.138723	-0.898741	-0.437424	0.030406
36105	9.716888	1.212846	0.479733	-0.018500	-0.032036	-0.011688	0.087101	-0.112215	0.989859	-0.426493	0.893770	0.138850	-0.900287	-0.434262	0.029989
36106	9.755678	1.279416	0.547280	-0.016411	-0.030410	-0.015054	0.086835	-0.112467	0.989854	-0.426377	0.893808	0.138958	-0.900368	-0.434117	0.029661
36107	9.755624	1.280850	0.544877	-0.022181	-0.023916	-0.016492	0.086390	-0.112908	0.989843	-0.424520	0.894669	0.139103	-0.901288	-0.432225	0.029359
36108	9.755695	1.251729	0.571797	-0.023698	-0.018699	-0.025649	0.086274	-0.113204	0.989819	-0.424329	0.894727	0.139314	-0.901389	-0.432028	0.029156
36109	9.748033	1.215718	0.508213	-0.026958	-0.019308	-0.022056	0.085912	-0.113472	0.989820	-0.422835	0.895428	0.139352	-0.902125	-0.430503	0.028948
36110	9.753282	1.201528	0.468417	-0.022189	-0.011596	-0.025968	0.085861	-0.113740	0.989793	-0.422657	0.895479	0.139566	-0.902213	-0.430327	0.028814
36111	9.765657	1.257042	0.462515	-0.013889	-0.006957	-0.030523	0.085744	-0.113955	0.989779	-0.421929	0.895803	0.139687	-0.902565	-0.429593	0.028729
36112	9.762122	1.314980	0.438578	-0.007946	-0.000266	-0.034649	0.085832	-0.114252	0.989737	-0.421872	0.895783	0.139991	-0.902583	-0.429558	0.028687
36113	9.724638	1.338341	0.440259	-0.007077	0.000503	-0.028872	0.085653	-0.114606	0.989712	-0.420270	0.896505	0.140184	-0.903348	-0.427953	0.028622
36114	9.719328	1.310823	0.345016	-0.005833	0.007269	-0.039541	0.085828	-0.114914	0.989661	-0.420228	0.896469	0.140537	-0.903350	-0.427945	0.028652
36115	9.714628	1.221211	0.307489	0.009095	0.010218	-0.029488	0.085726	-0.115177	0.989639	-0.418765	0.897131	0.140686	-0.904039	-0.426487	0.028675
36116	9.728130	1.167675	0.226101	0.022675	0.009315	-0.030538	0.085882	-0.115396	0.989600	-0.418989	0.896983	0.140958	-0.903921	-0.426737	0.028685
36117	9.714589	1.179711	0.174437	0.036328	0.007899	-0.025161	0.085808	-0.115690	0.989572	-0.418037	0.897395	0.141162	-0.904368	-0.425790	0.028641
36118	9.734960	1.225914	0.097233	0.047442	0.007673	-0.023271	0.085918	-0.115850	0.989544	-0.418491	0.897151	0.141369	-0.904148	-0.426261	0.028600
36119	9.707498	1.294139	0.127358	0.052183	0.009477	-0.025640	0.085909	-0.115949	0.989533	-0.418238	0.897257	0.141447	-0.904266	-0.426012	0.028588
36120	9.682903	1.338832	0.152218	0.054637	0.002885	-0.027022	0.085992	-0.116163	0.989501	-0.418754	0.896977	0.141693	-0.904019	-0.426541	0.028489
36121	9.676690	1.388881	0.161261	0.061902	-0.002404	-0.024359	0.085841	-0.116506	0.989473	-0.418149	0.897223	0.141921	-0.904313	-0.425930	0.028302
36122	9.655761	1.347531	0.237101	0.061075	-0.015506	-0.020618	0.085731	-0.116742	0.989455	-0.418729	0.896924	0.142105	-0.904056	-0.426496	0.028011
36123	9.652608	1.373162	0.239761	0.053483	-0.014330	-0.015740	0.085340	-0.117053	0.989452	-0.417561	0.897455	0.142184	-0.904632	-0.425291	0.027712
36124	9.699454	1.400328	0.264148	0.045507	-0.020786	-0.017155	0.085167	-0.117279	0.989440	-0.418003	0.897227	0.142329	-0.904444	-0.425711	0.027391
36125	9.680529	1.427612	0.247724	0.039298	-0.023804	-0.015964	0.084647	-0.117770	0.989427	-0.416302	0.897990	0.142502	-0.905278	-0.423963	0.026984
36126	9.730364	1.430917	0.266529	0.028849	-0.029574	-0.014456	0.084383	-0.118010	0.989421	-0.416596	0.897835	0.142616	-0.905167	-0.424223	0.026599
36127	9.732805	1.439412	0.229754	0.014764	-0.027729	-0.011361	0.083914	-0.118262	0.989430	-0.415509	0.898339	0.142613	-0.905710	-0.423084	0.026244
36128	9.738587	1.393214	0.217311	0.006412	-0.025970	-0.014768	0.083683	-0.118488	0.989423	-0.415600	0.898280	0.142724	-0.905690	-0.423147	0.025927
36129	9.760206	1.345138	0.223563	0.004625	-0.025363	-0.009990	0.083558	-0.118375	0.989447	-0.416703	0.897789	0.142599	-0.905194	-0.424220	0.025690
36130	9.738790	1.364703	0.241095	0.013307	-0.023037	-0.014095	0.083351	-0.118583	0.989440	-0.416857	0.897700	0.142704	-0.905143	-0.424349	0.025393
36131	9.727726	1.399083	0.315902	0.016551	-0.018391	-0.010294	0.083069	-0.118745	0.989444	-0.416431	0.897895	0.142720	-0.905364	-0.423891	0.025138
36132	9.700407	1.466083	0.343395	0.017439	-0.021649	-0.011904	0.082866	-0.118928	0.989439	-0.416624	0.897792	0.142805	-0.905294	-0.424058	0.024848
36133	9.708161	1.475120	0.431756	0.011446	-0.021941	-0.015726	0.082533	-0.119201	0.989434	-0.415850	0.898138	0.142890	-0.905680	-0.423249	0.024557
36134	9.726864	1.451019	0.442985	0.015177	-0.024146	-0.012437	0.082310	-0.119398	0.989429	-0.416023	0.898044	0.142979	-0.905621	-0.423393	0.024245
36135	9.669320	1.428939	0.519899	0.026992	-0.018531	-0.010244	0.081666	-0.119912	0.989420	-0.413277	0.899291	0.143101	-0.906936	-0.420591	0.023885
36136	9.666321	1.453703	0.522492	0.039590	-0.017537	-0.007154	0.081480	-0.120034	0.989420	-0.413675	0.899101	0.143144	-0.906771	-0.420962	0.023604
36137	9.647964	1.449286	0.535639	0.048068	-0.012032	-0.007796	0.081175	-0.120191	0.989427	-0.413104	0.899364	0.143142	-0.907059	-0.420356	0.023354
36138	9.752915	1.468178	0.510244	0.053686	-0.003531	-0.005964	0.081111	-0.120243	0.989425	-0.413631	0.899116	0.143176	-0.906824	-0.420870	0.023192
36139	9.746430	1.368419	0.505508	0.066485	0.004239	-0.000510	0.080969	-0.120187	0.989444	-0.413591	0.899153	0.143065	-0.906855	-0.420808	0.023095
36140	9.770165	1.357343	0.451631	0.075945	0.011895	0.002112	0.081012	-0.120102	0.989451	-0.414326	0.898820	0.143024	-0.906516	-0.421542	0.023054
36141	9.760205	1.311715	0.424177	0.082858	0.020721	0.001243	0.080734	-0.120203	0.989461	-0.412649	0.899602	0.142956	-0.907305	-0.419842	0.023027
36142	9.786385	1.307524	0.338079	0.079722	0.027376	0.000775	0.080923	-0.120065	0.989463	-0.413418	0.899253	0.142929	-0.906938	-0.420628	0.023133
36143	9.736266	1.305793	0.318245	0.068505	0.032124	-0.000166	0.080926	-0.119928	0.989479	-0.412787	0.899565	0.142791	-0.907225	-0.420000	0.023294
36144	9.741131	1.320155	0.253331	0.065182	0.037900	-0.004553	0.081232	-0.119793	0.989470	-0.413420	0.899271	0.142813	-0.906910	-0.420668	0.023525
36145	9.730156	1.336453	0.170111	0.054950	0.034844	-0.008054	0.081147	-0.119963	0.989456	-0.411525	0.900129	0.142883	-0.907779	-0.418781	0.023675
36146	9.710670	1.393812	0.130010	0.059914	0.039333	-0.015425	0.081510	-0.119920	0.989432	-0.412102	0.899844	0.143012	-0.907484	-0.419404	0.023927
36147	9.669828	1.469830	0.109507	0.061775	0.032329	-0.012183	0.081839	-0.119733	0.989427	-0.413051	0.899410	0.143005	-0.907023	-0.420388	0.024151
36148	9.622614	1.445345	0.084815	0.057346	0.022790	-0.014186	0.082047	-0.119748	0.989408	-0.413605	0.899137	0.143121	-0.906752	-0.420967	0.024243
36149	9.625893	1.391958	0.110049	0.062534	0.010012	-0.006524	0.082106	-0.119562	0.989426	-0.414414	0.898784	0.142998	-0.906377	-0.421772	0.024248
36150	9.631411	1.375270	0.071257	0.068014	-0.000527	0.002540	0.082034	-0.119524	0.989436	-0.415078	0.898485	0.142951	-0.906080	-0.422420	0.024094
36151	9.641757	1.390149	0.126702	0.077056	-0.008252	0.009447	0.081677	-0.119516	0.989467	-0.414686	0.898693	0.142782	-0.906291	-0.421980	0.023840
36152	9.719650	1.473120	0.129574	0.078919	-0.015253	0.012706	0.081429	-0.119450	0.989495	-0.415457	0.898360	0.142637	-0.905961	-0.422708	0.023526
36153	9.714807	1.458202	0.194454	0.071706	-0.016340	0.018001	0.080895	-0.119369	0.989549	-0.414733	0.898745	0.142319	-0.906340	-0.421911	0.023197
36154	9.759546	1.475923	0.251934	0.060284	-0.018366	0.014674	0.080610	-0.119297	0.989581	-0.415337	0.898493	0.142149	-0.906089	-0.422468	0.022879
36155	9.747439	1.421598	0.255826	0.045284	-0.013206	0.019272	0.080333	-0.119117	0.989625	-0.415695	0.898370	0.141878	-0.905949	-0.422780	0.022653
36156	9.687644	1.390697	0.367277	0.044288	-0.011286	0.023383	0.080077	-0.118938	0.989667	-0.416161	0.898195	0.141618	-0.905758	-0.423201	0.022427
36157	9.682492	1.405839	0.403903	0.044401	-0.009947	0.020880	0.079466	-0.118911	0.989720	-0.414379	0.899070	0.141291	-0.906629	-0.421347	0.022171
36158	9.640625	1.410805	0.471200	0.042038	-0.007893	0.021277	0.079249	-0.118736	0.989758	-0.414823	0.898903	0.141051	-0.906445	-0.421752	0.021983
36159	9.638442	1.402250	0.503598	0.031974	-0.010037	0.021644	0.078992	-0.118449	0.989813	-0.415202	0.898785	0.140690	-0.906293	-0.422086	0.021816
36160	9.691695	1.378990	0.519620	0.020758	-0.009361	0.013263	0.078795	-0.118352	0.989841	-0.415446	0.898697	0.140525	-0.906198	-0.422298	0.021644
36161	9.663640	1.326522	0.506359	0.013756	-0.007732	0.013500	0.078462	-0.118271	0.989877	-0.414728	0.899065	0.140294	-0.906556	-0.421537	0.021493
36162	9.685141	1.306760	0.485548	0.013960	-0.010940	0.010063	0.078264	-0.118209	0.989900	-0.414909	0.899003	0.140158	-0.906491	-0.421687	0.021314
36163	9.740735	1.291173	0.468080	0.019718	-0.005206	0.002006	0.077937	-0.118169	0.989930	-0.413973	0.899465	0.139962	-0.906947	-0.420712	0.021183
36164	9.777045	1.331835	0.407539	0.030581	-0.001795	0.000990	0.077860	-0.118150	0.989939	-0.414297	0.899322	0.139919	-0.906805	-0.421022	0.021072
36165	9.768228	1.403350	0.420454	0.033648	0.001969	0.000870	0.077601	-0.118250	0.989947	-0.413260	0.899806	0.139877	-0.907301	-0.419960	0.020958
36166	9.800421	1.350367	0.324300	0.031003	0.007677	-0.001727	0.077620	-0.118215	0.989950	-0.413586	0.899659	0.139862	-0.907150	-0.420285	0.020939
36167	9.790882	1.273790	0.326759	0.036124	0.011246	0.003725	0.077633	-0.118070	0.989966	-0.413890	0.899537	0.139742	-0.907010	-0.420586	0.020966
36168	9.765157	1.228487	0.281918	0.042630	0.020577	0.011296	0.077716	-0.117864	0.989984	-0.414332	0.899356	0.139600	-0.906802	-0.421031	0.021059
36169	9.702331	1.203161	0.238768	0.052814	0.024042	0.008440	0.077717	-0.117568	0.990019	-0.414277	0.899423	0.139330	-0.906827	-0.420971	0.021194
36170	9.687018	1.173053	0.251131	0.055835	0.020134	0.018875	0.077764	-0.117296	0.990048	-0.414844	0.899195	0.139116	-0.906563	-0.421534	0.021265
36171	9.676464	1.186006	0.166274	0.057134	0.020434	0.016182	0.077978	-0.116755	0.990095	-0.416592	0.898442	0.138757	-0.905743	-0.423285	0.021420
36172	9.682090	1.167462	0.128893	0.071060	0.011693	0.010942	0.077981	-0.116589	0.990114	-0.417290	0.898138	0.138625	-0.905421	-0.423975	0.021386
36173	9.706073	1.154196	0.075013	0.091776	-0.001371	0.010541	0.077889	-0.116260	0.990160	-0.418551	0.897599	0.138316	-0.904847	-0.425206	0.021253
36174	9.674933	1.125901	0.065703	0.113700	-0.009592	0.008375	0.077710	-0.116207	0.990180	-0.419633	0.897109	0.138217	-0.904361	-0.426253	0.020950
36175	9.683419	1.084075	0.020521	0.126849	-0.019644	0.003865	0.077232	-0.116336	0.990203	-0.419399	0.897232	0.138125	-0.904511	-0.425958	0.020504
36176	9.728949	1.022291	-0.026743	0.139209	-0.030982	0.000045	0.076895	-0.116449	0.990215	-0.420704	0.896623	0.138113	-0.903933	-0.427208	0.019955
36177	9.710226	1.047140	-0.046028	0.146012	-0.041220	0.006601	0.076300	-0.116574	0.990247	-0.421260	0.896382	0.137983	-0.903725	-0.427679	0.019285
36178	9.712362	1.083103	-0.115587	0.157311	-0.050222	0.000497	0.075786	-0.116767	0.990264	-0.422728	0.895693	0.137968	-0.903082	-0.429068	0.018521
36179	9.720688	1.271078	-0.051988	0.157131	-0.052932	0.005662	0.075286	-0.116738	0.990305	-0.424715	0.894783	0.137766	-0.902191	-0.430970	0.017784
36180	9.679853	1.397222	0.048574	0.141178	-0.058217	-0.007650	0.074736	-0.117040	0.990311	-0.426030	0.894149	0.137826	-0.901617	-0.432202	0.016962
36181	9.657822	1.499130	0.162841	0.114494	-0.067661	-0.007137	0.074039	-0.117224	0.990342	-0.426961	0.893723	0.137708	-0.901234	-0.433033	0.016120
36182	9.648098	1.475522	0.290209	0.087209	-0.071549	-0.003721	0.073353	-0.117549	0.990354	-0.427791	0.893324	0.137718	-0.900896	-0.433767	0.015241
36183	9.615056	1.412547	0.338541	0.063579	-0.077212	-0.003378	0.072504	-0.117850	0.990381	-0.427844	0.893314	0.137621	-0.900940	-0.433707	0.014347
36184	9.616337	1.352983	0.390108	0.042025	-0.077143	0.000891	0.071747	-0.118158	0.990399	-0.428271	0.893116	0.137577	-0.900798	-0.434030	0.013475
36185	9.702046	1.299355	0.466470	0.038179	-0.076300	0.000081	0.070813	-0.118591	0.990415	-0.427444	0.893516	0.137550	-0.901264	-0.433088	0.012582
36186	9.753067	1.272181	0.510331	0.033155	-0.068535	-0.002219	0.070147	-0.118889	0.990427	-0.427789	0.893354	0.137535	-0.901153	-0.433341	0.011807
36187	9.783487	1.234609	0.604404	0.039506	-0.058391	-0.007569	0.069430	-0.119154	0.990445	-0.427302	0.893599	0.137456	-0.901439	-0.432762	0.011128
36188	9.789447	1.188256	0.590800	0.052190	-0.043976	-0.016635	0.069047	-0.119474	0.990433	-0.427807	0.893337	0.137586	-0.901229	-0.433215	0.010570
36189	9.787368	1.102196	0.517661	0.077035	-0.037690	-0.026080	0.068637	-0.119947	0.990405	-0.427698	0.893351	0.137833	-0.901312	-0.433055	0.010016
36190	9.761112	1.059861	0.468514	0.095455	-0.031117	-0.030937	0.068432	-0.120340	0.990371	-0.428584	0.892884	0.138108	-0.900907	-0.433908	0.009526
36191	9.782048	1.044337	0.445259	0.116060	-0.023383	-0.032730	0.068067	-0.120780	0.990343	-0.428265	0.893001	0.138343	-0.901086	-0.433546	0.009058
36192	9.748478	1.109899	0.344964	0.126277	-0.020008	-0.035531	0.067981	-0.121166	0.990302	-0.429425	0.892393	0.138665	-0.900540	-0.434687	0.008634
36193	9.749016	1.178973	0.247516	0.126996	-0.020088	-0.033597	0.067841	-0.121436	0.990278	-0.430424	0.891882	0.138857	-0.900074	-0.435660	0.008237
36194	9.755336	1.200041	0.142098	0.131475	-0.020663	-0.037237	0.067758	-0.121840	0.990234	-0.431629	0.891247	0.139195	-0.899503	-0.436846	0.007799
36195	9.721510	1.264948	0.040787	0.140820	-0.031641	-0.033418	0.067390	-0.122196	0.990215	-0.432053	0.891016	0.139359	-0.899327	-0.437217	0.007251
36196	9.667234	1.318720	-0.011925	0.151161	-0.034522	-0.028058	0.067144	-0.122579	0.990185	-0.433440	0.890303	0.139606	-0.898678	-0.438559	0.006647
36197	9.650139	1.351506	-0.066389	0.159536	-0.043509	-0.020136	0.066756	-0.122705	0.990196	-0.435054	0.889523	0.139560	-0.897926	-0.440105	0.005998
36198	9.606981	1.337126	-0.166712	0.175365	-0.062357	-0.010105	0.066183	-0.123051	0.990191	-0.436669	0.888721	0.139627	-0.897185	-0.441626	0.005086
36199	9.544773	1.346527	-0.283790	0.183378	-0.085043	-0.006451	0.065209	-0.123511	0.990198	-0.437307	0.888409	0.139613	-0.896945	-0.442124	0.003920
36200	9.649202	1.363072	-0.321184	0.189231	-0.104690	0.001462	0.064206	-0.123943	0.990210	-0.439052	0.887556	0.139563	-0.896165	-0.443714	0.002569
36201	9.530344	1.435645	-0.259422	0.176128	-0.106353	0.009387	0.063111	-0.124184	0.990250	-0.440610	0.886826	0.139295	-0.895477	-0.445105	0.001251
36202	9.785959	1.544936	-0.135071	0.167265	-0.119683	0.004225	0.061962	-0.124662	0.990263	-0.442157	0.886068	0.139212	-0.894795	-0.446478	-0.000217
36203	9.728897	1.639609	0.003173	0.144641	-0.098301	-0.001659	0.061110	-0.124913	0.990284	-0.444119	0.885112	0.139054	-0.893881	-0.448301	-0.001387
36204	9.720012	1.648123	0.097528	0.128586	-0.089318	-0.002211	0.060264	-0.125315	0.990285	-0.445314	0.884515	0.139030	-0.893344	-0.449366	-0.002500
36205	9.748352	1.637221	0.192823	0.113438	-0.064726	-0.012105	0.059282	-0.125808	0.990282	-0.444148	0.885100	0.139034	-0.893990	-0.448074	-0.003407
36206	9.774168	1.537190	0.224522	0.106328	-0.039567	-0.018975	0.058954	-0.126135	0.990260	-0.445135	0.884582	0.139175	-0.893521	-0.449004	-0.003997
36207	9.786699	1.414367	0.237383	0.113021	-0.009911	-0.021979	0.058801	-0.126266	0.990252	-0.445731	0.884274	0.139220	-0.893233	-0.449573	-0.004284
36208	9.829597	1.285357	0.323948	0.123020	0.018613	-0.019551	0.058996	-0.126336	0.990232	-0.446866	0.883679	0.139366	-0.892654	-0.450723	-0.004322
36209	9.829814	1.173000	0.256436	0.146843	0.051622	-0.013210	0.059426	-0.126222	0.990220	-0.448014	0.883084	0.139452	-0.892049	-0.451920	-0.004071
36210	9.747884	1.143613	0.233679	0.187680	0.067923	-0.014741	0.060039	-0.126026	0.990208	-0.449726	0.882198	0.139547	-0.891146	-0.453701	-0.003711
36211	9.741587	1.193750	0.245231	0.210358	0.081572	-0.018982	0.060569	-0.125908	0.990191	-0.450311	0.881878	0.139681	-0.890815	-0.454354	-0.003283
36212	9.749306	1.301843	0.214120	0.220816	0.093208	-0.028480	0.061469	-0.125717	0.990160	-0.452307	0.880819	0.139913	-0.889742	-0.456457	-0.002719
36213	9.771785	1.290731	0.167435	0.221752	0.097161	-0.040455	0.062251	-0.125575	0.990129	-0.453235	0.880306	0.140142	-0.889215	-0.457486	-0.002115
36214	9.778190	1.280600	0.102616	0.218948	0.095845	-0.045116	0.063249	-0.125514	0.990074	-0.455201	0.879227	0.140542	-0.888140	-0.459571	-0.001523
36215	9.831228	1.239906	-0.068303	0.219352	0.092164	-0.041759	0.063976	-0.125487	0.990030	-0.455936	0.878797	0.140851	-0.887710	-0.460401	-0.000993
36216	9.836283	1.285604	-0.195946	0.226239	0.086553	-0.033878	0.064840	-0.125368	0.989989	-0.457969	0.877692	0.141142	-0.886601	-0.462536	-0.000505
36217	9.817405	1.373732	-0.302652	0.243579	0.085260	-0.024871	0.065649	-0.125011	0.989981	-0.460310	0.876457	0.141201	-0.885327	-0.464968	-0.000005
36218	9.744714	1.508800	-0.460123	0.255377	0.075224	-0.011005	0.066307	-0.124739	0.989972	-0.462610	0.875235	0.141267	-0.884079	-0.467338	0.000328
36219	9.666367	1.541166	-0.615236	0.278154	0.062615	0.003853	0.066536	-0.124410	0.989998	-0.463819	0.874624	0.141084	-0.883428	-0.468567	0.000490
36220	9.652010	1.511039	-0.828868	0.299316	0.024362	0.021034	0.066594	-0.124094	0.990033	-0.466523	0.873225	0.140833	-0.881998	-0.471252	0.000259
36221	9.618658	1.353623	-1.062080	0.309613	-0.010065	0.034798	0.066075	-0.123839	0.990100	-0.468217	0.872394	0.140364	-0.881139	-0.472856	-0.000340
36222	9.602074	1.225454	-1.119028	0.324827	-0.048899	0.054643	0.065329	-0.123577	0.990182	-0.471161	0.870902	0.139777	-0.879625	-0.475666	-0.001330
36223	9.567705	1.063385	-1.131406	0.341563	-0.085087	0.066837	0.064293	-0.123223	0.990294	-0.474847	0.869028	0.138962	-0.877717	-0.479173	-0.002640
36224	9.616222	1.024879	-1.057726	0.362133	-0.117590	0.080888	0.062817	-0.123069	0.990408	-0.478122	0.867368	0.138105	-0.876044	-0.482211	-0.004357
36225	9.614393	0.981965	-1.007658	0.377011	-0.139767	0.078921	0.061092	-0.122927	0.990534	-0.481344	0.865739	0.137127	-0.874400	-0.485165	-0.006280
36226	9.720093	0.930228	-0.988944	0.409759	-0.164255	0.084108	0.059192	-0.122982	0.990642	-0.485021	0.863828	0.136219	-0.872497	-0.488545	-0.008517
36227	9.667643	1.091281	-0.804432	0.430299	-0.172123	0.075693	0.057229	-0.123027	0.990752	-0.488884	0.861800	0.135253	-0.870470	-0.492103	-0.010826
36228	9.777476	1.373707	-0.637360	0.444112	-0.193451	0.074343	0.055122	-0.123326	0.990834	-0.492835	0.859678	0.134419	-0.868375	-0.495727	-0.013392
36229	9.772280	1.503744	-0.563752	0.419561	-0.198936	0.060425	0.052811	-0.123727	0.990910	-0.495466	0.858295	0.133575	-0.867020	-0.498017	-0.015975
36230	9.746816	1.599374	-0.373647	0.393600	-0.195402	0.056792	0.050777	-0.124200	0.990957	-0.498952	0.856379	0.132899	-0.865141	-0.501188	-0.018486
36231	9.787900	1.761542	0.050874	0.369381	-0.182420	0.053475	0.048755	-0.124555	0.991014	-0.501750	0.854862	0.132128	-0.863637	-0.503684	-0.020817
36232	9.867721	1.906929	0.476715	0.341359	-0.155727	0.048834	0.047106	-0.124908	0.991049	-0.504766	0.853178	0.131524	-0.861970	-0.506444	-0.022860
36233	9.856617	2.002777	0.793353	0.294193	-0.110666	0.048973	0.045680	-0.124906	0.991117	-0.506709	0.852145	0.130746	-0.860906	-0.508180	-0.024365
36234	9.859438	2.125173	1.134927	0.232722	-0.060657	0.045872	0.044865	-0.124808	0.991166	-0.508779	0.850997	0.130187	-0.859727	-0.510125	-0.025320
36235	9.757868	2.173101	1.316614	0.159123	-0.005608	0.045205	0.044122	-0.124473	0.991242	-0.508151	0.851471	0.129540	-0.860137	-0.509416	-0.025682
36236	9.687867	2.131810	1.414173	0.076563	0.048955	0.039144	0.044284	-0.123874	0.991309	-0.508873	0.851108	0.129087	-0.859702	-0.510167	-0.025346
36237	9.595498	1.991704	1.475356	0.017094	0.083090	0.038197	0.044590	-0.122976	0.991407	-0.508460	0.851446	0.128483	-0.859930	-0.509821	-0.024563
36238	9.618600	1.796992	1.437907	-0.009824	0.099818	0.031405	0.045228	-0.122183	0.991477	-0.508437	0.851513	0.128128	-0.859910	-0.509899	-0.023610
36239	9.586296	1.620415	1.417708	-0.008313	0.109267	0.018912	0.045687	-0.121386	0.991553	-0.506840	0.852526	0.127719	-0.860829	-0.508394	-0.022574
36240	9.665198	1.467998	1.232212	-0.007028	0.117572	0.002582	0.046626	-0.120749	0.991587	-0.506828	0.852544	0.127649	-0.860785	-0.508516	-0.021448
36241	9.693714	1.312855	1.027139	0.005111	0.122005	-0.016348	0.047277	-0.120310	0.991610	-0.504642	0.853839	0.127654	-0.862033	-0.506444	-0.020346
36242	9.780033	1.263403	0.832447	0.006100	0.125563	-0.022217	0.048411	-0.119847	0.991611	-0.504732	0.853760	0.127827	-0.861917	-0.506686	-0.019159
36243	9.783501	1.354661	0.608361	-0.004606	0.127193	-0.031809	0.049332	-0.119357	0.991625	-0.503393	0.854539	0.127900	-0.862648	-0.505486	-0.017927
36244	9.796170	1.492879	0.439755	-0.022147	0.118962	-0.024665	0.050422	-0.118949	0.991619	-0.503237	0.854600	0.128102	-0.862676	-0.505479	-0.016768
36245	9.706157	1.564222	0.365157	-0.060375	0.124443	-0.029941	0.051311	-0.118561	0.991620	-0.501282	0.855726	0.128252	-0.863761	-0.503662	-0.015525
36246	9.644798	1.568506	0.235737	-0.090635	0.111912	-0.029696	0.052366	-0.118235	0.991604	-0.500532	0.856126	0.128514	-0.864133	-0.503060	-0.014348
36247	9.505627	1.489288	0.112036	-0.111519	0.093039	-0.024179	0.052906	-0.118014	0.991602	-0.497816	0.857690	0.128637	-0.865668	-0.500441	-0.013372
36248	9.451413	1.417976	0.008813	-0.129189	0.061642	-0.015535	0.053456	-0.117821	0.991595	-0.496738	0.858296	0.128762	-0.866253	-0.499446	-0.012645
36249	9.480744	1.324842	-0.007248	-0.144909	0.027955	0.003965	0.053267	-0.117707	0.991619	-0.493565	0.860146	0.128613	-0.868076	-0.496279	-0.012279
36250	9.508109	1.310437	-0.124396	-0.158834	0.004864	0.014852	0.053176	-0.117537	0.991644	-0.492243	0.860930	0.128439	-0.868832	-0.494959	-0.012076
36251	9.564312	1.228034	-0.299519	-0.159969	-0.030172	0.035977	0.052679	-0.117213	0.991709	-0.491091	0.861664	0.127929	-0.869514	-0.493758	-0.012171
36252	9.612799	1.190224	-0.440743	-0.133910	-0.065531	0.049458	0.051806	-0.117091	0.991769	-0.490001	0.862361	0.127408	-0.870181	-0.492568	-0.012700
36253	9.649935	1.248092	-0.579307	-0.091596	-0.104371	0.062465	0.050248	-0.117061	0.991853	-0.487760	0.863742	0.126652	-0.871530	-0.490150	-0.013696
36254	9.755261	1.312407	-0.717510	-0.041176	-0.141430	0.069703	0.048615	-0.117133	0.991926	-0.487485	0.864004	0.125919	-0.871777	-0.489670	-0.015097
36255	9.765948	1.145914	-0.900488	-0.011588	-0.175456	0.083545	0.046435	-0.117296	0.992011	-0.486427	0.864731	0.125015	-0.872487	-0.488346	-0.016902
36256	9.746742	0.925921	-1.092890	0.017804	-0.210649	0.093587	0.044081	-0.117497	0.992094	-0.486674	0.864733	0.124037	-0.872471	-0.488294	-0.019064
36257	9.672776	0.668067	-1.208265	0.046044	-0.256466	0.107789	0.040972	-0.117846	0.992186	-0.485559	0.865529	0.122853	-0.873243	-0.486798	-0.021759
36258	9.589025	0.541052	-1.127427	0.083887	-0.306356	0.122160	0.037643	-0.118262	0.992269	-0.486388	0.865243	0.121574	-0.872932	-0.487204	-0.024951
36259	9.639672	0.451600	-1.040864	0.106888	-0.339873	0.127909	0.033761	-0.118696	0.992357	-0.486265	0.865523	0.120069	-0.873159	-0.486602	-0.028497
36260	9.672069	0.501736	-0.878160	0.120315	-0.359032	0.132382	0.029922	-0.119280	0.992410	-0.487406	0.865074	0.118671	-0.872662	-0.487258	-0.032253
36261	9.724453	0.642570	-0.570873	0.129122	-0.358662	0.125285	0.025909	-0.119920	0.992445	-0.487496	0.865214	0.117273	-0.872741	-0.486852	-0.036044
36262	9.624386	0.826729	-0.387684	0.126935	-0.347287	0.109705	0.022283	-0.120644	0.992446	-0.488679	0.864706	0.116088	-0.872179	-0.487574	-0.039688
36263	9.703985	0.955224	-0.166968	0.112575	-0.341286	0.091856	0.018468	-0.121470	0.992423	-0.487998	0.865238	0.114984	-0.872649	-0.486424	-0.043298
36264	9.744096	0.985198	0.028884	0.098013	-0.318943	0.070334	0.015281	-0.122394	0.992364	-0.488913	0.864826	0.114193	-0.872198	-0.486925	-0.046625
36265	9.596103	0.997285	0.238191	0.085291	-0.284960	0.061263	0.012217	-0.123040	0.992327	-0.488697	0.865068	0.113278	-0.872368	-0.486331	-0.049561
36266	9.604210	1.027360	0.438662	0.104766	-0.259300	0.047025	0.009665	-0.123876	0.992251	-0.489664	0.864596	0.112708	-0.871858	-0.486959	-0.052301
36267	9.988854	1.089253	0.754918	0.128229	-0.239199	0.033154	0.007139	-0.124570	0.992185	-0.489857	0.864569	0.112073	-0.871773	-0.486829	-0.054849
36268	10.048257	1.153406	0.945175	0.126626	-0.189233	0.022356	0.005320	-0.125279	0.992107	-0.491011	0.863959	0.111730	-0.871137	-0.487729	-0.056918
36269	10.059044	1.224117	0.984115	0.124912	-0.133370	0.009265	0.003872	-0.125630	0.992070	-0.491334	0.863829	0.111308	-0.870963	-0.487869	-0.058382
36270	9.992146	1.391019	0.963968	0.110157	-0.078226	-0.007413	0.003166	-0.126056	0.992018	-0.492341	0.863261	0.111267	-0.870396	-0.488764	-0.059329
36271	9.917933	1.601956	1.055404	0.080168	-0.028546	-0.033818	0.002837	-0.126340	0.991983	-0.492208	0.863325	0.111362	-0.870473	-0.488578	-0.059736
36272	9.899993	1.774424	1.098172	0.031162	0.010565	-0.051173	0.003120	-0.126710	0.991935	-0.492526	0.863087	0.111801	-0.870292	-0.488902	-0.059715
36273	9.839990	1.849580	1.087330	-0.019405	0.056638	-0.077106	0.003667	-0.127000	0.991896	-0.491062	0.863840	0.112420	-0.871117	-0.487495	-0.059197
36274	9.783986	1.877300	1.078668	-0.061075	0.097216	-0.084665	0.004869	-0.127238	0.991860	-0.490575	0.864009	0.113245	-0.871385	-0.487134	-0.058213
36275	9.663181	1.913387	0.830834	-0.064573	0.124951	-0.089064	0.006156	-0.127227	0.991855	-0.489208	0.864691	0.113951	-0.872145	-0.485925	-0.056917
36276	9.577909	1.954787	0.550326	-0.022520	0.128559	-0.073678	0.007577	-0.127218	0.991846	-0.489055	0.864686	0.114644	-0.872220	-0.485936	-0.055665
36277	9.619944	2.024947	-0.021083	0.021100	0.119384	-0.047629	0.008576	-0.126855	0.991884	-0.488278	0.865096	0.114861	-0.872646	-0.485300	-0.054521
36278	9.631914	1.892377	-0.590694	0.040142	0.091247	-0.024862	0.009433	-0.126606	0.991908	-0.488675	0.864849	0.115035	-0.872415	-0.485806	-0.053711
36279	9.549795	1.643540	-1.069842	0.030462	0.032250	-0.006027	0.009435	-0.126365	0.991939	-0.487756	0.865388	0.114883	-0.872929	-0.484908	-0.053471
36280	9.436744	1.336885	-1.489613	-0.002721	-0.036324	0.007814	0.009019	-0.126453	0.991932	-0.487782	0.865390	0.114756	-0.872919	-0.484882	-0.053877
36281	9.432262	0.964807	-1.882652	-0.032335	-0.110554	0.026783	0.007751	-0.126584	0.991926	-0.487027	0.865875	0.114304	-0.873353	-0.483980	-0.054938
36282	9.456467	0.616339	-2.246874	-0.020215	-0.204423	0.056752	0.005628	-0.127060	0.991879	-0.486904	0.866024	0.113701	-0.873438	-0.483589	-0.056992
36283	9.516068	0.356566	-2.457201	0.006462	-0.277823	0.100073	0.002628	-0.127296	0.991861	-0.487012	0.866126	0.112449	-0.873392	-0.483343	-0.059719
36284	9.515784	0.133690	-2.655672	0.051367	-0.347966	0.148570	-0.001196	-0.127670	0.991816	-0.487511	0.866046	0.110892	-0.873116	-0.483388	-0.063276
36285	9.569528	0.000642	-2.715505	0.100119	-0.410971	0.184495	-0.005802	-0.127834	0.991779	-0.488269	0.865890	0.108751	-0.872674	-0.483624	-0.067441
36286	9.362918	-0.000156	-2.601350	0.129136	-0.456619	0.208848	-0.010867	-0.128214	0.991687	-0.489428	0.865512	0.106537	-0.871976	-0.484201	-0.072157
36287	9.347583	-0.009091	-2.472880	0.136534	-0.511696	0.210394	-0.016652	-0.128635	0.991552	-0.489572	0.865728	0.104089	-0.871804	-0.483703	-0.077392
36288	9.405693	0.129867	-2.219273	0.154546	-0.544997	0.184252	-0.022366	-0.129656	0.991307	-0.490931	0.865197	0.102085	-0.870911	-0.484380	-0.083003
36289	9.836507	0.401080	-1.931265	0.173291	-0.573621	0.149492	-0.028464	-0.130967	0.990978	-0.490943	0.865402	0.100270	-0.870726	-0.483660	-0.088930
36290	10.066136	0.636028	-1.718755	0.174773	-0.570566	0.122753	-0.034094	-0.132645	0.990577	-0.492474	0.864697	0.098839	-0.869659	-0.484463	-0.094805
36291	10.332708	0.897277	-1.439623	0.195113	-0.562987	0.099758	-0.039629	-0.134366	0.990139	-0.493841	0.864070	0.097492	-0.868649	-0.485107	-0.100597
36292	9.958321	1.007480	-1.152888	0.157542	-0.515117	0.086600	-0.044591	-0.136096	0.989692	-0.495219	0.863401	0.096417	-0.867623	-0.485815	-0.105897
36293	10.014931	1.069900	-0.597198	0.149028	-0.481976	0.073653	-0.049319	-0.137461	0.989279	-0.496208	0.862972	0.095173	-0.866802	-0.486194	-0.110770
36294	10.140871	1.191158	-0.071356	0.120772	-0.417988	0.065109	-0.053325	-0.138910	0.988868	-0.497268	0.862453	0.094337	-0.865957	-0.486702	-0.115066
36295	10.191522	1.168801	0.302105	0.097642	-0.324038	0.052986	-0.056591	-0.139688	0.988577	-0.497703	0.862309	0.093356	-0.865500	-0.486734	-0.118322
36296	9.999368	1.351927	0.618465	0.095249	-0.218245	0.049234	-0.058786	-0.140304	0.988362	-0.498546	0.861893	0.092699	-0.864868	-0.487294	-0.120615
36297	9.887390	1.617880	0.927951	0.105924	-0.128052	0.030314	-0.060455	-0.140372	0.988251	-0.497947	0.862311	0.092022	-0.865098	-0.486534	-0.122029
36298	9.704192	1.860461	1.142935	0.099785	-0.065838	0.020848	-0.061190	-0.140490	0.988189	-0.498845	0.861833	0.091637	-0.864529	-0.487346	-0.122818
36299	9.599348	1.988637	1.353460	0.108704	-0.041774	0.011692	-0.062073	-0.140242	0.988170	-0.498037	0.862357	0.091102	-0.864931	-0.486490	-0.123375
36300	9.587995	1.915231	1.328174	0.123955	-0.024545	0.016151	-0.062428	-0.140199	0.988153	-0.499146	0.861755	0.090732	-0.864266	-0.487568	-0.123777
36301	9.652480	1.857332	1.076283	0.154212	-0.016048	0.026895	-0.063141	-0.139735	0.988174	-0.498784	0.862038	0.090028	-0.864424	-0.487200	-0.124128
36302	9.732173	1.778728	0.736557	0.185680	-0.014567	0.028858	-0.063473	-0.139534	0.988181	-0.500417	0.861151	0.089454	-0.863455	-0.488824	-0.124485
36303	9.805872	1.772081	0.399657	0.205156	-0.013690	0.024949	-0.063860	-0.139069	0.988221	-0.502010	0.860309	0.088628	-0.862501	-0.490437	-0.124754
36304	9.847718	1.691029	-0.007491	0.195626	-0.013055	0.022133	-0.064146	-0.138920	0.988224	-0.503730	0.859356	0.088107	-0.861476	-0.492146	-0.125102
36305	9.838598	1.603841	-0.394644	0.171829	-0.014267	0.021555	-0.064594	-0.138610	0.988238	-0.504505	0.858963	0.087502	-0.860989	-0.492919	-0.125413
36306	9.836412	1.463923	-0.714114	0.144793	-0.019145	0.037349	-0.065009	-0.138361	0.988246	-0.505774	0.858279	0.086893	-0.860213	-0.494180	-0.125775
36307	9.751336	1.266228	-1.048364	0.127427	-0.022352	0.061880	-0.065667	-0.137798	0.988281	-0.506476	0.857957	0.085974	-0.859750	-0.494895	-0.126131
36308	9.678998	1.092372	-1.434630	0.135877	-0.038508	0.090077	-0.066516	-0.137193	0.988308	-0.507631	0.857386	0.084854	-0.859003	-0.496052	-0.126674
36309	9.604076	0.938212	-1.822753	0.183325	-0.081234	0.129050	-0.067981	-0.136392	0.988320	-0.508897	0.856794	0.083237	-0.858139	-0.497295	-0.127655
36310	9.594380	0.831297	-2.182547	0.250480	-0.132657	0.163704	-0.070016	-0.135628	0.988283	-0.510979	0.855746	0.081238	-0.856737	-0.499304	-0.129219
36311	9.540307	0.686629	-2.390611	0.311802	-0.190454	0.192618	-0.072725	-0.134859	0.988192	-0.513410	0.854515	0.078832	-0.855056	-0.501615	-0.131382
36312	9.434934	0.580061	-2.478999	0.338023	-0.245216	0.217331	-0.076000	-0.134213	0.988034	-0.516182	0.853084	0.076177	-0.853100	-0.504216	-0.134113
36313	9.501255	0.403977	-2.322942	0.353923	-0.307607	0.250156	-0.079995	-0.133578	0.987805	-0.518919	0.851688	0.073147	-0.851072	-0.506739	-0.137447
36314	9.218396	0.299645	-2.115288	0.326766	-0.340991	0.284465	-0.084436	-0.132866	0.987531	-0.521508	0.850384	0.069824	-0.849058	-0.509110	-0.141094
36315	9.927496	0.352210	-1.675557	0.364264	-0.423011	0.324579	-0.089794	-0.132223	0.987144	-0.524265	0.848992	0.066030	-0.846808	-0.511596	-0.145554
36316	9.736306	0.591515	-1.376256	0.362502	-0.419017	0.357652	-0.095280	-0.131316	0.986751	-0.527044	0.847580	0.061905	-0.844480	-0.514163	-0.149967
36317	9.924927	0.780955	-1.207372	0.395152	-0.422587	0.358781	-0.100803	-0.130436	0.986319	-0.530021	0.846018	0.057713	-0.841972	-0.516952	-0.154415
36318	9.961867	1.133874	-0.908718	0.401989	-0.401063	0.341237	-0.106051	-0.129609	0.985878	-0.533092	0.844354	0.053659	-0.839384	-0.519873	-0.158639
36319	9.966999	1.269275	-0.778505	0.375044	-0.347157	0.313928	-0.110691	-0.128721	0.985484	-0.535963	0.842767	0.049880	-0.836954	-0.522661	-0.162277
36320	9.825376	1.305005	-0.612362	0.318994	-0.273590	0.273338	-0.114509	-0.127831	0.985163	-0.538365	0.841422	0.046603	-0.834896	-0.525041	-0.165170
36321	9.900930	1.331944	-0.352436	0.286354	-0.213297	0.246624	-0.117676	-0.126862	0.984915	-0.540493	0.840216	0.043647	-0.833079	-0.527203	-0.167441
36322	10.229186	1.251629	-0.037557	0.254387	-0.161146	0.218328	-0.120262	-0.125859	0.984732	-0.542393	0.839123	0.041008	-0.831473	-0.529180	-0.169180
36323	10.307288	1.135388	-0.022579	0.216322	-0.069407	0.206427	-0.122016	-0.124473	0.984692	-0.543952	0.838230	0.038557	-0.830198	-0.530920	-0.169985
36324	10.203285	0.790854	-0.186099	0.199932	0.012054	0.191877	-0.123024	-0.122780	0.984779	-0.545418	0.837379	0.036267	-0.829086	-0.532655	-0.169984
36325	10.074743	0.494047	-0.391434	0.245480	0.083891	0.189619	-0.123418	-0.120731	0.984983	-0.547221	0.836299	0.033940	-0.827839	-0.534815	-0.169281
36326	9.987686	0.322962	-0.457296	0.318249	0.138029	0.186312	-0.123361	-0.118414	0.985272	-0.549666	0.834790	0.031507	-0.826226	-0.537684	-0.168069
36327	9.976666	0.378338	-0.356168	0.385570	0.192852	0.173690	-0.122774	-0.115917	0.985642	-0.552657	0.832900	0.029114	-0.824316	-0.541148	-0.166321
36328	9.994962	0.607558	-0.257983	0.427434	0.245829	0.154675	-0.121671	-0.113275	0.986086	-0.556029	0.830730	0.026822	-0.822209	-0.545029	-0.164060
36329	10.047257	0.865183	-0.159550	0.426954	0.308704	0.123719	-0.119867	-0.110547	0.986616	-0.559454	0.828489	0.024860	-0.820149	-0.548986	-0.161154
36330	10.030056	1.148854	-0.052457	0.381732	0.365447	0.100970	-0.117502	-0.107679	0.987218	-0.562504	0.826469	0.023194	-0.818403	-0.552588	-0.157682
36331	10.050109	1.314573	0.060650	0.308121	0.413690	0.075420	-0.114583	-0.104744	0.987876	-0.565016	0.824789	0.021916	-0.817085	-0.555655	-0.153689
36332	10.051096	1.382800	0.131909	0.219023	0.450261	0.057063	-0.111292	-0.101747	0.988565	-0.566783	0.823600	0.020960	-0.816316	-0.557969	-0.149329
36333	10.162376	1.411142	0.306493	0.121065	0.482147	0.039692	-0.107616	-0.098712	0.989280	-0.567820	0.822901	0.020342	-0.816088	-0.559544	-0.144608
36334	10.291642	1.294041	0.475438	-0.000383	0.517757	0.030262	-0.103624	-0.095546	0.990017	-0.567828	0.822905	0.019984	-0.816599	-0.560088	-0.139527
36335	10.382662	1.100245	0.587827	-0.109809	0.567470	0.020934	-0.099140	-0.092192	0.990794	-0.566990	0.823484	0.019890	-0.817737	-0.559799	-0.133912
36336	10.595364	0.836286	0.722747	-0.187701	0.634960	0.021155	-0.094126	-0.088447	0.991624	-0.565477	0.824525	0.019867	-0.819375	-0.558870	-0.127624
36337	10.811763	0.501431	0.974760	-0.228726	0.725125	0.043409	-0.088453	-0.084018	0.992531	-0.563669	0.825767	0.019668	-0.821251	-0.557719	-0.120399
36338	10.986122	0.207525	1.169733	-0.259122	0.836174	0.073991	-0.082056	-0.078729	0.993513	-0.561519	0.827241	0.019176	-0.823385	-0.556303	-0.112088
36339	10.791654	-0.202698	1.199871	-0.308605	0.933514	0.101248	-0.074948	-0.072682	0.994535	-0.558994	0.828966	0.018456	-0.825778	-0.554556	-0.102758
36340	10.817027	-0.338524	1.375754	-0.314024	0.993065	0.138229	-0.067570	-0.066017	0.995528	-0.556344	0.830772	0.017331	-0.828201	-0.552685	-0.092863
36341	10.474117	-0.392149	1.400513	-0.342329	1.049587	0.165635	-0.059808	-0.058815	0.996476	-0.553518	0.832685	0.015926	-0.830687	-0.550615	-0.082357
36342	10.784257	-0.311341	1.560572	-0.315727	1.049746	0.184559	-0.052158	-0.051487	0.997311	-0.550835	0.834492	0.014274	-0.832983	-0.548609	-0.071887
36343	10.351375	-0.198768	1.595757	-0.350354	1.110378	0.213971	-0.044095	-0.043571	0.998077	-0.547940	0.836427	0.012306	-0.835355	-0.546343	-0.060756
36344	10.272345	-0.186372	1.395374	-0.339924	1.092895	0.242652	-0.036342	-0.035560	0.998707	-0.545046	0.838346	0.010017	-0.837618	-0.543977	-0.049849
36345	10.212404	0.054575	1.674290	-0.338916	1.113439	0.250927	-0.028392	-0.027359	0.999222	-0.542258	0.840178	0.007597	-0.839732	-0.541621	-0.038690
36346	9.921601	0.537497	1.961455	-0.372871	1.200601	0.234768	-0.019628	-0.018877	0.999629	-0.539115	0.842215	0.005319	-0.842003	-0.538811	-0.026708
36347	10.212355	0.801508	2.030086	-0.388951	1.194960	0.198454	-0.010639	-0.010721	0.999886	-0.535958	0.844238	0.003349	-0.844177	-0.535862	-0.014728
36348	9.721982	0.869909	1.914076	-0.492300	1.244672	0.162116	-0.001044	-0.002684	0.999996	-0.531836	0.846845	0.001718	-0.846846	-0.531832	-0.002311
36349	9.609452	0.477236	1.284819	-0.566446	1.209227	0.160535	0.008343	0.005145	0.999952	-0.527192	0.849746	0.000026	-0.849705	-0.527167	0.009801
36350	9.626378	0.043583	0.550162	-0.553780	1.116731	0.157681	0.016957	0.012370	0.999780	-0.522550	0.852607	-0.001686	-0.852440	-0.522406	0.020921
36351	10.015575	-0.191900	0.210945	-0.487556	1.065975	0.163872	0.025183	0.019389	0.999495	-0.518584	0.855019	-0.003520	-0.854655	-0.518234	0.031587
36352	9.807122	-0.590240	-0.307099	-0.398550	1.023601	0.173630	0.032981	0.026185	0.999113	-0.515278	0.857006	-0.005451	-0.856389	-0.514641	0.041757
36353	9.900386	-0.943949	-0.535477	-0.242358	0.975803	0.190432	0.040336	0.032907	0.998644	-0.513430	0.858098	-0.007538	-0.857183	-0.512430	0.051507
36354	10.088489	-0.989811	-0.399702	-0.090003	0.924877	0.207064	0.047139	0.039442	0.998109	-0.512802	0.858452	-0.009704	-0.857211	-0.511376	0.060692
36355	10.208590	-0.912477	-0.394414	-0.003610	0.873285	0.207503	0.053535	0.045754	0.997517	-0.513033	0.858287	-0.011834	-0.856698	-0.511126	0.069422
36356	10.478182	-0.738967	-0.434744	0.086749	0.844612	0.199566	0.059680	0.051809	0.996872	-0.513943	0.857713	-0.013808	-0.855746	-0.511512	0.077815
36357	10.445800	-0.413255	-0.519919	0.165453	0.855854	0.172920	0.066078	0.057748	0.996142	-0.515620	0.856678	-0.015460	-0.854266	-0.512609	0.086383
36358	10.576143	0.108242	-0.591177	0.212867	0.878648	0.125894	0.072864	0.063358	0.995327	-0.517578	0.855475	-0.016566	-0.852528	-0.513953	0.095126
36359	10.183925	0.324851	-0.604304	0.173638	0.891712	0.072553	0.080054	0.068636	0.994425	-0.519264	0.854442	-0.017172	-0.850856	-0.514994	0.104042
36360	10.133199	0.587639	-0.381676	0.128805	0.884618	0.007755	0.087472	0.073284	0.993468	-0.520420	0.853738	-0.017155	-0.849418	-0.515520	0.112817
36361	9.810856	0.570958	-0.343944	0.061683	0.842698	-0.045417	0.094832	0.077310	0.992487	-0.521047	0.853365	-0.016687	-0.848243	-0.515550	0.121209
36362	9.927541	0.574558	-0.221614	0.000692	0.796218	-0.078987	0.101933	0.080762	0.991508	-0.521031	0.853389	-0.015946	-0.847429	-0.514981	0.129067
36363	9.794018	0.489118	-0.262641	-0.091017	0.773468	-0.092038	0.108931	0.084009	0.990493	-0.520296	0.853851	-0.015200	-0.847010	-0.513694	0.136720
36364	10.021384	0.202314	-0.193196	-0.206050	0.726046	-0.092656	0.115501	0.086962	0.989493	-0.518503	0.854951	-0.014614	-0.847239	-0.511367	0.143837
36365	10.020713	0.090196	-0.122530	-0.333060	0.716823	-0.097071	0.122041	0.089833	0.988451	-0.515688	0.856659	-0.014185	-0.848040	-0.508002	0.150873
36366	10.016134	-0.262849	-0.201081	-0.421049	0.708330	-0.094804	0.128478	0.092627	0.987377	-0.512053	0.858840	-0.013940	-0.849291	-0.503799	0.157772
36367	11.764239	-0.237571	-0.497261	-0.388635	0.607831	-0.102074	0.134126	0.094844	0.986415	-0.508736	0.860815	-0.013593	-0.850411	-0.500002	0.163708
36368	8.308100	-0.784179	-1.008072	-0.464408	0.774346	-0.068913	0.141004	0.098128	0.985134	-0.504747	0.863158	-0.013733	-0.851674	-0.495307	0.171238
36369	9.537176	-1.103128	-0.260834	-0.356049	0.657947	-0.052306	0.146832	0.100963	0.983995	-0.501750	0.864902	-0.013872	-0.852460	-0.491683	0.177653
36370	10.303053	-0.551742	0.710951	-0.325150	0.724201	-0.053365	0.153213	0.104073	0.982698	-0.498956	0.866515	-0.013977	-0.852977	-0.488181	0.184689
36371	10.348561	-0.002943	0.643236	-0.241201	0.789100	-0.098474	0.160391	0.107099	0.981226	-0.496853	0.867730	-0.013496	-0.852885	-0.485360	0.192389
36372	10.317920	0.687674	0.855305	-0.157938	0.823049	-0.155214	0.168117	0.109762	0.979637	-0.495311	0.868628	-0.012323	-0.852293	-0.483153	0.200398
36373	10.197933	1.110062	1.215918	-0.145874	0.858397	-0.233935	0.176543	0.111902	0.977911	-0.493769	0.869531	-0.010359	-0.851484	-0.481033	0.208764
36374	9.981537	1.221307	1.557284	-0.192122	0.919695	-0.297251	0.185775	0.113753	0.975986	-0.491656	0.870754	-0.007903	-0.850742	-0.478381	0.217691
36375	9.888265	1.360774	1.890324	-0.261470	0.973772	-0.356106	0.195758	0.115320	0.973848	-0.488852	0.872352	-0.005035	-0.850119	-0.475082	0.227144
36376	9.829853	1.557418	2.100159	-0.366045	1.021296	-0.401014	0.206331	0.116673	0.971501	-0.484996	0.874514	-0.002020	-0.849827	-0.470757	0.237026
36377	9.798465	1.811466	2.167204	-0.510214	1.065414	-0.436083	0.217446	0.117863	0.968930	-0.479832	0.877360	0.000959	-0.849987	-0.465132	0.247333
36378	9.644789	1.938793	2.266029	-0.657837	1.107223	-0.453281	0.228962	0.119016	0.966132	-0.473289	0.880900	0.003647	-0.850632	-0.458095	0.258021
36379	9.346900	1.906286	2.452756	-0.799027	1.129252	-0.458346	0.240681	0.120114	0.963143	-0.465505	0.885025	0.005954	-0.851691	-0.449781	0.268923
36380	9.367046	1.634808	3.201651	-0.932620	1.145513	-0.439313	0.252413	0.121341	0.959981	-0.456535	0.889673	0.007585	-0.853149	-0.440180	0.279961
36381	9.112586	1.573701	3.198213	-1.025528	1.149052	-0.427151	0.264112	0.122543	0.956676	-0.446766	0.894608	0.008747	-0.854778	-0.429721	0.291025
36382	8.573282	1.250430	2.702027	-1.033598	1.064451	-0.421539	0.275024	0.123309	0.953497	-0.436851	0.899482	0.009681	-0.856460	-0.419199	0.301247
36383	8.942583	0.909802	3.002704	-1.050858	0.980789	-0.413356	0.285176	0.123654	0.950465	-0.426775	0.904298	0.010401	-0.858218	-0.408601	0.310657
36384	9.277447	0.614803	3.290836	-1.076523	0.948233	-0.417852	0.295027	0.123719	0.947445	-0.416381	0.909124	0.010943	-0.859992	-0.397727	0.319730
36385	9.136796	0.360321	3.240219	-1.055187	0.914203	-0.442308	0.304674	0.123289	0.944444	-0.406064	0.913770	0.011710	-0.861560	-0.387072	0.328465
36386	9.089782	0.205763	3.234724	-1.031648	0.882120	-0.455501	0.314051	0.122516	0.941468	-0.395826	0.918240	0.012545	-0.862956	-0.376597	0.336869
36387	8.707734	0.131141	3.544205	-1.084915	0.880789	-0.466865	0.323441	0.121503	0.938415	-0.385061	0.922796	0.013237	-0.864358	-0.365629	0.345256
36388	8.511341	-0.156777	3.645360	-1.173915	0.906426	-0.467529	0.333000	0.120471	0.935199	-0.373440	0.927556	0.013486	-0.865825	-0.353731	0.353865
36389	8.331885	-0.666073	3.544624	-1.247406	0.913784	-0.439706	0.342495	0.119577	0.931879	-0.361241	0.932380	0.013127	-0.867296	-0.341129	0.362532
36390	8.234675	-1.068829	3.549367	-1.227954	0.908300	-0.384579	0.351691	0.119058	0.928514	-0.349319	0.936925	0.012174	-0.868499	-0.328629	0.371097
36391	8.340598	-1.217355	3.725339	-1.168611	0.889812	-0.330560	0.360521	0.118853	0.925148	-0.338089	0.941052	0.010854	-0.869322	-0.316695	0.379452
36392	8.530415	-1.284495	3.886144	-1.118038	0.878384	-0.286505	0.369059	0.118919	0.921767	-0.327392	0.944844	0.009186	-0.869833	-0.305169	0.387637
36393	8.760935	-1.350061	3.931039	-1.061811	0.846771	-0.256154	0.377215	0.119068	0.918440	-0.317307	0.948294	0.007384	-0.870072	-0.294212	0.395492
36394	8.953031	-1.550473	4.118943	-0.955051	0.803569	-0.238580	0.384901	0.119163	0.915233	-0.308160	0.951317	0.005735	-0.869994	-0.284245	0.402884
36395	9.035896	-1.582373	4.293969	-0.811591	0.768206	-0.215165	0.392201	0.119310	0.912109	-0.300379	0.953810	0.004396	-0.869455	-0.275702	0.409923
36396	9.073826	-1.450388	4.412823	-0.621742	0.752502	-0.196512	0.399272	0.119521	0.909008	-0.294271	0.955715	0.003593	-0.868324	-0.268929	0.416762
36397	8.810401	-1.198401	4.543515	-0.480312	0.741961	-0.192310	0.406235	0.119711	0.905893	-0.289449	0.957188	0.003310	-0.866713	-0.263555	0.423494
36398	8.532223	-0.931517	4.523500	-0.344653	0.716151	-0.199319	0.412958	0.119714	0.902848	-0.285722	0.958306	0.003620	-0.864771	-0.259459	0.429945
36399	8.227035	-0.807622	4.371695	-0.203949	0.666121	-0.199469	0.419244	0.119583	0.899964	-0.283256	0.959034	0.004522	-0.862555	-0.256815	0.435941
36400	8.075563	-0.722099	4.163115	-0.066495	0.611091	-0.203301	0.425032	0.119237	0.897291	-0.281898	0.959425	0.006036	-0.860164	-0.255510	0.441399
36401	7.980856	-0.602705	3.864296	0.052052	0.554207	-0.211215	0.430353	0.118693	0.894823	-0.281570	0.959506	0.008144	-0.857622	-0.255460	0.446347
36402	7.831464	-0.368478	3.496227	0.187252	0.483356	-0.236854	0.435110	0.117698	0.892652	-0.282222	0.959285	0.011081	-0.855003	-0.256747	0.450611
36403	7.749075	-0.111795	3.185470	0.315982	0.395966	-0.264763	0.439205	0.116249	0.890834	-0.283891	0.958741	0.014855	-0.852352	-0.259424	0.454086
36404	7.623028	0.181104	2.910694	0.382473	0.310878	-0.299344	0.442654	0.114231	0.889387	-0.285900	0.958066	0.019243	-0.849893	-0.262794	0.456750
36405	7.445883	0.536143	2.549731	0.390683	0.224616	-0.337727	0.445495	0.111657	0.888294	-0.287843	0.957376	0.024017	-0.847750	-0.266389	0.458646
36406	7.257365	0.687671	2.168225	0.361479	0.141702	-0.376469	0.447731	0.108473	0.887564	-0.289297	0.956800	0.029001	-0.846076	-0.269754	0.459770
36407	7.145790	0.950774	1.884983	0.346005	0.061544	-0.399797	0.449376	0.104876	0.887165	-0.290549	0.956251	0.034128	-0.844774	-0.273102	0.460188
36408	7.063862	1.023708	1.551734	0.318534	-0.016463	-0.412595	0.450388	0.100925	0.887111	-0.291456	0.955779	0.039236	-0.843922	-0.276225	0.459886
36409	6.998130	1.061894	1.253681	0.290717	-0.112073	-0.414977	0.450617	0.096700	0.887465	-0.292152	0.955348	0.044245	-0.843559	-0.279212	0.458747
36410	7.071498	1.002268	1.024387	0.256989	-0.224614	-0.407729	0.449864	0.092214	0.888324	-0.292558	0.954990	0.049023	-0.843820	-0.281940	0.456594
36411	7.116981	0.918748	0.867671	0.224460	-0.336047	-0.400339	0.448161	0.087481	0.889662	-0.292758	0.954683	0.053600	-0.844656	-0.284477	0.453463
36412	7.373079	0.755770	0.763183	0.205953	-0.442792	-0.383251	0.445490	0.082596	0.891469	-0.292860	0.954399	0.057924	-0.846033	-0.286880	0.449365
36413	7.645188	0.730113	0.848219	0.188599	-0.546592	-0.373789	0.441917	0.077486	0.893703	-0.292892	0.954127	0.062103	-0.847894	-0.289202	0.444340
36414	8.010425	0.626499	1.013054	0.168531	-0.640105	-0.361288	0.437490	0.072219	0.896319	-0.292807	0.953887	0.066061	-0.850216	-0.291349	0.438462
36415	8.467244	0.635729	1.314666	0.142113	-0.718612	-0.353152	0.432363	0.066773	0.899224	-0.292565	0.953691	0.069852	-0.852918	-0.293283	0.431876
36416	8.874017	0.623999	1.667513	0.091372	-0.787443	-0.347586	0.426600	0.061181	0.902369	-0.291926	0.953624	0.073354	-0.856033	-0.294717	0.424676
36417	9.563785	0.451715	2.518832	0.032253	-0.846941	-0.323925	0.420236	0.055608	0.905710	-0.290906	0.953695	0.076422	-0.859521	-0.295591	0.416953
36418	10.777584	0.419317	4.310884	-0.059148	-0.786430	-0.292021	0.414259	0.050535	0.908755	-0.289251	0.954004	0.078805	-0.862974	-0.295504	0.409822
36419	10.899568	0.461975	5.603321	-0.152177	-0.730895	-0.267730	0.408666	0.045838	0.911532	-0.286906	0.954560	0.080626	-0.866416	-0.294473	0.403248
36420	10.536299	0.640965	5.812542	-0.306687	-0.746877	-0.234288	0.402798	0.041448	0.914350	-0.283364	0.955542	0.081515	-0.870321	-0.291928	0.396635
36421	10.354007	0.554321	5.063648	-0.354242	-0.790379	-0.220454	0.396480	0.037064	0.917295	-0.279469	0.956635	0.082141	-0.874471	-0.288923	0.389645
36422	10.771759	0.176983	4.866320	-0.310046	-0.768250	-0.244544	0.390376	0.032552	0.920080	-0.275862	0.957593	0.083165	-0.878355	-0.286281	0.382801
36423	11.089307	-0.028866	5.515939	-0.201130	-0.678099	-0.299989	0.385190	0.027766	0.922420	-0.273009	0.958235	0.085161	-0.881530	-0.284632	0.376682
36424	11.213088	0.355470	6.791691	-0.085860	-0.555714	-0.367844	0.381234	0.022698	0.924200	-0.270913	0.958553	0.088211	-0.883893	-0.284007	0.371583
36425	10.979887	1.311803	7.597289	0.009331	-0.446789	-0.431062	0.378406	0.017328	0.925478	-0.269446	0.958590	0.092222	-0.885555	-0.284263	0.367405
36426	10.664683	1.963982	7.014358	0.014209	-0.426549	-0.485387	0.375878	0.011500	0.926598	-0.267813	0.958602	0.096743	-0.887125	-0.284518	0.363397
36427	10.458613	1.336426	5.459126	-0.164127	-0.468945	-0.455173	0.372888	0.005841	0.927858	-0.264745	0.959082	0.100358	-0.889306	-0.283068	0.359176
36428	10.278854	-0.231951	4.236579	-0.440939	-0.456224	-0.328109	0.369634	0.001448	0.929176	-0.259672	0.960316	0.101803	-0.892155	-0.278911	0.355342
36429	9.819068	-1.687828	3.482743	-0.605580	-0.393683	-0.171915	0.366521	-0.001249	0.930409	-0.253726	0.961963	0.101243	-0.895146	-0.273176	0.352263
36430	9.330718	-2.438623	2.727481	-0.538378	-0.359446	-0.037183	0.363342	-0.002541	0.931652	-0.248835	0.963403	0.099673	-0.897810	-0.268044	0.349413
36431	9.102339	-2.253082	1.775006	-0.261113	-0.363653	0.038491	0.359944	-0.003087	0.932969	-0.246734	0.964077	0.098380	-0.899757	-0.265606	0.346252
36432	9.191355	-1.682538	1.012528	0.086514	-0.362559	0.056520	0.356490	-0.003468	0.934293	-0.247787	0.963833	0.098123	-0.900842	-0.266486	0.342737
36433	9.407704	-0.758709	0.775423	0.384664	-0.332054	0.024095	0.353402	-0.004065	0.935463	-0.251447	0.962777	0.099176	-0.901045	-0.270268	0.339225
36434	9.366911	0.562163	0.899449	0.654862	-0.292467	-0.044508	0.350831	-0.005255	0.936424	-0.257260	0.960968	0.101775	-0.900408	-0.276610	0.335785
36435	9.222716	2.112215	1.275111	0.855631	-0.295295	-0.124316	0.348460	-0.007219	0.937296	-0.264627	0.958534	0.105763	-0.899193	-0.284888	0.332100
36436	9.034441	3.586293	1.434876	0.928769	-0.370908	-0.195551	0.345601	-0.010126	0.938327	-0.272366	0.955812	0.110632	-0.897985	-0.293803	0.327572
36437	8.999179	4.607508	1.693538	0.811905	-0.460190	-0.233320	0.342072	-0.013678	0.939574	-0.278943	0.953345	0.115434	-0.897317	-0.301574	0.322297
36438	9.013494	5.102789	1.946765	0.516422	-0.539353	-0.234030	0.337837	-0.017511	0.941042	-0.282853	0.951721	0.119255	-0.897697	-0.306465	0.316573
36439	9.048781	5.141597	2.187712	0.130982	-0.590061	-0.216436	0.333103	-0.021357	0.942649	-0.283380	0.951256	0.121689	-0.899299	-0.307663	0.310814
36440	9.059441	4.729454	2.448962	-0.275363	-0.609579	-0.205430	0.328140	-0.025142	0.944295	-0.280292	0.952034	0.122749	-0.902087	-0.304957	0.305353
36441	9.144163	3.801032	2.646063	-0.620350	-0.623323	-0.204900	0.323026	-0.028968	0.945947	-0.274080	0.953834	0.122804	-0.905834	-0.298934	0.300173
36442	9.208615	2.570512	2.754376	-0.875693	-0.632933	-0.208009	0.317788	-0.032783	0.947595	-0.265533	0.956334	0.122135	-0.910221	-0.290430	0.295207
36443	9.401542	1.283602	2.834658	-1.009249	-0.643528	-0.198397	0.312385	-0.036520	0.949253	-0.255755	0.959131	0.121065	-0.914880	-0.280595	0.290278
36444	9.513512	0.116221	2.841539	-1.025638	-0.642339	-0.192079	0.306924	-0.040097	0.950889	-0.245823	0.961870	0.119906	-0.919439	-0.270553	0.285365
36445	9.633015	-0.631277	2.900441	-0.932382	-0.618069	-0.182478	0.301622	-0.043493	0.952435	-0.236735	0.964259	0.119003	-0.923570	-0.261369	0.280545
36446	9.709774	-0.975964	2.964224	-0.747484	-0.595382	-0.166103	0.296450	-0.046591	0.953911	-0.229392	0.966097	0.118475	-0.927091	-0.253942	0.275711
36447	9.675370	-1.021593	3.003265	-0.499247	-0.565842	-0.140295	0.291469	-0.049356	0.955306	-0.224410	0.967270	0.118442	-0.929885	-0.248902	0.270853
36448	9.514660	-0.730816	3.150867	-0.235262	-0.551031	-0.110420	0.286536	-0.051749	0.956671	-0.221970	0.967785	0.118833	-0.932001	-0.246403	0.265818
36449	9.425814	-0.483481	3.174152	0.033341	-0.544539	-0.096604	0.281627	-0.054002	0.958003	-0.222079	0.967637	0.119830	-0.933470	-0.246500	0.260520
36450	9.409710	0.082491	3.168296	0.250642	-0.548874	-0.088127	0.276647	-0.056174	0.959328	-0.224244	0.966956	0.121287	-0.934442	-0.248677	0.254909
36451	9.321730	0.628679	3.108016	0.386352	-0.559715	-0.090875	0.271578	-0.058423	0.960642	-0.227683	0.965921	0.123111	-0.935097	-0.252156	0.249021
36452	9.319603	1.085764	2.978737	0.451859	-0.563157	-0.095616	0.266479	-0.060739	0.961925	-0.231721	0.964704	0.125107	-0.935571	-0.256237	0.242999
36453	9.233460	1.498332	2.938415	0.451626	-0.548497	-0.101011	0.261542	-0.063095	0.963128	-0.235762	0.963458	0.127139	-0.935955	-0.260322	0.237109
36454	9.218924	1.714989	2.905569	0.414765	-0.532934	-0.098912	0.256737	-0.065406	0.964266	-0.239458	0.962295	0.129029	-0.936347	-0.264027	0.231394
36455	9.217341	1.918205	2.835305	0.357769	-0.517804	-0.096475	0.252078	-0.067678	0.965338	-0.242643	0.961264	0.130753	-0.936793	-0.267192	0.225892
36456	9.216216	1.951225	2.365962	0.284309	-0.521246	-0.088746	0.247358	-0.069891	0.966400	-0.245154	0.960427	0.132208	-0.937397	-0.269620	0.220435
36457	9.272086	1.740827	2.134065	0.214263	-0.521993	-0.070542	0.242594	-0.071950	0.967456	-0.247069	0.959781	0.133333	-0.938139	-0.271374	0.215061
36458	9.425146	1.597593	2.087033	0.189851	-0.512396	-0.058556	0.237879	-0.073869	0.968482	-0.248778	0.959209	0.134266	-0.938895	-0.272876	0.209799
36459	9.434804	1.558359	2.113725	0.199065	-0.498933	-0.050195	0.233276	-0.075686	0.969461	-0.250608	0.958610	0.135142	-0.939563	-0.274480	0.204653
36460	9.476425	1.454532	1.939201	0.214295	-0.499310	-0.052075	0.228663	-0.077522	0.970414	-0.252569	0.957967	0.136042	-0.940171	-0.276205	0.199472
36461	9.547972	1.428416	1.873814	0.231221	-0.501719	-0.044269	0.224015	-0.079308	0.971353	-0.254723	0.957274	0.136903	-0.940709	-0.278095	0.194242
36462	9.651412	1.240547	1.761556	0.238172	-0.499213	-0.041769	0.219373	-0.081063	0.972268	-0.256939	0.956564	0.137727	-0.941200	-0.280027	0.189016
36463	9.693215	1.039550	1.743041	0.253842	-0.483203	-0.038108	0.214881	-0.082757	0.973128	-0.259326	0.955801	0.138546	-0.941582	-0.282129	0.183923
36464	9.781418	0.995525	1.751817	0.307240	-0.467267	-0.029263	0.210505	-0.084323	0.973949	-0.262224	0.954893	0.139349	-0.941768	-0.284727	0.178898
36465	9.637217	1.066243	1.837872	0.363167	-0.437112	-0.033412	0.206435	-0.085864	0.974686	-0.265654	0.953807	0.140289	-0.941707	-0.287890	0.174089
36466	9.570561	1.204407	1.741740	0.413165	-0.435012	-0.027421	0.202360	-0.087349	0.975408	-0.269554	0.952573	0.141226	-0.941483	-0.291504	0.169217
36467	9.438579	1.277583	1.647738	0.431936	-0.421793	-0.026443	0.198420	-0.088808	0.976085	-0.273647	0.951264	0.142177	-0.941141	-0.295314	0.164448
36468	9.453274	1.373976	1.668842	0.451360	-0.402914	-0.024613	0.194644	-0.090203	0.976718	-0.277912	0.949887	0.143108	-0.940680	-0.299297	0.159821
36469	9.414756	1.392946	1.655969	0.433047	-0.378081	-0.029012	0.191127	-0.091588	0.977283	-0.282007	0.948537	0.144046	-0.940182	-0.303131	0.155462
36470	9.477601	1.435172	1.730023	0.396660	-0.340943	-0.031501	0.187958	-0.092890	0.977775	-0.285741	0.947286	0.144922	-0.939694	-0.306629	0.151508
36471	9.533587	1.468281	1.840527	0.349496	-0.292118	-0.038639	0.185282	-0.094128	0.978167	-0.289029	0.946153	0.145794	-0.939219	-0.309732	0.148099
36472	9.566981	1.483877	1.909601	0.288047	-0.241829	-0.043516	0.183083	-0.095255	0.978472	-0.291719	0.945203	0.146601	-0.938819	-0.312279	0.145263
36473	9.584150	1.401776	1.952474	0.236130	-0.196207	-0.045164	0.181331	-0.096268	0.978699	-0.293931	0.944400	0.147353	-0.938469	-0.314390	0.142953
36474	9.620148	1.347168	1.902374	0.202032	-0.161267	-0.041235	0.179886	-0.097130	0.978880	-0.295817	0.943709	0.148002	-0.938154	-0.316193	0.141027
36475	9.577338	1.317833	1.793007	0.200989	-0.134946	-0.033195	0.178676	-0.097841	0.979031	-0.297723	0.943019	0.148577	-0.937782	-0.318028	0.139366
36476	9.649672	1.398933	1.739870	0.235361	-0.113435	-0.034532	0.177662	-0.098493	0.979150	-0.299933	0.942221	0.149199	-0.937271	-0.320187	0.137856
36477	9.636912	1.497606	1.656937	0.292316	-0.109508	-0.036388	0.176704	-0.099156	0.979257	-0.302689	0.941224	0.149925	-0.936566	-0.322902	0.136305
36478	9.600877	1.733862	1.514514	0.359194	-0.124307	-0.032008	0.175583	-0.099826	0.979390	-0.306059	0.940012	0.150682	-0.935681	-0.326209	0.134498
36479	9.535555	1.873494	1.317327	0.410094	-0.157814	-0.020422	0.174129	-0.100505	0.979580	-0.309940	0.938625	0.151397	-0.934674	-0.329974	0.132291
36480	9.542031	1.824744	0.987990	0.431726	-0.192867	-0.008321	0.172299	-0.101188	0.979834	-0.314023	0.937169	0.152002	-0.933650	-0.333880	0.129697
36481	9.575477	1.784648	0.845987	0.443240	-0.212736	0.010631	0.170238	-0.101774	0.980133	-0.318257	0.935669	0.152435	-0.932594	-0.337885	0.126896
36482	9.599456	1.893693	0.812807	0.439075	-0.220137	0.020503	0.168065	-0.102297	0.980454	-0.322448	0.934183	0.152742	-0.931548	-0.341816	0.124018
36483	9.676717	2.012831	0.772783	0.409051	-0.222393	0.026028	0.165867	-0.102792	0.980776	-0.326378	0.932782	0.152958	-0.930573	-0.345474	0.121169
36484	9.619907	1.993857	0.782640	0.363942	-0.215798	0.026701	0.163717	-0.103258	0.981088	-0.329870	0.931531	0.153089	-0.929722	-0.348695	0.118445
36485	9.595859	1.910499	0.765825	0.341280	-0.215767	0.031050	0.161564	-0.103702	0.981399	-0.333167	0.930346	0.153155	-0.928922	-0.351714	0.115761
36486	9.589148	1.875745	0.890933	0.323677	-0.220187	0.042660	0.159321	-0.104049	0.981728	-0.336304	0.929232	0.153063	-0.928179	-0.354545	0.113054
36487	9.613085	1.794149	0.901990	0.303940	-0.228740	0.045684	0.156999	-0.104418	0.982063	-0.339268	0.928176	0.152926	-0.927496	-0.357192	0.110297
36488	9.767005	1.754933	0.944563	0.303058	-0.239112	0.042655	0.154581	-0.104847	0.982401	-0.342207	0.927118	0.152793	-0.926822	-0.359804	0.107435
36489	9.777278	1.637002	0.871796	0.300925	-0.246807	0.047663	0.152084	-0.105277	0.982745	-0.345139	0.926060	0.152616	-0.926148	-0.362394	0.104504
36490	9.743263	1.608574	0.687041	0.310461	-0.249628	0.051736	0.149538	-0.105674	0.983093	-0.348154	0.924969	0.152383	-0.925434	-0.365055	0.101527
36491	9.689751	1.565718	0.424158	0.331826	-0.258734	0.051145	0.146919	-0.106131	0.983438	-0.351369	0.923786	0.152185	-0.924638	-0.367908	0.098430
36492	9.645033	1.543106	0.184888	0.369795	-0.267968	0.063376	0.144162	-0.106504	0.983806	-0.354940	0.922470	0.151875	-0.923707	-0.371087	0.095183
36493	9.619336	1.563221	-0.007011	0.409277	-0.279586	0.061493	0.141313	-0.106963	0.984169	-0.358873	0.920988	0.151626	-0.922627	-0.374619	0.091762
36494	9.729227	1.662196	-0.234526	0.442533	-0.299289	0.065836	0.138259	-0.107453	0.984550	-0.363107	0.919376	0.151331	-0.921432	-0.378420	0.088095
36495	9.775080	1.734125	-0.390633	0.447028	-0.307728	0.073561	0.135107	-0.107934	0.984935	-0.367387	0.917734	0.150966	-0.920203	-0.382248	0.084339
36496	9.790901	1.763457	-0.347456	0.424619	-0.317908	0.078697	0.131835	-0.108402	0.985327	-0.371458	0.916172	0.150495	-0.919042	-0.385848	0.080517
36497	9.772005	1.727313	-0.251845	0.380922	-0.324841	0.086258	0.128477	-0.108862	0.985719	-0.375127	0.914770	0.149920	-0.918027	-0.389031	0.076690
36498	9.795040	1.463460	-0.105532	0.328364	-0.333081	0.101242	0.124982	-0.109206	0.986131	-0.378329	0.913581	0.149121	-0.917195	-0.391719	0.072865
36499	9.747303	1.214333	0.034943	0.286509	-0.347212	0.101572	0.121358	-0.109636	0.986535	-0.381135	0.912548	0.148299	-0.916520	-0.394000	0.068959
36500	9.750785	0.935465	0.106276	0.269846	-0.362547	0.112045	0.117551	-0.110016	0.986954	-0.383801	0.911587	0.147327	-0.915903	-0.396112	0.064934
36501	9.739385	0.781690	0.163328	0.292550	-0.378860	0.113264	0.113590	-0.110482	0.987366	-0.386663	0.910532	0.146368	-0.915199	-0.398404	0.060708
36502	9.789003	0.745922	0.177386	0.346068	-0.397876	0.096250	0.109519	-0.111167	0.987749	-0.389996	0.909237	0.145573	-0.914280	-0.401161	0.056224
36503	10.022002	0.894223	0.331614	0.422725	-0.416628	0.073323	0.105369	-0.112171	0.988086	-0.393989	0.907598	0.145049	-0.913055	-0.404579	0.051439
36504	9.921606	1.005856	0.399568	0.481018	-0.419121	0.048714	0.101295	-0.113404	0.988372	-0.398487	0.905679	0.144756	-0.911563	-0.408516	0.046550
36505	9.927337	1.146156	0.570735	0.552668	-0.419127	0.043880	0.097245	-0.114720	0.988627	-0.403616	0.903440	0.144536	-0.909746	-0.413081	0.041553
36506	9.836868	1.346824	0.756850	0.606610	-0.396977	0.037467	0.093427	-0.116003	0.988845	-0.409222	0.900943	0.144355	-0.907639	-0.418144	0.036702
36507	9.673479	1.625704	1.035058	0.644183	-0.362516	0.050193	0.089878	-0.117068	0.989049	-0.415161	0.898271	0.144050	-0.905297	-0.423561	0.032133
36508	9.574027	1.820109	1.483242	0.634905	-0.317642	0.059733	0.086698	-0.117858	0.989239	-0.421011	0.895616	0.143601	-0.902902	-0.428931	0.028029
36509	9.493679	2.072023	1.733457	0.596469	-0.267425	0.069269	0.083938	-0.118382	0.989414	-0.426504	0.893103	0.143041	-0.900582	-0.433996	0.024475
36510	9.447284	2.262812	1.928721	0.548033	-0.222632	0.081292	0.081527	-0.118601	0.989589	-0.431558	0.890789	0.142313	-0.898393	-0.438668	0.021441
36511	9.352809	2.471064	1.915211	0.486260	-0.183451	0.092876	0.079425	-0.118572	0.989764	-0.436056	0.888732	0.141460	-0.896408	-0.442827	0.018884
36512	9.345714	2.683643	1.739074	0.426905	-0.150850	0.109327	0.077536	-0.118245	0.989953	-0.440021	0.886943	0.140405	-0.894634	-0.446486	0.016739
36513	9.328689	2.747861	1.512540	0.344862	-0.124517	0.118433	0.075849	-0.117743	0.990143	-0.443256	0.885512	0.139256	-0.893180	-0.449450	0.014975
36514	9.357786	2.620254	1.254959	0.240891	-0.103532	0.132304	0.074277	-0.117012	0.990349	-0.445562	0.884562	0.137930	-0.892164	-0.451507	0.013566
36515	9.455199	2.433677	0.914352	0.146480	-0.096279	0.140418	0.072742	-0.116196	0.990559	-0.447035	0.884036	0.136529	-0.891554	-0.452746	0.012363
36516	9.501170	2.086568	0.588965	0.082029	-0.093414	0.160354	0.071132	-0.115176	0.990795	-0.447938	0.883829	0.134900	-0.891231	-0.453410	0.011277
36517	9.493300	1.727925	0.276178	0.052132	-0.112775	0.181287	0.069265	-0.114077	0.991054	-0.448593	0.883773	0.133081	-0.891048	-0.453798	0.010041
36518	9.506057	1.319387	-0.024759	0.053691	-0.152226	0.195240	0.066973	-0.113017	0.991333	-0.449260	0.883730	0.131101	-0.890887	-0.454147	0.008412
36519	9.523050	0.861107	-0.334795	0.083227	-0.207664	0.206431	0.064146	-0.112129	0.991621	-0.450199	0.883556	0.129032	-0.890621	-0.454704	0.006196
36520	9.496186	0.537963	-0.585841	0.137543	-0.266728	0.212204	0.060754	-0.111443	0.991912	-0.451612	0.883146	0.126883	-0.890143	-0.455668	0.003326
36521	9.509712	0.386834	-0.785072	0.214778	-0.334301	0.212679	0.056767	-0.111084	0.992188	-0.453710	0.882375	0.124748	-0.889340	-0.457247	-0.000310
36522	9.638354	0.402963	-0.772459	0.293453	-0.404728	0.181961	0.052282	-0.111308	0.992410	-0.456472	0.881211	0.122884	-0.888200	-0.459432	-0.004738
36523	9.517728	0.526375	-0.652115	0.349682	-0.448880	0.168457	0.047475	-0.111885	0.992586	-0.459720	0.879761	0.121156	-0.886794	-0.462063	-0.009669
36524	10.032443	0.552906	-0.469626	0.386280	-0.517628	0.140486	0.042180	-0.113024	0.992697	-0.463260	0.878107	0.119662	-0.885218	-0.464924	-0.015320
36525	10.273158	0.636331	-0.187765	0.409381	-0.541990	0.135525	0.036705	-0.114355	0.992762	-0.466992	0.876325	0.118209	-0.883499	-0.467951	-0.021237
36526	10.218034	0.404208	-0.096033	0.407653	-0.560648	0.148756	0.030999	-0.115659	0.992805	-0.470694	0.874560	0.116581	-0.881752	-0.470922	-0.027330
36527	10.115111	0.438384	0.295209	0.466449	-0.558615	0.160868	0.025267	-0.116884	0.992824	-0.474908	0.872515	0.114806	-0.879673	-0.474400	-0.033463
36528	10.074234	0.580642	0.698930	0.519577	-0.541959	0.163764	0.019664	-0.118014	0.992817	-0.479562	0.870210	0.112938	-0.877288	-0.478338	-0.039484
