// General information: 
//  MT Manager version: 2022.2.0 
//  XDA version: 2022.2.0 build 7381 rev 124627 built on 2023-07-19
// Device information: 
//  DeviceId: 00B4CBA7
//  ProductCode: MTW2-3A7G6
//  Firmware Version: 4.6.0
//  Hardware Version: 2.0.0
// Device settings: 
//  Filter Profile: human(46.1)
//  Option Flags: Orientation Smoother Disabled, Position/Velocity Smoother Disabled, Continuous Zero Rotation Update Disabled, AHS Disabled, ICC Disabled
// Coordinate system: ENU
PacketCounter	Acc_X	Acc_Y	Acc_Z	Gyr_X	Gyr_Y	Gyr_Z	Mat[1][1]	Mat[2][1]	Mat[3][1]	Mat[1][2]	Mat[2][2]	Mat[3][2]	Mat[1][3]	Mat[2][3]	Mat[3][3]
25695	9.456637	0.479363	-1.839537	0.011289	0.048774	-0.016278	0.230173	0.076074	0.970172	0.184457	-0.982278	0.033261	0.955508	0.171299	-0.240126
25696	9.489270	0.492037	-1.800575	0.012661	0.034381	-0.012510	0.229803	0.076177	0.970251	0.184586	-0.982249	0.033400	0.955572	0.171420	-0.239785
25697	9.507357	0.556855	-1.767244	0.021900	0.020503	-0.010047	0.229571	0.076278	0.970298	0.184795	-0.982206	0.033492	0.955588	0.171617	-0.239582
25698	9.513656	0.624319	-1.794074	0.025772	0.002319	0.001784	0.229535	0.076294	0.970306	0.185008	-0.982167	0.033461	0.955555	0.171834	-0.239557
25699	9.502812	0.555235	-1.898148	0.006210	-0.010281	0.011203	0.229637	0.076240	0.970286	0.185018	-0.982168	0.033385	0.955529	0.171854	-0.239648
25700	9.514221	0.523195	-2.035865	-0.002914	-0.018301	0.015986	0.229820	0.076159	0.970249	0.184963	-0.982182	0.033284	0.955495	0.171811	-0.239812
25701	9.457448	0.422766	-2.225989	-0.005691	-0.027147	0.020263	0.230100	0.076045	0.970191	0.184839	-0.982210	0.033149	0.955452	0.171701	-0.240062
25702	9.443248	0.401964	-2.278136	-0.000635	-0.033144	0.017850	0.230432	0.075962	0.970119	0.184757	-0.982229	0.033025	0.955388	0.171626	-0.240372
25703	9.460601	0.428394	-2.273004	-0.013291	-0.033834	0.024254	0.230783	0.075820	0.970047	0.184551	-0.982273	0.032869	0.955343	0.171437	-0.240685
25704	9.453458	0.394849	-2.225971	-0.036052	-0.037409	0.026590	0.231170	0.075668	0.969966	0.184153	-0.982352	0.032746	0.955326	0.171053	-0.241025
25705	9.496885	0.329747	-2.180860	-0.035684	-0.038061	0.023260	0.231559	0.075543	0.969883	0.183735	-0.982433	0.032653	0.955312	0.170640	-0.241371
25706	9.503034	0.288307	-2.279865	-0.025417	-0.040609	0.024941	0.231971	0.075415	0.969795	0.183456	-0.982490	0.032520	0.955266	0.170371	-0.241744
25707	9.528980	0.333000	-2.357366	-0.012947	-0.038441	0.026616	0.232370	0.075257	0.969712	0.183247	-0.982535	0.032341	0.955209	0.170182	-0.242102
25708	9.511690	0.396686	-2.333398	-0.021354	-0.039148	0.026509	0.232774	0.075100	0.969627	0.182949	-0.982595	0.032184	0.955168	0.169901	-0.242462
25709	9.432596	0.424295	-2.411141	-0.035924	-0.038186	0.031678	0.233179	0.074891	0.969546	0.182509	-0.982683	0.032012	0.955153	0.169486	-0.242810
25710	9.488896	0.385987	-2.489446	-0.017247	-0.040041	0.033453	0.233604	0.074671	0.969460	0.182253	-0.982738	0.031778	0.955098	0.169264	-0.243180
25711	9.419994	0.449900	-2.281848	0.005215	-0.036565	0.021266	0.233974	0.074562	0.969379	0.182230	-0.982748	0.031606	0.955012	0.169255	-0.243525
25712	9.317186	0.444373	-2.122729	-0.006803	-0.044079	0.027038	0.234428	0.074406	0.969282	0.182064	-0.982785	0.031409	0.954933	0.169108	-0.243939
25713	9.264289	0.549504	-1.876475	0.014904	-0.064436	0.029367	0.235079	0.074264	0.969135	0.182114	-0.982784	0.031136	0.954763	0.169173	-0.244557
25714	9.264259	0.572743	-1.688227	0.010712	-0.079344	0.045216	0.235902	0.073989	0.968956	0.182070	-0.982806	0.030720	0.954568	0.169171	-0.245317
25715	9.359626	0.601809	-1.592095	0.014325	-0.103968	0.058292	0.236983	0.073630	0.968720	0.182046	-0.982827	0.030168	0.954305	0.169202	-0.246317
25716	9.524197	0.549441	-1.741440	0.023316	-0.121978	0.074830	0.238261	0.073149	0.968442	0.182109	-0.982838	0.029433	0.953975	0.169349	-0.247493
25717	9.597704	0.671848	-1.934706	0.045163	-0.134552	0.083974	0.239680	0.072590	0.968134	0.182316	-0.982825	0.028556	0.953580	0.169662	-0.248798
25718	9.662479	0.738804	-2.069923	0.024683	-0.148331	0.095738	0.241250	0.071938	0.967793	0.182294	-0.982856	0.027616	0.953188	0.169760	-0.250228
25719	9.570696	0.677432	-2.293209	0.010298	-0.148145	0.106053	0.242838	0.071185	0.967451	0.182112	-0.982918	0.026612	0.952819	0.169722	-0.251653
25720	9.496031	0.402515	-2.257388	0.041907	-0.147034	0.105724	0.244411	0.070438	0.967110	0.182245	-0.982922	0.025532	0.952392	0.170010	-0.253073
25721	9.442184	0.250013	-2.177125	0.102675	-0.138487	0.083154	0.245864	0.069895	0.966781	0.182996	-0.982808	0.024516	0.951874	0.170889	-0.254428
25722	9.154321	0.179822	-2.143442	0.172077	-0.136401	0.076767	0.247286	0.069403	0.966454	0.184378	-0.982577	0.023385	0.951238	0.172410	-0.255774
25723	9.100238	0.442313	-1.957766	0.231392	-0.172663	0.091118	0.249080	0.068846	0.966033	0.186329	-0.982242	0.021958	0.950390	0.174530	-0.257485
25724	9.213336	0.835719	-1.804824	0.184192	-0.202345	0.107732	0.251181	0.068187	0.965535	0.187810	-0.981992	0.020491	0.949545	0.176190	-0.259464
25725	9.268890	0.964653	-1.789888	0.079039	-0.227549	0.137149	0.253581	0.067280	0.964971	0.188192	-0.981948	0.019009	0.948831	0.176779	-0.261665
25726	9.453509	0.908508	-1.805372	-0.026458	-0.260671	0.168319	0.256353	0.066116	0.964319	0.187449	-0.982118	0.017505	0.948233	0.176273	-0.264163
25727	9.747042	0.691011	-2.050835	-0.116995	-0.274302	0.188699	0.259289	0.064782	0.963625	0.185831	-0.982451	0.016045	0.947753	0.174911	-0.266777
25728	10.037972	0.017036	-2.497515	-0.192655	-0.253480	0.188856	0.262018	0.063410	0.962977	0.183508	-0.982907	0.014792	0.947455	0.172839	-0.269176
25729	9.965283	-0.651070	-3.017451	-0.098449	-0.248630	0.180221	0.264686	0.062105	0.962333	0.182079	-0.983193	0.013371	0.946989	0.171682	-0.271545
25730	9.742469	-0.876871	-3.466194	0.001286	-0.237054	0.166399	0.267216	0.060904	0.961710	0.181586	-0.983304	0.011817	0.946373	0.171476	-0.273814
25731	9.690769	-0.780350	-3.799815	0.067867	-0.225281	0.140174	0.269585	0.059951	0.961109	0.181831	-0.983276	0.010331	0.945654	0.171974	-0.275978
25732	9.523587	-0.711020	-3.972051	0.076536	-0.193827	0.117717	0.271615	0.059155	0.960586	0.182172	-0.983225	0.009039	0.945007	0.172537	-0.277835
25733	9.366415	-0.423755	-4.006788	0.055255	-0.158672	0.094515	0.273269	0.058538	0.960155	0.182415	-0.983189	0.008025	0.944483	0.172954	-0.279353
25734	9.319212	-0.233383	-3.936600	-0.032106	-0.123134	0.082019	0.274568	0.057964	0.959819	0.181793	-0.983309	0.007378	0.944227	0.172463	-0.280522
25735	9.328249	-0.164759	-3.771436	-0.134537	-0.099219	0.077626	0.275628	0.057409	0.959548	0.180288	-0.983589	0.007060	0.944206	0.171049	-0.281455
25736	9.342674	-0.235722	-3.562105	-0.168790	-0.067066	0.065138	0.276362	0.056913	0.959367	0.178464	-0.983922	0.006960	0.944338	0.169289	-0.282076
25737	9.380075	-0.192995	-3.266910	-0.166719	-0.056035	0.053971	0.276970	0.056514	0.959215	0.176718	-0.984237	0.006962	0.944488	0.167583	-0.282592
25738	9.407029	-0.062690	-2.951796	-0.124293	-0.046717	0.052348	0.277486	0.056113	0.959090	0.175366	-0.984479	0.006861	0.944589	0.166288	-0.283019
25739	9.360446	0.178074	-2.702615	-0.075135	-0.041330	0.052112	0.277951	0.055706	0.958979	0.174490	-0.984637	0.006622	0.944614	0.165492	-0.283401
25740	9.368434	0.428841	-2.475823	-0.041353	-0.048455	0.055146	0.278492	0.055263	0.958847	0.173855	-0.984751	0.006261	0.944572	0.164957	-0.283853
25741	9.250801	0.587580	-2.307338	-0.037756	-0.056858	0.066960	0.279129	0.054736	0.958692	0.173290	-0.984854	0.005775	0.944488	0.164520	-0.284386
25742	9.237424	0.710091	-2.198360	-0.030088	-0.070922	0.078178	0.279916	0.054121	0.958498	0.172767	-0.984949	0.005160	0.944351	0.164152	-0.285053
25743	9.177075	0.659516	-2.132390	-0.038093	-0.091430	0.098422	0.280932	0.053339	0.958244	0.172110	-0.985068	0.004374	0.944169	0.163695	-0.285918
25744	9.142621	0.475019	-2.124846	-0.023514	-0.106287	0.110389	0.282110	0.052456	0.957947	0.171525	-0.985174	0.003434	0.943924	0.163343	-0.286925
25745	9.110535	0.284666	-2.191984	0.019261	-0.124019	0.126752	0.283481	0.051448	0.957597	0.171327	-0.985212	0.002213	0.943549	0.163435	-0.288103
25746	9.199729	0.124174	-2.216738	0.045057	-0.140531	0.137897	0.285027	0.050347	0.957196	0.171298	-0.985219	0.000813	0.943089	0.163734	-0.289439
25747	9.296504	0.087910	-2.575892	0.104191	-0.150189	0.146256	0.286678	0.049191	0.956763	0.171841	-0.985124	-0.000840	0.942489	0.164652	-0.290866
25748	9.342574	0.109042	-2.867628	0.154331	-0.149570	0.149629	0.288329	0.047991	0.956328	0.172798	-0.984954	-0.002670	0.941811	0.166021	-0.292283
25749	9.365531	0.297145	-3.080304	0.126936	-0.143523	0.154530	0.289931	0.046746	0.955905	0.173525	-0.984819	-0.004471	0.941185	0.167170	-0.293642
25750	9.383947	0.181880	-3.445671	0.059458	-0.129289	0.165676	0.291418	0.045369	0.955519	0.173578	-0.984801	-0.006179	0.940716	0.167658	-0.294863
25751	9.364911	-0.022992	-3.527842	0.020101	-0.113787	0.167000	0.292761	0.043953	0.955175	0.173258	-0.984846	-0.007785	0.940358	0.167771	-0.295939
25752	9.385591	-0.104349	-3.435225	-0.015062	-0.100543	0.158660	0.293962	0.042597	0.954868	0.172627	-0.984944	-0.009205	0.940099	0.167542	-0.296889
25753	9.433471	-0.254971	-3.311765	-0.037559	-0.083920	0.159747	0.295009	0.041202	0.954606	0.171783	-0.985078	-0.010570	0.939926	0.167104	-0.297685
25754	9.457048	-0.450560	-3.111731	-0.027926	-0.071847	0.150337	0.295925	0.039868	0.954379	0.171011	-0.985198	-0.011870	0.939778	0.166722	-0.298363
25755	9.506348	-0.435862	-3.036928	0.015784	-0.066266	0.140039	0.296771	0.038637	0.954167	0.170724	-0.985230	-0.013205	0.939564	0.166818	-0.298984
25756	9.508274	-0.236019	-3.039362	0.054556	-0.061802	0.138654	0.297574	0.037394	0.953966	0.170738	-0.985208	-0.014640	0.939307	0.167234	-0.299557
25757	9.581576	-0.048019	-3.112219	0.053150	-0.055913	0.133139	0.298310	0.036214	0.953782	0.170820	-0.985172	-0.016021	0.939059	0.167704	-0.300073
25758	9.635109	-0.083836	-3.277437	0.043080	-0.046197	0.142249	0.298972	0.034912	0.953623	0.170717	-0.985165	-0.017455	0.938867	0.168018	-0.300497
25759	9.480302	-0.120865	-3.438608	0.065019	-0.027804	0.140135	0.299456	0.033616	0.953518	0.170888	-0.985108	-0.018938	0.938682	0.168616	-0.300741
25760	9.321641	-0.162190	-3.483833	0.062013	-0.015511	0.140860	0.299824	0.032301	0.953448	0.171053	-0.985050	-0.020418	0.938534	0.169212	-0.300866
25761	9.300957	-0.204424	-3.491544	0.044283	-0.002659	0.142439	0.300076	0.030940	0.953413	0.171021	-0.985025	-0.021861	0.938460	0.169614	-0.300874
25762	9.275686	-0.277381	-3.446756	0.052042	0.020457	0.136829	0.300101	0.029590	0.953448	0.171055	-0.984987	-0.023271	0.938445	0.170076	-0.300657
25763	9.232067	-0.336816	-3.311747	0.054732	0.035421	0.138121	0.299988	0.028208	0.953526	0.171134	-0.984938	-0.024704	0.938467	0.170592	-0.300297
25764	9.234812	-0.297338	-3.180739	0.062343	0.045789	0.136544	0.299777	0.026814	0.953633	0.171257	-0.984880	-0.026142	0.938512	0.171153	-0.299836
25765	9.309853	-0.230182	-3.024129	0.062381	0.058916	0.144307	0.299454	0.025330	0.953774	0.171389	-0.984815	-0.027656	0.938591	0.171749	-0.299249
25766	9.302682	-0.124660	-2.863337	0.074364	0.064314	0.146900	0.299086	0.023807	0.953929	0.171612	-0.984731	-0.029229	0.938668	0.172448	-0.298605
25767	9.293344	-0.088000	-2.861193	0.123021	0.062879	0.150942	0.298739	0.022250	0.954076	0.172295	-0.984558	-0.030988	0.938653	0.173640	-0.297959
25768	9.405680	-0.018968	-2.743816	0.167928	0.062810	0.141120	0.298375	0.020791	0.954222	0.173431	-0.984300	-0.032783	0.938560	0.175273	-0.297296
25769	9.410157	0.145474	-2.685494	0.189207	0.062238	0.156201	0.298046	0.019182	0.954359	0.174720	-0.984003	-0.034787	0.938425	0.177114	-0.296630
25770	9.307509	0.157005	-2.579602	0.186043	0.052261	0.164396	0.297827	0.017509	0.954459	0.175950	-0.983709	-0.036857	0.938265	0.178914	-0.296055
25771	9.254284	0.114323	-2.583406	0.150866	0.045280	0.171583	0.297688	0.015778	0.954533	0.176834	-0.983472	-0.038893	0.938143	0.180372	-0.295558
25772	9.261910	-0.008477	-2.628792	0.104378	0.038615	0.179928	0.297627	0.013974	0.954580	0.177242	-0.983318	-0.040868	0.938085	0.181355	-0.295139
25773	9.328534	-0.253517	-2.810091	0.058578	0.037649	0.192012	0.297597	0.012055	0.954615	0.177200	-0.983243	-0.042825	0.938102	0.181902	-0.294747
25774	9.493988	-0.596237	-3.176162	0.068856	0.046126	0.201511	0.297504	0.010026	0.954668	0.177214	-0.983148	-0.044900	0.938129	0.182539	-0.294267
25775	9.448865	-0.529368	-3.472909	0.098699	0.061065	0.198516	0.297266	0.008001	0.954761	0.177529	-0.982991	-0.047037	0.938145	0.183481	-0.293630
25776	9.379103	-0.371822	-3.694763	0.055437	0.076156	0.198209	0.296886	0.005948	0.954894	0.177429	-0.982911	-0.049041	0.938284	0.183985	-0.292868
25777	9.401118	-0.467690	-3.973371	-0.030613	0.108943	0.201936	0.296205	0.003801	0.955117	0.176522	-0.982983	-0.050832	0.938671	0.183656	-0.291835
25778	9.359906	-0.665332	-3.900280	-0.089425	0.137283	0.195414	0.295243	0.001660	0.955421	0.175054	-0.983164	-0.052387	0.939248	0.182717	-0.290563
25779	9.317152	-1.007984	-3.854529	-0.118941	0.168671	0.184919	0.293964	-0.000428	0.955816	0.173371	-0.983388	-0.053761	0.939962	0.181515	-0.289006
25780	9.358894	-1.215197	-3.715977	-0.084105	0.198528	0.167240	0.292369	-0.002398	0.956303	0.172048	-0.983548	-0.055067	0.940702	0.180630	-0.287146
25781	9.342279	-1.207123	-3.536241	-0.036907	0.219039	0.146290	0.290542	-0.004195	0.956853	0.171254	-0.983616	-0.056312	0.941412	0.180226	-0.285064
25782	9.382588	-1.057380	-3.378990	0.007352	0.238564	0.126763	0.288495	-0.005836	0.957464	0.170921	-0.983606	-0.057496	0.942102	0.180238	-0.282768
25783	9.375167	-0.912538	-3.311036	0.050436	0.253710	0.110232	0.286276	-0.007340	0.958119	0.171059	-0.983514	-0.058645	0.942754	0.180683	-0.280301
25784	9.335870	-0.665714	-3.022510	0.085281	0.259838	0.102019	0.283984	-0.008777	0.958789	0.171542	-0.983359	-0.059811	0.943359	0.181458	-0.277753
25785	9.236450	-0.503840	-2.828072	0.090644	0.267482	0.103659	0.281622	-0.010245	0.959471	0.172083	-0.983191	-0.061008	0.943968	0.182290	-0.275125
25786	9.271649	-0.593762	-2.599250	0.124107	0.263581	0.104598	0.279297	-0.011716	0.960133	0.172941	-0.982960	-0.062302	0.944502	0.183447	-0.272511
25787	9.274068	-0.503667	-2.280652	0.190921	0.248233	0.101144	0.277111	-0.013130	0.960748	0.174442	-0.982602	-0.063743	0.944870	0.185259	-0.269999
25788	9.284797	-0.480398	-1.745187	0.217559	0.225108	0.101550	0.275145	-0.014506	0.961293	0.176202	-0.982189	-0.065255	0.945118	0.187336	-0.267688
25789	9.354033	-0.663290	-1.289508	0.200493	0.187163	0.099935	0.273536	-0.015802	0.961732	0.177801	-0.981803	-0.066702	0.945285	0.189243	-0.265749
25790	9.435001	-1.015452	-0.910406	0.230991	0.150757	0.086131	0.272248	-0.016896	0.962079	0.179726	-0.981357	-0.068094	0.945293	0.191449	-0.264136
25791	9.521884	-1.266634	-0.672872	0.282284	0.092693	0.074860	0.271491	-0.017772	0.962277	0.182169	-0.980807	-0.069510	0.945043	0.194168	-0.263043
25792	9.516313	-1.196553	-0.432705	0.357632	0.039530	0.058481	0.271207	-0.018385	0.962345	0.185366	-0.980104	-0.070964	0.944503	0.197632	-0.262403
25793	9.305369	-0.912478	-0.296392	0.403409	-0.022041	0.051949	0.271495	-0.018812	0.962256	0.189012	-0.979297	-0.072474	0.943697	0.201554	-0.262319
25794	9.350956	-0.828727	-0.263133	0.366149	-0.084531	0.044447	0.272358	-0.019037	0.962008	0.192325	-0.978551	-0.073814	0.942779	0.205122	-0.262855
25795	9.508101	-0.937196	-0.717494	0.346442	-0.134856	0.046458	0.273701	-0.019175	0.961624	0.195441	-0.977834	-0.075126	0.941749	0.208502	-0.263887
25796	9.642732	-1.193812	-1.431832	0.359256	-0.173916	0.040485	0.275398	-0.019167	0.961139	0.198690	-0.977079	-0.076416	0.940573	0.212013	-0.265277
25797	9.632841	-1.015922	-1.918013	0.336549	-0.198810	0.040756	0.277331	-0.019103	0.960585	0.201719	-0.976360	-0.077656	0.939360	0.215305	-0.266921
25798	9.612164	-0.958029	-2.542151	0.248539	-0.210351	0.032108	0.279351	-0.018923	0.960003	0.203947	-0.975823	-0.078581	0.938280	0.217742	-0.268738
25799	9.650445	-1.117343	-3.024137	0.176806	-0.205311	0.018960	0.281298	-0.018622	0.959440	0.205531	-0.975441	-0.079192	0.937352	0.219471	-0.270562
25800	9.522555	-1.405413	-3.440740	0.148705	-0.195054	-0.005656	0.283092	-0.018099	0.958922	0.206924	-0.975122	-0.079493	0.936505	0.220928	-0.272304
25801	9.325093	-1.536351	-3.507371	0.174403	-0.176693	-0.034582	0.284656	-0.017333	0.958473	0.208634	-0.974750	-0.079589	0.935651	0.222625	-0.273853
25802	9.196579	-1.549231	-3.532666	0.202939	-0.159077	-0.064537	0.285989	-0.016312	0.958094	0.210694	-0.974316	-0.079479	0.934783	0.224595	-0.275207
25803	9.241147	-1.510113	-3.390274	0.210010	-0.146268	-0.086739	0.287154	-0.015100	0.957765	0.212884	-0.973864	-0.079180	0.933929	0.226630	-0.276434
25804	9.301225	-1.169067	-3.029673	0.198194	-0.132041	-0.101729	0.288149	-0.013772	0.957487	0.215008	-0.973436	-0.078706	0.933136	0.228546	-0.277533
25805	9.201016	-0.979075	-2.706226	0.131899	-0.126064	-0.113678	0.289061	-0.012339	0.957231	0.216546	-0.973157	-0.077936	0.932497	0.229813	-0.278630
25806	9.151032	-0.873183	-2.263557	0.084455	-0.131604	-0.115588	0.290017	-0.010874	0.956960	0.217650	-0.972983	-0.077018	0.931943	0.230619	-0.279815
25807	9.221269	-0.775504	-1.800256	0.056900	-0.157732	-0.117873	0.291211	-0.009327	0.956613	0.218502	-0.972872	-0.076001	0.931371	0.231155	-0.281274
25808	9.325306	-0.712651	-1.400159	0.065948	-0.197199	-0.120214	0.292764	-0.007666	0.956154	0.219439	-0.972740	-0.074989	0.930664	0.231771	-0.283101
25809	9.465164	-0.353401	-1.173301	0.096536	-0.241994	-0.113130	0.294748	-0.005967	0.955556	0.220649	-0.972532	-0.074134	0.929752	0.232693	-0.285335
25810	9.494063	0.175426	-1.035892	0.050472	-0.293214	-0.087379	0.297258	-0.004398	0.954787	0.221357	-0.972427	-0.073395	0.928784	0.233166	-0.288088
25811	9.449114	0.517010	-1.021336	-0.057194	-0.348854	-0.061121	0.300343	-0.002954	0.953827	0.220989	-0.972571	-0.072597	0.927878	0.232589	-0.291452
25812	9.538404	0.337279	-1.390382	-0.166443	-0.393466	-0.031152	0.303903	-0.001702	0.952701	0.219522	-0.972965	-0.071764	0.927067	0.230948	-0.295313
25813	9.425647	0.111543	-1.754901	-0.202187	-0.433532	-0.006413	0.307888	-0.000606	0.951422	0.217649	-0.973438	-0.071053	0.926193	0.228952	-0.299578
25814	9.484915	-0.126322	-2.200062	-0.244739	-0.464902	0.014356	0.312201	0.000351	0.950016	0.215323	-0.974002	-0.070401	0.925293	0.226540	-0.304160
25815	9.836752	-0.774976	-2.881229	-0.258799	-0.479241	0.026766	0.316672	0.001207	0.948534	0.212826	-0.974593	-0.069813	0.924350	0.223981	-0.308883
25816	10.372390	-1.467026	-3.766936	-0.216579	-0.471840	0.018102	0.321047	0.002120	0.947061	0.210753	-0.975083	-0.069261	0.923316	0.221832	-0.313495
25817	10.477531	-1.464998	-4.667529	-0.088625	-0.429695	0.008800	0.325013	0.003023	0.945705	0.209888	-0.975287	-0.069015	0.922125	0.220923	-0.317615
25818	9.579038	-0.361813	-5.202045	-0.031900	-0.369581	-0.006799	0.328385	0.003942	0.944536	0.209598	-0.975364	-0.068800	0.920995	0.220566	-0.321121
25819	8.761574	0.886329	-5.140976	-0.267675	-0.316525	-0.000923	0.331280	0.004682	0.943521	0.207118	-0.975958	-0.067879	0.920519	0.217907	-0.324285
25820	8.802436	0.419345	-5.524621	-0.555992	-0.248298	-0.004137	0.333538	0.005293	0.942722	0.201992	-0.977162	-0.065979	0.920843	0.212428	-0.326990
25821	8.986230	-1.347192	-5.692478	-0.589405	-0.178136	-0.018910	0.335123	0.005889	0.942156	0.196607	-0.978403	-0.063818	0.921432	0.206622	-0.329044
25822	9.417135	-2.249022	-5.245027	-0.383676	-0.131741	-0.039456	0.336241	0.006585	0.941753	0.193196	-0.979191	-0.062131	0.921747	0.202834	-0.330517
25823	9.534384	-2.335263	-4.417479	-0.164780	-0.079951	-0.094290	0.336779	0.007707	0.941552	0.191976	-0.979524	-0.060649	0.921805	0.201180	-0.331363
25824	9.250518	-2.220023	-3.786011	-0.041848	-0.038463	-0.153649	0.336821	0.009329	0.941523	0.192097	-0.979600	-0.059014	0.921765	0.200741	-0.331742
25825	8.967114	-1.747605	-3.258426	0.003761	-0.020392	-0.197294	0.336612	0.011341	0.941575	0.192778	-0.979578	-0.057120	0.921699	0.200742	-0.331924
25826	8.894629	-1.258763	-2.864130	0.015547	-0.019601	-0.217851	0.336353	0.013552	0.941638	0.193642	-0.979525	-0.055071	0.921612	0.200864	-0.332091
25827	8.923332	-0.908626	-2.506806	-0.030725	-0.029315	-0.226678	0.336167	0.015869	0.941669	0.194103	-0.979560	-0.052785	0.921583	0.200525	-0.332376
25828	8.999401	-0.845435	-2.343819	-0.013336	-0.050570	-0.241888	0.336145	0.018375	0.941631	0.194770	-0.979552	-0.050414	0.921451	0.200348	-0.332850
25829	9.060801	-0.757503	-2.250151	0.072037	-0.074088	-0.256918	0.336308	0.021078	0.941516	0.196279	-0.979363	-0.048186	0.921071	0.201005	-0.333505
25830	9.430498	-0.294096	-2.257872	0.135431	-0.115065	-0.257286	0.336843	0.023864	0.941259	0.198370	-0.979039	-0.046167	0.920427	0.202269	-0.334516
25831	9.719762	0.387136	-2.292447	0.138279	-0.158921	-0.242870	0.337803	0.026602	0.940841	0.200444	-0.978703	-0.044296	0.919626	0.203549	-0.335941
25832	9.738561	1.020296	-2.160222	0.026279	-0.191412	-0.210116	0.339122	0.029085	0.940293	0.201383	-0.978596	-0.042360	0.918935	0.203724	-0.337721
25833	9.490781	1.054922	-2.095403	-0.131939	-0.223777	-0.177769	0.340803	0.031317	0.939613	0.200758	-0.978816	-0.040192	0.918450	0.202332	-0.339871
25834	9.253083	0.894178	-2.208485	-0.218290	-0.260179	-0.151682	0.342868	0.033359	0.938791	0.199242	-0.979214	-0.037972	0.918011	0.200066	-0.342388
25835	9.114772	0.549738	-2.341023	-0.232765	-0.296530	-0.129429	0.345316	0.035254	0.937824	0.197533	-0.979638	-0.035907	0.917463	0.197651	-0.345248
25836	9.072618	0.326286	-2.826371	-0.197426	-0.314430	-0.105286	0.347972	0.036943	0.936777	0.196076	-0.979993	-0.034186	0.916771	0.195575	-0.348254
25837	9.081389	-0.061529	-3.128755	-0.167472	-0.335024	-0.073178	0.350882	0.038350	0.935634	0.194779	-0.980296	-0.032865	0.915938	0.193774	-0.351438
25838	9.123033	-0.300000	-3.448684	-0.129047	-0.337464	-0.055314	0.353844	0.039580	0.934467	0.193768	-0.980530	-0.031841	0.915013	0.192337	-0.354624
25839	9.041955	-0.547716	-3.699070	-0.113671	-0.334956	-0.064231	0.356766	0.040889	0.933299	0.192940	-0.980728	-0.030787	0.914053	0.191054	-0.357779
25840	9.001094	-0.896759	-3.925011	-0.066881	-0.329333	-0.068937	0.359622	0.042234	0.932142	0.192569	-0.980829	-0.029854	0.913011	0.190238	-0.360861
25841	8.980144	-0.976396	-3.913889	-0.011270	-0.327637	-0.087159	0.362426	0.043749	0.930985	0.192764	-0.980818	-0.028951	0.911860	0.189953	-0.363908
25842	8.828679	-0.872139	-3.765631	0.019613	-0.324624	-0.099804	0.365172	0.045384	0.929833	0.193294	-0.980740	-0.028043	0.910652	0.189971	-0.366911
25843	8.731158	-0.869016	-3.764375	0.031982	-0.312481	-0.114586	0.367777	0.047139	0.928719	0.193988	-0.980631	-0.027046	0.909455	0.190107	-0.369798
25844	8.632190	-0.887724	-3.751279	0.040233	-0.304338	-0.118158	0.370293	0.048914	0.927626	0.194775	-0.980502	-0.026048	0.908265	0.190324	-0.372601
25845	8.532661	-0.713836	-3.844537	0.049533	-0.298383	-0.114915	0.372760	0.050647	0.926545	0.195635	-0.980355	-0.025118	0.907070	0.190627	-0.375346
25846	8.449919	-0.600602	-4.177137	0.053403	-0.276352	-0.121081	0.375008	0.052400	0.925540	0.196560	-0.980194	-0.024148	0.905943	0.190980	-0.377880
25847	8.438839	-0.487840	-4.438362	0.030893	-0.259261	-0.119389	0.377103	0.054103	0.924590	0.197273	-0.980076	-0.023110	0.904918	0.191111	-0.380263
25848	8.570386	-0.278414	-4.470364	-0.028937	-0.242715	-0.112531	0.379056	0.055707	0.923695	0.197424	-0.980073	-0.021909	0.904069	0.190665	-0.382501
25849	8.680335	-0.293272	-4.470606	-0.108618	-0.213503	-0.107702	0.380757	0.057206	0.922904	0.196836	-0.980223	-0.020448	0.903482	0.189446	-0.384487
25850	8.717134	-0.474745	-4.555402	-0.129723	-0.189845	-0.123451	0.382210	0.058812	0.922202	0.196119	-0.980401	-0.018759	0.903024	0.188032	-0.386253
25851	8.912764	-0.442907	-4.390133	-0.096545	-0.171236	-0.135639	0.383473	0.060501	0.921568	0.195751	-0.980505	-0.017084	0.902568	0.186950	-0.387840
25852	9.074466	-0.230085	-4.245710	-0.086913	-0.153611	-0.135053	0.384576	0.062149	0.920999	0.195473	-0.980587	-0.015452	0.902159	0.185973	-0.389259
25853	9.169302	-0.158101	-4.123581	-0.104586	-0.135590	-0.133973	0.385520	0.063752	0.920494	0.195030	-0.980701	-0.013760	0.901852	0.184829	-0.390514
25854	9.169320	-0.134963	-4.062844	-0.107638	-0.123776	-0.136668	0.386352	0.065358	0.920033	0.194572	-0.980814	-0.012031	0.901595	0.183661	-0.391656
25855	9.235344	0.037340	-4.018409	-0.122788	-0.108285	-0.129328	0.387060	0.066863	0.919627	0.193950	-0.980957	-0.010309	0.901426	0.182352	-0.392657
25856	9.296576	0.173795	-3.994076	-0.152166	-0.107292	-0.126184	0.387764	0.068333	0.919222	0.193052	-0.981152	-0.008500	0.901316	0.180754	-0.393647
25857	9.282432	0.346389	-3.843592	-0.192023	-0.100418	-0.117619	0.388426	0.069705	0.918840	0.191762	-0.981419	-0.006612	0.901306	0.178767	-0.394576
25858	9.167285	0.380670	-3.714206	-0.208863	-0.100889	-0.113084	0.389101	0.071032	0.918453	0.190305	-0.981714	-0.004698	0.901324	0.176614	-0.395503
25859	9.044713	0.416154	-3.698825	-0.197154	-0.102851	-0.106043	0.389810	0.072292	0.918053	0.188926	-0.981987	-0.002892	0.901308	0.174571	-0.396446
25860	8.910512	0.385824	-3.767435	-0.151695	-0.101722	-0.105059	0.390510	0.073538	0.917657	0.187953	-0.982177	-0.001275	0.901208	0.172974	-0.397372
25861	8.772712	0.478799	-3.796459	-0.112107	-0.107557	-0.099959	0.391275	0.074743	0.917233	0.187318	-0.982299	0.000139	0.901008	0.171760	-0.398350
25862	8.702575	0.369217	-4.085647	-0.096930	-0.105855	-0.090150	0.392042	0.075848	0.916815	0.186784	-0.982400	0.001403	0.900786	0.170696	-0.399309
25863	8.597584	0.242037	-4.116732	-0.079328	-0.097363	-0.088023	0.392738	0.076917	0.916428	0.186400	-0.982471	0.002578	0.900562	0.169810	-0.400191
25864	8.590028	0.047479	-4.166697	-0.112277	-0.097105	-0.081225	0.393443	0.077917	0.916041	0.185694	-0.982600	0.003823	0.900400	0.168599	-0.401066
25865	8.780687	-0.266948	-4.223941	-0.114147	-0.086497	-0.080735	0.394055	0.078894	0.915694	0.184969	-0.982731	0.005071	0.900282	0.167377	-0.401843
25866	9.015433	-0.320645	-4.229741	-0.067069	-0.073855	-0.082967	0.394548	0.079872	0.915397	0.184679	-0.982780	0.006152	0.900125	0.166628	-0.402505
25867	9.280551	-0.060965	-4.186064	-0.054274	-0.063630	-0.084126	0.394949	0.080842	0.915139	0.184508	-0.982805	0.007191	0.899984	0.166010	-0.403074
25868	9.530389	0.207725	-4.124314	-0.080555	-0.051893	-0.084445	0.395243	0.081796	0.914928	0.184102	-0.982872	0.008340	0.899939	0.165143	-0.403532
25869	9.536508	0.484181	-4.074104	-0.131997	-0.044245	-0.085881	0.395467	0.082751	0.914745	0.183238	-0.983021	0.009709	0.900017	0.163776	-0.403915
25870	9.457404	0.539466	-3.992142	-0.178158	-0.046374	-0.080936	0.395718	0.083660	0.914553	0.181940	-0.983246	0.011220	0.900169	0.161954	-0.404310
25871	9.365059	0.434091	-3.914591	-0.193468	-0.050273	-0.083263	0.396004	0.084598	0.914344	0.180513	-0.983489	0.012815	0.900331	0.159976	-0.404736
25872	9.257724	0.496878	-3.757303	-0.176142	-0.053267	-0.078747	0.396324	0.085496	0.914121	0.179224	-0.983704	0.014300	0.900448	0.158165	-0.405188
25873	9.143169	0.530646	-3.663345	-0.151237	-0.058452	-0.072214	0.396705	0.086336	0.913877	0.178134	-0.983882	0.015624	0.900496	0.156594	-0.405690
25874	8.960017	0.643712	-3.634428	-0.126440	-0.064591	-0.062013	0.397158	0.087086	0.913609	0.177226	-0.984027	0.016755	0.900476	0.155261	-0.406248
25875	8.833490	0.686864	-3.696531	-0.122728	-0.072085	-0.045049	0.397711	0.087679	0.913312	0.176285	-0.984180	0.017717	0.900416	0.153957	-0.406876
25876	8.740096	0.703596	-3.752270	-0.130870	-0.079836	-0.027605	0.398363	0.088112	0.912986	0.175204	-0.984357	0.018553	0.900339	0.152568	-0.407570
25877	8.704235	0.598039	-3.839112	-0.150001	-0.085694	-0.015671	0.399091	0.088434	0.912636	0.173901	-0.984573	0.019359	0.900269	0.150982	-0.408313
25878	8.641090	0.361195	-3.924996	-0.150951	-0.090595	-0.005632	0.399879	0.088666	0.912269	0.172552	-0.984796	0.020079	0.900179	0.149384	-0.409099
25879	8.681579	0.138178	-4.029978	-0.111182	-0.088384	-0.005946	0.400648	0.088894	0.911909	0.171560	-0.984957	0.020640	0.900027	0.148178	-0.409872
25880	8.727875	0.071075	-4.201969	-0.063810	-0.090654	-0.007302	0.401434	0.089139	0.911540	0.171001	-0.985047	0.021020	0.899783	0.147436	-0.410674
25881	8.803183	0.102273	-4.324440	-0.052466	-0.078351	-0.008172	0.402109	0.089373	0.911220	0.170546	-0.985118	0.021361	0.899568	0.146816	-0.411367
25882	8.876386	0.066628	-4.417427	-0.087804	-0.063640	-0.006266	0.402653	0.089567	0.910960	0.169768	-0.985242	0.021832	0.899472	0.145861	-0.411916
25883	8.815062	-0.049518	-4.590754	-0.126668	-0.051893	-0.003813	0.403097	0.089718	0.910749	0.168629	-0.985424	0.022439	0.899487	0.144533	-0.412351
25884	8.933124	-0.249556	-4.636175	-0.139356	-0.032356	-0.017031	0.403342	0.089972	0.910615	0.167431	-0.985610	0.023221	0.899601	0.143099	-0.412602
25885	8.950188	-0.418044	-4.680403	-0.128294	-0.008924	-0.031957	0.403353	0.090338	0.910574	0.166390	-0.985766	0.024092	0.899789	0.141793	-0.412643
25886	8.922107	-0.425364	-4.595562	-0.101870	0.009852	-0.053303	0.403159	0.090888	0.910605	0.165674	-0.985862	0.025050	0.900008	0.140765	-0.412517
25887	8.925460	-0.287987	-4.477976	-0.088783	0.023656	-0.072506	0.402810	0.091608	0.910688	0.165152	-0.985922	0.026127	0.900260	0.139878	-0.412269
25888	8.841623	-0.150659	-4.366994	-0.061894	0.038980	-0.084777	0.402302	0.092429	0.910829	0.164923	-0.985931	0.027205	0.900529	0.139272	-0.411886
25889	8.811998	0.011772	-4.253061	-0.051999	0.042020	-0.090059	0.401760	0.093297	0.910980	0.164802	-0.985921	0.028291	0.900794	0.138765	-0.411479
25890	8.790407	0.222718	-4.084244	-0.064452	0.048755	-0.088853	0.401157	0.094144	0.911158	0.164563	-0.985928	0.029417	0.901106	0.138142	-0.411005
25891	8.798339	0.396343	-3.940338	-0.093639	0.050157	-0.089017	0.400543	0.094990	0.911341	0.164061	-0.985974	0.030663	0.901471	0.137233	-0.410509
25892	8.832886	0.442535	-3.784717	-0.122955	0.047197	-0.084854	0.399962	0.095802	0.911511	0.163278	-0.986061	0.031992	0.901871	0.136034	-0.410029
25893	8.821743	0.452694	-3.721893	-0.142594	0.038000	-0.080668	0.399472	0.096584	0.911643	0.162299	-0.986177	0.033363	0.902264	0.134631	-0.409626
25894	8.891416	0.360294	-3.646706	-0.125879	0.026458	-0.086405	0.399077	0.097439	0.911725	0.161493	-0.986263	0.034717	0.902584	0.133383	-0.409330
25895	8.953785	0.445836	-3.587384	-0.100967	0.019216	-0.083074	0.398754	0.098272	0.911777	0.160898	-0.986317	0.035939	0.902833	0.132372	-0.409109
25896	9.025748	0.565481	-3.637483	-0.101893	0.004711	-0.078185	0.398569	0.099075	0.911771	0.160275	-0.986374	0.037120	0.903025	0.131340	-0.409017
25897	9.038921	0.519940	-3.840006	-0.089464	0.004215	-0.073650	0.398397	0.099835	0.911763	0.159746	-0.986418	0.038208	0.903195	0.130429	-0.408935
25898	9.039765	0.575266	-3.857718	-0.088160	-0.004365	-0.072656	0.398304	0.100596	0.911720	0.159224	-0.986461	0.039282	0.903328	0.129521	-0.408929
25899	9.039671	0.607968	-3.866895	-0.103602	-0.010452	-0.067641	0.398276	0.101315	0.911653	0.158542	-0.986526	0.040373	0.903461	0.128456	-0.408972
25900	8.998539	0.516989	-3.860146	-0.125308	-0.015704	-0.061535	0.398303	0.101982	0.911567	0.157643	-0.986624	0.041498	0.903606	0.127173	-0.409052
25901	8.944493	0.297373	-3.913589	-0.099411	-0.014610	-0.068834	0.398311	0.102718	0.911481	0.157004	-0.986680	0.042583	0.903713	0.126144	-0.409133
25902	8.958993	0.299211	-3.932401	-0.057789	-0.020249	-0.066860	0.398372	0.103442	0.911372	0.156733	-0.986683	0.043480	0.903733	0.125521	-0.409280
25903	8.904648	0.303914	-3.945640	-0.027073	-0.023002	-0.074015	0.398449	0.104240	0.911248	0.156768	-0.986641	0.044317	0.903694	0.125197	-0.409467
25904	8.916436	0.336663	-4.014925	0.009921	-0.019318	-0.080181	0.398481	0.105094	0.911136	0.157163	-0.986544	0.045058	0.903611	0.125243	-0.409636
25905	9.016872	0.415653	-4.093614	0.030950	-0.015913	-0.087331	0.398471	0.106014	0.911033	0.157776	-0.986413	0.045777	0.903508	0.125498	-0.409784
25906	9.061856	0.503893	-4.020111	0.008021	-0.011632	-0.085859	0.398424	0.106915	0.910949	0.158177	-0.986312	0.046578	0.903459	0.125533	-0.409881
25907	9.106792	0.468242	-4.064380	-0.039729	-0.006557	-0.093409	0.398320	0.107883	0.910880	0.158175	-0.986261	0.047643	0.903506	0.125101	-0.409911
25908	9.187265	0.308536	-4.025345	-0.020754	-0.001409	-0.101629	0.398155	0.108926	0.910828	0.158377	-0.986177	0.048705	0.903543	0.124862	-0.409902
25909	9.221457	0.316499	-4.027983	0.017711	0.010379	-0.109998	0.397871	0.110036	0.910819	0.158960	-0.986034	0.049685	0.903566	0.125016	-0.409805
25910	9.298384	0.267065	-4.105384	0.047110	0.016242	-0.118122	0.397519	0.111219	0.910829	0.159841	-0.985844	0.050619	0.903565	0.125466	-0.409669
25911	9.335681	0.262200	-4.269595	0.083036	0.033271	-0.136573	0.396983	0.112562	0.910897	0.161118	-0.985587	0.051574	0.903574	0.126288	-0.409397
25912	9.388117	0.353717	-4.322682	0.091745	0.046986	-0.150125	0.396298	0.114020	0.911014	0.162527	-0.985300	0.052617	0.903622	0.127212	-0.409004
25913	9.307815	0.339303	-4.448839	0.076467	0.057332	-0.148286	0.395523	0.115446	0.911172	0.163790	-0.985032	0.053706	0.903734	0.127999	-0.408512
25914	9.275449	0.329126	-4.431220	0.049349	0.067197	-0.145942	0.394658	0.116837	0.911369	0.164799	-0.984799	0.054886	0.903928	0.128531	-0.407914
25915	9.180358	0.277105	-4.520001	0.055711	0.076255	-0.148927	0.393707	0.118243	0.911599	0.165874	-0.984552	0.056067	0.904146	0.129137	-0.407238
25916	9.133629	0.296208	-4.492516	0.094077	0.083768	-0.152931	0.392678	0.119678	0.911856	0.167311	-0.984248	0.057129	0.904329	0.130130	-0.406515
25917	9.076317	0.519061	-4.283752	0.102683	0.093103	-0.162172	0.391547	0.121191	0.912142	0.168860	-0.983918	0.058242	0.904531	0.131220	-0.405714
25918	9.036036	0.586547	-4.200777	0.088838	0.095854	-0.163054	0.390386	0.122708	0.912437	0.170288	-0.983601	0.059420	0.904766	0.132180	-0.404880
25919	9.098604	0.626616	-4.117065	0.125532	0.100640	-0.155387	0.389194	0.124140	0.912753	0.172014	-0.983242	0.060382	0.904953	0.133506	-0.404025
25920	9.264210	0.822918	-3.902161	0.157875	0.091967	-0.139626	0.388103	0.125427	0.913041	0.173969	-0.982856	0.061070	0.905048	0.135139	-0.403269
25921	9.271797	0.903324	-3.646581	0.191418	0.071169	-0.115171	0.387241	0.126500	0.913259	0.176132	-0.982450	0.061401	0.904998	0.137077	-0.402725
25922	9.193435	1.221908	-3.259464	0.225348	0.046088	-0.103737	0.386622	0.127494	0.913383	0.178558	-0.982006	0.061492	0.904787	0.139318	-0.402430
25923	9.166187	1.500637	-2.846145	0.203847	0.011182	-0.098823	0.386327	0.128487	0.913369	0.180768	-0.981593	0.061625	0.904475	0.141301	-0.402442
25924	9.277865	1.699611	-2.378385	0.134768	-0.029353	-0.084345	0.386421	0.129394	0.913201	0.182297	-0.981293	0.061904	0.904127	0.142553	-0.402781
25925	9.545768	1.738722	-2.049061	0.035131	-0.080872	-0.070586	0.387007	0.130241	0.912832	0.182872	-0.981151	0.062457	0.903761	0.142760	-0.403530
25926	10.019905	1.838438	-1.768435	-0.061872	-0.136522	-0.024559	0.388177	0.130715	0.912268	0.182394	-0.981206	0.062983	0.903355	0.141944	-0.404723
25927	10.332641	1.793084	-1.512796	-0.161614	-0.195095	0.049166	0.390012	0.130546	0.911509	0.180728	-0.981498	0.063241	0.902900	0.140071	-0.406389
25928	10.208958	1.610483	-1.260527	-0.150930	-0.261308	0.084862	0.392503	0.130116	0.910501	0.179021	-0.981818	0.063135	0.902160	0.138218	-0.408660
25929	10.032954	1.716900	-0.944911	-0.057106	-0.353444	0.115828	0.395880	0.129504	0.909125	0.178034	-0.982046	0.062366	0.900879	0.137166	-0.411828
25930	9.996009	2.040731	-0.744140	0.017512	-0.445689	0.138520	0.400116	0.128794	0.907369	0.177628	-0.982200	0.061088	0.899086	0.136732	-0.415871
25931	9.975129	2.168447	-0.701203	0.086351	-0.537940	0.177622	0.405245	0.127823	0.905228	0.177674	-0.982309	0.059168	0.896777	0.136857	-0.420787
25932	9.933507	2.121639	-0.822232	0.134071	-0.640136	0.245996	0.411392	0.126325	0.902662	0.177858	-0.982437	0.056430	0.893937	0.137331	-0.426635
25933	9.971700	2.126668	-0.876272	0.189856	-0.752401	0.314303	0.418649	0.124312	0.899600	0.178234	-0.982569	0.052832	0.890486	0.138221	-0.433508
25934	9.980074	1.964095	-1.135190	0.229273	-0.844737	0.383227	0.426815	0.121760	0.896105	0.178639	-0.982721	0.048443	0.886520	0.139403	-0.441191
25935	9.988707	1.805562	-1.372370	0.283018	-0.941556	0.466988	0.435960	0.118529	0.892127	0.179114	-0.982886	0.043058	0.881962	0.141021	-0.449729
25936	10.133297	1.546501	-1.830566	0.258675	-1.029941	0.576070	0.446024	0.114367	0.887684	0.178842	-0.983189	0.036811	0.876971	0.142337	-0.458980
25937	10.286978	1.188891	-2.245769	0.172471	-1.089402	0.697312	0.456775	0.109101	0.882867	0.177191	-0.983723	0.029890	0.871757	0.142783	-0.468672
25938	10.227114	0.569278	-2.941042	0.061856	-1.116142	0.797453	0.467851	0.102886	0.877798	0.174036	-0.984479	0.022632	0.866503	0.142180	-0.478496
25939	10.053575	0.012462	-3.475487	-0.061255	-1.138846	0.895666	0.479211	0.095712	0.872465	0.169255	-0.985456	0.015142	0.861226	0.140413	-0.488441
25940	9.938859	-0.752250	-4.052743	-0.153048	-1.136527	0.980481	0.490574	0.087668	0.866978	0.163183	-0.986568	0.007425	0.855984	0.137833	-0.498291
25941	9.781855	-1.264682	-4.844931	-0.169146	-1.088968	1.018131	0.501481	0.079143	0.861541	0.156679	-0.987649	-0.000471	0.850863	0.135222	-0.507688
25942	9.341378	-1.529692	-5.129922	-0.179288	-1.038709	1.036386	0.511857	0.070336	0.856186	0.149905	-0.988665	-0.008399	0.845890	0.132645	-0.516599
25943	8.821183	-1.877186	-5.690244	-0.240318	-0.962031	1.037073	0.521475	0.061378	0.851056	0.142511	-0.989665	-0.015948	0.841282	0.129601	-0.524832
25944	8.409306	-1.896697	-6.359589	-0.179846	-0.888748	1.013322	0.530318	0.052529	0.846170	0.135671	-0.990474	-0.023541	0.836873	0.127285	-0.532393
25945	8.003917	-1.396803	-6.433239	-0.242684	-0.811198	0.989053	0.538382	0.043789	0.841562	0.128353	-0.991258	-0.030535	0.832869	0.124456	-0.539296
25946	7.644093	-1.274935	-6.422680	-0.425409	-0.739408	0.967368	0.545704	0.035141	0.837241	0.119573	-0.992162	-0.036293	0.829403	0.119916	-0.545629
25947	7.226251	-1.642320	-6.491636	-0.573903	-0.658425	0.928753	0.552208	0.026730	0.833278	0.109716	-0.993123	-0.040850	0.826456	0.113982	-0.551343
25948	6.850931	-2.089746	-6.396807	-0.609696	-0.581913	0.868712	0.557899	0.018786	0.829696	0.099863	-0.993999	-0.044643	0.823879	0.107762	-0.556427
25949	6.793741	-2.028607	-5.912854	-0.578905	-0.469185	0.784737	0.562495	0.011514	0.826721	0.090697	-0.994728	-0.047856	0.821811	0.101900	-0.560574
25950	6.520737	-2.200757	-5.447555	-0.506710	-0.315360	0.681770	0.565656	0.005085	0.824626	0.082690	-0.995291	-0.050585	0.820485	0.096802	-0.563413
25951	6.387790	-2.687742	-5.151068	-0.389760	-0.142003	0.552362	0.567248	-0.000240	0.823547	0.076359	-0.995677	-0.052886	0.819999	0.092884	-0.564778
25952	6.420170	-3.478465	-4.984526	-0.162832	-0.027726	0.409669	0.567762	-0.004254	0.823181	0.072698	-0.995820	-0.055287	0.819976	0.091234	-0.565080
25953	7.126924	-3.876038	-4.637130	0.195836	0.079390	0.264517	0.567293	-0.006921	0.823487	0.072798	-0.995629	-0.058518	0.820292	0.093145	-0.564309
25954	7.704537	-3.609957	-4.184167	0.630675	0.223644	0.091140	0.565507	-0.008005	0.824705	0.077456	-0.995018	-0.062770	0.821098	0.099375	-0.562069
25955	7.847457	-3.077020	-3.862175	1.050325	0.372059	-0.062111	0.562387	-0.007737	0.826838	0.086431	-0.993928	-0.068088	0.822344	0.109757	-0.558304
25956	7.881724	-2.484286	-3.800605	1.392458	0.509675	-0.183987	0.558002	-0.006467	0.829815	0.098922	-0.992321	-0.074253	0.823923	0.123520	-0.553077
25957	7.972591	-1.762797	-3.923157	1.584095	0.643774	-0.283255	0.552377	-0.004466	0.833582	0.113556	-0.990261	-0.080553	0.825823	0.139154	-0.546491
25958	8.177459	-1.005352	-4.009322	1.582033	0.765969	-0.359712	0.545586	-0.001997	0.838052	0.128612	-0.987952	-0.086082	0.828127	0.154749	-0.538756
25959	8.404866	-0.560970	-4.210564	1.426969	0.894373	-0.431979	0.537566	0.000857	0.843221	0.142783	-0.985651	-0.090024	0.831045	0.168791	-0.529975
25960	8.569471	-0.072215	-4.348084	1.205731	1.010247	-0.472731	0.528425	0.003783	0.848972	0.155341	-0.983539	-0.092307	0.834647	0.180658	-0.520314
25961	8.674478	0.388381	-4.408931	0.926093	1.121748	-0.492484	0.518232	0.006582	0.855215	0.165661	-0.981804	-0.092828	0.839042	0.189782	-0.509893
25962	8.710563	0.625732	-4.512027	0.624419	1.232302	-0.478943	0.507024	0.008941	0.861886	0.173368	-0.980568	-0.091816	0.844317	0.195976	-0.498721
25963	8.715152	0.613359	-4.748131	0.334099	1.339362	-0.448528	0.494869	0.010728	0.868901	0.178437	-0.979870	-0.089529	0.850450	0.199349	-0.486822
25964	8.759008	0.798868	-4.699311	0.083291	1.430278	-0.401073	0.481910	0.011836	0.876141	0.181102	-0.979663	-0.086379	0.857301	0.200298	-0.474253
25965	8.574096	0.827353	-4.688364	-0.077950	1.446251	-0.362742	0.468785	0.012535	0.883223	0.182145	-0.979782	-0.082772	0.864328	0.199677	-0.461590
25966	8.853387	0.625580	-5.004319	-0.270954	1.376497	-0.370935	0.456140	0.013476	0.889806	0.181503	-0.980276	-0.078198	0.871202	0.197172	-0.449590
25967	8.643064	-1.638364	-6.292360	-0.023997	1.448823	-0.505818	0.442531	0.015615	0.896617	0.183554	-0.980256	-0.073522	0.877767	0.197114	-0.436660
25968	8.787885	-0.410477	-5.401271	0.337365	1.452096	-0.530458	0.428730	0.017963	0.903254	0.188828	-0.979501	-0.070149	0.883479	0.200635	-0.423333
25969	10.111959	2.368938	-4.291856	0.208824	1.538878	-0.396952	0.414314	0.018782	0.909940	0.192339	-0.979013	-0.067368	0.889578	0.202929	-0.409231
25970	9.078598	2.329775	-4.088702	-0.173021	1.680679	-0.225069	0.398844	0.017625	0.916849	0.191700	-0.979328	-0.064567	0.896758	0.201512	-0.393977
25971	8.661417	1.565973	-4.105920	-0.526415	1.695653	-0.099757	0.383367	0.015264	0.923470	0.187334	-0.980365	-0.061564	0.904398	0.196599	-0.378699
25972	9.304711	1.169767	-4.063217	-0.740031	1.677607	-0.087697	0.367942	0.012924	0.929759	0.180931	-0.981787	-0.057954	0.912076	0.189546	-0.363579
25973	9.394340	1.262190	-3.902662	-0.911975	1.661874	-0.149958	0.352439	0.011359	0.935766	0.173101	-0.983463	-0.053258	0.919686	0.180752	-0.348577
25974	9.598285	0.970658	-3.499095	-1.144893	1.618839	-0.180924	0.337160	0.010343	0.941391	0.163140	-0.985454	-0.047601	0.927205	0.169628	-0.333943
25975	9.742308	-0.025011	-3.378273	-1.199589	1.604915	-0.192334	0.321901	0.009650	0.946724	0.152589	-0.987405	-0.041818	0.934396	0.157921	-0.319319
25976	9.733882	-1.128279	-3.265683	-0.943464	1.590472	-0.202517	0.306662	0.009253	0.951773	0.144365	-0.988836	-0.036901	0.940806	0.148719	-0.304575
25977	9.619689	-1.390080	-3.086018	-0.471384	1.541023	-0.244785	0.291759	0.009456	0.956445	0.140630	-0.989508	-0.033116	0.946097	0.144166	-0.290028
25978	9.579715	-0.589556	-2.859468	-0.052070	1.480411	-0.304411	0.277267	0.010377	0.960737	0.140986	-0.989557	-0.030000	0.950392	0.143769	-0.275835
25979	9.628327	0.304430	-2.620136	0.172705	1.412463	-0.371160	0.263274	0.012044	0.964646	0.143612	-0.989270	-0.026844	0.953972	0.145602	-0.262179
25980	9.613548	0.920796	-2.445490	0.227781	1.335515	-0.418737	0.249879	0.014265	0.968172	0.146846	-0.988884	-0.023330	0.957077	0.148002	-0.249196
25981	9.648380	1.122501	-2.370826	0.202091	1.260793	-0.438764	0.237128	0.016762	0.971334	0.149828	-0.988519	-0.019519	0.959855	0.150162	-0.236917
25982	9.575289	1.000425	-2.362995	0.157055	1.169750	-0.437499	0.225199	0.019359	0.974120	0.152331	-0.988207	-0.015577	0.962331	0.151896	-0.225492
25983	9.602379	0.757867	-2.291236	0.196903	1.076229	-0.439097	0.214140	0.022089	0.976553	0.155168	-0.987819	-0.011681	0.964400	0.154031	-0.214959
25984	9.546710	0.553169	-2.230392	0.283121	0.997063	-0.446256	0.203789	0.024986	0.978696	0.158814	-0.987277	-0.007864	0.966048	0.157033	-0.205164
25985	10.246712	0.463325	-1.317587	0.350441	0.875028	-0.432588	0.194618	0.027904	0.980482	0.163038	-0.986611	-0.004284	0.967234	0.160689	-0.196562
25986	9.748992	0.337746	-2.232260	0.546696	0.773047	-0.407224	0.186436	0.030696	0.981988	0.169083	-0.985601	-0.001293	0.967808	0.166279	-0.188941
25987	9.012613	0.533446	-2.435584	0.697599	0.576593	-0.377271	0.180187	0.033471	0.983063	0.176500	-0.984300	0.001162	0.967668	0.173301	-0.183266
25988	8.803641	0.868091	-3.055418	0.717811	0.351354	-0.301867	0.176217	0.035859	0.983698	0.183961	-0.982929	0.002876	0.967009	0.180455	-0.179805
25989	9.061169	1.453390	-2.963683	0.585266	0.163886	-0.225509	0.174194	0.037811	0.983985	0.189987	-0.981778	0.004093	0.966210	0.186231	-0.178203
25990	8.865590	1.471461	-2.934737	0.351844	0.036859	-0.135895	0.173550	0.039116	0.984048	0.193601	-0.981068	0.004853	0.965608	0.189670	-0.177837
25991	8.525677	0.913886	-3.109604	0.182601	-0.087652	-0.056666	0.174268	0.039876	0.983890	0.195436	-0.980703	0.005131	0.965109	0.191393	-0.178699
25992	8.282902	0.275479	-3.185466	0.112385	-0.182503	0.000650	0.176003	0.040261	0.983566	0.196499	-0.980492	0.004973	0.964578	0.192394	-0.180481
25993	8.289170	-0.162836	-3.081281	0.134295	-0.261730	0.035883	0.178580	0.040452	0.983094	0.197704	-0.980252	0.004422	0.963858	0.193571	-0.183051
25994	8.426698	-0.450064	-3.074675	0.176434	-0.308545	0.048520	0.181622	0.040617	0.982529	0.199295	-0.979933	0.003670	0.962961	0.195147	-0.186073
25995	8.397936	-0.562026	-3.151810	0.251512	-0.332273	0.060603	0.184924	0.040713	0.981909	0.201579	-0.979469	0.002649	0.961857	0.197442	-0.189334
25996	8.316841	-0.488175	-3.246574	0.282676	-0.350446	0.086562	0.188442	0.040603	0.981245	0.204114	-0.978946	0.001309	0.960639	0.200039	-0.192763
25997	8.369833	-0.497096	-3.233302	0.271910	-0.348550	0.116500	0.192010	0.040202	0.980569	0.206477	-0.978451	-0.000316	0.959427	0.202526	-0.196173
25998	8.451925	-0.753182	-3.331812	0.256757	-0.340296	0.150093	0.195559	0.039467	0.979897	0.208627	-0.977993	-0.002245	0.958244	0.204873	-0.199489
25999	8.524418	-0.665602	-3.268030	0.231336	-0.330762	0.182070	0.199090	0.038405	0.979228	0.210458	-0.977593	-0.004448	0.957116	0.206972	-0.202711
26000	8.427322	-0.563530	-3.228019	0.143020	-0.329989	0.222786	0.202692	0.036953	0.978545	0.211358	-0.977385	-0.006871	0.956161	0.208216	-0.205918
26001	8.192298	-0.589397	-3.158788	0.021088	-0.338985	0.280688	0.206506	0.034953	0.977821	0.210961	-0.977447	-0.009614	0.955432	0.208267	-0.209223
26002	8.019946	-0.871610	-3.096777	-0.196049	-0.361585	0.356872	0.210684	0.032253	0.977022	0.208323	-0.977978	-0.012638	0.955099	0.206199	-0.212764
26003	8.366158	-2.253742	-4.067750	-0.430675	-0.381084	0.470917	0.215275	0.028460	0.976139	0.203182	-0.979006	-0.016266	0.955183	0.201835	-0.216538
26004	8.854039	-2.842333	-3.966313	-0.347449	-0.444815	0.585056	0.220676	0.023659	0.975060	0.198567	-0.979859	-0.021164	0.954920	0.198285	-0.220929
26005	8.829617	-1.504371	-2.883556	-0.342693	-0.467410	0.679702	0.226454	0.017953	0.973856	0.193752	-0.980680	-0.026975	0.954557	0.194795	-0.225557
26006	8.971842	-0.642680	-1.989752	-0.557839	-0.456323	0.708627	0.232137	0.011914	0.972610	0.186781	-0.981862	-0.032552	0.954581	0.189222	-0.230152
26007	10.462177	0.516086	-2.203355	-0.516458	-0.385919	0.507782	0.236737	0.007684	0.971543	0.180637	-0.982882	-0.036242	0.954634	0.184076	-0.234072
26008	10.460467	1.272847	-2.114233	-0.610780	-0.334508	0.230413	0.240318	0.006063	0.970675	0.174235	-0.984009	-0.036990	0.954929	0.178015	-0.237532
26009	10.416892	0.099600	-2.312814	-0.587001	-0.416018	0.069280	0.244393	0.006147	0.969657	0.168439	-0.985047	-0.036208	0.954935	0.172177	-0.241774
26010	10.965161	-2.078282	-2.146427	-0.429917	-0.435552	0.010417	0.248548	0.006826	0.968596	0.164288	-0.985784	-0.035211	0.954585	0.167880	-0.246136
26011	11.437811	-4.812580	-3.181156	0.266140	-0.386583	-0.008203	0.252205	0.007598	0.967644	0.166825	-0.985339	-0.035744	0.953185	0.170441	-0.249775
26012	11.001016	-5.253267	-4.217730	1.618859	-0.398001	0.031799	0.256026	0.008034	0.966636	0.182124	-0.982459	-0.040072	0.949359	0.186307	-0.252998
26013	10.696464	-1.230352	-3.967680	2.457928	-0.432704	0.060207	0.260221	0.008340	0.965513	0.205210	-0.977595	-0.046863	0.943490	0.210327	-0.256102
26014	10.233981	3.175823	-3.385195	1.988018	-0.391782	0.071016	0.264037	0.008546	0.964475	0.223708	-0.973235	-0.052620	0.938210	0.229655	-0.258882
26015	9.450042	4.574303	-4.024823	0.812705	-0.291486	0.128934	0.267043	0.008010	0.963651	0.230959	-0.971355	-0.055928	0.935599	0.237499	-0.261243
26016	8.505297	3.136981	-4.744733	-0.174896	-0.279379	0.205874	0.270107	0.006709	0.962807	0.228751	-0.971791	-0.057402	0.935262	0.235748	-0.264022
26017	8.558939	1.871379	-5.323856	-0.925300	-0.281178	0.261051	0.273305	0.004856	0.961915	0.219360	-0.973954	-0.057409	0.936582	0.226696	-0.267252
26018	8.945450	-0.119021	-6.052014	-1.385158	-0.195440	0.269849	0.275690	0.002694	0.961243	0.205610	-0.977017	-0.056232	0.938999	0.213144	-0.269908
26019	9.014926	-2.638619	-6.269442	-1.323427	-0.098080	0.271934	0.277136	0.000273	0.960831	0.192394	-0.979763	-0.055214	0.941371	0.200160	-0.271580
26020	9.196999	-3.932973	-6.119907	-0.827151	-0.042703	0.224598	0.277942	-0.001805	0.960596	0.183959	-0.981390	-0.055071	0.942819	0.192017	-0.272438
26021	9.377846	-4.122287	-5.746104	-0.281858	0.016253	0.166234	0.278075	-0.003430	0.960553	0.180817	-0.981930	-0.055852	0.943387	0.189215	-0.272430
26022	9.400126	-3.830508	-5.141566	0.144830	0.070697	0.079589	0.277536	-0.004307	0.960706	0.181941	-0.981658	-0.056961	0.943330	0.190601	-0.271662
26023	9.453333	-3.028548	-4.511480	0.369536	0.118852	-0.016631	0.276367	-0.004334	0.961042	0.185451	-0.980955	-0.057754	0.942989	0.194188	-0.270300
26024	9.708625	-1.491344	-3.646694	0.339993	0.159534	-0.105058	0.274650	-0.003579	0.961538	0.188924	-0.980300	-0.057612	0.942802	0.197481	-0.268564
26025	9.677094	-0.591115	-3.128213	-0.018799	0.235251	-0.129224	0.272170	-0.002739	0.962245	0.189079	-0.980348	-0.056271	0.943490	0.197255	-0.266304
26026	9.468319	-1.196955	-3.062219	-0.333096	0.288042	-0.116480	0.269216	-0.002122	0.963078	0.186227	-0.981010	-0.054219	0.944903	0.193947	-0.263708
26027	9.196042	-1.652199	-2.763554	-0.333450	0.299029	-0.109777	0.266168	-0.001582	0.963925	0.183345	-0.981660	-0.052239	0.946329	0.190636	-0.260997
26028	9.245628	-1.492327	-2.292244	-0.084453	0.290289	-0.136162	0.263155	-0.000761	0.964753	0.182883	-0.981829	-0.050659	0.947261	0.189768	-0.258234
26029	9.179675	-0.965118	-1.703887	0.280415	0.276346	-0.186014	0.260177	0.000575	0.965561	0.186004	-0.981299	-0.049536	0.947476	0.192487	-0.255418
26030	9.181459	-0.017897	-1.064455	0.625084	0.236938	-0.199021	0.257540	0.002100	0.966265	0.192417	-0.980081	-0.049155	0.946915	0.198585	-0.252814
26031	9.285872	1.259990	-0.574589	0.846107	0.178146	-0.163228	0.255516	0.003375	0.966799	0.200820	-0.978369	-0.049660	0.945718	0.206842	-0.250666
26032	9.377033	2.332879	-0.145178	0.736567	0.100849	-0.087472	0.254367	0.004055	0.967099	0.207982	-0.976823	-0.050608	0.944479	0.214012	-0.249315
26033	9.738312	2.464881	-0.093059	0.452239	0.027525	0.005392	0.254100	0.003980	0.967170	0.212215	-0.975852	-0.051739	0.943609	0.218395	-0.248809
26034	9.904887	1.708373	-0.168502	0.145455	-0.035318	0.084391	0.254594	0.003272	0.967042	0.213351	-0.975544	-0.052869	0.943220	0.219779	-0.249066
26035	9.794460	0.274258	-0.532969	-0.002687	-0.088870	0.134712	0.255701	0.002190	0.966753	0.212959	-0.975561	-0.054117	0.943009	0.219717	-0.249919
26036	9.699779	-0.644409	-0.906847	0.007384	-0.144742	0.133561	0.257331	0.001244	0.966323	0.212665	-0.975555	-0.055377	0.942632	0.219754	-0.251305
26037	9.583936	-1.062228	-1.282897	0.071588	-0.193007	0.125314	0.259398	0.000483	0.965770	0.212994	-0.975406	-0.056720	0.941991	0.220417	-0.253121
26038	9.471041	-0.803661	-1.631334	0.154854	-0.234981	0.106776	0.261819	-0.000000	0.965117	0.214153	-0.975071	-0.058096	0.941058	0.221893	-0.255292
26039	9.353349	-0.356695	-1.826317	0.143837	-0.259362	0.110919	0.264478	-0.000467	0.964392	0.215192	-0.974758	-0.059487	0.940076	0.223263	-0.257701
26040	9.262271	-0.023246	-1.909615	0.094437	-0.288979	0.114155	0.267419	-0.000895	0.963580	0.215756	-0.974554	-0.060783	0.939115	0.224152	-0.260421
26041	9.259455	-0.259060	-1.940554	0.048290	-0.300561	0.117654	0.270476	-0.001330	0.962726	0.215871	-0.974452	-0.061995	0.938212	0.224593	-0.263278
26042	9.397218	-0.651802	-2.067807	0.089325	-0.321234	0.119395	0.273725	-0.001732	0.961806	0.216364	-0.974257	-0.063331	0.937156	0.225436	-0.266304
26043	9.531832	-0.933921	-2.194971	0.130721	-0.334938	0.114475	0.277092	-0.002053	0.960841	0.217252	-0.973967	-0.064733	0.935960	0.226682	-0.269432
26044	9.672261	-1.015151	-2.251524	0.125707	-0.351511	0.113186	0.280605	-0.002318	0.959820	0.218093	-0.973686	-0.066112	0.934717	0.227881	-0.272716
26045	9.691108	-0.846470	-2.299663	0.082429	-0.357634	0.104657	0.284156	-0.002484	0.958775	0.218546	-0.973504	-0.067294	0.933538	0.228659	-0.276084
26046	9.605889	-0.723049	-2.478177	-0.008246	-0.353488	0.104539	0.287662	-0.002655	0.957728	0.218152	-0.973527	-0.068223	0.932556	0.228555	-0.279467
26047	9.442825	-0.788617	-2.732028	-0.093293	-0.348413	0.105532	0.291121	-0.002851	0.956682	0.216956	-0.973745	-0.068922	0.931761	0.227623	-0.282859
26048	9.384749	-0.957374	-2.992153	-0.127600	-0.347935	0.095647	0.294547	-0.002955	0.955632	0.215469	-0.974040	-0.069424	0.931029	0.226358	-0.286264
26049	9.383340	-1.167748	-3.154226	-0.112892	-0.340858	0.078168	0.297869	-0.002910	0.954602	0.214167	-0.974300	-0.069797	0.930272	0.225234	-0.289591
26050	9.404616	-1.039857	-3.080327	-0.064681	-0.337932	0.061419	0.301122	-0.002710	0.953582	0.213363	-0.974452	-0.070145	0.929409	0.224581	-0.292851
26051	9.380760	-1.098189	-3.006952	-0.060990	-0.329316	0.049750	0.304269	-0.002419	0.952583	0.212626	-0.974595	-0.070391	0.928553	0.223962	-0.296025
26052	9.261834	-1.199314	-2.888029	-0.023450	-0.330238	0.029466	0.307376	-0.001929	0.951586	0.212300	-0.974654	-0.070552	0.927604	0.223708	-0.299176
26053	9.309752	-1.037436	-2.849115	0.004151	-0.336449	0.024517	0.310530	-0.001379	0.950563	0.212243	-0.974652	-0.070749	0.926566	0.223720	-0.302366
26054	9.463458	-0.723700	-2.640751	-0.006588	-0.343781	0.022070	0.313740	-0.000787	0.949509	0.212095	-0.974674	-0.070889	0.925518	0.223627	-0.305627
26055	9.428250	-0.651511	-2.593087	-0.081396	-0.345716	0.023156	0.316969	-0.000204	0.948436	0.211250	-0.974864	-0.070810	0.924610	0.222802	-0.308958
26056	9.469782	-0.787923	-2.715558	-0.114104	-0.354082	0.021670	0.320266	0.000409	0.947328	0.210109	-0.975125	-0.070611	0.923734	0.221657	-0.312385
26057	9.432902	-0.738033	-2.773043	-0.117550	-0.364013	0.013335	0.323637	0.001121	0.946181	0.208962	-0.975392	-0.070319	0.922818	0.220474	-0.315907
26058	9.334737	-0.959643	-2.788661	-0.136662	-0.376241	0.005294	0.327098	0.001934	0.944988	0.207667	-0.975700	-0.069885	0.921890	0.219102	-0.319551
26059	9.370648	-1.105484	-2.832006	-0.088283	-0.394430	-0.006362	0.330701	0.002896	0.943731	0.206856	-0.975900	-0.069492	0.920786	0.218198	-0.323330
26060	9.376801	-0.982750	-2.737666	-0.057171	-0.405956	-0.017210	0.334380	0.003986	0.942430	0.206371	-0.976031	-0.069094	0.919566	0.217594	-0.327188
26061	9.288610	-0.920144	-3.012625	-0.074751	-0.417015	-0.026039	0.338141	0.005183	0.941081	0.205753	-0.976200	-0.068553	0.918328	0.216811	-0.331160
26062	9.368567	-0.770967	-3.284878	-0.078891	-0.422593	-0.029792	0.341938	0.006426	0.939701	0.205114	-0.976376	-0.067960	0.917064	0.215984	-0.335178
26063	9.547481	-0.538234	-3.201741	-0.139624	-0.431680	-0.032112	0.345811	0.007706	0.938273	0.203927	-0.976681	-0.067138	0.915876	0.214557	-0.339318
26064	9.661343	-0.720930	-3.256892	-0.156682	-0.429181	-0.048983	0.349619	0.009140	0.936847	0.202648	-0.977019	-0.066094	0.914713	0.212958	-0.343436
26065	9.817740	-0.307829	-3.049615	-0.073927	-0.440986	-0.067478	0.353495	0.010774	0.935374	0.202192	-0.977176	-0.065157	0.913323	0.212158	-0.347606
26066	9.839647	-0.022671	-2.480245	-0.087184	-0.463557	-0.077394	0.357549	0.012549	0.933810	0.201656	-0.977358	-0.064078	0.911863	0.211220	-0.351984
26067	9.706168	-0.199257	-2.000926	-0.072848	-0.505707	-0.083519	0.361971	0.014469	0.932077	0.201276	-0.977507	-0.062991	0.910201	0.210406	-0.356741
26068	9.439773	0.057900	-1.299501	-0.023447	-0.569324	-0.080312	0.366964	0.016489	0.930089	0.201341	-0.977550	-0.062108	0.908185	0.210057	-0.362046
26069	9.154210	0.185418	-0.806947	-0.010546	-0.647030	-0.057676	0.372699	0.018448	0.927769	0.201442	-0.977569	-0.061484	0.905824	0.209807	-0.368055
26070	9.026378	0.279468	-0.340385	-0.044276	-0.743465	-0.028691	0.379344	0.020325	0.925032	0.201137	-0.977662	-0.061003	0.903129	0.209199	-0.374958
26071	9.189898	0.232883	-0.081685	-0.171742	-0.864132	0.026501	0.387171	0.021902	0.921748	0.199471	-0.978031	-0.060546	0.900172	0.207303	-0.383035
26072	9.737363	-0.019688	-0.310092	-0.206204	-0.965524	0.054125	0.395931	0.023402	0.917982	0.197395	-0.978474	-0.060193	0.896813	0.205037	-0.392028
26073	9.993395	0.600099	-0.304747	-0.227752	-1.082501	0.087965	0.405773	0.024785	0.913638	0.194989	-0.978966	-0.060044	0.892932	0.202513	-0.402071
26074	10.169807	1.043509	-0.565618	-0.314984	-1.186004	0.138694	0.416582	0.025847	0.908730	0.191603	-0.979639	-0.059971	0.888677	0.199099	-0.413053
26075	10.396793	1.676926	-0.765843	-0.411380	-1.305314	0.196311	0.428507	0.026531	0.903149	0.187114	-0.980506	-0.059975	0.883951	0.194691	-0.425118
26076	10.614665	1.812329	-1.149162	-0.507739	-1.414939	0.249389	0.441412	0.026841	0.896903	0.181547	-0.981552	-0.059974	0.878747	0.189303	-0.438142
26077	11.210404	1.936783	-1.543861	-0.549159	-1.538391	0.296153	0.455398	0.026838	0.889883	0.175397	-0.982660	-0.060124	0.872839	0.183463	-0.452209
26078	12.435089	1.955819	-1.828516	-0.539319	-1.661379	0.334583	0.470394	0.026590	0.882056	0.169155	-0.983728	-0.060554	0.866092	0.177688	-0.467237
26079	13.983031	2.493443	-2.078681	-0.496224	-1.753383	0.351001	0.486082	0.026242	0.873519	0.163186	-0.984694	-0.061225	0.858542	0.172307	-0.482924
26080	14.962771	3.337154	-2.271886	-0.436671	-1.803959	0.371118	0.502065	0.025695	0.864448	0.157620	-0.985536	-0.062250	0.850345	0.167508	-0.498853
26081	14.422642	3.780358	-2.196588	-0.497317	-1.818443	0.433641	0.518106	0.024454	0.854967	0.151192	-0.986469	-0.063406	0.841848	0.162115	-0.514792
26082	13.075622	3.566413	-2.702672	-0.478605	-1.833721	0.515384	0.534195	0.022339	0.845066	0.144474	-0.987356	-0.065226	0.832924	0.156934	-0.530668
26083	12.195396	3.727716	-2.872883	-0.401492	-1.872590	0.593703	0.550527	0.019411	0.834591	0.137922	-0.988106	-0.067997	0.823345	0.152543	-0.546657
26084	11.478801	3.140308	-3.036563	-0.497123	-1.846752	0.688258	0.566537	0.015425	0.823892	0.130015	-0.988975	-0.070888	0.813715	0.147279	-0.562297
26085	11.086106	2.159205	-3.285513	-0.507554	-1.820570	0.784046	0.582235	0.010339	0.812955	0.121401	-0.989814	-0.074359	0.803905	0.141988	-0.577560
26086	10.773017	0.825639	-3.456258	-0.598814	-1.781703	0.889607	0.597478	0.004056	0.801875	0.111378	-0.990714	-0.077978	0.794113	0.135902	-0.592382
26087	10.139119	-1.610519	-4.107815	-0.577836	-1.709033	0.952779	0.611967	-0.003076	0.790877	0.101053	-0.991492	-0.082049	0.784401	0.130132	-0.606449
26088	9.849171	-4.273346	-5.156480	-0.308164	-1.631300	1.005185	0.625628	-0.010894	0.780046	0.092443	-0.991822	-0.087994	0.774625	0.127161	-0.619504
26089	9.878813	-6.195424	-5.984532	0.174191	-1.549402	1.002344	0.638443	-0.018810	0.769439	0.087447	-0.991455	-0.096796	0.764685	0.129084	-0.631343
26090	9.839983	-6.580391	-6.080964	0.624073	-1.547503	0.981381	0.651019	-0.026436	0.758601	0.085874	-0.990412	-0.108210	0.754188	0.135591	-0.642507
26091	9.693179	-5.583972	-6.035795	0.991387	-1.530030	0.933054	0.663271	-0.033479	0.747630	0.087166	-0.988744	-0.121606	0.743285	0.145825	-0.652887
26092	8.912496	-4.223325	-5.508560	0.983041	-1.523858	0.842564	0.675228	-0.039453	0.736553	0.088796	-0.986959	-0.134269	0.732244	0.156065	-0.662919
26093	7.911388	-3.531743	-5.041935	0.700972	-1.481174	0.730677	0.686634	-0.044254	0.725656	0.088918	-0.985540	-0.144240	0.721546	0.163564	-0.672770
26094	6.675408	-4.059138	-5.407888	0.440008	-1.350167	0.597949	0.696812	-0.047855	0.715655	0.087954	-0.984540	-0.151474	0.711840	0.168493	-0.681831
26095	5.461564	-4.629795	-6.148363	0.433982	-1.246285	0.453349	0.706015	-0.050148	0.706419	0.087847	-0.983584	-0.157622	0.702727	0.173340	-0.690020
26096	4.398559	-4.943217	-6.383764	0.502813	-1.126149	0.324701	0.714143	-0.051311	0.698117	0.089074	-0.982541	-0.163335	0.694310	0.178828	-0.697104
26097	3.714284	-4.606926	-6.502433	0.578322	-1.002610	0.204411	0.721239	-0.051457	0.690772	0.091605	-0.981393	-0.168751	0.686602	0.184988	-0.703105
26098	3.799337	-3.512648	-5.992893	0.611604	-0.905597	0.106543	0.727499	-0.050752	0.684229	0.095031	-0.980194	-0.173747	0.679495	0.191424	-0.708268
26099	4.256661	-2.823000	-6.085136	0.402747	-0.694952	0.011721	0.732203	-0.049485	0.679286	0.097677	-0.979418	-0.176635	0.674046	0.195684	-0.712299
26100	3.074038	-3.724771	-6.047576	0.145399	-0.586322	-0.073408	0.736045	-0.047569	0.675259	0.099214	-0.979175	-0.177124	0.669622	0.197366	-0.715998
26101	4.058032	-2.825108	-4.538112	0.351810	-0.699813	-0.185830	0.740513	-0.044319	0.670579	0.102939	-0.978568	-0.178348	0.664111	0.201097	-0.720081
26102	5.825025	-1.682821	-3.563894	0.228911	-0.320440	-0.335539	0.742261	-0.040345	0.668895	0.106964	-0.978254	-0.177700	0.661519	0.203447	-0.721805
26103	5.662065	-2.628664	-4.078994	0.158150	0.179767	-0.485357	0.740529	-0.035926	0.671063	0.111617	-0.978125	-0.175536	0.662690	0.204892	-0.720320
26104	5.351114	-3.360122	-4.186053	0.394185	0.545559	-0.592680	0.736196	-0.031216	0.676048	0.118633	-0.977516	-0.174324	0.666289	0.208538	-0.715940
26105	5.240780	-3.821070	-4.342323	0.714027	0.897191	-0.673321	0.729349	-0.026502	0.683628	0.128351	-0.976206	-0.174780	0.671994	0.215220	-0.708593
26106	5.498900	-2.867341	-4.133815	1.118869	1.178604	-0.800475	0.720280	-0.021255	0.693358	0.141731	-0.973936	-0.177090	0.679051	0.225825	-0.698494
26107	6.073777	-2.242209	-4.322239	1.206131	1.486842	-0.960021	0.708671	-0.015323	0.705373	0.156840	-0.971328	-0.178673	0.687886	0.237251	-0.685948
26108	5.924390	-2.495669	-4.956675	1.123019	1.717446	-1.075385	0.694970	-0.009016	0.718982	0.172189	-0.968740	-0.178587	0.698117	0.247913	-0.671693
26109	6.097817	-2.755528	-5.417274	0.963251	1.819267	-1.120667	0.680145	-0.002730	0.733072	0.186675	-0.966383	-0.176796	0.708911	0.257093	-0.656771
26110	6.912415	-2.481396	-5.186159	0.851063	1.911271	-1.136997	0.664256	0.003292	0.747498	0.200415	-0.964163	-0.173851	0.720137	0.265292	-0.641111
26111	7.742266	-1.892910	-4.977949	0.597998	2.018992	-1.134945	0.647237	0.008846	0.762237	0.212202	-0.962499	-0.169016	0.732157	0.271142	-0.624842
26112	8.362281	-1.989184	-4.933294	0.290043	2.171232	-1.120919	0.628731	0.013749	0.777501	0.221511	-0.961587	-0.162122	0.745406	0.274156	-0.607625
26113	8.594520	-2.387334	-5.039210	0.124880	2.304583	-1.110358	0.608871	0.018123	0.793062	0.229320	-0.961076	-0.154097	0.759400	0.275691	-0.589327
26114	8.795353	-2.419660	-4.976660	0.086364	2.410186	-1.101714	0.587793	0.022086	0.808710	0.236586	-0.960621	-0.145722	0.773645	0.276984	-0.569871
26115	8.823743	-2.186413	-5.049960	0.073564	2.520192	-1.084354	0.565493	0.025540	0.824358	0.243410	-0.960167	-0.137227	0.788016	0.278258	-0.549184
26116	8.908614	-1.982744	-5.202308	0.054870	2.599806	-1.060888	0.542165	0.028511	0.839788	0.249730	-0.959732	-0.128643	0.802304	0.279466	-0.527454
26117	9.145049	-1.641342	-5.247093	0.054107	2.655608	-1.027064	0.518059	0.030963	0.854784	0.255607	-0.959284	-0.120167	0.816260	0.280742	-0.504880
26118	9.234918	-1.070957	-5.165086	-0.005549	2.703085	-0.990925	0.493211	0.032903	0.869287	0.260577	-0.958988	-0.111546	0.829965	0.281532	-0.481557
26119	9.365509	-0.582589	-5.020538	-0.143106	2.748837	-0.934858	0.467738	0.034173	0.883207	0.263862	-0.959085	-0.102630	0.843563	0.281048	-0.457617
26120	9.555031	-0.166929	-4.795828	-0.331395	2.801502	-0.886833	0.441527	0.034873	0.896570	0.265077	-0.959711	-0.093211	0.857198	0.278815	-0.432982
26121	9.642284	0.130050	-4.589468	-0.538537	2.849832	-0.823950	0.414703	0.034936	0.909286	0.263939	-0.960922	-0.083456	0.870838	0.274605	-0.407718
26122	9.957212	0.352104	-4.365404	-0.733581	2.880884	-0.753453	0.387401	0.034394	0.921269	0.260521	-0.962658	-0.073612	0.884336	0.268527	-0.381895
26123	10.331711	0.580362	-4.249414	-0.910435	2.908831	-0.678051	0.359716	0.033267	0.932469	0.254926	-0.964846	-0.063920	0.897562	0.260703	-0.355551
26124	10.685597	0.656495	-4.140048	-1.092447	2.922393	-0.582438	0.331792	0.031451	0.942828	0.247058	-0.967457	-0.054670	0.910427	0.251073	-0.328764
26125	11.018677	0.408160	-4.051674	-1.279639	2.916024	-0.483146	0.303872	0.029016	0.952271	0.236845	-0.970458	-0.046008	0.922803	0.239521	-0.301767
26126	11.162281	-0.167118	-3.628586	-1.410505	2.881962	-0.400972	0.276140	0.026232	0.960759	0.224900	-0.973638	-0.038057	0.934434	0.226584	-0.274760
26127	11.219586	-0.438432	-3.112458	-1.363067	2.798590	-0.366798	0.249021	0.023681	0.968209	0.213033	-0.976556	-0.030906	0.944778	0.213956	-0.248227
26128	11.161451	-0.230726	-2.473455	-1.253924	2.693834	-0.359502	0.222660	0.021625	0.974656	0.201965	-0.979088	-0.024416	0.953747	0.202283	-0.222371
26129	11.021461	-0.077685	-1.893372	-1.138599	2.542399	-0.345902	0.197615	0.020045	0.980075	0.191764	-0.981265	-0.018596	0.961340	0.191618	-0.197757
26130	11.084863	0.088615	-1.670806	-0.956071	2.373305	-0.335100	0.174056	0.018929	0.984554	0.183151	-0.982992	-0.013479	0.967554	0.182668	-0.174563
26131	10.777879	-0.061212	-1.404303	-0.767338	2.228461	-0.340442	0.151808	0.018325	0.988240	0.176235	-0.984309	-0.008820	0.972572	0.175501	-0.152656
26132	10.758700	0.083140	-0.694211	-0.511584	2.006016	-0.324414	0.131655	0.018081	0.991131	0.171692	-0.985139	-0.004835	0.976314	0.170806	-0.132803
26133	10.955327	0.023527	-1.161609	-0.193950	1.778778	-0.269006	0.113789	0.017745	0.993346	0.170098	-0.985425	-0.001881	0.978835	0.169180	-0.115149
26134	8.896992	0.166148	-1.276029	0.363961	1.495463	-0.326427	0.098541	0.018437	0.994962	0.173990	-0.984747	0.001015	0.979805	0.173014	-0.100246
26135	8.767843	0.745084	-2.299731	0.708577	1.174373	-0.266470	0.086545	0.019023	0.996066	0.181149	-0.983451	0.003043	0.979640	0.180173	-0.088558
26136	8.857944	1.831082	-2.615512	0.993094	0.938313	-0.224752	0.076898	0.019528	0.996848	0.191037	-0.981573	0.004492	0.978566	0.190089	-0.079212
26137	8.585862	2.404803	-2.468390	1.027447	0.776310	-0.129098	0.069036	0.019316	0.997427	0.201147	-0.979548	0.005048	0.977125	0.200281	-0.071509
26138	8.487401	1.855541	-2.650760	0.962252	0.666603	-0.032192	0.062420	0.018299	0.997882	0.210543	-0.977573	0.004756	0.975590	0.209800	-0.064872
26139	8.276514	0.893879	-2.935358	0.976352	0.595193	0.026531	0.056656	0.016799	0.998252	0.220013	-0.975489	0.003929	0.973850	0.219406	-0.058964
26140	8.453175	0.443023	-3.142078	1.033208	0.506974	0.038249	0.051769	0.015323	0.998542	0.230023	-0.973181	0.003009	0.971807	0.229531	-0.053906
26141	8.755773	0.687268	-2.900319	0.979339	0.431881	0.041763	0.047655	0.013942	0.998767	0.239477	-0.970900	0.002127	0.969732	0.239081	-0.049607
26142	8.661955	0.932782	-2.864146	0.807871	0.378848	0.049187	0.044064	0.012579	0.998950	0.247260	-0.968948	0.001295	0.967947	0.246943	-0.045806
26143	8.129680	0.724134	-3.365772	0.587839	0.313825	0.041867	0.041113	0.011427	0.999089	0.252897	-0.967493	0.000658	0.966619	0.252639	-0.042666
26144	7.852797	0.352332	-3.976926	0.391374	0.245931	0.028511	0.038769	0.010560	0.999192	0.256644	-0.966506	0.000257	0.965728	0.256427	-0.040181
26145	7.463632	0.086691	-4.434338	0.243199	0.203476	0.010287	0.036811	0.009973	0.999272	0.258957	-0.965889	0.000100	0.965187	0.258765	-0.038138
26146	7.046194	-0.398445	-4.857340	0.090542	0.201446	-0.013554	0.034793	0.009617	0.999348	0.259812	-0.965659	0.000247	0.965032	0.259634	-0.036097
26147	6.602272	-1.073625	-5.524342	0.035442	0.223152	-0.072124	0.032431	0.009770	0.999426	0.260146	-0.965569	0.000997	0.965024	0.259965	-0.033856
26148	6.557762	-1.362580	-5.341160	0.068928	0.223359	-0.139089	0.029878	0.010567	0.999498	0.260830	-0.965382	0.002410	0.964922	0.260627	-0.031599
26149	6.967023	-1.169427	-5.604136	0.103467	0.238678	-0.186564	0.027067	0.011781	0.999564	0.261849	-0.965099	0.004284	0.964729	0.261619	-0.029207
26150	6.554166	-1.161918	-5.505628	0.185689	0.172278	-0.229282	0.024769	0.013576	0.999601	0.263674	-0.964590	0.006567	0.964294	0.263406	-0.027471
26151	6.921773	-1.026386	-5.733946	0.229121	0.036346	-0.199235	0.023870	0.015438	0.999596	0.265899	-0.963963	0.008538	0.963705	0.265587	-0.027115
26152	7.287848	-1.162255	-6.331170	0.301704	-0.120568	-0.129701	0.024654	0.017045	0.999551	0.268809	-0.963144	0.009794	0.962878	0.268447	-0.028327
26153	7.299064	-0.927094	-6.993059	0.417984	-0.360948	-0.012741	0.028072	0.018180	0.999441	0.272802	-0.962020	0.009837	0.961660	0.272374	-0.031965
26154	7.346707	-0.057997	-6.478320	0.461838	-0.670865	0.150749	0.034904	0.018608	0.999217	0.277164	-0.960787	0.008210	0.960188	0.276661	-0.038693
26155	10.155073	2.628358	-2.798682	0.595832	-0.945599	0.194017	0.044496	0.019423	0.998821	0.282771	-0.959168	0.006055	0.958155	0.282168	-0.048172
26156	14.737027	4.077610	1.471505	0.115878	-0.693874	0.057325	0.051278	0.020871	0.998466	0.283825	-0.958861	0.005467	0.957504	0.283109	-0.055092
26157	14.356916	-0.390067	0.873263	0.103024	-0.369792	-0.006598	0.054778	0.022019	0.998256	0.284784	-0.958576	0.005517	0.957025	0.283985	-0.058779
26158	12.636484	-0.293825	0.757145	0.973766	-0.465312	0.001647	0.059200	0.023383	0.997972	0.294060	-0.955774	0.004951	0.953952	0.293170	-0.063458
26159	12.109739	2.477776	0.613557	1.215745	-0.614694	0.094746	0.065314	0.024352	0.997568	0.305544	-0.952173	0.003239	0.949935	0.304589	-0.069631
26160	12.242845	4.530208	0.185548	0.508033	-0.797695	0.365277	0.073978	0.023362	0.996986	0.310084	-0.950709	-0.000731	0.947827	0.309203	-0.077575
26161	11.498663	1.243603	-1.703654	-0.570180	-0.941688	0.754999	0.085204	0.019097	0.996180	0.304046	-0.952626	-0.007743	0.948839	0.303544	-0.086974
26162	10.142302	-1.108772	-3.283892	-0.717440	-1.136957	0.858410	0.098546	0.014359	0.995029	0.296421	-0.954930	-0.015576	0.949960	0.296482	-0.098361
26163	10.162419	-0.743052	-3.234352	-0.641294	-1.057319	0.681773	0.110570	0.010979	0.993808	0.289585	-0.956908	-0.021648	0.950744	0.290185	-0.108985
26164	9.109392	-2.883700	-3.837983	-0.571760	-0.817547	0.537498	0.119858	0.008220	0.992757	0.283503	-0.958611	-0.026291	0.951452	0.284601	-0.117227
26165	8.168909	-4.988939	-4.853939	-0.186225	-0.700661	0.444228	0.127756	0.005983	0.991788	0.281153	-0.959180	-0.030430	0.951121	0.282732	-0.124223
26166	8.458627	-5.219946	-5.422860	0.410893	-0.659908	0.357712	0.135012	0.004470	0.990834	0.284563	-0.958038	-0.034452	0.949103	0.286606	-0.130619
26167	9.069551	-3.231711	-4.743176	0.713854	-0.639782	0.293441	0.141898	0.003553	0.989875	0.290894	-0.955990	-0.038268	0.946174	0.293379	-0.136686
26168	10.498108	-0.765405	-3.407646	0.565706	-0.597212	0.242788	0.148229	0.003038	0.988948	0.295862	-0.954333	-0.041414	0.943660	0.298731	-0.142359
26169	10.745135	-0.643452	-2.686947	0.167327	-0.484789	0.224872	0.153446	0.002380	0.988154	0.297074	-0.953848	-0.043834	0.942444	0.300281	-0.147071
26170	10.137651	-0.931514	-2.471837	0.211285	-0.459947	0.190330	0.158321	0.001987	0.987386	0.298742	-0.953225	-0.045983	0.941110	0.302254	-0.151509
26171	9.807975	0.221782	-1.955890	0.276114	-0.465503	0.171077	0.163190	0.001805	0.986593	0.301037	-0.952401	-0.048051	0.939545	0.304843	-0.155965
26172	9.697191	0.396793	-2.096175	0.272784	-0.466833	0.186137	0.168111	0.001498	0.985767	0.303265	-0.951579	-0.050272	0.937960	0.307400	-0.160425
26173	9.648295	0.585769	-1.894314	0.377137	-0.486611	0.223973	0.173331	0.000908	0.984863	0.306391	-0.950427	-0.053047	0.935992	0.310948	-0.165017
26174	9.511556	0.865617	-1.620441	0.427274	-0.483104	0.260601	0.178628	-0.000019	0.983917	0.309902	-0.949101	-0.056280	0.933838	0.314971	-0.169530
26175	9.227334	0.829173	-1.490775	0.341180	-0.484805	0.298489	0.184057	-0.001281	0.982915	0.312519	-0.948030	-0.059756	0.931909	0.318178	-0.174091
26176	9.350859	0.438444	-1.503675	0.181875	-0.503362	0.338463	0.189780	-0.002846	0.981823	0.313556	-0.947454	-0.063355	0.930412	0.319880	-0.178915
26177	9.692020	-0.446999	-1.715613	0.010324	-0.502392	0.351331	0.195530	-0.004532	0.980687	0.312951	-0.947419	-0.066775	0.929424	0.319963	-0.183830
26178	9.840674	-1.434080	-2.065767	-0.050404	-0.499331	0.338048	0.201201	-0.006102	0.979531	0.311789	-0.947573	-0.069946	0.928604	0.319480	-0.188750
26179	9.813105	-1.845221	-2.119601	-0.052882	-0.491153	0.310261	0.206703	-0.007439	0.978375	0.310642	-0.947732	-0.072836	0.927780	0.318980	-0.193588
26180	9.744296	-2.317919	-2.665340	0.047761	-0.464675	0.248660	0.211760	-0.008275	0.977287	0.310542	-0.947572	-0.075313	0.926672	0.319436	-0.198088
26181	9.668633	-1.844926	-2.824156	0.127863	-0.451399	0.198873	0.216537	-0.008680	0.976236	0.311276	-0.947157	-0.077465	0.925321	0.320653	-0.202392
26182	9.663238	-1.338012	-2.812938	0.162031	-0.436814	0.171541	0.221087	-0.008864	0.975214	0.312377	-0.946632	-0.079422	0.923873	0.322193	-0.206519
26183	9.720829	-0.912938	-2.682379	0.136273	-0.418909	0.135854	0.225357	-0.008763	0.974237	0.313309	-0.946192	-0.080984	0.922525	0.323487	-0.210486
26184	9.690005	-0.931462	-2.453454	0.140234	-0.409956	0.122219	0.229497	-0.008554	0.973272	0.314301	-0.945738	-0.082424	0.921165	0.324816	-0.214356
26185	9.743567	-1.008332	-2.243365	0.175734	-0.412559	0.108534	0.233614	-0.008202	0.972295	0.315645	-0.945169	-0.083813	0.919670	0.326480	-0.218216
26186	9.707273	-0.860911	-2.038119	0.173769	-0.416302	0.113819	0.237777	-0.007879	0.971288	0.316951	-0.944602	-0.085254	0.918152	0.328122	-0.222107
26187	9.731541	-0.558810	-1.849723	0.126344	-0.416504	0.122991	0.241966	-0.007637	0.970255	0.317794	-0.944189	-0.086684	0.916766	0.329315	-0.226035
26188	9.543674	-0.252213	-1.773976	0.025860	-0.418135	0.136916	0.246210	-0.007516	0.969187	0.317675	-0.944105	-0.088023	0.915677	0.329559	-0.230060
26189	9.385751	-0.176677	-1.771910	-0.073133	-0.416092	0.152988	0.250481	-0.007556	0.968092	0.316604	-0.944346	-0.089288	0.914889	0.328867	-0.234148
26190	9.303152	-0.480991	-1.829198	-0.145717	-0.423851	0.172178	0.254878	-0.007755	0.966942	0.314815	-0.944823	-0.090561	0.914291	0.327490	-0.238373
26191	9.290883	-0.849072	-1.825514	-0.130173	-0.444616	0.178710	0.259480	-0.007956	0.965716	0.313145	-0.945246	-0.091927	0.913570	0.326262	-0.242781
26192	9.403805	-0.795711	-1.768045	-0.092118	-0.455348	0.189445	0.264207	-0.008227	0.964431	0.311787	-0.945542	-0.093481	0.912679	0.325396	-0.247254
26193	9.479172	-0.740283	-1.673878	-0.069168	-0.474760	0.187594	0.269099	-0.008423	0.963076	0.310636	-0.945763	-0.095068	0.911642	0.324748	-0.251888
26194	9.562712	-0.850339	-1.742865	-0.102975	-0.487569	0.199097	0.274135	-0.008689	0.961652	0.309137	-0.946091	-0.096673	0.910650	0.323784	-0.256671
26195	9.556785	-1.106473	-2.067926	-0.116940	-0.492893	0.195927	0.279204	-0.008915	0.960190	0.307510	-0.946463	-0.098205	0.909661	0.322688	-0.261515
26196	9.495508	-1.362756	-2.412856	-0.132497	-0.499376	0.193721	0.284314	-0.009104	0.958688	0.305741	-0.946884	-0.099665	0.908674	0.321446	-0.266429
26197	9.489064	-1.593567	-2.795272	-0.157982	-0.498212	0.179805	0.289365	-0.009175	0.957175	0.303771	-0.947386	-0.100914	0.907740	0.319963	-0.271354
26198	9.394894	-1.687288	-3.179040	-0.146776	-0.490740	0.159982	0.294279	-0.009088	0.955676	0.301954	-0.947851	-0.101993	0.906766	0.318584	-0.276189
26199	9.477302	-1.691955	-3.417956	-0.149232	-0.482531	0.131648	0.299027	-0.008767	0.954204	0.300191	-0.948325	-0.102786	0.905797	0.317180	-0.280943
26200	9.558069	-1.565417	-3.594590	-0.141868	-0.466222	0.102394	0.303531	-0.008227	0.952786	0.298580	-0.948776	-0.103312	0.904831	0.315841	-0.285527
26201	9.492767	-1.351417	-3.407695	-0.147071	-0.447372	0.079294	0.307792	-0.007534	0.951424	0.296989	-0.949245	-0.103595	0.903915	0.314448	-0.289932
26202	9.378686	-1.306229	-3.087749	-0.176282	-0.435203	0.064316	0.311892	-0.006745	0.950093	0.295179	-0.949804	-0.103642	0.903102	0.312773	-0.294246
26203	9.134692	-1.473219	-2.910145	-0.176256	-0.426316	0.046744	0.315857	-0.005824	0.948789	0.293422	-0.950362	-0.103515	0.902296	0.311092	-0.298470
26204	8.905617	-1.544039	-2.669334	-0.153737	-0.440245	0.032471	0.319900	-0.004730	0.947439	0.291915	-0.950848	-0.103312	0.901360	0.309621	-0.302796
26205	9.097440	-1.544464	-2.561773	-0.138809	-0.465740	0.034627	0.324176	-0.003586	0.945990	0.290535	-0.951287	-0.103167	0.900278	0.308287	-0.307342
26206	9.326784	-1.437656	-2.507120	-0.114187	-0.481133	0.030097	0.328570	-0.002356	0.944477	0.289392	-0.951648	-0.103049	0.899052	0.307183	-0.312001
26207	9.570024	-1.017174	-2.326366	-0.138413	-0.505404	0.032973	0.333185	-0.001085	0.942861	0.288022	-0.952082	-0.102876	0.897793	0.305841	-0.316906
26208	9.848170	-0.836202	-2.288422	-0.220726	-0.519640	0.028844	0.337908	0.000259	0.941179	0.285928	-0.952765	-0.102393	0.896696	0.303709	-0.322021
26209	9.944933	-0.809147	-2.367223	-0.262193	-0.546832	0.021026	0.342847	0.001748	0.939390	0.283489	-0.953569	-0.101690	0.895595	0.301171	-0.327424
26210	9.947110	-0.815911	-2.439390	-0.257193	-0.570669	0.002681	0.347940	0.003469	0.937510	0.281162	-0.954350	-0.100817	0.894363	0.298671	-0.333032
26211	9.848881	-0.786547	-2.485429	-0.198339	-0.610801	-0.016112	0.353332	0.005477	0.935482	0.279430	-0.954950	-0.099950	0.892791	0.296717	-0.338945
26212	9.903541	-0.464485	-2.443423	-0.148118	-0.645175	-0.025777	0.358992	0.007668	0.933309	0.278185	-0.955396	-0.099153	0.890920	0.295228	-0.345112
26213	9.814614	-0.278027	-2.286034	-0.157077	-0.679058	-0.031933	0.364926	0.010008	0.930983	0.276887	-0.955866	-0.098258	0.888911	0.293634	-0.351591
26214	9.623774	-0.489709	-2.283310	-0.153460	-0.716778	-0.035742	0.371167	0.012485	0.928482	0.275642	-0.956320	-0.097330	0.886711	0.292054	-0.358396
26215	9.394981	-0.357587	-1.877506	-0.129567	-0.771289	-0.034010	0.377883	0.015093	0.925730	0.274607	-0.956703	-0.096496	0.884192	0.290676	-0.365666
26216	9.279979	-0.484825	-1.677207	-0.151008	-0.825900	-0.032414	0.385062	0.017834	0.922719	0.273384	-0.957144	-0.095587	0.881470	0.289064	-0.373435
26217	9.545822	-0.515925	-1.613905	-0.066834	-0.903577	-0.031777	0.392905	0.020782	0.919344	0.272905	-0.957340	-0.094992	0.878151	0.288216	-0.381815
26218	9.985365	0.365867	-1.123945	-0.053536	-0.998713	-0.007615	0.401610	0.023766	0.915502	0.272455	-0.957501	-0.094664	0.874344	0.287451	-0.391017
26219	10.208472	0.986831	-0.784523	-0.172491	-1.085613	0.033658	0.411153	0.026589	0.911179	0.270799	-0.958012	-0.094238	0.870414	0.285493	-0.401089
26220	10.211068	1.719797	-0.263565	-0.304951	-1.196541	0.092184	0.421765	0.029139	0.906237	0.267758	-0.958911	-0.093782	0.866268	0.282206	-0.412237
26221	10.186116	2.253855	0.311085	-0.448717	-1.325971	0.165846	0.433642	0.031294	0.900541	0.263159	-0.960225	-0.093352	0.861801	0.277467	-0.424630
26222	10.148611	2.623975	0.629277	-0.572453	-1.466551	0.260511	0.446895	0.032855	0.893983	0.257086	-0.961887	-0.093165	0.856850	0.271465	-0.438309
26223	10.323300	2.906060	0.613823	-0.621441	-1.626172	0.380475	0.461728	0.033589	0.886386	0.250039	-0.963688	-0.093730	0.851051	0.264909	-0.453360
26224	10.668347	3.058067	0.364836	-0.662002	-1.786119	0.502590	0.478075	0.033450	0.877682	0.242062	-0.965594	-0.095051	0.844305	0.257895	-0.469723
26225	11.692170	3.035309	-0.809540	-0.612437	-1.923472	0.593558	0.495634	0.032647	0.867917	0.234016	-0.967357	-0.097250	0.836411	0.251307	-0.487095
26226	13.309238	3.706913	-1.331083	-0.613767	-2.088790	0.676166	0.514532	0.031324	0.856899	0.225495	-0.969101	-0.099975	0.827290	0.244667	-0.505697
26227	14.617346	4.688089	-1.874497	-0.640921	-2.166618	0.732122	0.533950	0.029485	0.845002	0.216379	-0.970877	-0.102851	0.817360	0.237758	-0.524780
26228	14.377395	5.161949	-1.781816	-0.713230	-2.223299	0.789666	0.553641	0.027059	0.832316	0.206297	-0.972774	-0.105599	0.806798	0.230169	-0.544150
26229	14.558970	5.441846	-1.461826	-0.731598	-2.333671	0.897824	0.574121	0.023635	0.818429	0.195369	-0.974665	-0.108903	0.795120	0.222420	-0.564193
26230	15.089348	5.692991	-1.071931	-0.836994	-2.383338	1.029021	0.594835	0.018843	0.803627	0.182761	-0.976714	-0.112376	0.782796	0.213717	-0.584428
26231	14.820155	3.570049	-1.909524	-0.978752	-2.291940	1.140803	0.614626	0.012508	0.788720	0.168256	-0.978942	-0.115592	0.770665	0.203753	-0.603788
26232	13.568161	0.054239	-3.403556	-0.843512	-2.162342	1.174054	0.633018	0.005373	0.774118	0.154497	-0.980736	-0.119530	0.758564	0.195263	-0.621654
26233	12.106613	-3.072139	-4.809356	-0.484876	-2.113654	1.145598	0.650610	-0.001755	0.759410	0.143497	-0.981699	-0.125206	0.745731	0.190433	-0.638451
26234	11.495666	-6.237434	-5.934380	-0.145486	-2.056116	1.081333	0.667277	-0.008414	0.744762	0.135315	-0.981926	-0.132331	0.732414	0.189079	-0.654078
26235	11.109103	-9.252738	-7.262225	0.320970	-1.953066	1.010806	0.682782	-0.014573	0.730477	0.130823	-0.981204	-0.141857	0.718815	0.192420	-0.668042
26236	11.158608	-10.418194	-7.249159	1.068050	-2.017500	0.901839	0.698280	-0.019368	0.715562	0.132214	-0.978945	-0.155518	0.703508	0.203203	-0.681017
26237	11.325422	-9.047007	-6.395956	1.591508	-2.037645	0.771720	0.713477	-0.022569	0.700315	0.137836	-0.975430	-0.171863	0.686987	0.219149	-0.692837
26238	9.825107	-7.434179	-6.350689	1.793700	-1.890746	0.593945	0.727121	-0.023988	0.686090	0.145763	-0.971208	-0.188437	0.670856	0.237023	-0.702690
26239	7.881965	-6.584977	-6.885497	1.797109	-1.686851	0.395357	0.738893	-0.023634	0.673409	0.154793	-0.966704	-0.203773	0.655802	0.254805	-0.710632
26240	5.946456	-5.812223	-6.694994	1.770705	-1.465641	0.154344	0.748616	-0.021213	0.662665	0.165166	-0.962011	-0.217384	0.642102	0.272187	-0.716673
26241	4.282003	-4.871806	-6.828737	1.671629	-1.206236	-0.063205	0.756168	-0.017189	0.654152	0.176284	-0.957347	-0.228932	0.630186	0.288428	-0.720885
26242	3.050552	-4.080602	-6.526078	1.427674	-0.960849	-0.212592	0.761755	-0.012275	0.647749	0.186856	-0.953170	-0.237805	0.620334	0.302185	-0.723788
26243	2.527644	-3.417083	-7.075415	1.080761	-0.780571	-0.256691	0.766061	-0.007398	0.642726	0.195488	-0.949885	-0.243934	0.612320	0.312513	-0.726223
26244	2.316497	-2.895574	-7.909775	0.471288	-0.595924	-0.177176	0.769309	-0.003796	0.638866	0.199752	-0.948419	-0.246172	0.606847	0.316997	-0.728869
26245	0.672943	-4.670608	-7.750678	-0.067358	-0.695425	-0.136171	0.773224	-0.000267	0.634133	0.200405	-0.948646	-0.244762	0.601633	0.316340	-0.733462
26246	3.131962	-1.711868	-4.980768	0.616501	-1.210855	-0.202350	0.780001	0.005559	0.625754	0.205684	-0.946680	-0.247974	0.591010	0.322128	-0.739555
26247	5.922917	0.461373	-3.117943	-0.240568	-0.567069	-0.259147	0.782793	0.009868	0.622204	0.206303	-0.947443	-0.244523	0.587090	0.319773	-0.743687
26248	4.890178	-1.699919	-4.421133	-0.789070	0.133839	-0.299629	0.781358	0.012332	0.623962	0.204034	-0.949910	-0.236729	0.589788	0.312279	-0.744736
26249	4.467592	-2.925591	-4.602122	-0.590166	0.519969	-0.281365	0.777691	0.013433	0.628504	0.202742	-0.951711	-0.230526	0.595057	0.306702	-0.742860
26250	4.565558	-3.507850	-4.778635	-0.174782	0.969809	-0.285270	0.771267	0.013225	0.636374	0.203935	-0.952214	-0.227375	0.602957	0.305145	-0.737109
26251	5.069645	-2.458239	-4.694710	0.257117	1.330634	-0.366373	0.762410	0.012670	0.646970	0.208317	-0.951389	-0.226856	0.612646	0.307732	-0.727987
26252	4.961033	-2.563301	-5.283899	0.291115	1.689647	-0.486115	0.750894	0.012111	0.660312	0.213826	-0.950435	-0.225727	0.624849	0.310689	-0.716265
26253	3.979809	-3.173839	-6.114397	0.315290	1.860467	-0.555000	0.737927	0.011608	0.674781	0.219957	-0.949394	-0.224208	0.638031	0.313872	-0.703137
26254	3.941948	-3.180051	-6.168706	0.365184	1.895862	-0.585884	0.724362	0.011223	0.689329	0.226621	-0.948181	-0.222701	0.651109	0.317532	-0.689369
26255	4.618998	-2.317514	-5.700218	0.369600	1.966633	-0.588153	0.710057	0.010550	0.704065	0.233277	-0.946947	-0.221073	0.664380	0.321216	-0.674848
26256	5.486644	-1.601790	-5.138827	0.122751	2.106654	-0.608277	0.694435	0.009568	0.719492	0.238397	-0.946497	-0.217508	0.678916	0.322570	-0.659562
26257	6.097908	-1.963613	-4.878657	-0.196908	2.288459	-0.643838	0.677151	0.008336	0.735797	0.241464	-0.947084	-0.211488	0.695098	0.320878	-0.643332
26258	6.330633	-2.879243	-5.042250	-0.365895	2.424410	-0.662472	0.658446	0.006914	0.752596	0.243334	-0.948208	-0.204182	0.712206	0.317575	-0.626026
26259	6.708663	-3.885577	-5.329603	-0.361114	2.548687	-0.665940	0.638427	0.005215	0.769665	0.245050	-0.949319	-0.196834	0.729631	0.314270	-0.607349
26260	6.986845	-4.229607	-5.561355	-0.196665	2.638918	-0.667002	0.617262	0.003317	0.786751	0.247804	-0.949913	-0.190415	0.746713	0.312496	-0.587167
26261	7.351944	-3.973169	-5.753241	-0.103091	2.727538	-0.666322	0.594984	0.001172	0.803736	0.251063	-0.950231	-0.184469	0.763519	0.311545	-0.565667
26262	7.594282	-3.679200	-5.928885	-0.071470	2.801688	-0.662121	0.571645	-0.001218	0.820500	0.254388	-0.950459	-0.178643	0.780070	0.310846	-0.543015
26263	7.693935	-3.352545	-5.938747	-0.079978	2.880267	-0.676752	0.547189	-0.003690	0.837001	0.257539	-0.950735	-0.172558	0.796403	0.309982	-0.519281
26264	7.721556	-2.786983	-6.001726	-0.103799	2.938737	-0.698392	0.521696	-0.006107	0.853109	0.260447	-0.951097	-0.166078	0.812404	0.308833	-0.494593
26265	7.855861	-2.181137	-5.948130	-0.188475	3.013184	-0.735408	0.495034	-0.008350	0.868833	0.262632	-0.951741	-0.158787	0.828230	0.306788	-0.468951
26266	7.884125	-1.582316	-5.847161	-0.345043	3.075261	-0.759280	0.467280	-0.010466	0.884048	0.263407	-0.952871	-0.150509	0.843959	0.303194	-0.442501
26267	8.146562	-0.861154	-5.561670	-0.539052	3.098780	-0.746046	0.438905	-0.012625	0.898445	0.262185	-0.954588	-0.141495	0.859431	0.297662	-0.415663
26268	8.453278	-0.324824	-5.274376	-0.855606	3.143845	-0.688273	0.409806	-0.015235	0.912046	0.257687	-0.957200	-0.131775	0.875018	0.289025	-0.388340
26269	8.695605	-0.483123	-5.226842	-1.168027	3.195631	-0.612136	0.380018	-0.018378	0.924796	0.249778	-0.960621	-0.121729	0.890616	0.277253	-0.360463
26270	9.009078	-1.036738	-5.107720	-1.332961	3.230254	-0.546845	0.349621	-0.021820	0.936637	0.239797	-0.964344	-0.111975	0.905683	0.263752	-0.331923
26271	9.265882	-1.182630	-4.850037	-1.322598	3.233928	-0.506284	0.318897	-0.025202	0.947454	0.229400	-0.967872	-0.102958	0.919609	0.250179	-0.302870
26272	9.545752	-0.752326	-4.389900	-1.313279	3.206043	-0.465765	0.288122	-0.028457	0.957171	0.218645	-0.971199	-0.094689	0.932298	0.236563	-0.273602
26273	9.985193	-0.340673	-4.278266	-1.318606	3.175986	-0.431576	0.257389	-0.031516	0.965794	0.207431	-0.974366	-0.087077	0.943781	0.222748	-0.244254
26274	10.309723	-0.164903	-3.828584	-1.392658	3.111847	-0.397216	0.227015	-0.034310	0.973287	0.195165	-0.977504	-0.079980	0.954135	0.208109	-0.215212
26275	10.685750	-0.187824	-3.386757	-1.453609	3.019394	-0.383263	0.197325	-0.036573	0.979656	0.182017	-0.980562	-0.073269	0.963293	0.192772	-0.186832
26276	10.755264	-0.304406	-2.807286	-1.427018	2.884891	-0.393758	0.168689	-0.038016	0.984936	0.168920	-0.983358	-0.066886	0.971087	0.177658	-0.159460
26277	11.019977	-0.466064	-2.322001	-1.319622	2.722726	-0.430503	0.141443	-0.038385	0.989202	0.156703	-0.985781	-0.060659	0.977465	0.163590	-0.133417
26278	11.018418	-0.459618	-1.977313	-1.070265	2.532130	-0.455514	0.115899	-0.037853	0.992540	0.146783	-0.987649	-0.054806	0.982355	0.152040	-0.108911
26279	10.765187	-0.068840	-1.501313	-0.774835	2.309118	-0.475027	0.092477	-0.036532	0.995044	0.139622	-0.988978	-0.049285	0.985877	0.143488	-0.086357
26280	10.355993	0.304149	-1.173897	-0.492886	2.079376	-0.485531	0.071246	-0.034619	0.996858	0.135135	-0.989848	-0.044034	0.988262	0.137847	-0.065844
26281	9.830740	0.544377	-0.857241	-0.201300	1.825647	-0.458895	0.052558	-0.032530	0.998088	0.133396	-0.990283	-0.039300	0.989668	0.135207	-0.047708
26282	9.645412	0.724374	-1.059663	0.124922	1.553538	-0.412311	0.036588	-0.030519	0.998864	0.134795	-0.990248	-0.035193	0.990198	0.135930	-0.032117
26283	9.284735	0.976044	-1.202138	0.440606	1.299424	-0.357070	0.023217	-0.028737	0.999317	0.139231	-0.989752	-0.031697	0.989988	0.139872	-0.018978
26284	9.076440	1.198563	-1.009064	0.627083	1.027705	-0.286581	0.012601	-0.027336	0.999547	0.145465	-0.988942	-0.028879	0.989283	0.145763	-0.008485
26285	9.050335	1.340751	-1.057121	0.817425	0.780528	-0.227045	0.004528	-0.026222	0.999646	0.153533	-0.987785	-0.026606	0.988133	0.153599	-0.000446
26286	8.855613	1.476119	-1.179594	0.901036	0.535521	-0.162345	-0.001055	-0.025430	0.999676	0.162409	-0.986409	-0.024921	0.986723	0.162330	0.005171
26287	8.699884	1.434694	-1.455934	0.929917	0.319944	-0.097049	-0.004389	-0.024969	0.999679	0.171540	-0.984888	-0.023847	0.985167	0.171381	0.008606
26288	8.396760	1.333856	-1.770541	0.872004	0.124392	-0.024173	-0.005694	-0.024914	0.999673	0.180099	-0.983368	-0.023482	0.983632	0.179906	0.010086
26289	8.170962	1.110387	-2.259465	0.804697	-0.049526	0.028972	-0.005172	-0.025070	0.999672	0.187975	-0.981889	-0.023652	0.982160	0.187791	0.009790
26290	7.898978	0.614669	-3.097390	0.748565	-0.170103	0.063605	-0.003418	-0.025332	0.999673	0.195300	-0.980446	-0.024177	0.980738	0.195153	0.008299
26291	7.681737	0.113757	-3.743139	0.733983	-0.287772	0.081846	-0.000453	-0.025524	0.999674	0.202460	-0.978974	-0.024904	0.979290	0.202383	0.005611
26292	7.619871	-0.075508	-4.103897	0.739097	-0.364380	0.077767	0.003236	-0.025497	0.999670	0.209666	-0.977438	-0.025609	0.977768	0.209679	0.002183
26293	7.809917	-0.222997	-3.816534	0.660899	-0.420468	0.068085	0.007471	-0.025230	0.999654	0.216086	-0.976021	-0.026248	0.976346	0.216207	-0.001840
26294	7.641257	-0.899617	-4.656779	0.718416	-0.430217	0.030450	0.011700	-0.024544	0.999630	0.223065	-0.974442	-0.026536	0.974733	0.223293	-0.005926
26295	7.299363	-0.842621	-5.164486	0.801755	-0.485512	-0.007034	0.016393	-0.023335	0.999593	0.230841	-0.972631	-0.026491	0.972854	0.231181	-0.010557
26296	7.228622	-0.626206	-5.566388	0.775148	-0.512623	-0.025482	0.021283	-0.021845	0.999535	0.238352	-0.970823	-0.026293	0.970946	0.238800	-0.015455
26297	7.340812	-0.671761	-5.476324	0.606545	-0.529206	-0.015183	0.026361	-0.020382	0.999445	0.244207	-0.969369	-0.026210	0.969365	0.244762	-0.020576
26298	7.584186	-1.198948	-5.407114	0.397900	-0.537623	0.031537	0.031618	-0.019323	0.999313	0.248024	-0.968389	-0.026573	0.968238	0.248694	-0.025826
26299	7.669839	-2.192183	-5.420662	0.230869	-0.555643	0.108974	0.037247	-0.018953	0.999126	0.250189	-0.967801	-0.027686	0.967480	0.251002	-0.031306
26300	8.103802	-2.592208	-4.202434	0.160054	-0.628468	0.213546	0.043836	-0.019399	0.998850	0.251621	-0.967366	-0.029831	0.966833	0.252640	-0.037524
26301	10.280706	-1.209807	-1.610731	0.044014	-0.583223	0.253374	0.050091	-0.020339	0.998538	0.251896	-0.967214	-0.032337	0.966457	0.253148	-0.043326
26302	11.823935	-0.566895	0.429632	-0.385309	-0.375561	0.271127	0.054376	-0.021982	0.998279	0.247999	-0.968134	-0.034826	0.967233	0.249466	-0.047192
26303	11.972155	-1.063310	1.758109	-0.617145	-0.338361	0.316600	0.058407	-0.024179	0.998000	0.241816	-0.969592	-0.037642	0.968563	0.243531	-0.050784
26304	13.852688	2.702269	2.862715	-0.071553	-0.578671	0.174875	0.064409	-0.024430	0.997625	0.240987	-0.969732	-0.039306	0.968389	0.242946	-0.056572
26305	17.390856	1.435050	2.729022	-1.307789	-0.586536	0.329718	0.070851	-0.026208	0.997143	0.228051	-0.972753	-0.041770	0.971068	0.230359	-0.062943
26306	13.895738	-6.773136	-3.594656	-0.556467	-0.780379	0.447557	0.079413	-0.028748	0.996427	0.222282	-0.973905	-0.045814	0.971743	0.225126	-0.070950
26307	10.467843	-1.953031	-2.881607	1.092810	-1.229409	0.198550	0.091770	-0.027808	0.995392	0.232682	-0.971338	-0.048588	0.968213	0.236069	-0.082670
26308	10.155491	2.041365	-2.992844	1.783276	-1.173268	0.068587	0.103239	-0.025564	0.994328	0.249806	-0.966962	-0.050797	0.962776	0.253634	-0.093442
26309	8.720082	1.559574	-3.782330	1.740271	-0.996419	0.143762	0.113156	-0.024302	0.993280	0.266329	-0.962375	-0.053887	0.957217	0.270637	-0.102426
26310	7.893577	0.666929	-4.244706	1.609091	-0.874007	0.197178	0.122013	-0.023725	0.992245	0.281430	-0.957857	-0.057509	0.951793	0.286264	-0.110194
26311	8.252015	1.307341	-3.985602	1.273176	-0.798413	0.270292	0.130349	-0.023938	0.991179	0.293150	-0.954080	-0.061594	0.947139	0.298593	-0.117346
26312	9.031564	3.154774	-3.104935	0.374648	-0.772094	0.428799	0.138893	-0.025669	0.989975	0.296091	-0.952860	-0.066248	0.945007	0.302324	-0.124745
26313	9.231822	2.805470	-2.756747	-1.019445	-0.689210	0.605747	0.147153	-0.029364	0.988678	0.285553	-0.955738	-0.070887	0.946998	0.292751	-0.132255
26314	9.306336	0.078548	-2.847270	-1.977461	-0.620095	0.682290	0.154898	-0.034105	0.987342	0.265725	-0.961136	-0.074888	0.951524	0.273961	-0.139815
26315	10.049172	-3.745594	-3.154043	-2.030107	-0.557964	0.639220	0.161832	-0.038755	0.986057	0.245324	-0.966279	-0.078241	0.955838	0.254566	-0.146868
26316	10.764245	-5.921068	-3.243782	-1.095629	-0.543706	0.422943	0.168028	-0.041451	0.984910	0.234118	-0.968852	-0.080716	0.957578	0.244148	-0.153090
26317	10.634533	-5.642745	-2.753810	0.058057	-0.546053	0.239100	0.173794	-0.042395	0.983869	0.234239	-0.968620	-0.083115	0.956518	0.244905	-0.158410
26318	9.901042	-3.633628	-2.228877	0.993011	-0.571423	0.111186	0.179498	-0.042005	0.982861	0.243498	-0.966103	-0.085758	0.953147	0.254718	-0.163185
26319	9.349682	-1.152286	-1.502625	1.373720	-0.601267	0.063844	0.185355	-0.041012	0.981815	0.256419	-0.962495	-0.088614	0.948627	0.268181	-0.167887
26320	9.230192	0.954516	-1.074288	1.195495	-0.622259	0.112783	0.191521	-0.040354	0.980659	0.267496	-0.959185	-0.091712	0.944334	0.279887	-0.172909
26321	9.388633	1.712606	-1.110439	0.594931	-0.600935	0.205059	0.197721	-0.040584	0.979418	0.272682	-0.957430	-0.094721	0.941568	0.285798	-0.178237
26322	9.422299	0.686000	-1.577563	-0.003762	-0.578210	0.287199	0.203924	-0.041643	0.978101	0.272045	-0.957335	-0.097477	0.940429	0.285965	-0.183895
26323	9.632195	-0.877419	-2.131352	-0.324736	-0.572136	0.318031	0.210142	-0.043025	0.976724	0.268309	-0.958136	-0.099933	0.940133	0.283064	-0.189801
26324	9.892155	-2.119517	-2.519118	-0.325928	-0.567036	0.290897	0.216227	-0.044179	0.975343	0.264601	-0.958938	-0.102096	0.939804	0.280152	-0.195659
26325	9.934968	-2.794804	-2.732729	-0.135792	-0.553332	0.237080	0.222030	-0.044870	0.974007	0.262782	-0.959224	-0.104091	0.938961	0.279063	-0.201186
26326	9.847531	-2.582039	-2.766132	0.106574	-0.543350	0.171185	0.227559	-0.044954	0.972726	0.263373	-0.958861	-0.105927	0.937471	0.280294	-0.206358
26327	9.826137	-1.887234	-2.734259	0.208105	-0.514330	0.129708	0.232699	-0.044714	0.971520	0.265000	-0.958229	-0.107576	0.935749	0.282486	-0.211129
26328	9.815174	-1.477819	-2.891758	0.183123	-0.486336	0.104171	0.237504	-0.044297	0.970376	0.266444	-0.957675	-0.108931	0.934130	0.284422	-0.215649
26329	9.719172	-1.259076	-3.215638	0.140902	-0.449870	0.091548	0.241927	-0.043855	0.969303	0.267517	-0.957245	-0.110079	0.932688	0.285936	-0.219851
26330	9.582839	-1.037818	-3.356621	0.073194	-0.418483	0.091287	0.246054	-0.043494	0.968280	0.267953	-0.957007	-0.111078	0.931482	0.286784	-0.223821
26331	9.532029	-0.858814	-3.387113	-0.022023	-0.389285	0.091754	0.249903	-0.043220	0.967306	0.267498	-0.957042	-0.111870	0.930588	0.286709	-0.227607
26332	9.509110	-0.926970	-3.286360	-0.106276	-0.361714	0.095422	0.253506	-0.043061	0.966375	0.266245	-0.957318	-0.112501	0.929972	0.285812	-0.231221
26333	9.506276	-0.991046	-3.024868	-0.136621	-0.341257	0.097378	0.256917	-0.042985	0.965477	0.264705	-0.957677	-0.113076	0.929476	0.284618	-0.234665
26334	9.356900	-0.967879	-2.531811	-0.137038	-0.328764	0.093151	0.260201	-0.042906	0.964601	0.263167	-0.958038	-0.113603	0.928999	0.283411	-0.237991
26335	9.185820	-0.859977	-2.147803	-0.134688	-0.329819	0.099454	0.263505	-0.042891	0.963704	0.261634	-0.958388	-0.114192	0.928500	0.282228	-0.241318
26336	9.114945	-0.913392	-1.990699	-0.089048	-0.337721	0.102478	0.266891	-0.042884	0.962772	0.260512	-0.958607	-0.114915	0.927848	0.281484	-0.244672
26337	9.159247	-0.642484	-1.627803	-0.074777	-0.360821	0.121077	0.270532	-0.042994	0.961751	0.259472	-0.958777	-0.115848	0.927085	0.280888	-0.248224
26338	9.348062	-0.548167	-1.648675	-0.133482	-0.384690	0.141118	0.274445	-0.043232	0.960630	0.257828	-0.959102	-0.116822	0.926393	0.279739	-0.252075
26339	9.542821	-0.591948	-1.853047	-0.163904	-0.402661	0.147133	0.278532	-0.043484	0.959442	0.255882	-0.959507	-0.117771	0.925713	0.278307	-0.256127
26340	9.529828	-0.490775	-1.999047	-0.208039	-0.424584	0.168136	0.282872	-0.043882	0.958153	0.253463	-0.960023	-0.118797	0.925062	0.276461	-0.260441
26341	9.444000	-0.652762	-2.131291	-0.253988	-0.442631	0.182301	0.287405	-0.044378	0.956781	0.250574	-0.960653	-0.119827	0.924452	0.274183	-0.264976
26342	9.371102	-0.886167	-2.184808	-0.283452	-0.459105	0.189629	0.292103	-0.044910	0.955332	0.247383	-0.961354	-0.120833	0.923839	0.271629	-0.269704
26343	9.389964	-1.316261	-2.390899	-0.299072	-0.465395	0.187450	0.296842	-0.045418	0.953846	0.244049	-0.962089	-0.121760	0.923214	0.268929	-0.274504
26344	9.406722	-1.563088	-2.584748	-0.260184	-0.482057	0.177314	0.301703	-0.045796	0.952301	0.241096	-0.962716	-0.122680	0.922414	0.266609	-0.279413
26345	9.216674	-1.484030	-2.653608	-0.264539	-0.484784	0.171490	0.306564	-0.046125	0.950732	0.238116	-0.963350	-0.123518	0.921585	0.264251	-0.284346
26346	9.086951	-1.558715	-2.815486	-0.291233	-0.478472	0.160940	0.311336	-0.046379	0.949168	0.234916	-0.964053	-0.124161	0.920807	0.261630	-0.289249
26347	9.139866	-1.665937	-2.911117	-0.297314	-0.477772	0.153385	0.316072	-0.046579	0.947591	0.231679	-0.964767	-0.124700	0.920013	0.258951	-0.294144
26348	9.219464	-1.700747	-2.871705	-0.295067	-0.478833	0.146151	0.320795	-0.046718	0.945996	0.228480	-0.965470	-0.125159	0.919178	0.256291	-0.299044
26349	9.240357	-1.782494	-2.940232	-0.253128	-0.476875	0.121345	0.325433	-0.046637	0.944414	0.225743	-0.966070	-0.125494	0.918223	0.254035	-0.303863
26350	9.160627	-1.631862	-2.692432	-0.205004	-0.484112	0.107780	0.330101	-0.046415	0.942804	0.223489	-0.966550	-0.125834	0.917107	0.252244	-0.308686
26351	9.008551	-1.591639	-2.515400	-0.164405	-0.504900	0.103672	0.334941	-0.046111	0.941110	0.221619	-0.966926	-0.126250	0.915805	0.250854	-0.313644
26352	9.449464	-1.520119	-2.395672	-0.109306	-0.533735	0.093134	0.340014	-0.045637	0.939312	0.220286	-0.967168	-0.126730	0.914256	0.250007	-0.318797
26353	9.759904	-1.164154	-2.285441	-0.073473	-0.563622	0.082459	0.345325	-0.044991	0.937404	0.219314	-0.967324	-0.127219	0.912498	0.249518	-0.324174
26354	9.881642	-0.634626	-2.352200	-0.044013	-0.591341	0.075777	0.350864	-0.044212	0.935382	0.218631	-0.967411	-0.127734	0.910546	0.249321	-0.329764
26355	9.872894	-0.054358	-2.434475	-0.069551	-0.619082	0.077935	0.356647	-0.043387	0.933231	0.217706	-0.967561	-0.128182	0.908519	0.248885	-0.335632
26356	9.780990	0.236364	-2.608195	-0.160546	-0.649610	0.098100	0.362737	-0.042686	0.930913	0.215878	-0.967928	-0.128502	0.906542	0.247576	-0.341888
26357	9.653138	0.056104	-2.721495	-0.279072	-0.678057	0.125513	0.369129	-0.042194	0.928420	0.212875	-0.968572	-0.128656	0.904670	0.245128	-0.348546
26358	9.627190	-0.516049	-2.937616	-0.298328	-0.708101	0.134472	0.375794	-0.041732	0.925763	0.209662	-0.969253	-0.128800	0.902674	0.242500	-0.355490
26359	9.410072	-0.842906	-2.945557	-0.280351	-0.722398	0.133380	0.382567	-0.041245	0.923007	0.206613	-0.969885	-0.128977	0.900530	0.240047	-0.362524
26360	9.184103	-1.521436	-2.923801	-0.238183	-0.729634	0.124614	0.389367	-0.040671	0.920185	0.203974	-0.970413	-0.129201	0.898214	0.238000	-0.369551
26361	9.168972	-2.162442	-3.114626	-0.186753	-0.747585	0.099561	0.396256	-0.039827	0.917276	0.201893	-0.970826	-0.129369	0.895667	0.236455	-0.376655
26362	9.335586	-2.383040	-3.303445	-0.087990	-0.766722	0.067691	0.403231	-0.038635	0.914282	0.200821	-0.971017	-0.129601	0.892791	0.235867	-0.383785
26363	9.307520	-1.904345	-3.175107	0.002079	-0.778606	0.036251	0.410225	-0.037112	0.911229	0.200678	-0.971008	-0.129890	0.889631	0.236148	-0.390884
26364	9.163809	-1.480386	-3.034985	0.010249	-0.802279	0.015172	0.417361	-0.035325	0.908054	0.200693	-0.970988	-0.130016	0.886303	0.236504	-0.398163
26365	9.555158	-0.859212	-3.025343	0.006796	-0.844684	0.010929	0.424837	-0.033395	0.904654	0.200693	-0.970978	-0.130092	0.882743	0.236826	-0.405805
26366	9.930780	-0.081959	-3.006138	0.020533	-0.877518	0.012063	0.432572	-0.031394	0.901053	0.200810	-0.970935	-0.130232	0.878952	0.237276	-0.413695
26367	9.861712	0.475519	-3.023680	-0.039821	-0.918101	0.027396	0.440661	-0.029445	0.897190	0.200329	-0.971030	-0.130262	0.875035	0.237134	-0.421997
26368	9.813057	0.839187	-2.927124	-0.042528	-0.967005	0.054739	0.449192	-0.027645	0.893008	0.199703	-0.971125	-0.130516	0.870830	0.236963	-0.430701
26369	9.755764	1.058671	-2.637405	-0.084348	-1.023596	0.091695	0.458248	-0.026076	0.888442	0.198543	-0.971309	-0.130915	0.866365	0.236385	-0.439924
26370	9.844880	1.071436	-2.419970	-0.066684	-1.092700	0.124110	0.467913	-0.024660	0.883431	0.197383	-0.971445	-0.131662	0.861451	0.235981	-0.449684
26371	9.841021	1.404670	-1.917474	-0.061883	-1.164905	0.173169	0.478240	-0.023559	0.877913	0.196022	-0.971558	-0.132854	0.856073	0.235626	-0.460020
26372	9.694003	1.479429	-1.706593	-0.165570	-1.236924	0.243059	0.489245	-0.022972	0.871844	0.193427	-0.971900	-0.134152	0.850427	0.234271	-0.471053
26373	9.840265	1.272403	-1.757980	-0.284357	-1.318598	0.324559	0.501024	-0.023018	0.865127	0.189401	-0.972497	-0.135563	0.844454	0.231776	-0.482884
26374	10.069325	1.167998	-2.105507	-0.460674	-1.397079	0.404330	0.513507	-0.023698	0.857758	0.183470	-0.973470	-0.136732	0.838242	0.227585	-0.495536
26375	10.744435	1.190725	-2.620936	-0.591553	-1.467963	0.480511	0.526612	-0.025041	0.849737	0.176023	-0.974692	-0.137811	0.831682	0.222147	-0.508876
26376	11.369234	1.739491	-2.772382	-0.734054	-1.537185	0.553760	0.540267	-0.027034	0.841059	0.166988	-0.976162	-0.138644	0.824758	0.215352	-0.522874
26377	11.683909	2.534853	-2.448235	-0.901454	-1.607261	0.618078	0.554448	-0.029641	0.831690	0.156197	-0.977899	-0.138981	0.817429	0.206965	-0.537565
26378	11.766745	3.091069	-1.877200	-1.048160	-1.679517	0.680015	0.569104	-0.032855	0.821609	0.143851	-0.979814	-0.138822	0.809585	0.197194	-0.552890
26379	12.512903	3.596314	-1.262596	-1.090882	-1.805652	0.754574	0.584664	-0.036748	0.810443	0.130710	-0.981655	-0.138808	0.800676	0.187089	-0.569135
26380	13.479630	4.569326	-1.151557	-1.126262	-1.885289	0.852721	0.600693	-0.041644	0.798395	0.116699	-0.983379	-0.139094	0.790917	0.176725	-0.585849
26381	13.424572	4.538328	-1.762444	-1.304467	-1.894220	0.973222	0.616624	-0.047952	0.785796	0.100520	-0.985178	-0.138999	0.780814	0.164699	-0.602664
26382	12.358666	3.573448	-3.129074	-1.350454	-1.888216	1.080434	0.632229	-0.055555	0.772787	0.083310	-0.986768	-0.139095	0.770289	0.152321	-0.619236
26383	11.857648	2.404801	-4.032930	-1.352045	-1.922387	1.208556	0.647816	-0.064640	0.759049	0.065235	-0.988026	-0.139814	0.758998	0.140091	-0.635843
26384	11.463561	0.246141	-4.280391	-1.363853	-1.880721	1.285143	0.662669	-0.074763	0.745172	0.046555	-0.988968	-0.140623	0.747464	0.127878	-0.651878
26385	11.245870	-3.394961	-5.169518	-1.259278	-1.827297	1.264876	0.676687	-0.085002	0.731347	0.028746	-0.989506	-0.141604	0.735709	0.116845	-0.667143
26386	10.867890	-6.044226	-5.986537	-0.715531	-1.788470	1.174460	0.689966	-0.094520	0.717644	0.015517	-0.989278	-0.145215	0.723676	0.111329	-0.681102
26387	10.268873	-8.272768	-6.732328	-0.213289	-1.767468	1.075192	0.702759	-0.103150	0.703911	0.006502	-0.988461	-0.151338	0.711398	0.110931	-0.693979
26388	10.224864	-9.000542	-7.259777	0.577399	-1.894461	0.926708	0.716126	-0.110069	0.689237	0.004018	-0.986821	-0.161767	0.697959	0.118615	-0.706246
26389	10.548017	-7.465458	-6.486355	1.210282	-2.002267	0.762814	0.729990	-0.115033	0.673707	0.006867	-0.984450	-0.175532	0.683423	0.132763	-0.717849
26390	9.988200	-6.432051	-6.222599	1.281806	-1.859765	0.603682	0.742596	-0.118306	0.659208	0.011121	-0.981961	-0.188757	0.669648	0.147501	-0.727884
26391	8.428319	-5.823517	-6.039967	1.355449	-1.704866	0.473414	0.753960	-0.120266	0.645817	0.016575	-0.979303	-0.201719	0.656711	0.162792	-0.736363
26392	7.404798	-5.471359	-6.122892	1.334973	-1.504100	0.347230	0.763787	-0.121047	0.634017	0.022660	-0.976624	-0.213756	0.645071	0.177631	-0.743190
26393	6.131268	-5.491322	-6.766476	1.213740	-1.238512	0.202680	0.771760	-0.120704	0.624353	0.028883	-0.974154	-0.224032	0.635257	0.190932	-0.748327
26394	5.234744	-5.545220	-6.808006	1.024717	-1.057557	0.050442	0.778418	-0.119064	0.616352	0.034991	-0.972092	-0.231977	0.626771	0.202142	-0.752527
26395	4.484669	-5.544673	-6.547935	0.811249	-0.876558	-0.104107	0.783833	-0.116205	0.610002	0.040870	-0.970550	-0.237406	0.619625	0.211018	-0.756000
26396	4.653567	-5.689361	-6.335870	0.671645	-0.733721	-0.255107	0.788214	-0.112105	0.605105	0.047051	-0.969412	-0.240888	0.613600	0.218342	-0.758829
26397	5.488728	-5.385718	-7.634656	0.707242	-0.402286	-0.418767	0.790453	-0.107118	0.603083	0.054695	-0.968313	-0.243677	0.610075	0.225601	-0.759548
26398	4.215254	-5.013857	-8.726276	0.428850	-0.032010	-0.515362	0.790318	-0.102007	0.604146	0.061419	-0.967887	-0.243768	0.609611	0.229760	-0.758673
26399	1.721520	-5.321031	-8.289895	0.325852	-0.169521	-0.531870	0.790998	-0.096431	0.604172	0.067619	-0.967672	-0.242977	0.608071	0.233047	-0.758906
26400	2.882128	-2.759547	-6.725089	0.829407	-0.619862	-0.604649	0.794281	-0.089066	0.600987	0.077466	-0.966275	-0.245583	0.602592	0.241618	-0.760594
26401	4.800887	0.267193	-4.811018	0.455908	-0.383651	-0.685976	0.796017	-0.081467	0.599767	0.085672	-0.965760	-0.244884	0.599181	0.246315	-0.761782
26402	4.416983	0.504453	-4.624228	-0.393230	0.088310	-0.741548	0.794807	-0.074468	0.602276	0.089246	-0.967309	-0.237378	0.600264	0.242420	-0.762178
26403	3.859937	0.029093	-4.049175	-0.840872	0.384367	-0.729617	0.791829	-0.068280	0.606914	0.089982	-0.969844	-0.226509	0.604078	0.233967	-0.761806
26404	3.594653	-0.810043	-4.103188	-1.169826	0.764264	-0.691654	0.786536	-0.063256	0.614297	0.088365	-0.972976	-0.213331	0.611190	0.222075	-0.759690
26405	3.430100	-1.579757	-4.338622	-1.120793	1.041433	-0.658772	0.779536	-0.059052	0.623567	0.086632	-0.975812	-0.200711	0.620337	0.210482	-0.755565
26406	4.057930	-2.015214	-4.346686	-0.932972	1.287170	-0.618308	0.770916	-0.055609	0.634505	0.085618	-0.978093	-0.189747	0.631156	0.200604	-0.749266
26407	4.861046	-2.647869	-4.873356	-0.642764	1.543684	-0.671600	0.760488	-0.052039	0.647263	0.086673	-0.979730	-0.180603	0.643541	0.193446	-0.740563
26408	5.480448	-3.762403	-5.628314	-0.327844	1.764518	-0.808318	0.748260	-0.047444	0.661707	0.090667	-0.980767	-0.172848	0.657180	0.189330	-0.729567
26409	5.277490	-4.672385	-6.482209	0.143658	1.904352	-0.897849	0.734752	-0.042211	0.677021	0.098286	-0.980905	-0.167824	0.671177	0.189851	-0.716574
26410	5.247455	-4.159871	-6.919401	0.665746	1.965602	-0.952888	0.720397	-0.036610	0.692595	0.109760	-0.980004	-0.165968	0.684822	0.195582	-0.701973
26411	5.511613	-3.249635	-6.983393	0.960965	2.066884	-0.989222	0.704935	-0.031018	0.708593	0.123462	-0.978425	-0.165653	0.698444	0.204259	-0.685897
26412	5.729800	-2.522137	-6.751700	1.120496	2.196841	-1.023012	0.688059	-0.025575	0.725204	0.138515	-0.976374	-0.165854	0.712312	0.214569	-0.668261
26413	5.915520	-1.968761	-6.390973	1.091263	2.360678	-1.075513	0.669487	-0.020232	0.742548	0.153671	-0.974232	-0.165096	0.726754	0.224638	-0.649127
26414	6.201108	-1.621208	-6.058129	0.913727	2.515804	-1.135610	0.649145	-0.014895	0.760519	0.167890	-0.972346	-0.162347	0.741906	0.233070	-0.628692
26415	6.529004	-1.661735	-5.926116	0.626418	2.640697	-1.151995	0.627325	-0.009894	0.778695	0.179940	-0.971019	-0.157299	0.757684	0.238796	-0.607364
26416	7.165785	-2.138952	-5.836582	0.341115	2.722284	-1.144434	0.604318	-0.005287	0.796725	0.189617	-0.970292	-0.150265	0.773850	0.241881	-0.585362
26417	7.816138	-2.495709	-5.742849	0.178417	2.819914	-1.126073	0.580067	-0.001170	0.814568	0.197679	-0.969903	-0.142163	0.790218	0.243487	-0.562378
26418	8.202615	-2.846326	-5.537484	0.035024	2.913346	-1.108043	0.554530	0.002518	0.832160	0.204258	-0.969815	-0.133179	0.806706	0.243827	-0.538306
26419	8.464124	-3.115359	-5.407533	-0.020902	2.968640	-1.096326	0.528053	0.005950	0.849191	0.210017	-0.969828	-0.123799	0.822832	0.243717	-0.513370
26420	8.606937	-2.788406	-5.204790	-0.042255	2.993410	-1.103411	0.500793	0.009397	0.865516	0.215352	-0.969851	-0.114075	0.838350	0.243518	-0.487718
26421	8.946185	-2.202170	-5.053043	-0.074419	3.025928	-1.117412	0.472746	0.012909	0.881104	0.220152	-0.969915	-0.103910	0.853255	0.243100	-0.461366
26422	9.096098	-1.451352	-4.847529	-0.145561	3.053377	-1.109739	0.443958	0.016301	0.895899	0.223992	-0.970110	-0.093347	0.867599	0.242116	-0.434340
26423	9.431617	-0.932492	-4.805897	-0.277437	3.080452	-1.093401	0.414536	0.019523	0.909823	0.226247	-0.970591	-0.082256	0.881460	0.239943	-0.406762
26424	9.813464	-0.626371	-4.731449	-0.491511	3.097014	-1.052380	0.384595	0.022410	0.922814	0.226087	-0.971543	-0.070632	0.894970	0.235801	-0.378717
26425	10.175365	-0.383679	-4.829149	-0.684838	3.109681	-0.994331	0.354304	0.024874	0.934799	0.223570	-0.972910	-0.058849	0.908011	0.229844	-0.350267
26426	10.571487	0.475817	-4.756536	-0.773730	3.091470	-0.935124	0.323918	0.027012	0.945699	0.219665	-0.974423	-0.047407	0.920231	0.223093	-0.321567
26427	10.963220	1.169904	-4.446977	-1.051516	3.096136	-0.837615	0.293412	0.028458	0.955562	0.212492	-0.976493	-0.036166	0.932071	0.213661	-0.292562
26428	11.157963	1.131429	-4.255179	-1.315155	3.102473	-0.737526	0.262735	0.029261	0.964424	0.202201	-0.979015	-0.025382	0.943443	0.201676	-0.263138
26429	11.249457	0.713714	-3.799317	-1.496161	3.106625	-0.663881	0.231939	0.029756	0.972275	0.189624	-0.981739	-0.015190	0.954069	0.187890	-0.233346
26430	11.242128	0.063503	-3.279112	-1.477366	3.079905	-0.605824	0.201247	0.030169	0.979076	0.176759	-0.984236	-0.006005	0.963460	0.174269	-0.203407
26431	10.963934	-0.432119	-2.679818	-1.242764	3.008825	-0.578270	0.171131	0.030831	0.984766	0.165787	-0.986159	0.002065	0.971200	0.162908	-0.173874
26432	10.935046	-0.317453	-2.345806	-0.867190	2.875654	-0.558692	0.142161	0.031805	0.989332	0.158198	-0.987366	0.009009	0.977120	0.155230	-0.145397
26433	10.736259	0.283571	-1.848501	-0.613654	2.713479	-0.516208	0.114766	0.032800	0.992851	0.152823	-0.988140	0.014980	0.981567	0.150011	-0.118417
26434	10.723936	0.886387	-1.290041	-0.518296	2.500009	-0.444695	0.089465	0.033534	0.995425	0.148162	-0.988761	0.019993	0.984908	0.145696	-0.093428
26435	11.542716	1.366265	0.283015	-0.630044	2.247826	-0.305413	0.066836	0.033380	0.997205	0.142156	-0.989563	0.023597	0.987585	0.140181	-0.070883
26436	9.889412	1.032520	-1.190896	-0.343132	2.021537	-0.278506	0.046413	0.033365	0.998365	0.138901	-0.989948	0.026626	0.989218	0.137438	-0.050581
26437	8.854639	1.521136	-1.068164	-0.326995	1.675314	-0.202956	0.029537	0.033133	0.999014	0.135709	-0.990329	0.028833	0.990308	0.134724	-0.033748
26438	8.782421	1.734606	-1.474337	-0.199438	1.319311	-0.065567	0.016331	0.032050	0.999353	0.133726	-0.990577	0.029583	0.990884	0.133156	-0.020463
26439	9.033780	2.152817	-1.391671	-0.204422	1.050339	0.051197	0.005973	0.030192	0.999526	0.131661	-0.990866	0.029144	0.991277	0.131424	-0.009893
26440	9.012187	1.820557	-1.355038	-0.272538	0.824534	0.164004	-0.002036	0.027529	0.999619	0.128931	-0.991270	0.027562	0.991651	0.128938	-0.001531
26441	8.831449	0.959423	-1.428825	-0.214530	0.613145	0.244254	-0.007820	0.024362	0.999673	0.126781	-0.991612	0.025157	0.991900	0.126937	0.004666
26442	8.624962	0.396553	-1.576703	-0.049738	0.432465	0.287537	-0.011792	0.021000	0.999710	0.126291	-0.991742	0.022322	0.991923	0.126518	0.009043
26443	8.621917	-0.034037	-1.659204	0.234656	0.245337	0.309201	-0.013847	0.017659	0.999748	0.128624	-0.991506	0.019295	0.991597	0.128858	0.011458
26444	8.934454	-0.017865	-1.514145	0.481522	0.081221	0.321339	-0.014276	0.014405	0.999794	0.133417	-0.990928	0.016182	0.990957	0.133620	0.012225
26445	8.773473	0.092237	-1.738429	0.600309	-0.064566	0.328731	-0.013204	0.011276	0.999849	0.139374	-0.990154	0.013007	0.990152	0.139524	0.011502
26446	8.064011	0.039913	-2.207990	0.677588	-0.210817	0.324239	-0.010698	0.008405	0.999907	0.146093	-0.989222	0.009878	0.989213	0.146185	0.009355
26447	7.353282	-0.104005	-2.782618	0.741212	-0.354454	0.315188	-0.006738	0.005858	0.999960	0.153414	-0.988138	0.006823	0.988139	0.153454	0.005760
26448	7.110256	-0.340944	-3.496502	0.765330	-0.497036	0.295277	-0.001408	0.003761	0.999992	0.160959	-0.986953	0.003939	0.986960	0.160963	0.000784
26449	6.847132	-0.722032	-4.290630	0.849383	-0.566183	0.255203	0.004581	0.002217	0.999987	0.169298	-0.985564	0.001410	0.985554	0.169289	-0.004890
26450	6.416031	-0.868928	-4.961277	0.925796	-0.611461	0.220017	0.010946	0.001151	0.999939	0.178371	-0.983963	-0.000820	0.983902	0.178369	-0.010976
26451	6.097293	-0.920634	-5.289192	0.928787	-0.627802	0.181013	0.017431	0.000557	0.999848	0.187442	-0.982272	-0.002720	0.982121	0.187461	-0.017226
26452	5.899464	-0.918674	-5.469183	0.905971	-0.618042	0.137834	0.023724	0.000428	0.999718	0.196276	-0.980540	-0.004238	0.980262	0.196321	-0.023347
26453	5.991125	-0.729132	-5.169745	0.832273	-0.599844	0.093206	0.029767	0.000754	0.999557	0.204369	-0.978879	-0.005348	0.978441	0.204438	-0.029293
26454	6.496867	-0.736532	-4.805473	0.683806	-0.578581	0.065682	0.035530	0.001351	0.999368	0.211005	-0.977466	-0.006180	0.976839	0.211091	-0.035014
26455	8.236206	-1.173046	-3.643784	0.364662	-0.575742	0.094279	0.041333	0.001692	0.999144	0.214497	-0.976698	-0.007219	0.975850	0.214612	-0.040733
26456	7.678890	-2.176924	-4.817444	0.473014	-0.539079	0.054509	0.046681	0.002366	0.998907	0.219057	-0.975680	-0.007926	0.974595	0.219187	-0.046064
26457	7.620259	-2.140627	-4.792883	0.365660	-0.633747	0.096153	0.053047	0.002866	0.998588	0.222539	-0.974882	-0.009024	0.973480	0.222703	-0.052352
26458	8.340628	-2.015994	-3.692215	0.287468	-0.704751	0.188003	0.060302	0.002649	0.998177	0.225199	-0.974250	-0.011020	0.972445	0.225453	-0.059346
26459	10.232995	-0.908759	-1.436898	0.009706	-0.652323	0.245267	0.067177	0.001767	0.997739	0.225106	-0.974242	-0.013431	0.972016	0.225500	-0.065845
26460	12.141147	-0.371011	0.890081	-0.211448	-0.532376	0.270098	0.072937	0.000365	0.997337	0.222832	-0.974727	-0.015940	0.972125	0.223401	-0.071174
26461	14.747404	2.955257	1.957126	0.359689	-0.623811	0.144461	0.079302	0.000399	0.996851	0.226186	-0.973925	-0.017604	0.970851	0.226870	-0.077324
26462	19.122512	4.124166	3.909777	-0.623812	-0.712937	0.202250	0.086654	0.000059	0.996238	0.219931	-0.975329	-0.019072	0.971659	0.220756	-0.084529
26463	15.884759	-5.471508	-3.813486	-0.225048	-0.772641	0.375185	0.094962	-0.001867	0.995479	0.217374	-0.975828	-0.022566	0.971458	0.218534	-0.092261
26464	9.731828	-1.699359	-3.937580	1.512120	-1.335525	0.153679	0.108226	-0.000312	0.994126	0.231844	-0.972417	-0.025545	0.966714	0.233247	-0.105168
26465	10.141926	2.355456	-3.820929	1.671586	-1.321827	0.152960	0.121315	0.001430	0.992613	0.247754	-0.968392	-0.028885	0.961197	0.249428	-0.117835
26466	9.569373	2.925016	-5.913478	1.918804	-1.079949	0.221494	0.132208	0.002120	0.991220	0.265831	-0.963441	-0.033395	0.954911	0.267912	-0.127938
26467	8.125287	2.487063	-6.290011	1.392125	-0.932816	0.364648	0.142063	0.001211	0.989857	0.278562	-0.959634	-0.038805	0.949853	0.281249	-0.136666
26468	8.569653	1.390032	-6.517437	0.823576	-0.798990	0.439083	0.150857	-0.000680	0.988555	0.285700	-0.957297	-0.044257	0.946371	0.289107	-0.144221
26469	8.786694	0.736153	-6.284797	0.270729	-0.632733	0.476698	0.158184	-0.003369	0.987404	0.287497	-0.956511	-0.049321	0.944629	0.291677	-0.150337
26470	8.747599	1.472315	-4.657684	-0.501963	-0.595016	0.535287	0.165314	-0.006730	0.986218	0.281859	-0.957947	-0.053784	0.945107	0.286866	-0.156465
26471	9.609193	1.017144	-3.549571	-1.621116	-0.541721	0.615784	0.172108	-0.011095	0.985016	0.265444	-0.962427	-0.057221	0.948640	0.271315	-0.162696
26472	10.507086	-1.641109	-2.640559	-2.323080	-0.437464	0.628965	0.177853	-0.015986	0.983927	0.242215	-0.968395	-0.059516	0.953782	0.248907	-0.168360
26473	10.992526	-5.645516	-2.769945	-2.258565	-0.351973	0.569954	0.182514	-0.020646	0.982986	0.219568	-0.973675	-0.061218	0.958373	0.227005	-0.173176
26474	10.557380	-8.068223	-3.027243	-1.051960	-0.351188	0.324534	0.186568	-0.022988	0.982173	0.208849	-0.975948	-0.062514	0.959987	0.216789	-0.177279
26475	9.641541	-6.226899	-2.665141	0.391204	-0.392695	0.073730	0.190471	-0.022812	0.981428	0.212437	-0.975084	-0.063893	0.958432	0.220661	-0.180880
26476	9.440838	-2.661833	-2.352949	1.193004	-0.420897	-0.064831	0.194349	-0.021191	0.980704	0.223946	-0.972405	-0.065392	0.955027	0.232334	-0.184240
26477	9.632834	0.278832	-2.093583	1.324947	-0.422739	-0.078907	0.198177	-0.019379	0.979975	0.236704	-0.969266	-0.067035	0.951156	0.245249	-0.187499
26478	9.629930	2.257070	-1.895383	0.970063	-0.383838	-0.008991	0.201792	-0.018297	0.979258	0.245905	-0.966854	-0.068738	0.948056	0.254675	-0.190604
26479	9.374639	2.679560	-1.927397	0.304351	-0.340439	0.108920	0.205266	-0.018441	0.978532	0.248542	-0.966064	-0.070343	0.946622	0.257646	-0.193717
26480	9.293005	1.342511	-2.173862	-0.256855	-0.336348	0.205401	0.208948	-0.019526	0.977732	0.245656	-0.966694	-0.071804	0.946569	0.255189	-0.197192
26481	9.676516	-0.480053	-2.323339	-0.458037	-0.339517	0.254886	0.212763	-0.021096	0.976876	0.240758	-0.967810	-0.073337	0.946978	0.250794	-0.200835
26482	10.017565	-1.824255	-2.301268	-0.362162	-0.342687	0.223004	0.216532	-0.022363	0.976019	0.236821	-0.968675	-0.074734	0.947117	0.247324	-0.204453
26483	10.050528	-2.297033	-2.067585	-0.164286	-0.339221	0.167490	0.220119	-0.023113	0.975199	0.234876	-0.969051	-0.075982	0.946774	0.245776	-0.207878
26484	9.818098	-2.085570	-1.997292	-0.002905	-0.339873	0.120595	0.223610	-0.023408	0.974397	0.234552	-0.969041	-0.077106	0.946036	0.245789	-0.211197
26485	9.698401	-1.764665	-2.096326	0.027088	-0.336663	0.085440	0.226975	-0.023371	0.973620	0.234593	-0.968964	-0.077949	0.945224	0.246096	-0.214448
26486	9.685410	-1.743755	-2.340622	-0.000582	-0.328066	0.060263	0.230208	-0.023111	0.972867	0.234421	-0.968961	-0.078489	0.944485	0.246129	-0.217645
26487	9.791615	-1.620643	-2.557409	0.015791	-0.326061	0.030248	0.233338	-0.022565	0.972134	0.234477	-0.968925	-0.078771	0.943702	0.246323	-0.220796
26488	9.842649	-1.184762	-2.748541	0.051851	-0.326411	0.000081	0.236409	-0.021725	0.971411	0.234938	-0.968808	-0.078842	0.942823	0.246860	-0.223931
26489	9.724183	-0.700023	-2.299215	0.037279	-0.316929	-0.008165	0.239357	-0.020826	0.970708	0.235286	-0.968727	-0.078800	0.941992	0.247255	-0.226971
26490	9.559311	-0.838357	-2.235325	0.015535	-0.303279	-0.019655	0.242159	-0.019850	0.970034	0.235452	-0.968702	-0.078600	0.941234	0.247430	-0.229906
26491	9.479647	-0.755109	-1.935839	0.101788	-0.306411	-0.022793	0.244968	-0.018833	0.969348	0.236442	-0.968464	-0.078568	0.940258	0.248442	-0.232790
26492	9.234531	-0.531327	-1.656229	0.134139	-0.323963	-0.017711	0.247963	-0.017818	0.968606	0.237719	-0.968143	-0.078666	0.939151	0.249762	-0.235828
26493	9.072615	-0.206624	-1.314813	0.148491	-0.351004	-0.010507	0.251212	-0.016801	0.967786	0.239117	-0.967782	-0.078869	0.937931	0.251227	-0.239102
26494	8.973654	-0.126872	-1.136283	0.115955	-0.381275	0.008643	0.254798	-0.015889	0.966864	0.240155	-0.967499	-0.079187	0.936698	0.252374	-0.242701
26495	9.118613	-0.221327	-0.865917	0.076607	-0.425444	0.043734	0.258866	-0.015200	0.965794	0.240738	-0.967308	-0.079750	0.935432	0.253148	-0.246744
26496	9.203231	-0.476366	-0.808408	0.047153	-0.473569	0.062433	0.263433	-0.014568	0.964568	0.240990	-0.967190	-0.080424	0.934091	0.253638	-0.251279
26497	9.451511	-0.614300	-0.784900	0.037721	-0.522640	0.080468	0.268486	-0.013983	0.963182	0.241107	-0.967092	-0.081248	0.932621	0.254044	-0.256279
26498	9.568658	-0.602785	-1.007788	0.025513	-0.569028	0.085519	0.273983	-0.013327	0.961642	0.241088	-0.967025	-0.082091	0.931026	0.254332	-0.261735
26499	9.614010	-0.615218	-1.557160	-0.015830	-0.601666	0.095850	0.279791	-0.012688	0.959977	0.240655	-0.967062	-0.082922	0.929410	0.254224	-0.267522
26500	9.773603	-0.467701	-2.183804	-0.018284	-0.628603	0.106569	0.285871	-0.012085	0.958192	0.240160	-0.967105	-0.083848	0.927686	0.254089	-0.273565
26501	9.636867	-0.387655	-2.587290	-0.096045	-0.638712	0.116820	0.292052	-0.011558	0.956333	0.238912	-0.967344	-0.084652	0.926081	0.253202	-0.279753
26502	9.558462	-0.697460	-2.854440	-0.149105	-0.644871	0.106121	0.298259	-0.010920	0.954423	0.237196	-0.967719	-0.085197	0.924543	0.251796	-0.286040
