// General information: 
//  MT Manager version: 2022.2.0 
//  XDA version: 2022.2.0 build 7381 rev 124627 built on 2023-07-19
// Device information: 
//  DeviceId: 00B4CBA7
//  ProductCode: MTW2-3A7G6
//  Firmware Version: 4.6.0
//  Hardware Version: 2.0.0
// Device settings: 
//  Filter Profile: human(46.1)
//  Option Flags: Orientation Smoother Disabled, Position/Velocity Smoother Disabled, Continuous Zero Rotation Update Disabled, AHS Disabled, ICC Disabled
// Coordinate system: ENU
PacketCounter	Acc_X	Acc_Y	Acc_Z	Gyr_X	Gyr_Y	Gyr_Z	Mat[1][1]	Mat[2][1]	Mat[3][1]	Mat[1][2]	Mat[2][2]	Mat[3][2]	Mat[1][3]	Mat[2][3]	Mat[3][3]
09088	9.371110	-0.682089	-2.994362	0.032586	-0.018168	0.015340	-0.269512	-0.114352	0.956184	-0.625248	0.775954	-0.083436	-0.732413	-0.620338	-0.280627
09089	9.335366	-0.661817	-2.952617	0.024469	-0.005080	0.017272	-0.269661	-0.114246	0.956154	-0.625351	0.775846	-0.083664	-0.732270	-0.620493	-0.280659
09090	9.415987	-0.657022	-2.875435	-0.001280	0.004660	0.020721	-0.269725	-0.114072	0.956157	-0.625292	0.775876	-0.083826	-0.732297	-0.620488	-0.280601
09091	9.577782	-0.747123	-2.819962	-0.033661	0.010009	0.030610	-0.269851	-0.113696	0.956166	-0.624861	0.776199	-0.084053	-0.732618	-0.620152	-0.280502
09092	9.397002	-0.923249	-2.568818	-0.064412	-0.000068	0.018609	-0.269936	-0.113568	0.956157	-0.624345	0.776617	-0.084018	-0.733027	-0.619651	-0.280542
09093	9.173022	-1.002941	-2.532319	-0.062085	-0.057460	0.003682	-0.270383	-0.113934	0.955988	-0.623885	0.777005	-0.083851	-0.733254	-0.619098	-0.281170
09094	9.209334	-0.696936	-2.473598	-0.004643	-0.071441	0.001992	-0.270887	-0.114377	0.955792	-0.623852	0.777034	-0.083824	-0.733096	-0.618979	-0.281843
09095	9.220299	-0.478914	-2.403333	-0.013507	-0.053835	0.010951	-0.271377	-0.114635	0.955622	-0.623715	0.777136	-0.083898	-0.733030	-0.618804	-0.282397
09096	9.143992	-0.677270	-2.420911	-0.073770	-0.055092	0.001896	-0.271761	-0.114977	0.955472	-0.623176	0.777593	-0.083676	-0.733347	-0.618167	-0.282970
09097	9.439110	-1.011022	-2.772420	-0.087253	-0.071261	-0.009714	-0.272252	-0.115494	0.955270	-0.622548	0.778131	-0.083349	-0.733698	-0.617393	-0.283748
09098	9.417794	-0.992174	-2.915125	-0.025657	-0.063434	-0.018778	-0.272569	-0.116047	0.955112	-0.622417	0.778266	-0.083065	-0.733691	-0.617119	-0.284361
09099	9.422077	-0.886838	-3.067427	-0.018199	-0.049379	-0.017042	-0.272774	-0.116530	0.954995	-0.622327	0.778368	-0.082777	-0.733691	-0.616899	-0.284838
09100	9.478961	-0.691511	-3.250947	-0.046760	-0.043127	-0.006496	-0.273019	-0.116862	0.954884	-0.622008	0.778647	-0.082550	-0.733871	-0.616484	-0.285274
09101	9.289243	-0.750061	-3.251700	-0.113423	-0.017847	0.010176	-0.273180	-0.116934	0.954829	-0.621144	0.779367	-0.082266	-0.734543	-0.615560	-0.285540
09102	9.250506	-1.052716	-3.320040	-0.124592	-0.009684	0.019771	-0.273343	-0.116855	0.954792	-0.620180	0.780155	-0.082067	-0.735296	-0.614576	-0.285721
09103	9.323978	-1.162296	-3.328038	-0.097794	0.006267	0.021842	-0.273396	-0.116754	0.954790	-0.619451	0.780751	-0.081903	-0.735891	-0.613837	-0.285778
09104	9.334096	-0.922212	-3.194332	-0.056645	0.024332	0.016671	-0.273289	-0.116490	0.954852	-0.618995	0.781117	-0.081868	-0.736314	-0.613422	-0.285578
09105	9.329138	-0.627989	-3.155229	-0.074010	0.037011	0.015678	-0.273131	-0.116154	0.954939	-0.618391	0.781601	-0.081802	-0.736880	-0.612868	-0.285308
09106	9.265921	-0.628033	-3.037333	-0.099997	0.045543	0.011233	-0.272834	-0.115803	0.955066	-0.617630	0.782225	-0.081592	-0.737628	-0.612139	-0.284941
09107	9.231591	-0.708410	-2.950749	-0.101736	0.050163	0.013326	-0.272542	-0.115426	0.955195	-0.616832	0.782875	-0.081395	-0.738403	-0.611379	-0.284565
09108	9.353040	-0.786141	-2.973922	-0.083412	0.052202	0.008709	-0.272179	-0.115055	0.955343	-0.616199	0.783393	-0.081209	-0.739065	-0.610785	-0.284120
09109	9.350868	-0.868060	-2.873811	-0.052574	0.058576	0.001556	-0.271747	-0.114804	0.955497	-0.615875	0.783669	-0.080999	-0.739495	-0.610477	-0.283664
09110	9.337384	-0.858145	-2.830183	-0.017253	0.058712	-0.000842	-0.271276	-0.114468	0.955671	-0.615756	0.783772	-0.080909	-0.739766	-0.610408	-0.283103
09111	9.338231	-0.815572	-2.819421	0.010651	0.056254	-0.010939	-0.270874	-0.114261	0.955809	-0.615898	0.783665	-0.080862	-0.739795	-0.610585	-0.282648
09112	9.441645	-0.818215	-2.881263	0.016812	0.063429	-0.014862	-0.270283	-0.114007	0.956007	-0.616069	0.783543	-0.080735	-0.739869	-0.610788	-0.282014
09113	9.393872	-0.828217	-2.799425	0.011584	0.059527	-0.010623	-0.269742	-0.113753	0.956190	-0.616156	0.783488	-0.080610	-0.739994	-0.610906	-0.281429
09114	9.324458	-0.841845	-2.803116	0.000070	0.060901	-0.010406	-0.269196	-0.113479	0.956376	-0.616190	0.783475	-0.080479	-0.740164	-0.610975	-0.280833
09115	9.400750	-0.994772	-2.809807	0.014228	0.055480	-0.001164	-0.268777	-0.113177	0.956530	-0.616282	0.783403	-0.080478	-0.740240	-0.611123	-0.280309
09116	9.256670	-0.843990	-2.571924	0.042376	0.051501	0.008031	-0.268414	-0.112816	0.956675	-0.616580	0.783151	-0.080641	-0.740124	-0.611512	-0.279769
09117	9.280045	-0.736723	-2.521550	0.030842	0.044374	-0.005678	-0.268028	-0.112648	0.956803	-0.616833	0.782955	-0.080613	-0.740052	-0.611794	-0.279339
09118	9.337091	-0.859825	-2.435021	0.010650	0.044779	-0.005012	-0.267635	-0.112429	0.956938	-0.616932	0.782882	-0.080563	-0.740113	-0.611927	-0.278888
09119	9.239197	-0.776090	-2.319403	0.006478	0.034659	-0.012353	-0.267279	-0.112326	0.957050	-0.616978	0.782861	-0.080424	-0.740203	-0.611974	-0.278545
09120	9.242914	-0.841770	-2.237853	0.001712	0.019261	-0.015934	-0.267007	-0.112349	0.957123	-0.617039	0.782831	-0.080244	-0.740250	-0.612008	-0.278345
09121	9.350844	-0.889727	-2.275072	0.013969	0.007807	-0.024506	-0.266761	-0.112585	0.957164	-0.617253	0.782690	-0.079965	-0.740160	-0.612144	-0.278285
09122	9.419386	-0.806359	-2.343693	0.034474	0.005661	-0.029688	-0.266505	-0.112800	0.957210	-0.617593	0.782444	-0.079744	-0.739969	-0.612419	-0.278190
09123	9.434823	-0.666842	-2.416262	0.034567	-0.006528	-0.030343	-0.266287	-0.113101	0.957235	-0.617900	0.782231	-0.079466	-0.739791	-0.612637	-0.278183
09124	9.402401	-0.576092	-2.559400	0.026201	-0.009249	-0.034415	-0.266112	-0.113443	0.957243	-0.618191	0.782030	-0.079178	-0.739611	-0.612830	-0.278237
09125	9.575340	-0.634415	-2.942605	-0.000781	-0.006443	-0.036647	-0.265882	-0.113741	0.957272	-0.618210	0.782054	-0.078786	-0.739677	-0.612743	-0.278250
09126	9.476519	-0.767056	-3.121858	0.003820	-0.004655	-0.033148	-0.265681	-0.114045	0.957292	-0.618333	0.781992	-0.078447	-0.739647	-0.612767	-0.278278
09127	9.365088	-0.606627	-3.157092	0.029901	0.003625	-0.024577	-0.265537	-0.114262	0.957306	-0.618641	0.781764	-0.078289	-0.739441	-0.613017	-0.278274
09128	9.405331	-0.690969	-3.260197	0.019312	0.008022	-0.015475	-0.265351	-0.114350	0.957347	-0.618831	0.781626	-0.078162	-0.739349	-0.613176	-0.278169
09129	9.209899	-0.754453	-3.011349	0.033934	0.020345	-0.017930	-0.265039	-0.114416	0.957425	-0.619128	0.781406	-0.078009	-0.739212	-0.613444	-0.277942
09130	9.367143	-0.619429	-2.698203	0.045176	0.020478	-0.004979	-0.264826	-0.114346	0.957493	-0.619481	0.781122	-0.078055	-0.738993	-0.613819	-0.277697
09131	9.363639	-0.703650	-2.600126	0.026734	0.024756	0.007492	-0.264636	-0.114259	0.957556	-0.619731	0.780919	-0.078091	-0.738851	-0.614093	-0.277469
09132	9.200031	-0.710089	-2.242873	0.026244	0.013377	-0.005251	-0.264474	-0.114234	0.957603	-0.619945	0.780751	-0.078081	-0.738730	-0.614312	-0.277307
09133	9.327006	-0.671766	-2.184588	0.008678	0.000980	-0.000454	-0.264418	-0.114191	0.957624	-0.619918	0.780773	-0.078068	-0.738772	-0.614291	-0.277240
09134	9.442077	-0.910405	-2.299829	-0.002249	-0.006991	-0.002070	-0.264426	-0.114267	0.957613	-0.619913	0.780783	-0.078009	-0.738774	-0.614264	-0.277295
09135	9.319890	-0.893361	-2.229250	0.024790	-0.012717	-0.012374	-0.264446	-0.114462	0.957584	-0.620114	0.780630	-0.077940	-0.738598	-0.614422	-0.277414
09136	9.278446	-0.824153	-2.216864	0.044424	-0.026906	-0.023134	-0.264470	-0.114825	0.957534	-0.620509	0.780329	-0.077809	-0.738257	-0.614737	-0.277624
09137	9.451275	-0.766708	-2.412129	0.073902	-0.041250	-0.027350	-0.264625	-0.115359	0.957427	-0.621170	0.779812	-0.077728	-0.737646	-0.615293	-0.278016
09138	9.456485	-0.766868	-2.521739	0.081518	-0.042565	-0.030136	-0.264721	-0.115873	0.957338	-0.621857	0.779274	-0.077634	-0.737033	-0.615878	-0.278347
09139	9.386958	-0.760361	-2.585311	0.104094	-0.047923	-0.037931	-0.264879	-0.116516	0.957216	-0.622757	0.778562	-0.077558	-0.736216	-0.616657	-0.278786
09140	9.371702	-0.747956	-2.691218	0.120154	-0.055517	-0.033313	-0.265049	-0.117135	0.957094	-0.623735	0.777780	-0.077542	-0.735326	-0.617525	-0.279211
09141	9.457728	-0.844597	-2.823950	0.137417	-0.052805	-0.027646	-0.265271	-0.117643	0.956970	-0.624755	0.776949	-0.077669	-0.734379	-0.618475	-0.279600
09142	9.451973	-0.738201	-2.902240	0.143560	-0.048294	-0.020338	-0.265467	-0.118116	0.956857	-0.625868	0.776034	-0.077844	-0.733360	-0.619531	-0.279937
09143	9.325453	-0.657592	-2.913570	0.129297	-0.042404	-0.014429	-0.265693	-0.118490	0.956748	-0.626825	0.775240	-0.078061	-0.732460	-0.620454	-0.280249
09144	9.233131	-0.661883	-2.921441	0.125498	-0.040168	-0.011039	-0.265888	-0.118842	0.956651	-0.627779	0.774446	-0.078275	-0.731572	-0.621377	-0.280522
09145	9.142842	-0.631738	-2.610030	0.123061	-0.043009	-0.011153	-0.266097	-0.119217	0.956546	-0.628693	0.773685	-0.078467	-0.730710	-0.622254	-0.280826
09146	9.273400	-0.598223	-2.523442	0.103718	-0.056363	-0.005511	-0.266444	-0.119627	0.956398	-0.629471	0.773031	-0.078674	-0.729914	-0.622987	-0.281271
09147	9.393277	-0.677440	-2.694029	0.070198	-0.053172	-0.006553	-0.266783	-0.119960	0.956262	-0.629917	0.772654	-0.078811	-0.729405	-0.623391	-0.281696
09148	9.415399	-0.979604	-2.909829	0.041928	-0.049127	-0.024384	-0.266957	-0.120471	0.956149	-0.630293	0.772362	-0.078663	-0.729016	-0.623654	-0.282119
09149	9.278606	-1.111352	-3.277086	0.060567	-0.048697	-0.042088	-0.267035	-0.121170	0.956039	-0.630888	0.771904	-0.078383	-0.728473	-0.624085	-0.282570
09150	9.437797	-1.231023	-3.684543	0.128288	-0.041483	-0.062332	-0.266912	-0.121926	0.955977	-0.631994	0.771026	-0.078118	-0.727558	-0.625023	-0.282853
09151	9.426588	-0.869621	-4.013864	0.227172	-0.014662	-0.072544	-0.266568	-0.122589	0.955988	-0.633821	0.769532	-0.078056	-0.726094	-0.626732	-0.282832
09152	9.661390	-0.405760	-4.068085	0.238487	0.017304	-0.074994	-0.265936	-0.123073	0.956102	-0.635756	0.767941	-0.077981	-0.724633	-0.628585	-0.282467
09153	9.409092	-0.531997	-3.899972	0.180417	0.039998	-0.045865	-0.265297	-0.123329	0.956247	-0.637296	0.766668	-0.077930	-0.723513	-0.630087	-0.281992
09154	9.192778	-0.352005	-3.670126	0.120000	0.053184	-0.007558	-0.264834	-0.123068	0.956409	-0.638190	0.765901	-0.078164	-0.722895	-0.631071	-0.281377
09155	9.216350	-0.452380	-3.396288	0.050146	0.071987	0.003137	-0.264327	-0.122632	0.956605	-0.638533	0.765602	-0.078291	-0.722778	-0.631518	-0.280674
09156	9.317356	-0.355638	-2.937870	0.018914	0.084296	0.018569	-0.263805	-0.121974	0.956833	-0.638626	0.765504	-0.078490	-0.722886	-0.631764	-0.279840
09157	9.278188	-0.043399	-2.402717	-0.081027	0.094456	0.035291	-0.263272	-0.121179	0.957081	-0.637953	0.766065	-0.078493	-0.723674	-0.631238	-0.278990
09158	9.278464	-0.086378	-1.978236	-0.221242	0.081110	0.043632	-0.262932	-0.120350	0.957279	-0.636241	0.767511	-0.078262	-0.725303	-0.629637	-0.278374
09159	9.285853	-0.277006	-1.764456	-0.306984	0.061515	0.041472	-0.262685	-0.119731	0.957424	-0.633925	0.769481	-0.077700	-0.727417	-0.627346	-0.278031
09160	9.487808	-0.674660	-1.812962	-0.323287	0.042860	0.026400	-0.262509	-0.119276	0.957529	-0.631507	0.771536	-0.077022	-0.729581	-0.624905	-0.277858
09161	9.385049	-0.893779	-1.751442	-0.233716	0.018573	0.010398	-0.262378	-0.119028	0.957596	-0.629655	0.773106	-0.076427	-0.731226	-0.623008	-0.277793
09162	9.382942	-0.702836	-1.783948	-0.118188	-0.002678	-0.007074	-0.262323	-0.119117	0.957600	-0.628815	0.773832	-0.075998	-0.731969	-0.622089	-0.277896
09163	9.523694	-0.748872	-1.950913	-0.054760	-0.022162	-0.006002	-0.262443	-0.119315	0.957543	-0.628395	0.774196	-0.075761	-0.732287	-0.621598	-0.278159
09164	9.501800	-0.605788	-2.215843	0.021881	-0.041432	0.009304	-0.262774	-0.119517	0.957426	-0.628536	0.774070	-0.075878	-0.732047	-0.621716	-0.278527
09165	9.536128	-0.438783	-2.574589	0.027882	-0.050689	0.025188	-0.263279	-0.119663	0.957270	-0.628651	0.773950	-0.076152	-0.731766	-0.621838	-0.278991
09166	9.423920	-0.549973	-2.909234	0.037980	-0.060782	0.037131	-0.263926	-0.119770	0.957078	-0.628837	0.773757	-0.076580	-0.731374	-0.622057	-0.279531
09167	9.504557	-0.441069	-3.159141	0.076682	-0.059696	0.057738	-0.264645	-0.119773	0.956879	-0.629272	0.773337	-0.077239	-0.730739	-0.622578	-0.280030
09168	9.393332	-0.522340	-3.174207	0.092094	-0.054719	0.068055	-0.265443	-0.119605	0.956679	-0.629770	0.772844	-0.078116	-0.730021	-0.623223	-0.280470
09169	9.161862	-0.302815	-2.875756	0.152298	-0.052369	0.075187	-0.266282	-0.119406	0.956471	-0.630686	0.771986	-0.079208	-0.728923	-0.624324	-0.280874
09170	9.259808	-0.217989	-2.568547	0.146183	-0.053755	0.071896	-0.267097	-0.119204	0.956269	-0.631564	0.771157	-0.080274	-0.727864	-0.625386	-0.281259
09171	9.463623	-0.305163	-2.347785	0.138635	-0.058232	0.082038	-0.268121	-0.118920	0.956017	-0.632294	0.770431	-0.081496	-0.726853	-0.626334	-0.281761
09172	9.489075	-0.313808	-2.374259	0.131259	-0.063678	0.094231	-0.269149	-0.118611	0.955767	-0.632999	0.769719	-0.082734	-0.725858	-0.627268	-0.282250
09173	9.346182	-0.293587	-2.444037	0.117265	-0.065129	0.094324	-0.270191	-0.118268	0.955515	-0.633508	0.769170	-0.083934	-0.725027	-0.628005	-0.282747
09174	9.456486	-0.462128	-2.692780	0.123609	-0.076013	0.097175	-0.271327	-0.118015	0.955225	-0.634146	0.768507	-0.085179	-0.724045	-0.628863	-0.283356
09175	9.543734	-0.492647	-3.064833	0.151805	-0.079012	0.104427	-0.272560	-0.117741	0.954907	-0.634937	0.767698	-0.086572	-0.722887	-0.629902	-0.284002
09176	9.511132	-0.487383	-3.275316	0.154751	-0.072577	0.109967	-0.273753	-0.117372	0.954612	-0.635760	0.766851	-0.088030	-0.721712	-0.631002	-0.284548
09177	9.466207	-0.641539	-3.323583	0.186335	-0.069378	0.108992	-0.274883	-0.116965	0.954337	-0.636724	0.765876	-0.089532	-0.720432	-0.632260	-0.285000
09178	9.417112	-0.544810	-3.205537	0.247028	-0.062721	0.119410	-0.276065	-0.116465	0.954057	-0.638178	0.764451	-0.091344	-0.718691	-0.634075	-0.285363
09179	9.426287	-0.508638	-2.908376	0.286568	-0.058883	0.130269	-0.277313	-0.115918	0.953761	-0.639888	0.762778	-0.093345	-0.716688	-0.636186	-0.285703
09180	9.458571	-0.509796	-2.670123	0.296322	-0.053223	0.151914	-0.278637	-0.115116	0.953473	-0.641592	0.761064	-0.095608	-0.714648	-0.638380	-0.285918
09181	9.411831	-0.500569	-2.559149	0.249356	-0.050943	0.169741	-0.280044	-0.114220	0.953168	-0.642895	0.759679	-0.097851	-0.712925	-0.640189	-0.286175
09182	9.370943	-0.851027	-2.532786	0.198639	-0.053592	0.176527	-0.281531	-0.113240	0.952847	-0.643819	0.758606	-0.100069	-0.711503	-0.641634	-0.286477
09183	9.456047	-1.035279	-2.440225	0.219559	-0.054622	0.162240	-0.282930	-0.112355	0.952537	-0.644845	0.757451	-0.102193	-0.710018	-0.643152	-0.286757
09184	9.594115	-1.001950	-2.231781	0.251845	-0.052114	0.156186	-0.284277	-0.111525	0.952233	-0.646194	0.756003	-0.104370	-0.708252	-0.644997	-0.286981
09185	9.461519	-1.119246	-2.100482	0.262219	-0.065543	0.164565	-0.285795	-0.110743	0.951870	-0.647557	0.754518	-0.106643	-0.706393	-0.646868	-0.287350
09186	9.388984	-1.442018	-1.854368	0.253027	-0.072517	0.153905	-0.287274	-0.110069	0.951503	-0.648906	0.753049	-0.108803	-0.704553	-0.648693	-0.287755
09187	9.592593	-1.825739	-1.514331	0.349189	-0.110333	0.134603	-0.288909	-0.109924	0.951025	-0.651071	0.750856	-0.111000	-0.701882	-0.651254	-0.288498
09188	9.752130	-1.667495	-1.023638	0.505615	-0.145453	0.125573	-0.290717	-0.109949	0.950471	-0.654253	0.747692	-0.113622	-0.698167	-0.654880	-0.289301
09189	9.681962	-1.016455	-0.242174	0.596243	-0.192259	0.137433	-0.292896	-0.110229	0.949769	-0.658004	0.743936	-0.116579	-0.693717	-0.659097	-0.290426
09190	9.648743	-0.505644	0.144924	0.550348	-0.271432	0.168029	-0.295850	-0.110791	0.948788	-0.661321	0.740484	-0.119745	-0.689295	-0.662880	-0.292341
09191	9.539996	-0.321523	0.076206	0.438572	-0.338101	0.183848	-0.299373	-0.111718	0.947573	-0.663813	0.737758	-0.122742	-0.685367	-0.665757	-0.295025
09192	9.478458	-0.693826	-0.211607	0.323306	-0.410572	0.208342	-0.303534	-0.112936	0.946104	-0.665402	0.735836	-0.125641	-0.681988	-0.667676	-0.298499
09193	9.544057	-0.768757	-0.930882	0.296908	-0.467712	0.229753	-0.308072	-0.114430	0.944456	-0.666762	0.734101	-0.128547	-0.678617	-0.669329	-0.302454
09194	9.903168	-0.221755	-0.922953	0.244982	-0.485802	0.235570	-0.312902	-0.115973	0.942679	-0.667696	0.732731	-0.131483	-0.675481	-0.670564	-0.306707
09195	10.241649	-0.368988	-0.513608	0.043253	-0.544499	0.217697	-0.318027	-0.118045	0.940704	-0.667331	0.732668	-0.133667	-0.673445	-0.670270	-0.311783
09196	10.831264	-0.877215	-0.020517	-0.065066	-0.648878	0.229693	-0.323892	-0.120722	0.938360	-0.666163	0.733378	-0.135587	-0.671804	-0.669017	-0.317956
09197	10.882592	-1.382051	1.172272	-0.090274	-0.745530	0.242257	-0.330455	-0.123904	0.935654	-0.664784	0.734262	-0.137554	-0.669972	-0.667463	-0.325010
09198	10.863228	-2.040937	2.325316	-0.028785	-0.895914	0.232648	-0.337959	-0.128185	0.932391	-0.663822	0.734747	-0.139599	-0.667176	-0.666120	-0.333406
09199	10.919010	-2.631687	2.589441	0.024210	-1.060096	0.194333	-0.346280	-0.133784	0.928543	-0.663365	0.734792	-0.141519	-0.663353	-0.664968	-0.343191
09200	10.956181	-2.994442	2.325431	0.206170	-1.201665	0.144113	-0.355144	-0.140731	0.924158	-0.664230	0.733618	-0.143541	-0.657778	-0.664831	-0.354018
09201	11.142968	-2.403750	1.918540	0.410265	-1.337437	0.127666	-0.364680	-0.148751	0.919175	-0.666610	0.730931	-0.146188	-0.650108	-0.666043	-0.365715
09202	11.549909	-1.322744	1.402604	0.475276	-1.455694	0.127875	-0.374905	-0.157538	0.913580	-0.669216	0.727957	-0.149096	-0.641558	-0.667279	-0.378341
09203	12.169194	-0.891246	0.931148	0.351486	-1.553150	0.124833	-0.385569	-0.167087	0.907424	-0.671190	0.725622	-0.151581	-0.633120	-0.667499	-0.391925
09204	13.089070	-0.757869	0.417315	0.221827	-1.640289	0.127491	-0.396716	-0.177117	0.900692	-0.672097	0.724360	-0.153588	-0.625222	-0.666283	-0.406405
09205	13.957200	-0.720201	0.159547	0.102052	-1.698482	0.135404	-0.408076	-0.187504	0.893485	-0.672401	0.723728	-0.155223	-0.617536	-0.664123	-0.421414
09206	13.920896	-1.620053	0.151508	-0.036942	-1.783898	0.168311	-0.420130	-0.198115	0.885574	-0.671489	0.724294	-0.156530	-0.610405	-0.660416	-0.437330
09207	13.964550	-2.526331	-0.533606	-0.036818	-1.870252	0.190914	-0.432747	-0.209119	0.876926	-0.670689	0.724680	-0.158160	-0.602416	-0.656588	-0.453857
09208	13.183213	-2.279488	-1.559138	0.022447	-1.910398	0.209692	-0.445551	-0.220121	0.867774	-0.669915	0.724979	-0.160063	-0.593884	-0.652651	-0.470477
09209	12.578155	-1.826108	-3.258323	-0.116709	-1.899250	0.201514	-0.458079	-0.231041	0.858361	-0.668548	0.725948	-0.161382	-0.585839	-0.647781	-0.487003
09210	11.520594	-1.654014	-4.820632	-0.247508	-1.829484	0.169564	-0.469837	-0.241619	0.849043	-0.666333	0.727938	-0.161575	-0.579011	-0.641659	-0.503011
09211	10.493574	-1.644170	-6.060142	-0.270338	-1.766820	0.128907	-0.480868	-0.252048	0.839784	-0.664415	0.729720	-0.161436	-0.572118	-0.635595	-0.518363
09212	10.127313	-1.871403	-8.199668	-0.232701	-1.653193	0.047143	-0.490557	-0.262178	0.831033	-0.662876	0.731307	-0.160579	-0.565640	-0.629646	-0.532539
09213	9.609623	-1.854581	-8.864379	0.001149	-1.472256	-0.101232	-0.498128	-0.272353	0.823221	-0.663665	0.730758	-0.159819	-0.558048	-0.625953	-0.544762
09214	9.088968	-1.381391	-8.874419	0.295495	-1.284178	-0.271942	-0.503404	-0.282382	0.816606	-0.666679	0.728148	-0.159186	-0.549658	-0.624549	-0.554810
09215	8.849298	-1.041676	-9.010229	0.500214	-1.109278	-0.382541	-0.506905	-0.292206	0.810964	-0.671560	0.723687	-0.159010	-0.540420	-0.625214	-0.563075
09216	7.852870	-0.863796	-9.090322	0.677263	-0.921798	-0.475817	-0.508607	-0.301425	0.806513	-0.677621	0.718024	-0.158971	-0.531178	-0.627363	-0.569443
09217	7.087383	-1.184180	-9.710039	0.713104	-0.725180	-0.510205	-0.508980	-0.309763	0.803111	-0.684160	0.711776	-0.159059	-0.522364	-0.630415	-0.574207
09218	5.918659	-1.402975	-10.116235	0.891280	-0.513640	-0.510508	-0.508101	-0.316643	0.800981	-0.691389	0.704527	-0.160069	-0.513628	-0.635121	-0.576895
09219	4.946906	-1.489479	-10.956077	1.139042	-0.287274	-0.504781	-0.506116	-0.322099	0.800062	-0.699889	0.695460	-0.162760	-0.503986	-0.642330	-0.577417
09220	3.757356	-1.973282	-10.606855	1.303769	-0.079804	-0.484734	-0.503072	-0.325976	0.800411	-0.708859	0.685448	-0.166374	-0.494406	-0.651077	-0.575901
09221	2.546868	-1.863006	-10.618208	1.571787	0.107737	-0.423211	-0.499506	-0.328230	0.801723	-0.718795	0.673593	-0.172066	-0.483557	-0.662222	-0.572393
09222	1.168242	-0.606556	-10.641831	1.849803	0.434856	-0.350241	-0.494863	-0.327670	0.804825	-0.729394	0.660056	-0.179753	-0.472330	-0.675987	-0.565637
09223	0.775122	1.062753	-8.501210	1.829754	0.748451	-0.342647	-0.488875	-0.324937	0.809579	-0.739720	0.646331	-0.187275	-0.462403	-0.690415	-0.556336
09224	1.294216	2.831863	-5.321899	1.314649	1.152807	-0.377826	-0.480730	-0.319342	0.816651	-0.747618	0.635946	-0.191413	-0.458220	-0.702562	-0.544464
09225	2.601392	4.146066	-2.474854	0.295369	1.694613	-0.406469	-0.469901	-0.310033	0.826482	-0.750953	0.632526	-0.189684	-0.463963	-0.709782	-0.530045
09226	3.003356	4.109796	-3.284821	-1.000310	2.278922	-0.474253	-0.455538	-0.296876	0.839256	-0.748431	0.638180	-0.180491	-0.482013	-0.710345	-0.512906
09227	3.330120	2.274304	-4.970615	-2.039191	2.420206	-0.494170	-0.439820	-0.283001	0.852332	-0.740578	0.651158	-0.165948	-0.508039	-0.704205	-0.495976
09228	3.853812	0.186216	-5.833987	-2.531339	2.274746	-0.434144	-0.424719	-0.269975	0.864134	-0.729247	0.667644	-0.149835	-0.536482	-0.693805	-0.480440
09229	4.336286	-1.542691	-5.890263	-2.559881	2.046593	-0.389837	-0.410556	-0.258672	0.874376	-0.716802	0.684252	-0.134142	-0.563595	-0.681827	-0.466341
09230	5.214687	-2.956002	-5.765503	-2.232451	1.866154	-0.393716	-0.396990	-0.248784	0.883462	-0.705561	0.698348	-0.120393	-0.587012	-0.671131	-0.452770
09231	5.940419	-3.803286	-5.810114	-1.537628	1.779695	-0.437855	-0.383420	-0.240200	0.891792	-0.698099	0.707569	-0.109562	-0.604688	-0.664567	-0.438980
09232	6.355579	-3.873929	-5.626520	-0.797129	1.791817	-0.501707	-0.368951	-0.231881	0.900059	-0.695129	0.711669	-0.101600	-0.616985	-0.663143	-0.423758
09233	6.649286	-3.348214	-5.911904	-0.133067	1.881109	-0.557101	-0.353385	-0.223584	0.908366	-0.696327	0.711301	-0.095816	-0.624699	-0.666379	-0.407051
09234	6.647274	-2.807025	-5.446811	0.382013	1.943463	-0.597884	-0.336999	-0.214823	0.916669	-0.700796	0.707424	-0.091851	-0.628742	-0.673352	-0.388948
09235	6.891476	-1.812655	-4.947701	0.826160	1.965962	-0.625276	-0.320132	-0.206047	0.924695	-0.708036	0.700543	-0.089024	-0.629445	-0.683216	-0.370155
09236	7.304633	-0.199004	-4.107895	1.078323	1.976545	-0.624886	-0.303224	-0.196795	0.932377	-0.716773	0.691848	-0.087079	-0.627927	-0.694707	-0.350843
09237	7.222002	1.518356	-3.718537	0.932638	2.001233	-0.559961	-0.286617	-0.186781	0.939661	-0.724251	0.684291	-0.084893	-0.627145	-0.704882	-0.331406
09238	6.800426	3.095613	-3.876354	0.433178	1.940357	-0.454715	-0.271094	-0.176159	0.946296	-0.728250	0.680392	-0.081969	-0.629413	-0.711361	-0.312738
09239	6.508186	3.658120	-4.242976	-0.286462	1.845753	-0.351901	-0.256703	-0.165450	0.952224	-0.727307	0.681912	-0.077587	-0.636496	-0.712476	-0.295382
09240	6.290695	2.949543	-4.553836	-0.948927	1.685717	-0.284028	-0.243792	-0.155432	0.957291	-0.721933	0.688195	-0.072114	-0.647594	-0.708681	-0.279988
09241	6.698415	2.079370	-4.619762	-1.295691	1.494948	-0.266127	-0.231923	-0.146992	0.961564	-0.714018	0.697042	-0.065661	-0.660598	-0.701802	-0.266615
09242	7.968271	1.148521	-4.154492	-1.400987	1.317889	-0.308117	-0.220916	-0.139974	0.965196	-0.705376	0.706373	-0.059009	-0.673528	-0.693862	-0.254783
09243	9.480056	0.001179	-3.816159	-1.335472	1.172281	-0.384387	-0.210142	-0.134723	0.968344	-0.697013	0.715188	-0.051758	-0.685575	-0.685825	-0.244195
09244	10.630973	-1.617777	-3.136553	-1.162379	1.001656	-0.480476	-0.199863	-0.131360	0.970979	-0.689975	0.722477	-0.044281	-0.695693	-0.678802	-0.235031
09245	10.551892	-3.223331	-4.003080	-0.758089	0.715413	-0.564318	-0.190787	-0.130808	0.972877	-0.685669	0.726987	-0.036717	-0.702466	-0.674077	-0.228391
09246	9.788214	-3.638664	-4.521509	-0.001246	0.539796	-0.650600	-0.182498	-0.131913	0.974317	-0.686879	0.726138	-0.030347	-0.703485	-0.674776	-0.223127
09247	7.922605	-2.547986	-3.858334	0.655403	0.385661	-0.753833	-0.174470	-0.134911	0.975376	-0.692698	0.720821	-0.024205	-0.699806	-0.679865	-0.219214
09248	7.181932	-0.591446	-4.624331	0.933011	0.245044	-0.838866	-0.166889	-0.139269	0.976090	-0.700635	0.713292	-0.018020	-0.693728	-0.686891	-0.216618
09249	7.815004	1.332855	-2.949569	1.246052	0.261289	-0.977557	-0.157979	-0.144754	0.976775	-0.710684	0.703430	-0.010698	-0.685544	-0.695868	-0.214001
09250	9.268268	2.447573	-3.072023	0.836174	0.148460	-0.835174	-0.150971	-0.149579	0.977156	-0.717686	0.696354	-0.004288	-0.679805	-0.701938	-0.212480
09251	9.236198	3.619245	-3.890641	0.552146	0.065982	-0.539433	-0.146485	-0.153032	0.977304	-0.722098	0.691790	0.000092	-0.676103	-0.705696	-0.211841
09252	11.267560	3.836979	-1.696728	0.149882	0.156509	-0.200856	-0.143945	-0.153332	0.977634	-0.723405	0.690421	0.001772	-0.675251	-0.706971	-0.210304
09253	15.957513	0.733139	2.518013	-1.091856	0.425547	0.389485	-0.143749	-0.147686	0.978532	-0.715310	0.698807	0.000387	-0.683862	-0.699898	-0.206094
09254	17.983208	-1.821621	4.637923	-1.521875	0.510273	1.002364	-0.147310	-0.137093	0.979544	-0.703358	0.710808	-0.006294	-0.695405	-0.689897	-0.201134
09255	17.772932	-0.869139	5.045051	-2.558104	0.168682	1.314488	-0.155074	-0.126757	0.979737	-0.683245	0.730061	-0.013691	-0.713532	-0.671523	-0.199820
09256	12.868382	-2.974377	1.630054	-3.815718	-0.306526	1.107656	-0.164676	-0.120557	0.978952	-0.653768	0.756508	-0.016812	-0.738558	-0.642777	-0.203395
09257	10.131171	-6.893658	-0.644816	-4.467046	-0.575459	0.756399	-0.173636	-0.118506	0.977654	-0.618829	0.785388	-0.014707	-0.766095	-0.607554	-0.209706
09258	8.665037	-9.657112	-2.365768	-4.332160	-0.613830	0.497425	-0.181381	-0.118177	0.976286	-0.584213	0.811535	-0.010305	-0.791073	-0.572228	-0.216237
09259	8.350555	-10.105697	-4.397881	-3.292843	-0.533286	0.240017	-0.186960	-0.119279	0.975099	-0.557439	0.830201	-0.005326	-0.808893	-0.544554	-0.221705
09260	8.197543	-8.984251	-7.529054	-2.150568	-0.437670	0.016105	-0.190587	-0.121511	0.974121	-0.539897	0.841731	-0.000633	-0.819871	-0.526045	-0.226026
09261	7.973506	-7.119261	-9.392041	-0.826130	-0.304935	-0.145688	-0.192416	-0.124330	0.973405	-0.533451	0.845827	0.002586	-0.823654	-0.518767	-0.229074
09262	8.111066	-6.193459	-8.236815	0.491192	-0.142540	-0.217437	-0.192397	-0.126933	0.973073	-0.537911	0.842994	0.003608	-0.820753	-0.522732	-0.230468
09263	7.940736	-3.143515	-8.002784	1.889674	-0.038184	-0.249111	-0.191429	-0.129221	0.972963	-0.553872	0.832600	0.001605	-0.810296	-0.538590	-0.230956
09264	8.897297	2.182230	-6.022304	2.685326	0.036602	-0.294608	-0.189445	-0.131474	0.973049	-0.575994	0.817452	-0.001691	-0.795199	-0.560791	-0.230590
09265	11.367877	7.060168	-3.767667	2.358962	0.065532	-0.233775	-0.187531	-0.133159	0.973191	-0.595105	0.803634	-0.004716	-0.781461	-0.580036	-0.229950
09266	11.997850	8.841840	-2.308837	1.057455	0.085963	-0.111973	-0.186163	-0.133576	0.973397	-0.603549	0.797303	-0.006018	-0.775288	-0.588613	-0.229048
09267	10.742915	6.373579	-1.882996	-0.461057	0.034139	0.031268	-0.186199	-0.133191	0.973442	-0.599929	0.800036	-0.005289	-0.778084	-0.584981	-0.228871
09268	9.713584	2.237156	-2.459668	-1.288377	-0.004299	0.098063	-0.186789	-0.132451	0.973430	-0.589675	0.807634	-0.003260	-0.785744	-0.574617	-0.228960
09269	8.978647	-0.643054	-2.939946	-1.434804	0.034563	0.077887	-0.187019	-0.131762	0.973480	-0.578234	0.815871	-0.000657	-0.794147	-0.563022	-0.228773
09270	8.537098	-2.095836	-3.122334	-1.340893	0.117944	0.021841	-0.186176	-0.130949	0.973751	-0.567495	0.823374	0.002224	-0.802052	-0.552184	-0.227606
09271	8.701371	-2.998216	-3.259165	-1.220845	0.192839	-0.049114	-0.184298	-0.130320	0.974192	-0.557685	0.830034	0.005532	-0.809334	-0.542273	-0.225651
09272	9.056711	-3.245621	-2.890211	-1.044325	0.228452	-0.063100	-0.182067	-0.129640	0.974702	-0.549319	0.835569	0.008526	-0.815537	-0.533870	-0.223344
09273	9.507073	-2.457755	-2.907615	-0.918805	0.222633	-0.045866	-0.179971	-0.128875	0.975193	-0.541865	0.840393	0.011060	-0.820971	-0.526433	-0.221079
09274	9.739226	-2.020761	-2.634242	-0.850760	0.213421	-0.095347	-0.177674	-0.128587	0.975652	-0.535032	0.844717	0.013896	-0.825937	-0.519536	-0.218883
09275	9.698122	-1.862193	-2.004848	-0.608175	0.183877	-0.144866	-0.175413	-0.128983	0.976009	-0.530311	0.847639	0.016708	-0.829458	-0.514658	-0.217087
09276	9.511679	-1.369187	-1.452178	-0.172271	0.125101	-0.195208	-0.173315	-0.130020	0.976246	-0.529224	0.848269	0.019021	-0.830593	-0.513356	-0.215828
09277	9.585652	-0.701721	-1.034640	0.266930	0.081518	-0.243771	-0.171298	-0.131759	0.976369	-0.531897	0.846551	0.020922	-0.829303	-0.515743	-0.215095
09278	9.683327	0.267602	-0.585066	0.634964	0.046481	-0.260449	-0.169496	-0.133743	0.976414	-0.537598	0.842911	0.022135	-0.825990	-0.521166	-0.214770
09279	9.793228	2.005322	-0.395685	0.681149	0.021133	-0.260386	-0.167977	-0.135866	0.976383	-0.543707	0.838954	0.023203	-0.822293	-0.526969	-0.214796
09280	9.637478	2.535083	-0.398571	0.340885	-0.002339	-0.239785	-0.166663	-0.137912	0.976322	-0.546911	0.836822	0.024847	-0.820434	-0.529820	-0.214893
09281	9.683476	2.108440	-1.186852	-0.043377	-0.016256	-0.196943	-0.165722	-0.139782	0.976216	-0.547011	0.836692	0.026943	-0.820558	-0.529535	-0.215120
09282	9.485331	1.280312	-1.865051	-0.350666	-0.029780	-0.167297	-0.165028	-0.141365	0.976105	-0.544409	0.838306	0.029366	-0.822426	-0.526554	-0.215305
09283	9.394251	0.337879	-2.014325	-0.524732	-0.043304	-0.150101	-0.164562	-0.142896	0.975961	-0.540331	0.840844	0.032004	-0.825204	-0.522075	-0.215582
09284	9.419483	-0.226639	-2.162991	-0.527692	-0.054843	-0.145895	-0.164205	-0.144435	0.975795	-0.536211	0.843374	0.034602	-0.827958	-0.517550	-0.215934
09285	9.551983	-0.136256	-1.967716	-0.429273	-0.049285	-0.155737	-0.163681	-0.146080	0.975638	-0.532936	0.845339	0.037160	-0.830174	-0.513870	-0.216217
09286	9.572597	0.434635	-1.371705	-0.339579	-0.052285	-0.156820	-0.163257	-0.147700	0.975465	-0.530372	0.846846	0.039460	-0.831897	-0.510917	-0.216589
09287	9.489646	1.010410	-1.514012	-0.367373	-0.100085	-0.166103	-0.163223	-0.149704	0.975165	-0.527644	0.848430	0.041931	-0.833637	-0.507696	-0.217473
09288	9.913679	0.669480	-1.779035	-0.402776	-0.115333	-0.193204	-0.163144	-0.151953	0.974830	-0.524599	0.850174	0.044727	-0.835571	-0.504098	-0.218415
09289	10.053028	0.831801	-1.961660	-0.263800	-0.109873	-0.164378	-0.163180	-0.153964	0.974509	-0.522716	0.851213	0.046956	-0.836744	-0.501729	-0.219380
09290	9.812416	1.489213	-2.461027	-0.213279	-0.121051	-0.143632	-0.163419	-0.155819	0.974174	-0.521167	0.852055	0.048859	-0.837663	-0.499723	-0.220450
09291	10.159909	0.978472	-3.058107	-0.232187	-0.123740	-0.108434	-0.163912	-0.157392	0.973838	-0.519401	0.853040	0.050445	-0.838663	-0.497544	-0.221573
09292	9.754050	1.156412	-2.985760	-0.150692	-0.121409	-0.075701	-0.164514	-0.158667	0.973530	-0.518264	0.853666	0.051551	-0.839249	-0.496064	-0.222671
09293	9.423361	0.906166	-2.999171	-0.142313	-0.126738	-0.059271	-0.165342	-0.159847	0.973196	-0.517174	0.854272	0.052448	-0.839758	-0.494640	-0.223916
09294	9.562566	0.723804	-2.590853	-0.022415	-0.119059	-0.056147	-0.166027	-0.160941	0.972899	-0.517081	0.854289	0.053080	-0.839680	-0.494255	-0.225055
09295	9.457834	0.896714	-1.736443	0.051229	-0.105812	-0.043279	-0.166660	-0.161954	0.972623	-0.517718	0.853879	0.053470	-0.839162	-0.494633	-0.226154
09296	9.465186	0.898152	-1.119587	0.035851	-0.123390	-0.017664	-0.167579	-0.162741	0.972334	-0.518051	0.853669	0.053595	-0.838773	-0.494737	-0.227365
09297	9.514453	1.155137	-0.870368	-0.023545	-0.151671	0.002357	-0.168865	-0.163538	0.971977	-0.517905	0.853753	0.053669	-0.838605	-0.494329	-0.228866
09298	9.413713	1.143632	-1.039660	-0.130423	-0.171765	-0.005802	-0.170251	-0.164462	0.971580	-0.516823	0.854384	0.054060	-0.838992	-0.492931	-0.230458
09299	9.283778	0.980882	-1.356569	-0.220237	-0.193731	-0.008168	-0.171811	-0.165537	0.971122	-0.515022	0.855430	0.054698	-0.839782	-0.490752	-0.232227
09300	9.536786	0.676537	-1.524055	-0.192872	-0.230928	-0.033722	-0.173553	-0.166982	0.970565	-0.513463	0.856315	0.055510	-0.840378	-0.488715	-0.234355
09301	10.032372	0.395228	-1.772649	-0.033830	-0.260144	-0.036237	-0.175593	-0.168604	0.969917	-0.513268	0.856403	0.055950	-0.840073	-0.488003	-0.236917
09302	9.815195	0.963876	-1.652592	0.188698	-0.248342	-0.022602	-0.177537	-0.170037	0.969313	-0.514895	0.855438	0.055754	-0.838668	-0.489196	-0.239423
09303	9.492402	1.387453	-1.344587	0.204137	-0.261414	-0.005309	-0.179764	-0.171418	0.968659	-0.516665	0.854399	0.055316	-0.837104	-0.490528	-0.242155
09304	9.483117	1.054081	-1.408706	0.166940	-0.284372	0.021177	-0.182227	-0.172659	0.967978	-0.518026	0.853612	0.054738	-0.835729	-0.491463	-0.244993
09305	9.238970	0.892139	-1.198753	0.157638	-0.295796	0.044251	-0.184977	-0.173806	0.967251	-0.519338	0.852865	0.053934	-0.834309	-0.492354	-0.248024
09306	9.200405	0.886233	-0.935917	0.115200	-0.328494	0.061541	-0.188011	-0.174925	0.966464	-0.520187	0.852401	0.053086	-0.833101	-0.492762	-0.251255
09307	9.285536	0.579811	-0.917085	0.073604	-0.372412	0.068856	-0.191467	-0.176251	0.965544	-0.520780	0.852089	0.052270	-0.831943	-0.492828	-0.254935
09308	9.328112	0.668365	-0.753297	0.085596	-0.397436	0.070565	-0.195115	-0.177634	0.964560	-0.521359	0.851788	0.051404	-0.830732	-0.492853	-0.258808
09309	9.257190	0.796683	-0.674862	0.050297	-0.440243	0.074989	-0.199218	-0.179200	0.963431	-0.521659	0.851656	0.050541	-0.829569	-0.492514	-0.263147
09310	9.365620	0.221526	-0.904930	0.043238	-0.492758	0.065329	-0.203620	-0.181095	0.962156	-0.521890	0.851556	0.049831	-0.828354	-0.491993	-0.267905
09311	9.657212	0.127474	-0.947718	0.163207	-0.532702	0.061575	-0.208338	-0.183237	0.960739	-0.523194	0.850815	0.048816	-0.826356	-0.492482	-0.273126
09312	9.681448	0.438665	-0.974437	0.237212	-0.562749	0.072205	-0.213336	-0.185423	0.959221	-0.525003	0.849774	0.047503	-0.823929	-0.493460	-0.278635
09313	9.511139	0.488018	-1.405505	0.271803	-0.592344	0.057697	-0.218550	-0.187915	0.957561	-0.527235	0.848464	0.046171	-0.821132	-0.494770	-0.284507
09314	9.375904	0.834601	-1.837463	0.310270	-0.593393	0.042260	-0.223613	-0.190522	0.955876	-0.529690	0.847001	0.044909	-0.818184	-0.496276	-0.290319
09315	9.339756	1.147219	-2.060209	0.287347	-0.575448	0.038889	-0.228616	-0.193100	0.954174	-0.532032	0.845598	0.043654	-0.815277	-0.497671	-0.296053
09316	9.169136	1.473209	-2.274451	0.203043	-0.581779	0.057399	-0.233634	-0.195537	0.952460	-0.533558	0.844693	0.042534	-0.812854	-0.498255	-0.301679
09317	8.975149	1.325165	-2.586770	0.018422	-0.617800	0.098355	-0.239158	-0.197852	0.950609	-0.533622	0.844701	0.041558	-0.811203	-0.497327	-0.307595
09318	8.944332	0.008033	-3.229208	-0.091729	-0.662303	0.116336	-0.245123	-0.200181	0.948600	-0.532603	0.845383	0.040772	-0.810092	-0.495233	-0.313840
09319	9.445671	-1.345378	-3.300817	0.122596	-0.701152	0.090782	-0.251253	-0.202989	0.946397	-0.533577	0.844827	0.039548	-0.807569	-0.495039	-0.320576
09320	9.785769	-0.905680	-2.830538	0.482584	-0.714003	0.098481	-0.257507	-0.205728	0.944122	-0.537219	0.842627	0.037086	-0.803172	-0.497651	-0.327503
09321	9.465801	0.371911	-2.001885	0.638725	-0.720752	0.098733	-0.263902	-0.208482	0.941749	-0.542058	0.839653	0.033982	-0.797827	-0.501515	-0.334596
09322	9.441111	1.201650	-1.756515	0.537944	-0.761881	0.109247	-0.270532	-0.211423	0.939209	-0.546052	0.837171	0.031168	-0.792868	-0.504425	-0.341929
09323	9.579508	0.818152	-2.246693	0.402547	-0.796010	0.109542	-0.277500	-0.214572	0.936458	-0.549030	0.835310	0.028702	-0.788391	-0.506179	-0.349605
09324	9.506798	0.372534	-2.559871	0.381887	-0.817574	0.105466	-0.284484	-0.217861	0.933598	-0.551744	0.833596	0.026399	-0.783995	-0.507597	-0.357348
09325	9.421326	-0.429108	-2.914613	0.449654	-0.845502	0.105319	-0.291701	-0.221340	0.930548	-0.555094	0.831448	0.023761	-0.778962	-0.509610	-0.365399
09326	9.426338	-1.526946	-3.116492	0.559123	-0.873689	0.109859	-0.299069	-0.224917	0.927346	-0.559117	0.828830	0.020707	-0.773269	-0.512302	-0.373633
09327	9.695536	-1.545736	-2.734252	0.853918	-0.899047	0.098196	-0.306533	-0.228796	0.923953	-0.565549	0.824548	0.016553	-0.765632	-0.517467	-0.382147
09328	10.027395	-0.938706	-2.294307	1.020741	-0.940871	0.119514	-0.314351	-0.232736	0.920335	-0.572958	0.819503	0.011537	-0.756903	-0.523687	-0.390960
09329	10.081910	-0.014715	-2.463207	1.111098	-0.962433	0.132118	-0.322400	-0.236736	0.916523	-0.580970	0.813904	0.005865	-0.747350	-0.530582	-0.399939
09330	9.972892	1.151026	-3.054639	1.039699	-0.974927	0.145899	-0.330468	-0.240779	0.912588	-0.588226	0.808696	0.000358	-0.738093	-0.536689	-0.408881
09331	9.604951	1.474872	-3.726983	0.821923	-0.985987	0.141546	-0.338486	-0.245046	0.908504	-0.594020	0.804438	-0.004340	-0.729772	-0.541139	-0.417853
09332	9.338195	1.147373	-4.123136	0.663795	-0.988984	0.135394	-0.346449	-0.249348	0.904322	-0.598387	0.801164	-0.008339	-0.722431	-0.544024	-0.426769
09333	9.165267	0.651604	-3.873392	0.570253	-0.998842	0.141324	-0.354470	-0.253769	0.899973	-0.602217	0.798240	-0.012111	-0.715322	-0.546273	-0.435776
09334	9.304432	-0.020792	-2.846447	0.552358	-1.032144	0.153386	-0.362718	-0.258217	0.895410	-0.605611	0.795602	-0.015889	-0.708288	-0.548033	-0.444958
09335	9.673536	-0.563553	-0.804593	0.592058	-1.118753	0.151661	-0.371586	-0.263155	0.890322	-0.609299	0.792689	-0.020000	-0.700485	-0.549904	-0.454892
09336	10.174938	-0.706333	0.956107	0.714573	-1.257725	0.154023	-0.381255	-0.268891	0.884501	-0.613704	0.789152	-0.024626	-0.691384	-0.552211	-0.465887
09337	9.892270	-0.389411	2.241910	0.848535	-1.404297	0.114747	-0.391601	-0.275774	0.877837	-0.619190	0.784679	-0.029711	-0.680626	-0.555183	-0.478038
09338	10.065483	-0.687553	2.093741	0.825066	-1.572673	0.026360	-0.402354	-0.284338	0.870208	-0.624668	0.780154	-0.033911	-0.669254	-0.557235	-0.491515
09339	10.697354	-0.708232	0.623152	0.814845	-1.697216	-0.093193	-0.413000	-0.294621	0.861760	-0.630696	0.775135	-0.037257	-0.657003	-0.558896	-0.505947
09340	11.164558	-0.613567	-0.776379	0.663606	-1.791108	-0.181291	-0.423489	-0.306053	0.852636	-0.635790	0.770872	-0.039082	-0.645312	-0.558649	-0.521041
09341	12.065391	-1.340399	-1.642421	0.433951	-1.896847	-0.237959	-0.434136	-0.318424	0.842693	-0.639710	0.767600	-0.039515	-0.634268	-0.556235	-0.536942
09342	13.551166	-2.710213	-2.163886	0.296492	-1.999174	-0.234338	-0.445181	-0.331320	0.831890	-0.642621	0.765184	-0.039142	-0.623580	-0.552015	-0.553559
09343	14.137010	-3.979301	-1.782997	0.347548	-2.083367	-0.157799	-0.456928	-0.344067	0.820265	-0.645743	0.762513	-0.039868	-0.611746	-0.547897	-0.570593
09344	14.080535	-4.452372	-0.527073	0.600691	-2.191319	-0.112201	-0.469427	-0.356915	0.807620	-0.649911	0.758826	-0.042408	-0.597707	-0.544789	-0.588177
09345	14.158494	-4.070654	0.700567	0.860739	-2.275262	-0.116874	-0.482013	-0.370249	0.794090	-0.655840	0.753448	-0.046796	-0.580980	-0.543353	-0.605996
09346	14.132687	-3.857104	1.453064	1.014617	-2.342434	-0.160451	-0.494327	-0.384188	0.779770	-0.662444	0.747322	-0.051748	-0.562858	-0.542134	-0.623924
09347	14.086309	-3.685347	1.401867	1.228853	-2.439465	-0.201486	-0.506320	-0.398971	0.764501	-0.670548	0.739585	-0.058128	-0.542222	-0.542066	-0.641996
09348	14.003940	-1.406878	1.413820	1.456250	-2.514548	-0.166299	-0.518521	-0.413852	0.748239	-0.679150	0.730997	-0.066328	-0.519510	-0.542559	-0.660105
09349	13.227787	0.131589	0.601466	1.343691	-2.554416	-0.117597	-0.530459	-0.428619	0.731368	-0.686929	0.722887	-0.074579	-0.496731	-0.541959	-0.677893
09350	12.048134	1.327677	-1.051335	1.166089	-2.639526	-0.035158	-0.543009	-0.443157	0.713270	-0.692801	0.716416	-0.082314	-0.474520	-0.538851	-0.696039
09351	10.674331	2.401180	-3.496393	0.968584	-2.679447	0.065003	-0.555603	-0.457147	0.694494	-0.697289	0.711152	-0.089727	-0.452873	-0.534116	-0.713881
09352	9.465255	3.378982	-6.218985	0.690994	-2.639116	0.108557	-0.568027	-0.470396	0.675331	-0.699761	0.707973	-0.095443	-0.433220	-0.526785	-0.731313
09353	9.196149	4.083896	-7.909585	0.398786	-2.568356	0.067871	-0.579102	-0.483429	0.656458	-0.701415	0.705850	-0.098958	-0.415522	-0.517756	-0.747844
09354	9.867036	5.235671	-8.806687	0.245725	-2.466685	0.053610	-0.589503	-0.495715	0.637772	-0.702124	0.704835	-0.101144	-0.399386	-0.507420	-0.763555
09355	10.255889	5.601776	-9.985108	0.018167	-2.200332	0.049700	-0.598195	-0.506526	0.620962	-0.702234	0.704645	-0.101701	-0.386044	-0.496898	-0.777215
09356	9.853976	5.472772	-10.644013	-0.170695	-1.864044	0.084090	-0.605862	-0.515114	0.606291	-0.701099	0.705894	-0.100864	-0.376021	-0.486179	-0.788821
09357	8.536260	5.042803	-11.295646	-0.298571	-1.470331	0.166539	-0.612218	-0.521135	0.594649	-0.699283	0.707876	-0.099579	-0.369043	-0.476791	-0.797795
09358	6.652298	4.510629	-11.763315	-0.464756	-1.119800	0.268591	-0.618178	-0.524536	0.585421	-0.695946	0.711455	-0.097424	-0.365398	-0.467647	-0.804855
09359	5.046549	3.357270	-12.021888	-0.735163	-0.788810	0.335732	-0.623122	-0.525909	0.578911	-0.691458	0.716340	-0.093508	-0.365520	-0.458560	-0.810011
09360	4.378263	1.289334	-12.449747	-0.683092	-0.409015	0.312367	-0.626749	-0.525545	0.575316	-0.687024	0.721070	-0.089753	-0.367674	-0.451509	-0.812992
09361	5.528211	0.516712	-12.658852	0.007200	0.012115	0.275210	-0.628350	-0.523614	0.575330	-0.685577	0.722234	-0.091445	-0.367641	-0.451893	-0.812793
09362	5.736122	1.298494	-12.670792	0.337448	0.607370	0.259498	-0.627866	-0.518998	0.580023	-0.685213	0.722032	-0.095666	-0.369145	-0.457505	-0.808963
09363	3.213830	0.434690	-11.324567	0.602066	0.933743	0.236014	-0.625807	-0.513078	0.587466	-0.686192	0.720244	-0.101933	-0.370820	-0.466905	-0.802803
09364	3.270691	0.669076	-8.318184	0.595731	0.990495	0.258722	-0.623874	-0.506565	0.595125	-0.686813	0.718733	-0.108212	-0.372920	-0.476250	-0.796314
09365	4.760258	0.826703	-7.627491	0.143166	1.434244	0.207509	-0.619690	-0.498268	0.606394	-0.686270	0.718886	-0.110616	-0.380812	-0.484698	-0.787433
09366	4.868773	0.453973	-8.209598	-0.302084	2.022158	0.122763	-0.612657	-0.487523	0.622071	-0.684364	0.720948	-0.108995	-0.395344	-0.492500	-0.775337
09367	4.041283	0.243354	-8.895457	-0.677382	2.447630	0.009035	-0.602612	-0.475390	0.640987	-0.681761	0.724165	-0.103865	-0.414803	-0.499590	-0.760492
09368	3.353467	-0.415821	-9.299244	-1.045857	2.638416	-0.114484	-0.590560	-0.462995	0.660964	-0.678008	0.728859	-0.095234	-0.437657	-0.504381	-0.744350
09369	3.516797	-1.220495	-9.406253	-1.294329	2.738965	-0.231985	-0.576490	-0.450892	0.681437	-0.673712	0.734186	-0.084160	-0.462354	-0.507610	-0.727022
09370	3.847686	-1.708467	-9.524683	-1.329287	2.960110	-0.317924	-0.560260	-0.438177	0.702930	-0.669224	0.739525	-0.072406	-0.488107	-0.510984	-0.707564
09371	3.689473	-1.879086	-9.633283	-1.255089	3.162195	-0.359897	-0.541852	-0.424661	0.725299	-0.665078	0.744271	-0.061093	-0.513876	-0.515484	-0.685718
09372	3.666087	-1.861747	-9.436442	-1.123551	3.257242	-0.375224	-0.522193	-0.410604	0.747475	-0.661182	0.748508	-0.050736	-0.538658	-0.520711	-0.662350
09373	3.547509	-1.961423	-9.131827	-0.951220	3.386407	-0.410050	-0.500697	-0.395965	0.769749	-0.658185	0.751715	-0.041440	-0.562223	-0.527387	-0.637000
09374	3.356744	-2.150727	-9.028139	-0.697262	3.506940	-0.441673	-0.477667	-0.380665	0.791788	-0.656370	0.753690	-0.033623	-0.583963	-0.535767	-0.609869
09375	3.046518	-2.035117	-9.035219	-0.361858	3.566788	-0.465785	-0.453305	-0.364897	0.813243	-0.656514	0.753805	-0.027717	-0.602913	-0.546470	-0.581263
09376	3.010495	-1.332590	-8.692122	-0.085609	3.550887	-0.477362	-0.428441	-0.348891	0.833495	-0.658115	0.752558	-0.023278	-0.619131	-0.558508	-0.552037
09377	3.267301	-0.732138	-8.249298	0.017814	3.512002	-0.487956	-0.403104	-0.332739	0.852521	-0.660359	0.750703	-0.019243	-0.633587	-0.570727	-0.522339
09378	3.465357	-0.435811	-8.044221	0.068537	3.511387	-0.500270	-0.377284	-0.316257	0.870424	-0.662768	0.748669	-0.015257	-0.646835	-0.582646	-0.492066
09379	3.767400	-0.207693	-7.682557	0.077966	3.510712	-0.520868	-0.350794	-0.299504	0.887266	-0.665252	0.746538	-0.011018	-0.659078	-0.594120	-0.461126
09380	4.479117	-0.289530	-7.263019	0.054171	3.570936	-0.554480	-0.323324	-0.282246	0.903216	-0.667497	0.744586	-0.006269	-0.670752	-0.604921	-0.429141
09381	4.649161	-0.215817	-6.594860	0.005853	3.657152	-0.558492	-0.294759	-0.264103	0.918350	-0.669317	0.742976	-0.001160	-0.682006	-0.615009	-0.395767
09382	4.466028	-0.246655	-6.743282	-0.173997	3.735258	-0.546085	-0.265379	-0.245050	0.932483	-0.669665	0.742649	0.004580	-0.693630	-0.623236	-0.361185
09383	4.140763	-0.510220	-6.809023	-0.359759	3.718727	-0.541444	-0.235659	-0.225796	0.945241	-0.668537	0.743598	0.010954	-0.705353	-0.629348	-0.326188
09384	4.416171	-0.977904	-6.316275	-0.458920	3.633825	-0.559196	-0.206061	-0.207024	0.956389	-0.666523	0.745274	0.017718	-0.716440	-0.633804	-0.291558
09385	5.325612	-0.886057	-6.670546	-0.354868	3.647935	-0.594138	-0.175725	-0.188272	0.966268	-0.665111	0.746344	0.024465	-0.725774	-0.638376	-0.256373
09386	6.189580	-0.484331	-6.143242	-0.277611	3.671519	-0.581672	-0.145038	-0.169111	0.974867	-0.664029	0.747072	0.030803	-0.733505	-0.642872	-0.220648
09387	6.914486	0.149535	-6.017234	-0.192619	3.656509	-0.535766	-0.114485	-0.149560	0.982102	-0.663299	0.747464	0.036506	-0.739546	-0.647248	-0.184776
09388	8.307948	1.100169	-4.835981	-0.086112	3.592456	-0.495185	-0.084526	-0.129946	0.987912	-0.663162	0.747321	0.041559	-0.743688	-0.651633	-0.149343
09389	9.869216	1.063451	-3.352903	-0.326442	3.449676	-0.481760	-0.055542	-0.111089	0.992257	-0.661037	0.748890	0.046841	-0.748295	-0.653317	-0.115029
09390	11.038128	0.703499	-3.390803	-0.357343	3.226756	-0.411409	-0.028591	-0.093099	0.995246	-0.658537	0.750797	0.051315	-0.752005	-0.653939	-0.082775
09391	10.320128	-0.958847	-3.166711	-0.513132	3.000899	-0.260349	-0.004198	-0.075514	0.997136	-0.654670	0.753959	0.054342	-0.755903	-0.652567	-0.052602
09392	8.053762	-1.929171	-3.322450	-0.384206	2.620683	-0.127056	0.016502	-0.059404	0.998098	-0.651759	0.756371	0.055793	-0.758247	-0.651440	-0.026235
09393	5.676358	-2.381259	-2.453722	-0.285138	2.189834	-0.136484	0.034063	-0.046249	0.998349	-0.649515	0.758188	0.057284	-0.759585	-0.650394	-0.004213
09394	4.455686	-1.714845	-1.548734	0.026112	1.610843	-0.190845	0.047560	-0.037230	0.998174	-0.649640	0.757932	0.059223	-0.758753	-0.651271	0.011862
09395	5.586566	1.140153	-1.858742	0.345742	1.159168	-0.149591	0.057363	-0.030860	0.997876	-0.652136	0.755655	0.060858	-0.755928	-0.654242	0.023222
09396	5.770095	2.562059	-1.167125	0.179091	0.768887	-0.063673	0.063614	-0.026323	0.997627	-0.653454	0.754458	0.061574	-0.754289	-0.655821	0.030793
09397	7.110257	2.251073	-0.811952	-0.237003	0.334419	-0.028242	0.066372	-0.024424	0.997496	-0.651588	0.756046	0.061868	-0.755663	-0.654063	0.034266
09398	7.527096	0.295779	-2.609028	-0.802705	-0.157765	0.136948	0.064317	-0.024430	0.997630	-0.645595	0.761299	0.060264	-0.760967	-0.647941	0.033192
09399	6.748769	-1.221551	-3.265622	-1.006647	-0.572091	0.175999	0.058862	-0.026858	0.997905	-0.637938	0.767878	0.058296	-0.767835	-0.640032	0.028065
09400	10.856400	-1.919774	-3.548447	-0.903835	-0.541676	0.107357	0.054033	-0.029497	0.998103	-0.631035	0.773656	0.057025	-0.773870	-0.632919	0.023189
09401	15.529255	-0.734356	0.896617	-0.712374	-0.064820	0.077523	0.053084	-0.029397	0.998157	-0.625470	0.778222	0.056183	-0.778440	-0.627300	0.022925
09402	16.872112	0.200436	5.410673	-0.838434	0.309567	0.181614	0.054400	-0.026066	0.998179	-0.619024	0.783500	0.054196	-0.783486	-0.620845	0.026487
09403	15.491558	1.017493	8.751900	-1.347977	0.213968	0.273364	0.054451	-0.022673	0.998259	-0.608497	0.791904	0.051178	-0.791686	-0.610224	0.029324
09404	13.821035	-1.825964	7.558017	-2.245628	-0.116243	0.259359	0.051995	-0.021321	0.998420	-0.590708	0.805459	0.047963	-0.805208	-0.592268	0.029285
09405	13.323550	-3.800042	5.040239	-2.655212	-0.374571	0.196553	0.047861	-0.021945	0.998613	-0.569198	0.820951	0.045321	-0.820807	-0.570577	0.026800
09406	12.002695	-7.146054	1.349887	-3.058181	-0.607423	0.092535	0.042334	-0.024588	0.998801	-0.543876	0.838028	0.043682	-0.838097	-0.545073	0.022104
09407	11.214956	-10.678853	-1.604958	-2.619749	-0.877793	-0.058695	0.035277	-0.029780	0.998934	-0.521734	0.851982	0.043824	-0.852378	-0.522724	0.014518
09408	10.747693	-10.016787	-3.136203	-1.054906	-1.057136	-0.126352	0.026914	-0.036360	0.998976	-0.512678	0.857400	0.045019	-0.858159	-0.513365	0.004435
09409	9.605563	-5.206029	-3.454460	0.730532	-1.066869	-0.200007	0.018853	-0.043549	0.998873	-0.518967	0.853501	0.047006	-0.854586	-0.519268	-0.006510
09410	8.915068	1.253845	-2.885278	1.944061	-0.979049	-0.254796	0.011904	-0.050896	0.998633	-0.535450	0.843124	0.049353	-0.844483	-0.535305	-0.017216
09411	8.735170	6.711915	-1.930841	2.214723	-0.882405	-0.247092	0.005892	-0.057737	0.998314	-0.554076	0.830883	0.051324	-0.832445	-0.553444	-0.027095
09412	9.487346	9.564821	-1.293520	1.506256	-0.837567	-0.212459	0.000171	-0.064201	0.997937	-0.566551	0.822320	0.053000	-0.824026	-0.565392	-0.036232
09413	10.629424	9.144028	-1.550827	0.118311	-0.825960	-0.203593	-0.005436	-0.070552	0.997493	-0.567560	0.821492	0.055011	-0.823314	-0.565838	-0.044508
09414	10.922238	4.369998	-2.260524	-1.094967	-0.832275	-0.183893	-0.011251	-0.076759	0.996986	-0.558533	0.827493	0.057406	-0.829406	-0.556204	-0.052183
09415	10.453260	-0.465940	-2.921822	-1.302828	-0.860820	-0.122450	-0.017704	-0.082551	0.996430	-0.547689	0.834570	0.059411	-0.836495	-0.544682	-0.059988
09416	9.629327	-2.954913	-3.393296	-0.939896	-0.842016	-0.150423	-0.023924	-0.088383	0.995799	-0.539842	0.839514	0.061542	-0.841426	-0.536102	-0.067798
09417	9.409053	-3.510010	-4.205765	-0.284490	-0.801063	-0.238192	-0.029351	-0.094700	0.995073	-0.537502	0.840818	0.064165	-0.842752	-0.532970	-0.075581
09418	9.686301	-2.741976	-4.928589	0.398643	-0.735052	-0.283293	-0.033984	-0.101029	0.994303	-0.540954	0.838403	0.066699	-0.840366	-0.535605	-0.083144
09419	9.706377	-1.485631	-5.340724	0.814149	-0.665095	-0.277429	-0.038017	-0.106960	0.993536	-0.547875	0.833727	0.068791	-0.835696	-0.541718	-0.090297
09420	9.557227	-0.171339	-4.911068	0.944910	-0.586006	-0.241385	-0.041540	-0.112184	0.992819	-0.555849	0.828302	0.070337	-0.830245	-0.548936	-0.096765
09421	9.671769	1.739750	-3.750829	0.909235	-0.510332	-0.158664	-0.044853	-0.116348	0.992195	-0.563432	0.823102	0.071049	-0.824944	-0.555847	-0.102472
09422	9.938581	2.742748	-2.553931	0.674738	-0.451543	-0.072068	-0.048134	-0.119482	0.991669	-0.569025	0.819242	0.071088	-0.820910	-0.560863	-0.107422
09423	9.748721	3.070056	-1.800180	0.408441	-0.429913	-0.036619	-0.051429	-0.122245	0.991167	-0.572364	0.816916	0.071055	-0.818386	-0.563653	-0.111982
09424	9.848112	2.376605	-1.872531	0.204827	-0.388920	-0.057460	-0.054253	-0.124930	0.990681	-0.574077	0.815681	0.071423	-0.817002	-0.564852	-0.115973
09425	9.725259	1.511542	-1.426286	0.187123	-0.341946	-0.087182	-0.056526	-0.127628	0.990210	-0.575612	0.814536	0.072127	-0.815767	-0.565900	-0.119507
09426	9.417177	1.395275	-1.486896	0.217087	-0.316976	-0.086341	-0.058585	-0.130148	0.989762	-0.577439	0.813186	0.072750	-0.814329	-0.567265	-0.122793
09427	9.337008	1.156306	-1.674929	0.212002	-0.300909	-0.090421	-0.060493	-0.132649	0.989315	-0.579172	0.811890	0.073445	-0.812958	-0.568541	-0.125940
09428	9.764863	1.004388	-1.775126	0.269761	-0.291455	-0.089845	-0.062312	-0.135058	0.988876	-0.581426	0.810225	0.074022	-0.811210	-0.570346	-0.129013
09429	10.018399	1.055824	-1.604803	0.352576	-0.278881	-0.062080	-0.064193	-0.137214	0.988459	-0.584273	0.808155	0.074241	-0.809015	-0.572764	-0.132049
09430	9.697046	1.502554	-0.945778	0.351488	-0.272114	-0.029479	-0.066192	-0.139035	0.988073	-0.587139	0.806088	0.074094	-0.806775	-0.575232	-0.134990
09431	9.779906	1.323158	-0.661695	0.239458	-0.293153	-0.001633	-0.068529	-0.140797	0.987664	-0.589020	0.804737	0.073850	-0.805207	-0.576693	-0.138080
09432	9.870810	0.713269	-0.477991	0.168855	-0.303349	-0.001503	-0.070934	-0.142581	0.987238	-0.590388	0.803751	0.073661	-0.803997	-0.577628	-0.141191
09433	9.494170	-0.117374	-0.186662	0.170050	-0.350067	0.017879	-0.073835	-0.144519	0.986743	-0.591693	0.802823	0.073307	-0.802775	-0.578437	-0.144787
09434	9.512742	-0.282571	-0.340390	0.298348	-0.388286	0.016123	-0.077017	-0.146660	0.986184	-0.594081	0.801109	0.072742	-0.800710	-0.580271	-0.148827
09435	9.599540	0.016195	-0.113887	0.437112	-0.411147	-0.008159	-0.080235	-0.149168	0.985551	-0.597544	0.798577	0.072222	-0.797812	-0.583115	-0.153208
09436	9.292230	0.906336	0.171574	0.536969	-0.457908	-0.018467	-0.083742	-0.152014	0.984824	-0.601841	0.795400	0.071599	-0.794213	-0.586712	-0.158097
09437	9.552634	2.021000	0.007247	0.533754	-0.499847	-0.022202	-0.087546	-0.155177	0.984000	-0.606061	0.792242	0.071016	-0.790586	-0.590146	-0.163405
09438	9.706368	2.270967	-0.401051	0.427184	-0.511066	-0.020875	-0.091425	-0.158385	0.983136	-0.609458	0.789673	0.070543	-0.787529	-0.592731	-0.168725
09439	9.443843	2.313090	-0.965651	0.336836	-0.519051	0.000506	-0.095485	-0.161508	0.982241	-0.612077	0.787692	0.070018	-0.785013	-0.594521	-0.174068
09440	9.456255	2.080459	-1.531594	0.251652	-0.506310	0.017862	-0.099536	-0.164401	0.981359	-0.614041	0.786215	0.069430	-0.782973	-0.595684	-0.179206
09441	9.821804	1.726846	-1.642882	0.206363	-0.489995	0.045274	-0.103622	-0.167014	0.980494	-0.615574	0.785081	0.068672	-0.781237	-0.596451	-0.184162
09442	9.590032	1.940528	-1.519899	0.029658	-0.466754	0.103363	-0.107876	-0.169006	0.979694	-0.615705	0.785068	0.067635	-0.780557	-0.595906	-0.188748
09443	9.363954	1.157301	-1.320951	-0.250669	-0.472829	0.135011	-0.112374	-0.170807	0.978875	-0.613560	0.786813	0.066857	-0.781611	-0.593086	-0.193218
09444	9.496942	0.572208	-1.167807	-0.359302	-0.481405	0.133914	-0.116933	-0.172618	0.978023	-0.610604	0.789157	0.066280	-0.783255	-0.589435	-0.197680
09445	9.409554	0.849931	-0.859127	-0.350729	-0.480974	0.131244	-0.121479	-0.174456	0.977143	-0.607661	0.791469	0.065762	-0.784851	-0.585783	-0.202157
09446	9.252551	1.850103	-0.769859	-0.396879	-0.498601	0.150923	-0.126284	-0.176191	0.976222	-0.604365	0.794041	0.065130	-0.786635	-0.581770	-0.206758
09447	8.712034	0.863514	-1.074198	-0.634485	-0.524567	0.125123	-0.131145	-0.178280	0.975201	-0.599168	0.797956	0.065301	-0.789809	-0.575745	-0.211467
09448	9.749218	-1.328628	-2.158840	-0.426904	-0.599712	0.032118	-0.136052	-0.181483	0.973937	-0.595759	0.800452	0.065933	-0.791556	-0.571262	-0.217023
09449	10.085467	-1.346724	-2.945057	0.131075	-0.604867	-0.004869	-0.140778	-0.185022	0.972599	-0.596774	0.799711	0.065753	-0.789964	-0.571165	-0.222998
09450	9.917976	-0.320781	-3.222172	0.587582	-0.603060	0.013662	-0.145584	-0.188389	0.971244	-0.601393	0.796360	0.064322	-0.785577	-0.574735	-0.229233
09451	9.739582	1.769394	-3.389477	0.746030	-0.599641	0.040171	-0.150495	-0.191571	0.969872	-0.607151	0.792144	0.062254	-0.780205	-0.579490	-0.235526
09452	9.463277	2.484481	-3.373359	0.494842	-0.557406	0.095278	-0.155386	-0.194076	0.968602	-0.610866	0.789443	0.060182	-0.776336	-0.582335	-0.241223
09453	9.368854	2.224964	-3.391557	0.217844	-0.516295	0.140505	-0.160224	-0.196022	0.967421	-0.612299	0.788470	0.058353	-0.774221	-0.583002	-0.246356
09454	9.417927	2.008770	-3.339108	0.015223	-0.467478	0.177474	-0.164901	-0.197367	0.966361	-0.612139	0.788720	0.056630	-0.773365	-0.582209	-0.250876
09455	9.037242	1.605393	-3.042251	-0.233167	-0.428836	0.211484	-0.169490	-0.198239	0.965388	-0.609936	0.790523	0.055247	-0.774113	-0.579461	-0.254899
09456	8.742211	0.584063	-2.978104	-0.475688	-0.433825	0.213532	-0.174124	-0.199072	0.964391	-0.605892	0.793682	0.054438	-0.776258	-0.574838	-0.258816
09457	9.038174	-0.510828	-3.068487	-0.488289	-0.441658	0.193994	-0.178710	-0.200112	0.963337	-0.601703	0.796898	0.053915	-0.778471	-0.570007	-0.262822
09458	9.350094	-0.926506	-2.858799	-0.296409	-0.453575	0.163059	-0.183195	-0.201410	0.962223	-0.599110	0.798900	0.053160	-0.779427	-0.566738	-0.267021
09459	9.647323	-0.251044	-2.206555	-0.027179	-0.484054	0.131487	-0.187736	-0.203150	0.960982	-0.598608	0.799350	0.052038	-0.778732	-0.565482	-0.271674
09460	9.755969	0.570025	-1.644560	0.157501	-0.526377	0.139105	-0.192636	-0.205036	0.959610	-0.599580	0.798733	0.050300	-0.776785	-0.565673	-0.276801
09461	9.631727	1.097309	-1.016009	0.311345	-0.558173	0.155430	-0.197877	-0.207004	0.958120	-0.601651	0.797316	0.048005	-0.773861	-0.566954	-0.282315
09462	9.505708	1.888464	-0.630034	0.343915	-0.594050	0.158288	-0.203392	-0.209137	0.956501	-0.604000	0.795682	0.045539	-0.770594	-0.568464	-0.288154
09463	9.688324	1.708363	-0.858727	0.277842	-0.614129	0.160376	-0.209062	-0.211400	0.954779	-0.605771	0.794462	0.043262	-0.767681	-0.569333	-0.294152
09464	9.635457	1.569122	-1.308323	0.282063	-0.626327	0.172528	-0.214881	-0.213620	0.952991	-0.607578	0.793211	0.040808	-0.764641	-0.570247	-0.300237
09465	9.463509	1.677720	-1.925912	0.201472	-0.635904	0.167786	-0.220729	-0.215960	0.951126	-0.608717	0.792445	0.038665	-0.762064	-0.570432	-0.306374
09466	9.617139	0.757564	-2.774019	0.051732	-0.637324	0.161516	-0.226536	-0.218334	0.949216	-0.608762	0.792490	0.037000	-0.760323	-0.569465	-0.312441
09467	9.324601	-0.763521	-3.425260	-0.043943	-0.634649	0.154545	-0.232271	-0.220760	0.947267	-0.608040	0.793101	0.035739	-0.759169	-0.567675	-0.318445
09468	8.832627	-1.637829	-3.927565	0.050171	-0.639847	0.141465	-0.237956	-0.223288	0.945262	-0.608100	0.793120	0.034269	-0.757358	-0.566659	-0.324509
09469	8.670871	-1.765724	-3.848523	0.209261	-0.657015	0.121341	-0.243635	-0.226089	0.943147	-0.609363	0.792225	0.032499	-0.754532	-0.566801	-0.330784
09470	8.877665	-0.999436	-3.285355	0.415027	-0.680128	0.110942	-0.249403	-0.229093	0.940911	-0.612224	0.790111	0.030097	-0.750320	-0.568543	-0.337313
09471	9.149500	0.411514	-2.372681	0.531463	-0.701463	0.118029	-0.255347	-0.232195	0.938554	-0.615881	0.787368	0.027233	-0.745311	-0.571084	-0.344056
09472	9.013335	1.548527	-1.428027	0.519991	-0.731410	0.138931	-0.261610	-0.235310	0.936050	-0.619397	0.784706	0.024153	-0.740208	-0.573468	-0.351037
09473	8.574064	1.697684	-0.964087	0.312731	-0.781400	0.155677	-0.268315	-0.238606	0.933313	-0.621277	0.783292	0.021644	-0.736221	-0.574039	-0.358410
09474	8.883758	0.068367	-1.337722	0.248013	-0.855311	0.124384	-0.275342	-0.242563	0.930242	-0.622773	0.782157	0.019615	-0.732353	-0.573928	-0.366422
09475	9.394244	-0.376118	-1.663509	0.517461	-0.896100	0.101867	-0.282482	-0.246950	0.926941	-0.626254	0.779438	0.016804	-0.726643	-0.575753	-0.374831
09476	9.674554	0.345913	-2.187866	0.684192	-0.915747	0.096184	-0.289682	-0.251509	0.923486	-0.630940	0.775717	0.013349	-0.719721	-0.578798	-0.383399
09477	9.950167	0.581328	-2.864911	0.601136	-0.919093	0.097547	-0.296848	-0.256112	0.919939	-0.634961	0.772477	0.010168	-0.713236	-0.581107	-0.391929
09478	9.736083	-0.131246	-3.627857	0.473580	-0.925255	0.121928	-0.304168	-0.260575	0.916287	-0.637972	0.770026	0.007201	-0.707441	-0.582376	-0.400457
09479	9.590450	-0.152161	-4.118983	0.426957	-0.937367	0.127927	-0.311552	-0.265080	0.912506	-0.640591	0.767870	0.004350	-0.701839	-0.583188	-0.409040
09480	9.585952	-0.706405	-4.408991	0.313873	-0.924356	0.155847	-0.318989	-0.269295	0.908695	-0.642309	0.766444	0.001662	-0.696911	-0.583133	-0.417458
09481	9.078018	-1.010428	-4.512028	0.342075	-0.942033	0.176688	-0.326627	-0.273461	0.904729	-0.644121	0.764923	-0.001338	-0.691682	-0.583191	-0.425986
09482	8.802297	-0.524261	-4.441188	0.390611	-0.948803	0.187576	-0.334345	-0.277583	0.900645	-0.646206	0.763149	-0.004684	-0.686026	-0.583568	-0.434531
09483	8.652353	0.217901	-3.997058	0.405798	-0.958932	0.203931	-0.342176	-0.281651	0.896431	-0.648298	0.761342	-0.008254	-0.680165	-0.583979	-0.443106
09484	8.774060	0.701498	-3.492220	0.301469	-0.987767	0.213908	-0.350228	-0.285809	0.891994	-0.649615	0.760176	-0.011489	-0.674789	-0.583477	-0.451901
09485	9.022256	0.432553	-2.917061	0.216816	-1.030558	0.212241	-0.358496	-0.290227	0.887271	-0.650331	0.759516	-0.014324	-0.669739	-0.582155	-0.461027
09486	9.150097	-0.343830	-2.414176	0.226815	-1.087135	0.193564	-0.366980	-0.295098	0.882181	-0.651158	0.758751	-0.017066	-0.664319	-0.580702	-0.470602
09487	9.217578	-0.573158	-2.424505	0.425688	-1.145041	0.148994	-0.375474	-0.300640	0.876718	-0.653436	0.756708	-0.020362	-0.657298	-0.580525	-0.480573
09488	9.436266	-0.132861	-2.632732	0.635991	-1.175652	0.109652	-0.383842	-0.306664	0.870990	-0.657189	0.753331	-0.024382	-0.648667	-0.581763	-0.490696
09489	9.790042	0.380727	-3.332507	0.638584	-1.209239	0.087968	-0.392161	-0.313065	0.864986	-0.660991	0.749860	-0.028278	-0.639766	-0.582838	-0.500999
09490	10.064293	-0.154440	-3.744607	0.514279	-1.244147	0.071432	-0.400514	-0.319801	0.858671	-0.663994	0.747076	-0.031471	-0.631427	-0.582757	-0.511560
09491	10.176388	-1.086090	-3.548504	0.426584	-1.296337	0.065033	-0.409025	-0.326884	0.851966	-0.666444	0.744770	-0.034202	-0.623339	-0.581777	-0.522479
09492	10.281456	-2.243195	-3.197906	0.435177	-1.358580	0.071674	-0.417886	-0.334266	0.844771	-0.668859	0.742464	-0.037083	-0.614816	-0.580529	-0.533842
09493	10.329316	-3.039149	-2.633592	0.590963	-1.425227	0.057769	-0.426901	-0.342128	0.837081	-0.672273	0.739181	-0.040737	-0.604817	-0.580138	-0.545561
09494	10.734884	-2.906652	-2.122432	0.754012	-1.502271	0.045460	-0.436179	-0.350530	0.828780	-0.676612	0.734948	-0.045250	-0.593249	-0.580500	-0.557742
09495	11.296699	-3.118837	-1.760978	0.862963	-1.555057	0.014606	-0.445326	-0.359474	0.820038	-0.681694	0.729911	-0.050232	-0.580498	-0.581385	-0.570100
09496	11.933436	-2.322275	-1.158350	0.978541	-1.620818	-0.000421	-0.454591	-0.368930	0.810702	-0.687326	0.724199	-0.055845	-0.566507	-0.582603	-0.582789
09497	12.627011	-1.764013	-0.396402	0.899604	-1.702789	-0.018558	-0.463890	-0.379005	0.800726	-0.692559	0.718777	-0.061009	-0.552420	-0.582851	-0.595916
09498	13.318308	-1.412906	0.542385	0.718565	-1.821544	-0.052411	-0.473438	-0.389999	0.789783	-0.696744	0.714377	-0.064902	-0.538891	-0.581004	-0.609943
09499	14.089790	-1.926436	0.855765	0.462537	-1.940702	-0.130549	-0.482734	-0.402187	0.777954	-0.699985	0.711030	-0.066764	-0.526298	-0.576785	-0.624764
09500	14.180733	-3.123574	1.168089	0.374431	-2.078751	-0.246041	-0.491788	-0.415881	0.764975	-0.703150	0.707858	-0.067213	-0.513542	-0.570947	-0.640543
09501	14.792098	-3.985102	1.120842	0.526053	-2.187288	-0.358987	-0.500162	-0.430876	0.751122	-0.707794	0.703143	-0.067957	-0.498865	-0.565629	-0.656656
09502	14.890450	-4.014462	0.397073	0.800075	-2.298103	-0.430665	-0.508338	-0.446856	0.736146	-0.713908	0.696727	-0.070054	-0.481589	-0.561152	-0.673187
09503	14.287385	-2.911196	-0.927599	1.254579	-2.408175	-0.445415	-0.516264	-0.463475	0.720182	-0.722352	0.687398	-0.075443	-0.460086	-0.559173	-0.689671
09504	13.880471	0.319931	-1.404538	1.748982	-2.507796	-0.377330	-0.524707	-0.480090	0.702991	-0.732158	0.675817	-0.084945	-0.434312	-0.559272	-0.706108
09505	13.363773	2.297622	-1.526673	1.845949	-2.575386	-0.176873	-0.533981	-0.495745	0.684910	-0.741146	0.664300	-0.096997	-0.406900	-0.559413	-0.722142
09506	12.892765	4.519372	-3.083863	1.701302	-2.660096	0.087665	-0.545070	-0.510036	0.665403	-0.747387	0.655220	-0.109997	-0.379883	-0.557270	-0.738335
09507	12.587005	5.710057	-4.091534	1.035364	-2.667405	0.236537	-0.556388	-0.523354	0.645394	-0.750200	0.650346	-0.119371	-0.357257	-0.550591	-0.754465
09508	12.759099	5.806993	-5.953622	0.269038	-2.649639	0.287301	-0.567756	-0.535928	0.624847	-0.749545	0.650381	-0.123232	-0.340345	-0.538317	-0.770960
09509	12.863432	5.099341	-7.976105	-0.243523	-2.557639	0.324432	-0.578422	-0.547495	0.604713	-0.747176	0.653067	-0.123418	-0.327347	-0.523215	-0.786823
09510	12.530626	3.809303	-8.569058	-0.395694	-2.306304	0.382020	-0.588671	-0.556899	0.585944	-0.743694	0.657194	-0.122538	-0.316838	-0.507897	-0.801033
09511	11.286180	3.036435	-9.569481	-0.242725	-1.929964	0.443571	-0.597673	-0.563786	0.570028	-0.740612	0.660537	-0.123226	-0.307052	-0.495819	-0.812332
09512	8.620351	3.379990	-10.423069	-0.037693	-1.522833	0.535830	-0.606214	-0.567738	0.556937	-0.737295	0.663731	-0.125926	-0.298163	-0.486965	-0.820953
09513	5.798157	3.159763	-11.017061	-0.137736	-1.272863	0.641495	-0.614376	-0.569749	0.545828	-0.733276	0.667697	-0.128404	-0.291289	-0.479131	-0.828000
09514	3.592999	2.394243	-11.946836	-0.274458	-1.140577	0.744129	-0.623079	-0.570195	0.535398	-0.727902	0.673219	-0.130136	-0.286237	-0.470802	-0.834514
09515	2.894808	1.949892	-12.493623	-0.296894	-0.936962	0.693387	-0.630492	-0.570020	0.526837	-0.722990	0.678249	-0.131395	-0.282429	-0.463741	-0.839749
09516	3.493089	1.386831	-13.036956	-0.270030	-0.692312	0.522588	-0.636180	-0.569673	0.520335	-0.718944	0.682448	-0.131849	-0.279991	-0.457971	-0.843722
09517	4.595825	0.952735	-12.687129	-0.132102	-0.502533	0.389365	-0.640124	-0.569427	0.515747	-0.716339	0.684999	-0.132796	-0.277668	-0.454455	-0.846387
09518	6.078774	0.756560	-11.868235	-0.035335	-0.200470	0.320576	-0.642946	-0.568155	0.513634	-0.714209	0.686959	-0.134138	-0.276635	-0.453085	-0.847459
09519	6.337767	0.409646	-11.594504	0.135197	0.325798	0.297013	-0.643928	-0.564749	0.516154	-0.712902	0.687781	-0.136847	-0.277717	-0.456087	-0.845493
09520	5.607977	0.281928	-11.038379	0.270535	0.899624	0.303093	-0.643545	-0.558547	0.523330	-0.711732	0.688217	-0.140694	-0.281581	-0.463014	-0.840435
09521	4.537958	0.279873	-10.833168	0.255384	1.410864	0.294238	-0.641393	-0.550028	0.534868	-0.710788	0.688423	-0.144414	-0.288784	-0.472804	-0.832503
09522	3.412437	0.451387	-10.555794	0.140967	1.723599	0.239094	-0.638001	-0.540160	0.548801	-0.709696	0.689029	-0.146867	-0.298808	-0.483183	-0.822951
09523	2.587669	0.525310	-10.054256	-0.135277	1.928805	0.135028	-0.632864	-0.529909	0.564516	-0.708624	0.690205	-0.146527	-0.311986	-0.492761	-0.812312
09524	2.314906	0.424872	-9.769105	-0.484062	2.083603	0.017997	-0.626292	-0.519455	0.581313	-0.706984	0.692681	-0.142715	-0.328530	-0.500360	-0.801067
09525	2.305780	-0.181902	-9.494382	-0.823255	2.254397	-0.083069	-0.617893	-0.508760	0.599476	-0.704888	0.696221	-0.135680	-0.348339	-0.506399	-0.788809
09526	2.202372	-0.886885	-9.761192	-1.068615	2.465169	-0.165097	-0.607838	-0.497384	0.618984	-0.702081	0.700806	-0.126306	-0.370966	-0.511350	-0.775181
09527	2.061659	-1.473470	-9.837388	-1.122375	2.642668	-0.218299	-0.596026	-0.485397	0.639642	-0.699249	0.705354	-0.116306	-0.394719	-0.516591	-0.759823
09528	2.254790	-1.624020	-10.007031	-1.037227	2.855780	-0.250116	-0.582636	-0.472339	0.661385	-0.696528	0.709526	-0.106875	-0.418789	-0.522942	-0.742393
09529	2.252180	-1.784335	-9.979824	-0.931385	3.085606	-0.257284	-0.567403	-0.457959	0.684345	-0.694124	0.713112	-0.098301	-0.442997	-0.530796	-0.722502
09530	2.044399	-1.833942	-9.579195	-0.754126	3.260802	-0.260101	-0.550743	-0.442373	0.707805	-0.692172	0.715959	-0.091109	-0.466455	-0.540101	-0.700508
09531	1.779818	-1.635034	-8.978748	-0.612660	3.384578	-0.269001	-0.532581	-0.425880	0.731426	-0.690810	0.718031	-0.084926	-0.489018	-0.550506	-0.676612
09532	1.779224	-1.761287	-8.950082	-0.546273	3.470741	-0.285547	-0.513227	-0.408658	0.754716	-0.689595	0.719856	-0.079160	-0.510938	-0.561075	-0.651258
09533	1.920569	-1.818947	-8.560809	-0.418995	3.557355	-0.313682	-0.492402	-0.390784	0.777707	-0.689074	0.720898	-0.074045	-0.531712	-0.572357	-0.624251
09534	1.588000	-1.523576	-8.027563	-0.326755	3.595911	-0.335003	-0.470591	-0.372429	0.799901	-0.688939	0.721490	-0.069389	-0.551278	-0.583737	-0.596107
09535	2.020742	-0.963513	-7.819127	-0.275618	3.594373	-0.362008	-0.447847	-0.353881	0.821098	-0.689122	0.721742	-0.064804	-0.569688	-0.594859	-0.567097
09536	2.289230	-0.615963	-7.832467	-0.313841	3.673640	-0.382289	-0.423919	-0.334611	0.841622	-0.688992	0.722291	-0.059873	-0.587862	-0.605252	-0.536738
09537	2.203669	-0.684186	-7.643027	-0.377768	3.658244	-0.410357	-0.399173	-0.315288	0.860961	-0.688468	0.723227	-0.054350	-0.605535	-0.614439	-0.505759
09538	2.516293	-0.929503	-7.831432	-0.532866	3.665061	-0.434651	-0.373632	-0.295795	0.879150	-0.686893	0.725176	-0.047934	-0.623360	-0.621791	-0.474129
09539	2.228103	-1.633212	-7.250116	-0.599273	3.598935	-0.451502	-0.347715	-0.276614	0.895868	-0.684750	0.727617	-0.041109	-0.640477	-0.627740	-0.442415
09540	2.722510	-1.951227	-6.801800	-0.605866	3.496390	-0.449024	-0.321942	-0.257867	0.910965	-0.682343	0.730220	-0.034442	-0.656323	-0.632680	-0.411043
09541	3.430814	-2.229716	-5.842744	-0.520851	3.445241	-0.436936	-0.296040	-0.239214	0.924736	-0.680235	0.732447	-0.028295	-0.670552	-0.637415	-0.379555
09542	4.621801	-1.818144	-5.444185	-0.392821	3.505347	-0.420125	-0.269427	-0.219874	0.937584	-0.678781	0.733983	-0.022929	-0.683129	-0.642592	-0.347001
09543	5.326067	-1.261051	-5.878525	-0.309774	3.644731	-0.421665	-0.241395	-0.199489	0.949701	-0.677711	0.735112	-0.017847	-0.694576	-0.647931	-0.312648
09544	5.744626	-0.376165	-6.371662	-0.247233	3.742378	-0.434510	-0.212235	-0.178352	0.960805	-0.676982	0.735886	-0.012940	-0.704735	-0.653194	-0.276922
09545	5.124873	-0.101972	-6.283194	-0.373158	3.816251	-0.397011	-0.182404	-0.156327	0.970717	-0.675086	0.737695	-0.008053	-0.714834	-0.656786	-0.240092
09546	5.036626	-0.086305	-6.857854	-0.585449	3.761300	-0.362535	-0.152849	-0.134296	0.979082	-0.671492	0.741005	-0.003190	-0.725076	-0.657933	-0.203440
09547	5.092267	-0.168321	-6.718945	-0.736858	3.711597	-0.318507	-0.123564	-0.112325	0.985959	-0.666496	0.745507	0.001404	-0.735197	-0.656965	-0.166982
09548	5.230248	0.019498	-6.602050	-0.725184	3.613113	-0.297177	-0.094836	-0.090856	0.991338	-0.661469	0.749953	0.005454	-0.743952	-0.655222	-0.131221
09549	6.315431	-0.695283	-3.598008	-0.622884	3.408136	-0.306846	-0.067289	-0.070954	0.995207	-0.656979	0.753851	0.009326	-0.750900	-0.653203	-0.097341
09550	7.753318	-1.666762	-2.449236	-0.620733	3.102906	-0.323158	-0.041753	-0.053187	0.997711	-0.652486	0.757688	0.013086	-0.756649	-0.650447	-0.066339
09551	9.665508	-1.946264	-3.003524	-0.279328	2.918930	-0.394936	-0.017004	-0.037307	0.999159	-0.650396	0.759398	0.017286	-0.759405	-0.649555	-0.037177
09552	10.667730	-2.652783	-2.350694	0.032981	2.797012	-0.484105	0.007417	-0.022815	0.999712	-0.650678	0.759031	0.022150	-0.759317	-0.650655	-0.009216
09553	10.371277	-3.298871	-3.813812	0.531659	2.545837	-0.512024	0.030088	-0.010174	0.999495	-0.654521	0.755548	0.027394	-0.755445	-0.655015	0.016074
09554	8.839238	-1.732450	-2.943121	1.199437	2.287677	-0.544523	0.050888	0.000806	0.998704	-0.663315	0.747603	0.033196	-0.746608	-0.664145	0.038579
09555	8.039459	0.733141	-1.958314	1.424953	1.851249	-0.503289	0.068021	0.009351	0.997640	-0.673490	0.738167	0.039001	-0.736060	-0.674554	0.056509
09556	8.478099	2.454083	-1.438314	1.280224	1.543511	-0.399918	0.082049	0.016883	0.996485	-0.682556	0.729518	0.043841	-0.726213	-0.683754	0.071379
09557	8.507271	3.009849	0.088869	0.849238	1.169181	-0.316296	0.092714	0.022489	0.995439	-0.688315	0.723839	0.047755	-0.719463	-0.689603	0.082590
09558	9.225272	2.966907	-0.668468	0.356809	0.729530	-0.189543	0.099289	0.026143	0.994715	-0.690698	0.721413	0.049982	-0.716294	-0.692011	0.089685
09559	9.113231	2.359676	-0.049420	-0.041599	0.358247	-0.125675	0.102771	0.027576	0.994323	-0.690157	0.721838	0.051314	-0.716325	-0.691512	0.093216
09560	9.531304	2.355648	1.318881	-0.167535	-0.060710	-0.142009	0.103346	0.026114	0.994303	-0.688813	0.723028	0.052604	-0.717535	-0.690325	0.092710
09561	10.759397	0.917339	-0.173763	-0.649722	-0.478093	-0.024335	0.100120	0.022501	0.994721	-0.683985	0.727613	0.052385	-0.722593	-0.685619	0.088239
09562	11.272638	0.813728	1.230522	-0.611410	-0.474208	0.025267	0.096541	0.019428	0.995139	-0.679581	0.731780	0.051641	-0.727220	-0.681263	0.083850
09563	13.455265	1.524400	3.563612	-0.867630	-0.229365	0.095775	0.094267	0.018429	0.995376	-0.673208	0.737755	0.050097	-0.733420	-0.674817	0.081952
09564	14.558016	1.780712	6.015707	-1.450034	0.093709	0.150208	0.093985	0.020154	0.995370	-0.662648	0.747427	0.047435	-0.743010	-0.664038	0.083602
09565	12.919885	0.302619	7.283228	-2.252223	0.110044	0.202740	0.093537	0.022270	0.995367	-0.645819	0.762242	0.043635	-0.757739	-0.646908	0.085680
09566	10.829875	-0.824006	6.336337	-2.805039	-0.122630	0.219124	0.091234	0.023161	0.995560	-0.624518	0.780032	0.039084	-0.775663	-0.625311	0.085630
09567	9.878768	-2.461454	4.655994	-3.206682	-0.345319	0.237341	0.087124	0.022810	0.995936	-0.599441	0.799691	0.034123	-0.795663	-0.599978	0.083345
09568	10.000492	-5.218973	2.328298	-3.227788	-0.471609	0.213740	0.082100	0.021751	0.996387	-0.573630	0.818587	0.029396	-0.814990	-0.573971	0.079682
09569	10.997749	-7.220280	2.642437	-2.770005	-0.547251	0.161787	0.076738	0.019928	0.996852	-0.550898	0.834176	0.025732	-0.831037	-0.551138	0.074991
09570	12.111282	-9.490548	2.420634	-2.160444	-0.687293	0.132657	0.070292	0.017294	0.997377	-0.532914	0.845860	0.022891	-0.843245	-0.533125	0.068673
09571	12.996299	-10.583384	2.347665	-1.100412	-0.878309	0.041777	0.062681	0.012972	0.997949	-0.523620	0.851672	0.021818	-0.849643	-0.523914	0.060176
09572	12.660672	-7.185921	2.332166	0.383332	-1.067823	-0.081860	0.054072	0.006640	0.998515	-0.526833	0.849661	0.022879	-0.848247	-0.527288	0.049442
09573	11.386200	-0.351942	2.463310	1.354690	-1.232469	-0.222232	0.044881	-0.001797	0.998991	-0.538222	0.842412	0.025696	-0.841608	-0.538832	0.036841
09574	10.488026	5.632695	1.544749	1.414031	-1.343370	-0.259076	0.035059	-0.011309	0.999321	-0.549975	0.834687	0.028741	-0.834445	-0.550609	0.023044
09575	9.181873	8.081329	0.200174	0.554214	-1.334571	-0.205770	0.025121	-0.020396	0.999476	-0.554575	0.831559	0.030908	-0.831754	-0.555061	0.009579
09576	7.704714	5.255599	-1.242915	-0.708002	-1.273937	-0.138856	0.015292	-0.028606	0.999474	-0.548650	0.835427	0.032305	-0.835912	-0.548856	-0.002919
09577	7.117501	-0.294195	-3.051869	-1.352126	-1.216829	-0.173316	0.006063	-0.036692	0.999308	-0.537286	0.842706	0.034202	-0.843378	-0.537122	-0.014605
09578	8.788838	-3.271934	-4.245993	-0.795513	-1.168454	-0.307448	-0.002148	-0.045546	0.998960	-0.530562	0.846818	0.037468	-0.847644	-0.529929	-0.025984
09579	11.009622	-1.066004	-4.174469	0.222630	-1.106317	-0.408390	-0.009307	-0.054897	0.998449	-0.532476	0.845426	0.041521	-0.846394	-0.531264	-0.037100
09580	11.417389	2.626649	-3.268902	0.652472	-1.076784	-0.393559	-0.016268	-0.063986	0.997818	-0.538046	0.841703	0.045203	-0.842759	-0.536136	-0.048120
09581	10.859894	4.446127	-2.815948	0.383467	-1.084365	-0.247654	-0.024021	-0.071931	0.997120	-0.541314	0.839477	0.047519	-0.840478	-0.538613	-0.059102
09582	9.802438	3.779693	-3.259240	-0.226816	-1.047985	-0.093685	-0.032300	-0.078371	0.996401	-0.539441	0.840618	0.048631	-0.841403	-0.535929	-0.069429
09583	8.901882	2.003279	-3.977815	-0.684389	-0.966769	-0.015320	-0.040335	-0.083706	0.995674	-0.533638	0.844271	0.049359	-0.844750	-0.529339	-0.078723
09584	8.941288	1.134591	-3.998626	-0.821314	-0.891806	0.001818	-0.047870	-0.088399	0.994934	-0.526692	0.848581	0.050054	-0.848707	-0.521628	-0.087180
09585	9.504826	0.610800	-4.060594	-0.861705	-0.833095	-0.059341	-0.054619	-0.093284	0.994140	-0.519334	0.853018	0.051509	-0.852824	-0.513477	-0.095037
09586	10.142898	-0.579286	-4.184297	-0.679346	-0.794351	-0.140555	-0.060654	-0.098560	0.993281	-0.513620	0.856341	0.053608	-0.855871	-0.506918	-0.102563
09587	10.433191	-1.491929	-4.303900	-0.230878	-0.751057	-0.189223	-0.066093	-0.104051	0.992373	-0.511697	0.857351	0.055814	-0.856620	-0.504105	-0.109908
09588	9.885925	-0.906868	-4.197418	0.323559	-0.673408	-0.208117	-0.070761	-0.109258	0.991492	-0.514617	0.855487	0.057544	-0.854495	-0.506167	-0.116761
09589	9.566334	0.723330	-3.070794	0.643493	-0.608384	-0.191198	-0.074944	-0.114056	0.990644	-0.520176	0.852036	0.058746	-0.850765	-0.510906	-0.123184
09590	9.416193	1.917419	-1.825794	0.430951	-0.559732	-0.114477	-0.079074	-0.117921	0.989870	-0.523935	0.849687	0.059367	-0.848080	-0.513933	-0.128971
09591	9.129268	1.036777	-1.192722	-0.044691	-0.551276	-0.057823	-0.083433	-0.121318	0.989101	-0.523528	0.849888	0.060082	-0.847914	-0.512809	-0.134422
09592	9.403559	0.136905	-0.820032	-0.319647	-0.570355	-0.035444	-0.088062	-0.124557	0.988297	-0.520856	0.851469	0.060902	-0.849090	-0.509397	-0.139858
09593	9.712616	-0.702389	-0.961214	-0.413251	-0.590993	-0.063891	-0.092741	-0.128173	0.987406	-0.517328	0.853524	0.062205	-0.850747	-0.505044	-0.145464
09594	9.779547	-1.050693	-1.018943	-0.172786	-0.594294	-0.131647	-0.097091	-0.132315	0.986441	-0.515993	0.854214	0.063792	-0.851073	-0.502803	-0.151210
09595	9.719113	-0.021071	-1.376580	0.267337	-0.596368	-0.199587	-0.101116	-0.137087	0.985384	-0.518401	0.852631	0.065422	-0.849138	-0.504209	-0.157281
09596	9.903214	1.073492	-1.586720	0.553933	-0.598988	-0.218557	-0.105027	-0.142002	0.984279	-0.523331	0.849514	0.066717	-0.845632	-0.508097	-0.163536
09597	9.840459	2.000193	-2.096493	0.708685	-0.598218	-0.180491	-0.109111	-0.146651	0.983152	-0.529442	0.845665	0.067385	-0.841300	-0.513170	-0.169914
09598	9.836926	2.974910	-2.265512	0.643506	-0.588472	-0.125395	-0.113356	-0.150765	0.982049	-0.534993	0.842153	0.067534	-0.837217	-0.517734	-0.176121
09599	9.772551	3.093077	-2.320833	0.347511	-0.583886	-0.047070	-0.117974	-0.154259	0.980962	-0.537883	0.840317	0.067454	-0.834724	-0.519684	-0.182109
09600	9.740935	2.623320	-2.307970	0.071606	-0.583184	0.031461	-0.122981	-0.157047	0.979904	-0.538453	0.839984	0.067044	-0.833633	-0.519387	-0.187865
09601	9.761240	1.646773	-2.191204	-0.116742	-0.582534	0.085644	-0.128290	-0.159423	0.978839	-0.537289	0.840771	0.066517	-0.833584	-0.517386	-0.193518
09602	9.557255	0.890305	-1.819403	-0.123230	-0.594167	0.127871	-0.133902	-0.161438	0.977757	-0.536105	0.841603	0.065539	-0.833464	-0.515405	-0.199240
09603	9.272649	0.722223	-1.123436	-0.068657	-0.608463	0.146227	-0.139747	-0.163414	0.976610	-0.535247	0.842242	0.064340	-0.833055	-0.513736	-0.205168
09604	9.217425	0.919850	-0.367157	-0.057249	-0.632020	0.141549	-0.145741	-0.165487	0.975384	-0.534580	0.842759	0.063108	-0.832457	-0.512223	-0.211290
09605	9.235603	0.781013	-0.067338	-0.145257	-0.671749	0.119110	-0.151959	-0.167988	0.974006	-0.533112	0.843744	0.062348	-0.832286	-0.509780	-0.217771
09606	9.534841	0.247271	-0.122127	-0.195098	-0.703821	0.081695	-0.158225	-0.170899	0.972501	-0.531373	0.844865	0.062015	-0.832230	-0.506949	-0.224490
09607	9.732366	-0.423324	-0.878251	-0.111849	-0.736232	0.038896	-0.164543	-0.174361	0.970837	-0.530308	0.845537	0.061977	-0.831685	-0.504644	-0.231592
09608	9.719936	-0.378960	-1.945706	0.136968	-0.758923	0.013701	-0.170894	-0.178097	0.969060	-0.531435	0.844860	0.061552	-0.829682	-0.504473	-0.239029
09609	9.685752	0.543500	-3.117542	0.393312	-0.760376	0.004862	-0.177201	-0.181960	0.967208	-0.534621	0.842914	0.060629	-0.826305	-0.506346	-0.246645
09610	9.605683	1.231618	-3.881384	0.445713	-0.732278	0.004036	-0.183234	-0.185665	0.965378	-0.538301	0.840649	0.059504	-0.822592	-0.508760	-0.253979
09611	9.678024	1.131453	-4.368943	0.464564	-0.704934	0.034284	-0.189192	-0.189034	0.963573	-0.541984	0.838381	0.058058	-0.818816	-0.511257	-0.261068
09612	9.622562	0.873429	-3.702529	0.477211	-0.638676	0.069019	-0.194759	-0.191753	0.961925	-0.545763	0.836056	0.056162	-0.814992	-0.514045	-0.267480
09613	8.676198	1.354509	-3.249161	0.469119	-0.686080	0.111704	-0.200939	-0.194418	0.960117	-0.549284	0.833895	0.053901	-0.811117	-0.516546	-0.274353
09614	8.470598	2.233402	-2.810039	0.337364	-0.683280	0.129974	-0.207159	-0.196892	0.958289	-0.551763	0.832394	0.051747	-0.807863	-0.518028	-0.281076
09615	8.365537	1.686509	-1.274403	0.020503	-0.642819	0.145625	-0.213145	-0.199071	0.956525	-0.551542	0.832624	0.050383	-0.806455	-0.516825	-0.287265
09616	8.375163	0.329912	-0.941400	-0.087880	-0.682601	0.136232	-0.219370	-0.201479	0.954611	-0.550553	0.833339	0.049367	-0.805462	-0.514734	-0.293735
09617	9.044567	0.524691	-0.638546	0.018340	-0.723694	0.109946	-0.225789	-0.204346	0.952503	-0.550379	0.833513	0.048352	-0.803805	-0.513321	-0.300666
09618	9.718109	0.632922	-0.297910	0.021870	-0.754482	0.089274	-0.232312	-0.207492	0.950252	-0.550364	0.833575	0.047465	-0.801954	-0.511958	-0.307845
09619	10.088028	0.074558	-0.547424	0.048262	-0.825591	0.087515	-0.239392	-0.211040	0.947710	-0.550478	0.833550	0.046568	-0.799791	-0.510545	-0.315718
09620	9.958702	-0.620757	-1.121530	0.211775	-0.878456	0.065805	-0.246740	-0.214999	0.944931	-0.552022	0.832598	0.045297	-0.796487	-0.510446	-0.324119
09621	9.358285	-0.588790	-1.726116	0.454665	-0.917934	0.036130	-0.254210	-0.219442	0.941925	-0.555491	0.830382	0.043538	-0.791711	-0.512163	-0.332990
09622	8.850513	-0.077841	-2.356851	0.627448	-0.947724	0.015884	-0.261747	-0.224202	0.938734	-0.560413	0.827183	0.041299	-0.785764	-0.515269	-0.342159
09623	9.089991	-0.376841	-3.149729	0.671837	-0.981805	0.004005	-0.269432	-0.229289	0.935325	-0.565619	0.823744	0.039001	-0.779411	-0.518530	-0.351633
09624	9.656063	-0.821436	-3.530880	0.823151	-0.999683	0.004312	-0.277185	-0.234481	0.931766	-0.572007	0.819456	0.036056	-0.771995	-0.522983	-0.361266
09625	9.922528	-0.499123	-3.492744	0.932758	-1.008106	0.035096	-0.285106	-0.239534	0.928083	-0.579038	0.814657	0.032379	-0.763826	-0.528164	-0.370963
09626	9.626823	0.181146	-3.389305	0.970124	-1.014080	0.061415	-0.293139	-0.244440	0.924293	-0.586244	0.809644	0.028193	-0.755240	-0.533597	-0.380640
09627	9.185351	0.919464	-3.533717	0.866785	-1.026279	0.082464	-0.301311	-0.249311	0.920356	-0.592482	0.805222	0.024153	-0.747112	-0.538017	-0.390335
09628	8.844906	1.136316	-4.247791	0.713639	-1.013630	0.077982	-0.309284	-0.254176	0.916372	-0.597565	0.801555	0.020645	-0.739770	-0.541207	-0.399794
09629	8.897455	1.591780	-4.737553	0.557697	-0.986246	0.074503	-0.316973	-0.258964	0.912396	-0.601409	0.798744	0.017773	-0.733373	-0.543089	-0.408923
09630	9.170663	1.220042	-5.172619	0.280334	-0.951824	0.085256	-0.324417	-0.263473	0.908480	-0.603200	0.797432	0.015865	-0.728631	-0.542848	-0.417627
09631	9.271003	0.532910	-5.409370	0.131776	-0.930044	0.111476	-0.331830	-0.267665	0.904569	-0.603753	0.797042	0.014368	-0.724825	-0.541368	-0.426086
09632	9.010046	-0.338677	-5.303974	0.044614	-0.914514	0.148666	-0.339313	-0.271442	0.900658	-0.603593	0.797189	0.012861	-0.721486	-0.539267	-0.434337
09633	8.505190	-0.939729	-4.803378	0.085231	-0.915947	0.160431	-0.346858	-0.275132	0.896656	-0.603614	0.797199	0.011116	-0.717872	-0.537379	-0.442588
09634	8.393410	-1.135828	-3.778131	0.191308	-0.927328	0.156296	-0.354411	-0.278887	0.892533	-0.604452	0.796592	0.008890	-0.713464	-0.536342	-0.450895
09635	8.736786	-1.341686	-3.186866	0.316782	-0.969416	0.121186	-0.362019	-0.283155	0.888125	-0.606234	0.795260	0.006434	-0.708112	-0.536082	-0.459558
09636	9.352709	-0.967483	-2.800737	0.604836	-0.997863	0.078876	-0.369501	-0.287910	0.883503	-0.610223	0.792224	0.002955	-0.700783	-0.538042	-0.468417
09637	9.571840	0.143791	-2.548417	0.805879	-1.036776	0.052892	-0.377024	-0.293118	0.878598	-0.615616	0.788045	-0.001265	-0.692004	-0.541356	-0.477561
09638	9.713958	1.028939	-3.729876	0.770559	-1.067175	0.053203	-0.384664	-0.298514	0.873455	-0.620729	0.784007	-0.005421	-0.683176	-0.544264	-0.486875
09639	9.376361	1.117574	-4.528978	0.607471	-1.064251	0.057831	-0.392228	-0.303891	0.868221	-0.624615	0.780883	-0.008855	-0.675288	-0.545777	-0.496099
09640	9.272126	0.255482	-4.812970	0.514815	-1.092591	0.074837	-0.400006	-0.309295	0.862747	-0.627793	0.778287	-0.012055	-0.667736	-0.546448	-0.505493
09641	9.319381	-0.522840	-4.707471	0.576674	-1.111163	0.099591	-0.407983	-0.314627	0.857065	-0.631202	0.775457	-0.015798	-0.659647	-0.547426	-0.514966
09642	9.418072	-0.864425	-4.024717	0.763094	-1.145141	0.116028	-0.416189	-0.320032	0.851097	-0.635739	0.771625	-0.020730	-0.650094	-0.549704	-0.524599
09643	9.596149	-0.789048	-2.840402	0.898988	-1.194696	0.127891	-0.424680	-0.325659	0.844744	-0.640990	0.767091	-0.026524	-0.639358	-0.552737	-0.534512
09644	9.737806	-1.106068	-1.689473	0.931756	-1.270895	0.118530	-0.433468	-0.331816	0.837856	-0.646404	0.762302	-0.032525	-0.627907	-0.555692	-0.544921
09645	9.828260	-1.807232	-0.592694	1.029992	-1.376922	0.088008	-0.442561	-0.338845	0.830256	-0.652431	0.756850	-0.038886	-0.615202	-0.558894	-0.556025
09646	10.062026	-1.731828	0.297613	1.201268	-1.493480	0.024807	-0.451775	-0.347054	0.821859	-0.659642	0.750182	-0.045818	-0.600643	-0.562832	-0.567845
09647	10.663470	-1.123171	0.555076	1.267882	-1.599486	-0.023134	-0.461048	-0.356281	0.812710	-0.667304	0.742906	-0.052880	-0.584927	-0.566705	-0.580264
09648	11.222899	-0.618438	0.313887	1.156665	-1.711044	-0.060497	-0.470489	-0.366465	0.802710	-0.674280	0.736103	-0.059156	-0.569199	-0.569083	-0.593428
09649	12.011141	-0.978469	-0.085243	0.888759	-1.819629	-0.095419	-0.479991	-0.377540	0.791879	-0.679798	0.730627	-0.063717	-0.554512	-0.568901	-0.607345
09650	12.735975	-1.191298	-0.401136	0.775706	-1.935924	-0.141613	-0.489590	-0.389587	0.780079	-0.684749	0.725661	-0.067350	-0.539834	-0.567132	-0.622045
09651	13.960677	-1.159503	0.422725	0.608301	-2.066595	-0.158392	-0.499410	-0.402440	0.767223	-0.688875	0.721496	-0.069956	-0.525396	-0.563458	-0.637553
09652	15.323476	-2.213543	0.726213	0.355469	-2.193017	-0.175003	-0.509548	-0.416006	0.753193	-0.691622	0.718771	-0.070900	-0.511879	-0.557052	-0.653967
09653	15.521273	-3.248165	0.776215	0.240507	-2.316210	-0.191723	-0.519784	-0.430225	0.738059	-0.693971	0.716485	-0.071085	-0.498225	-0.549141	-0.670981
09654	15.207173	-4.604534	1.040896	0.523353	-2.428847	-0.238576	-0.529998	-0.445203	0.721731	-0.697809	0.712566	-0.072881	-0.481834	-0.542257	-0.688326
09655	14.339936	-3.387489	0.334524	1.062752	-2.517264	-0.221816	-0.540129	-0.460428	0.704462	-0.704209	0.705611	-0.078756	-0.460815	-0.538627	-0.705358
09656	12.492980	-0.647260	-0.908961	1.380747	-2.567617	-0.153996	-0.550538	-0.475328	0.686274	-0.711270	0.697449	-0.087522	-0.437039	-0.536310	-0.722058
09657	10.821414	1.652101	-2.622907	1.309142	-2.599195	-0.038665	-0.561093	-0.489560	0.667462	-0.717293	0.690003	-0.096889	-0.413118	-0.533130	-0.738313
09658	9.866377	3.804645	-4.640366	1.059383	-2.671862	0.068348	-0.572291	-0.503274	0.647456	-0.721183	0.684705	-0.105231	-0.390356	-0.527157	-0.754803
09659	10.255287	5.592272	-6.087810	0.673491	-2.684833	0.146862	-0.583322	-0.516387	0.626961	-0.723143	0.681660	-0.111370	-0.369864	-0.518347	-0.771049
09660	10.743735	5.933687	-6.703885	0.188832	-2.663437	0.218535	-0.594498	-0.528553	0.605973	-0.722561	0.681813	-0.114174	-0.352813	-0.505729	-0.787249
09661	11.256262	6.443399	-7.436212	-0.162718	-2.581037	0.333835	-0.605588	-0.539232	0.585227	-0.720236	0.684144	-0.114920	-0.338411	-0.491096	-0.802684
09662	11.319262	6.519725	-8.314734	-0.390750	-2.333814	0.454220	-0.616588	-0.547415	0.565823	-0.716184	0.688479	-0.114358	-0.326956	-0.475745	-0.816558
09663	10.447122	5.764431	-9.062054	-0.723960	-1.985320	0.580290	-0.626908	-0.552796	0.549002	-0.710469	0.694812	-0.111675	-0.319719	-0.460058	-0.828327
09664	8.663384	4.204624	-9.936529	-0.977771	-1.695516	0.684559	-0.637109	-0.555693	0.534133	-0.703058	0.703003	-0.107222	-0.315915	-0.443838	-0.838573
09665	7.471413	2.643988	-10.750466	-1.124611	-1.395311	0.767685	-0.646644	-0.556457	0.521735	-0.694809	0.711951	-0.101821	-0.314791	-0.428348	-0.847009
09666	6.229960	1.776270	-10.846720	-0.897806	-1.045303	0.802325	-0.655447	-0.555145	0.512058	-0.686786	0.720179	-0.098326	-0.314189	-0.416121	-0.853305
09667	6.724493	2.005393	-12.327139	-0.618190	-0.555736	0.821747	-0.662591	-0.551602	0.506664	-0.679641	0.727071	-0.097244	-0.314741	-0.408782	-0.856642
09668	6.672087	2.879252	-12.691975	-0.408002	-0.080929	0.794443	-0.668194	-0.546151	0.505209	-0.673091	0.733071	-0.097757	-0.316963	-0.405372	-0.857443
09669	6.487628	2.600281	-13.141508	-0.384216	0.126879	0.743700	-0.672571	-0.540272	0.505721	-0.667079	0.738483	-0.098229	-0.320396	-0.403422	-0.857087
09670	6.840982	1.567259	-12.054924	-0.391122	0.201133	0.733849	-0.676770	-0.534043	0.506735	-0.660892	0.743978	-0.098583	-0.324352	-0.401615	-0.856447
09671	7.590350	0.604051	-11.002193	-0.490821	0.480803	0.740016	-0.679875	-0.526687	0.510266	-0.654447	0.749711	-0.098143	-0.330862	-0.400667	-0.854398
09672	7.294704	-0.371051	-10.567255	-0.518480	0.962322	0.711487	-0.681251	-0.517491	0.517784	-0.647889	0.755485	-0.097372	-0.340789	-0.401802	-0.849952
09673	6.617797	-1.158311	-10.455151	-0.526702	1.484973	0.653510	-0.680120	-0.506638	0.529863	-0.641791	0.760805	-0.096332	-0.354317	-0.405578	-0.842595
09674	5.540409	-1.639174	-10.917382	-0.534917	2.015201	0.586015	-0.676526	-0.493951	0.546191	-0.635901	0.765902	-0.094995	-0.371406	-0.411590	-0.832257
09675	3.974803	-1.886618	-10.855835	-0.464998	2.398347	0.454427	-0.670088	-0.480580	0.565707	-0.631249	0.769902	-0.093675	-0.390520	-0.419872	-0.819269
09676	2.911347	-2.103023	-10.693367	-0.423966	2.656767	0.306849	-0.661348	-0.466954	0.587003	-0.627533	0.773137	-0.091990	-0.410878	-0.429201	-0.804342
09677	2.448101	-2.106654	-10.558379	-0.419667	2.941930	0.164808	-0.649799	-0.452975	0.610390	-0.624851	0.775582	-0.089628	-0.432808	-0.439643	-0.787014
09678	1.644479	-2.294256	-10.526092	-0.447937	3.186247	0.039072	-0.635854	-0.438511	0.635135	-0.622634	0.777731	-0.086376	-0.456088	-0.450380	-0.767556
09679	1.383516	-1.968435	-10.129870	-0.439898	3.302059	-0.065245	-0.619841	-0.424029	0.660300	-0.621138	0.779335	-0.082609	-0.479566	-0.461342	-0.746445
09680	1.765982	-1.461749	-9.900145	-0.474252	3.468167	-0.121725	-0.602008	-0.408811	0.685901	-0.619575	0.781023	-0.078288	-0.503700	-0.472098	-0.723471
09681	1.852541	-1.255155	-9.804064	-0.491187	3.644484	-0.153940	-0.582103	-0.392658	0.712022	-0.618084	0.782650	-0.073698	-0.528326	-0.482989	-0.698278
09682	1.909599	-1.248726	-9.288586	-0.396133	3.770564	-0.170282	-0.560649	-0.375584	0.737977	-0.616940	0.783915	-0.069733	-0.552320	-0.494383	-0.671214
09683	2.332756	-1.039588	-9.453193	-0.317473	3.947422	-0.184230	-0.537111	-0.357310	0.764095	-0.616270	0.784745	-0.066233	-0.575954	-0.506463	-0.641695
09684	2.236492	-0.819958	-9.423684	-0.218414	4.093553	-0.235316	-0.511587	-0.338185	0.789880	-0.616244	0.785030	-0.063018	-0.598767	-0.518998	-0.610016
09685	2.440847	-0.484610	-8.972491	-0.142192	4.188805	-0.310078	-0.484018	-0.318639	0.814982	-0.617006	0.784695	-0.059643	-0.620508	-0.531717	-0.576409
09686	2.489769	-0.259209	-9.209282	-0.126574	4.316049	-0.391105	-0.454335	-0.298508	0.839328	-0.618064	0.784153	-0.055678	-0.641542	-0.544055	-0.540766
09687	2.229887	-0.180243	-9.100901	-0.132148	4.354637	-0.469603	-0.422952	-0.278267	0.862368	-0.619321	0.783484	-0.050936	-0.661478	-0.555626	-0.503713
09688	2.054517	-0.486155	-9.220004	-0.190938	4.332837	-0.548154	-0.390453	-0.258283	0.883649	-0.620289	0.783070	-0.045200	-0.680285	-0.565767	-0.465962
09689	1.955701	-0.714746	-9.142204	-0.151298	4.265015	-0.595690	-0.357287	-0.238639	0.902994	-0.621501	0.782435	-0.039131	-0.697196	-0.575193	-0.427868
09690	2.123315	-0.943349	-8.024669	-0.045984	4.175084	-0.622433	-0.323968	-0.219315	0.920297	-0.623316	0.781263	-0.033241	-0.711704	-0.584405	-0.389807
09691	2.910429	-0.998762	-6.937003	0.088719	4.149861	-0.645064	-0.290070	-0.199934	0.935888	-0.625933	0.779392	-0.027500	-0.723925	-0.593780	-0.351224
09692	3.609820	-1.312847	-5.959434	0.189355	4.202523	-0.689496	-0.255070	-0.180163	0.949990	-0.629209	0.776936	-0.021597	-0.734190	-0.603251	-0.311533
09693	4.547604	-1.089795	-6.991413	0.442329	4.287807	-0.716723	-0.218829	-0.159662	0.962612	-0.634153	0.773043	-0.015941	-0.741595	-0.613932	-0.270415
09694	4.996431	-0.447742	-7.524140	0.520376	4.332512	-0.722328	-0.181947	-0.138420	0.973517	-0.639488	0.768733	-0.010216	-0.746960	-0.624412	-0.228387
09695	5.249045	-0.025995	-8.268063	0.469478	4.402031	-0.753133	-0.144072	-0.116561	0.982678	-0.644192	0.764854	-0.003722	-0.751172	-0.633570	-0.185282
09696	5.461443	0.485485	-7.023023	0.364583	4.443453	-0.764098	-0.105650	-0.094089	0.989942	-0.647903	0.761716	0.003251	-0.754360	-0.641043	-0.141436
09697	5.444244	0.970072	-5.978796	0.041616	4.350668	-0.704524	-0.068124	-0.071558	0.995107	-0.648759	0.760924	0.010305	-0.757938	-0.644883	-0.098261
09698	5.708928	1.235194	-4.756646	-0.234164	4.148486	-0.679925	-0.032164	-0.049982	0.998232	-0.647330	0.762013	0.017297	-0.761531	-0.645629	-0.056864
09699	7.076842	0.566366	-4.558006	-0.482509	3.762360	-0.627145	0.000665	-0.030628	0.999531	-0.643648	0.764949	0.023868	-0.765321	-0.643362	-0.019205
09700	9.477550	-0.306138	-5.728466	-0.446243	3.574532	-0.578001	0.031806	-0.012124	0.999421	-0.640140	0.767684	0.029685	-0.767599	-0.640714	0.016656
09701	10.487645	0.200920	-4.574012	-0.138770	3.354247	-0.526331	0.060965	0.005175	0.998127	-0.638713	0.768647	0.035027	-0.767026	-0.639652	0.050166
09702	9.788904	0.259524	-2.133863	0.004689	2.891486	-0.460121	0.086082	0.020112	0.996085	-0.638415	0.768670	0.039652	-0.764863	-0.639329	0.079008
09703	9.214624	-1.078453	-0.191913	0.177283	2.234811	-0.418148	0.105865	0.031042	0.993896	-0.639234	0.767747	0.044109	-0.761691	-0.640001	0.101120
09704	9.112986	-2.317193	1.209433	0.711843	1.654156	-0.479347	0.121517	0.037981	0.991862	-0.644091	0.763334	0.049680	-0.755235	-0.644886	0.117222
09705	8.604060	-0.873342	3.010570	1.200225	0.953118	-0.520627	0.132100	0.040066	0.990426	-0.652317	0.755843	0.056428	-0.746346	-0.653526	0.125982
09706	7.562063	1.730365	4.764911	1.181327	0.236913	-0.438609	0.136768	0.038308	0.989862	-0.660499	0.748238	0.062303	-0.738265	-0.662324	0.127638
09707	6.717273	3.109711	4.845793	0.448584	-0.504163	-0.285222	0.134993	0.032694	0.990307	-0.663308	0.745448	0.065808	-0.736071	-0.665762	0.122317
09708	6.830154	2.836127	3.369348	-0.516336	-1.121793	-0.150277	0.127733	0.024105	0.991516	-0.659299	0.748914	0.066728	-0.740952	-0.662228	0.111553
09709	9.950997	1.481985	1.023583	-1.411199	-1.214314	0.010714	0.118657	0.016076	0.992805	-0.648672	0.758266	0.065249	-0.751762	-0.651747	0.100402
09710	13.571705	-0.380894	1.954847	-1.776516	-0.749148	0.204726	0.111695	0.012790	0.993660	-0.635446	0.769691	0.061522	-0.764024	-0.638289	0.094098
09711	14.578128	0.818867	4.661942	-1.949233	-0.305008	0.443898	0.106613	0.014183	0.994199	-0.620807	0.782002	0.055417	-0.776680	-0.623114	0.092177
09712	11.969146	2.470464	5.911346	-2.884984	-0.279845	0.526153	0.101235	0.016612	0.994724	-0.598691	0.799566	0.047577	-0.794557	-0.600348	0.090890
09713	10.064120	-1.525845	2.399823	-4.138073	-0.563542	0.437569	0.094201	0.016759	0.995412	-0.565626	0.823708	0.039660	-0.819264	-0.566767	0.087073
09714	10.796368	-7.619482	0.705552	-4.409022	-0.740659	0.249950	0.086699	0.014764	0.996125	-0.529181	0.847848	0.033492	-0.844068	-0.530034	0.081321
09715	11.392977	-13.954999	1.145145	-3.612742	-0.760090	0.033067	0.080094	0.011045	0.996726	-0.498292	0.866475	0.030440	-0.863302	-0.499099	0.074903
09716	12.201583	-18.005581	2.308984	-1.563121	-0.864084	-0.207404	0.073644	0.004962	0.997272	-0.484577	0.874184	0.031434	-0.871643	-0.485570	0.066782
09717	12.539528	-14.964307	2.668727	1.232306	-1.148761	-0.418792	0.065750	-0.004337	0.997827	-0.495017	0.868121	0.036392	-0.866392	-0.496334	0.054932
09718	11.650938	-4.348498	3.499270	3.389034	-1.413216	-0.557066	0.056485	-0.016369	0.998269	-0.523769	0.850744	0.043586	-0.849985	-0.525325	0.039481
09719	11.774818	7.211393	3.467138	4.284081	-1.623813	-0.567837	0.045974	-0.029912	0.998495	-0.559503	0.827285	0.050544	-0.827552	-0.560985	0.021298
09720	11.810270	16.612607	3.764269	3.399717	-1.733013	-0.396596	0.034096	-0.043134	0.998487	-0.587168	0.807598	0.054938	-0.808747	-0.588153	0.002209
09721	9.729951	17.679422	0.967340	0.764007	-1.749731	-0.077880	0.020494	-0.054095	0.998325	-0.593349	0.803017	0.055692	-0.804685	-0.593497	-0.015640
09722	7.623502	10.156699	-3.937282	-1.703717	-1.739765	0.130150	0.005670	-0.063261	0.997981	-0.579575	0.813072	0.054833	-0.814899	-0.578716	-0.032055
09723	7.785982	2.895056	-8.757417	-2.587711	-1.722438	0.140011	-0.009231	-0.071943	0.997366	-0.558262	0.827869	0.054550	-0.829613	-0.556288	-0.047805
09724	8.496719	-0.947810	-10.590548	-2.449412	-1.603577	0.039184	-0.022828	-0.080385	0.996502	-0.537780	0.841254	0.055542	-0.842776	-0.534631	-0.062433
09725	8.980597	-3.091960	-11.205316	-1.780844	-1.399561	-0.037656	-0.034445	-0.088153	0.995511	-0.522632	0.850635	0.057241	-0.851862	-0.518315	-0.075371
09726	9.394001	-4.095761	-11.562611	-0.804767	-1.168652	-0.168430	-0.043520	-0.095623	0.994466	-0.515835	0.854612	0.059601	-0.855582	-0.510387	-0.086519
09727	9.833317	-4.112588	-11.351604	0.329843	-0.931483	-0.255339	-0.050139	-0.102653	0.993453	-0.518690	0.852716	0.061933	-0.853491	-0.512188	-0.096000
09728	9.885868	-3.476214	-10.395071	1.243508	-0.748389	-0.205915	-0.055395	-0.108295	0.992574	-0.529377	0.846062	0.062765	-0.846576	-0.521970	-0.104196
09729	9.648248	-1.361113	-8.744516	1.595969	-0.571849	-0.140686	-0.059457	-0.112591	0.991861	-0.542806	0.837527	0.062533	-0.837751	-0.534670	-0.110912
09730	9.712277	1.788350	-5.501247	1.440258	-0.425157	-0.078007	-0.062546	-0.115561	0.991329	-0.554870	0.829646	0.061705	-0.829583	-0.546199	-0.116012
09731	10.442546	3.576221	-2.922318	0.831395	-0.359637	0.020969	-0.065649	-0.117465	0.990905	-0.561624	0.825169	0.060609	-0.824784	-0.552537	-0.120143
09732	10.566893	3.785165	-1.417411	0.199470	-0.316928	0.069804	-0.068626	-0.118664	0.990560	-0.563230	0.824140	0.059707	-0.823445	-0.553816	-0.123392
09733	10.206103	3.616383	0.074813	-0.195978	-0.300374	0.102469	-0.071689	-0.119591	0.990232	-0.561417	0.825424	0.059043	-0.824422	-0.551701	-0.126315
09734	9.755893	2.697926	0.024211	-0.511371	-0.317927	0.088437	-0.074781	-0.120629	0.989877	-0.557139	0.828331	0.058853	-0.827045	-0.547098	-0.129151
09735	9.327352	1.116038	-0.029543	-0.621905	-0.327732	-0.011742	-0.077442	-0.122626	0.989427	-0.551861	0.831783	0.059894	-0.830333	-0.541388	-0.132087
09736	9.011130	-0.247616	-0.227072	-0.428673	-0.339456	-0.078685	-0.079804	-0.125135	0.988925	-0.548368	0.833989	0.061278	-0.832421	-0.537404	-0.135175
09737	9.067502	-1.179542	-0.458921	-0.053071	-0.358758	-0.081659	-0.082351	-0.127854	0.988368	-0.547864	0.834247	0.062269	-0.832504	-0.536364	-0.138747
09738	9.412042	-1.192476	-0.503230	0.416354	-0.376865	-0.080171	-0.085015	-0.130571	0.987787	-0.551401	0.831895	0.062507	-0.829897	-0.539353	-0.142721
09739	9.825345	0.118302	-0.407696	0.719642	-0.407673	-0.098693	-0.087850	-0.133701	0.987120	-0.557330	0.827933	0.062539	-0.825631	-0.544657	-0.147250
09740	9.942651	1.237714	-0.193569	0.763897	-0.425090	-0.102193	-0.090750	-0.136894	0.986420	-0.563719	0.823603	0.062437	-0.820966	-0.550398	-0.151912
09741	9.845818	2.165287	-0.246538	0.717495	-0.435237	-0.051192	-0.094029	-0.139819	0.985702	-0.569534	0.819631	0.061933	-0.816572	-0.555568	-0.156701
09742	9.687522	2.664511	-0.611485	0.527828	-0.434886	0.014946	-0.097630	-0.142142	0.985020	-0.573830	0.816701	0.060978	-0.813135	-0.559280	-0.161300
09743	9.630447	2.132216	-0.757891	0.268266	-0.447110	0.048928	-0.101546	-0.144345	0.984303	-0.575850	0.815339	0.060159	-0.811224	-0.560702	-0.165916
09744	9.780430	1.168938	-1.194385	0.096097	-0.472637	0.061781	-0.105706	-0.146513	0.983545	-0.576574	0.814881	0.059422	-0.810178	-0.560805	-0.170613
09745	9.795962	0.644957	-1.405842	0.040844	-0.490392	0.111552	-0.110323	-0.148451	0.982747	-0.576674	0.814887	0.058358	-0.809491	-0.560286	-0.175508
09746	9.587429	0.478424	-1.546242	-0.005918	-0.510411	0.154391	-0.115315	-0.150072	0.981927	-0.576461	0.815142	0.056884	-0.808947	-0.559483	-0.180509
09747	9.326040	0.620265	-1.599265	-0.102671	-0.528892	0.156830	-0.120499	-0.151843	0.981032	-0.575337	0.816022	0.055635	-0.808991	-0.557720	-0.185690
09748	9.061648	0.871068	-1.343617	-0.226178	-0.535972	0.140511	-0.125616	-0.153699	0.980101	-0.573343	0.817486	0.054715	-0.809628	-0.555061	-0.190811
09749	9.241569	0.772280	-1.336155	-0.330716	-0.565562	0.128500	-0.130935	-0.155869	0.979061	-0.570392	0.819583	0.054198	-0.810870	-0.551352	-0.196218
09750	9.563907	0.773370	-1.429338	-0.292725	-0.585815	0.110916	-0.136291	-0.158201	0.977956	-0.567878	0.821357	0.053727	-0.811751	-0.548037	-0.201782
09751	9.694586	1.177929	-1.420408	-0.207055	-0.578330	0.098359	-0.141546	-0.160644	0.976810	-0.565955	0.822712	0.053291	-0.812194	-0.545287	-0.207369
09752	9.727444	1.461305	-1.322748	-0.191906	-0.570652	0.097205	-0.146703	-0.162971	0.975663	-0.564266	0.823904	0.052777	-0.812454	-0.542791	-0.212828
09753	9.697920	0.882836	-1.682390	-0.180446	-0.578246	0.102868	-0.151982	-0.165343	0.974455	-0.562540	0.825116	0.052267	-0.812681	-0.540227	-0.218415
09754	9.559754	0.569487	-1.865111	-0.066261	-0.566316	0.107826	-0.157161	-0.167531	0.973259	-0.561845	0.825644	0.051395	-0.812176	-0.538744	-0.223886
09755	9.369521	0.980360	-1.694490	0.023428	-0.547042	0.114518	-0.162245	-0.169617	0.972063	-0.561749	0.825776	0.050330	-0.811243	-0.537889	-0.229260
09756	9.355597	1.706297	-1.485357	0.035161	-0.542428	0.144309	-0.167426	-0.171364	0.970877	-0.561806	0.825824	0.048879	-0.810150	-0.537261	-0.234537
09757	9.026760	2.344794	-1.487317	-0.214371	-0.546237	0.206261	-0.173008	-0.172671	0.969666	-0.559613	0.827392	0.047490	-0.810494	-0.534422	-0.239775
09758	8.726923	1.205635	-1.938072	-0.573972	-0.582883	0.198999	-0.178820	-0.174143	0.968348	-0.554616	0.830779	0.046985	-0.812665	-0.528659	-0.245142
09759	9.255355	-1.380820	-2.754736	-0.612989	-0.631476	0.127700	-0.184662	-0.176484	0.966826	-0.549286	0.834290	0.047379	-0.814975	-0.522315	-0.251002
09760	9.551875	-2.120808	-2.830456	-0.161625	-0.642269	0.080367	-0.190309	-0.179183	0.965233	-0.547829	0.835266	0.047044	-0.814656	-0.519830	-0.257121
09761	9.432183	-1.072225	-2.489805	0.235047	-0.654227	0.050662	-0.195909	-0.182242	0.963539	-0.549546	0.834194	0.046043	-0.812169	-0.520489	-0.263576
09762	9.312644	0.568066	-2.075520	0.364579	-0.678935	0.026002	-0.201528	-0.185588	0.961740	-0.552460	0.832332	0.044851	-0.808810	-0.522284	-0.270268
09763	9.617789	1.576807	-2.123884	0.282068	-0.690003	0.050075	-0.207375	-0.188853	0.959859	-0.554544	0.831007	0.043693	-0.805901	-0.523223	-0.277058
09764	9.437845	1.633798	-2.006829	0.163776	-0.698497	0.091006	-0.213474	-0.191775	0.957941	-0.555682	0.830313	0.042392	-0.803521	-0.523261	-0.283817
09765	9.100276	1.064343	-2.063754	0.044392	-0.721970	0.125601	-0.219966	-0.194579	0.955905	-0.555673	0.830381	0.041161	-0.801775	-0.522116	-0.290778
09766	9.405421	0.054524	-2.516455	0.031852	-0.743842	0.107373	-0.226493	-0.197590	0.953761	-0.555700	0.830416	0.040073	-0.799936	-0.520929	-0.297884
09767	9.753851	-0.252838	-2.741898	0.215988	-0.731004	0.090223	-0.232830	-0.200721	0.951578	-0.557127	0.829527	0.038659	-0.797120	-0.521149	-0.304966
09768	9.357405	0.371818	-2.462284	0.262110	-0.722504	0.091211	-0.239060	-0.203756	0.949386	-0.559009	0.828335	0.037015	-0.793951	-0.521867	-0.311923
09769	9.218303	0.012890	-2.409157	0.137949	-0.764051	0.076362	-0.245541	-0.207176	0.946989	-0.559832	0.827826	0.035949	-0.791390	-0.521328	-0.319249
09770	9.444856	-1.077034	-2.223554	0.159783	-0.790925	0.060409	-0.252101	-0.210821	0.944457	-0.560957	0.827110	0.034892	-0.788526	-0.521003	-0.326776
09771	9.167240	-1.589397	-1.814983	0.249904	-0.818542	0.065362	-0.258904	-0.214608	0.941760	-0.562679	0.825995	0.033538	-0.785087	-0.521225	-0.334609
09772	9.319461	-1.397241	-1.896676	0.401894	-0.875847	0.038071	-0.265948	-0.218888	0.938808	-0.565738	0.823970	0.031849	-0.780520	-0.522649	-0.342966
09773	9.374847	-0.754871	-1.896734	0.592171	-0.902162	0.022993	-0.273087	-0.223480	0.935671	-0.570220	0.820957	0.029655	-0.774773	-0.525439	-0.351626
09774	9.270537	0.236280	-2.082410	0.682105	-0.936867	0.013277	-0.280364	-0.228333	0.932341	-0.575459	0.817381	0.027133	-0.768273	-0.528917	-0.360561
09775	9.261112	1.019781	-2.495912	0.654813	-0.961725	0.002880	-0.287729	-0.233459	0.928821	-0.580408	0.813948	0.024788	-0.761800	-0.531963	-0.369698
09776	9.195306	0.922437	-2.888956	0.564634	-0.979379	0.011471	-0.295199	-0.238610	0.925161	-0.584673	0.810955	0.022598	-0.755656	-0.534245	-0.378901
09777	9.171440	0.664941	-3.071086	0.516263	-0.999856	0.002030	-0.302725	-0.243990	0.921318	-0.588502	0.808232	0.020673	-0.749682	-0.535939	-0.388260
09778	9.285203	0.068771	-2.774811	0.468070	-1.031907	0.008664	-0.310454	-0.249479	0.917267	-0.591985	0.805730	0.018783	-0.743756	-0.537177	-0.397830
09779	9.346261	-0.589948	-2.529327	0.521431	-1.080780	0.026147	-0.318600	-0.255126	0.912910	-0.595717	0.803024	0.016516	-0.737303	-0.538575	-0.407826
09780	9.497477	-0.454813	-2.270200	0.624310	-1.125409	0.026770	-0.326988	-0.261007	0.908270	-0.600226	0.799713	0.013723	-0.729937	-0.540680	-0.418160
09781	9.719693	-0.015375	-2.151355	0.708081	-1.159169	0.010016	-0.335446	-0.267248	0.903357	-0.605297	0.795928	0.010700	-0.721867	-0.543210	-0.428755
09782	9.997948	0.640023	-2.782640	0.696515	-1.182723	-0.001831	-0.343896	-0.273723	0.898227	-0.610318	0.792119	0.007721	-0.713616	-0.545548	-0.439465
09783	9.896288	0.953142	-3.786228	0.551165	-1.176202	-0.004021	-0.352200	-0.280213	0.892993	-0.614217	0.789119	0.005369	-0.706182	-0.546600	-0.450039
09784	9.253962	0.375007	-4.991900	0.364479	-1.179314	-0.003297	-0.360442	-0.286704	0.887627	-0.616806	0.787106	0.003767	-0.699737	-0.546136	-0.460547
09785	9.025854	-0.713848	-5.883536	0.324365	-1.189590	-0.013113	-0.368626	-0.293333	0.882083	-0.619086	0.785319	0.002436	-0.693432	-0.545188	-0.471087
09786	8.941585	-1.349460	-5.667997	0.462643	-1.182280	-0.016467	-0.376651	-0.299930	0.876457	-0.622355	0.782735	0.000406	-0.686155	-0.545314	-0.481481
09787	9.119642	-1.772154	-5.080211	0.648649	-1.203734	-0.007284	-0.384794	-0.306592	0.870595	-0.626781	0.779191	-0.002628	-0.677554	-0.546683	-0.491994
09788	9.220441	-1.792781	-3.998875	0.890429	-1.231024	-0.019863	-0.392917	-0.313516	0.864479	-0.632861	0.774235	-0.006856	-0.667160	-0.549789	-0.502623
09789	9.366605	-0.759499	-2.352403	1.076877	-1.292999	-0.021692	-0.401307	-0.320848	0.857910	-0.640054	0.768235	-0.012089	-0.655198	-0.553960	-0.513658
09790	9.491081	-0.180772	-1.037908	0.997129	-1.372711	-0.006430	-0.410149	-0.328544	0.850786	-0.646570	0.762661	-0.017187	-0.643214	-0.557142	-0.525232
09791	9.671198	-0.045739	-0.384077	0.916041	-1.460895	-0.010733	-0.419358	-0.336805	0.843031	-0.652454	0.757511	-0.021918	-0.631224	-0.559230	-0.537418
09792	10.185770	0.169226	-1.384955	0.727267	-1.539865	-0.023773	-0.428807	-0.345619	0.834669	-0.657122	0.753348	-0.025647	-0.619932	-0.559477	-0.550154
09793	10.000095	-0.258602	-2.822772	0.459783	-1.575695	-0.048336	-0.438136	-0.354804	0.825924	-0.660178	0.750596	-0.027766	-0.610084	-0.557423	-0.563097
09794	9.598986	-1.536398	-3.708712	0.307299	-1.640699	-0.095847	-0.447407	-0.364659	0.816609	-0.662481	0.748529	-0.028705	-0.600788	-0.553831	-0.576477
09795	10.024865	-2.732177	-3.869064	0.304050	-1.710200	-0.120202	-0.456748	-0.375016	0.806687	-0.664869	0.746379	-0.029471	-0.591042	-0.549802	-0.590244
09796	10.772143	-3.643126	-3.200645	0.576869	-1.772153	-0.157005	-0.466041	-0.385927	0.796157	-0.668987	0.742601	-0.031633	-0.579019	-0.547361	-0.604262
09797	11.468017	-3.282125	-1.610136	0.850443	-1.845767	-0.197638	-0.475203	-0.397504	0.784967	-0.674836	0.737125	-0.035254	-0.564605	-0.546477	-0.618534
09798	12.275367	-2.732274	0.108279	1.037005	-1.935394	-0.256283	-0.484205	-0.409980	0.772956	-0.681855	0.730408	-0.039725	-0.548287	-0.546279	-0.633214
09799	13.586787	-2.555214	1.554224	1.085195	-2.029451	-0.382931	-0.492441	-0.423865	0.760158	-0.689672	0.722799	-0.043745	-0.530900	-0.545801	-0.648264
09800	15.359701	-2.318919	2.294586	1.039044	-2.134578	-0.525926	-0.499907	-0.439298	0.746398	-0.697725	0.714850	-0.046578	-0.513101	-0.544065	-0.663867
09801	16.119004	-2.838959	1.994805	0.969373	-2.262520	-0.618767	-0.506838	-0.455997	0.731561	-0.705862	0.706684	-0.048543	-0.494847	-0.540985	-0.680045
09802	15.802525	-2.953094	0.954401	1.131755	-2.398579	-0.609056	-0.514110	-0.473231	0.715362	-0.714477	0.697730	-0.051907	-0.474566	-0.537796	-0.696823
09803	14.480126	-1.214195	-0.430858	1.408963	-2.512590	-0.546143	-0.521638	-0.490536	0.698047	-0.724015	0.687339	-0.058031	-0.451328	-0.535667	-0.713697
09804	13.241622	1.267357	-1.633578	1.568045	-2.569496	-0.383034	-0.530095	-0.506905	0.679740	-0.732931	0.677026	-0.066696	-0.426393	-0.533558	-0.730414
09805	11.867427	3.400654	-3.287143	1.493196	-2.614414	-0.141227	-0.539662	-0.521813	0.660663	-0.740079	0.668117	-0.076833	-0.401308	-0.530407	-0.746740
09806	11.507438	5.939171	-5.260685	1.197931	-2.714938	0.083433	-0.550826	-0.535590	0.640104	-0.744311	0.662221	-0.086403	-0.377614	-0.524030	-0.763414
09807	12.214956	7.134759	-6.162506	0.584623	-2.742885	0.206019	-0.562219	-0.548518	0.618900	-0.745529	0.660057	-0.092256	-0.357905	-0.513276	-0.780033
09808	12.983880	7.346076	-7.768184	0.056265	-2.644567	0.340130	-0.573984	-0.559674	0.597752	-0.743815	0.661635	-0.094752	-0.342463	-0.499003	-0.796062
09809	12.397998	7.432583	-8.383600	-0.174666	-2.392545	0.507890	-0.585558	-0.568148	0.578212	-0.740495	0.665117	-0.096363	-0.329831	-0.484589	-0.810176
09810	11.642652	6.559662	-9.647817	-0.516359	-2.054361	0.683019	-0.597259	-0.573401	0.560797	-0.734796	0.671457	-0.096023	-0.321491	-0.469421	-0.822367
09811	10.130767	5.558405	-11.212733	-0.516989	-1.650617	0.822487	-0.608294	-0.575580	0.546521	-0.728399	0.678350	-0.096310	-0.315299	-0.456671	-0.831889
09812	8.177669	5.165671	-11.717607	-0.557365	-1.236242	0.916940	-0.618788	-0.574921	0.535320	-0.721048	0.686118	-0.096600	-0.311755	-0.445766	-0.839107
09813	5.264756	4.190325	-12.057419	-0.760583	-0.890781	1.052240	-0.628880	-0.571669	0.526977	-0.712308	0.695301	-0.095781	-0.311653	-0.435604	-0.844465
09814	3.483767	3.275412	-11.770359	-0.858983	-0.668266	1.066746	-0.638490	-0.567097	0.520318	-0.702886	0.705053	-0.094082	-0.313498	-0.425795	-0.848774
09815	3.691338	1.952578	-12.774917	-0.800347	-0.354540	1.021809	-0.646544	-0.561428	0.516507	-0.693970	0.714031	-0.092555	-0.316839	-0.418281	-0.851266
09816	4.435113	1.533486	-12.351843	-0.555489	-0.016072	0.876994	-0.652622	-0.555221	0.515571	-0.686527	0.721218	-0.092338	-0.320571	-0.414215	-0.851857
09817	4.608117	0.587756	-11.581420	-0.391124	0.236902	0.786013	-0.657049	-0.548628	0.517004	-0.680269	0.727035	-0.093033	-0.324839	-0.412829	-0.850912
09818	4.855007	-0.026003	-10.660943	-0.202905	0.483206	0.757196	-0.660572	-0.541127	0.520410	-0.674641	0.731978	-0.095224	-0.329400	-0.413992	-0.848591
09819	5.192749	-0.284722	-9.698872	-0.091442	0.848607	0.705069	-0.662321	-0.532495	0.527048	-0.669814	0.736019	-0.098105	-0.335677	-0.418001	-0.844154
09820	5.553900	-0.363842	-9.176539	-0.014260	1.305948	0.612165	-0.661942	-0.522496	0.537429	-0.665737	0.739288	-0.101230	-0.344423	-0.424795	-0.837211
09821	5.817455	0.007471	-9.313699	-0.090264	1.845451	0.561727	-0.659032	-0.510481	0.552346	-0.661847	0.742460	-0.103499	-0.357260	-0.433778	-0.827165
09822	4.915530	0.298196	-9.472099	-0.185272	2.270480	0.500535	-0.654014	-0.496813	0.570476	-0.657909	0.745774	-0.104775	-0.373392	-0.443845	-0.814604
09823	4.081666	0.519849	-9.386783	-0.476407	2.585363	0.447629	-0.646877	-0.481933	0.591009	-0.653300	0.749994	-0.103481	-0.393382	-0.453046	-0.800000
09824	3.041592	0.080776	-10.074765	-0.814805	2.842778	0.381141	-0.637811	-0.466099	0.613146	-0.647575	0.755503	-0.099308	-0.416946	-0.460398	-0.783702
09825	2.214627	-0.827924	-10.430020	-1.075452	2.946822	0.306739	-0.626973	-0.450176	0.635804	-0.641125	0.761801	-0.092833	-0.442565	-0.465834	-0.766248
09826	2.009682	-2.046695	-10.281889	-1.251957	2.978359	0.226052	-0.614811	-0.434538	0.658167	-0.634039	0.768638	-0.084799	-0.469044	-0.469439	-0.748081
09827	2.448755	-2.972592	-10.182590	-1.292563	3.089488	0.150893	-0.600716	-0.418861	0.680952	-0.626978	0.775301	-0.076206	-0.496023	-0.472720	-0.728352
09828	2.944269	-3.412741	-10.432321	-1.113901	3.311699	0.067653	-0.584243	-0.402617	0.704670	-0.620927	0.780855	-0.068666	-0.522599	-0.477666	-0.706205
09829	2.932523	-3.688562	-10.352749	-0.840277	3.520751	0.007114	-0.565310	-0.385649	0.729178	-0.616470	0.784868	-0.062828	-0.548079	-0.485033	-0.681434
09830	2.377363	-3.791215	-9.288302	-0.396252	3.622983	-0.064088	-0.544620	-0.368408	0.753435	-0.614631	0.786553	-0.059684	-0.570629	-0.495590	-0.654808
09831	2.107311	-3.555340	-8.223683	0.124021	3.657417	-0.158741	-0.522309	-0.351299	0.777034	-0.616271	0.785305	-0.059208	-0.589409	-0.509789	-0.626668
09832	2.306396	-2.588136	-8.039612	0.553283	3.738001	-0.272467	-0.498268	-0.334076	0.800076	-0.620988	0.781488	-0.060422	-0.605064	-0.526944	-0.596848
09833	2.661232	-1.311093	-8.103374	0.668774	3.823097	-0.411247	-0.472182	-0.316819	0.822600	-0.627143	0.776518	-0.060916	-0.619464	-0.544651	-0.565349
09834	2.383658	-0.614732	-8.041447	0.601678	3.854329	-0.558942	-0.444483	-0.299852	0.844111	-0.633495	0.771453	-0.059537	-0.633340	-0.561203	-0.532852
09835	2.654324	-0.346525	-7.676268	0.441815	3.805622	-0.699638	-0.415567	-0.283621	0.864212	-0.639377	0.766867	-0.055779	-0.646916	-0.575738	-0.500026
09836	3.166091	-0.739451	-7.885735	0.268375	3.887834	-0.831654	-0.384776	-0.267368	0.883438	-0.644479	0.763000	-0.049781	-0.660753	-0.588511	-0.465897
09837	3.407922	-1.313954	-7.869590	0.265139	3.981125	-0.939970	-0.352037	-0.250869	0.901740	-0.649735	0.758972	-0.042505	-0.673732	-0.600855	-0.430184
09838	3.793047	-1.425888	-7.515978	0.365461	4.102849	-0.988906	-0.317673	-0.233455	0.919012	-0.655546	0.754345	-0.034976	-0.685086	-0.613565	-0.392676
09839	3.754497	-1.077470	-7.092938	0.476138	4.209821	-0.985441	-0.282058	-0.214787	0.935045	-0.661791	0.749182	-0.027538	-0.694604	-0.626572	-0.353457
09840	4.079743	-0.263806	-7.081005	0.576612	4.267128	-0.974686	-0.245741	-0.195062	0.949506	-0.668405	0.743522	-0.020244	-0.702030	-0.639630	-0.313094
09841	4.425720	0.429165	-7.269234	0.551091	4.309805	-0.969784	-0.208767	-0.174457	0.962279	-0.674481	0.738187	-0.012499	-0.708161	-0.651648	-0.271777
09842	4.750246	1.183827	-8.030624	0.584869	4.349767	-0.949646	-0.171399	-0.152862	0.973270	-0.680452	0.732777	-0.004742	-0.712465	-0.663077	-0.229613
09843	5.303413	2.139496	-7.237412	0.558440	4.345088	-0.898847	-0.134173	-0.130450	0.982334	-0.685771	0.727811	0.002983	-0.715343	-0.673256	-0.187111
09844	6.047397	2.421308	-6.614706	0.229479	4.256056	-0.826607	-0.097940	-0.107671	0.989351	-0.688385	0.725265	0.010785	-0.718703	-0.679998	-0.145152
09845	7.192958	1.519572	-5.013784	-0.139357	4.162365	-0.755058	-0.062677	-0.084868	0.994419	-0.687914	0.725555	0.018563	-0.723081	-0.682911	-0.103857
09846	7.853168	-0.227431	-4.811585	-0.444051	4.046829	-0.664552	-0.028718	-0.062081	0.997658	-0.685002	0.728092	0.025588	-0.727975	-0.682663	-0.063435
09847	8.685069	-1.590489	-4.892891	-0.162318	3.871913	-0.600723	0.003671	-0.040118	0.999188	-0.683803	0.728974	0.031781	-0.729658	-0.683364	-0.024756
09848	9.299605	-1.499466	-5.098866	0.437165	3.650783	-0.539419	0.033974	-0.019030	0.999242	-0.686887	0.725812	0.037177	-0.725969	-0.687629	0.011587
09849	9.227032	0.014993	-4.036646	0.997440	3.369500	-0.477120	0.061642	0.000695	0.998098	-0.693757	0.718963	0.042345	-0.717566	-0.695048	0.044800
09850	9.337000	1.869942	-1.006270	1.240617	2.991573	-0.398380	0.085760	0.018754	0.996139	-0.702301	0.710321	0.047090	-0.706695	-0.703628	0.074088
09851	9.300321	2.835015	1.132755	0.856040	2.475778	-0.258465	0.105031	0.034270	0.993878	-0.707956	0.704447	0.050525	-0.698403	-0.708929	0.098250
09852	9.340072	2.857093	4.050097	0.200948	1.807839	-0.185059	0.118969	0.045774	0.991842	-0.709150	0.703092	0.052613	-0.694948	-0.709624	0.116107
09853	8.320735	0.486051	4.112269	-0.747191	0.975586	-0.054535	0.126218	0.052137	0.990632	-0.703760	0.708504	0.052379	-0.699136	-0.703778	0.126117
09854	6.906292	-1.291207	4.053182	-1.146783	0.159910	-0.032683	0.127602	0.053006	0.990408	-0.695656	0.716542	0.051278	-0.706951	-0.695527	0.128306
09855	6.456910	-2.728797	2.890963	-1.161001	-0.516838	-0.050992	0.124342	0.048933	0.991032	-0.687232	0.724685	0.050444	-0.715718	-0.687341	0.123737
09856	6.477611	-2.703743	1.225955	-0.993992	-1.075110	-0.035681	0.116879	0.041302	0.992287	-0.680034	0.731497	0.049653	-0.723804	-0.680592	0.113583
09857	9.128156	-1.504569	-0.536674	-0.889806	-1.260654	0.019844	0.107631	0.032793	0.993650	-0.673496	0.737591	0.048610	-0.731313	-0.674451	0.101474
09858	13.121912	0.808281	0.874106	-0.826995	-0.881397	0.126671	0.100338	0.027794	0.994565	-0.667553	0.743104	0.046581	-0.737770	-0.668599	0.093115
09859	14.485909	3.521916	2.706440	-1.259039	-0.416797	0.319818	0.095178	0.027305	0.995086	-0.658435	0.751445	0.042358	-0.746596	-0.659230	0.089500
09860	11.431089	3.994931	2.602125	-2.293642	-0.290788	0.375750	0.090573	0.028246	0.995489	-0.641486	0.766260	0.036623	-0.761770	-0.641909	0.087522
09861	9.235598	0.630292	-0.741794	-3.214730	-0.458093	0.282319	0.085319	0.027436	0.995976	-0.616814	0.786491	0.031173	-0.782471	-0.616992	0.084026
09862	10.070795	-4.947850	-1.510905	-3.495522	-0.573787	0.129580	0.080015	0.024987	0.996480	-0.589192	0.807540	0.027061	-0.804021	-0.589284	0.079338
09863	11.803505	-11.350426	-0.817615	-2.865815	-0.583267	-0.033885	0.075523	0.021228	0.996918	-0.565783	0.824166	0.025312	-0.821088	-0.565951	0.074253
09864	14.000736	-15.227173	1.638749	-1.118044	-0.624258	-0.171969	0.071369	0.016278	0.997317	-0.556441	0.830472	0.026264	-0.827817	-0.556822	0.068328
09865	14.591370	-10.777753	3.718616	1.075031	-0.839538	-0.237153	0.065802	0.009546	0.997787	-0.565112	0.824491	0.029380	-0.822386	-0.565795	0.059648
09866	13.255117	0.040326	4.745712	2.194997	-1.203944	-0.219201	0.057259	0.000810	0.998359	-0.582902	0.811881	0.032773	-0.810523	-0.583822	0.046959
09867	11.973541	8.547753	4.845793	1.586683	-1.418100	-0.110181	0.046504	-0.008471	0.998882	-0.595639	0.802509	0.034536	-0.801905	-0.596580	0.032274
09868	9.748281	10.445126	3.124927	-0.045867	-1.445513	0.039570	0.034699	-0.016795	0.999257	-0.595290	0.802784	0.034164	-0.802761	-0.596033	0.017858
09869	7.472107	6.118360	0.173415	-1.615945	-1.395087	0.116530	0.022790	-0.024123	0.999449	-0.582247	0.812346	0.032884	-0.812692	-0.582676	0.004468
09870	7.191385	1.311807	-3.127125	-2.156163	-1.370315	0.087654	0.011092	-0.031289	0.999449	-0.564606	0.824737	0.032086	-0.825286	-0.564651	-0.008518
09871	8.660636	-0.376098	-5.855773	-1.819741	-1.344237	-0.063356	0.000328	-0.039364	0.999225	-0.549447	0.834874	0.033070	-0.835528	-0.549032	-0.021355
09872	10.454063	-0.443660	-7.464784	-1.261994	-1.247190	-0.253899	-0.008726	-0.048294	0.998795	-0.538875	0.841617	0.035986	-0.842341	-0.537911	-0.033368
09873	10.858018	-0.680450	-6.959100	-0.661476	-1.108246	-0.331358	-0.016273	-0.057091	0.998236	-0.533272	0.845015	0.039635	-0.845787	-0.531687	-0.044196
09874	10.543961	-0.411684	-6.143579	-0.041803	-1.050215	-0.280469	-0.023633	-0.065064	0.997601	-0.532980	0.845061	0.042489	-0.845798	-0.530697	-0.054649
09875	10.184271	-0.428555	-5.596702	0.382171	-0.982284	-0.226232	-0.030703	-0.072283	0.996912	-0.536195	0.842915	0.044603	-0.843535	-0.533170	-0.064637
09876	9.226998	0.827029	-4.585872	0.673633	-0.901086	-0.119969	-0.037612	-0.078142	0.996232	-0.541911	0.839211	0.045366	-0.839594	-0.538163	-0.073910
09877	9.152823	1.626655	-3.608834	0.425616	-0.826012	-0.058903	-0.044208	-0.083184	0.995553	-0.545418	0.836917	0.045709	-0.836998	-0.540972	-0.082368
09878	9.574689	1.795025	-3.358990	-0.018300	-0.755425	-0.031873	-0.050329	-0.087557	0.994887	-0.545286	0.836983	0.046076	-0.836738	-0.540179	-0.089868
09879	9.968889	1.343268	-3.460140	-0.402162	-0.711185	-0.037182	-0.056081	-0.091796	0.994197	-0.541839	0.839172	0.046918	-0.838609	-0.536063	-0.096800
