// General information: 
//  MT Manager version: 2022.2.0 
//  XDA version: 2022.2.0 build 7381 rev 124627 built on 2023-07-19
// Device information: 
//  DeviceId: 00B4CB9F
//  ProductCode: MTW2-3A7G6
//  Firmware Version: 4.6.0
//  Hardware Version: 2.0.0
// Device settings: 
//  Filter Profile: human(46.1)
//  Option Flags: Orientation Smoother Disabled, Position/Velocity Smoother Disabled, Continuous Zero Rotation Update Disabled, AHS Disabled, ICC Disabled
// Coordinate system: ENU
PacketCounter	Acc_X	Acc_Y	Acc_Z	Gyr_X	Gyr_Y	Gyr_Z	Mat[1][1]	Mat[2][1]	Mat[3][1]	Mat[1][2]	Mat[2][2]	Mat[3][2]	Mat[1][3]	Mat[2][3]	Mat[3][3]
64496	9.782936	-0.492870	-0.385780	-0.000722	-0.068850	-0.039437	0.036258	-0.004442	0.999333	0.602873	-0.797432	-0.025418	0.797013	0.603392	-0.026235
64497	9.758914	-0.498947	-0.369581	0.018128	-0.064882	-0.043983	0.036507	-0.003722	0.999326	0.603365	-0.797073	-0.025011	0.796629	0.603872	-0.026853
64498	9.734949	-0.504832	-0.352985	0.037279	-0.063370	-0.045070	0.036776	-0.003004	0.999319	0.603704	-0.796829	-0.024613	0.796360	0.604198	-0.027491
64499	9.757610	-0.522285	-0.345178	0.049237	-0.070042	-0.049789	0.036972	-0.002229	0.999314	0.604072	-0.796564	-0.024126	0.796071	0.604550	-0.028104
64500	9.726839	-0.438749	-0.349104	0.055936	-0.071248	-0.052618	0.037257	-0.001403	0.999305	0.604562	-0.796207	-0.023658	0.795686	0.605023	-0.028816
64501	9.720709	-0.419070	-0.408384	0.048793	-0.077674	-0.057039	0.037485	-0.000513	0.999297	0.605160	-0.795768	-0.023109	0.795221	0.605601	-0.029519
64502	9.750884	-0.311433	-0.392109	0.029320	-0.099477	-0.063448	0.037928	0.000570	0.999280	0.605443	-0.795570	-0.022526	0.794985	0.605861	-0.030520
64503	9.744444	-0.290500	-0.454612	0.020067	-0.112092	-0.070732	0.038420	0.001803	0.999260	0.606027	-0.795143	-0.021866	0.794515	0.606419	-0.031642
64504	9.738323	-0.252528	-0.536781	0.002754	-0.123996	-0.084333	0.038930	0.003201	0.999237	0.606108	-0.795104	-0.021066	0.794429	0.606465	-0.032894
64505	9.709053	-0.191806	-0.634617	-0.013966	-0.145977	-0.088634	0.039654	0.004798	0.999202	0.606171	-0.795077	-0.020239	0.794345	0.606490	-0.034436
64506	9.723801	-0.221887	-0.650990	-0.015512	-0.161715	-0.099221	0.040373	0.006543	0.999163	0.606114	-0.795144	-0.019284	0.794353	0.606385	-0.036068
64507	9.715216	-0.245369	-0.664403	-0.003254	-0.177347	-0.105922	0.041238	0.008482	0.999113	0.606716	-0.794708	-0.018295	0.793848	0.606933	-0.037918
64508	9.745508	-0.190965	-0.708172	0.004747	-0.186049	-0.112742	0.042067	0.010483	0.999060	0.606827	-0.794648	-0.017213	0.793720	0.606980	-0.039790
64509	9.753236	-0.204440	-0.780354	0.004386	-0.193531	-0.120058	0.042869	0.012607	0.999001	0.607716	-0.793992	-0.016059	0.792996	0.607798	-0.041699
64510	9.728420	-0.202873	-0.776600	0.011414	-0.203651	-0.124891	0.043761	0.014812	0.998932	0.607887	-0.793884	-0.014858	0.792816	0.607889	-0.043745
64511	9.742057	-0.123405	-0.803030	0.025511	-0.210495	-0.132297	0.044677	0.017166	0.998854	0.608994	-0.793058	-0.013610	0.791915	0.608904	-0.045886
64512	9.770791	-0.162714	-0.739035	0.042437	-0.207439	-0.133861	0.045540	0.019467	0.998773	0.609418	-0.792753	-0.012336	0.791540	0.609232	-0.047966
64513	9.782969	-0.088236	-0.641390	0.053944	-0.209083	-0.137258	0.046401	0.021850	0.998684	0.610690	-0.791792	-0.011051	0.790509	0.610399	-0.050084
64514	9.843118	-0.067280	-0.621530	0.062303	-0.187405	-0.132834	0.047107	0.024022	0.998601	0.611272	-0.791360	-0.009799	0.790017	0.610879	-0.051962
64515	9.833735	-0.046047	-0.566753	0.061246	-0.167822	-0.126006	0.047659	0.026023	0.998525	0.612009	-0.790804	-0.008601	0.789413	0.611516	-0.053615
64516	9.801080	0.011991	-0.542586	0.048714	-0.158220	-0.118830	0.048216	0.027907	0.998447	0.612478	-0.790452	-0.007484	0.789016	0.611888	-0.055205
64517	9.831387	-0.012438	-0.492315	0.017320	-0.155980	-0.113732	0.048650	0.029697	0.998374	0.612844	-0.790178	-0.006359	0.788705	0.612158	-0.056642
64518	9.861985	-0.036958	-0.441241	-0.018475	-0.140102	-0.111787	0.049106	0.031414	0.998299	0.612781	-0.790235	-0.005276	0.788725	0.611998	-0.058055
64519	9.901352	-0.102693	-0.424227	-0.042422	-0.128783	-0.101190	0.049467	0.032987	0.998231	0.612964	-0.790099	-0.004266	0.788560	0.612091	-0.059304
64520	9.932820	-0.144588	-0.351602	-0.065027	-0.099853	-0.089269	0.049743	0.034280	0.998174	0.612524	-0.790445	-0.003379	0.788885	0.611573	-0.060316
64521	9.920583	-0.309767	-0.348782	-0.087266	-0.073415	-0.073849	0.049822	0.035271	0.998135	0.611979	-0.790870	-0.002600	0.789303	0.610967	-0.060988
64522	9.944201	-0.324170	-0.341459	-0.089082	-0.042824	-0.059952	0.049829	0.035983	0.998109	0.611334	-0.791370	-0.001990	0.789803	0.610277	-0.061431
64523	9.976773	-0.396597	-0.348216	-0.088563	-0.013456	-0.045856	0.049675	0.036408	0.998102	0.610763	-0.791812	-0.001514	0.790254	0.609678	-0.061570
64524	9.921912	-0.351452	-0.408214	-0.082345	0.025013	-0.029615	0.049332	0.036466	0.998117	0.610155	-0.792281	-0.001211	0.790745	0.609065	-0.061335
64525	9.829104	-0.337397	-0.490824	-0.087263	0.039627	-0.021107	0.048767	0.036281	0.998151	0.609121	-0.793077	-0.000933	0.791577	0.608040	-0.060776
64526	9.812513	-0.273902	-0.627221	-0.107357	0.056786	-0.018559	0.048239	0.036059	0.998185	0.608308	-0.793701	-0.000725	0.792234	0.607239	-0.060223
64527	9.749148	-0.183354	-0.771288	-0.128441	0.049007	-0.020086	0.047726	0.035886	0.998216	0.607448	-0.794359	-0.000486	0.792924	0.606387	-0.059710
64528	9.723592	-0.052207	-0.784222	-0.144268	0.047975	-0.029114	0.047203	0.035802	0.998243	0.606346	-0.795201	-0.000152	0.793799	0.605288	-0.059245
64529	9.707503	-0.002131	-0.902949	-0.164073	0.026123	-0.040054	0.046745	0.035971	0.998259	0.605915	-0.795529	0.000293	0.794155	0.604847	-0.058982
64530	9.698612	0.060282	-0.884063	-0.175473	0.003170	-0.050630	0.046447	0.036330	0.998260	0.604574	-0.796549	0.000860	0.795194	0.603482	-0.058962
64531	9.636960	0.059075	-0.923377	-0.170521	-0.016114	-0.065439	0.046263	0.037000	0.998244	0.604020	-0.796968	0.001547	0.795626	0.602887	-0.059219
64532	9.690497	0.074814	-0.921272	-0.167879	-0.049343	-0.081988	0.046196	0.037926	0.998212	0.602751	-0.797926	0.002422	0.796591	0.601562	-0.059721
64533	9.684077	0.010164	-0.993163	-0.163003	-0.058235	-0.101480	0.046103	0.039120	0.998170	0.602177	-0.798355	0.003475	0.797031	0.600915	-0.060364
64534	9.708165	-0.040912	-1.056181	-0.134838	-0.073898	-0.107219	0.046082	0.040395	0.998121	0.601181	-0.799099	0.004585	0.797783	0.599840	-0.061109
64535	9.707339	-0.028719	-1.064151	-0.085050	-0.089496	-0.119980	0.046123	0.041921	0.998056	0.601149	-0.799116	0.005785	0.797805	0.599713	-0.062058
64536	9.846703	-0.054552	-0.980297	-0.045200	-0.097747	-0.122527	0.046201	0.043462	0.997986	0.600876	-0.799312	0.006993	0.798006	0.599342	-0.063044
64537	9.807571	-0.047323	-0.927361	-0.008747	-0.091154	-0.121633	0.046244	0.045011	0.997916	0.601442	-0.798875	0.008163	0.797577	0.599811	-0.064015
64538	9.752508	-0.018096	-0.853447	0.031762	-0.094019	-0.121931	0.046294	0.046525	0.997844	0.601783	-0.798606	0.009316	0.797317	0.600054	-0.064969
64539	9.728047	0.023013	-0.769765	0.059687	-0.100993	-0.117215	0.046274	0.047986	0.997776	0.602541	-0.798020	0.010436	0.796746	0.600718	-0.065841
64540	9.773554	0.048997	-0.702542	0.067442	-0.105632	-0.119937	0.046426	0.049554	0.997692	0.603165	-0.797533	0.011545	0.796264	0.601237	-0.066915
64541	9.827291	0.051540	-0.689890	0.064165	-0.104123	-0.118893	0.046514	0.051103	0.997610	0.604047	-0.796848	0.012655	0.795590	0.602014	-0.067933
64542	9.811918	0.052633	-0.642634	0.068507	-0.095679	-0.117388	0.046600	0.052590	0.997528	0.604678	-0.796352	0.013736	0.795106	0.602543	-0.068910
64543	9.805564	0.013093	-0.630687	0.092062	-0.089279	-0.107240	0.046654	0.054036	0.997448	0.606564	-0.794899	0.014692	0.793665	0.604331	-0.069862
64544	9.757564	0.048930	-0.646881	0.092475	-0.088228	-0.105378	0.046749	0.055383	0.997370	0.607379	-0.794259	0.015635	0.793036	0.605050	-0.070769
64545	9.764953	0.034944	-0.710112	0.089223	-0.094955	-0.109000	0.046809	0.056868	0.997284	0.609254	-0.792801	0.016611	0.791592	0.606822	-0.071758
64546	9.823568	0.102768	-0.735666	0.092521	-0.084585	-0.107023	0.046860	0.058206	0.997204	0.610069	-0.792154	0.017569	0.790962	0.607540	-0.072630
64547	9.816568	0.078686	-0.740508	0.106489	-0.073022	-0.106097	0.046739	0.059494	0.997134	0.611807	-0.790791	0.018505	0.789625	0.609189	-0.073360
64548	9.844775	0.158830	-0.686029	0.113711	-0.056976	-0.103741	0.046588	0.060637	0.997072	0.612786	-0.790011	0.019412	0.788875	0.610087	-0.073963
64549	9.858640	0.203390	-0.660616	0.110591	-0.041194	-0.098425	0.046219	0.061553	0.997033	0.613607	-0.789351	0.020287	0.788258	0.610849	-0.074253
64550	9.840311	0.292098	-0.592113	0.119850	-0.017724	-0.085406	0.045868	0.062311	0.997002	0.614624	-0.788541	0.021007	0.787486	0.611818	-0.074467
64551	9.869472	0.328496	-0.602489	0.103504	-0.011570	-0.077206	0.045432	0.062893	0.996986	0.615285	-0.788007	0.021672	0.786995	0.612446	-0.074498
64552	9.815413	0.326693	-0.607578	0.098794	0.002093	-0.065898	0.045043	0.063375	0.996973	0.616125	-0.787336	0.022212	0.786360	0.613259	-0.074511
64553	9.836523	0.359797	-0.649705	0.085080	0.004929	-0.062609	0.044636	0.063884	0.996959	0.617565	-0.786191	0.022729	0.785252	0.614672	-0.074545
64554	9.824118	0.297484	-0.643206	0.063164	0.000182	-0.055744	0.044324	0.064297	0.996946	0.618119	-0.785743	0.023194	0.784834	0.615203	-0.074570
64555	9.832054	0.277896	-0.697095	0.046764	0.006252	-0.047516	0.043936	0.064632	0.996942	0.619140	-0.784926	0.023601	0.784050	0.616210	-0.074502
64556	9.825934	0.247830	-0.692969	0.039459	0.013211	-0.035142	0.043648	0.064802	0.996943	0.619498	-0.784635	0.023879	0.783784	0.616562	-0.074393
64557	9.849318	0.245941	-0.696682	0.028003	0.023042	-0.027033	0.043388	0.064979	0.996943	0.620598	-0.783760	0.024075	0.782928	0.617656	-0.074332
64558	9.833217	0.270421	-0.673399	0.024265	0.034738	-0.016204	0.043049	0.064868	0.996965	0.620828	-0.783574	0.024176	0.782764	0.617903	-0.074004
64559	9.791832	0.304924	-0.767829	0.015299	0.048160	-0.016149	0.042569	0.064739	0.996994	0.621763	-0.782829	0.024285	0.782048	0.618860	-0.073576
64560	9.736347	0.329880	-0.804323	-0.001083	0.047699	-0.013347	0.042147	0.064525	0.997026	0.621794	-0.782801	0.024376	0.782046	0.618917	-0.073114
64561	9.760032	0.326557	-0.805040	-0.013155	0.047395	-0.013704	0.041733	0.064470	0.997047	0.623032	-0.781814	0.024475	0.781082	0.620170	-0.072795
64562	9.776665	0.305797	-0.820741	-0.017634	0.049327	-0.019889	0.041258	0.064297	0.997078	0.622936	-0.781884	0.024643	0.781184	0.620099	-0.072312
64563	9.738569	0.292841	-0.859174	-0.020948	0.048979	-0.018007	0.040633	0.064056	0.997119	0.623413	-0.781499	0.024800	0.780836	0.620609	-0.071688
64564	9.754241	0.288296	-0.893497	-0.011799	0.043395	-0.019278	0.040208	0.063913	0.997145	0.623363	-0.781534	0.024957	0.780898	0.620580	-0.071265
64565	9.746578	0.288390	-0.922576	-0.007827	0.047396	-0.018136	0.039662	0.063789	0.997175	0.624433	-0.780675	0.025104	0.780071	0.621673	-0.070795
64566	9.706208	0.333243	-0.911115	-0.001875	0.036293	-0.015168	0.039318	0.063659	0.997197	0.624459	-0.780650	0.025213	0.780067	0.621718	-0.070446
64567	9.731799	0.298429	-0.876216	0.022853	0.034428	-0.025373	0.038886	0.063711	0.997211	0.625710	-0.779641	0.025411	0.779086	0.622977	-0.070182
64568	9.803134	0.270533	-0.870310	0.025872	0.036910	-0.022182	0.038494	0.063630	0.997231	0.625956	-0.779439	0.025571	0.778908	0.623238	-0.069834
64569	9.795441	0.270565	-0.900236	0.028549	0.038438	-0.020900	0.038028	0.063581	0.997252	0.627149	-0.778475	0.025718	0.777971	0.624447	-0.069478
64570	9.797717	0.239920	-0.859400	0.043291	0.045083	-0.013041	0.037629	0.063377	0.997280	0.627526	-0.778169	0.025775	0.777686	0.624850	-0.069053
64571	9.740884	0.306243	-0.827690	0.062877	0.041193	-0.009488	0.037181	0.063146	0.997311	0.628507	-0.777376	0.025789	0.776915	0.625859	-0.068592
64572	9.795269	0.325363	-0.713691	0.069094	0.034501	-0.006170	0.036909	0.062955	0.997334	0.629082	-0.776912	0.025760	0.776462	0.626454	-0.068278
64573	9.805951	0.268782	-0.727389	0.076169	0.037571	-0.000273	0.036568	0.062725	0.997361	0.630457	-0.775800	0.025676	0.775363	0.627854	-0.067915
64574	9.735108	0.298147	-0.726825	0.078598	0.034722	0.000667	0.036337	0.062479	0.997385	0.631102	-0.775278	0.025573	0.774848	0.628522	-0.067602
64575	9.713789	0.270415	-0.682450	0.078614	0.015227	-0.001147	0.036184	0.062476	0.997390	0.633022	-0.773714	0.025500	0.773288	0.630447	-0.067545
64576	9.767609	0.278727	-0.676424	0.078208	0.017726	-0.004640	0.036052	0.062377	0.997401	0.633665	-0.773189	0.025450	0.772767	0.631101	-0.067401
64577	9.722571	0.245582	-0.733436	0.063458	0.015869	-0.006311	0.035987	0.062447	0.997399	0.634863	-0.772206	0.025441	0.771786	0.632296	-0.067435
64578	9.750179	0.306777	-0.777754	0.052373	0.015331	-0.007957	0.035853	0.062388	0.997408	0.635306	-0.771841	0.025442	0.771427	0.632747	-0.067309
64579	9.759039	0.293342	-0.724796	0.049526	0.005971	-0.007991	0.035725	0.062406	0.997411	0.636225	-0.771084	0.025457	0.770676	0.633668	-0.067251
64580	9.806815	0.268489	-0.715758	0.058433	0.015532	-0.007783	0.035590	0.062345	0.997420	0.636715	-0.770679	0.025453	0.770278	0.634166	-0.067124
64581	9.768910	0.264465	-0.651905	0.060777	0.016113	-0.008412	0.035422	0.062282	0.997430	0.637304	-0.770192	0.025460	0.769798	0.634764	-0.066974
64582	9.754370	0.255758	-0.593437	0.063241	0.011540	-0.006667	0.035325	0.062237	0.997436	0.637829	-0.769757	0.025442	0.769367	0.635295	-0.066888
64583	9.827408	0.194670	-0.552166	0.065168	0.014592	-0.010785	0.035052	0.062244	0.997445	0.639550	-0.768327	0.025471	0.767950	0.637024	-0.066739
64584	9.805939	0.168197	-0.508486	0.063519	0.015977	-0.006364	0.034923	0.062168	0.997455	0.640077	-0.767889	0.025450	0.767517	0.637559	-0.066609
64585	9.823431	0.129879	-0.508559	0.061530	0.016392	-0.003846	0.034747	0.062096	0.997465	0.641203	-0.766950	0.025409	0.766584	0.638695	-0.066465
64586	9.864345	0.086156	-0.513469	0.085103	0.021447	0.007022	0.034662	0.061882	0.997481	0.641890	-0.766381	0.025240	0.766013	0.639399	-0.066286
64587	9.813156	0.184485	-0.488039	0.104219	0.028401	0.011678	0.034484	0.061515	0.997510	0.642581	-0.765809	0.025012	0.765441	0.640119	-0.065936
64588	9.769235	0.144662	-0.419746	0.107157	0.019683	0.017706	0.034481	0.061231	0.997528	0.643432	-0.765104	0.024723	0.764727	0.640989	-0.065780
64589	9.823050	0.151085	-0.413207	0.106145	0.021646	0.018150	0.034443	0.060931	0.997548	0.644399	-0.764299	0.024434	0.763914	0.641977	-0.065589
64590	9.807596	0.155960	-0.371818	0.109259	0.037202	0.017619	0.034307	0.060535	0.997576	0.645264	-0.763578	0.024144	0.763189	0.642872	-0.065257
64591	9.800853	0.135560	-0.383488	0.100002	0.031532	0.021696	0.034248	0.060224	0.997597	0.646638	-0.762425	0.023828	0.762028	0.644268	-0.065055
64592	9.777597	0.137802	-0.375542	0.087943	0.029453	0.022110	0.034201	0.059843	0.997622	0.647337	-0.761841	0.023508	0.761436	0.644993	-0.064794
64593	9.777730	0.135221	-0.373013	0.071230	0.024504	0.024582	0.034191	0.059408	0.997648	0.647446	-0.761759	0.023173	0.761344	0.645131	-0.064509
64594	9.766535	0.204514	-0.373480	0.068652	0.022686	0.031856	0.034258	0.058997	0.997670	0.647994	-0.761305	0.022769	0.760875	0.645704	-0.064311
64595	9.748462	0.255498	-0.389380	0.040159	0.013435	0.029717	0.034393	0.058775	0.997679	0.649181	-0.760304	0.022412	0.759856	0.646903	-0.064305
64596	9.741668	0.234499	-0.403237	0.010581	0.007809	0.027245	0.034545	0.058496	0.997690	0.649288	-0.760221	0.022091	0.759757	0.647025	-0.064242
64597	9.756566	0.240269	-0.459905	-0.017356	0.005654	0.026503	0.034716	0.058302	0.997695	0.649652	-0.759919	0.021802	0.759438	0.647398	-0.064257
64598	9.763567	0.255821	-0.444609	-0.047257	0.002204	0.029082	0.034922	0.058044	0.997703	0.649320	-0.760211	0.021500	0.759713	0.647078	-0.064238
64599	9.720317	0.188362	-0.464948	-0.076970	0.003467	0.023393	0.035044	0.057779	0.997714	0.648787	-0.760673	0.021264	0.760163	0.646558	-0.064143
64600	9.758583	0.190105	-0.527047	-0.103469	-0.001289	0.024863	0.035249	0.057576	0.997719	0.648028	-0.761326	0.021040	0.760800	0.645808	-0.064147
64601	9.791558	0.142683	-0.566783	-0.118313	0.000255	0.021595	0.035393	0.057322	0.997728	0.646856	-0.762327	0.020852	0.761791	0.644648	-0.064060
64602	9.799514	0.131679	-0.638281	-0.128175	0.010502	0.024328	0.035504	0.057047	0.997740	0.645907	-0.763137	0.020649	0.762590	0.643714	-0.063941
64603	9.753808	0.112318	-0.713802	-0.130241	0.016127	0.024426	0.035538	0.056661	0.997761	0.644613	-0.764235	0.020440	0.763682	0.642444	-0.063684
64604	9.739273	0.090459	-0.760609	-0.141593	0.016066	0.028603	0.035633	0.056317	0.997777	0.643558	-0.765131	0.020203	0.764567	0.641408	-0.063507
64605	9.724742	0.068550	-0.807497	-0.130782	0.015727	0.028315	0.035756	0.056085	0.997786	0.643287	-0.765364	0.019969	0.764789	0.641149	-0.063445
64606	9.701500	0.071458	-0.800760	-0.107540	0.016690	0.030330	0.035857	0.055724	0.997802	0.642491	-0.766040	0.019692	0.765454	0.640373	-0.063270
64607	9.701804	0.057933	-0.905563	-0.094146	0.003119	0.035790	0.036096	0.055409	0.997811	0.641817	-0.766614	0.019353	0.766008	0.639714	-0.063234
64608	9.732172	0.068651	-0.895505	-0.064213	-0.001819	0.028696	0.036328	0.055178	0.997815	0.641352	-0.767010	0.019065	0.766387	0.639258	-0.063252
64609	9.706213	0.129685	-0.841023	-0.040802	-0.016087	0.029323	0.036638	0.054953	0.997817	0.640714	-0.767551	0.018745	0.766905	0.638628	-0.063331
64610	9.736423	0.140289	-0.833100	-0.021174	-0.026533	0.027550	0.037052	0.054888	0.997805	0.640578	-0.767672	0.018442	0.766999	0.638489	-0.063604
64611	9.765004	0.182951	-0.863237	-0.001300	-0.035692	0.019129	0.037520	0.054979	0.997782	0.640627	-0.767636	0.018208	0.766935	0.638523	-0.064022
64612	9.771697	0.199199	-0.851835	0.007436	-0.038829	0.014433	0.037944	0.055093	0.997760	0.640716	-0.767567	0.018017	0.766840	0.638597	-0.064423
64613	9.740164	0.211615	-0.778610	0.014898	-0.046167	0.010674	0.038359	0.055251	0.997735	0.640958	-0.767369	0.017851	0.766617	0.638821	-0.064849
64614	9.731204	0.235502	-0.729919	0.007620	-0.057073	0.006030	0.038869	0.055547	0.997699	0.641051	-0.767293	0.017744	0.766514	0.638886	-0.065432
64615	9.736966	0.268843	-0.739496	-0.013745	-0.067885	0.003521	0.039417	0.055891	0.997659	0.640915	-0.767409	0.017670	0.766599	0.638718	-0.066070
64616	9.762245	0.216452	-0.696178	-0.048540	-0.079770	-0.000012	0.040062	0.056378	0.997605	0.640580	-0.767689	0.017660	0.766846	0.638338	-0.066869
64617	9.792923	0.213827	-0.675500	-0.081360	-0.080665	0.005497	0.040729	0.056812	0.997554	0.640021	-0.768155	0.017616	0.767277	0.637738	-0.067647
64618	9.808167	0.218170	-0.616228	-0.105205	-0.083383	-0.000348	0.041400	0.057323	0.997497	0.639251	-0.768796	0.017649	0.767883	0.636920	-0.068472
64619	9.831896	0.197945	-0.610514	-0.130402	-0.075473	0.004740	0.042036	0.057793	0.997443	0.638718	-0.769238	0.017652	0.768291	0.636343	-0.069249
64620	9.861027	0.227393	-0.625703	-0.161083	-0.063706	0.004117	0.042586	0.058143	0.997400	0.637515	-0.770235	0.017681	0.769260	0.635105	-0.069868
64621	9.839450	0.174459	-0.676002	-0.182404	-0.044873	0.007205	0.043061	0.058347	0.997367	0.635802	-0.771650	0.017692	0.770650	0.633366	-0.070325
64622	9.808763	0.161747	-0.689427	-0.196486	-0.034661	0.013138	0.043445	0.058441	0.997345	0.634318	-0.772871	0.017657	0.771851	0.631867	-0.070648
64623	9.778426	0.122824	-0.789206	-0.196616	-0.019410	0.014584	0.043762	0.058544	0.997325	0.633392	-0.773631	0.017620	0.772593	0.630927	-0.070937
64624	9.802547	0.101858	-0.777597	-0.193199	-0.014131	0.018841	0.044024	0.058464	0.997318	0.631927	-0.774829	0.017527	0.773776	0.629461	-0.071056
64625	9.719344	0.038752	-0.862628	-0.179080	-0.014149	0.016637	0.044287	0.058366	0.997312	0.630249	-0.776197	0.017439	0.775129	0.627783	-0.071161
64626	9.735407	0.016343	-0.885053	-0.169182	-0.024273	0.013696	0.044594	0.058389	0.997297	0.628968	-0.777237	0.017381	0.776151	0.626493	-0.071385
64627	9.751605	-0.031193	-0.995734	-0.156118	-0.022414	0.012000	0.044931	0.058464	0.997278	0.627803	-0.778179	0.017335	0.777074	0.625315	-0.071669
64628	9.753162	-0.063278	-0.961617	-0.131294	-0.024739	0.010341	0.045221	0.058515	0.997262	0.626815	-0.778976	0.017284	0.777854	0.624317	-0.071905
64629	9.760059	-0.045270	-0.948669	-0.093922	-0.022862	0.003599	0.045451	0.058573	0.997248	0.625938	-0.779682	0.017266	0.778548	0.623430	-0.072101
64630	9.765159	0.005189	-0.972047	-0.062773	-0.024202	0.004075	0.045698	0.058669	0.997231	0.625484	-0.780046	0.017229	0.778897	0.622965	-0.072343
64631	9.756781	0.029093	-0.920073	-0.033396	-0.023811	0.000454	0.045921	0.058752	0.997216	0.625000	-0.780436	0.017199	0.779273	0.622470	-0.072559
64632	9.747503	0.068774	-0.886443	-0.013145	-0.027731	0.008593	0.046224	0.058834	0.997197	0.624931	-0.780493	0.017081	0.779310	0.622390	-0.072845
64633	9.775894	0.113167	-0.915719	0.004008	-0.030644	0.011978	0.046579	0.058846	0.997180	0.624542	-0.780808	0.016904	0.779601	0.621994	-0.073121
64634	9.753192	0.100243	-0.895463	0.007864	-0.037959	0.015861	0.047007	0.058935	0.997154	0.624634	-0.780739	0.016698	0.779502	0.622071	-0.073513
64635	9.749184	0.163421	-0.971820	0.007580	-0.035861	0.020946	0.047471	0.058952	0.997131	0.624475	-0.780872	0.016437	0.779601	0.621904	-0.073883
64636	9.748875	0.161382	-0.975245	0.001523	-0.034242	0.019982	0.047896	0.058986	0.997109	0.624515	-0.780845	0.016194	0.779543	0.621934	-0.074237
64637	9.770034	0.187191	-1.020355	-0.000835	-0.033058	0.019824	0.048316	0.059032	0.997086	0.624675	-0.780722	0.015953	0.779389	0.622084	-0.074597
64638	9.745481	0.206753	-1.036287	-0.006998	-0.032756	0.011093	0.048673	0.059126	0.997063	0.624652	-0.780743	0.015805	0.779385	0.622049	-0.074934
64639	9.768494	0.200975	-1.044744	-0.015066	-0.029014	0.011892	0.049046	0.059248	0.997038	0.624723	-0.780689	0.015660	0.779304	0.622104	-0.075303
64640	9.706176	0.191069	-1.086037	-0.021695	-0.040917	0.003951	0.049423	0.059448	0.997007	0.624590	-0.780797	0.015595	0.779388	0.621950	-0.075720
64641	9.714820	0.176044	-1.038513	-0.029318	-0.046138	0.002735	0.049822	0.059647	0.996975	0.624183	-0.781124	0.015541	0.779688	0.621521	-0.076148
64642	9.732332	0.121447	-1.027519	-0.033713	-0.047578	-0.001897	0.050214	0.059934	0.996939	0.623958	-0.781303	0.015543	0.779843	0.621268	-0.076629
64643	9.778452	0.112406	-1.043034	-0.041735	-0.045545	-0.000327	0.050666	0.060170	0.996901	0.623073	-0.782009	0.015533	0.780521	0.620356	-0.077112
64644	9.794407	0.115252	-0.980280	-0.029378	-0.042668	0.001181	0.051039	0.060402	0.996868	0.622881	-0.782163	0.015502	0.780650	0.620139	-0.077544
64645	9.805173	0.067677	-0.896293	-0.014704	-0.039256	0.002073	0.051353	0.060517	0.996845	0.622448	-0.782509	0.015439	0.780974	0.619692	-0.077853
64646	9.842678	0.097660	-0.874202	-0.004847	-0.023588	0.006604	0.051611	0.060588	0.996828	0.622444	-0.782514	0.015335	0.780961	0.619678	-0.078099
64647	9.843497	0.080146	-0.858088	0.003293	-0.017834	0.018263	0.051944	0.060560	0.996812	0.622391	-0.782561	0.015111	0.780981	0.619622	-0.078341
64648	9.821117	0.066306	-0.835486	0.012605	-0.004465	0.027504	0.052182	0.060349	0.996812	0.622512	-0.782470	0.014784	0.780868	0.619757	-0.078399
64649	9.780799	0.106742	-0.827663	0.006001	-0.005135	0.031266	0.052463	0.060070	0.996815	0.622215	-0.782714	0.014420	0.781087	0.619476	-0.078440
64650	9.782765	0.070611	-0.791665	0.006438	-0.001159	0.040180	0.052754	0.059739	0.996819	0.622281	-0.782669	0.013972	0.781014	0.619565	-0.078464
64651	9.812386	0.095575	-0.800007	-0.000247	0.001613	0.042408	0.053092	0.059417	0.996820	0.622222	-0.782724	0.013515	0.781038	0.619526	-0.078527
64652	9.750847	0.106852	-0.749609	-0.008854	0.003076	0.047931	0.053399	0.058999	0.996829	0.622164	-0.782779	0.013002	0.781063	0.619497	-0.078506
64653	9.776126	0.064783	-0.718323	-0.015576	0.007572	0.049391	0.053684	0.058560	0.996839	0.622162	-0.782789	0.012480	0.781045	0.619526	-0.078457
64654	9.759303	0.098621	-0.714618	-0.018597	0.011630	0.051648	0.053947	0.058060	0.996854	0.622027	-0.782905	0.011937	0.781136	0.619426	-0.078350
64655	9.782735	0.088971	-0.718694	-0.028069	0.018092	0.050278	0.054115	0.057483	0.996879	0.621752	-0.783131	0.011406	0.781342	0.619194	-0.078119
64656	9.798019	0.078148	-0.755071	-0.024627	0.036158	0.051180	0.054183	0.056835	0.996912	0.621569	-0.783284	0.010873	0.781483	0.619061	-0.077767
64657	9.735810	0.105158	-0.719671	-0.014469	0.033322	0.055597	0.054296	0.056118	0.996947	0.621168	-0.783610	0.010279	0.781794	0.618713	-0.077406
64658	9.745225	0.084645	-0.664474	-0.017518	0.039111	0.057083	0.054377	0.055405	0.996982	0.621037	-0.783721	0.009681	0.781893	0.618637	-0.077025
64659	9.762383	0.040440	-0.663009	-0.032278	0.047402	0.059342	0.054443	0.054647	0.997020	0.620731	-0.783971	0.009074	0.782131	0.618388	-0.076603
64660	9.783457	0.078904	-0.717917	-0.050689	0.054441	0.061557	0.054431	0.053804	0.997067	0.620338	-0.784289	0.008457	0.782443	0.618059	-0.076067
64661	9.759802	0.094456	-0.724981	-0.052703	0.058328	0.062536	0.054458	0.052994	0.997109	0.619980	-0.784579	0.007838	0.782726	0.617760	-0.075582
64662	9.830483	0.098028	-0.647120	-0.053976	0.070590	0.072805	0.054388	0.051963	0.997167	0.619555	-0.784921	0.007111	0.783067	0.617413	-0.074885
64663	9.785301	0.084536	-0.610172	-0.046412	0.089194	0.076425	0.054251	0.050861	0.997231	0.619334	-0.785102	0.006349	0.783251	0.617275	-0.074093
64664	9.768452	0.132124	-0.616710	-0.064263	0.088654	0.084326	0.054111	0.049628	0.997301	0.618823	-0.785511	0.005513	0.783665	0.616854	-0.073216
64665	9.745650	0.105043	-0.690693	-0.081606	0.085659	0.081281	0.053971	0.048405	0.997369	0.617988	-0.786173	0.004714	0.784333	0.616108	-0.072344
64666	9.792146	0.103670	-0.711693	-0.088970	0.074987	0.090811	0.053975	0.047205	0.997426	0.617279	-0.786735	0.003830	0.784891	0.615483	-0.071603
64667	9.785432	0.077787	-0.719765	-0.082168	0.075286	0.095570	0.054028	0.045956	0.997481	0.616414	-0.787417	0.002890	0.785566	0.614706	-0.070870
64668	9.715554	0.100715	-0.714509	-0.098462	0.068680	0.092756	0.054092	0.044780	0.997531	0.615628	-0.788034	0.001993	0.786178	0.614001	-0.070194
64669	9.707509	0.108130	-0.760009	-0.119675	0.054942	0.091501	0.054273	0.043703	0.997569	0.614601	-0.788837	0.001121	0.786969	0.613046	-0.069673
64670	9.707971	0.076535	-0.843540	-0.140593	0.037408	0.085901	0.054538	0.042772	0.997595	0.613485	-0.789706	0.000320	0.787821	0.611992	-0.069309
64671	9.684968	0.074843	-0.835688	-0.162127	0.011125	0.079482	0.055001	0.042115	0.997598	0.612466	-0.790497	-0.000395	0.788581	0.611016	-0.069273
64672	9.700910	0.046772	-0.856541	-0.167442	-0.009808	0.068094	0.055528	0.041613	0.997590	0.611146	-0.791518	-0.001001	0.789568	0.609728	-0.069382
64673	9.740509	-0.001652	-0.866252	-0.174551	-0.015557	0.055070	0.056074	0.041309	0.997572	0.609825	-0.792535	-0.001460	0.790550	0.608426	-0.069632
64674	9.686871	-0.052224	-0.943864	-0.175138	-0.032415	0.049457	0.056664	0.041090	0.997547	0.608450	-0.793590	-0.001873	0.791566	0.607064	-0.069969
64675	9.732968	-0.065358	-0.958750	-0.162400	-0.048527	0.044940	0.057358	0.040995	0.997512	0.607082	-0.794636	-0.002250	0.792567	0.605700	-0.070466
64676	9.716601	-0.045709	-0.942990	-0.155715	-0.061206	0.038688	0.058110	0.041034	0.997467	0.605863	-0.795565	-0.002568	0.793444	0.604478	-0.071091
64677	9.784254	0.009768	-0.930890	-0.157259	-0.069654	0.039055	0.058898	0.041064	0.997419	0.604479	-0.796616	-0.002898	0.794441	0.603090	-0.071741
64678	9.776374	0.013135	-0.865681	-0.155439	-0.082983	0.039805	0.059830	0.041223	0.997357	0.603259	-0.797539	-0.003224	0.795298	0.601857	-0.072584
64679	9.767559	0.010337	-0.907745	-0.147700	-0.091136	0.038527	0.060792	0.041387	0.997292	0.601904	-0.798560	-0.003551	0.796251	0.600490	-0.073457
64680	9.790389	0.025238	-0.834178	-0.131255	-0.101336	0.040280	0.061873	0.041649	0.997215	0.600873	-0.799335	-0.003897	0.796947	0.599440	-0.074483
64681	9.822058	-0.055281	-0.851824	-0.117569	-0.107798	0.038468	0.063042	0.042016	0.997126	0.600000	-0.799989	-0.004224	0.797513	0.598542	-0.075643
64682	9.844942	-0.080229	-0.850163	-0.095206	-0.102989	0.042252	0.064148	0.042270	0.997045	0.599252	-0.800547	-0.004616	0.797986	0.597777	-0.076684
64683	9.827684	-0.084031	-0.926821	-0.085528	-0.090128	0.045825	0.065171	0.042340	0.996975	0.598062	-0.801434	-0.005058	0.798796	0.596583	-0.077552
64684	9.804298	-0.100059	-0.911687	-0.073386	-0.075542	0.056576	0.066144	0.042313	0.996913	0.597477	-0.801866	-0.005607	0.799153	0.596003	-0.078320
64685	9.718473	-0.068001	-0.880125	-0.058628	-0.067714	0.063852	0.067093	0.042164	0.996855	0.596914	-0.802281	-0.006241	0.799495	0.595456	-0.078996
64686	9.718250	-0.035153	-0.815427	-0.054467	-0.060853	0.072110	0.068041	0.041923	0.996801	0.596468	-0.802606	-0.006959	0.799747	0.595034	-0.079616
64687	9.725461	-0.025097	-0.804682	-0.062022	-0.044382	0.078188	0.068921	0.041590	0.996755	0.596135	-0.802847	-0.007721	0.799921	0.594732	-0.080127
64688	9.817104	0.019495	-0.795264	-0.069220	-0.025265	0.085457	0.069664	0.041030	0.996726	0.595560	-0.803265	-0.008560	0.800284	0.594207	-0.080394
64689	9.823525	0.061962	-0.815842	-0.078415	-0.000537	0.093042	0.070249	0.040191	0.996720	0.594457	-0.804072	-0.009475	0.801053	0.593172	-0.080377
64690	9.805944	0.142610	-0.863168	-0.093807	0.028037	0.104789	0.070678	0.039157	0.996730	0.593670	-0.804640	-0.010486	0.801599	0.592470	-0.080117
64691	9.774464	0.210602	-0.851296	-0.107842	0.044031	0.114573	0.071026	0.037943	0.996753	0.592749	-0.805304	-0.011583	0.802249	0.591647	-0.079689
64692	9.781712	0.195398	-0.919145	-0.132930	0.051822	0.117836	0.071340	0.036662	0.996778	0.591637	-0.806105	-0.012694	0.803042	0.590636	-0.079198
64693	9.751485	0.173755	-0.924309	-0.154756	0.046605	0.116597	0.071640	0.035357	0.996804	0.590162	-0.807167	-0.013784	0.804100	0.589263	-0.078692
64694	9.751899	0.108391	-0.973737	-0.176129	0.037174	0.119449	0.072076	0.034149	0.996814	0.588698	-0.808216	-0.014879	0.805133	0.587895	-0.078357
64695	9.753472	-0.007729	-0.971639	-0.181755	0.031920	0.115509	0.072520	0.032984	0.996821	0.587069	-0.809380	-0.015928	0.806282	0.586358	-0.078060
64696	9.776204	-0.061031	-1.045799	-0.185093	0.030435	0.123834	0.073031	0.031778	0.996823	0.585524	-0.810475	-0.017060	0.807358	0.584910	-0.077797
64697	9.791097	-0.131003	-1.135839	-0.184694	0.040165	0.122053	0.073416	0.030506	0.996835	0.583992	-0.811556	-0.018175	0.808433	0.583478	-0.077396
64698	9.736164	-0.095421	-1.189459	-0.187193	0.030328	0.124252	0.073926	0.029295	0.996833	0.582425	-0.812655	-0.019311	0.809516	0.582008	-0.077138
64699	9.705480	-0.044422	-1.160496	-0.189725	0.023951	0.124995	0.074423	0.028011	0.996833	0.580492	-0.814009	-0.020465	0.810858	0.580177	-0.076841
64700	9.712550	0.014056	-1.194574	-0.193768	0.012217	0.118743	0.075042	0.026948	0.996816	0.578870	-0.815135	-0.021542	0.811959	0.578644	-0.076769
64701	9.697088	0.044259	-1.189461	-0.184348	-0.004586	0.109958	0.075701	0.026024	0.996791	0.577340	-0.816193	-0.022537	0.812987	0.577194	-0.076812
64702	9.766840	0.074838	-1.153628	-0.194890	-0.026952	0.097356	0.076512	0.025359	0.996746	0.575720	-0.817312	-0.023399	0.814059	0.575637	-0.077134
64703	9.773315	0.064394	-1.228969	-0.209766	-0.027022	0.092808	0.077309	0.024746	0.996700	0.573891	-0.818574	-0.024190	0.815274	0.573867	-0.077485
64704	9.773184	0.040968	-1.215172	-0.228370	-0.044949	0.086811	0.078203	0.024267	0.996642	0.572000	-0.819875	-0.024920	0.816517	0.572028	-0.077997
64705	9.787488	0.030905	-1.259204	-0.237782	-0.052613	0.089218	0.079144	0.023787	0.996579	0.569929	-0.821294	-0.025658	0.817874	0.570010	-0.078557
64706	9.818932	-0.033965	-1.184912	-0.235180	-0.043820	0.093466	0.080064	0.023242	0.996519	0.567969	-0.822625	-0.026446	0.819147	0.568109	-0.079064
64707	9.756268	-0.062060	-1.210160	-0.238494	-0.038326	0.098898	0.080941	0.022595	0.996463	0.565849	-0.824057	-0.027277	0.820526	0.566056	-0.079485
64708	9.662868	-0.136280	-1.212195	-0.217813	-0.047694	0.105111	0.081956	0.021972	0.996394	0.564015	-0.825283	-0.028193	0.821688	0.564291	-0.080029
64709	9.716810	-0.191461	-1.162446	-0.190450	-0.067358	0.106067	0.083141	0.021453	0.996307	0.562240	-0.826461	-0.029123	0.822784	0.562585	-0.080775
64710	9.845969	-0.248140	-1.221478	-0.193444	-0.064193	0.100592	0.084264	0.020956	0.996223	0.560603	-0.827541	-0.030010	0.823787	0.561014	-0.081480
64711	9.859026	-0.365617	-1.272000	-0.211745	-0.050157	0.098096	0.085151	0.020300	0.996161	0.558679	-0.828810	-0.030866	0.825002	0.559162	-0.081915
64712	9.841626	-0.387020	-1.327283	-0.224235	-0.039491	0.103061	0.086080	0.019639	0.996095	0.556779	-0.830054	-0.031750	0.826189	0.557337	-0.082386
64713	9.833945	-0.339381	-1.308656	-0.226790	-0.020121	0.107547	0.086839	0.018839	0.996044	0.554963	-0.831233	-0.032662	0.827330	0.555604	-0.082638
64714	9.843100	-0.277988	-1.238061	-0.228212	-0.006431	0.107057	0.087514	0.017958	0.996001	0.553020	-0.832491	-0.033581	0.828559	0.553748	-0.082786
64715	9.823142	-0.191989	-1.103207	-0.232487	0.014881	0.107579	0.087960	0.016891	0.995981	0.550804	-0.833921	-0.034502	0.829987	0.551625	-0.082655
64716	9.741158	-0.127158	-0.987373	-0.252734	0.033271	0.112070	0.088328	0.015745	0.995967	0.548646	-0.835303	-0.035452	0.831376	0.549565	-0.082419
64717	9.758141	-0.175481	-0.884143	-0.282685	0.035928	0.113906	0.088685	0.014612	0.995953	0.546307	-0.836795	-0.036370	0.832877	0.547321	-0.082194
64718	9.819445	-0.341765	-0.799577	-0.326837	0.044258	0.119526	0.088996	0.013342	0.995943	0.543515	-0.838568	-0.037334	0.834668	0.544633	-0.081881
64719	9.855562	-0.520010	-0.798867	-0.367426	0.057524	0.129676	0.089197	0.011863	0.995943	0.540171	-0.840680	-0.038364	0.836815	0.541402	-0.081395
64720	9.828870	-0.700593	-0.836303	-0.400530	0.074574	0.133556	0.089319	0.010310	0.995950	0.536736	-0.842829	-0.039411	0.839009	0.538082	-0.080815
64721	9.755943	-0.833719	-0.895023	-0.436220	0.078353	0.140718	0.089420	0.008681	0.995956	0.533004	-0.845143	-0.040488	0.841374	0.534469	-0.080200
64722	9.721956	-1.013987	-0.861019	-0.458691	0.091019	0.145701	0.089455	0.006936	0.995967	0.529049	-0.847570	-0.041615	0.843863	0.530638	-0.079489
64723	9.696095	-1.124562	-0.859554	-0.468654	0.094897	0.144863	0.089418	0.005162	0.995981	0.524914	-0.850082	-0.042720	0.846445	0.526625	-0.078723
64724	9.704656	-1.159754	-0.699125	-0.464533	0.107256	0.140724	0.089272	0.003374	0.996002	0.520891	-0.852498	-0.043800	0.848942	0.522719	-0.077862
64725	9.768000	-1.118293	-0.597062	-0.459737	0.114863	0.128928	0.088980	0.001647	0.996032	0.516859	-0.854899	-0.044760	0.851433	0.518791	-0.076920
64726	9.723231	-1.066272	-0.519457	-0.474653	0.136629	0.125811	0.088490	-0.000164	0.996077	0.512741	-0.857326	-0.045693	0.853971	0.514773	-0.075780
64727	9.638722	-1.057406	-0.452471	-0.470205	0.157037	0.126924	0.087843	-0.002039	0.996132	0.508758	-0.859646	-0.046624	0.856417	0.510885	-0.074476
64728	9.607267	-1.101267	-0.331442	-0.459840	0.162874	0.127757	0.087120	-0.003996	0.996190	0.504743	-0.861956	-0.047599	0.858862	0.506967	-0.073077
64729	9.636829	-1.140350	-0.277155	-0.428306	0.173647	0.127840	0.086286	-0.006005	0.996252	0.501003	-0.864080	-0.048600	0.861133	0.503319	-0.071549
64730	9.609782	-1.251647	-0.271417	-0.403160	0.175091	0.128929	0.085446	-0.008027	0.996310	0.497458	-0.866066	-0.049641	0.863269	0.499865	-0.070009
64731	9.570198	-1.248767	-0.320586	-0.388349	0.168976	0.127518	0.084667	-0.009974	0.996359	0.494048	-0.867957	-0.050671	0.865302	0.496539	-0.068560
64732	9.568053	-1.289693	-0.384485	-0.372603	0.166075	0.123630	0.083864	-0.011899	0.996406	0.490758	-0.869761	-0.051691	0.867251	0.493329	-0.067102
64733	9.567133	-1.299790	-0.373207	-0.366220	0.169682	0.116691	0.083021	-0.013740	0.996453	0.487557	-0.871503	-0.052639	0.869135	0.490197	-0.065654
64734	9.527565	-1.313344	-0.406958	-0.356282	0.172440	0.110628	0.082085	-0.015577	0.996504	0.484408	-0.873202	-0.053551	0.870983	0.487110	-0.064131
64735	9.465261	-1.319992	-0.434517	-0.336225	0.174478	0.096172	0.081081	-0.017268	0.996558	0.481477	-0.874773	-0.054331	0.872700	0.484225	-0.062613
64736	9.466209	-1.279386	-0.361903	-0.283772	0.171408	0.090861	0.080046	-0.018920	0.996612	0.478968	-0.876101	-0.055102	0.874175	0.481755	-0.061066
64737	9.497078	-1.287548	-0.427422	-0.226053	0.173049	0.073790	0.078940	-0.020406	0.996671	0.476995	-0.877137	-0.055738	0.875354	0.479807	-0.059507
64738	9.548420	-1.386033	-0.528832	-0.157424	0.158521	0.060530	0.077865	-0.021726	0.996727	0.475612	-0.877852	-0.056290	0.876202	0.478439	-0.058021
64739	9.663200	-1.447047	-0.621299	-0.091348	0.140854	0.040691	0.076881	-0.022766	0.996780	0.474842	-0.878244	-0.056683	0.876707	0.477671	-0.056709
64740	9.719653	-1.446628	-0.800041	-0.023615	0.113744	0.021534	0.076011	-0.023528	0.996829	0.474661	-0.878326	-0.056925	0.876880	0.477483	-0.055595
64741	9.702931	-1.365171	-1.042405	0.018862	0.073075	0.003088	0.075441	-0.023919	0.996863	0.474881	-0.878201	-0.057010	0.876810	0.477693	-0.054893
64742	9.595246	-1.211968	-1.205457	0.042347	0.011995	-0.015654	0.075287	-0.023868	0.996876	0.475308	-0.877977	-0.056918	0.876593	0.478108	-0.054756
64743	9.600550	-1.094830	-1.298421	0.091668	-0.075898	-0.047899	0.075781	-0.023103	0.996857	0.476195	-0.877520	-0.056538	0.876068	0.478983	-0.055497
64744	9.713387	-0.940648	-1.310586	0.131911	-0.162348	-0.087225	0.076812	-0.021588	0.996812	0.477460	-0.876881	-0.055783	0.875290	0.480223	-0.057048
64745	9.693187	-0.801648	-1.323042	0.146192	-0.237849	-0.135286	0.078303	-0.019278	0.996743	0.478893	-0.876176	-0.054567	0.874374	0.481606	-0.059376
64746	9.646057	-0.729095	-1.276162	0.152009	-0.310141	-0.180687	0.080173	-0.016228	0.996649	0.480407	-0.875449	-0.052900	0.873373	0.483039	-0.062391
64747	9.689513	-0.703740	-1.336920	0.141064	-0.407407	-0.219196	0.082733	-0.012357	0.996495	0.481871	-0.874765	-0.050854	0.872328	0.484389	-0.066418
64748	9.638110	-0.701143	-1.442022	0.156722	-0.475821	-0.251227	0.085695	-0.007880	0.996290	0.483491	-0.874005	-0.048500	0.871144	0.485854	-0.071087
64749	9.625087	-0.654768	-1.537922	0.190662	-0.531142	-0.271164	0.089063	-0.002944	0.996022	0.485441	-0.873059	-0.045988	0.869721	0.487605	-0.076328
64750	9.612585	-0.643238	-1.410710	0.255976	-0.572880	-0.297776	0.092617	0.002426	0.995699	0.487977	-0.871783	-0.043266	0.867929	0.489886	-0.081926
64751	9.718228	-0.645852	-1.226553	0.331431	-0.576673	-0.315246	0.096132	0.007988	0.995337	0.491196	-0.870109	-0.040458	0.865728	0.492795	-0.087569
64752	9.703454	-0.615262	-1.043290	0.383649	-0.565131	-0.319110	0.099470	0.013527	0.994949	0.494867	-0.868152	-0.037671	0.863257	0.496114	-0.093050
64753	9.670889	-0.586850	-1.015435	0.419463	-0.551453	-0.311629	0.102736	0.018960	0.994528	0.498850	-0.865980	-0.035023	0.860577	0.499719	-0.098426
64754	9.707905	-0.593880	-0.990038	0.430287	-0.527871	-0.297473	0.105809	0.024152	0.994093	0.502899	-0.863732	-0.032542	0.857845	0.503372	-0.103537
64755	9.747192	-0.495862	-0.950682	0.437063	-0.506165	-0.285469	0.108764	0.029158	0.993640	0.507002	-0.861415	-0.030219	0.855055	0.507064	-0.108474
64756	9.792159	-0.423030	-0.787890	0.435850	-0.473293	-0.269144	0.111462	0.033854	0.993192	0.511060	-0.859087	-0.028071	0.852288	0.510709	-0.113057
64757	9.795949	-0.413818	-0.545271	0.434473	-0.437138	-0.254084	0.113937	0.038256	0.992751	0.515092	-0.856737	-0.026102	0.849528	0.514333	-0.117320
64758	9.845632	-0.452769	-0.208500	0.416269	-0.403797	-0.233700	0.116182	0.042312	0.992326	0.518932	-0.854469	-0.024323	0.846883	0.517776	-0.121230
64759	9.887244	-0.574835	0.072503	0.378374	-0.365956	-0.212464	0.118229	0.046004	0.991920	0.522426	-0.852381	-0.022737	0.844448	0.520893	-0.124810
64760	9.881777	-0.614218	0.308350	0.309990	-0.316952	-0.168489	0.120047	0.049066	0.991555	0.525281	-0.850657	-0.021502	0.842418	0.523427	-0.127893
64761	9.833802	-0.733247	0.464685	0.215126	-0.266807	-0.126847	0.121683	0.051516	0.991231	0.527287	-0.849438	-0.020583	0.840929	0.525168	-0.130526
64762	9.756732	-0.847691	0.526338	0.098803	-0.233599	-0.081544	0.123244	0.053409	0.990938	0.528257	-0.848850	-0.019949	0.840093	0.525928	-0.132829
64763	9.685286	-0.859026	0.453311	-0.025013	-0.208942	-0.047851	0.124801	0.054876	0.990663	0.528137	-0.848935	-0.019508	0.839938	0.525640	-0.134930
64764	9.584435	-0.776671	0.308012	-0.166913	-0.197707	-0.037072	0.126294	0.056201	0.990399	0.526820	-0.849765	-0.018959	0.840542	0.524157	-0.136929
64765	9.576430	-0.645091	0.174994	-0.339741	-0.190153	-0.045643	0.127708	0.057538	0.990141	0.524046	-0.851498	-0.018110	0.842061	0.521192	-0.138895
64766	9.539910	-0.538662	-0.024846	-0.534327	-0.198712	-0.072921	0.129031	0.059163	0.989874	0.519673	-0.854203	-0.016685	0.844566	0.516563	-0.140964
64767	9.647028	-0.508282	-0.370457	-0.747742	-0.221355	-0.106139	0.130405	0.061149	0.989573	0.513489	-0.857971	-0.014650	0.848130	0.510045	-0.143283
64768	9.681456	-0.356285	-0.920757	-0.969071	-0.236264	-0.138061	0.131738	0.063504	0.989248	0.505468	-0.862763	-0.011929	0.852729	0.501605	-0.145758
64769	9.788349	-0.169575	-1.492359	-1.164027	-0.252320	-0.160523	0.133143	0.066088	0.988891	0.495738	-0.868429	-0.008708	0.858206	0.491390	-0.148387
64770	10.019747	0.161290	-1.993341	-1.273904	-0.230386	-0.172827	0.134306	0.068685	0.988557	0.485038	-0.874478	-0.005139	0.864118	0.480178	-0.150762
64771	10.093690	0.449660	-2.222012	-1.220924	-0.190036	-0.168488	0.135192	0.071004	0.988272	0.474691	-0.880151	-0.001700	0.869708	0.469354	-0.152694
64772	10.072388	0.739715	-2.189972	-1.063113	-0.158339	-0.159057	0.135851	0.073114	0.988028	0.465676	-0.884954	0.001457	0.874466	0.459903	-0.154269
64773	9.918786	0.871877	-1.930667	-0.864058	-0.156235	-0.143262	0.136608	0.075045	0.987779	0.458321	-0.888777	0.004139	0.878226	0.452154	-0.155809
64774	9.774414	0.896592	-1.599875	-0.714313	-0.192793	-0.138160	0.137700	0.077111	0.987468	0.452267	-0.891858	0.006577	0.881188	0.445694	-0.157684
64775	9.756624	0.714315	-1.480197	-0.678926	-0.219840	-0.136283	0.139075	0.079254	0.987105	0.446494	-0.894742	0.008931	0.883913	0.439494	-0.159822
64776	9.607381	0.472900	-1.552025	-0.661516	-0.211581	-0.135587	0.140371	0.081362	0.986750	0.440868	-0.897501	0.011287	0.886528	0.433443	-0.161853
64777	9.440585	0.015306	-1.719661	-0.667351	-0.253805	-0.129743	0.142103	0.083574	0.986317	0.435151	-0.900255	0.013588	0.889073	0.427266	-0.164297
64778	9.591773	-0.370592	-1.715407	-0.658126	-0.317162	-0.144583	0.144326	0.086193	0.985769	0.429540	-0.902905	0.016058	0.891440	0.421110	-0.167336
64779	10.072624	-0.841958	-1.722724	-0.602398	-0.307547	-0.159243	0.146438	0.088873	0.985220	0.424426	-0.905272	0.018576	0.893542	0.415433	-0.170286
64780	10.241610	-1.085616	-1.612016	-0.489219	-0.248089	-0.161440	0.147999	0.091330	0.984761	0.420330	-0.907129	0.020959	0.895220	0.410823	-0.172643
64781	10.206836	-1.083495	-1.444426	-0.360316	-0.188513	-0.147361	0.149118	0.093385	0.984400	0.417340	-0.908460	0.022962	0.896432	0.407406	-0.174441
64782	10.172257	-1.159445	-1.379722	-0.244370	-0.149803	-0.126316	0.149960	0.095111	0.984107	0.415379	-0.909316	0.024586	0.897203	0.405090	-0.175868
64783	10.356770	-1.128429	-1.403291	-0.147891	-0.124674	-0.108469	0.150676	0.096539	0.983858	0.414227	-0.909807	0.025835	0.897615	0.403648	-0.177075
64784	10.750271	-1.179461	-1.534908	-0.057580	-0.076749	-0.098766	0.150980	0.097716	0.983695	0.413900	-0.909926	0.026862	0.897715	0.403096	-0.177825
64785	10.938350	-0.995059	-1.531217	0.046828	0.006891	-0.089370	0.150596	0.098430	0.983683	0.414459	-0.909650	0.027571	0.897521	0.403544	-0.177784
64786	10.809071	-0.925923	-1.276169	0.189130	0.084742	-0.080454	0.149525	0.098787	0.983811	0.416318	-0.908789	0.027980	0.896840	0.405394	-0.177014
64787	10.659937	-0.875596	-0.990848	0.321727	0.137283	-0.073084	0.148037	0.098813	0.984033	0.419307	-0.907411	0.028039	0.895693	0.408461	-0.175764
64788	10.515678	-0.761222	-0.912291	0.398329	0.196109	-0.069697	0.146013	0.098609	0.984356	0.423016	-0.905690	0.027982	0.894281	0.412312	-0.173956
64789	10.305529	-0.638257	-0.933507	0.411997	0.260000	-0.053573	0.143509	0.097929	0.984792	0.426763	-0.903939	0.027699	0.892904	0.416298	-0.171516
64790	10.019124	-0.521186	-0.943013	0.410055	0.309551	-0.034335	0.140625	0.096914	0.985308	0.430512	-0.902172	0.027293	0.891563	0.420349	-0.168590
64791	9.850243	-0.388641	-0.858316	0.430715	0.343206	-0.011298	0.137565	0.095472	0.985881	0.434346	-0.900354	0.026583	0.890180	0.424556	-0.165325
64792	9.694826	-0.275571	-0.798731	0.454577	0.386244	0.020732	0.134245	0.093606	0.986517	0.438402	-0.898415	0.025589	0.888697	0.429056	-0.161644
64793	9.598674	-0.095696	-0.818433	0.489447	0.432192	0.037977	0.130620	0.091302	0.987220	0.442675	-0.896352	0.024327	0.887117	0.433840	-0.157498
64794	9.598383	0.028613	-0.840855	0.521084	0.483758	0.049382	0.126577	0.088718	0.987981	0.447271	-0.894103	0.022985	0.885397	0.438986	-0.152854
64795	9.672740	0.109134	-0.927931	0.572531	0.544752	0.053678	0.122046	0.085732	0.988815	0.452243	-0.891636	0.021488	0.883505	0.444562	-0.147592
64796	9.681631	0.113663	-1.017895	0.670504	0.620425	0.043909	0.116796	0.082532	0.989721	0.458148	-0.888650	0.020038	0.881169	0.451098	-0.141603
64797	9.811875	0.191234	-1.016686	0.815894	0.689800	0.019065	0.110861	0.079125	0.990681	0.465278	-0.884969	0.018615	0.878195	0.458878	-0.134923
64798	10.041358	0.110395	-1.025859	0.968372	0.772421	-0.005596	0.104091	0.075564	0.991693	0.473811	-0.880455	0.017355	0.874453	0.468069	-0.127451
64799	10.252345	0.018125	-0.835542	1.124995	0.860938	-0.033974	0.096463	0.071688	0.992752	0.483633	-0.875121	0.016200	0.869939	0.478565	-0.119087
64800	10.483536	-0.121934	-0.697537	1.268926	0.959559	-0.045912	0.087942	0.067410	0.993842	0.494722	-0.868919	0.015160	0.864590	0.490342	-0.109764
64801	10.682223	-0.152512	-0.447690	1.394059	1.067727	-0.069371	0.078439	0.062607	0.994951	0.506762	-0.861967	0.014287	0.858510	0.503083	-0.099338
64802	10.673931	-0.086932	-0.136096	1.491310	1.184198	-0.077043	0.067944	0.057201	0.996048	0.519612	-0.854294	0.013616	0.851696	0.516634	-0.087767
64803	10.572663	-0.106502	0.304737	1.583593	1.261078	-0.087817	0.056831	0.051243	0.997068	0.533068	-0.845971	0.013094	0.844161	0.530761	-0.075393
64804	10.579913	-0.170668	0.756105	1.680403	1.349043	-0.090531	0.045038	0.044717	0.997984	0.547271	-0.836858	0.012799	0.835743	0.545591	-0.062163
64805	10.667763	-0.377806	1.194267	1.788953	1.492798	-0.099167	0.032122	0.037180	0.998792	0.562144	-0.826942	0.012704	0.826415	0.561057	-0.047463
64806	10.657334	-0.394569	1.700667	1.910877	1.664580	-0.117578	0.017811	0.028644	0.999431	0.577907	-0.815998	0.013087	0.815908	0.577345	-0.031087
64807	10.645207	-0.329771	1.979314	1.978353	1.849329	-0.142331	0.002031	0.018861	0.999820	0.593915	-0.804407	0.013968	0.804525	0.593779	-0.012835
64808	10.712767	-0.133321	2.224455	1.945927	2.025903	-0.156498	-0.015061	0.007894	0.999855	0.609487	-0.792646	0.015438	0.792653	0.609631	0.007127
64809	10.983269	0.017663	2.279809	1.770028	2.174138	-0.162482	-0.033141	-0.004343	0.999441	0.623333	-0.781766	0.017272	0.781254	0.623557	0.028616
64810	11.399517	0.013216	2.366418	1.502105	2.327036	-0.158154	-0.052164	-0.017784	0.998480	0.634964	-0.772298	0.019417	0.770779	0.635012	0.051579
64811	11.859726	-0.119037	2.425807	1.169973	2.494032	-0.126369	-0.072058	-0.032867	0.996859	0.643803	-0.764894	0.021319	0.761791	0.643317	0.076276
64812	12.211503	-0.062461	2.597911	0.886512	2.687123	-0.084241	-0.092936	-0.049613	0.994435	0.650494	-0.759166	0.022917	0.753804	0.649004	0.102827
64813	12.422685	-0.131089	2.375354	0.616034	2.844426	-0.093883	-0.114873	-0.067517	0.991083	0.654968	-0.755261	0.024463	0.746874	0.651938	0.130981
64814	11.944271	0.386812	1.798211	0.438595	2.912574	-0.125762	-0.137326	-0.085599	0.986820	0.658113	-0.752459	0.026313	0.740289	0.653053	0.159666
64815	11.043054	1.339813	1.250404	0.119813	2.789051	-0.126144	-0.158721	-0.102947	0.981942	0.658760	-0.751845	0.027659	0.735421	0.651253	0.187151
64816	10.512085	1.778604	1.091087	-0.252793	2.544209	-0.075399	-0.177863	-0.118914	0.976844	0.656821	-0.753532	0.027864	0.732770	0.646567	0.212131
64817	10.329937	1.846569	0.922432	-0.665655	2.314727	0.020125	-0.194682	-0.134034	0.971666	0.651938	-0.757823	0.026085	0.732855	0.638544	0.234916
64818	10.158233	1.571996	0.442172	-1.056656	2.115593	0.160357	-0.209143	-0.148673	0.966517	0.644549	-0.764249	0.021913	0.735402	0.627551	0.255664
64819	10.078098	1.227388	-0.072502	-1.260641	1.912641	0.337349	-0.221073	-0.163227	0.961501	0.635949	-0.771580	0.015235	0.739388	0.614834	0.274380
64820	9.649254	1.031310	-0.428231	-1.442656	1.659249	0.500133	-0.230198	-0.177218	0.956871	0.626418	-0.779461	0.006340	0.744721	0.600861	0.290443
64821	9.481338	0.277373	-0.894991	-1.466598	1.425470	0.608855	-0.237052	-0.190521	0.952632	0.616861	-0.787062	-0.003909	0.750525	0.586715	0.304100
64822	9.160772	-0.418224	-1.132487	-1.316147	1.311919	0.645255	-0.242947	-0.203260	0.948505	0.608547	-0.793392	-0.014148	0.755412	0.573772	0.316445
64823	9.168652	-0.961310	-0.911265	-0.974337	1.250494	0.620405	-0.248629	-0.215365	0.944352	0.602697	-0.797632	-0.023227	0.758248	0.563383	0.328114
64824	9.595142	-1.313595	-0.429724	-0.597963	1.250992	0.573659	-0.254639	-0.226975	0.940022	0.599653	-0.799673	-0.030649	0.758667	0.555882	0.339734
64825	9.787146	-1.875353	0.161913	-0.339746	1.286321	0.535035	-0.261152	-0.238422	0.935390	0.598466	-0.800298	-0.036902	0.757389	0.550162	0.351687
64826	9.794415	-2.661852	0.304372	-0.010208	1.285806	0.533230	-0.267644	-0.249767	0.930582	0.599847	-0.799015	-0.041933	0.754022	0.546984	0.363674
64827	9.713493	-3.256697	0.211247	0.481146	1.281360	0.556722	-0.273873	-0.261267	0.925599	0.604980	-0.794946	-0.045381	0.747658	0.547540	0.375776
64828	9.323730	-3.125567	0.256298	1.079666	1.288596	0.587848	-0.279828	-0.273034	0.920407	0.614674	-0.787398	-0.046701	0.737477	0.552682	0.388162
64829	8.743347	-2.485575	0.458113	1.610331	1.257488	0.606486	-0.285203	-0.284832	0.915167	0.628168	-0.776718	-0.045979	0.723922	0.561765	0.400445
64830	8.225230	-1.531408	0.811045	1.972200	1.181602	0.599360	-0.289819	-0.296183	0.910099	0.644059	-0.763740	-0.043452	0.707949	0.573565	0.412106
64831	7.937632	-0.813457	1.099421	2.138724	1.078738	0.583390	-0.293508	-0.306898	0.905355	0.660738	-0.749557	-0.039880	0.690854	0.586497	0.422780
64832	7.809080	-0.353528	1.464632	2.178585	0.952042	0.578633	-0.296099	-0.316865	0.901067	0.677352	-0.734787	-0.035807	0.673439	0.599737	0.432199
64833	7.682328	0.103061	1.780832	2.172120	0.814561	0.578260	-0.297494	-0.326047	0.897324	0.693533	-0.719732	-0.031588	0.656132	0.612927	0.440240
64834	7.343504	0.584925	2.161663	2.116027	0.677190	0.565548	-0.297881	-0.334293	0.894156	0.708967	-0.704714	-0.027281	0.639244	0.625800	0.446924
64835	6.966940	1.005847	2.489637	1.997657	0.537559	0.518714	-0.297498	-0.341340	0.891618	0.723154	-0.690305	-0.022982	0.623333	0.637939	0.452206
64836	6.837914	1.314673	2.759979	1.851300	0.407813	0.443112	-0.296744	-0.347016	0.889676	0.735916	-0.676819	-0.018533	0.608580	0.649228	0.456216
64837	6.515136	1.906790	3.300506	1.694804	0.302031	0.360158	-0.295825	-0.351434	0.888247	0.747221	-0.664428	-0.014023	0.595104	0.659568	0.459153
64838	6.472545	2.196224	3.640544	1.518847	0.146168	0.245431	-0.294805	-0.354043	0.887549	0.756935	-0.653425	-0.009230	0.583214	0.669096	0.460621
64839	6.917088	2.373107	4.022962	1.316936	0.048980	0.132830	-0.294010	-0.355256	0.887328	0.764981	-0.644038	-0.004380	0.573029	0.677502	0.461118
64840	7.439270	2.839773	4.244892	1.150498	0.022752	0.046175	-0.293750	-0.355727	0.887226	0.771698	-0.635989	0.000505	0.564086	0.684819	0.461335
64841	7.360731	3.917024	4.948317	0.793670	-0.055252	-0.006311	-0.293420	-0.355324	0.887496	0.776179	-0.630499	0.004186	0.558078	0.690084	0.460796
64842	7.757602	3.969991	4.886292	0.454108	-0.185257	-0.052940	-0.292766	-0.353729	0.888349	0.778590	-0.627496	0.006732	0.555054	0.693631	0.459120
64843	8.149609	3.925280	4.867854	0.052717	-0.255778	-0.082854	-0.291923	-0.351446	0.889532	0.778692	-0.627359	0.007684	0.555355	0.694915	0.456809
64844	8.311649	3.496153	4.885388	-0.469621	-0.272667	-0.086913	-0.291043	-0.349027	0.890772	0.775860	-0.630874	0.006306	0.559763	0.692949	0.454407
64845	8.544236	2.650864	4.758197	-0.881596	-0.263917	-0.090658	-0.290190	-0.346637	0.891982	0.770686	-0.637207	0.003101	0.567303	0.688339	0.452059
64846	8.774187	1.529103	4.671310	-1.068903	-0.247738	-0.107395	-0.289562	-0.344271	0.893102	0.764304	-0.644856	-0.000774	0.576189	0.682377	0.449854
64847	9.049851	0.335506	4.538346	-1.041304	-0.237762	-0.117059	-0.289007	-0.341902	0.894191	0.757983	-0.652259	-0.004413	0.584753	0.676507	0.447663
64848	9.234673	-0.735844	4.346734	-0.856503	-0.210926	-0.114609	-0.288597	-0.339750	0.895143	0.752655	-0.658376	-0.007227	0.591796	0.671648	0.445720
64849	9.272349	-1.543255	4.209203	-0.584565	-0.151633	-0.087839	-0.288289	-0.338160	0.895844	0.748992	-0.662518	-0.009054	0.596574	0.668370	0.444276
64850	9.177994	-2.011771	4.073133	-0.304887	-0.099693	-0.044590	-0.287992	-0.337220	0.896294	0.747082	-0.664657	-0.010021	0.599107	0.666719	0.443347
64851	9.178552	-2.064501	3.961498	-0.015897	-0.057675	0.013075	-0.287483	-0.336931	0.896566	0.747085	-0.664650	-0.010225	0.599348	0.666872	0.442792
64852	9.176480	-1.814367	4.072164	0.212935	-0.011404	0.073171	-0.286833	-0.337362	0.896612	0.748611	-0.662935	-0.009951	0.597753	0.668359	0.442704
64853	9.003343	-1.382880	4.191916	0.362516	0.018373	0.114780	-0.286016	-0.338255	0.896537	0.751158	-0.660055	-0.009396	0.594942	0.670754	0.442869
64854	8.654450	-0.814879	4.376552	0.412393	0.014465	0.132235	-0.285072	-0.339243	0.896464	0.754024	-0.656788	-0.008768	0.591762	0.673456	0.443030
64855	8.320278	-0.243773	4.595660	0.357539	-0.013816	0.128827	-0.283952	-0.340007	0.896531	0.756556	-0.653876	-0.008362	0.589063	0.675901	0.442903
64856	7.924772	0.252139	4.786529	0.243585	-0.065193	0.118713	-0.282634	-0.340361	0.896812	0.758366	-0.651776	-0.008362	0.587367	0.677748	0.442332
64857	7.595835	0.652891	5.103931	0.076878	-0.116255	0.087899	-0.281221	-0.340158	0.897333	0.759116	-0.650895	-0.008835	0.587075	0.678696	0.441265
64858	7.292262	0.882604	5.314464	-0.104061	-0.197329	0.036602	-0.279748	-0.339078	0.898202	0.758648	-0.651429	-0.009636	0.588382	0.678724	0.439477
64859	7.036791	0.933504	5.426423	-0.308711	-0.288212	-0.008011	-0.278049	-0.337086	0.899479	0.756854	-0.653493	-0.010941	0.591491	0.677732	0.436828
64860	7.011892	0.727471	5.545455	-0.477536	-0.389608	-0.041727	-0.276016	-0.334196	0.901182	0.753943	-0.656818	-0.012657	0.596142	0.675946	0.433257
64861	7.199359	0.426634	5.607978	-0.587662	-0.444880	-0.049643	-0.273670	-0.330886	0.903116	0.750332	-0.660896	-0.014768	0.601753	0.673596	0.429142
64862	7.486370	-0.028430	5.575656	-0.627008	-0.455538	-0.034989	-0.271143	-0.327612	0.905070	0.746486	-0.665180	-0.017144	0.607651	0.670974	0.424917
64863	7.706479	-0.447903	5.364277	-0.564098	-0.438432	-0.019916	-0.268567	-0.324565	0.906934	0.743030	-0.668978	-0.019378	0.613008	0.668675	0.420827
64864	7.917276	-0.739410	5.104583	-0.480015	-0.404685	0.013054	-0.265945	-0.321972	0.908629	0.740152	-0.672095	-0.021522	0.617614	0.666800	0.417049
64865	8.103769	-1.015548	4.583163	-0.417943	-0.339195	0.057254	-0.263377	-0.320126	0.910029	0.737748	-0.674656	-0.023812	0.621579	0.665100	0.413861
64866	8.267766	-1.060401	3.632570	-0.373355	-0.347106	0.129473	-0.260224	-0.318716	0.911429	0.735801	-0.676677	-0.026546	0.625204	0.663723	0.410600
64867	8.406024	-0.838038	2.369815	-0.331504	-0.433870	0.148644	-0.256369	-0.316876	0.913162	0.734137	-0.678369	-0.029292	0.628742	0.662877	0.406543
64868	8.795203	-0.309696	1.378560	-0.238806	-0.616419	0.123915	-0.251540	-0.313652	0.915615	0.732988	-0.679516	-0.031405	0.632025	0.663235	0.400829
64869	9.834423	0.164754	1.659261	-0.113753	-0.787955	0.111909	-0.245682	-0.309206	0.918712	0.732582	-0.679883	-0.032918	0.634795	0.664944	0.393554
64870	11.427070	-0.020102	3.061921	-0.032061	-0.812813	0.142059	-0.239438	-0.304780	0.921835	0.732764	-0.679614	-0.034367	0.636966	0.667258	0.386057
64871	12.988836	-1.168016	4.539769	0.047574	-0.603052	0.198901	-0.234081	-0.302120	0.924083	0.733582	-0.678644	-0.036051	0.638015	0.669451	0.380488
64872	13.774346	-2.806922	5.417294	0.330815	-0.270887	0.267088	-0.230358	-0.302133	0.925014	0.736351	-0.675572	-0.037284	0.636178	0.672546	0.378099
64873	13.451356	-4.049896	5.540137	0.837758	-0.010777	0.360440	-0.227570	-0.304504	0.924926	0.742520	-0.668774	-0.037483	0.629980	0.678247	0.378294
64874	11.782713	-3.999101	4.490394	1.305305	0.004466	0.456562	-0.224152	-0.307586	0.924742	0.751751	-0.658420	-0.036782	0.620182	0.686931	0.378814
64875	9.457716	-2.161164	2.508778	1.329410	-0.267436	0.494836	-0.218709	-0.308995	0.925575	0.761060	-0.647661	-0.036381	0.610700	0.696461	0.376813
64876	7.923087	0.448884	1.220938	0.961907	-0.625988	0.482735	-0.211179	-0.307737	0.927740	0.767982	-0.639386	-0.037274	0.604655	0.704616	0.371361
64877	7.415875	2.527527	1.403637	0.422832	-0.892565	0.472464	-0.202092	-0.304458	0.930841	0.771545	-0.634906	-0.040155	0.603222	0.710071	0.363213
64878	7.450908	3.350831	2.030342	-0.162377	-1.015428	0.460580	-0.192362	-0.300180	0.934285	0.771510	-0.634620	-0.045052	0.606440	0.712144	0.353668
64879	7.936159	3.161190	2.710539	-0.568431	-1.094266	0.402756	-0.182526	-0.294964	0.937913	0.768844	-0.637413	-0.050836	0.612833	0.711830	0.343125
64880	8.988570	2.575785	3.097982	-0.840477	-1.149470	0.263790	-0.173375	-0.288501	0.941652	0.764165	-0.642570	-0.056173	0.621283	0.709838	0.331868
64881	10.388886	1.915188	2.632213	-1.136446	-1.146124	0.107836	-0.165310	-0.281091	0.945336	0.757280	-0.650243	-0.060922	0.631823	0.705813	0.320356
64882	11.135191	1.246108	1.790862	-1.371350	-1.123127	-0.011635	-0.158198	-0.273140	0.948877	0.748552	-0.659868	-0.065148	0.643929	0.699977	0.308849
64883	11.265051	0.348353	1.191851	-1.464885	-1.097800	-0.097437	-0.151718	-0.264840	0.952282	0.738939	-0.670263	-0.068680	0.656468	0.693259	0.297392
64884	10.951481	-0.534342	0.958002	-1.388023	-1.075716	-0.131679	-0.145525	-0.256550	0.955513	0.729589	-0.680138	-0.071497	0.668223	0.686727	0.286153
64885	10.418842	-1.050797	0.980863	-1.240177	-1.044070	-0.119474	-0.139289	-0.248579	0.958544	0.721141	-0.688841	-0.073846	0.678641	0.680960	0.275209
64886	9.787223	-1.461150	1.050240	-1.083637	-1.022424	-0.079115	-0.132837	-0.241116	0.961362	0.713670	-0.696343	-0.076036	0.687772	0.675995	0.264577
64887	9.355651	-1.810126	1.152311	-0.913545	-1.040140	-0.042756	-0.125872	-0.233788	0.964106	0.707375	-0.702521	-0.078002	0.695541	0.672166	0.253803
64888	9.180993	-2.031917	1.191494	-0.747956	-1.063490	-0.029322	-0.118613	-0.226470	0.966769	0.702153	-0.707563	-0.079602	0.702077	0.669378	0.242942
64889	9.121614	-2.081044	1.149815	-0.618104	-1.066502	-0.006922	-0.111068	-0.219273	0.969321	0.697868	-0.711629	-0.081015	0.707562	0.667460	0.232063
64890	9.153533	-2.224879	1.197839	-0.470275	-1.056165	0.033122	-0.103308	-0.212488	0.971687	0.694606	-0.714652	-0.082430	0.711934	0.666424	0.221424
64891	9.251866	-2.190842	1.441211	-0.309247	-1.019478	0.054316	-0.095580	-0.206064	0.973859	0.692533	-0.716521	-0.083643	0.715026	0.666435	0.211191
64892	9.390722	-1.910478	1.541726	-0.212765	-0.984572	0.048556	-0.088159	-0.199871	0.975848	0.691094	-0.717799	-0.084584	0.717369	0.666946	0.201410
64893	9.495217	-1.454701	1.452776	-0.194159	-0.933226	0.032644	-0.081152	-0.193861	0.977667	0.689803	-0.718955	-0.085304	0.719435	0.667474	0.192071
64894	9.578345	-0.960398	1.487154	-0.210664	-0.860519	0.001923	-0.074906	-0.188154	0.979279	0.688326	-0.720316	-0.085747	0.721524	0.667640	0.183467
64895	9.637997	-0.449009	1.597652	-0.240045	-0.770222	-0.041356	-0.069547	-0.182696	0.980707	0.686637	-0.721920	-0.085794	0.723666	0.667423	0.175654
64896	9.598015	-0.018989	1.656764	-0.333893	-0.686567	-0.085206	-0.065120	-0.177525	0.981959	0.684199	-0.724259	-0.085563	0.726383	0.666283	0.168626
64897	9.544932	0.278296	1.617516	-0.468012	-0.632051	-0.114981	-0.061226	-0.172466	0.983111	0.680796	-0.727498	-0.085226	0.729910	0.664080	0.161956
64898	9.507720	0.468664	1.663993	-0.612979	-0.623582	-0.129046	-0.057503	-0.167417	0.984208	0.676271	-0.731737	-0.084960	0.734405	0.660706	0.155296
64899	9.612357	0.528516	1.583102	-0.776935	-0.644501	-0.115481	-0.053454	-0.162302	0.985292	0.670561	-0.736967	-0.085017	0.739926	0.656154	0.148227
64900	9.553155	0.465706	1.651541	-0.935002	-0.671616	-0.086736	-0.049008	-0.157296	0.986335	0.663608	-0.743174	-0.085545	0.746474	0.650347	0.140805
64901	9.580710	0.088215	1.578357	-1.107092	-0.718862	-0.045901	-0.043844	-0.152277	0.987365	0.655366	-0.750328	-0.086618	0.754038	0.643288	0.132695
64902	9.663472	-0.191410	1.398699	-1.274084	-0.756060	0.006276	-0.038038	-0.147517	0.988328	0.645747	-0.758423	-0.088349	0.762603	0.634850	0.124107
64903	9.564873	-0.637961	1.155411	-1.418801	-0.730641	0.011619	-0.032286	-0.142973	0.989200	0.634955	-0.767269	-0.090173	0.771875	0.625186	0.115553
64904	9.506884	-1.049466	1.106304	-1.562101	-0.725610	0.011351	-0.026545	-0.138589	0.989994	0.622863	-0.776896	-0.092056	0.781881	0.614187	0.106945
64905	9.581607	-1.773522	0.987025	-1.644205	-0.734865	0.015137	-0.020599	-0.134209	0.990739	0.610016	-0.786805	-0.093901	0.792121	0.602433	0.098077
64906	9.702974	-1.880843	0.724536	-1.640470	-0.707410	0.019623	-0.014810	-0.130171	0.991381	0.596985	-0.796528	-0.095668	0.802116	0.590422	0.089507
64907	9.799727	-1.991982	0.237587	-1.622960	-0.653051	0.011821	-0.009402	-0.126425	0.991932	0.583978	-0.805931	-0.097184	0.811715	0.578353	0.081407
64908	9.777822	-2.036103	-0.253531	-1.569808	-0.588157	0.001116	-0.004565	-0.123095	0.992384	0.571206	-0.814881	-0.098450	0.820794	0.566407	0.074032
64909	9.700091	-1.843866	-0.374350	-1.477661	-0.530836	-0.032872	-0.000303	-0.119827	0.992795	0.559103	-0.823144	-0.099180	0.829098	0.555045	0.067245
64910	9.641348	-1.731193	-0.316404	-1.393343	-0.492940	-0.073797	0.003424	-0.116535	0.993181	0.547541	-0.830857	-0.099377	0.836772	0.544148	0.060963
64911	9.604091	-1.530298	-0.295014	-1.285535	-0.426214	-0.124825	0.006398	-0.113175	0.993554	0.536834	-0.837871	-0.098898	0.843663	0.534007	0.055396
64912	9.597564	-1.319015	-0.246782	-1.203077	-0.392878	-0.159414	0.008906	-0.109783	0.993916	0.526702	-0.844384	-0.097986	0.850004	0.524370	0.050303
64913	9.681994	-1.289572	-0.270813	-1.114321	-0.360456	-0.192154	0.011047	-0.106260	0.994277	0.517307	-0.850328	-0.096624	0.855729	0.515414	0.045576
64914	9.741041	-1.292718	-0.222751	-1.007731	-0.343507	-0.199507	0.012999	-0.102831	0.994614	0.508725	-0.855659	-0.095114	0.860831	0.507222	0.041190
64915	9.712168	-1.298888	-0.076102	-0.898584	-0.346955	-0.189803	0.015105	-0.099435	0.994929	0.501088	-0.860321	-0.093590	0.865265	0.499960	0.036830
64916	9.668879	-1.312960	0.141589	-0.822987	-0.376136	-0.162819	0.017585	-0.096192	0.995207	0.494021	-0.864538	-0.092291	0.869272	0.493276	0.032318
64917	9.665663	-1.403949	0.237022	-0.774178	-0.405510	-0.136315	0.020518	-0.093004	0.995454	0.487393	-0.868409	-0.091180	0.872942	0.487048	0.027512
64918	9.659639	-1.427315	0.499484	-0.723697	-0.415401	-0.112315	0.023634	-0.090045	0.995657	0.481132	-0.871987	-0.090282	0.876329	0.481177	0.022715
64919	9.695236	-1.483221	0.735921	-0.656360	-0.397022	-0.086351	0.026775	-0.087375	0.995816	0.475480	-0.875154	-0.089573	0.879319	0.475889	0.018113
64920	9.774345	-1.551508	0.933441	-0.591667	-0.350052	-0.057083	0.029614	-0.085248	0.995920	0.470330	-0.877977	-0.089138	0.881994	0.471051	0.014094
64921	9.879511	-1.655631	0.897958	-0.554873	-0.274193	-0.015385	0.032030	-0.083817	0.995966	0.465517	-0.880545	-0.089074	0.884459	0.466492	0.010814
64922	9.792671	-1.640013	0.635304	-0.471680	-0.180399	0.035067	0.033817	-0.083318	0.995949	0.461373	-0.882680	-0.089508	0.886562	0.462531	0.008592
64923	9.548318	-1.569625	0.430622	-0.406878	-0.141269	0.075877	0.035483	-0.083333	0.995890	0.457813	-0.884449	-0.090320	0.888340	0.459136	0.006768
64924	9.499075	-1.450179	0.245263	-0.387888	-0.170643	0.082893	0.037405	-0.083317	0.995821	0.454378	-0.886127	-0.091206	0.890023	0.455891	0.004712
64925	9.688716	-1.285821	-0.092940	-0.486313	-0.205622	0.065056	0.039595	-0.082961	0.995766	0.450093	-0.888240	-0.091899	0.892104	0.451826	0.002171
64926	9.879920	-1.050353	-0.508033	-0.615224	-0.172205	0.033208	0.041308	-0.082513	0.995734	0.444627	-0.890950	-0.092275	0.894763	0.446542	-0.000115
64927	9.684727	-0.921337	-0.512003	-0.630902	-0.157133	-0.004685	0.042758	-0.081775	0.995733	0.439048	-0.893715	-0.092250	0.897445	0.441119	-0.002311
64928	9.509006	-0.818339	-0.258346	-0.576051	-0.235414	-0.054120	0.044663	-0.080289	0.995770	0.433940	-0.896260	-0.091729	0.899834	0.436202	-0.005189
64929	9.441307	-0.824074	0.019670	-0.524867	-0.358581	-0.098622	0.047531	-0.077848	0.995832	0.429331	-0.898578	-0.090737	0.901896	0.431854	-0.009288
64930	9.529947	-0.838905	0.295180	-0.508243	-0.496718	-0.152283	0.051391	-0.074374	0.995905	0.424862	-0.900853	-0.089199	0.903798	0.427707	-0.014697
64931	9.636827	-0.977456	0.420229	-0.568639	-0.586910	-0.202793	0.055907	-0.070049	0.995976	0.419899	-0.903381	-0.087107	0.905847	0.423079	-0.021092
64932	9.571924	-1.121107	0.453688	-0.619253	-0.675767	-0.228819	0.061106	-0.065168	0.996002	0.414461	-0.906115	-0.084715	0.908013	0.417981	-0.028360
64933	9.490099	-1.329321	0.465369	-0.656928	-0.757571	-0.244033	0.067049	-0.059812	0.995955	0.408715	-0.908961	-0.082103	0.910196	0.412567	-0.036499
64934	9.592781	-1.597187	0.219703	-0.737552	-0.820504	-0.277615	0.073426	-0.053956	0.995840	0.402233	-0.912116	-0.079078	0.912588	0.406366	-0.045270
64935	9.765166	-1.807672	-0.309003	-0.827794	-0.817500	-0.300200	0.079759	-0.047930	0.995661	0.394962	-0.915572	-0.075713	0.915229	0.399287	-0.054095
64936	9.842219	-2.056504	-0.746663	-0.824936	-0.792501	-0.307298	0.085844	-0.042007	0.995423	0.387700	-0.918952	-0.072215	0.917780	0.392125	-0.062600
64937	9.835282	-2.011982	-0.869358	-0.686526	-0.724710	-0.296567	0.091418	-0.036474	0.995144	0.381714	-0.921713	-0.068849	0.919749	0.386154	-0.070339
64938	9.772044	-1.839056	-0.914868	-0.545851	-0.647990	-0.278898	0.096349	-0.031446	0.994851	0.376995	-0.923881	-0.065714	0.921190	0.381385	-0.077160
64939	9.731085	-1.675425	-0.954020	-0.396500	-0.561961	-0.244062	0.100669	-0.027079	0.994551	0.373633	-0.925433	-0.063016	0.922098	0.377941	-0.083045
64940	9.661530	-1.462765	-0.940636	-0.231132	-0.489115	-0.207568	0.104429	-0.023346	0.994258	0.371759	-0.926336	-0.060798	0.922437	0.375973	-0.088058
64941	9.602760	-1.160611	-0.948589	-0.099872	-0.444604	-0.165558	0.107972	-0.020170	0.993949	0.371060	-0.926725	-0.059114	0.922310	0.375198	-0.092576
64942	9.640891	-0.718007	-0.988540	-0.002534	-0.414069	-0.129843	0.111332	-0.017445	0.993630	0.371223	-0.926739	-0.057865	0.921845	0.375301	-0.096699
64943	9.645733	-0.306276	-1.025787	0.054157	-0.399965	-0.112039	0.114658	-0.014935	0.993293	0.371894	-0.926532	-0.056859	0.921167	0.375919	-0.100680
64944	9.692068	0.226502	-1.093022	0.035755	-0.380761	-0.095736	0.117831	-0.012648	0.992953	0.372378	-0.926391	-0.055989	0.920571	0.376351	-0.104448
64945	9.586955	0.673722	-1.163142	-0.051584	-0.380799	-0.088716	0.121063	-0.010421	0.992590	0.372057	-0.926573	-0.055106	0.920281	0.375971	-0.108296
64946	9.542839	1.073662	-1.170145	-0.212873	-0.402948	-0.104941	0.124406	-0.007969	0.992199	0.370269	-0.927361	-0.053874	0.920556	0.374083	-0.112418
64947	9.322765	1.207976	-1.058761	-0.426758	-0.458625	-0.118775	0.128248	-0.005179	0.991729	0.366544	-0.928932	-0.052252	0.921519	0.370213	-0.117236
64948	9.433451	1.287841	-0.944379	-0.662390	-0.519061	-0.146088	0.132528	-0.001947	0.991177	0.360668	-0.931350	-0.050054	0.923231	0.364119	-0.122728
64949	9.562313	1.264787	-0.869113	-0.927494	-0.551901	-0.178099	0.137051	0.001690	0.990563	0.352397	-0.934661	-0.047161	0.925761	0.355535	-0.128692
64950	9.785841	1.071991	-0.952238	-1.164608	-0.554119	-0.201403	0.141513	0.005484	0.989921	0.341920	-0.938713	-0.043679	0.929013	0.344655	-0.134715
64951	9.846589	0.813935	-1.014558	-1.333575	-0.545398	-0.208450	0.145943	0.009288	0.989249	0.329878	-0.943184	-0.039811	0.932674	0.332142	-0.140715
64952	9.809444	0.500708	-1.034296	-1.436018	-0.531158	-0.216023	0.150230	0.013025	0.988565	0.316820	-0.947815	-0.035658	0.936513	0.318554	-0.146517
64953	9.673523	0.237307	-1.069429	-1.506227	-0.522206	-0.210285	0.154530	0.016651	0.987848	0.303083	-0.952448	-0.031357	0.940352	0.304245	-0.152229
64954	9.665421	-0.124819	-1.151637	-1.569490	-0.529471	-0.201840	0.158943	0.020115	0.987083	0.288653	-0.957054	-0.026977	0.944149	0.289212	-0.157923
64955	9.731149	-0.607773	-1.279284	-1.590741	-0.508597	-0.192730	0.163261	0.023398	0.986305	0.273995	-0.961467	-0.022545	0.947773	0.273923	-0.163381
64956	9.797281	-1.065830	-1.431284	-1.574450	-0.481692	-0.182532	0.167368	0.026405	0.985541	0.259390	-0.965601	-0.018180	0.951160	0.258682	-0.168459
64957	9.884346	-1.457433	-1.633422	-1.540961	-0.431301	-0.167431	0.171101	0.029105	0.984823	0.245067	-0.969406	-0.013928	0.954288	0.243731	-0.173000
64958	9.909633	-1.739212	-1.772213	-1.440969	-0.381904	-0.154875	0.174401	0.031478	0.984171	0.231607	-0.972759	-0.009929	0.957049	0.229673	-0.176941
64959	10.004908	-1.960900	-1.769769	-1.295071	-0.348159	-0.133255	0.177482	0.033541	0.983552	0.219499	-0.975592	-0.006339	0.959333	0.217013	-0.180513
64960	10.157397	-2.155946	-1.894929	-1.145138	-0.314777	-0.115945	0.180275	0.035303	0.982983	0.208753	-0.977963	-0.003161	0.961209	0.205770	-0.183672
64961	10.576662	-2.411825	-2.067676	-0.968111	-0.284408	-0.095120	0.182862	0.036781	0.982450	0.199668	-0.979864	-0.000480	0.962650	0.196251	-0.186523
64962	11.120637	-2.502150	-2.365037	-0.780891	-0.228546	-0.073538	0.184936	0.037905	0.982019	0.192324	-0.981330	0.001660	0.963748	0.188559	-0.188774
64963	11.434223	-2.414374	-2.552013	-0.560434	-0.130055	-0.044590	0.186151	0.038545	0.981765	0.187044	-0.982347	0.003102	0.964553	0.183056	-0.190074
64964	11.553129	-2.040309	-2.449738	-0.317324	-0.015997	-0.008748	0.186306	0.038623	0.981732	0.184042	-0.982911	0.003743	0.965100	0.179982	-0.190230
64965	11.335850	-1.311007	-2.270472	-0.089672	0.110106	0.028535	0.185340	0.038091	0.981936	0.183150	-0.983078	0.003566	0.965456	0.179181	-0.189181
64966	10.830090	-0.569369	-1.827604	0.119106	0.204926	0.058829	0.183487	0.037108	0.982322	0.184235	-0.982878	0.002716	0.965603	0.180480	-0.187182
64967	10.309168	0.190743	-1.238539	0.288286	0.239214	0.086215	0.181382	0.035765	0.982762	0.186883	-0.982381	0.001260	0.965492	0.183433	-0.184870
64968	9.853967	0.706359	-0.622490	0.383975	0.236913	0.092602	0.179287	0.034380	0.983196	0.190466	-0.981694	-0.000404	0.965183	0.187338	-0.182553
64969	9.705491	1.022131	-0.111022	0.388916	0.236616	0.093840	0.177228	0.032953	0.983618	0.194074	-0.980985	-0.002103	0.964845	0.191268	-0.180253
64970	9.598014	0.957410	-0.015225	0.286413	0.299607	0.085607	0.174521	0.031500	0.984149	0.196730	-0.980451	-0.003505	0.964800	0.194224	-0.177307
64971	9.301029	0.897737	-0.168682	0.089084	0.335957	0.060912	0.171440	0.030194	0.984732	0.197511	-0.980291	-0.004329	0.965193	0.195237	-0.174025
64972	9.001389	0.613598	-0.516777	-0.185142	0.322692	0.010914	0.168363	0.029423	0.985286	0.195748	-0.980645	-0.004165	0.966093	0.193569	-0.170864
64973	8.978843	0.332456	-0.909372	-0.443356	0.278531	-0.051848	0.165609	0.029347	0.985755	0.191578	-0.981473	-0.002966	0.967405	0.189340	-0.168163
64974	9.184107	-0.070632	-1.048835	-0.641209	0.248197	-0.107783	0.163019	0.029906	0.986170	0.185591	-0.982627	-0.000880	0.969010	0.183168	-0.165738
64975	9.479933	-0.526583	-1.154852	-0.698351	0.256278	-0.148681	0.160300	0.030856	0.986586	0.179088	-0.983832	0.001672	0.970686	0.176418	-0.163234
64976	9.583791	-0.827666	-1.257912	-0.623084	0.292425	-0.168226	0.157179	0.031968	0.987053	0.173347	-0.984851	0.004293	0.972237	0.170428	-0.160340
64977	9.619381	-1.277448	-1.106355	-0.417459	0.332084	-0.161330	0.153708	0.032942	0.987567	0.169562	-0.985498	0.006481	0.973459	0.166458	-0.157064
64978	9.724693	-1.612137	-1.136570	-0.104177	0.362745	-0.127561	0.149976	0.033559	0.988120	0.168786	-0.985621	0.007856	0.974176	0.165603	-0.153484
64979	9.902744	-1.705346	-1.499920	0.226965	0.418604	-0.088731	0.145782	0.033670	0.988744	0.171145	-0.985211	0.008316	0.974401	0.168006	-0.149388
64980	9.946660	-1.519903	-1.669926	0.586184	0.472048	-0.060006	0.141095	0.033417	0.989432	0.176987	-0.984181	0.008001	0.974047	0.173988	-0.144778
64981	10.116309	-1.099965	-1.441483	0.879053	0.520450	-0.046705	0.135979	0.032873	0.990166	0.185617	-0.982596	0.007131	0.973168	0.182822	-0.139714
64982	10.252508	-0.707883	-1.354286	1.001468	0.598355	-0.037187	0.130106	0.032077	0.990981	0.195453	-0.980694	0.006083	0.972045	0.192898	-0.133863
64983	10.338847	-0.457540	-1.218009	1.042548	0.674940	-0.023012	0.123539	0.030886	0.991859	0.205611	-0.978622	0.004864	0.970805	0.203336	-0.127248
64984	10.483809	-0.265393	-0.824686	1.070955	0.777137	-0.009193	0.115998	0.029318	0.992817	0.216058	-0.976374	0.003588	0.969465	0.214090	-0.119592
64985	10.466939	-0.043523	-0.284951	1.098589	0.887111	0.009597	0.107462	0.027195	0.993837	0.226690	-0.973965	0.002140	0.968021	0.225063	-0.110829
64986	10.356905	0.035866	0.216588	1.119986	0.989911	0.017096	0.097945	0.024710	0.994885	0.237551	-0.971375	0.000739	0.966424	0.236264	-0.101011
64987	10.390234	0.043874	0.588904	1.197194	1.092682	0.021184	0.087482	0.021777	0.995928	0.249090	-0.968480	-0.000703	0.964521	0.248137	-0.090149
64988	10.306542	0.088708	0.859460	1.259619	1.203566	0.018178	0.075952	0.018504	0.996940	0.261257	-0.965267	-0.001988	0.962276	0.260608	-0.078149
64989	10.023242	0.255502	1.039744	1.214126	1.269341	0.001905	0.063790	0.015020	0.997850	0.272922	-0.962032	-0.002966	0.959919	0.272525	-0.065467
64990	10.016257	0.301198	1.176455	1.070198	1.305210	-0.024397	0.051228	0.011594	0.998620	0.283245	-0.959042	-0.003396	0.957678	0.283028	-0.052414
64991	10.226184	0.187017	1.265195	0.871225	1.359772	-0.034427	0.038149	0.007936	0.999241	0.291593	-0.956536	-0.003536	0.955781	0.291506	-0.038805
64992	10.829324	-0.193237	1.063195	0.671684	1.472908	-0.009084	0.024076	0.003646	0.999703	0.298059	-0.954540	-0.003697	0.954244	0.298060	-0.024069
64993	11.352499	-0.472476	0.899350	0.563149	1.635402	0.044395	0.008642	-0.001778	0.999961	0.303417	-0.952848	-0.004316	0.952819	0.303442	-0.007695
64994	11.854470	-0.844019	0.937038	0.608892	1.823208	0.102524	-0.008378	-0.008373	0.999930	0.309262	-0.950962	-0.005372	0.950940	0.309195	0.010556
64995	12.042697	-0.937497	1.016616	0.723199	2.000809	0.140624	-0.026914	-0.016046	0.999509	0.316147	-0.948687	-0.006717	0.948328	0.315811	0.030606
64996	12.228243	-0.995447	0.935048	0.771206	2.104386	0.176513	-0.046251	-0.024472	0.998630	0.323563	-0.946171	-0.008201	0.945076	0.322740	0.051679
64997	12.356902	-1.114862	0.660969	0.788964	2.145458	0.238704	-0.065683	-0.033811	0.997268	0.331126	-0.943532	-0.010180	0.941298	0.329552	0.073170
64998	12.322387	-0.973000	0.626732	0.785633	2.156966	0.297928	-0.084921	-0.043832	0.995423	0.338780	-0.940782	-0.012524	0.937025	0.336166	0.094742
64999	12.199692	-0.794814	0.554547	0.737839	2.149533	0.351901	-0.103788	-0.054512	0.993104	0.345995	-0.938111	-0.015334	0.932478	0.342017	0.116226
65000	11.981020	-0.779127	0.375851	0.665375	2.121717	0.401078	-0.122099	-0.065614	0.990347	0.352689	-0.935558	-0.018501	0.927740	0.347026	0.137372
65001	11.671061	-0.500123	0.191431	0.580910	2.072571	0.437861	-0.139698	-0.077021	0.987194	0.358624	-0.933221	-0.022061	0.922970	0.350950	0.157991
65002	11.155974	-0.512796	-0.027852	0.465836	2.010972	0.482976	-0.156445	-0.088642	0.983701	0.363682	-0.931158	-0.026069	0.918292	0.353676	0.177913
65003	10.517361	-0.303321	-0.415590	0.392926	1.888977	0.563583	-0.171662	-0.100660	0.980000	0.368197	-0.929233	-0.030951	0.913763	0.355520	0.196577
65004	9.956560	-0.338131	-0.798033	0.311543	1.779943	0.609163	-0.185610	-0.112687	0.976141	0.372179	-0.927451	-0.036298	0.909413	0.356562	0.214083
65005	9.352726	-0.671525	-0.956022	0.319121	1.686514	0.623796	-0.198547	-0.124558	0.972144	0.376271	-0.925569	-0.041742	0.904986	0.357502	0.230636
65006	8.926757	-0.658057	-0.728852	0.415320	1.570216	0.632384	-0.210300	-0.136065	0.968122	0.381367	-0.923232	-0.046914	0.900185	0.359344	0.246047
65007	8.998530	-0.574044	-0.365484	0.465592	1.475374	0.620565	-0.221127	-0.147169	0.964077	0.386892	-0.920669	-0.051803	0.895219	0.361539	0.260523
65008	9.286806	-1.178498	-0.213370	0.534065	1.450303	0.577303	-0.231796	-0.157773	0.959885	0.393021	-0.917826	-0.055951	0.889834	0.364285	0.274756
65009	9.748869	-1.754637	-0.068951	0.705318	1.438046	0.541222	-0.242362	-0.168058	0.955519	0.400570	-0.914351	-0.059215	0.883631	0.368401	0.288923
65010	9.974607	-2.041584	-0.007121	0.963478	1.450251	0.505910	-0.253046	-0.178094	0.950921	0.410356	-0.909869	-0.061208	0.876114	0.374728	0.303321
65011	9.942305	-2.413867	-0.043409	1.300975	1.448341	0.495478	-0.263561	-0.188139	0.946118	0.422988	-0.904016	-0.061934	0.866958	0.383873	0.317844
65012	9.806004	-2.396764	0.037996	1.732170	1.420972	0.496105	-0.273636	-0.198183	0.941194	0.439295	-0.896269	-0.061006	0.855653	0.396769	0.332313
65013	9.407705	-1.888159	0.237289	2.116353	1.400580	0.502932	-0.283219	-0.208391	0.936141	0.458677	-0.886668	-0.058611	0.842260	0.412787	0.346706
65014	8.956393	-1.371979	0.286515	2.363050	1.341643	0.517821	-0.291962	-0.218645	0.931103	0.479948	-0.875564	-0.055107	0.827289	0.430792	0.360570
65015	8.675726	-0.891189	0.325689	2.507381	1.235553	0.529072	-0.299432	-0.228736	0.926294	0.502075	-0.863326	-0.050887	0.811333	0.449832	0.373350
65016	8.533205	-0.462750	0.492670	2.580957	1.124924	0.522863	-0.305754	-0.238417	0.921777	0.524437	-0.850209	-0.045950	0.794658	0.469364	0.384989
65017	8.560346	-0.120014	0.926597	2.569818	1.045705	0.513527	-0.311163	-0.247801	0.917482	0.546251	-0.836632	-0.040704	0.777681	0.488509	0.395690
65018	8.614921	0.196000	1.377231	2.489472	0.982224	0.494039	-0.315939	-0.256817	0.913361	0.567002	-0.822961	-0.035269	0.760718	0.506734	0.405621
65019	8.455774	0.406220	1.711177	2.328437	0.946577	0.471380	-0.320274	-0.265579	0.909336	0.586058	-0.809711	-0.030069	0.744285	0.523294	0.414974
65020	8.166079	0.705295	2.084271	2.109442	0.892266	0.448229	-0.324150	-0.273942	0.905474	0.603091	-0.797271	-0.025306	0.728840	0.537880	0.423648
65021	7.874437	1.018302	2.435610	1.856209	0.806915	0.414835	-0.327367	-0.281648	0.901945	0.617885	-0.785983	-0.021172	0.714877	0.550367	0.431331
65022	7.578024	1.483438	2.798221	1.576077	0.713799	0.355569	-0.330175	-0.288417	0.898777	0.630274	-0.776174	-0.017536	0.702665	0.560686	0.438056
65023	7.381326	2.116685	3.019003	1.286971	0.614784	0.285544	-0.332570	-0.294120	0.896042	0.640249	-0.768032	-0.014471	0.692444	0.568877	0.443734
65024	7.329300	2.756557	3.191040	0.965427	0.490224	0.228451	-0.334441	-0.298696	0.893828	0.647706	-0.761792	-0.012223	0.684562	0.574850	0.448242
65025	7.344561	3.079938	3.262225	0.638463	0.375300	0.170283	-0.335810	-0.302175	0.892145	0.652690	-0.757546	-0.010908	0.679137	0.578631	0.451618
65026	7.555704	3.214327	3.258347	0.375587	0.261700	0.125107	-0.336732	-0.304663	0.890950	0.655704	-0.754948	-0.010335	0.675770	0.580719	0.453983
65027	7.877586	3.142599	3.267078	0.159597	0.179373	0.077347	-0.337348	-0.306301	0.890155	0.657113	-0.753721	-0.010324	0.674091	0.581450	0.455541
65028	8.111379	2.981048	3.327208	0.010885	0.118773	0.048080	-0.337800	-0.307379	0.889612	0.657397	-0.753468	-0.010715	0.673588	0.581209	0.456591
65029	8.288361	2.724431	3.339177	-0.098993	0.079206	0.015317	-0.338142	-0.307961	0.889281	0.656866	-0.753923	-0.011318	0.673934	0.580311	0.457222
65030	8.296180	2.415863	3.427138	-0.199366	0.060760	-0.014725	-0.338616	-0.308227	0.889008	0.655520	-0.755081	-0.012111	0.675006	0.578661	0.457731
65031	8.201316	1.827594	3.553403	-0.318443	0.030959	-0.044430	-0.339022	-0.308070	0.888908	0.653312	-0.756974	-0.013178	0.676940	0.576266	0.457897
65032	8.053230	0.912547	3.695331	-0.405588	-0.001084	-0.062242	-0.339388	-0.307617	0.888925	0.650398	-0.759455	-0.014494	0.679558	0.573236	0.457823
65033	8.014937	0.130032	3.911521	-0.434995	-0.004873	-0.099740	-0.339906	-0.306828	0.889000	0.647199	-0.762162	-0.015597	0.682347	0.570058	0.457642
65034	8.103867	-0.379794	4.166913	-0.393369	0.009250	-0.124629	-0.340741	-0.305954	0.888981	0.644135	-0.764738	-0.016301	0.684826	0.567069	0.457653
65035	8.316134	-0.701271	4.415701	-0.308238	0.044107	-0.154406	-0.341941	-0.305019	0.888842	0.641596	-0.766869	-0.016337	0.686608	0.564691	0.457923
65036	8.610890	-1.086491	4.606810	-0.173733	0.098718	-0.170003	-0.343676	-0.304296	0.888420	0.639869	-0.768325	-0.015635	0.687353	0.563099	0.458765
65037	8.895621	-1.494866	4.729678	0.020135	0.154713	-0.162456	-0.345685	-0.303919	0.887770	0.639546	-0.768623	-0.014100	0.686646	0.562896	0.460072
65038	9.124424	-1.706755	4.834539	0.191284	0.197660	-0.123288	-0.347797	-0.304110	0.886879	0.640480	-0.767879	-0.012136	0.684707	0.563807	0.461842
65039	9.093677	-1.579230	4.991816	0.306393	0.231337	-0.056830	-0.349651	-0.304984	0.885850	0.642468	-0.766244	-0.010219	0.681894	0.565557	0.463860
65040	8.839123	-1.247177	5.158709	0.352984	0.244896	0.014819	-0.351189	-0.306510	0.884714	0.644971	-0.764158	-0.008721	0.678734	0.567552	0.466053
65041	8.501288	-0.868834	5.437518	0.324982	0.221575	0.076333	-0.352106	-0.308358	0.883706	0.647527	-0.762002	-0.007888	0.675818	0.569446	0.467976
65042	8.203580	-0.453170	5.774841	0.217292	0.175572	0.119708	-0.352482	-0.310295	0.882878	0.649464	-0.760351	-0.007938	0.673760	0.570599	0.469535
65043	7.997751	-0.062405	5.917159	0.039267	0.125130	0.133422	-0.352371	-0.312032	0.882310	0.650280	-0.759642	-0.008946	0.673031	0.570596	0.470584
65044	7.811688	0.264631	5.826417	-0.179821	0.092677	0.117521	-0.352199	-0.313478	0.881866	0.649532	-0.760257	-0.010840	0.673843	0.568982	0.471376
65045	7.695884	0.461451	5.691676	-0.413267	0.068746	0.077094	-0.352082	-0.314466	0.881561	0.647090	-0.762295	-0.013485	0.676250	0.565701	0.471878
65046	7.668846	0.659806	5.768493	-0.665034	0.013448	0.037086	-0.351901	-0.314850	0.881496	0.642758	-0.765882	-0.016961	0.680462	0.560620	0.471887
65047	8.137806	0.034009	5.265693	-0.825573	0.007110	0.003650	-0.351849	-0.314931	0.881488	0.637205	-0.770411	-0.020904	0.685691	0.554334	0.471744
65048	8.206221	-0.150520	5.278073	-0.905811	0.039908	-0.019109	-0.352212	-0.315028	0.881308	0.630952	-0.775419	-0.025020	0.691265	0.547250	0.471880
65049	8.204014	-0.598570	5.160370	-0.935143	0.017289	-0.012679	-0.352337	-0.315039	0.881254	0.624488	-0.780484	-0.029336	0.697047	0.539996	0.471731
65050	8.186682	-0.979571	4.897411	-0.863708	-0.033300	0.011175	-0.352003	-0.314973	0.881411	0.618533	-0.785044	-0.033517	0.702503	0.533384	0.471159
65051	8.135622	-1.325813	4.594552	-0.735508	-0.083575	0.042427	-0.351080	-0.314881	0.881812	0.613566	-0.788758	-0.037371	0.707304	0.527930	0.470118
65052	8.057712	-1.601994	4.256426	-0.562626	-0.148615	0.078323	-0.349515	-0.314744	0.882483	0.609901	-0.791431	-0.040713	0.711238	0.523997	0.468580
65053	8.085772	-1.829959	4.022540	-0.359953	-0.208457	0.105601	-0.347316	-0.314510	0.883434	0.607768	-0.792931	-0.043350	0.714136	0.521866	0.466547
65054	8.210233	-2.014605	3.527400	-0.143996	-0.259947	0.119990	-0.344697	-0.314132	0.884593	0.607204	-0.793265	-0.045092	0.715882	0.521586	0.464178
65055	8.426464	-2.028360	3.192496	0.123762	-0.283650	0.106623	-0.341947	-0.313517	0.885878	0.608516	-0.792236	-0.045490	0.716086	0.523516	0.461683
65056	8.604338	-1.657456	2.939699	0.415152	-0.300121	0.075070	-0.339310	-0.312559	0.887229	0.611793	-0.789779	-0.044256	0.714548	0.527784	0.459202
65057	8.699994	-1.098449	2.912363	0.633674	-0.319076	0.040952	-0.336711	-0.311210	0.888692	0.616508	-0.786241	-0.041748	0.711719	0.533829	0.456599
65058	8.691093	-0.553184	3.024280	0.738350	-0.357523	0.015006	-0.334047	-0.309432	0.890317	0.621851	-0.782187	-0.038533	0.708318	0.540773	0.453708
65059	8.713812	-0.293876	3.140040	0.759719	-0.396971	0.005351	-0.331132	-0.307333	0.892131	0.627297	-0.777985	-0.035177	0.704876	0.547983	0.450405
65060	8.778398	-0.173938	3.427795	0.714107	-0.430056	0.001438	-0.328066	-0.304998	0.894063	0.632374	-0.774002	-0.031999	0.701766	0.554885	0.446796
65061	8.851588	-0.089166	3.749170	0.642128	-0.467248	-0.008209	-0.324765	-0.302345	0.896167	0.636909	-0.770390	-0.029099	0.699196	0.561326	0.442762
65062	9.077781	-0.038314	4.149632	0.568308	-0.482329	-0.021071	-0.321499	-0.299486	0.898302	0.640858	-0.767205	-0.026419	0.697094	0.567190	0.438584
65063	9.325200	0.153379	4.512069	0.503337	-0.441481	-0.014635	-0.318439	-0.296874	0.900257	0.644380	-0.764325	-0.024119	0.695249	0.572427	0.434690
65064	9.598470	0.409725	4.844398	0.423636	-0.367231	0.015443	-0.315755	-0.294906	0.901847	0.647419	-0.761804	-0.022437	0.693647	0.576789	0.431472
65065	9.643750	0.657530	5.238823	0.289870	-0.313463	0.070079	-0.313047	-0.293641	0.903204	0.649715	-0.759864	-0.021851	0.692728	0.579984	0.428656
65066	9.668100	0.815396	5.472968	0.182266	-0.274713	0.108691	-0.310404	-0.292894	0.904358	0.651364	-0.758444	-0.022068	0.692368	0.582216	0.426205
65067	9.801048	0.870520	5.710120	0.145760	-0.256058	0.152147	-0.307559	-0.292567	0.905435	0.652910	-0.757091	-0.022853	0.692182	0.584138	0.423870
65068	10.227184	0.799289	6.094940	0.196485	-0.192209	0.202563	-0.304871	-0.292998	0.906204	0.654938	-0.755306	-0.023871	0.691455	0.586229	0.422167
65069	10.840570	0.522138	6.645345	0.293052	-0.048298	0.246709	-0.302842	-0.294588	0.906369	0.657776	-0.752802	-0.024896	0.689650	0.588649	0.421753
65070	11.398160	0.114338	6.817640	0.339290	0.179681	0.289074	-0.302138	-0.297844	0.905539	0.661034	-0.749902	-0.026095	0.686838	0.590708	0.423459
65071	11.085353	-0.216769	6.099342	0.370921	0.318192	0.336336	-0.302015	-0.302258	0.904117	0.664653	-0.746643	-0.027588	0.683391	0.592592	0.426394
65072	10.133617	-0.236521	4.981113	0.506177	0.269225	0.366266	-0.301373	-0.306608	0.902866	0.669254	-0.742477	-0.028746	0.679171	0.595583	0.428961
65073	9.256617	0.314189	3.839216	0.693906	0.130691	0.407493	-0.299445	-0.310419	0.902204	0.675233	-0.737015	-0.029470	0.674086	0.600374	0.430301
65074	8.352430	1.098337	2.658568	0.660654	-0.027774	0.436648	-0.296263	-0.313481	0.902196	0.681020	-0.731626	-0.030580	0.669657	0.605354	0.430241
65075	7.565016	1.386831	1.822296	0.442054	-0.210344	0.474702	-0.291539	-0.315677	0.902969	0.685434	-0.727387	-0.032990	0.667222	0.609308	0.428437
65076	7.051526	1.123266	1.939404	0.239241	-0.375793	0.500140	-0.285562	-0.317034	0.904402	0.688519	-0.724299	-0.036502	0.666630	0.612275	0.425116
65077	6.946106	0.636621	2.425125	0.049505	-0.506659	0.518075	-0.278530	-0.317678	0.906367	0.690383	-0.722281	-0.041000	0.667677	0.614321	0.420496
65078	7.070678	-0.049302	2.681179	-0.232425	-0.639074	0.525794	-0.270587	-0.317570	0.908808	0.690317	-0.721995	-0.046757	0.671003	0.614713	0.414587
65079	7.706448	-0.819960	2.815067	-0.512660	-0.778551	0.533600	-0.261581	-0.316646	0.911763	0.688357	-0.723379	-0.053735	0.676565	0.613562	0.407187
65080	8.720885	-1.482759	2.809204	-0.750916	-0.879362	0.501296	-0.252123	-0.314918	0.915020	0.684582	-0.726349	-0.061356	0.683945	0.610937	0.398716
65081	9.769753	-1.942930	2.273480	-0.971548	-0.952069	0.416036	-0.242648	-0.312152	0.918522	0.678998	-0.730889	-0.069014	0.692881	0.606929	0.389299
65082	10.813232	-1.929483	1.703437	-1.113425	-0.939120	0.291242	-0.234093	-0.308636	0.921924	0.671969	-0.736670	-0.075993	0.702608	0.601715	0.379843
65083	11.486821	-1.753047	1.702989	-1.019236	-0.844824	0.158026	-0.226975	-0.304739	0.924996	0.665205	-0.742221	-0.081296	0.711326	0.596860	0.371179
65084	11.541367	-1.526390	2.178403	-0.721149	-0.675935	0.080817	-0.221576	-0.301340	0.927415	0.660281	-0.746226	-0.084715	0.717589	0.593583	0.364314
65085	10.784297	-1.357026	2.632906	-0.391430	-0.553880	0.050258	-0.217164	-0.298424	0.929399	0.657658	-0.748321	-0.086612	0.721336	0.592418	0.358769
65086	9.872865	-1.131000	2.718212	-0.152946	-0.588852	0.053999	-0.212521	-0.295361	0.931449	0.656715	-0.749025	-0.087677	0.723575	0.593063	0.353151
65087	9.139026	-0.607570	2.529772	-0.047201	-0.707328	0.058320	-0.206916	-0.291586	0.933897	0.656581	-0.749057	-0.088402	0.725319	0.594887	0.346442
65088	8.728990	0.000306	2.538407	-0.147694	-0.859708	0.036671	-0.200394	-0.286764	0.936808	0.655628	-0.749788	-0.089270	0.728007	0.596309	0.338263
65089	9.177416	-0.404983	2.323975	-0.251341	-1.016592	0.036644	-0.192635	-0.280957	0.940189	0.653954	-0.751106	-0.090465	0.731598	0.597414	0.328422
65090	9.537128	-0.245870	2.365002	-0.253894	-1.048455	0.045263	-0.184616	-0.275052	0.943538	0.652223	-0.752456	-0.091733	0.735202	0.598462	0.318310
65091	9.027970	-0.063113	2.553857	-0.533248	-1.091694	0.021355	-0.176320	-0.268666	0.946958	0.648419	-0.755506	-0.093614	0.740583	0.597520	0.307419
65092	9.206610	-0.666095	2.177537	-0.747359	-1.215843	0.050373	-0.166914	-0.261820	0.950573	0.642991	-0.759787	-0.096366	0.747464	0.595125	0.295167
65093	9.345894	-1.047346	1.943681	-0.821868	-1.263405	0.103519	-0.156661	-0.255086	0.954143	0.637080	-0.764318	-0.099734	0.754709	0.592241	0.282249
65094	9.396812	-1.422528	1.565100	-0.829150	-1.283963	0.162664	-0.145859	-0.248772	0.957516	0.631085	-0.768765	-0.103599	0.761877	0.589163	0.269128
65095	9.390746	-1.490930	1.066813	-0.790684	-1.267794	0.195687	-0.134826	-0.242803	0.960660	0.625406	-0.772851	-0.107562	0.768564	0.586300	0.256051
65096	9.283973	-1.536429	1.014967	-0.696069	-1.209052	0.184186	-0.124317	-0.237180	0.963478	0.620320	-0.776441	-0.111098	0.774434	0.583853	0.243652
65097	9.277726	-1.778154	1.171719	-0.570043	-1.138146	0.152221	-0.114429	-0.231700	0.966034	0.616171	-0.779328	-0.113932	0.779255	0.582205	0.231944
65098	9.355409	-1.932090	1.308227	-0.408295	-1.040401	0.095762	-0.105681	-0.226418	0.968280	0.613133	-0.781444	-0.115810	0.782879	0.581446	0.221408
65099	9.478937	-1.786006	1.442894	-0.286468	-0.927485	0.041560	-0.098047	-0.221320	0.970260	0.611027	-0.782939	-0.116846	0.785515	0.581399	0.211997
65100	9.565806	-1.634025	1.361519	-0.243394	-0.815678	-0.007795	-0.091644	-0.216541	0.971963	0.609150	-0.784331	-0.117304	0.787742	0.581321	0.203786
65101	9.602323	-1.389127	1.289013	-0.229475	-0.720303	-0.052012	-0.086173	-0.211915	0.973481	0.607391	-0.785700	-0.117271	0.789716	0.581178	0.196421
65102	9.614105	-1.282042	1.359876	-0.204110	-0.658474	-0.073949	-0.081382	-0.207532	0.974837	0.605760	-0.787002	-0.116973	0.791474	0.580998	0.189763
65103	9.757500	-1.073425	1.546691	-0.174148	-0.608943	-0.073654	-0.076896	-0.203382	0.976075	0.604420	-0.788088	-0.116594	0.792946	0.580993	0.183529
65104	9.794899	-1.048239	1.696957	-0.158153	-0.547401	-0.056446	-0.072860	-0.199781	0.977128	0.603167	-0.789082	-0.116358	0.794280	0.580894	0.177994
65105	9.724044	-1.046869	1.866728	-0.162281	-0.500127	-0.018461	-0.068889	-0.196697	0.978041	0.601962	-0.789984	-0.116477	0.795548	0.580720	0.172825
65106	9.688989	-0.860596	1.958632	-0.219468	-0.489274	0.033449	-0.064758	-0.194147	0.978833	0.600282	-0.791154	-0.117208	0.797163	0.579985	0.167776
65107	9.467521	-0.870996	1.906915	-0.348908	-0.468197	0.064472	-0.060528	-0.191912	0.979544	0.597634	-0.792974	-0.118430	0.799481	0.578240	0.162691
65108	9.351756	-1.118187	1.832514	-0.525047	-0.483195	0.088409	-0.056098	-0.189853	0.980209	0.593524	-0.795795	-0.120167	0.802859	0.575036	0.157324
65109	9.168216	-1.256726	1.739559	-0.694658	-0.511623	0.089693	-0.051345	-0.187605	0.980902	0.588076	-0.799531	-0.122134	0.807174	0.570574	0.151378
65110	9.108580	-1.319155	1.470508	-0.883561	-0.577898	0.069047	-0.046228	-0.184904	0.981669	0.580999	-0.804380	-0.124150	0.812590	0.564609	0.144614
65111	9.177065	-1.125622	1.134888	-1.065457	-0.677776	0.038243	-0.040376	-0.181379	0.982584	0.572419	-0.810217	-0.126039	0.818967	0.557361	0.136538
65112	9.285173	-0.959979	0.840450	-1.271995	-0.775559	0.015053	-0.033878	-0.177239	0.983585	0.562005	-0.817186	-0.127897	0.826440	0.548446	0.127294
65113	9.391228	-1.149049	0.284960	-1.462638	-0.838092	-0.040294	-0.027039	-0.172322	0.984669	0.549941	-0.825134	-0.129301	0.834766	0.538013	0.117078
65114	9.517533	-1.271657	-0.071735	-1.545131	-0.871782	-0.116579	-0.020326	-0.166741	0.985791	0.536994	-0.833523	-0.129913	0.843341	0.526723	0.106481
65115	9.624111	-1.324671	-0.186083	-1.557756	-0.863869	-0.178699	-0.013851	-0.160708	0.986905	0.523862	-0.841865	-0.129738	0.851691	0.515205	0.095849
65116	9.708014	-1.489886	-0.141651	-1.490255	-0.832630	-0.228561	-0.007879	-0.154559	0.987952	0.511132	-0.849786	-0.128868	0.859466	0.503959	0.085695
65117	9.767432	-1.693620	0.001779	-1.370488	-0.792652	-0.263715	-0.002269	-0.148318	0.988937	0.499397	-0.856958	-0.127378	0.866370	0.493583	0.076014
65118	9.916413	-1.965701	0.164781	-1.201414	-0.732943	-0.278834	0.002755	-0.142364	0.989811	0.489000	-0.863206	-0.125515	0.872280	0.484363	0.067237
65119	10.080243	-2.153767	0.203084	-1.015694	-0.643134	-0.267240	0.007188	-0.136924	0.990556	0.480233	-0.868400	-0.123523	0.877112	0.476585	0.059513
65120	9.974303	-2.356345	0.162899	-0.853921	-0.545777	-0.239970	0.010872	-0.132280	0.991153	0.472794	-0.872734	-0.121662	0.881106	0.469934	0.053053
65121	9.938943	-2.425306	0.169817	-0.700385	-0.456221	-0.207358	0.014026	-0.128303	0.991636	0.466739	-0.876220	-0.119972	0.884284	0.464518	0.047594
65122	9.927848	-2.296651	0.136332	-0.565424	-0.363310	-0.163679	0.016513	-0.125216	0.991992	0.461804	-0.879012	-0.118642	0.886828	0.460065	0.043310
65123	9.881847	-2.159024	0.209555	-0.415778	-0.296136	-0.120684	0.018688	-0.122768	0.992259	0.458231	-0.881014	-0.117635	0.888637	0.456882	0.039792
65124	9.752266	-1.941025	0.264805	-0.261494	-0.254062	-0.078635	0.020617	-0.120946	0.992445	0.455968	-0.882273	-0.116992	0.889757	0.454935	0.036958
65125	9.688639	-1.701137	0.378015	-0.184081	-0.247803	-0.050833	0.022692	-0.119348	0.992593	0.454434	-0.883120	-0.116574	0.890492	0.453713	0.034196
65126	9.760772	-1.469093	0.389241	-0.215088	-0.252193	-0.049115	0.024745	-0.117800	0.992729	0.452576	-0.884123	-0.116194	0.891382	0.452161	0.031436
65127	9.858768	-1.288468	0.335763	-0.260647	-0.213613	-0.056591	0.026495	-0.116315	0.992859	0.450356	-0.885316	-0.115734	0.892456	0.450207	0.028927
65128	9.777919	-0.978110	0.385912	-0.318787	-0.163859	-0.055577	0.027738	-0.115116	0.992965	0.447571	-0.886783	-0.115309	0.893818	0.447621	0.026925
65129	9.621808	-0.835355	0.272076	-0.396152	-0.143731	-0.054394	0.028881	-0.113972	0.993064	0.444132	-0.888564	-0.114895	0.895496	0.444370	0.024956
65130	9.421949	-0.751026	0.150865	-0.449043	-0.176537	-0.049141	0.030275	-0.112783	0.993158	0.440169	-0.890578	-0.114552	0.897405	0.440625	0.022682
65131	9.356722	-0.552528	0.176609	-0.507393	-0.273417	-0.051213	0.032605	-0.111106	0.993274	0.435717	-0.892813	-0.114172	0.899493	0.436509	0.019300
65132	9.435256	-0.387699	0.045411	-0.649662	-0.376894	-0.073800	0.035710	-0.108841	0.993418	0.429938	-0.895685	-0.113588	0.902152	0.431164	0.014810
65133	9.577083	-0.280728	-0.347483	-0.819804	-0.445770	-0.098343	0.039417	-0.106028	0.993582	0.422659	-0.899250	-0.112729	0.905431	0.424390	0.009368
65134	9.681057	-0.315765	-0.314817	-0.969345	-0.530609	-0.131948	0.043708	-0.102638	0.993758	0.413966	-0.903436	-0.111517	0.909242	0.416256	0.003002
65135	9.758224	-0.643539	-0.166054	-1.067802	-0.603491	-0.155104	0.048670	-0.098721	0.993924	0.404406	-0.907942	-0.109984	0.913284	0.407302	-0.004266
65136	9.864218	-1.098871	0.002554	-1.115492	-0.661036	-0.179224	0.054032	-0.094459	0.994061	0.394335	-0.912581	-0.108151	0.917377	0.397837	-0.012060
65137	9.943372	-1.562044	-0.094641	-1.128400	-0.669757	-0.201380	0.059502	-0.089956	0.994167	0.384175	-0.917157	-0.105982	0.921341	0.388240	-0.020013
65138	9.780607	-2.005085	-0.267067	-1.113574	-0.616546	-0.204670	0.064445	-0.085742	0.994231	0.374069	-0.921582	-0.103724	0.925159	0.378595	-0.027318
65139	9.617270	-2.315667	-0.366955	-1.053499	-0.593319	-0.209900	0.069264	-0.081560	0.994259	0.364541	-0.925658	-0.101328	0.928608	0.369466	-0.034382
65140	9.665895	-2.669106	-0.407783	-0.926874	-0.582553	-0.220930	0.073912	-0.077414	0.994256	0.356126	-0.929198	-0.098823	0.931510	0.361385	-0.041110
65141	9.859012	-2.772865	-0.428744	-0.737788	-0.496920	-0.223913	0.077849	-0.073535	0.994250	0.349505	-0.931973	-0.096295	0.933695	0.354992	-0.046853
65142	9.844421	-2.588930	-0.508050	-0.537776	-0.394944	-0.203731	0.080859	-0.070273	0.994245	0.344689	-0.933994	-0.094047	0.935228	0.350310	-0.051299
65143	9.756577	-2.211167	-0.529739	-0.347883	-0.333527	-0.165316	0.083504	-0.067558	0.994215	0.341651	-0.935289	-0.092249	0.936110	0.347378	-0.055019
65144	9.685845	-1.759395	-0.441735	-0.207418	-0.279986	-0.119639	0.085744	-0.065500	0.994162	0.339858	-0.936066	-0.090985	0.936560	0.345675	-0.058001
65145	9.612517	-1.222247	-0.333417	-0.123275	-0.261090	-0.083606	0.087997	-0.063816	0.994075	0.338851	-0.936514	-0.090116	0.936716	0.344773	-0.060786
65146	9.551646	-0.837861	-0.236886	-0.143644	-0.236233	-0.054842	0.090050	-0.062521	0.993973	0.337601	-0.937022	-0.089524	0.936972	0.343628	-0.063272
65147	9.487372	-0.498468	-0.114830	-0.226406	-0.233616	-0.045373	0.092177	-0.061296	0.993854	0.335594	-0.937796	-0.088964	0.937486	0.341732	-0.065873
65148	9.459444	-0.328970	-0.095112	-0.342261	-0.249393	-0.050657	0.094373	-0.060005	0.993727	0.332478	-0.938971	-0.088273	0.938377	0.338723	-0.068663
65149	9.528079	-0.226505	-0.138714	-0.477586	-0.267813	-0.071089	0.096741	-0.058436	0.993593	0.328136	-0.940591	-0.087267	0.939664	0.334476	-0.071819
65150	9.543595	-0.225529	-0.285328	-0.627230	-0.300807	-0.097795	0.099278	-0.056550	0.993452	0.322380	-0.942707	-0.085877	0.941390	0.328794	-0.075359
65151	9.537941	-0.297146	-0.534800	-0.776504	-0.344776	-0.119451	0.102233	-0.054300	0.993277	0.315258	-0.945270	-0.084123	0.943483	0.321739	-0.079519
65152	9.567124	-0.279168	-0.729529	-0.897954	-0.393769	-0.143309	0.105531	-0.051725	0.993070	0.306972	-0.948179	-0.082008	0.945850	0.313499	-0.084185
65153	9.492090	-0.279055	-0.991223	-1.001238	-0.446569	-0.167012	0.109341	-0.048757	0.992808	0.297747	-0.951328	-0.079512	0.948362	0.304299	-0.089502
65154	9.477112	-0.406459	-1.135363	-1.066349	-0.491158	-0.183393	0.113493	-0.045572	0.992493	0.287872	-0.954588	-0.076750	0.950920	0.294422	-0.095220
65155	9.465375	-0.474443	-1.226615	-1.102713	-0.523931	-0.201843	0.117995	-0.042122	0.992120	0.277687	-0.957841	-0.073693	0.953398	0.284194	-0.101324
65156	9.429473	-0.591701	-1.204157	-1.112885	-0.547844	-0.215711	0.122661	-0.038558	0.991699	0.267371	-0.961016	-0.070435	0.955755	0.273791	-0.107570
65157	9.431779	-0.629040	-1.121792	-1.100849	-0.557752	-0.223196	0.127496	-0.034906	0.991225	0.257199	-0.964031	-0.067030	0.957911	0.263488	-0.113932
65158	9.492226	-0.757222	-1.056604	-1.073595	-0.551514	-0.225697	0.132238	-0.031336	0.990723	0.247245	-0.966865	-0.063583	0.959887	0.253359	-0.120109
65159	9.656408	-0.828028	-1.033256	-1.040835	-0.533607	-0.219321	0.136916	-0.027883	0.990190	0.237622	-0.969493	-0.060156	0.961660	0.243527	-0.126113
65160	9.681177	-0.905517	-1.032677	-0.994745	-0.498068	-0.205525	0.141253	-0.024733	0.989665	0.228381	-0.971909	-0.056886	0.963270	0.234056	-0.131636
65161	9.696581	-1.038826	-1.033328	-0.935478	-0.458222	-0.192857	0.145319	-0.021803	0.989145	0.219720	-0.974081	-0.053751	0.964679	0.225146	-0.136762
65162	9.607029	-1.038429	-1.093734	-0.903660	-0.427785	-0.179827	0.149082	-0.019140	0.988640	0.211308	-0.976100	-0.050762	0.965983	0.216475	-0.141475
65163	9.588923	-1.114608	-1.070857	-0.882436	-0.414635	-0.170503	0.152816	-0.016596	0.988115	0.203113	-0.977986	-0.047838	0.967157	0.208010	-0.146081
65164	9.593065	-1.264727	-1.032450	-0.857102	-0.417888	-0.170287	0.156542	-0.014113	0.987571	0.195130	-0.979748	-0.044932	0.968204	0.199738	-0.150617
65165	9.767313	-1.379363	-1.253957	-0.896180	-0.414106	-0.164012	0.160317	-0.011703	0.986996	0.186781	-0.981504	-0.041977	0.969232	0.191081	-0.155166
65166	9.796938	-1.469037	-1.645220	-0.927794	-0.391679	-0.152243	0.163858	-0.009513	0.986438	0.178077	-0.983241	-0.039062	0.970278	0.182062	-0.159418
65167	9.676974	-1.478341	-1.966891	-0.865518	-0.378589	-0.132358	0.167379	-0.007551	0.985864	0.169961	-0.984778	-0.036398	0.971132	0.173651	-0.163548
65168	9.649098	-1.354354	-2.036282	-0.713543	-0.384587	-0.122495	0.170931	-0.005726	0.985266	0.163284	-0.985991	-0.034057	0.971659	0.166699	-0.167601
65169	9.726814	-1.261701	-2.029868	-0.555042	-0.379906	-0.124947	0.174497	-0.003890	0.984650	0.158167	-0.986896	-0.031929	0.971871	0.161311	-0.171596
65170	9.881899	-1.196629	-2.019470	-0.429377	-0.351352	-0.137864	0.177716	-0.002006	0.984080	0.154283	-0.987575	-0.029875	0.971912	0.157136	-0.175199
65171	9.899391	-1.224156	-2.051771	-0.370558	-0.304621	-0.141770	0.180536	-0.000157	0.983568	0.150992	-0.988142	-0.027873	0.971909	0.153543	-0.178372
65172	9.964927	-1.320417	-2.137274	-0.315685	-0.276893	-0.145348	0.183029	0.001664	0.983106	0.148235	-0.988612	-0.025925	0.971868	0.150475	-0.181192
65173	10.099803	-1.417880	-2.308209	-0.240269	-0.244461	-0.141814	0.185272	0.003400	0.982681	0.146212	-0.988959	-0.024144	0.971749	0.148153	-0.183723
65174	10.215131	-1.344035	-2.322679	-0.148575	-0.205838	-0.130501	0.187101	0.004958	0.982328	0.145057	-0.989164	-0.022636	0.971572	0.146729	-0.185793
65175	10.295455	-1.145049	-2.324712	-0.014672	-0.140981	-0.117776	0.188376	0.006293	0.982077	0.145181	-0.989171	-0.021510	0.971307	0.146631	-0.187249
65176	10.324834	-0.804868	-2.170707	0.129898	-0.086203	-0.105980	0.189077	0.007431	0.981934	0.146689	-0.988965	-0.020762	0.970944	0.147964	-0.188081
65177	10.468534	-0.559646	-1.729383	0.254354	-0.056323	-0.101823	0.189550	0.008481	0.981834	0.149392	-0.988570	-0.020302	0.970440	0.150526	-0.188650
65178	10.747777	-0.322200	-1.402332	0.346581	-0.000460	-0.100151	0.189422	0.009435	0.981850	0.152990	-0.988025	-0.020021	0.969904	0.154006	-0.188597
65179	10.663035	-0.018205	-1.000377	0.425630	0.085552	-0.085734	0.188535	0.010106	0.982014	0.157319	-0.987344	-0.020043	0.969384	0.158268	-0.187739
65180	10.351708	0.157297	-0.585152	0.444621	0.138707	-0.066733	0.187104	0.010505	0.982284	0.161799	-0.986616	-0.020268	0.968924	0.162725	-0.186300
65181	10.160140	0.308569	-0.498966	0.352746	0.158602	-0.055459	0.185550	0.010749	0.982576	0.165359	-0.986022	-0.020440	0.968621	0.166271	-0.184734
65182	9.953191	0.389813	-0.551300	0.169028	0.166661	-0.053875	0.183866	0.010965	0.982890	0.167142	-0.985724	-0.020270	0.968637	0.168009	-0.183074
65183	9.809382	0.450310	-0.513155	-0.032745	0.172361	-0.052679	0.182179	0.011154	0.983202	0.166963	-0.985765	-0.019754	0.968986	0.167757	-0.181448
65184	9.776211	0.422327	-0.439296	-0.252725	0.195006	-0.060495	0.180208	0.011389	0.983563	0.164668	-0.986171	-0.018751	0.969747	0.165341	-0.179592
65185	9.777240	0.357597	-0.647639	-0.474110	0.202199	-0.063524	0.178211	0.011647	0.983923	0.160225	-0.986928	-0.017338	0.970860	0.160739	-0.177747
65186	9.851294	0.155958	-0.897958	-0.606051	0.245820	-0.065680	0.175739	0.011871	0.984365	0.154500	-0.987869	-0.015670	0.972237	0.154838	-0.175441
65187	9.776756	0.044617	-1.020101	-0.641127	0.293529	-0.064353	0.172850	0.012023	0.984875	0.148419	-0.988826	-0.013977	0.973702	0.148590	-0.172703
65188	9.671901	-0.092386	-1.145191	-0.666670	0.329458	-0.064282	0.169566	0.012143	0.985444	0.142079	-0.989779	-0.012251	0.975224	0.142089	-0.169558
65189	9.608063	-0.151079	-1.449549	-0.693269	0.337537	-0.066556	0.166242	0.012295	0.986008	0.135470	-0.990726	-0.010486	0.976735	0.135318	-0.166366
65190	9.678790	-0.251054	-1.744575	-0.677933	0.343093	-0.064871	0.162822	0.012448	0.986577	0.128998	-0.991606	-0.008778	0.978186	0.128695	-0.163061
65191	9.832283	-0.360949	-1.904132	-0.603989	0.390799	-0.052000	0.158993	0.012433	0.987201	0.123214	-0.992353	-0.007346	0.979561	0.122805	-0.159309
65192	9.685414	-0.426849	-1.967741	-0.471753	0.448907	-0.042016	0.154560	0.012271	0.987907	0.118704	-0.992910	-0.006238	0.980826	0.118232	-0.154921
65193	9.495375	-0.305833	-1.787803	-0.338085	0.472018	-0.042807	0.149941	0.012105	0.988621	0.115496	-0.993294	-0.005355	0.981926	0.114984	-0.150333
65194	9.627570	-0.101369	-1.874467	-0.274759	0.480049	-0.049625	0.145186	0.012015	0.989331	0.112918	-0.993594	-0.004504	0.982940	0.112367	-0.145613
65195	9.604641	-0.081516	-1.979474	-0.180053	0.513127	-0.056736	0.140140	0.011964	0.990059	0.111273	-0.993783	-0.003741	0.983859	0.110691	-0.140600
65196	9.536304	-0.054100	-1.660618	-0.076244	0.485521	-0.079689	0.135291	0.012183	0.990731	0.110680	-0.993852	-0.002893	0.984605	0.110046	-0.135807
65197	9.614607	0.087290	-1.596988	-0.057336	0.461246	-0.101169	0.130700	0.012640	0.991341	0.110296	-0.993897	-0.001869	0.985268	0.109585	-0.131296
65198	9.652136	0.184472	-1.910614	-0.129071	0.464405	-0.119156	0.126010	0.013280	0.991940	0.109226	-0.994017	-0.000567	0.985998	0.108417	-0.126707
65199	9.651408	0.217686	-1.895445	-0.184660	0.426267	-0.136146	0.121722	0.014135	0.992464	0.107620	-0.994192	0.000960	0.986712	0.106692	-0.122537
65200	9.756728	0.171180	-1.715340	-0.192852	0.390411	-0.154441	0.117722	0.015220	0.992930	0.105951	-0.994368	0.002680	0.987378	0.104886	-0.118672
65201	9.947840	-0.010095	-1.482749	-0.184496	0.356652	-0.167173	0.114090	0.016472	0.993334	0.104372	-0.994528	0.004504	0.987973	0.103162	-0.115184
65202	10.052614	-0.104975	-1.508453	-0.239103	0.367514	-0.165435	0.110305	0.017705	0.993740	0.102244	-0.994739	0.006374	0.988625	0.100901	-0.111534
65203	10.113041	-0.353854	-1.851702	-0.285530	0.379123	-0.148765	0.106471	0.018768	0.994139	0.099632	-0.994991	0.008114	0.989312	0.098184	-0.107808
65204	10.211329	-0.676482	-2.080846	-0.200171	0.416507	-0.111846	0.102257	0.019438	0.994568	0.097818	-0.995160	0.009392	0.989937	0.096326	-0.103663
65205	10.126641	-0.888855	-1.814929	0.034983	0.446199	-0.080711	0.097827	0.019768	0.995007	0.098292	-0.995106	0.010106	0.990338	0.096813	-0.099291
65206	10.165738	-1.055011	-1.337094	0.278596	0.453966	-0.068776	0.093280	0.019969	0.995440	0.101168	-0.994814	0.010476	0.990487	0.099729	-0.094817
65207	10.285068	-1.144786	-0.849228	0.481722	0.490006	-0.064006	0.088429	0.020058	0.995880	0.106040	-0.994305	0.010610	0.990422	0.104665	-0.090053
65208	10.353418	-1.219800	-0.499039	0.634267	0.549473	-0.054522	0.082947	0.019969	0.996354	0.112419	-0.993605	0.010555	0.990193	0.111134	-0.084661
65209	10.185491	-1.146626	-0.337453	0.748784	0.639440	-0.024918	0.076656	0.019428	0.996868	0.119888	-0.992736	0.010128	0.989824	0.118736	-0.078428
65210	10.085885	-1.103692	-0.184185	0.893083	0.720831	0.004482	0.069547	0.018457	0.997408	0.128774	-0.991630	0.009371	0.989232	0.127788	-0.071342
65211	10.251554	-0.956481	0.074481	1.107598	0.821729	0.034942	0.061537	0.016956	0.997961	0.139731	-0.990155	0.008207	0.988275	0.138941	-0.063300
65212	10.394985	-0.823858	0.464239	1.362735	0.963245	0.062812	0.052136	0.014893	0.998529	0.153206	-0.988171	0.006740	0.986818	0.152629	-0.053801
65213	10.454051	-0.730951	0.881768	1.623233	1.109691	0.081893	0.041395	0.012238	0.999068	0.169193	-0.985570	0.005062	0.984713	0.168826	-0.042868
65214	10.367178	-0.475716	1.223916	1.760227	1.238728	0.094930	0.029403	0.009067	0.999527	0.186522	-0.982445	0.003425	0.982011	0.186333	-0.030578
65215	10.293874	-0.187031	1.339744	1.716347	1.347644	0.088943	0.016426	0.005503	0.999850	0.203350	-0.979104	0.002048	0.978968	0.203286	-0.017202
65216	10.315658	-0.162291	1.444993	1.576185	1.451602	0.078286	0.002426	0.001638	0.999996	0.218802	-0.975769	0.001068	0.975766	0.218798	-0.002725
65217	10.589003	-0.159834	1.584894	1.445792	1.544145	0.075566	-0.012385	-0.002653	0.999920	0.232907	-0.972499	0.000304	0.972420	0.232892	0.012662
65218	10.912138	-0.087260	1.596219	1.310401	1.655227	0.079348	-0.028239	-0.007419	0.999574	0.245697	-0.969347	-0.000254	0.968935	0.245585	0.029196
65219	11.156219	-0.287686	1.486989	1.174339	1.778476	0.090125	-0.045155	-0.012827	0.998898	0.257104	-0.966384	-0.000787	0.965328	0.256785	0.046935
65220	11.282678	-0.438386	1.216105	1.089482	1.874515	0.110766	-0.062900	-0.018840	0.997842	0.267715	-0.963497	-0.001316	0.961443	0.267054	0.065647
65221	11.470609	-0.702106	0.861197	1.030275	1.927471	0.151253	-0.080922	-0.025603	0.996392	0.277722	-0.960659	-0.002129	0.957247	0.276548	0.084849
65222	11.727845	-0.732429	0.728762	0.956241	1.947683	0.206726	-0.098915	-0.033091	0.994546	0.287096	-0.957896	-0.003318	0.952781	0.285202	0.104251
65223	11.964468	-0.795648	0.325677	0.854150	1.970119	0.261727	-0.116822	-0.041355	0.992291	0.295510	-0.955326	-0.005024	0.948170	0.292645	0.123824
65224	11.862006	-0.760060	0.225612	0.705289	1.965315	0.287697	-0.134527	-0.049944	0.989651	0.302600	-0.953092	-0.006965	0.943576	0.298531	0.143329
65225	11.453926	-0.550601	0.257154	0.569963	1.892725	0.317719	-0.151315	-0.058728	0.986739	0.308432	-0.951201	-0.009315	0.939134	0.302933	0.162045
65226	11.022864	-0.489256	0.005616	0.463821	1.780878	0.359832	-0.166858	-0.067606	0.983660	0.313408	-0.949541	-0.012098	0.934844	0.306269	0.179627
65227	10.696186	-0.504070	-0.167712	0.388781	1.676229	0.434157	-0.181062	-0.076944	0.980457	0.317806	-0.948026	-0.015709	0.930707	0.308750	0.196104
65228	10.254369	-0.530307	-0.351632	0.351222	1.593259	0.493497	-0.194253	-0.086588	0.977122	0.322052	-0.946514	-0.019851	0.926579	0.310828	0.211749
65229	10.072162	-0.499957	-0.301157	0.356394	1.522499	0.523848	-0.206564	-0.096350	0.973678	0.326415	-0.944915	-0.024255	0.922380	0.312813	0.226636
65230	10.192446	-0.747915	-0.168237	0.490538	1.465258	0.523955	-0.218293	-0.105936	0.970116	0.332100	-0.942822	-0.028227	0.917637	0.316014	0.240993
65231	10.670301	-1.051520	-0.015772	0.732350	1.434826	0.498076	-0.229675	-0.115253	0.966419	0.339938	-0.939927	-0.031306	0.911971	0.321332	0.255057
65232	10.887108	-1.380864	0.229917	1.004592	1.477194	0.456245	-0.241495	-0.124370	0.962399	0.350199	-0.936091	-0.033095	0.905009	0.329039	0.269615
65233	10.700506	-1.641532	0.301750	1.319238	1.531281	0.447815	-0.253615	-0.133723	0.958018	0.363215	-0.931092	-0.033811	0.896523	0.339392	0.284709
65234	10.201704	-1.492010	0.440601	1.630177	1.561027	0.451225	-0.265829	-0.143342	0.953304	0.378979	-0.924803	-0.033378	0.886403	0.352410	0.300163
65235	9.775042	-1.227518	0.531883	1.873421	1.528486	0.456535	-0.277439	-0.153101	0.948466	0.396744	-0.917370	-0.032028	0.874998	0.367413	0.315256
65236	9.591389	-1.023582	0.588212	2.110701	1.467684	0.443729	-0.288355	-0.162701	0.943599	0.416394	-0.908708	-0.029439	0.862246	0.384420	0.329779
65237	9.454755	-0.774116	0.718230	2.336867	1.430135	0.429247	-0.298666	-0.172262	0.938682	0.437666	-0.898771	-0.025682	0.848084	0.403159	0.343825
65238	9.253280	-0.313425	0.985079	2.450485	1.404469	0.408833	-0.308606	-0.181743	0.933666	0.459562	-0.887899	-0.020935	0.832805	0.422617	0.357533
65239	9.001689	0.023824	1.222362	2.429031	1.392162	0.396405	-0.318134	-0.191300	0.928545	0.480876	-0.876645	-0.015852	0.817037	0.441472	0.370882
65240	8.583844	0.284695	1.543948	2.344930	1.378665	0.380858	-0.327387	-0.200855	0.923296	0.501135	-0.865305	-0.010544	0.801050	0.459244	0.383945
65241	8.096768	0.636850	1.959589	2.187757	1.341536	0.373167	-0.336027	-0.210371	0.918058	0.519768	-0.854290	-0.005514	0.785447	0.475324	0.396409
65242	7.596245	1.031575	2.290255	1.979144	1.255808	0.362172	-0.343853	-0.219532	0.913001	0.536455	-0.843929	-0.000885	0.770702	0.489480	0.407957
65243	7.437794	1.322396	2.565563	1.750711	1.151019	0.323405	-0.350788	-0.227984	0.908279	0.550999	-0.834499	0.003337	0.757197	0.501632	0.418351
65244	7.378405	1.600304	2.724477	1.544461	1.054405	0.257142	-0.357240	-0.235490	0.903838	0.563564	-0.826038	0.007529	0.744832	0.512060	0.427808
65245	7.437455	2.012081	2.805582	1.365573	0.975589	0.189591	-0.363271	-0.242117	0.899674	0.574395	-0.818495	0.011659	0.733556	0.521004	0.436406
65246	7.491157	2.283860	2.902806	1.181376	0.900360	0.108479	-0.369168	-0.247751	0.895731	0.583453	-0.811992	0.015876	0.723393	0.528477	0.444312
65247	7.598250	2.567776	2.992768	1.003911	0.820465	0.033462	-0.374766	-0.252406	0.892100	0.590856	-0.806528	0.020020	0.714450	0.534605	0.451395
65248	7.681731	2.800120	3.123399	0.803175	0.736246	-0.028552	-0.380133	-0.256155	0.888754	0.596510	-0.802249	0.023914	0.706876	0.539242	0.457760
65249	7.743372	2.907599	3.332297	0.607741	0.645263	-0.074157	-0.385012	-0.259069	0.885804	0.600576	-0.799100	0.027328	0.700766	0.542514	0.463254
65250	8.002126	2.845122	3.568912	0.426995	0.566194	-0.099744	-0.389532	-0.261375	0.883147	0.603226	-0.796999	0.030188	0.695976	0.544496	0.468125
65251	8.193121	2.668061	3.801115	0.312525	0.499733	-0.092444	-0.393451	-0.263376	0.880812	0.605115	-0.795477	0.032440	0.692121	0.545756	0.472354
65252	8.298386	2.540591	3.931492	0.213912	0.455335	-0.086081	-0.397082	-0.265203	0.878631	0.606306	-0.794496	0.034202	0.688998	0.546300	0.476274
65253	8.258344	2.357440	4.083518	0.064319	0.413429	-0.085865	-0.400338	-0.266788	0.876672	0.606497	-0.794305	0.035239	0.686943	0.545806	0.479796
65254	8.110231	2.139515	4.379642	-0.122425	0.366307	-0.096411	-0.403403	-0.268042	0.874883	0.605323	-0.795189	0.035485	0.686186	0.543901	0.483033
65255	7.800174	1.779169	4.631619	-0.359580	0.305891	-0.105926	-0.406033	-0.268864	0.873412	0.602522	-0.797350	0.034652	0.687098	0.540320	0.485747
65256	7.917570	0.547935	4.360050	-0.492488	0.255451	-0.098478	-0.408348	-0.269476	0.872144	0.598787	-0.800224	0.033105	0.688989	0.535746	0.488129
65257	7.686374	0.096307	4.791332	-0.563217	0.290446	-0.091695	-0.410791	-0.270297	0.870742	0.594624	-0.803401	0.031134	0.691139	0.530554	0.490754
65258	7.372719	-0.396800	4.854049	-0.634233	0.281225	-0.068993	-0.413113	-0.271250	0.869346	0.590003	-0.806894	0.028605	0.693711	0.524734	0.493376
65259	7.151903	-0.700636	4.745605	-0.620490	0.249181	-0.036690	-0.414954	-0.272263	0.868151	0.585635	-0.810163	0.025842	0.696308	0.519143	0.495627
65260	7.252129	-1.018957	4.547910	-0.523536	0.199778	-0.005399	-0.416345	-0.273276	0.867166	0.582017	-0.812844	0.023281	0.698508	0.514398	0.497475
65261	7.382991	-1.201245	4.398188	-0.399470	0.141513	0.029611	-0.417058	-0.274255	0.866514	0.579438	-0.814745	0.021017	0.700224	0.510856	0.498710
65262	7.575039	-1.235147	4.292423	-0.307156	0.080338	0.067747	-0.417196	-0.275242	0.866135	0.577623	-0.816085	0.018890	0.701641	0.508180	0.499453
65263	7.717123	-1.006919	4.436447	-0.254365	0.042452	0.101641	-0.416805	-0.276302	0.865986	0.576347	-0.817034	0.016716	0.702921	0.506076	0.499789
65264	7.759898	-0.740106	4.654410	-0.239931	0.024698	0.129224	-0.416201	-0.277508	0.865890	0.575252	-0.817849	0.014390	0.704175	0.504095	0.500027
65265	7.762739	-0.484799	4.837562	-0.258908	0.010073	0.148216	-0.415318	-0.278788	0.865903	0.574126	-0.818682	0.011787	0.705614	0.502033	0.500072
65266	7.699067	-0.271640	4.973181	-0.306879	-0.017355	0.160499	-0.414241	-0.280041	0.866015	0.572679	-0.819732	0.008855	0.707420	0.499616	0.499940
65267	7.690450	-0.294661	4.928614	-0.365157	-0.059624	0.156757	-0.412822	-0.281047	0.866366	0.570819	-0.821057	0.005645	0.709749	0.496869	0.499377
65268	7.734309	-0.367054	4.934334	-0.412734	-0.098473	0.132304	-0.411335	-0.281672	0.866871	0.568485	-0.822690	0.002432	0.712481	0.493803	0.498527
65269	7.714800	-0.401616	4.987984	-0.452731	-0.134188	0.099673	-0.409712	-0.281851	0.867580	0.565737	-0.824585	-0.000716	0.715596	0.490529	0.497297
65270	7.659162	-0.509899	4.962617	-0.504176	-0.181385	0.077707	-0.407939	-0.281633	0.868486	0.562494	-0.826792	-0.003901	0.719156	0.486927	0.495698
65271	7.479797	-0.649522	4.900440	-0.541333	-0.235998	0.062830	-0.405788	-0.281028	0.869689	0.558919	-0.829191	-0.007156	0.723150	0.483182	0.493548
65272	7.326262	-0.668450	4.832590	-0.541975	-0.314270	0.053381	-0.403178	-0.279985	0.871238	0.555260	-0.831613	-0.010296	0.727416	0.479613	0.490753
65273	7.267289	-0.618993	4.689035	-0.545630	-0.390083	0.051827	-0.399950	-0.278574	0.873176	0.551556	-0.834029	-0.013449	0.732001	0.476226	0.487219
65274	7.337790	-0.577233	4.475607	-0.547572	-0.486039	0.058571	-0.396025	-0.276782	0.875532	0.547824	-0.836429	-0.016626	0.736921	0.473053	0.482875
65275	7.415786	-0.585443	4.362816	-0.525670	-0.580980	0.063383	-0.391290	-0.274596	0.878345	0.544252	-0.838689	-0.019742	0.742080	0.470316	0.477620
65276	7.626738	-0.572993	4.567619	-0.496688	-0.664287	0.073042	-0.385913	-0.272119	0.881489	0.540894	-0.840783	-0.022752	0.747332	0.468011	0.471657
65277	8.051294	-0.721006	4.673882	-0.477020	-0.720221	0.089351	-0.379938	-0.269532	0.884873	0.537721	-0.842727	-0.025813	0.752664	0.466008	0.465117
65278	8.482667	-0.939307	4.634954	-0.466557	-0.752038	0.117051	-0.373597	-0.267049	0.888319	0.534695	-0.844547	-0.029015	0.757975	0.464140	0.458310
65279	8.909164	-1.172131	4.343573	-0.398728	-0.800593	0.158270	-0.366573	-0.264701	0.891940	0.532309	-0.845935	-0.032278	0.763067	0.462955	0.450999
65280	9.429785	-1.514725	3.986037	-0.233662	-0.860939	0.184120	-0.358972	-0.262299	0.895733	0.531245	-0.846496	-0.034980	0.767409	0.463297	0.443214
65281	9.861961	-1.683093	3.846772	0.025131	-0.907700	0.238000	-0.350635	-0.260123	0.899662	0.532340	-0.845719	-0.037051	0.770499	0.465935	0.435012
65282	10.123180	-2.094457	3.748388	0.330928	-0.948002	0.308509	-0.341642	-0.258313	0.903635	0.536017	-0.843333	-0.038420	0.771989	0.471237	0.426578
65283	10.145522	-2.484329	3.675247	0.663530	-0.959342	0.383449	-0.332075	-0.257007	0.907565	0.542483	-0.839154	-0.039141	0.771646	0.479340	0.418084
65284	10.122892	-2.505542	3.476620	0.945592	-0.934988	0.428615	-0.322492	-0.256088	0.911273	0.551228	-0.833436	-0.039138	0.769510	0.489697	0.409940
65285	10.188033	-1.783883	3.449560	1.108892	-0.861905	0.434519	-0.313360	-0.255455	0.914630	0.561171	-0.826796	-0.038661	0.766089	0.501149	0.402439
65286	10.243652	-0.960795	3.654088	1.163575	-0.741758	0.415561	-0.305306	-0.255142	0.917437	0.571400	-0.819799	-0.037837	0.761768	0.512672	0.396077
65287	10.479156	-0.211252	4.321607	1.221303	-0.602817	0.365712	-0.298520	-0.255031	0.919698	0.581822	-0.812499	-0.036454	0.756551	0.524218	0.390930
65288	11.084522	0.526457	5.360247	1.303805	-0.433455	0.311186	-0.293392	-0.255274	0.921280	0.592619	-0.804754	-0.034261	0.750149	0.535916	0.387389
65289	12.048791	1.100541	6.231527	1.359590	-0.190745	0.234709	-0.290464	-0.256149	0.921964	0.603498	-0.796753	-0.031230	0.742577	0.547332	0.386013
65290	12.761572	1.768647	6.376544	1.421622	0.051350	0.171106	-0.289765	-0.257813	0.921721	0.614541	-0.788412	-0.027329	0.733741	0.558516	0.386890
65291	12.685636	2.405284	5.691647	1.519899	0.216908	0.105986	-0.290590	-0.259893	0.920876	0.625973	-0.779521	-0.022468	0.723682	0.569915	0.389207
65292	11.447191	3.521325	4.804606	1.663907	0.282417	0.088708	-0.292021	-0.262229	0.919761	0.638230	-0.769662	-0.016800	0.712311	0.582113	0.392120
65293	9.430511	4.575914	3.802982	1.424624	0.210479	0.120080	-0.292639	-0.264402	0.918942	0.648717	-0.760930	-0.012353	0.702516	0.592518	0.394200
65294	7.722793	4.824925	2.525781	0.735306	-0.022197	0.187476	-0.291225	-0.265713	0.919013	0.654463	-0.756011	-0.011193	0.697758	0.598200	0.394069
65295	6.654039	4.410638	1.701998	-0.054138	-0.299576	0.290303	-0.287133	-0.266121	0.920181	0.654996	-0.755501	-0.014110	0.698953	0.598663	0.391238
65296	6.173291	3.641427	1.629995	-0.693325	-0.572587	0.385742	-0.280557	-0.265646	0.922345	0.651273	-0.758570	-0.020374	0.705075	0.594983	0.385830
65297	6.522327	2.217935	1.995533	-1.119720	-0.811516	0.448574	-0.271789	-0.264254	0.925365	0.644649	-0.763935	-0.028815	0.714533	0.588704	0.377981
65298	7.317697	0.654915	2.480865	-1.332436	-0.972520	0.441303	-0.261922	-0.261974	0.928852	0.636283	-0.770525	-0.037897	0.725631	0.581087	0.368507
65299	8.558017	-0.978540	2.470196	-1.510701	-1.103194	0.408592	-0.251168	-0.258767	0.932713	0.626366	-0.778099	-0.047199	0.737957	0.572365	0.357517
65300	9.792911	-2.273460	1.776879	-1.754846	-1.160166	0.364770	-0.240227	-0.255066	0.936607	0.614243	-0.787070	-0.056797	0.751663	0.561660	0.345748
65301	10.760865	-3.249831	0.806074	-1.893945	-1.136194	0.292096	-0.229728	-0.251057	0.940317	0.600649	-0.796785	-0.065991	0.765797	0.549640	0.333841
65302	11.296320	-3.695569	0.345989	-1.697465	-1.034354	0.209211	-0.220463	-0.247129	0.943570	0.588067	-0.805460	-0.073556	0.778186	0.538666	0.322903
65303	11.190941	-3.630569	0.627998	-1.248306	-0.854510	0.130781	-0.212900	-0.243609	0.946218	0.578669	-0.811748	-0.078788	0.787284	0.530773	0.313790
65304	10.496711	-3.385373	1.316871	-0.696291	-0.684465	0.063678	-0.207090	-0.240532	0.948292	0.573355	-0.815236	-0.081573	0.792703	0.526815	0.306738
65305	9.865688	-3.099997	1.763077	-0.175941	-0.608594	0.008997	-0.202090	-0.237393	0.950160	0.572063	-0.816078	-0.082221	0.794923	0.526936	0.300725
