// General information: 
//  MT Manager version: 2022.2.0 
//  XDA version: 2022.2.0 build 7381 rev 124627 built on 2023-07-19
// Device information: 
//  DeviceId: 00B4CBA7
//  ProductCode: MTW2-3A7G6
//  Firmware Version: 4.6.0
//  Hardware Version: 2.0.0
// Device settings: 
//  Filter Profile: human(46.1)
//  Option Flags: Orientation Smoother Disabled, Position/Velocity Smoother Disabled, Continuous Zero Rotation Update Disabled, AHS Disabled, ICC Disabled
// Coordinate system: ENU
PacketCounter	Acc_X	Acc_Y	Acc_Z	Gyr_X	Gyr_Y	Gyr_Z	Mat[1][1]	Mat[2][1]	Mat[3][1]	Mat[1][2]	Mat[2][2]	Mat[3][2]	Mat[1][3]	Mat[2][3]	Mat[3][3]
12755	9.616290	-0.014466	-1.746016	-0.015447	-0.114155	0.034192	-0.091382	-0.171146	0.980999	-0.892181	0.451657	-0.004313	-0.442337	-0.875623	-0.193966
12756	9.686506	-0.006888	-1.980402	-0.030150	-0.104074	0.026990	-0.092052	-0.171948	0.980796	-0.892029	0.451955	-0.004486	-0.442504	-0.875312	-0.194986
12757	9.582157	-0.201033	-2.103949	-0.061722	-0.104630	0.035664	-0.092790	-0.172717	0.980591	-0.891726	0.452552	-0.004671	-0.442962	-0.874852	-0.196008
12758	9.575901	-0.324130	-2.309708	-0.065312	-0.101166	0.030536	-0.093481	-0.173475	0.980392	-0.891419	0.453154	-0.004814	-0.443434	-0.874390	-0.197001
12759	9.571630	-0.358043	-2.393030	-0.050393	-0.090125	0.019295	-0.094010	-0.174190	0.980214	-0.891180	0.453623	-0.004859	-0.443802	-0.874004	-0.197880
12760	9.581114	-0.333758	-2.380722	-0.042801	-0.084444	0.018034	-0.094522	-0.174854	0.980047	-0.890980	0.454015	-0.004929	-0.444094	-0.873668	-0.198706
12761	9.540363	-0.266709	-2.304500	-0.019594	-0.074267	0.007871	-0.094879	-0.175482	0.979900	-0.890889	0.454195	-0.004923	-0.444202	-0.873449	-0.199428
12762	9.599741	-0.298271	-2.251033	-0.014232	-0.069375	0.008037	-0.095222	-0.176070	0.979761	-0.890822	0.454326	-0.004933	-0.444263	-0.873262	-0.200109
12763	9.628878	-0.192136	-2.144081	0.028404	-0.057070	-0.004907	-0.095389	-0.176605	0.979649	-0.890956	0.454064	-0.004897	-0.443959	-0.873290	-0.200660
12764	9.614693	-0.139585	-2.148275	0.044147	-0.053203	-0.001750	-0.095581	-0.177091	0.979542	-0.891168	0.453646	-0.004943	-0.443490	-0.873409	-0.201178
12765	9.560115	-0.144254	-2.061129	0.064399	-0.047760	-0.001478	-0.095737	-0.177530	0.979448	-0.891458	0.453076	-0.005014	-0.442874	-0.873616	-0.201636
12766	9.562274	-0.099378	-2.094416	0.095584	-0.049107	-0.003543	-0.095893	-0.177989	0.979349	-0.891898	0.452208	-0.005145	-0.441953	-0.873972	-0.202112
12767	9.486825	0.024747	-2.007645	0.117771	-0.044763	0.001982	-0.096066	-0.178386	0.979260	-0.892419	0.451177	-0.005358	-0.440863	-0.874424	-0.202538
12768	9.460475	0.183162	-1.962510	0.115623	-0.046160	0.015509	-0.096377	-0.178735	0.979166	-0.892929	0.450162	-0.005717	-0.439761	-0.874876	-0.202983
12769	9.497259	0.287528	-1.831593	0.091044	-0.052922	0.024706	-0.096787	-0.179101	0.979058	-0.893308	0.449404	-0.006100	-0.438901	-0.875190	-0.203489
12770	9.560749	0.298458	-1.805736	0.081848	-0.056998	0.033848	-0.097309	-0.179464	0.978940	-0.893646	0.448724	-0.006568	-0.438095	-0.875465	-0.204042
12771	9.597565	0.212302	-1.792233	0.053167	-0.055356	0.048752	-0.097943	-0.179745	0.978825	-0.893834	0.448341	-0.007109	-0.437569	-0.875604	-0.204574
12772	9.546863	0.115485	-1.804124	0.043557	-0.070226	0.060627	-0.098761	-0.180103	0.978677	-0.893976	0.448048	-0.007761	-0.437097	-0.875680	-0.205258
12773	9.606632	0.034796	-1.901078	0.030510	-0.072786	0.069157	-0.099654	-0.180445	0.978524	-0.894044	0.447900	-0.008456	-0.436755	-0.875686	-0.205961
12774	9.603442	-0.083864	-2.003218	0.015185	-0.075362	0.071430	-0.100590	-0.180800	0.978362	-0.894043	0.447888	-0.009151	-0.436542	-0.875618	-0.206696
12775	9.595465	-0.183201	-1.952656	0.000868	-0.082433	0.073767	-0.101566	-0.181205	0.978187	-0.893975	0.448008	-0.009830	-0.436455	-0.875473	-0.207496
12776	9.694999	-0.298955	-2.060926	0.000058	-0.084827	0.067409	-0.102504	-0.181663	0.978004	-0.893921	0.448103	-0.010457	-0.436347	-0.875330	-0.208325
12777	9.642516	-0.304841	-2.155878	0.003348	-0.078945	0.060102	-0.103343	-0.182099	0.977834	-0.893877	0.448178	-0.011007	-0.436239	-0.875201	-0.209090
12778	9.635698	-0.321393	-2.263256	-0.000191	-0.075484	0.054969	-0.104139	-0.182523	0.977671	-0.893820	0.448279	-0.011517	-0.436167	-0.875061	-0.209826
12779	9.609842	-0.363860	-2.413892	-0.004340	-0.066323	0.052963	-0.104858	-0.182880	0.977527	-0.893749	0.448408	-0.011981	-0.436140	-0.874920	-0.210468
12780	9.582105	-0.383666	-2.589748	0.018932	-0.056172	0.044798	-0.105476	-0.183182	0.977404	-0.893792	0.448310	-0.012432	-0.435903	-0.874907	-0.211013
12781	9.486850	-0.265238	-2.573511	0.029428	-0.047529	0.044012	-0.106034	-0.183415	0.977300	-0.893877	0.448128	-0.012880	-0.435593	-0.874952	-0.211467
12782	9.483812	-0.260452	-2.501029	0.045646	-0.040822	0.039193	-0.106528	-0.183615	0.977209	-0.894036	0.447797	-0.013321	-0.435145	-0.875079	-0.211861
12783	9.503862	-0.261081	-2.434332	0.066285	-0.032660	0.029276	-0.106888	-0.183784	0.977138	-0.894297	0.447265	-0.013703	-0.434521	-0.875316	-0.212164
12784	9.499648	-0.246094	-2.283629	0.081446	-0.022300	0.029927	-0.107218	-0.183866	0.977086	-0.894643	0.446557	-0.014139	-0.433725	-0.875660	-0.212374
12785	9.525353	-0.222902	-2.218191	0.099366	-0.016963	0.023816	-0.107462	-0.183922	0.977049	-0.895052	0.445725	-0.014538	-0.432821	-0.876072	-0.212518
12786	9.529924	-0.138323	-2.098494	0.109111	-0.012225	0.032087	-0.107771	-0.183904	0.977018	-0.895497	0.444813	-0.015052	-0.431822	-0.876539	-0.212623
12787	9.547105	-0.107238	-1.979507	0.110116	-0.016638	0.034352	-0.108108	-0.183911	0.976980	-0.895939	0.443905	-0.015577	-0.430821	-0.876998	-0.212762
12788	9.562143	-0.041880	-1.990200	0.105113	-0.020213	0.039642	-0.108521	-0.183928	0.976931	-0.896355	0.443043	-0.016158	-0.429850	-0.877430	-0.212944
12789	9.533439	0.012456	-1.962042	0.095536	-0.025412	0.045670	-0.108996	-0.183962	0.976871	-0.896719	0.442283	-0.016763	-0.428970	-0.877806	-0.213170
12790	9.552397	-0.045615	-1.941848	0.077336	-0.031736	0.052998	-0.109578	-0.184021	0.976795	-0.896992	0.441704	-0.017412	-0.428250	-0.878085	-0.213467
12791	9.553574	-0.074526	-1.918755	0.061173	-0.038302	0.060048	-0.110238	-0.184107	0.976705	-0.897191	0.441272	-0.018085	-0.427663	-0.878285	-0.213824
12792	9.488276	-0.186626	-1.870778	0.049286	-0.044347	0.065361	-0.110984	-0.184223	0.976598	-0.897342	0.440935	-0.018800	-0.427153	-0.878429	-0.214248
12793	9.524179	-0.196517	-1.835302	0.042480	-0.054576	0.064654	-0.111754	-0.184431	0.976471	-0.897455	0.440676	-0.019478	-0.426715	-0.878516	-0.214766
12794	9.534972	-0.244835	-1.943523	0.028495	-0.051795	0.065451	-0.112540	-0.184607	0.976348	-0.897505	0.440544	-0.020154	-0.426404	-0.878545	-0.215264
12795	9.551220	-0.280743	-1.952402	0.012818	-0.063428	0.059513	-0.113301	-0.184916	0.976201	-0.897496	0.440536	-0.020718	-0.426221	-0.878484	-0.215874
12796	9.510181	-0.406454	-2.168562	0.005364	-0.059371	0.057105	-0.114035	-0.185201	0.976062	-0.897459	0.440586	-0.021253	-0.426103	-0.878399	-0.216453
12797	9.522213	-0.475579	-2.250902	0.024221	-0.058619	0.051023	-0.114699	-0.185505	0.975926	-0.897508	0.440462	-0.021759	-0.425822	-0.878397	-0.217013
12798	9.560565	-0.426441	-2.348419	0.045208	-0.049369	0.044204	-0.115280	-0.185754	0.975810	-0.897644	0.440159	-0.022258	-0.425377	-0.878496	-0.217483
12799	9.497551	-0.400777	-2.412576	0.054335	-0.046140	0.042711	-0.115817	-0.185986	0.975703	-0.897830	0.439755	-0.022748	-0.424839	-0.878649	-0.217914
12800	9.561100	-0.301370	-2.468637	0.061166	-0.035111	0.037863	-0.116272	-0.186145	0.975618	-0.898056	0.439268	-0.023218	-0.424236	-0.878859	-0.218244
12801	9.544285	-0.208926	-2.524165	0.056826	-0.027052	0.034800	-0.116657	-0.186244	0.975553	-0.898260	0.438828	-0.023637	-0.423698	-0.879058	-0.218488
12802	9.550842	-0.212279	-2.502888	0.040696	-0.017050	0.042165	-0.117080	-0.186222	0.975507	-0.898388	0.438541	-0.024108	-0.423310	-0.879206	-0.218644
12803	9.546997	-0.262644	-2.474398	0.038005	-0.010462	0.035631	-0.117402	-0.186172	0.975478	-0.898511	0.438267	-0.024494	-0.422960	-0.879353	-0.218731
12804	9.545671	-0.256240	-2.398317	0.026308	0.000956	0.037870	-0.117709	-0.186013	0.975471	-0.898584	0.438095	-0.024891	-0.422719	-0.879473	-0.218716
12805	9.521798	-0.243642	-2.315011	0.020468	0.002743	0.037539	-0.117992	-0.185838	0.975470	-0.898630	0.437979	-0.025258	-0.422541	-0.879568	-0.218677
12806	9.487302	-0.278135	-2.225074	0.014710	0.004632	0.039390	-0.118298	-0.185639	0.975471	-0.898648	0.437921	-0.025643	-0.422419	-0.879638	-0.218629
12807	9.541755	-0.314633	-2.188106	0.006008	0.003442	0.038532	-0.118587	-0.185453	0.975471	-0.898632	0.437934	-0.025987	-0.422372	-0.879671	-0.218588
12808	9.575232	-0.277327	-2.200378	0.004422	0.013573	0.039348	-0.118866	-0.185169	0.975491	-0.898606	0.437963	-0.026362	-0.422348	-0.879716	-0.218453
12809	9.519840	-0.238058	-2.159294	-0.004275	0.011680	0.046223	-0.119188	-0.184877	0.975507	-0.898537	0.438081	-0.026759	-0.422404	-0.879719	-0.218333
12810	9.531939	-0.295323	-2.158331	-0.016866	0.011925	0.042562	-0.119489	-0.184603	0.975522	-0.898417	0.438307	-0.027101	-0.422575	-0.879664	-0.218224
12811	9.539205	-0.297243	-2.134253	-0.024708	0.006131	0.039611	-0.119776	-0.184389	0.975528	-0.898269	0.438592	-0.027389	-0.422808	-0.879567	-0.218164
12812	9.503294	-0.398046	-2.167193	-0.033894	0.010775	0.044026	-0.120099	-0.184116	0.975540	-0.898075	0.438969	-0.027714	-0.423129	-0.879436	-0.218069
12813	9.520638	-0.431109	-2.169726	-0.027923	0.009889	0.040996	-0.120382	-0.183862	0.975553	-0.897911	0.439284	-0.028009	-0.423395	-0.879332	-0.217974
12814	9.566100	-0.446393	-2.182014	-0.019231	0.011775	0.034127	-0.120611	-0.183624	0.975569	-0.897798	0.439499	-0.028273	-0.423570	-0.879274	-0.217865
12815	9.595510	-0.442300	-2.267034	-0.020254	0.016185	0.031856	-0.120786	-0.183355	0.975598	-0.897678	0.439730	-0.028495	-0.423775	-0.879215	-0.217707
12816	9.509627	-0.475157	-2.262595	-0.020028	0.017197	0.030674	-0.120955	-0.183089	0.975627	-0.897581	0.439912	-0.028724	-0.423931	-0.879179	-0.217547
12817	9.454400	-0.434019	-2.221234	-0.004015	0.014894	0.024041	-0.121065	-0.182866	0.975655	-0.897539	0.439986	-0.028906	-0.423988	-0.879189	-0.217397
12818	9.509781	-0.390487	-2.162796	-0.009382	0.018719	0.021338	-0.121154	-0.182620	0.975690	-0.897480	0.440097	-0.029070	-0.424089	-0.879184	-0.217217
12819	9.570692	-0.322884	-2.107245	-0.013109	0.021070	0.015168	-0.121158	-0.182381	0.975734	-0.897410	0.440234	-0.029145	-0.424236	-0.879165	-0.217009
12820	9.542478	-0.330169	-2.198166	-0.024013	0.027096	0.020865	-0.121203	-0.182066	0.975788	-0.897289	0.440473	-0.029268	-0.424480	-0.879110	-0.216753
12821	9.497546	-0.319272	-2.182819	-0.021675	0.020099	0.018671	-0.121242	-0.181821	0.975829	-0.897178	0.440692	-0.029359	-0.424702	-0.879051	-0.216556
12822	9.494551	-0.377907	-2.048698	-0.025255	0.014090	0.021693	-0.121344	-0.181621	0.975853	-0.897050	0.440944	-0.029479	-0.424943	-0.878966	-0.216429
12823	9.543495	-0.435755	-2.007809	-0.013577	0.011198	0.014630	-0.121384	-0.181472	0.975876	-0.896979	0.441084	-0.029548	-0.425082	-0.878927	-0.216318
12824	9.507970	-0.366830	-1.923557	-0.011864	0.009823	0.013348	-0.121427	-0.181347	0.975894	-0.896906	0.441229	-0.029607	-0.425223	-0.878880	-0.216228
12825	9.525294	-0.397562	-1.926249	-0.010692	0.006324	0.012249	-0.121467	-0.181251	0.975907	-0.896850	0.441339	-0.029659	-0.425330	-0.878845	-0.216163
12826	9.521952	-0.354341	-1.978954	-0.012556	-0.001059	0.013984	-0.121561	-0.181221	0.975901	-0.896804	0.441427	-0.029737	-0.425400	-0.878806	-0.216180
12827	9.544488	-0.361495	-1.986103	-0.012776	-0.009916	0.012251	-0.121670	-0.181268	0.975878	-0.896739	0.441556	-0.029785	-0.425506	-0.878732	-0.216274
12828	9.527410	-0.421460	-2.080304	-0.013480	-0.004392	0.010984	-0.121751	-0.181280	0.975866	-0.896679	0.441675	-0.029824	-0.425609	-0.878670	-0.216324
12829	9.554980	-0.392994	-2.193582	-0.006075	-0.007769	0.005667	-0.121791	-0.181337	0.975850	-0.896651	0.441733	-0.029822	-0.425658	-0.878629	-0.216395
12830	9.563410	-0.223709	-2.232867	-0.008964	-0.002895	0.008051	-0.121848	-0.181342	0.975842	-0.896618	0.441797	-0.029856	-0.425710	-0.878596	-0.216427
12831	9.516970	-0.290206	-2.240634	-0.032851	-0.006355	0.011714	-0.121937	-0.181360	0.975828	-0.896468	0.442101	-0.029854	-0.426000	-0.878439	-0.216492
12832	9.526330	-0.411700	-2.185676	-0.028881	-0.006982	0.008965	-0.122022	-0.181395	0.975811	-0.896348	0.442344	-0.029858	-0.426228	-0.878309	-0.216569
12833	9.568671	-0.391442	-2.149499	-0.028484	-0.005053	0.004414	-0.122041	-0.181434	0.975801	-0.896226	0.442597	-0.029795	-0.426481	-0.878174	-0.216620
12834	9.534895	-0.432425	-2.137104	-0.023516	-0.002252	0.006852	-0.122086	-0.181434	0.975795	-0.896106	0.442840	-0.029777	-0.426718	-0.878052	-0.216649
12835	9.536477	-0.454597	-2.111064	-0.036281	-0.002883	0.006552	-0.122114	-0.181445	0.975790	-0.895948	0.443165	-0.029718	-0.427043	-0.877886	-0.216682
12836	9.552549	-0.562089	-2.135894	-0.025822	-0.010213	-0.004526	-0.122086	-0.181572	0.975770	-0.895852	0.443368	-0.029584	-0.427253	-0.877757	-0.216790
12837	9.515873	-0.569577	-2.073895	-0.010327	-0.006805	-0.008059	-0.121999	-0.181682	0.975760	-0.895821	0.443438	-0.029439	-0.427341	-0.877698	-0.216853
12838	9.528971	-0.453130	-2.136508	-0.013505	-0.002316	-0.014408	-0.121852	-0.181780	0.975760	-0.895787	0.443521	-0.029239	-0.427455	-0.877636	-0.216881
12839	9.538510	-0.470598	-2.266570	-0.022223	-0.003478	-0.015273	-0.121687	-0.181893	0.975760	-0.895715	0.443682	-0.028998	-0.427653	-0.877531	-0.216914
12840	9.510825	-0.395697	-2.339382	-0.019258	0.000314	-0.020288	-0.121480	-0.181993	0.975767	-0.895675	0.443779	-0.028738	-0.427794	-0.877462	-0.216917
12841	9.504737	-0.316229	-2.341819	-0.022061	0.006009	-0.023448	-0.121201	-0.182058	0.975789	-0.895614	0.443924	-0.028418	-0.428003	-0.877375	-0.216858
12842	9.540336	-0.294311	-2.327517	-0.033587	0.010539	-0.027472	-0.120888	-0.182098	0.975821	-0.895502	0.444174	-0.028050	-0.428326	-0.877240	-0.216764
12843	9.567244	-0.251050	-2.362215	-0.041627	0.020257	-0.028952	-0.120499	-0.182063	0.975876	-0.895362	0.444480	-0.027633	-0.428727	-0.877092	-0.216572
12844	9.506906	-0.227733	-2.317072	-0.044770	0.024110	-0.025373	-0.120141	-0.181980	0.975935	-0.895211	0.444808	-0.027261	-0.429142	-0.876943	-0.216350
12845	9.449117	-0.327462	-2.239898	-0.047281	0.022342	-0.022721	-0.119799	-0.181900	0.975992	-0.895039	0.445175	-0.026893	-0.429596	-0.876773	-0.216139
12846	9.474533	-0.364759	-2.115182	-0.034046	0.025016	-0.024780	-0.119445	-0.181803	0.976054	-0.894922	0.445432	-0.026549	-0.429939	-0.876663	-0.215904
12847	9.510822	-0.355087	-1.996425	-0.013472	0.023504	-0.026615	-0.119063	-0.181730	0.976114	-0.894900	0.445497	-0.026216	-0.430091	-0.876645	-0.215672
12848	9.571780	-0.283629	-1.940099	-0.009891	0.020948	-0.024820	-0.118718	-0.181677	0.976166	-0.894898	0.445518	-0.025918	-0.430191	-0.876646	-0.215473
12849	9.549522	-0.275376	-1.931595	-0.003828	0.019426	-0.017936	-0.118431	-0.181600	0.976215	-0.894907	0.445513	-0.025691	-0.430251	-0.876664	-0.215278
12850	9.511472	-0.259980	-1.894145	-0.006505	0.000966	-0.019986	-0.118223	-0.181693	0.976223	-0.894890	0.445560	-0.025447	-0.430343	-0.876621	-0.215271
12851	9.556902	-0.269953	-1.907594	-0.022938	-0.005797	-0.019475	-0.118031	-0.181844	0.976218	-0.894818	0.445720	-0.025163	-0.430544	-0.876508	-0.215327
12852	9.556897	-0.267414	-1.907975	-0.030123	-0.000689	-0.023061	-0.117799	-0.181969	0.976223	-0.894726	0.445923	-0.024844	-0.430799	-0.876379	-0.215342
12853	9.549035	-0.344119	-1.952950	-0.031415	-0.013790	-0.024465	-0.117596	-0.182214	0.976201	-0.894624	0.446148	-0.024493	-0.431068	-0.876213	-0.215478
12854	9.469457	-0.358075	-2.031592	-0.015731	-0.017998	-0.026559	-0.117406	-0.182505	0.976170	-0.894586	0.446242	-0.024164	-0.431198	-0.876105	-0.215658
12855	9.486364	-0.218349	-1.918953	0.005119	-0.026307	-0.032518	-0.117186	-0.182895	0.976123	-0.894650	0.446133	-0.023814	-0.431125	-0.876079	-0.215907
12856	9.498230	-0.280813	-1.819582	-0.011557	-0.034099	-0.030820	-0.117026	-0.183348	0.976058	-0.894646	0.446160	-0.023456	-0.431177	-0.875971	-0.216244
12857	9.544689	-0.402457	-1.728403	-0.020662	-0.045055	-0.030080	-0.116908	-0.183891	0.975970	-0.894596	0.446280	-0.023073	-0.431313	-0.875796	-0.216682
12858	9.489527	-0.456543	-1.687858	-0.005580	-0.059304	-0.037129	-0.116807	-0.184588	0.975850	-0.894625	0.446242	-0.022675	-0.431280	-0.875668	-0.217261
12859	9.547802	-0.449988	-1.763281	-0.002626	-0.064073	-0.037340	-0.116706	-0.185329	0.975722	-0.894661	0.446191	-0.022261	-0.431232	-0.875538	-0.217880
12860	9.586661	-0.391430	-1.862123	0.011336	-0.074733	-0.041098	-0.116625	-0.186186	0.975568	-0.894774	0.445985	-0.021851	-0.431021	-0.875461	-0.218607
12861	9.599349	-0.203991	-1.986460	0.001161	-0.073444	-0.039652	-0.116544	-0.187020	0.975418	-0.894829	0.445895	-0.021422	-0.430928	-0.875329	-0.219317
12862	9.548156	-0.221835	-2.054139	-0.024425	-0.083368	-0.035404	-0.116563	-0.187916	0.975244	-0.894773	0.446028	-0.021002	-0.431039	-0.875070	-0.220132
12863	9.577797	-0.322696	-2.040711	-0.022906	-0.092752	-0.043985	-0.116527	-0.188937	0.975051	-0.894729	0.446140	-0.020478	-0.431140	-0.874793	-0.221035
12864	9.699685	-0.378523	-2.110238	0.000496	-0.090488	-0.053063	-0.116410	-0.189980	0.974862	-0.894794	0.446034	-0.019927	-0.431036	-0.874621	-0.221916
12865	9.658249	-0.426131	-2.206001	-0.003523	-0.089887	-0.050286	-0.116305	-0.191004	0.974675	-0.894842	0.445963	-0.019384	-0.430966	-0.874434	-0.222786
12866	9.652811	-0.464809	-2.364495	0.018556	-0.085046	-0.054909	-0.116148	-0.192006	0.974496	-0.894984	0.445699	-0.018855	-0.430711	-0.874349	-0.223610
12867	9.623503	-0.399711	-2.341860	0.026793	-0.085886	-0.051700	-0.116012	-0.193002	0.974316	-0.895164	0.445359	-0.018367	-0.430375	-0.874303	-0.224435
12868	9.722542	-0.449519	-2.404336	0.040793	-0.087018	-0.063645	-0.115782	-0.194063	0.974132	-0.895441	0.444824	-0.017813	-0.429861	-0.874340	-0.225275
12869	9.809800	-0.366971	-2.444978	0.054912	-0.079387	-0.076025	-0.115400	-0.195110	0.973969	-0.895769	0.444190	-0.017152	-0.429280	-0.874430	-0.226032
12870	9.842882	-0.331679	-2.362605	0.063802	-0.077166	-0.076366	-0.115014	-0.196139	0.973808	-0.896148	0.443447	-0.016526	-0.428591	-0.874577	-0.226772
12871	9.811510	-0.243093	-2.365490	0.080780	-0.075953	-0.077888	-0.114599	-0.197162	0.973650	-0.896587	0.442581	-0.015907	-0.427783	-0.874785	-0.227492
12872	9.721922	-0.079805	-2.277217	0.100938	-0.070637	-0.077896	-0.114175	-0.198135	0.973502	-0.897111	0.441539	-0.015350	-0.426798	-0.875092	-0.228162
12873	9.690275	0.174700	-2.162451	0.098434	-0.080991	-0.070395	-0.113846	-0.199168	0.973330	-0.897614	0.440531	-0.014846	-0.425826	-0.875365	-0.228929
12874	9.728076	0.409711	-1.889755	0.072250	-0.078361	-0.056622	-0.113642	-0.200116	0.973159	-0.897993	0.439772	-0.014432	-0.425081	-0.875531	-0.229679
12875	9.859132	0.432026	-1.736520	0.038307	-0.089305	-0.046477	-0.113561	-0.201116	0.972963	-0.898213	0.439337	-0.014023	-0.424638	-0.875520	-0.230536
12876	10.274271	0.685996	-1.281480	0.087238	-0.119074	-0.043665	-0.113643	-0.202363	0.972695	-0.898646	0.438459	-0.013773	-0.423700	-0.875673	-0.231680
12877	10.445431	0.950611	-0.779241	0.118060	-0.167478	-0.059122	-0.113777	-0.204102	0.972315	-0.899216	0.437299	-0.013428	-0.422451	-0.875849	-0.233286
12878	10.383331	1.138343	-0.124285	0.145320	-0.214788	-0.060857	-0.114103	-0.206260	0.971822	-0.899904	0.435889	-0.013146	-0.420895	-0.876047	-0.235350
12879	10.377238	1.259999	0.665775	0.078415	-0.296575	-0.046096	-0.114892	-0.209072	0.971128	-0.900291	0.435100	-0.012840	-0.419853	-0.875772	-0.238215
12880	10.765941	1.306707	1.323646	0.056418	-0.372057	-0.041858	-0.116039	-0.212519	0.970243	-0.900584	0.434501	-0.012536	-0.418908	-0.875240	-0.241810
12881	11.137760	1.439735	1.999542	0.085842	-0.413970	-0.059602	-0.117190	-0.216414	0.969243	-0.901017	0.433615	-0.012123	-0.417655	-0.874724	-0.245808
12882	11.511870	1.332020	2.194517	0.130575	-0.462421	-0.062941	-0.118509	-0.220732	0.968108	-0.901646	0.432313	-0.011804	-0.415920	-0.874290	-0.250256
12883	11.676650	1.523365	2.224977	0.156164	-0.499588	-0.040669	-0.120172	-0.225288	0.966853	-0.902347	0.430850	-0.011762	-0.413919	-0.873850	-0.255064
12884	11.677456	1.853394	1.957159	0.135936	-0.570188	-0.000074	-0.122475	-0.230269	0.965389	-0.902951	0.429574	-0.012090	-0.411922	-0.873180	-0.260533
12885	11.498394	2.335788	1.499350	0.059135	-0.639032	0.074410	-0.125732	-0.235538	0.963698	-0.903106	0.429223	-0.012920	-0.410598	-0.871946	-0.266683
12886	11.257981	2.492372	0.718884	-0.142317	-0.731116	0.168761	-0.130202	-0.241174	0.961708	-0.902361	0.430749	-0.014145	-0.410843	-0.869650	-0.273710
12887	10.727804	2.396004	-0.221640	-0.368918	-0.752710	0.269866	-0.135692	-0.246553	0.959583	-0.900487	0.434601	-0.015671	-0.413172	-0.866218	-0.280990
12888	10.259223	1.988547	-1.602700	-0.638715	-0.753505	0.380900	-0.142193	-0.251381	0.957386	-0.897317	0.441041	-0.017467	-0.417856	-0.861563	-0.288282
12889	9.795828	1.731724	-2.861241	-0.878489	-0.712354	0.481191	-0.149458	-0.255369	0.955222	-0.892920	0.449795	-0.019462	-0.424684	-0.855845	-0.295250
12890	9.359346	1.102975	-3.791765	-1.116417	-0.668852	0.577027	-0.157398	-0.258443	0.953117	-0.887297	0.460691	-0.021609	-0.433508	-0.849100	-0.301828
12891	9.111017	0.414535	-4.223520	-1.278154	-0.617337	0.649448	-0.165805	-0.260644	0.951091	-0.880647	0.473172	-0.023852	-0.443813	-0.841530	-0.307990
12892	8.880576	0.125270	-4.522017	-1.350232	-0.524188	0.719439	-0.174436	-0.261564	0.949293	-0.873382	0.486314	-0.026491	-0.454725	-0.833716	-0.313276
12893	8.605067	0.248010	-4.665861	-1.453383	-0.407994	0.780609	-0.183060	-0.261114	0.947791	-0.865298	0.500402	-0.029268	-0.466635	-0.825480	-0.317545
12894	8.438228	0.158836	-4.731718	-1.598433	-0.227670	0.812707	-0.191108	-0.258841	0.946826	-0.856251	0.515576	-0.031879	-0.479909	-0.816813	-0.320164
12895	8.387054	-0.265580	-4.628656	-1.708665	0.008441	0.800189	-0.197838	-0.254601	0.946593	-0.846377	0.531501	-0.033937	-0.494475	-0.807889	-0.320640
12896	8.478379	-0.565156	-4.410622	-1.739892	0.284183	0.739179	-0.202610	-0.248314	0.947254	-0.836173	0.547324	-0.035375	-0.509670	-0.799235	-0.318526
12897	8.528784	-0.700672	-4.144133	-1.730826	0.598667	0.645010	-0.204832	-0.239993	0.948919	-0.825910	0.562653	-0.035978	-0.525278	-0.791091	-0.313462
12898	8.524067	-1.024869	-4.006638	-1.700585	0.909054	0.534094	-0.204360	-0.229774	0.951547	-0.815759	0.577283	-0.035798	-0.541086	-0.783548	-0.305414
12899	8.617929	-1.724466	-3.908901	-1.618578	1.199328	0.398862	-0.200972	-0.218108	0.955007	-0.806074	0.590796	-0.034702	-0.556646	-0.776781	-0.294545
12900	9.282096	-3.138816	-3.881558	-1.346769	1.429912	0.279546	-0.195143	-0.205363	0.959034	-0.797950	0.601791	-0.033502	-0.570258	-0.771799	-0.281305
12901	9.484442	-3.387941	-3.156104	-0.802235	1.671376	0.156527	-0.186738	-0.191550	0.963555	-0.793045	0.608281	-0.032769	-0.579835	-0.770262	-0.265497
12902	9.380289	-3.027845	-2.535139	-0.349858	1.874332	0.028583	-0.176008	-0.176922	0.968359	-0.790965	0.611017	-0.032130	-0.586000	-0.771593	-0.247483
12903	8.974006	-2.331943	-2.338541	-0.003127	2.038654	-0.121017	-0.163029	-0.161918	0.973244	-0.791158	0.610831	-0.030904	-0.589484	-0.775028	-0.227686
12904	8.816613	-1.629175	-2.036003	0.177638	2.129961	-0.286203	-0.148144	-0.147114	0.977963	-0.792677	0.608977	-0.028469	-0.591369	-0.779426	-0.206830
12905	8.753924	-1.312931	-1.922363	0.301032	2.192328	-0.426257	-0.131748	-0.132583	0.982377	-0.795059	0.606023	-0.024837	-0.592050	-0.784320	-0.185254
12906	8.587083	-1.181795	-1.909454	0.434500	2.240224	-0.543553	-0.114120	-0.118234	0.986406	-0.798318	0.601896	-0.020214	-0.591324	-0.789773	-0.163076
12907	8.169714	-1.029853	-2.293011	0.596022	2.290935	-0.630584	-0.095512	-0.103869	0.989994	-0.802500	0.596467	-0.014842	-0.588958	-0.795888	-0.140325
12908	7.751728	-0.460411	-2.561349	0.683047	2.328650	-0.684438	-0.076289	-0.089323	0.993077	-0.807119	0.590321	-0.008907	-0.585438	-0.802211	-0.117130
12909	7.491611	0.237574	-2.791177	0.698506	2.375395	-0.744570	-0.056364	-0.074588	0.995620	-0.811690	0.584084	-0.002194	-0.581362	-0.808259	-0.093463
12910	7.501658	0.716970	-3.007497	0.643336	2.380469	-0.787845	-0.036118	-0.059862	0.997553	-0.815797	0.578316	0.005167	-0.577210	-0.813614	-0.069723
12911	7.462818	0.812258	-2.912411	0.544813	2.376904	-0.795002	-0.015904	-0.045069	0.998857	-0.819138	0.573453	0.012832	-0.573376	-0.817998	-0.046038
12912	7.318366	0.879225	-3.181130	0.432534	2.387268	-0.759606	0.004014	-0.029846	0.999546	-0.821666	0.569607	0.020308	-0.569955	-0.821375	-0.022237
12913	7.093535	1.152391	-3.356266	0.340123	2.387400	-0.679498	0.023215	-0.014086	0.999631	-0.823505	0.566661	0.027110	-0.566834	-0.823831	0.001555
12914	7.937254	1.664181	-2.175993	0.291656	2.298338	-0.559456	0.040858	0.001699	0.999164	-0.824976	0.564216	0.032776	-0.563689	-0.825625	0.024454
12915	9.424272	1.958140	2.236136	0.394993	2.118977	-0.512678	0.057033	0.016312	0.998239	-0.826940	0.561000	0.038078	-0.559391	-0.827655	0.045485
12916	8.280865	1.266864	2.628839	0.193928	1.659668	-0.300759	0.068824	0.028361	0.997226	-0.827832	0.559460	0.041222	-0.556739	-0.828372	0.061982
12917	8.124860	0.756856	5.214318	0.038087	0.801653	0.009748	0.073243	0.035037	0.996698	-0.828046	0.559145	0.041194	-0.555856	-0.828329	0.069965
12918	9.186664	-1.734666	2.721569	-0.017504	-0.138505	0.279222	0.070201	0.035446	0.996903	-0.828151	0.559185	0.038435	-0.556091	-0.828285	0.068609
12919	12.378763	-0.652066	0.196682	0.271515	-1.017831	0.582413	0.059760	0.030236	0.997755	-0.830033	0.556746	0.032843	-0.554503	-0.830132	0.058368
12920	14.531104	3.041316	2.999305	0.751330	-1.119892	0.571663	0.048863	0.024072	0.998515	-0.834500	0.550318	0.027570	-0.548837	-0.834608	0.046978
12921	12.956395	5.153259	3.164590	0.280660	-1.125341	0.489529	0.038649	0.017339	0.999102	-0.836248	0.547875	0.022841	-0.546987	-0.836381	0.035674
12922	9.529251	1.504860	1.098317	-0.548681	-0.906334	0.598712	0.028717	0.013061	0.999502	-0.833442	0.552353	0.016728	-0.551860	-0.833508	0.026747
12923	7.479237	-0.716685	-2.043484	-0.898683	-0.711017	0.628963	0.019580	0.010630	0.999752	-0.828598	0.559750	0.010276	-0.559502	-0.828593	0.019768
12924	8.422607	-0.941020	-4.559294	-0.861042	-0.685684	0.558809	0.011138	0.008107	0.999905	-0.823840	0.566804	0.004581	-0.566713	-0.823813	0.012992
12925	9.601181	-2.393023	-5.473315	-0.516007	-0.695028	0.446112	0.003556	0.004910	0.999982	-0.820936	0.571021	0.000115	-0.571010	-0.820921	0.006061
12926	10.999838	-2.613407	-4.688723	0.060391	-0.672574	0.381181	-0.003373	0.001549	0.999993	-0.821284	0.570508	-0.003654	-0.570509	-0.821291	-0.000652
12927	11.365515	-1.346472	-3.711322	0.155452	-0.577514	0.398485	-0.009898	-0.000945	0.999951	-0.822142	0.569231	-0.007600	-0.569196	-0.822177	-0.006411
12928	10.795903	-1.199795	-3.631023	0.055813	-0.475999	0.402021	-0.015881	-0.002590	0.999871	-0.822408	0.568780	-0.011589	-0.568676	-0.822486	-0.011163
12929	10.215021	-0.576728	-3.322181	0.116978	-0.417893	0.344844	-0.021052	-0.004088	0.999770	-0.823009	0.567830	-0.015008	-0.567638	-0.823135	-0.015319
12930	10.198619	0.155181	-2.779252	0.071201	-0.403981	0.320692	-0.025952	-0.005617	0.999647	-0.823336	0.567262	-0.018188	-0.566960	-0.823518	-0.019347
12931	10.218242	0.565575	-1.995043	-0.018431	-0.376693	0.344109	-0.030881	-0.006786	0.999500	-0.823134	0.567437	-0.021579	-0.567007	-0.823389	-0.023109
12932	9.969487	0.437478	-1.152477	-0.147859	-0.341627	0.352764	-0.035692	-0.007621	0.999334	-0.822174	0.568686	-0.025028	-0.568117	-0.822519	-0.026564
12933	9.632594	-0.257908	-0.519697	-0.207865	-0.320332	0.331017	-0.040193	-0.008389	0.999157	-0.820866	0.570423	-0.028232	-0.569705	-0.821308	-0.029813
12934	9.605242	-0.974584	0.003366	-0.155675	-0.336888	0.305645	-0.044591	-0.009436	0.998961	-0.819843	0.571738	-0.031195	-0.570850	-0.820382	-0.033230
12935	9.513453	-1.315702	0.468024	-0.036493	-0.348287	0.290471	-0.048920	-0.010652	0.998746	-0.819499	0.572068	-0.034039	-0.570988	-0.820137	-0.036714
12936	9.416988	-1.242932	0.849449	0.056808	-0.365647	0.285188	-0.053313	-0.012046	0.998505	-0.819675	0.571641	-0.036869	-0.570342	-0.820415	-0.040350
12937	9.356816	-1.022975	1.190802	0.066885	-0.387758	0.284908	-0.057819	-0.013620	0.998234	-0.819899	0.571130	-0.039697	-0.569581	-0.820746	-0.044189
12938	9.284366	-1.083811	1.234268	0.100390	-0.408660	0.285321	-0.062453	-0.015370	0.997930	-0.820299	0.570350	-0.042552	-0.568515	-0.821258	-0.048228
12939	9.302643	-0.795630	1.420563	0.196130	-0.454020	0.277274	-0.067266	-0.017542	0.997581	-0.821234	0.568785	-0.045373	-0.566613	-0.822299	-0.052665
12940	9.405909	-0.392168	1.429094	0.241248	-0.490030	0.285028	-0.072348	-0.019976	0.997179	-0.822401	0.566853	-0.048312	-0.564289	-0.823577	-0.057439
12941	9.369309	-0.052022	1.445157	0.211290	-0.529455	0.306815	-0.077815	-0.022622	0.996711	-0.823363	0.565178	-0.051454	-0.562155	-0.824659	-0.062605
12942	9.320827	0.098022	1.218657	0.178864	-0.582737	0.329574	-0.083768	-0.025587	0.996157	-0.824106	0.563776	-0.054819	-0.560207	-0.825531	-0.068313
12943	9.478792	0.166285	0.826541	0.127068	-0.627603	0.346665	-0.090096	-0.028836	0.995516	-0.824518	0.562822	-0.058317	-0.558617	-0.826075	-0.074484
12944	9.551999	-0.031199	0.542432	0.019634	-0.661597	0.376492	-0.096858	-0.032198	0.994777	-0.824283	0.562769	-0.062043	-0.557832	-0.825987	-0.081049
12945	9.447873	-0.463917	-0.309232	-0.060521	-0.694576	0.393543	-0.103934	-0.035736	0.993942	-0.823553	0.563403	-0.065861	-0.557636	-0.825409	-0.087988
12946	9.441280	-0.511999	-0.775410	-0.074429	-0.740877	0.423352	-0.111515	-0.039477	0.992978	-0.822691	0.564167	-0.069962	-0.557444	-0.824716	-0.095391
12947	9.649928	-0.713232	-1.073462	-0.118430	-0.761295	0.433847	-0.119286	-0.043321	0.991914	-0.821534	0.565323	-0.074106	-0.557542	-0.823731	-0.103025
12948	9.664358	-0.829613	-1.407868	-0.134156	-0.742950	0.437613	-0.126986	-0.046975	0.990792	-0.820256	0.566617	-0.078265	-0.557723	-0.822641	-0.110484
12949	9.690346	-1.120239	-2.011431	-0.197045	-0.735718	0.433674	-0.134605	-0.050581	0.989608	-0.818593	0.568448	-0.082290	-0.558378	-0.821163	-0.117921
12950	9.792863	-1.515814	-2.543443	-0.195062	-0.721837	0.424637	-0.142076	-0.054101	0.988376	-0.816926	0.570263	-0.086216	-0.558970	-0.819679	-0.125217
12951	9.678549	-1.669189	-2.834883	-0.164866	-0.702308	0.409462	-0.149305	-0.057535	0.987116	-0.815412	0.571841	-0.090004	-0.559295	-0.818345	-0.132293
12952	9.772019	-1.793965	-2.939024	-0.147274	-0.681659	0.387871	-0.156245	-0.060906	0.985839	-0.814005	0.573269	-0.093594	-0.559450	-0.817101	-0.139148
12953	9.655035	-1.700355	-2.797247	-0.087681	-0.649310	0.371713	-0.162860	-0.064095	0.984565	-0.812927	0.574216	-0.097087	-0.559130	-0.816191	-0.145622
12954	9.598942	-1.454657	-2.320863	-0.061486	-0.645423	0.348316	-0.169266	-0.067378	0.983265	-0.812013	0.574941	-0.100387	-0.558555	-0.815416	-0.152030
12955	9.777755	-1.511302	-2.103014	-0.057747	-0.614684	0.325122	-0.175296	-0.070538	0.981986	-0.811137	0.575635	-0.103448	-0.557968	-0.814659	-0.158122
12956	9.736573	-1.433238	-1.993878	-0.066371	-0.587193	0.297758	-0.180954	-0.073624	0.980732	-0.810245	0.576384	-0.106229	-0.557458	-0.813855	-0.163953
12957	9.685472	-1.577295	-2.030818	-0.094589	-0.569868	0.279117	-0.186351	-0.076669	0.979487	-0.809212	0.577362	-0.108762	-0.557180	-0.812881	-0.169633
12958	9.684459	-1.686443	-2.024389	-0.068516	-0.562842	0.258667	-0.191548	-0.079767	0.978237	-0.808350	0.578116	-0.111142	-0.556669	-0.812046	-0.175216
12959	9.577914	-1.372037	-1.789405	-0.047418	-0.552944	0.243294	-0.196550	-0.082868	0.976986	-0.807621	0.578697	-0.113392	-0.555982	-0.811321	-0.180669
12960	9.495780	-1.423944	-1.676734	-0.056900	-0.555155	0.220492	-0.201386	-0.086113	0.975719	-0.806876	0.579338	-0.115407	-0.555334	-0.810526	-0.186153
12961	9.478512	-1.418293	-1.598598	-0.032569	-0.551324	0.203199	-0.206044	-0.089423	0.974448	-0.806289	0.579779	-0.117283	-0.554476	-0.809852	-0.191561
12962	9.358956	-1.374275	-1.462012	-0.014015	-0.551023	0.188726	-0.210589	-0.092809	0.973159	-0.805828	0.580057	-0.119060	-0.553438	-0.809272	-0.196941
12963	9.295943	-1.296866	-1.361111	-0.027109	-0.560078	0.190599	-0.215181	-0.096254	0.971819	-0.805281	0.580454	-0.120815	-0.552467	-0.808584	-0.202414
12964	9.367750	-1.216804	-1.271964	-0.013518	-0.569354	0.188607	-0.219813	-0.099780	0.970426	-0.804807	0.580739	-0.122586	-0.551333	-0.807952	-0.207957
12965	9.328799	-1.092643	-1.325628	-0.013336	-0.573946	0.184314	-0.224417	-0.103365	0.968996	-0.804333	0.581031	-0.124302	-0.550169	-0.807291	-0.213533
12966	9.253464	-1.085413	-1.358075	-0.037089	-0.591303	0.193232	-0.229191	-0.107031	0.967479	-0.803703	0.581524	-0.126060	-0.549120	-0.806458	-0.219301
12967	9.343816	-1.036203	-1.512777	-0.034379	-0.608005	0.203714	-0.234123	-0.110767	0.965876	-0.803052	0.582020	-0.127910	-0.547991	-0.805595	-0.225216
12968	9.355838	-0.907066	-1.585097	-0.093918	-0.617933	0.219876	-0.239241	-0.114478	0.964188	-0.802030	0.583012	-0.129785	-0.547276	-0.804358	-0.231295
12969	9.370730	-1.196084	-1.970700	-0.128185	-0.630003	0.227655	-0.244473	-0.118233	0.962421	-0.800788	0.584304	-0.131634	-0.546783	-0.802876	-0.237526
12970	9.262574	-1.256242	-2.239359	-0.123598	-0.630156	0.228438	-0.249713	-0.121969	0.960608	-0.799562	0.585558	-0.133501	-0.546208	-0.801402	-0.243743
12971	9.196717	-1.439716	-2.332031	-0.133082	-0.649403	0.245418	-0.255180	-0.125750	0.958681	-0.798226	0.586924	-0.135484	-0.545636	-0.799817	-0.250148
12972	9.186868	-1.463517	-2.293742	-0.141745	-0.654179	0.257251	-0.260768	-0.129483	0.956679	-0.796804	0.588372	-0.137556	-0.545071	-0.798156	-0.256601
12973	9.238270	-1.695487	-2.461172	-0.151610	-0.659518	0.259291	-0.266386	-0.133234	0.954613	-0.795305	0.589917	-0.139597	-0.544544	-0.796396	-0.263108
12974	9.160333	-1.903314	-2.270965	-0.156541	-0.669012	0.257002	-0.272038	-0.137056	0.952476	-0.793777	0.591496	-0.141599	-0.543979	-0.794574	-0.269702
12975	9.405047	-2.293895	-2.560448	-0.086513	-0.688292	0.247402	-0.277702	-0.141076	0.950252	-0.792638	0.592523	-0.143673	-0.542777	-0.793104	-0.276367
12976	9.254509	-1.631184	-2.246182	0.019341	-0.701576	0.246755	-0.283427	-0.145193	0.947939	-0.792067	0.592707	-0.146039	-0.540647	-0.792223	-0.282992
12977	9.264089	-1.639428	-2.058591	0.055905	-0.744163	0.251205	-0.289391	-0.149618	0.945446	-0.791661	0.592630	-0.148535	-0.538076	-0.791457	-0.289948
12978	9.392411	-1.353797	-1.953546	0.104952	-0.764439	0.247243	-0.295418	-0.154219	0.942839	-0.791519	0.592159	-0.151147	-0.535000	-0.790927	-0.297002
12979	9.471104	-1.206351	-1.905813	0.107710	-0.797028	0.246293	-0.301580	-0.159083	0.940076	-0.791371	0.591688	-0.153747	-0.531773	-0.790315	-0.304335
12980	9.477268	-1.319507	-1.845695	0.082143	-0.836878	0.261010	-0.308050	-0.164166	0.937099	-0.791030	0.591442	-0.156421	-0.528561	-0.789459	-0.312054
12981	9.630574	-1.200056	-1.629309	0.078366	-0.887769	0.268893	-0.314815	-0.169601	0.933877	-0.790618	0.591267	-0.159142	-0.525180	-0.788441	-0.320229
12982	9.760493	-0.803297	-1.368236	0.095356	-0.938451	0.272594	-0.321847	-0.175400	0.930403	-0.790271	0.590965	-0.161963	-0.521427	-0.787398	-0.328814
12983	9.688688	-0.321220	-1.201373	0.061869	-0.992683	0.284902	-0.329217	-0.181546	0.926638	-0.789678	0.590980	-0.164773	-0.517711	-0.785992	-0.337924
12984	9.530607	-0.227991	-1.111517	-0.035066	-1.059059	0.311229	-0.337102	-0.188034	0.922500	-0.788484	0.591807	-0.167501	-0.514446	-0.783841	-0.347761
12985	9.388002	-0.401383	-0.882690	-0.150330	-1.134317	0.343372	-0.345588	-0.194893	0.917925	-0.786555	0.593634	-0.170088	-0.511762	-0.780778	-0.358447
12986	9.274234	-1.121837	-0.703119	-0.289277	-1.228194	0.362268	-0.354666	-0.202316	0.912842	-0.783835	0.596580	-0.172321	-0.509720	-0.776634	-0.370169
12987	9.374581	-1.761142	-0.759989	-0.328348	-1.312766	0.364393	-0.364156	-0.210322	0.907279	-0.780870	0.599867	-0.174360	-0.507575	-0.771961	-0.382680
12988	9.647046	-1.973953	-0.874752	-0.355012	-1.395950	0.366269	-0.374037	-0.218873	0.901216	-0.777751	0.603354	-0.176262	-0.505173	-0.766850	-0.395905
12989	10.207627	-1.883374	-1.380066	-0.352739	-1.469972	0.366018	-0.384246	-0.227913	0.894657	-0.774602	0.606859	-0.178087	-0.502342	-0.761432	-0.409724
12990	10.796019	-1.082134	-1.797937	-0.347433	-1.518954	0.367026	-0.394644	-0.237215	0.887685	-0.771468	0.610311	-0.179883	-0.499093	-0.755810	-0.423859
12991	11.199138	0.038471	-2.269991	-0.422416	-1.556563	0.379998	-0.405277	-0.246625	0.880299	-0.767862	0.614401	-0.181381	-0.496123	-0.749458	-0.438377
12992	11.068333	0.768548	-2.581910	-0.655068	-1.596052	0.399027	-0.416189	-0.256073	0.872476	-0.763017	0.620247	-0.181931	-0.494563	-0.741431	-0.453528
12993	11.039053	0.985758	-3.141817	-0.922105	-1.625870	0.412469	-0.427328	-0.265495	0.864236	-0.756733	0.628104	-0.181218	-0.494717	-0.731436	-0.469315
12994	10.974832	1.320841	-3.484436	-1.128179	-1.627555	0.422039	-0.438518	-0.274650	0.855727	-0.749356	0.637392	-0.179434	-0.496152	-0.719930	-0.485318
12995	10.492871	1.302746	-3.199231	-1.423117	-1.654204	0.413329	-0.449796	-0.283811	0.846838	-0.740455	0.648683	-0.175889	-0.499411	-0.706160	-0.501924
12996	10.291063	0.558113	-3.066656	-1.614314	-1.712020	0.378120	-0.461107	-0.293309	0.837467	-0.730678	0.661012	-0.170801	-0.503478	-0.690676	-0.519112
12997	10.390835	-0.311501	-3.289791	-1.708296	-1.671070	0.322681	-0.471865	-0.302585	0.828121	-0.720551	0.673621	-0.164439	-0.508084	-0.674297	-0.535887
12998	10.221661	-0.863115	-3.814379	-1.744251	-1.584950	0.287393	-0.481956	-0.311205	0.819066	-0.710318	0.686082	-0.157289	-0.512997	-0.657604	-0.551716
12999	9.782865	-0.971779	-4.201569	-1.744001	-1.549418	0.275121	-0.491847	-0.319385	0.809987	-0.700010	0.698258	-0.149737	-0.517757	-0.640647	-0.567009
13000	9.619854	-1.474366	-4.147622	-1.686281	-1.597499	0.258970	-0.501890	-0.327680	0.800458	-0.690006	0.709717	-0.142102	-0.521534	-0.623641	-0.582301
13001	10.112119	-2.003444	-3.953915	-1.560562	-1.580192	0.237997	-0.511750	-0.335731	0.790820	-0.680661	0.720098	-0.134757	-0.524226	-0.607242	-0.597029
13002	10.389281	-2.001231	-3.967669	-1.438770	-1.422448	0.252078	-0.520867	-0.342455	0.781935	-0.671850	0.729538	-0.128029	-0.526607	-0.592029	-0.610071
13003	10.164826	-1.804631	-4.327544	-1.406855	-1.265825	0.275981	-0.529359	-0.347859	0.773804	-0.662995	0.738703	-0.121475	-0.529355	-0.577332	-0.621668
13004	9.843532	-1.629543	-5.019527	-1.512813	-1.329851	0.336143	-0.538567	-0.352955	0.765094	-0.653226	0.748449	-0.114544	-0.532205	-0.561469	-0.633649
13005	10.137482	-1.767694	-5.425771	-1.460742	-1.363556	0.398348	-0.548388	-0.357532	0.755938	-0.643294	0.757936	-0.108195	-0.534269	-0.545623	-0.645641
13006	10.000048	-1.477888	-5.800825	-1.414174	-1.386521	0.486709	-0.558846	-0.361301	0.746427	-0.633094	0.767243	-0.102617	-0.535615	-0.529906	-0.657508
13007	9.796563	-1.273246	-6.085307	-1.393457	-1.433246	0.562741	-0.570029	-0.364469	0.736362	-0.622473	0.776543	-0.097509	-0.536278	-0.513949	-0.669524
13008	9.403522	-1.103101	-6.491811	-1.343397	-1.379717	0.614472	-0.581156	-0.366681	0.726500	-0.611793	0.785541	-0.092917	-0.536625	-0.498467	-0.680856
13009	8.599014	-0.896234	-6.974326	-1.370006	-1.342179	0.673526	-0.592414	-0.367976	0.716686	-0.600511	0.794722	-0.088341	-0.537059	-0.482712	-0.691778
13010	8.159218	-0.954096	-7.065010	-1.322373	-1.260033	0.701316	-0.603290	-0.368389	0.707341	-0.589280	0.803539	-0.084107	-0.537392	-0.467563	-0.701851
13011	7.348380	-0.879143	-7.229694	-1.236725	-1.105359	0.710910	-0.613353	-0.367770	0.698958	-0.578332	0.811836	-0.080338	-0.537894	-0.453506	-0.710636
13012	6.684882	-0.620172	-7.354473	-1.237402	-0.962785	0.712174	-0.622553	-0.366293	0.691562	-0.567336	0.819931	-0.076438	-0.539034	-0.439935	-0.718261
13013	6.345241	-0.647580	-7.366784	-1.265464	-0.745503	0.687957	-0.630416	-0.363889	0.685682	-0.556216	0.827912	-0.072015	-0.541479	-0.426787	-0.724330
13014	6.361676	-1.220398	-7.521051	-1.261313	-0.495780	0.601932	-0.636364	-0.361003	0.681702	-0.545618	0.835355	-0.066958	-0.545291	-0.414558	-0.728560
13015	7.090937	-2.392121	-7.800293	-1.123173	-0.197000	0.471784	-0.639967	-0.357889	0.679969	-0.536482	0.841635	-0.061944	-0.550117	-0.404433	-0.730620
13016	7.526084	-3.223236	-7.361615	-0.599236	0.086776	0.362642	-0.641362	-0.354517	0.680420	-0.530922	0.845292	-0.060026	-0.553874	-0.399748	-0.730359
13017	7.979034	-3.272725	-6.576661	0.044817	0.445564	0.255146	-0.640214	-0.350609	0.683520	-0.529563	0.845997	-0.062060	-0.556497	-0.401699	-0.727289
13018	7.906182	-2.669944	-6.491588	0.560338	0.891510	0.154535	-0.635998	-0.345723	0.689915	-0.531779	0.844215	-0.067176	-0.559212	-0.409606	-0.720767
13019	7.463604	-2.202696	-6.936612	0.841273	1.278688	0.049352	-0.629060	-0.340031	0.699044	-0.536214	0.840875	-0.073510	-0.562813	-0.421079	-0.711290
13020	7.210973	-1.843790	-7.360601	1.066136	1.598600	-0.081821	-0.619523	-0.333905	0.710421	-0.542827	0.835982	-0.080452	-0.567036	-0.435477	-0.699163
13021	7.164061	-1.696382	-7.222999	1.242085	1.832418	-0.219914	-0.607860	-0.327640	0.723297	-0.551273	0.829730	-0.087439	-0.571493	-0.451885	-0.684979
13022	7.378567	-1.382288	-6.849903	1.468954	2.066081	-0.346235	-0.594016	-0.320999	0.737634	-0.561860	0.821777	-0.094849	-0.575724	-0.470789	-0.668505
13023	7.358176	-0.776936	-6.491773	1.592618	2.310701	-0.461689	-0.578009	-0.313691	0.753329	-0.573796	0.812638	-0.101871	-0.580228	-0.491139	-0.649706
13024	7.170742	-0.202789	-6.163622	1.537445	2.544434	-0.554806	-0.559891	-0.305443	0.770212	-0.585993	0.803158	-0.107468	-0.585777	-0.511509	-0.628668
13025	6.898352	0.144269	-6.033232	1.381651	2.755657	-0.642629	-0.539817	-0.296244	0.787932	-0.597692	0.794011	-0.110953	-0.592757	-0.530835	-0.605684
13026	6.806918	0.317146	-6.096202	1.170559	2.941793	-0.744265	-0.517698	-0.286264	0.806252	-0.608688	0.785471	-0.111956	-0.601238	-0.548716	-0.580882
13027	6.877558	0.337923	-6.124185	0.979584	3.122013	-0.851022	-0.493517	-0.275557	0.824930	-0.618951	0.777612	-0.110538	-0.611016	-0.565144	-0.554321
13028	6.915768	0.221601	-6.053168	0.827087	3.257731	-0.944863	-0.467479	-0.264226	0.843593	-0.628654	0.770274	-0.107108	-0.621497	-0.580398	-0.526193
13029	7.041903	0.046229	-5.931042	0.730198	3.397724	-1.023444	-0.439662	-0.252138	0.862047	-0.637893	0.763330	-0.102075	-0.632289	-0.594772	-0.496444
13030	7.154748	0.078096	-5.754020	0.694433	3.522857	-1.095444	-0.410097	-0.239273	0.880096	-0.647034	0.756413	-0.095850	-0.642782	-0.608759	-0.465020
13031	7.273238	-0.142872	-5.827086	0.647984	3.649267	-1.138346	-0.379001	-0.225414	0.897522	-0.655740	0.749770	-0.088597	-0.652964	-0.622120	-0.431977
13032	7.320158	-0.178173	-5.761827	0.714256	3.751089	-1.178930	-0.346490	-0.210627	0.914101	-0.664764	0.742665	-0.080854	-0.661841	-0.635677	-0.397344
13033	7.445604	-0.091601	-5.649387	0.788270	3.837873	-1.211682	-0.312798	-0.194949	0.929598	-0.674019	0.735135	-0.072632	-0.669220	-0.649286	-0.361348
13034	7.631129	0.037638	-5.454567	0.857747	3.915517	-1.233904	-0.278041	-0.178284	0.943879	-0.683473	0.727166	-0.063982	-0.674950	-0.662906	-0.324034
13035	7.762979	0.062530	-5.291961	0.901352	3.987000	-1.246539	-0.242429	-0.160627	0.956780	-0.692831	0.719011	-0.054840	-0.679127	-0.676182	-0.285597
13036	7.870224	0.144836	-5.094434	0.934745	4.052047	-1.267441	-0.205954	-0.142029	0.968200	-0.702069	0.710680	-0.045091	-0.681676	-0.689030	-0.246082
13037	8.176180	0.025353	-4.723707	0.916564	4.086087	-1.289304	-0.168926	-0.122766	0.977953	-0.710748	0.702597	-0.034571	-0.682863	-0.700918	-0.205943
13038	8.589944	-0.031704	-4.245762	0.900571	4.096585	-1.328554	-0.131399	-0.103111	0.985953	-0.718919	0.694708	-0.023159	-0.682561	-0.711863	-0.165412
13039	8.902852	-0.096857	-3.626417	0.833821	4.084553	-1.338979	-0.093831	-0.083115	0.992113	-0.726117	0.687482	-0.011080	-0.681138	-0.721430	-0.124858
13040	9.340600	0.078143	-3.168886	0.798668	4.041391	-1.337896	-0.056543	-0.062941	0.996414	-0.732573	0.680687	0.001427	-0.678336	-0.729865	-0.084597
13041	9.790220	0.590340	-2.949278	0.707384	3.964624	-1.292945	-0.020173	-0.042653	0.998886	-0.737855	0.674815	0.013913	-0.674657	-0.736753	-0.045085
13042	11.577205	0.954231	-0.768107	0.629354	3.748965	-1.234187	0.014223	-0.023229	0.999629	-0.742137	0.669739	0.026123	-0.670097	-0.742233	-0.007713
13043	12.440936	1.123892	2.416900	0.617733	3.512713	-1.198402	0.046621	-0.005095	0.998900	-0.745892	0.664970	0.038204	-0.664433	-0.746853	0.027201
13044	11.031444	1.359715	2.693764	0.367646	2.944803	-1.002391	0.073661	0.010280	0.997230	-0.747734	0.662232	0.048405	-0.659900	-0.749228	0.056467
13045	10.369176	1.297980	2.885799	-0.065632	2.308376	-0.736800	0.094422	0.022660	0.995274	-0.746677	0.662847	0.055745	-0.658451	-0.748412	0.079507
13046	8.883830	0.512152	2.278337	-0.464357	1.702155	-0.476894	0.109251	0.032200	0.993493	-0.743138	0.666432	0.060121	-0.660159	-0.744870	0.096737
13047	7.319605	-0.292621	0.292587	-0.607830	1.120570	-0.205691	0.118229	0.039122	0.992215	-0.738875	0.671022	0.061584	-0.663389	-0.740405	0.108241
13048	7.408050	-0.205170	-0.850881	-0.624479	0.642062	-0.008241	0.122615	0.043807	0.991487	-0.734720	0.675622	0.061010	-0.667198	-0.735946	0.115027
13049	6.481642	0.442885	-1.914304	-0.712423	0.338483	0.173273	0.123649	0.047440	0.991191	-0.730156	0.680771	0.058503	-0.671999	-0.730958	0.118816
13050	6.251551	0.646820	-3.536298	-1.052643	0.061350	0.402868	0.121187	0.050642	0.991337	-0.723543	0.688220	0.053293	-0.679559	-0.723733	0.120045
13051	6.925312	0.117535	-2.516234	-1.140052	-0.089352	0.424020	0.117561	0.052908	0.991655	-0.716247	0.696210	0.047766	-0.687873	-0.715886	0.119742
13052	6.808898	-0.984591	-4.838533	-1.223699	-0.198431	0.441083	0.113093	0.054576	0.992084	-0.708288	0.704675	0.041976	-0.696806	-0.707428	0.118349
13053	6.096306	-1.418078	-6.200847	-1.168910	-0.285559	0.504463	0.107574	0.056116	0.992612	-0.700643	0.712621	0.035645	-0.705356	-0.699301	0.115977
13054	5.679993	-1.985361	-5.883854	-0.929045	-0.383648	0.500086	0.101408	0.057007	0.993210	-0.694580	0.718803	0.029660	-0.712232	-0.692872	0.112488
13055	7.351052	-2.925628	-3.935809	-0.417181	-0.628211	0.402884	0.094165	0.055537	0.994006	-0.691990	0.721465	0.025245	-0.715739	-0.690220	0.106368
13056	12.536578	-2.578780	-2.092573	0.171799	-0.880419	0.340368	0.085542	0.051884	0.994983	-0.693524	0.720095	0.022075	-0.715337	-0.691933	0.097581
13057	16.576272	-3.202308	2.951871	0.731260	-0.807014	0.267467	0.077961	0.048169	0.995792	-0.698953	0.714884	0.020140	-0.710906	-0.697582	0.089401
13058	15.573269	-2.582295	0.258721	1.300979	-0.939005	0.307079	0.069196	0.043736	0.996644	-0.708376	0.705600	0.018218	-0.702436	-0.707259	0.079807
13059	12.861787	2.179624	-1.081907	1.567503	-1.200619	0.632389	0.056346	0.039576	0.997627	-0.719698	0.694163	0.013111	-0.691997	-0.718729	0.067596
13060	9.734473	4.723580	-1.688067	0.918079	-1.321937	0.768525	0.041712	0.035319	0.998505	-0.726404	0.687242	0.006036	-0.686002	-0.725569	0.054322
13061	8.789020	3.939967	-1.126834	0.245167	-1.315817	0.741977	0.027334	0.030824	0.999151	-0.728337	0.685218	-0.001214	-0.684673	-0.727686	0.041180
13062	8.479410	1.188680	-1.503822	-0.338786	-1.127556	0.644797	0.014943	0.027029	0.999523	-0.726146	0.687497	-0.007735	-0.687378	-0.725684	0.029900
13063	9.179940	-0.401162	-2.119373	-0.499121	-1.044361	0.582043	0.003566	0.023453	0.999719	-0.722758	0.690967	-0.013632	-0.691092	-0.722506	0.019414
13064	10.083054	-1.440974	-2.278226	-0.466562	-1.003156	0.596432	-0.007652	0.020319	0.999764	-0.719508	0.694207	-0.019616	-0.694442	-0.719488	0.009308
13065	9.870630	-2.263445	-2.215683	-0.182479	-0.957385	0.586893	-0.018488	0.017489	0.999676	-0.718162	0.695410	-0.025448	-0.695630	-0.718400	-0.000297
13066	9.657091	-2.345197	-1.567046	0.138106	-0.922370	0.558441	-0.028883	0.014705	0.999475	-0.718985	0.694334	-0.030993	-0.694425	-0.719502	-0.009481
13067	9.445287	-2.098132	-1.172210	0.369803	-0.862559	0.526869	-0.038617	0.012113	0.999181	-0.721370	0.691600	-0.036265	-0.691472	-0.722179	-0.017970
13068	9.555563	-1.581386	-0.831809	0.495138	-0.847821	0.494285	-0.048010	0.009354	0.998803	-0.724567	0.687967	-0.041271	-0.687530	-0.725681	-0.026252
13069	9.929377	-0.845036	-0.391656	0.501278	-0.831331	0.474661	-0.057119	0.006538	0.998346	-0.727755	0.684285	-0.046119	-0.683455	-0.729186	-0.034327
13070	9.941008	-0.693802	-0.219808	0.311729	-0.813786	0.486022	-0.066185	0.003886	0.997800	-0.729580	0.681987	-0.051050	-0.680685	-0.731354	-0.042303
13071	9.697268	-0.929080	-1.051263	0.166130	-0.824317	0.502611	-0.075420	0.001252	0.997151	-0.730356	0.680760	-0.056096	-0.678891	-0.732506	-0.050429
13072	9.799724	-0.608924	-1.458504	0.116635	-0.828824	0.504346	-0.084700	-0.001421	0.996405	-0.730742	0.679909	-0.061148	-0.677379	-0.733295	-0.058627
13073	9.760562	-0.468756	-1.665971	0.017388	-0.812005	0.499408	-0.093808	-0.004005	0.995582	-0.730417	0.679797	-0.066088	-0.676529	-0.733390	-0.066696
13074	9.679857	-0.803480	-2.034172	-0.010319	-0.790264	0.486074	-0.102676	-0.006527	0.994693	-0.729869	0.679903	-0.070879	-0.675832	-0.733273	-0.074574
13075	9.789403	-0.763018	-2.107733	-0.015746	-0.787044	0.480942	-0.111464	-0.009052	0.993727	-0.729251	0.680057	-0.075604	-0.675107	-0.733104	-0.082403
13076	9.843696	-0.835106	-2.049134	-0.062911	-0.765757	0.480516	-0.120111	-0.011427	0.992695	-0.728268	0.680573	-0.080282	-0.674684	-0.732591	-0.090066
13077	9.821924	-0.983819	-1.998402	-0.151156	-0.768675	0.489215	-0.128819	-0.013746	0.991573	-0.726644	0.681742	-0.084950	-0.674829	-0.731463	-0.097810
13078	9.856564	-1.365306	-2.067717	-0.195909	-0.756985	0.484559	-0.137423	-0.016004	0.990383	-0.724674	0.683253	-0.089513	-0.675250	-0.730006	-0.105493
13079	9.848341	-1.507225	-2.068845	-0.174499	-0.725004	0.470021	-0.145684	-0.018102	0.989165	-0.722835	0.684607	-0.093930	-0.675489	-0.728688	-0.112822
13080	9.855711	-1.453165	-2.146023	-0.130006	-0.679759	0.451080	-0.153512	-0.019996	0.987944	-0.721280	0.685647	-0.098199	-0.675418	-0.727660	-0.119678
13081	9.766555	-1.493700	-2.071033	-0.107374	-0.612606	0.398008	-0.160480	-0.021745	0.986799	-0.719936	0.686511	-0.101953	-0.675232	-0.726794	-0.125827
13082	9.607167	-1.669117	-2.090056	-0.092323	-0.582664	0.372442	-0.167073	-0.023454	0.985665	-0.718701	0.687274	-0.105468	-0.674949	-0.726020	-0.131681
13083	9.565652	-1.660356	-1.899773	-0.112126	-0.559597	0.353346	-0.173350	-0.025109	0.984540	-0.717349	0.688174	-0.108754	-0.674804	-0.725112	-0.137307
13084	9.577572	-1.843576	-1.770516	-0.146334	-0.558982	0.330100	-0.179470	-0.026920	0.983395	-0.715778	0.689327	-0.111759	-0.674873	-0.723950	-0.142982
13085	9.524340	-1.864077	-1.507475	-0.139072	-0.552098	0.304852	-0.185339	-0.028836	0.982252	-0.714290	0.690418	-0.114509	-0.674862	-0.722835	-0.148559
13086	9.501616	-1.816100	-1.230953	-0.148501	-0.552978	0.286285	-0.191096	-0.030886	0.981085	-0.712749	0.691583	-0.117057	-0.674887	-0.721636	-0.154172
13087	9.469864	-1.776360	-1.160701	-0.136971	-0.553653	0.271774	-0.196731	-0.033022	0.979901	-0.711305	0.692657	-0.119463	-0.674791	-0.720510	-0.159756
13088	9.446418	-1.534510	-1.035447	-0.137858	-0.554982	0.263198	-0.202329	-0.035226	0.978684	-0.709850	0.693745	-0.121781	-0.674667	-0.719359	-0.165370
13089	9.400075	-1.537759	-0.973311	-0.160434	-0.567106	0.257351	-0.207943	-0.037541	0.977420	-0.708248	0.694991	-0.123984	-0.674644	-0.718038	-0.171107
13090	9.393216	-1.496280	-1.090134	-0.137224	-0.583298	0.251609	-0.213641	-0.040007	0.976093	-0.706795	0.696077	-0.126168	-0.674388	-0.716852	-0.176987
13091	9.380092	-1.403317	-1.035908	-0.128080	-0.595669	0.244843	-0.219349	-0.042594	0.974716	-0.705410	0.697095	-0.128282	-0.674005	-0.715713	-0.182954
13092	9.416292	-1.376748	-1.169781	-0.109610	-0.616073	0.243613	-0.225199	-0.045332	0.973258	-0.704134	0.697988	-0.130417	-0.673410	-0.714673	-0.189106
13093	9.330211	-1.182851	-1.201212	-0.101161	-0.635333	0.248393	-0.231187	-0.048161	0.971717	-0.702895	0.698825	-0.132595	-0.672675	-0.713669	-0.195411
13094	9.372886	-1.215203	-1.331993	-0.126866	-0.660670	0.246325	-0.237341	-0.051179	0.970077	-0.701471	0.699854	-0.134700	-0.672018	-0.712450	-0.202005
13095	9.372184	-1.150505	-1.452070	-0.142810	-0.668917	0.253857	-0.243577	-0.054188	0.968367	-0.699910	0.701003	-0.136824	-0.671413	-0.711097	-0.208675
13096	9.325549	-1.300107	-1.625761	-0.178080	-0.690940	0.258355	-0.250002	-0.057313	0.966548	-0.698084	0.702412	-0.138912	-0.670953	-0.709459	-0.215614
13097	9.409399	-1.319444	-1.798185	-0.183785	-0.697080	0.259102	-0.256448	-0.060457	0.964665	-0.696205	0.703865	-0.140968	-0.670472	-0.707756	-0.222595
13098	9.379324	-1.343632	-1.969058	-0.178039	-0.703412	0.270346	-0.263023	-0.063554	0.962694	-0.694317	0.705291	-0.143137	-0.669883	-0.706063	-0.229635
13099	9.175912	-1.298866	-1.938368	-0.180576	-0.727259	0.282003	-0.269812	-0.066718	0.960599	-0.692367	0.706747	-0.145384	-0.669200	-0.704314	-0.236882
13100	9.164317	-1.389527	-1.792657	-0.182117	-0.749052	0.283681	-0.276764	-0.070010	0.958384	-0.690382	0.708221	-0.147635	-0.668412	-0.702511	-0.244344
13101	9.169086	-1.375248	-1.513900	-0.172588	-0.776922	0.288377	-0.283906	-0.073443	0.956035	-0.688432	0.709637	-0.149924	-0.667427	-0.700730	-0.252031
13102	9.117754	-1.584766	-1.369711	-0.144030	-0.805719	0.295231	-0.291289	-0.077015	0.953530	-0.686632	0.710865	-0.152340	-0.666098	-0.699099	-0.259948
13103	9.119023	-1.426850	-1.125356	-0.100423	-0.839648	0.298675	-0.298888	-0.080781	0.950863	-0.685095	0.711799	-0.154877	-0.664313	-0.697722	-0.268091
13104	9.054822	-1.549309	-0.978660	-0.098513	-0.887698	0.303530	-0.306832	-0.084835	0.947975	-0.683533	0.712734	-0.157458	-0.662296	-0.696286	-0.276677
13105	9.239541	-1.757863	-1.215148	-0.051015	-0.931658	0.304834	-0.315038	-0.089169	0.944881	-0.682261	0.713351	-0.160157	-0.659751	-0.695111	-0.285569
13106	9.223338	-1.207689	-1.140055	0.019017	-0.972285	0.311098	-0.323536	-0.093731	0.941562	-0.681407	0.713497	-0.163115	-0.656513	-0.694360	-0.294711
13107	9.183135	-1.266719	-1.315004	-0.054020	-1.024543	0.322857	-0.332410	-0.098560	0.937971	-0.680008	0.714179	-0.165945	-0.653524	-0.692989	-0.304422
13108	9.117168	-1.817443	-1.815375	-0.099400	-1.074485	0.320693	-0.341571	-0.103731	0.934114	-0.678295	0.715183	-0.168608	-0.650573	-0.691196	-0.314646
13109	9.134861	-2.129840	-2.385541	-0.085947	-1.108472	0.311822	-0.350842	-0.109178	0.930048	-0.676672	0.716105	-0.171198	-0.647321	-0.689401	-0.325118
13110	9.267092	-2.192846	-3.033876	-0.047228	-1.137756	0.309439	-0.360254	-0.114821	0.925761	-0.675285	0.716767	-0.173883	-0.643589	-0.687795	-0.335755
13111	9.235304	-1.953209	-3.714159	-0.011708	-1.133587	0.308179	-0.369571	-0.120427	0.921365	-0.674101	0.717206	-0.176648	-0.639535	-0.686377	-0.346239
13112	9.178349	-1.880628	-4.335926	-0.064464	-1.128413	0.315578	-0.378867	-0.125923	0.916844	-0.672528	0.718025	-0.179292	-0.635740	-0.684532	-0.356723
13113	9.103370	-1.868922	-4.865508	-0.119899	-1.117780	0.311975	-0.388015	-0.131347	0.912246	-0.670588	0.719241	-0.181670	-0.632263	-0.682232	-0.367156
13114	9.033649	-2.048481	-5.217838	-0.185725	-1.093749	0.294395	-0.396862	-0.136700	0.907642	-0.668280	0.720890	-0.183629	-0.629208	-0.679434	-0.377448
13115	9.104237	-2.286335	-5.234898	-0.199124	-1.080743	0.275532	-0.405450	-0.142066	0.903010	-0.665942	0.722619	-0.185321	-0.626205	-0.676490	-0.387593
13116	9.301521	-2.378854	-4.918646	-0.172647	-1.068430	0.249987	-0.413764	-0.147498	0.898356	-0.663858	0.724137	-0.186865	-0.622970	-0.673699	-0.397539
13117	9.295055	-2.222289	-4.297389	-0.108962	-1.062951	0.225319	-0.421826	-0.153041	0.893667	-0.662257	0.725202	-0.188405	-0.619256	-0.671312	-0.407262
13118	9.200100	-2.958594	-3.705138	-0.127707	-1.100902	0.181124	-0.429800	-0.159130	0.888791	-0.660717	0.726331	-0.189465	-0.615407	-0.668671	-0.417317
13119	9.915437	-3.366544	-3.533351	0.025085	-1.123454	0.097211	-0.437294	-0.165955	0.883874	-0.660467	0.726315	-0.190392	-0.610374	-0.667027	-0.427221
13120	10.828965	-2.674465	-3.372615	0.189397	-1.133155	0.033870	-0.444377	-0.173292	0.878919	-0.661491	0.725096	-0.191483	-0.604118	-0.666488	-0.436847
13121	11.543111	-1.349167	-3.059010	0.284350	-1.162088	0.032209	-0.451536	-0.180831	0.873736	-0.663073	0.723251	-0.192982	-0.597034	-0.666489	-0.446478
13122	11.455763	0.092738	-1.997711	0.201037	-1.238935	0.066851	-0.459310	-0.188626	0.868018	-0.663987	0.722019	-0.194447	-0.590048	-0.665664	-0.456876
13123	11.162175	0.627945	-0.902107	-0.080113	-1.347930	0.095438	-0.467825	-0.196916	0.861606	-0.663093	0.722728	-0.194863	-0.584335	-0.662487	-0.468683
13124	11.224602	1.204994	-0.275423	-0.283271	-1.402729	0.072701	-0.476440	-0.205674	0.854812	-0.661129	0.724726	-0.194114	-0.579581	-0.657624	-0.481266
13125	11.147371	1.853694	0.144549	-0.612925	-1.461084	0.084754	-0.485412	-0.214639	0.847529	-0.657198	0.728904	-0.191805	-0.576599	-0.650099	-0.494879
13126	11.160866	1.838997	-0.072707	-1.037708	-1.485981	0.131844	-0.494802	-0.223278	0.839832	-0.650601	0.735864	-0.187676	-0.576098	-0.639258	-0.509372
13127	11.002588	1.531730	-0.424816	-1.462285	-1.500116	0.200364	-0.504721	-0.231306	0.831718	-0.641182	0.745554	-0.181753	-0.578050	-0.625017	-0.524606
13128	10.829589	0.814207	-0.897950	-1.730023	-1.509931	0.277204	-0.515193	-0.238561	0.823204	-0.629772	0.756856	-0.174802	-0.581346	-0.608488	-0.540166
13129	10.275537	0.263330	-1.027713	-1.842243	-1.537908	0.340211	-0.526251	-0.245217	0.814204	-0.617280	0.768716	-0.167454	-0.584829	-0.590715	-0.555905
13130	10.462997	-0.263546	-1.263597	-1.797431	-1.499513	0.342661	-0.537090	-0.251315	0.805217	-0.604955	0.780005	-0.160066	-0.587846	-0.573091	-0.570967
13131	10.094313	-0.538375	-1.272232	-1.759504	-1.455244	0.344446	-0.547696	-0.256853	0.796276	-0.592743	0.790800	-0.152615	-0.590495	-0.555574	-0.585366
13132	10.016298	-1.034809	-2.210781	-1.772929	-1.463607	0.346890	-0.558339	-0.262119	0.787116	-0.580376	0.801368	-0.144824	-0.592808	-0.537684	-0.599562
13133	10.262446	-1.324474	-2.579309	-1.699939	-1.509094	0.333425	-0.569181	-0.267443	0.777501	-0.568431	0.811230	-0.137083	-0.594070	-0.519981	-0.613759
13134	10.645966	-1.495783	-2.989673	-1.578837	-1.597520	0.319777	-0.580414	-0.273031	0.767185	-0.557262	0.820142	-0.129718	-0.593784	-0.502814	-0.628172
13135	11.115237	-1.244353	-3.771981	-1.510082	-1.615006	0.332410	-0.591800	-0.278308	0.756516	-0.546380	0.828512	-0.122623	-0.592656	-0.485913	-0.642376
13136	11.311171	-0.738987	-4.727543	-1.648616	-1.676503	0.417050	-0.603923	-0.282855	0.745165	-0.534176	0.837513	-0.115017	-0.591552	-0.467510	-0.656887
13137	11.699556	-0.635982	-5.328715	-1.792316	-1.711864	0.486749	-0.616581	-0.286621	0.733264	-0.520637	0.847088	-0.106676	-0.590563	-0.447539	-0.671524
13138	11.185097	-0.815220	-6.365378	-1.843370	-1.647398	0.537685	-0.629005	-0.289276	0.721576	-0.506463	0.856668	-0.098055	-0.589786	-0.427129	-0.685356
13139	9.831902	-0.771909	-7.365973	-1.857777	-1.565001	0.580256	-0.641100	-0.290837	0.710214	-0.491854	0.866084	-0.089324	-0.589126	-0.406587	-0.698296
13140	8.875540	-0.878912	-7.977563	-1.861351	-1.509187	0.611437	-0.652888	-0.291527	0.699107	-0.476995	0.875212	-0.080498	-0.588399	-0.386027	-0.710472
13141	7.863877	-0.837694	-8.382726	-1.774668	-1.315265	0.626169	-0.663541	-0.291005	0.689223	-0.462462	0.883702	-0.072111	-0.588083	-0.366588	-0.720952
13142	6.437261	-0.901372	-8.920909	-1.716266	-1.149555	0.616660	-0.673052	-0.289674	0.680507	-0.448303	0.891597	-0.063863	-0.588239	-0.348056	-0.729953
13143	5.894048	-1.291945	-9.469795	-1.603519	-0.945096	0.561886	-0.681073	-0.287890	0.673245	-0.435089	0.898652	-0.055871	-0.588928	-0.330974	-0.737306
13144	5.767477	-1.779778	-9.740836	-1.499706	-0.727481	0.474894	-0.687345	-0.285995	0.667655	-0.423054	0.904836	-0.047937	-0.590408	-0.315403	-0.742926
13145	6.500455	-2.930861	-9.462173	-1.206126	-0.463393	0.346579	-0.691513	-0.284322	0.664057	-0.413561	0.909542	-0.041231	-0.592265	-0.303140	-0.746544
13146	6.539291	-4.063013	-8.869371	-0.589337	-0.171992	0.248800	-0.693502	-0.282611	0.662711	-0.408404	0.911991	-0.038464	-0.593516	-0.297329	-0.747887
13147	7.292292	-4.489588	-7.748581	0.232986	0.158308	0.129001	-0.693067	-0.281000	0.663850	-0.408922	0.911646	-0.041030	-0.593667	-0.299900	-0.746739
13148	7.246935	-3.482931	-6.585137	0.838138	0.693223	-0.002130	-0.688885	-0.278947	0.669048	-0.413985	0.909057	-0.047246	-0.595024	-0.309524	-0.741716
13149	6.983772	-2.819716	-7.072562	1.026723	1.191603	-0.133349	-0.681192	-0.276431	0.677911	-0.421058	0.905432	-0.053889	-0.598906	-0.322148	-0.733166
13150	6.658306	-2.707922	-7.688436	1.166849	1.557383	-0.280876	-0.670571	-0.273873	0.689441	-0.430049	0.900779	-0.060454	-0.604477	-0.337032	-0.721815
13151	6.799695	-2.637505	-7.929846	1.442745	1.826620	-0.443680	-0.657517	-0.271572	0.702794	-0.441787	0.894565	-0.067649	-0.610324	-0.354966	-0.708170
13152	7.026886	-2.475521	-7.568857	1.770904	2.046870	-0.603030	-0.642204	-0.269493	0.717599	-0.456637	0.886421	-0.075766	-0.615676	-0.376339	-0.692324
13153	7.157226	-1.902664	-7.070849	2.050862	2.285479	-0.737106	-0.624620	-0.267149	0.733813	-0.474011	0.876465	-0.084396	-0.620615	-0.400551	-0.674089
13154	6.905712	-1.046734	-6.500774	2.108157	2.525889	-0.851186	-0.604703	-0.264158	0.751369	-0.492459	0.865453	-0.092065	-0.625954	-0.425690	-0.653429
13155	6.696637	-0.423716	-6.383286	1.961986	2.797553	-0.939688	-0.582356	-0.260025	0.770226	-0.510411	0.854388	-0.097475	-0.632727	-0.449897	-0.630278
13156	6.422674	0.016427	-6.415472	1.735713	3.034868	-1.045985	-0.557537	-0.254934	0.790039	-0.527498	0.843647	-0.100027	-0.641014	-0.472513	-0.604841
13157	6.368475	0.109153	-6.492116	1.521907	3.234280	-1.152988	-0.530445	-0.249014	0.810321	-0.543623	0.833380	-0.099761	-0.650463	-0.493427	-0.577432
13158	6.412283	0.177243	-6.478427	1.334055	3.406321	-1.247276	-0.501175	-0.242228	0.830752	-0.558868	0.823562	-0.097021	-0.660675	-0.512905	-0.548122
13159	6.467813	0.158916	-6.385410	1.165949	3.554676	-1.322667	-0.469980	-0.234538	0.850947	-0.573078	0.814312	-0.092071	-0.671342	-0.530930	-0.517120
13160	6.626088	0.026381	-6.320013	1.015343	3.699782	-1.372976	-0.436918	-0.225720	0.870720	-0.586233	0.805638	-0.085317	-0.682227	-0.547721	-0.484322
13161	6.798507	-0.208234	-6.357929	0.945999	3.853989	-1.389232	-0.402155	-0.215465	0.889858	-0.598585	0.797305	-0.077464	-0.692797	-0.563808	-0.449614
13162	6.873828	-0.282459	-6.319645	0.942265	3.991038	-1.400369	-0.365782	-0.203764	0.908121	-0.610585	0.788947	-0.068914	-0.702417	-0.579693	-0.412998
13163	7.067399	-0.132411	-6.039971	0.991971	4.108764	-1.410196	-0.328021	-0.190712	0.925220	-0.622501	0.780327	-0.059851	-0.710559	-0.595583	-0.374682
13164	7.190573	0.045938	-5.969519	1.042742	4.223723	-1.417664	-0.288900	-0.176227	0.941000	-0.634360	0.771400	-0.050292	-0.717025	-0.611462	-0.334649
13165	7.398986	0.237124	-5.863584	1.057127	4.310015	-1.437799	-0.248648	-0.160595	0.955188	-0.645843	0.762425	-0.039935	-0.721846	-0.626831	-0.293295
13166	7.667654	0.352518	-5.522706	1.046797	4.375084	-1.449644	-0.207495	-0.143844	0.967603	-0.656755	0.753553	-0.028813	-0.724995	-0.641457	-0.250829
13167	7.911253	0.363913	-5.123638	1.009333	4.434397	-1.454983	-0.165639	-0.126026	0.978101	-0.666805	0.745040	-0.016925	-0.726592	-0.655006	-0.207442
13168	8.179594	0.417870	-4.683712	0.974825	4.457270	-1.448070	-0.123474	-0.107288	0.986531	-0.676005	0.736883	-0.004470	-0.726479	-0.667452	-0.163514
13169	8.540113	0.489924	-4.280035	0.891789	4.460169	-1.438097	-0.081283	-0.087843	0.992812	-0.683955	0.729475	0.008547	-0.724982	-0.678344	-0.119375
13170	8.981729	0.572158	-3.746322	0.751013	4.404874	-1.393071	-0.039777	-0.067893	0.996899	-0.690249	0.723246	0.021714	-0.722477	-0.687245	-0.075631
13171	9.580570	0.734315	-3.298501	0.563145	4.354047	-1.339734	0.000933	-0.047508	0.998870	-0.694570	0.718582	0.034826	-0.719424	-0.693818	-0.032327
13172	10.166846	0.636081	-3.228113	0.376039	4.257721	-1.267607	0.040361	-0.026974	0.998821	-0.697015	0.715482	0.047488	-0.715920	-0.698110	0.010076
13173	10.862961	0.905618	-0.945170	0.318970	4.005569	-1.203539	0.077386	-0.007571	0.996972	-0.698580	0.713043	0.059640	-0.711335	-0.701080	0.049890
13174	12.374835	0.136018	3.024150	-0.005605	3.647018	-1.159610	0.111407	0.009714	0.993727	-0.697447	0.713089	0.071221	-0.707924	-0.701006	0.086218
13175	11.446215	0.008752	0.438994	-0.252755	3.361860	-1.004314	0.142193	0.026044	0.989496	-0.694380	0.715039	0.080964	-0.705420	-0.698599	0.119758
13176	9.737677	0.468207	2.425594	-0.813889	2.717578	-0.771925	0.166759	0.039383	0.985211	-0.687441	0.720945	0.087538	-0.706835	-0.691872	0.147298
13177	9.069380	-0.750775	2.383453	-1.060357	2.145409	-0.585148	0.185995	0.049867	0.981284	-0.678886	0.728500	0.091657	-0.710295	-0.683228	0.169351
13178	8.363901	-0.948685	1.818257	-0.927585	1.605682	-0.406337	0.200209	0.057793	0.978047	-0.671500	0.735015	0.094026	-0.713445	-0.675583	0.185965
13179	7.155492	0.378147	1.843690	-0.777301	1.069349	-0.170742	0.209031	0.063696	0.975832	-0.665583	0.740349	0.094248	-0.716453	-0.669198	0.197151
13180	6.542991	2.150636	1.830115	-0.871405	0.621435	0.103330	0.212852	0.068594	0.974674	-0.659541	0.746076	0.091526	-0.720902	-0.662319	0.204044
13181	6.267890	2.422390	1.158822	-1.241241	0.291374	0.311517	0.212956	0.072818	0.974344	-0.651199	0.754022	0.085976	-0.728416	-0.652801	0.207993
13182	5.651200	1.288191	0.070225	-1.549275	-0.001687	0.479114	0.209889	0.076431	0.974733	-0.640849	0.763683	0.078111	-0.738417	-0.641052	0.209269
13183	5.732465	-0.524337	-1.107280	-1.667341	-0.285477	0.591166	0.204043	0.079135	0.975758	-0.629657	0.773811	0.068912	-0.749599	-0.628454	0.207718
13184	6.057869	-1.816395	-2.718268	-1.498454	-0.543841	0.636294	0.196001	0.080684	0.977279	-0.619618	0.782633	0.059655	-0.760037	-0.617233	0.203390
13185	6.078706	-2.524149	-3.968313	-1.197082	-0.791427	0.651610	0.185972	0.080925	0.979217	-0.611702	0.789447	0.050931	-0.768918	-0.608461	0.196317
13186	6.004719	-3.417144	-5.008341	-0.716577	-0.983008	0.591717	0.174806	0.079633	0.981377	-0.607238	0.793312	0.043791	-0.775051	-0.603585	0.187032
13187	6.528989	-3.991648	-5.646028	0.046598	-1.129552	0.429475	0.163465	0.076183	0.983603	-0.608318	0.792700	0.039699	-0.776678	-0.604833	0.175922
13188	8.926509	-2.937042	-4.162425	1.200108	-1.069265	0.132920	0.154396	0.070690	0.985477	-0.617818	0.785279	0.040465	-0.771014	-0.615093	0.164917
13189	11.675263	-1.150253	0.067931	2.147078	-0.782691	-0.185292	0.149602	0.064336	0.986651	-0.633952	0.772016	0.045783	-0.758764	-0.632339	0.156281
13190	14.437524	0.482846	4.859821	2.775169	-0.549018	-0.358010	0.147804	0.058054	0.987311	-0.654245	0.754382	0.053585	-0.741699	-0.653864	0.149482
13191	15.110647	4.132693	6.111932	2.598078	-0.687658	-0.210903	0.144194	0.051888	0.988188	-0.672990	0.737256	0.059489	-0.725461	-0.673618	0.141228
13192	15.222646	6.226800	6.259599	1.507339	-1.056640	0.202517	0.135221	0.046177	0.989739	-0.684146	0.726909	0.059556	-0.716700	-0.685179	0.129885
13193	14.124787	3.593076	3.843033	0.372594	-1.256511	0.574565	0.122317	0.041688	0.991615	-0.687548	0.724101	0.054368	-0.715763	-0.688433	0.117232
13194	11.518173	2.066956	-1.152263	0.039595	-1.381136	0.795163	0.106979	0.037912	0.993538	-0.688745	0.723507	0.046552	-0.717067	-0.689275	0.103512
13195	9.266965	3.161628	-3.174187	-0.096212	-1.438180	0.854673	0.090799	0.034159	0.995283	-0.688894	0.723865	0.038004	-0.719152	-0.689096	0.089258
13196	8.300690	2.346497	-4.075967	-0.530941	-1.391240	0.729412	0.075776	0.029862	0.996678	-0.685668	0.727282	0.030340	-0.723959	-0.685689	0.075586
13197	8.673737	-0.300603	-4.794452	-0.827912	-1.242119	0.599601	0.062684	0.025730	0.997702	-0.680058	0.732771	0.023829	-0.730473	-0.679989	0.063431
13198	9.346071	-2.094454	-5.108686	-0.625033	-1.074698	0.482431	0.051561	0.021956	0.998428	-0.675746	0.736898	0.018692	-0.735329	-0.675647	0.052832
13199	10.246390	-2.405565	-4.784293	-0.319230	-0.973196	0.419608	0.041596	0.018460	0.998964	-0.673586	0.738968	0.014392	-0.737937	-0.673487	0.043173
13200	10.470394	-2.108499	-4.066667	0.073820	-0.894736	0.400989	0.032308	0.015355	0.999360	-0.674271	0.738410	0.010453	-0.737777	-0.674177	0.034209
13201	10.309658	-1.324576	-2.716376	0.323500	-0.840839	0.402649	0.023428	0.012617	0.999646	-0.676764	0.736170	0.006570	-0.735827	-0.676679	0.025785
13202	10.120353	-0.396605	-1.850876	0.333236	-0.769328	0.408297	0.015017	0.010362	0.999834	-0.679283	0.733872	0.002597	-0.733723	-0.679208	0.018059
13203	9.894495	0.070448	-1.462397	0.211786	-0.710467	0.410585	0.007052	0.008513	0.999939	-0.680879	0.732395	-0.001433	-0.732362	-0.680827	0.010961
13204	9.825391	0.174094	-1.094715	0.109932	-0.678605	0.390389	-0.000567	0.006705	0.999977	-0.681686	0.731625	-0.005293	-0.731644	-0.681674	0.004156
13205	9.770583	0.111659	-0.599200	0.054360	-0.664868	0.369514	-0.007914	0.004847	0.999957	-0.682068	0.731234	-0.008943	-0.731246	-0.682109	-0.002481
13206	9.765187	-0.045811	-0.342319	0.007042	-0.656058	0.368459	-0.015217	0.003023	0.999880	-0.682066	0.731182	-0.012591	-0.731132	-0.682176	-0.009064
13207	9.655175	-0.169579	-0.012387	-0.037022	-0.646654	0.376236	-0.022475	0.001337	0.999747	-0.681724	0.731427	-0.016304	-0.731264	-0.681918	-0.015528
13208	9.602061	-0.551740	0.076349	-0.060826	-0.649771	0.371045	-0.029749	-0.000421	0.999557	-0.681173	0.731851	-0.019964	-0.731518	-0.681465	-0.022059
13209	9.546927	-0.726478	0.179970	-0.012330	-0.660622	0.365369	-0.037033	-0.002276	0.999311	-0.680961	0.731940	-0.023569	-0.731383	-0.681365	-0.028656
13210	9.535257	-0.631238	0.313514	0.041256	-0.685420	0.359309	-0.044484	-0.004360	0.999001	-0.681107	0.731680	-0.027136	-0.730831	-0.681634	-0.035518
13211	9.431818	-0.278523	0.564637	0.060468	-0.708616	0.363627	-0.052102	-0.006559	0.998620	-0.681375	0.731289	-0.030747	-0.730078	-0.682037	-0.042571
13212	9.494645	-0.295760	0.650250	0.000178	-0.728748	0.372331	-0.059950	-0.008846	0.998162	-0.681160	0.731324	-0.034429	-0.729676	-0.681973	-0.049869
13213	9.501253	-0.498958	0.422069	-0.027836	-0.747079	0.377837	-0.067937	-0.011204	0.997627	-0.680718	0.731552	-0.038140	-0.729389	-0.681693	-0.057326
13214	9.469921	-0.563567	0.111920	-0.042850	-0.771290	0.381508	-0.076149	-0.013707	0.997002	-0.680125	0.731899	-0.041884	-0.729131	-0.681275	-0.065056
13215	9.602623	-0.813939	-0.386918	-0.078416	-0.770080	0.382016	-0.084325	-0.016181	0.996307	-0.679249	0.732490	-0.045593	-0.729047	-0.680585	-0.072758
13216	9.546917	-1.161342	-0.997263	-0.075005	-0.763130	0.374413	-0.092420	-0.018666	0.995545	-0.678368	0.733072	-0.049230	-0.728887	-0.679895	-0.080413
13217	9.620024	-1.267053	-1.394393	-0.085592	-0.785709	0.370374	-0.100622	-0.021316	0.994696	-0.677390	0.733727	-0.052800	-0.728710	-0.679110	-0.088268
13218	9.720580	-1.290202	-1.745886	-0.076901	-0.780398	0.360890	-0.108742	-0.024001	0.993780	-0.676449	0.734336	-0.056284	-0.728418	-0.678362	-0.096089
13219	9.766878	-1.219207	-2.085667	-0.125411	-0.779419	0.355498	-0.116787	-0.026699	0.992798	-0.675138	0.735276	-0.059646	-0.728388	-0.677242	-0.103896
13220	9.609285	-1.212295	-2.126864	-0.166896	-0.774255	0.337968	-0.124700	-0.029487	0.991756	-0.673512	0.736505	-0.062787	-0.728582	-0.675789	-0.111702
13221	9.706126	-1.465827	-2.118958	-0.186485	-0.788727	0.318551	-0.132555	-0.032490	0.990643	-0.671748	0.737862	-0.065685	-0.728824	-0.674169	-0.119633
13222	9.645634	-1.597814	-1.859875	-0.146622	-0.788569	0.295708	-0.140282	-0.035655	0.989469	-0.670274	0.738955	-0.068400	-0.728734	-0.672811	-0.127561
13223	9.769140	-1.775350	-1.571594	-0.082878	-0.784861	0.268163	-0.147761	-0.038978	0.988255	-0.669289	0.739611	-0.070899	-0.728161	-0.671905	-0.135373
13224	9.704125	-1.425044	-1.376029	-0.006039	-0.744709	0.235333	-0.154751	-0.042276	0.987049	-0.668889	0.739751	-0.073186	-0.727076	-0.671551	-0.142755
13225	9.618519	-1.276215	-1.583586	0.019231	-0.728681	0.225036	-0.161515	-0.045532	0.985819	-0.668679	0.739720	-0.075390	-0.725797	-0.671373	-0.149922
13226	9.534027	-0.908593	-1.397748	0.012171	-0.738307	0.212723	-0.168289	-0.048950	0.984522	-0.668417	0.739741	-0.077476	-0.724499	-0.671109	-0.157209
13227	9.582813	-1.002884	-1.376027	0.001442	-0.745196	0.193537	-0.174941	-0.052546	0.983176	-0.668102	0.739828	-0.079339	-0.723212	-0.670741	-0.164532
13228	9.509044	-0.922470	-1.319105	0.046631	-0.743284	0.172521	-0.181461	-0.056290	0.981786	-0.668132	0.739611	-0.081084	-0.721575	-0.670677	-0.171820
13229	9.400351	-0.681229	-1.196189	0.069880	-0.743015	0.164209	-0.187878	-0.060087	0.980353	-0.668340	0.739236	-0.082774	-0.719738	-0.670760	-0.179045
13230	9.381709	-0.409878	-1.004480	0.032510	-0.764920	0.163493	-0.194467	-0.064043	0.978816	-0.668263	0.739121	-0.084408	-0.718057	-0.670522	-0.186532
13231	9.391199	-0.653368	-1.055346	-0.028544	-0.775807	0.153549	-0.201023	-0.068135	0.977214	-0.667763	0.739411	-0.085812	-0.716716	-0.669797	-0.194137
13232	9.464620	-0.879547	-1.384999	-0.054529	-0.772454	0.142863	-0.207505	-0.072283	0.975560	-0.667084	0.739877	-0.087071	-0.715501	-0.668848	-0.201747
13233	9.418520	-1.008415	-1.810516	-0.043717	-0.759291	0.151487	-0.213908	-0.076264	0.973872	-0.666460	0.740279	-0.088414	-0.714195	-0.667960	-0.209179
13234	9.387990	-0.980997	-2.024648	-0.073535	-0.760724	0.155439	-0.220368	-0.080224	0.972112	-0.665602	0.740891	-0.089743	-0.713030	-0.666817	-0.216666
13235	9.331079	-1.096354	-2.390533	-0.079183	-0.758894	0.161652	-0.226815	-0.084109	0.970299	-0.664686	0.741549	-0.091095	-0.711862	-0.665606	-0.224101
13236	9.322948	-1.057303	-2.473442	-0.071080	-0.753124	0.154952	-0.233197	-0.088002	0.968439	-0.663829	0.742154	-0.092408	-0.710599	-0.664427	-0.231486
13237	9.349510	-1.296497	-2.586560	-0.059475	-0.750086	0.147208	-0.239464	-0.091916	0.966545	-0.663068	0.742678	-0.093649	-0.709224	-0.663310	-0.238791
13238	9.344623	-1.452545	-2.768387	-0.024109	-0.742514	0.140415	-0.245651	-0.095829	0.964610	-0.662562	0.742968	-0.094920	-0.707578	-0.662431	-0.246003
13239	9.179783	-1.671506	-2.624980	0.027130	-0.751287	0.140629	-0.251856	-0.099787	0.962606	-0.662414	0.742923	-0.096300	-0.705533	-0.661898	-0.253210
13240	9.072791	-1.811486	-2.223929	0.126054	-0.784862	0.141894	-0.258320	-0.103962	0.960449	-0.662946	0.742230	-0.097963	-0.702690	-0.662032	-0.260654
13241	9.151683	-1.825084	-1.889635	0.231255	-0.818019	0.130538	-0.264885	-0.108441	0.958163	-0.664236	0.740833	-0.099784	-0.699019	-0.662878	-0.268266
13242	9.345776	-1.439950	-1.612252	0.359104	-0.831942	0.126394	-0.271519	-0.113059	0.955769	-0.666407	0.738585	-0.101947	-0.694391	-0.664612	-0.275884
13243	9.285760	-1.357853	-1.553406	0.361906	-0.877549	0.136050	-0.278465	-0.117923	0.953180	-0.668548	0.736330	-0.104216	-0.689565	-0.666267	-0.283880
13244	9.389894	-1.088712	-1.707860	0.393694	-0.918466	0.136302	-0.285683	-0.123079	0.950388	-0.670879	0.733861	-0.106626	-0.684329	-0.668056	-0.292223
13245	9.327006	-0.859452	-1.714174	0.383338	-0.966981	0.150905	-0.293254	-0.128469	0.947364	-0.673067	0.731483	-0.109152	-0.678957	-0.669648	-0.300978
13246	9.402046	-0.806715	-1.840222	0.332575	-1.014921	0.151601	-0.301134	-0.134192	0.944093	-0.674878	0.729445	-0.111581	-0.673690	-0.670748	-0.310224
13247	9.498728	-0.701961	-2.018842	0.275755	-1.049647	0.146665	-0.309135	-0.140194	0.940628	-0.676293	0.727790	-0.113790	-0.668628	-0.671317	-0.319798
13248	9.429125	-0.874427	-2.209329	0.194191	-1.086304	0.150646	-0.317384	-0.146418	0.936925	-0.677129	0.726694	-0.115813	-0.663901	-0.671176	-0.329785
13249	9.429110	-0.988384	-2.466986	0.166743	-1.118939	0.153875	-0.325794	-0.152836	0.933006	-0.677750	0.725800	-0.117769	-0.659176	-0.670713	-0.340046
13250	9.425658	-0.749526	-2.382019	0.097742	-1.158171	0.158083	-0.334464	-0.159478	0.928817	-0.677885	0.725381	-0.119557	-0.654679	-0.669619	-0.350722
13251	9.852922	-0.597715	-2.324266	0.036919	-1.204696	0.161162	-0.343383	-0.166392	0.924339	-0.677594	0.725390	-0.121140	-0.650350	-0.667924	-0.361833
13252	9.792280	-0.311650	-1.984851	-0.013677	-1.239165	0.159239	-0.352482	-0.173527	0.919589	-0.676967	0.725741	-0.122537	-0.646120	-0.665724	-0.373283
13253	9.353993	-0.929111	-1.852583	-0.124703	-1.311812	0.169194	-0.362043	-0.181037	0.914413	-0.675575	0.726862	-0.123574	-0.642280	-0.662493	-0.385459
13254	9.300505	-1.412731	-1.626093	-0.136468	-1.387716	0.145439	-0.371894	-0.189175	0.908795	-0.674185	0.728020	-0.124343	-0.638098	-0.658939	-0.398285
13255	9.845647	-1.848530	-1.657164	-0.141527	-1.466488	0.110730	-0.381930	-0.198030	0.902726	-0.672884	0.729156	-0.124732	-0.633528	-0.655069	-0.411738
13256	10.534164	-1.697764	-1.712385	-0.085888	-1.533745	0.087735	-0.392178	-0.207433	0.896197	-0.672025	0.729878	-0.125142	-0.628156	-0.651344	-0.425642
13257	11.116949	-0.990701	-2.141091	-0.074215	-1.598514	0.079353	-0.402671	-0.217262	0.889187	-0.671262	0.730520	-0.125489	-0.622305	-0.647408	-0.439999
13258	11.207382	0.118228	-2.347509	-0.132503	-1.640590	0.090414	-0.413417	-0.227208	0.881738	-0.670098	0.731555	-0.125678	-0.616486	-0.642809	-0.454689
13259	10.878291	1.070569	-2.468481	-0.323286	-1.692393	0.102064	-0.424458	-0.237313	0.873795	-0.667703	0.733851	-0.125040	-0.611562	-0.636510	-0.469944
13260	10.726913	1.386936	-2.248312	-0.603002	-1.767549	0.098448	-0.435865	-0.247786	0.865231	-0.663631	0.737880	-0.122992	-0.607961	-0.627802	-0.486054
13261	10.850256	1.212389	-1.966825	-0.877621	-1.818085	0.074919	-0.447359	-0.258572	0.856160	-0.657992	0.743521	-0.119259	-0.605735	-0.616699	-0.502760
13262	11.192986	0.997857	-1.786236	-1.091576	-1.831821	0.050941	-0.458746	-0.269394	0.846746	-0.651185	0.750294	-0.114089	-0.604574	-0.603726	-0.519620
13263	11.149577	0.736241	-1.623727	-1.300188	-1.829197	0.046254	-0.470071	-0.279982	0.837044	-0.643130	0.758163	-0.107574	-0.604498	-0.588896	-0.536456
13264	11.173229	0.165575	-1.718110	-1.410552	-1.840173	0.032737	-0.481368	-0.290446	0.826998	-0.634478	0.766427	-0.100135	-0.604750	-0.572914	-0.553215
13265	11.275267	-0.077445	-1.624998	-1.361784	-1.764173	-0.013583	-0.491919	-0.300550	0.817120	-0.626329	0.774070	-0.092345	-0.604754	-0.557212	-0.569023
13266	10.930365	-0.323765	-1.884534	-1.398091	-1.722803	-0.020610	-0.502166	-0.310195	0.807222	-0.618013	0.781658	-0.084089	-0.604888	-0.541101	-0.584227
13267	10.792838	-0.496473	-2.239311	-1.386113	-1.706986	-0.031766	-0.512264	-0.319573	0.797156	-0.609812	0.788933	-0.075597	-0.604744	-0.524841	-0.599021
13268	10.899248	-0.731987	-2.849790	-1.371533	-1.682248	-0.057186	-0.522037	-0.328742	0.787023	-0.601858	0.795804	-0.066806	-0.604354	-0.508551	-0.613295
13269	11.038640	-0.855138	-3.554969	-1.303918	-1.570167	-0.058388	-0.531143	-0.337103	0.777334	-0.594310	0.802125	-0.058232	-0.603889	-0.492907	-0.626387
13270	10.875258	-0.355073	-4.569660	-1.384130	-1.566192	-0.008436	-0.540494	-0.344786	0.767456	-0.586045	0.808772	-0.049385	-0.603669	-0.476457	-0.639197
13271	11.040815	-0.525775	-5.355929	-1.442807	-1.590681	0.039449	-0.550294	-0.351940	0.757176	-0.577145	0.815645	-0.040337	-0.603390	-0.459198	-0.651965
13272	10.875424	-0.605800	-6.134267	-1.349993	-1.548118	0.110648	-0.560204	-0.358040	0.746980	-0.568441	0.822091	-0.032266	-0.602533	-0.442690	-0.664063
13273	10.057965	-0.425057	-7.053606	-1.356668	-1.543851	0.169317	-0.570423	-0.363381	0.736595	-0.559341	0.828579	-0.024399	-0.601461	-0.425925	-0.675894
13274	9.308911	-0.471379	-7.782757	-1.313736	-1.516522	0.229236	-0.580745	-0.367835	0.726245	-0.550182	0.834869	-0.017104	-0.600029	-0.409500	-0.687223
13275	8.260842	-0.540897	-8.194145	-1.217438	-1.446149	0.270669	-0.590858	-0.371411	0.716199	-0.541328	0.840745	-0.010592	-0.598206	-0.393957	-0.697816
13276	7.463365	-0.620201	-8.664335	-1.116770	-1.318494	0.288501	-0.600223	-0.374106	0.706949	-0.532994	0.846106	-0.004784	-0.596363	-0.379671	-0.707249
13277	6.243600	-0.357903	-8.866004	-0.960180	-1.128669	0.318179	-0.608601	-0.375657	0.698919	-0.525379	0.850869	-0.000160	-0.594628	-0.367294	-0.715201
13278	5.298553	-0.074911	-9.331676	-0.971692	-0.949215	0.357335	-0.616048	-0.376068	0.692140	-0.517471	0.855690	0.004350	-0.593893	-0.355483	-0.721750
13279	5.234969	-0.436871	-9.076150	-1.017213	-0.788390	0.314912	-0.622322	-0.376158	0.686456	-0.509505	0.860415	0.009579	-0.594240	-0.343791	-0.727109
13280	5.178517	-2.419999	-9.320181	-0.925083	-0.511032	0.226334	-0.626455	-0.375970	0.682789	-0.502641	0.864369	0.014784	-0.595740	-0.333936	-0.730466
13281	5.339486	-4.123577	-9.120391	-0.234258	-0.289941	0.181563	-0.629065	-0.375398	0.680701	-0.500134	0.865813	0.015291	-0.595100	-0.330822	-0.732402
13282	6.401410	-3.747553	-7.376677	0.786248	0.055343	0.131614	-0.629348	-0.374108	0.681149	-0.504028	0.863644	0.008643	-0.591504	-0.337879	-0.732093
13283	6.401930	-2.412190	-6.402458	1.454411	0.566086	0.119799	-0.626592	-0.371157	0.685292	-0.511878	0.859054	-0.002765	-0.587676	-0.352518	-0.728263
13284	5.547534	-0.810098	-5.928911	1.438064	1.041771	0.113230	-0.621008	-0.366462	0.692860	-0.519679	0.854247	-0.013965	-0.586756	-0.368737	-0.720937
13285	5.186018	-0.229049	-6.585780	1.165086	1.424855	0.087046	-0.613055	-0.360393	0.703050	-0.526021	0.850164	-0.022882	-0.589462	-0.383847	-0.710772
13286	5.258457	-0.374951	-7.168626	0.943982	1.699316	0.027580	-0.603089	-0.353545	0.715045	-0.531505	0.846533	-0.029728	-0.594800	-0.397978	-0.698446
13287	5.853954	-0.647391	-7.294976	0.946409	1.934851	-0.060856	-0.591163	-0.346250	0.728448	-0.537554	0.842469	-0.035798	-0.601300	-0.412743	-0.684165
13288	6.402000	-0.584393	-7.088503	0.985135	2.152980	-0.152919	-0.577263	-0.338506	0.743089	-0.544467	0.837764	-0.041331	-0.608542	-0.428446	-0.667915
13289	6.867089	-0.436297	-6.815879	0.971946	2.398783	-0.237450	-0.561234	-0.330051	0.759001	-0.551798	0.832713	-0.045916	-0.616875	-0.444585	-0.649469
13290	6.971577	-0.376819	-6.689597	0.886936	2.644113	-0.306414	-0.543045	-0.320651	0.776070	-0.559062	0.827663	-0.049228	-0.626540	-0.460604	-0.628722
13291	7.235951	-0.425828	-6.648721	0.811813	2.869938	-0.362703	-0.522838	-0.310231	0.793976	-0.566148	0.822702	-0.051356	-0.637273	-0.476359	-0.605777
13292	7.351388	-0.405811	-6.724117	0.758478	3.058660	-0.426408	-0.500695	-0.298940	0.812367	-0.573262	0.817694	-0.052425	-0.648595	-0.491947	-0.580785
13293	7.903370	-0.618652	-7.819711	0.583851	3.112660	-0.481178	-0.477516	-0.287366	0.830301	-0.579458	0.813357	-0.051751	-0.660460	-0.505836	-0.554908
13294	9.766073	0.229003	-5.239835	0.991185	3.072868	-0.501547	-0.454114	-0.275645	0.847231	-0.588434	0.806813	-0.052904	-0.668974	-0.522564	-0.528584
13295	8.725845	1.002382	-4.949587	0.826507	3.203524	-0.505693	-0.429506	-0.262755	0.863993	-0.596255	0.801058	-0.052793	-0.678237	-0.537835	-0.500728
13296	9.010147	1.009764	-5.463444	0.563601	3.216721	-0.530107	-0.404302	-0.249497	0.879938	-0.602362	0.796599	-0.050899	-0.688258	-0.550620	-0.472354
13297	8.782177	1.491216	-4.921733	0.463537	3.233531	-0.561969	-0.378453	-0.236001	0.895029	-0.607792	0.792645	-0.047994	-0.698113	-0.562154	-0.443419
13298	8.752011	1.527631	-4.543031	0.178133	3.192068	-0.570338	-0.352476	-0.222442	0.909000	-0.611170	0.790298	-0.043594	-0.708684	-0.570919	-0.414511
13299	8.860529	0.494693	-4.617873	0.108618	3.235126	-0.593660	-0.325711	-0.208561	0.922179	-0.613973	0.788385	-0.038551	-0.718992	-0.578749	-0.384836
13300	8.711218	-0.534012	-4.866145	0.331853	3.258393	-0.617152	-0.298300	-0.194419	0.934462	-0.618333	0.785179	-0.034025	-0.727105	-0.587958	-0.354434
13301	8.890933	-0.695750	-4.498940	0.683444	3.290942	-0.631507	-0.270325	-0.179851	0.945821	-0.625128	0.779932	-0.030361	-0.732215	-0.599467	-0.323265
13302	8.951512	-0.477600	-4.189204	0.889370	3.348272	-0.643143	-0.241665	-0.164570	0.956303	-0.633332	0.773411	-0.026952	-0.735179	-0.612170	-0.291134
13303	9.181321	-0.497661	-3.960835	1.051991	3.348050	-0.662046	-0.212775	-0.148974	0.965678	-0.642585	0.765856	-0.023438	-0.736078	-0.625517	-0.258683
13304	9.408576	-0.200788	-3.321229	1.234093	3.349658	-0.680454	-0.183688	-0.132972	0.973949	-0.653038	0.757066	-0.019803	-0.734711	-0.639664	-0.225900
13305	9.343858	0.086307	-2.773463	1.305028	3.322843	-0.697722	-0.154693	-0.116761	0.981039	-0.663795	0.747750	-0.015674	-0.731742	-0.653634	-0.193177
13306	9.310390	0.597407	-2.131299	1.268979	3.286220	-0.718782	-0.125857	-0.100413	0.986953	-0.674089	0.738571	-0.010818	-0.727849	-0.666656	-0.160642
13307	9.188538	0.821119	-1.705904	1.095228	3.234133	-0.736133	-0.097347	-0.084107	0.991690	-0.682866	0.730526	-0.005074	-0.724028	-0.677686	-0.128548
13308	9.325637	1.318387	-1.815666	0.901972	3.205928	-0.744311	-0.069038	-0.067653	0.995317	-0.690020	0.723789	0.001336	-0.720490	-0.686696	-0.096651
13309	9.395237	1.333486	-1.598977	0.612515	3.121822	-0.732932	-0.041471	-0.051431	0.997815	-0.694832	0.719125	0.008188	-0.717975	-0.692975	-0.065559
13310	9.524936	0.869577	-1.588839	0.448658	3.044655	-0.701937	-0.014713	-0.035304	0.999268	-0.698260	0.715687	0.015005	-0.715693	-0.697528	-0.035181
13311	9.487046	0.786240	-1.289647	0.355383	2.933198	-0.658891	0.010892	-0.019527	0.999750	-0.700811	0.713021	0.021562	-0.713264	-0.700871	-0.005919
13312	9.757335	0.867648	-0.930391	0.291468	2.802181	-0.602627	0.035113	-0.004152	0.999375	-0.702757	0.710893	0.027645	-0.710563	-0.703288	0.022044
13313	10.214929	1.091549	0.831189	0.261323	2.643519	-0.547856	0.057748	0.010548	0.998275	-0.704353	0.709071	0.033253	-0.707497	-0.705059	0.048377
13314	9.159983	1.058511	-0.019398	-0.027434	2.427445	-0.434053	0.078003	0.024569	0.996650	-0.703871	0.709332	0.037603	-0.706032	-0.704446	0.072623
13315	8.671642	1.168346	-0.216199	-0.219453	2.088589	-0.314329	0.094993	0.037001	0.994790	-0.702045	0.710975	0.040594	-0.705768	-0.702244	0.093514
13316	8.561248	0.408641	-0.118737	-0.446998	1.775304	-0.240920	0.109262	0.047704	0.992868	-0.698644	0.714202	0.042569	-0.707077	-0.698313	0.111364
13317	8.205623	-0.406088	-0.787989	-0.559685	1.524657	-0.180916	0.121356	0.056993	0.990972	-0.694467	0.718194	0.043740	-0.709217	-0.693505	0.126737
13318	7.825324	-0.324561	-1.181297	-0.599546	1.259384	-0.124801	0.131206	0.064782	0.989236	-0.690051	0.722409	0.044215	-0.711769	-0.688424	0.139487
13319	7.535066	-0.192915	-1.636657	-0.730783	0.993139	-0.073267	0.138832	0.071032	0.987765	-0.684730	0.727472	0.043927	-0.715451	-0.682451	0.149634
13320	7.301423	-0.049885	-2.161258	-0.867306	0.762992	-0.000515	0.144347	0.076192	0.986589	-0.678502	0.733360	0.042636	-0.720277	-0.675558	0.157555
13321	6.884051	-0.267826	-2.373368	-0.994035	0.524989	0.071808	0.147695	0.080220	0.985774	-0.671411	0.739985	0.040377	-0.726219	-0.667823	0.163152
13322	6.569235	-0.778059	-3.011911	-1.006377	0.321317	0.123092	0.149246	0.083245	0.985290	-0.664250	0.746567	0.037540	-0.732460	-0.660082	0.166718
13323	6.189091	-1.172976	-3.359295	-0.918182	0.086974	0.155925	0.148889	0.084957	0.985198	-0.657723	0.752469	0.034511	-0.738399	-0.653125	0.167913
13324	5.958179	-1.787424	-3.483437	-0.737356	-0.151907	0.169013	0.146679	0.085218	0.985507	-0.652504	0.757124	0.031647	-0.743454	-0.647689	0.166659
13325	6.007241	-2.304795	-3.749460	-0.418168	-0.392009	0.178078	0.142633	0.084006	0.986204	-0.649639	0.759680	0.029246	-0.746743	-0.644848	0.162929
13326	6.838399	-2.794567	-3.232875	-0.045232	-0.711686	0.210132	0.135964	0.080982	0.987399	-0.649587	0.759803	0.027132	-0.748031	-0.645090	0.155910
13327	11.855393	-2.938069	-0.020122	0.551163	-0.998322	0.211946	0.127160	0.076095	0.988959	-0.653976	0.756071	0.025912	-0.745752	-0.650051	0.145906
13328	16.504770	-1.628097	4.715789	1.452018	-0.799671	0.074719	0.120745	0.071383	0.990114	-0.664831	0.746496	0.027257	-0.737170	-0.661550	0.137594
13329	16.325585	-0.563348	6.221462	1.651922	-0.825559	0.091804	0.114120	0.066521	0.991237	-0.677027	0.735402	0.028593	-0.727056	-0.674358	0.128961
13330	13.805043	1.636297	3.750514	1.452159	-1.061946	0.371789	0.103918	0.061995	0.992652	-0.687929	0.725286	0.026720	-0.718300	-0.685651	0.118018
13331	11.166148	4.721264	1.051724	1.130596	-1.367540	0.701939	0.089315	0.057593	0.994337	-0.696687	0.717067	0.021046	-0.711794	-0.694621	0.104169
13332	9.210604	7.050606	-0.266498	0.512582	-1.487602	0.790791	0.073233	0.052858	0.995913	-0.700971	0.713058	0.013700	-0.709419	-0.699110	0.089271
13333	8.968637	5.170336	-1.647145	-0.456909	-1.496634	0.749979	0.057374	0.047745	0.997210	-0.698207	0.715872	0.005896	-0.713594	-0.696597	0.074408
13334	8.730932	1.185576	-2.790192	-1.005583	-1.372817	0.657786	0.042975	0.042923	0.998154	-0.691314	0.722553	-0.001307	-0.721275	-0.689982	0.060725
13335	9.216928	-1.650572	-3.275755	-1.109347	-1.298310	0.570302	0.029673	0.038128	0.998832	-0.683472	0.729937	-0.007559	-0.729373	-0.682450	0.047719
13336	9.904626	-3.404962	-3.746647	-1.057903	-1.232295	0.535398	0.017016	0.033649	0.999289	-0.675832	0.736936	-0.013307	-0.736860	-0.675124	0.035281
13337	10.030888	-4.835624	-4.092689	-0.661926	-1.154981	0.479220	0.005287	0.029392	0.999554	-0.670991	0.741241	-0.018247	-0.741447	-0.670595	0.023640
13338	9.736887	-4.595801	-3.549432	-0.078285	-1.067906	0.393537	-0.005268	0.025109	0.999671	-0.670402	0.741667	-0.022162	-0.741979	-0.670298	0.012926
13339	9.749010	-3.366332	-2.779909	0.297212	-0.991616	0.354317	-0.014960	0.021047	0.999667	-0.672568	0.739591	-0.025636	-0.739884	-0.672727	0.003091
13340	9.865784	-2.073440	-1.934052	0.428389	-0.912765	0.320612	-0.023864	0.017218	0.999567	-0.675662	0.736648	-0.028820	-0.736825	-0.676058	-0.005945
13341	9.760910	-1.385317	-1.711378	0.568936	-0.834849	0.275515	-0.031830	0.013553	0.999401	-0.679767	0.732748	-0.031587	-0.732737	-0.680365	-0.014110
13342	9.687916	-0.098483	-1.015459	0.754369	-0.821750	0.244509	-0.039504	0.009686	0.999172	-0.685181	0.727572	-0.034143	-0.727301	-0.685963	-0.022106
13343	9.878038	0.743222	-0.478230	0.708427	-0.825467	0.263313	-0.047261	0.005884	0.998865	-0.690202	0.722675	-0.036914	-0.722072	-0.691163	-0.030093
13344	9.872312	0.594409	-0.419538	0.523416	-0.804510	0.296654	-0.055113	0.002407	0.998477	-0.693812	0.719042	-0.040030	-0.718044	-0.694962	-0.037959
13345	9.692108	0.344454	-0.469529	0.358529	-0.781241	0.329292	-0.062964	-0.000695	0.998016	-0.696189	0.716544	-0.043423	-0.715092	-0.697542	-0.045600
13346	9.708026	-0.140355	-0.761451	0.245304	-0.775883	0.347067	-0.070928	-0.003671	0.997475	-0.697701	0.714847	-0.046981	-0.712869	-0.699271	-0.053263
13347	9.505292	-0.655765	-1.290109	0.182296	-0.782027	0.358472	-0.078962	-0.006610	0.996856	-0.698733	0.713590	-0.050616	-0.711011	-0.700533	-0.060965
13348	9.495332	-0.699736	-1.341429	0.227347	-0.816141	0.363839	-0.087306	-0.009781	0.996134	-0.700037	0.712034	-0.054363	-0.708749	-0.702077	-0.069012
13349	9.675576	-0.672149	-1.091893	0.196349	-0.833860	0.362584	-0.095711	-0.013088	0.995323	-0.701098	0.710696	-0.058073	-0.706612	-0.703378	-0.077197
13350	9.732517	-0.655108	-1.163988	0.199994	-0.811230	0.368136	-0.104023	-0.016227	0.994443	-0.702135	0.709351	-0.061872	-0.704405	-0.704669	-0.085182
13351	9.653713	-0.453477	-1.262976	0.104348	-0.800623	0.387037	-0.112338	-0.019152	0.993485	-0.702455	0.708683	-0.065768	-0.702807	-0.705267	-0.093066
13352	9.712342	-0.632329	-1.521226	0.015351	-0.789008	0.392476	-0.120642	-0.021977	0.992453	-0.702098	0.708665	-0.069654	-0.701786	-0.705203	-0.100925
13353	9.655620	-0.928393	-1.564277	-0.066467	-0.781437	0.388108	-0.128811	-0.024760	0.991360	-0.701153	0.709224	-0.073390	-0.701279	-0.704548	-0.108716
13354	9.669015	-1.177345	-1.683423	-0.097485	-0.776387	0.376072	-0.136896	-0.027599	0.990201	-0.699963	0.710018	-0.076980	-0.700936	-0.703642	-0.116517
13355	9.635344	-1.173155	-1.667052	-0.131523	-0.760019	0.358197	-0.144691	-0.030423	0.989009	-0.698542	0.711046	-0.080323	-0.700788	-0.702487	-0.124134
13356	9.594678	-1.189061	-1.654656	-0.178746	-0.749696	0.344465	-0.152357	-0.033274	0.987765	-0.696771	0.712420	-0.083474	-0.700926	-0.700964	-0.131727
13357	9.612863	-1.408842	-1.767864	-0.214644	-0.735450	0.321191	-0.159712	-0.036158	0.986501	-0.694772	0.714033	-0.086310	-0.701274	-0.699178	-0.139161
13358	9.578256	-1.478502	-1.850996	-0.211403	-0.716818	0.282717	-0.166710	-0.039184	0.985227	-0.692821	0.715625	-0.088771	-0.701574	-0.697385	-0.146450
13359	9.642880	-1.764730	-2.074299	-0.226298	-0.692530	0.250547	-0.173268	-0.042239	0.983969	-0.690814	0.717301	-0.090855	-0.701964	-0.695482	-0.153464
13360	9.658123	-1.959645	-2.363903	-0.204944	-0.664011	0.215386	-0.179427	-0.045345	0.982726	-0.688990	0.718827	-0.092628	-0.702210	-0.693708	-0.160219
13361	9.506925	-1.954348	-2.524751	-0.124208	-0.631629	0.190570	-0.185137	-0.048379	0.981521	-0.687778	0.719776	-0.094253	-0.701916	-0.692518	-0.166531
13362	9.513858	-1.879258	-2.432610	-0.097465	-0.621349	0.151925	-0.190554	-0.051625	0.980318	-0.686804	0.720534	-0.095556	-0.701420	-0.691495	-0.172757
13363	9.580850	-1.846038	-2.365711	-0.011633	-0.602675	0.113890	-0.195525	-0.054997	0.979155	-0.686510	0.720674	-0.096608	-0.700338	-0.691090	-0.178666
13364	9.625012	-1.650362	-2.132887	0.072655	-0.590559	0.092741	-0.200307	-0.058451	0.977988	-0.686831	0.720231	-0.097628	-0.698670	-0.691268	-0.184414
13365	9.342858	-0.961683	-1.684425	0.145566	-0.582341	0.073569	-0.204840	-0.061976	0.976831	-0.687705	0.719266	-0.098576	-0.696493	-0.691965	-0.189956
13366	9.520391	-0.652161	-1.208641	0.058556	-0.606663	0.070082	-0.209557	-0.065710	0.975586	-0.687964	0.718912	-0.099354	-0.694832	-0.691988	-0.195859
13367	9.517827	-0.820658	-1.028988	0.008888	-0.603577	0.070486	-0.214197	-0.069405	0.974322	-0.687885	0.718896	-0.100016	-0.693494	-0.691644	-0.201728
13368	9.244624	-0.900425	-0.855541	-0.015037	-0.622454	0.066412	-0.218980	-0.073270	0.972975	-0.687634	0.719052	-0.100612	-0.692248	-0.691083	-0.207841
13369	9.287085	-0.964744	-0.735119	-0.069523	-0.655340	0.066508	-0.223935	-0.077344	0.971530	-0.687015	0.719580	-0.101069	-0.691277	-0.690089	-0.214275
13370	9.253412	-1.102830	-0.753716	-0.068297	-0.681697	0.066606	-0.229113	-0.081602	0.969973	-0.686392	0.720107	-0.101548	-0.690198	-0.689048	-0.220997
13371	9.176498	-0.983441	-0.758113	-0.104153	-0.719133	0.074721	-0.234550	-0.086041	0.968289	-0.685510	0.720884	-0.101995	-0.689248	-0.687694	-0.228065
13372	9.290649	-1.136786	-1.017258	-0.112146	-0.745111	0.075386	-0.240208	-0.090651	0.966479	-0.684559	0.721723	-0.102446	-0.688243	-0.686221	-0.235420
13373	9.280739	-0.994723	-1.414118	-0.108725	-0.772995	0.073915	-0.245995	-0.095443	0.964561	-0.683642	0.722533	-0.102857	-0.687110	-0.684716	-0.242988
13374	9.230571	-1.366716	-1.867849	-0.148316	-0.794969	0.079680	-0.252006	-0.100337	0.962510	-0.682428	0.723626	-0.103240	-0.686138	-0.682860	-0.250831
13375	9.123810	-1.502171	-2.175040	-0.133928	-0.816611	0.073745	-0.258072	-0.105399	0.960359	-0.681332	0.724611	-0.103565	-0.684971	-0.681051	-0.258813
13376	9.220989	-1.886876	-2.635896	-0.131068	-0.823838	0.068420	-0.264184	-0.110539	0.958117	-0.680260	0.725575	-0.103859	-0.683705	-0.679207	-0.266881
13377	9.212971	-1.982973	-3.102197	-0.069728	-0.810554	0.053644	-0.270049	-0.115676	0.955873	-0.679652	0.726105	-0.104141	-0.682017	-0.677784	-0.274703
13378	9.002020	-1.662660	-3.029650	-0.011106	-0.816895	0.054550	-0.275991	-0.120845	0.953533	-0.679432	0.726242	-0.104616	-0.679853	-0.676734	-0.282543
13379	9.084507	-1.985639	-2.818386	-0.038419	-0.853579	0.042237	-0.282037	-0.126336	0.951049	-0.679065	0.726549	-0.104865	-0.677736	-0.675400	-0.290704
13380	9.502184	-2.197717	-2.829468	0.041929	-0.859548	0.006797	-0.287907	-0.132121	0.948501	-0.679336	0.726271	-0.105040	-0.674991	-0.674592	-0.298853
13381	9.488734	-1.951666	-2.662929	0.149243	-0.872255	-0.009416	-0.293681	-0.138100	0.945875	-0.680380	0.725246	-0.105361	-0.671443	-0.674497	-0.306951
13382	9.496430	-1.410914	-2.841135	0.212229	-0.893811	-0.005407	-0.299637	-0.144199	0.943093	-0.681824	0.723801	-0.105958	-0.667333	-0.674773	-0.315197
13383	9.416473	-0.952663	-2.962658	0.218159	-0.912535	0.000844	-0.305678	-0.150379	0.940185	-0.683286	0.722324	-0.106621	-0.663085	-0.675006	-0.323551
13384	9.395420	-0.944245	-2.990425	0.204862	-0.945567	-0.002877	-0.311918	-0.156812	0.937079	-0.684657	0.720931	-0.107254	-0.658750	-0.675033	-0.332234
13385	9.295218	-0.948476	-3.048728	0.213248	-0.974443	-0.030031	-0.318074	-0.163633	0.933838	-0.686165	0.719437	-0.107650	-0.654222	-0.675008	-0.341113
13386	9.441068	-0.937719	-3.041822	0.211359	-1.002142	-0.042155	-0.324326	-0.170729	0.930411	-0.687688	0.717932	-0.107977	-0.649537	-0.674852	-0.350252
13387	9.473429	-0.975490	-2.895956	0.170872	-1.020752	-0.038394	-0.330634	-0.177917	0.926837	-0.688933	0.716706	-0.108185	-0.645021	-0.674299	-0.359540
13388	9.770318	-1.134190	-2.325826	0.129561	-1.074915	-0.050815	-0.337200	-0.185553	0.922966	-0.689946	0.715732	-0.108177	-0.640524	-0.673274	-0.369366
13389	10.259721	-1.779962	-2.356975	0.117156	-1.124196	-0.088685	-0.343727	-0.193775	0.918860	-0.691010	0.714768	-0.107758	-0.635891	-0.671981	-0.379586
13390	10.457148	-1.264301	-2.176425	0.292928	-1.148606	-0.110180	-0.350238	-0.202306	0.914552	-0.693259	0.712571	-0.107865	-0.629861	-0.671800	-0.389820
13391	10.350713	-0.452858	-1.954910	0.309771	-1.223229	-0.092752	-0.357224	-0.211208	0.909825	-0.695543	0.710290	-0.108203	-0.623386	-0.671476	-0.400637
13392	10.642466	0.376394	-1.566271	0.211749	-1.292501	-0.080872	-0.364679	-0.220478	0.904654	-0.697164	0.708681	-0.108320	-0.617229	-0.670194	-0.412150
13393	10.761715	0.733881	-1.001870	0.040073	-1.369827	-0.069676	-0.372577	-0.230159	0.899007	-0.697683	0.708247	-0.107820	-0.611903	-0.667393	-0.424454
13394	10.893950	0.775719	-0.498655	-0.183764	-1.484202	-0.066988	-0.381153	-0.240528	0.892675	-0.696833	0.709295	-0.106415	-0.607574	-0.662606	-0.437958
13395	11.206617	1.057499	-0.223509	-0.341738	-1.568367	-0.083481	-0.390037	-0.251490	0.885790	-0.695101	0.711334	-0.104112	-0.603909	-0.656321	-0.452258
13396	11.385110	1.526174	0.218422	-0.501558	-1.603903	-0.116961	-0.398874	-0.262812	0.878538	-0.692562	0.714287	-0.100761	-0.601047	-0.648633	-0.466924
13397	10.873248	1.338466	0.402363	-0.781549	-1.670744	-0.098335	-0.408192	-0.274296	0.870713	-0.688283	0.719041	-0.096153	-0.599704	-0.638546	-0.482300
13398	11.065048	0.685425	0.012427	-1.008123	-1.736048	-0.092003	-0.417945	-0.285962	0.862292	-0.682645	0.725138	-0.090394	-0.599431	-0.626419	-0.498278
13399	11.068212	0.459372	-0.576740	-1.118128	-1.728068	-0.083773	-0.427703	-0.297311	0.853625	-0.676313	0.731812	-0.083978	-0.599726	-0.613235	-0.514073
13400	10.981359	0.595225	-1.099839	-1.183538	-1.714374	-0.078050	-0.437431	-0.308298	0.844752	-0.669580	0.738726	-0.077119	-0.600265	-0.599363	-0.529571
13401	10.947662	0.471457	-1.651632	-1.174038	-1.678863	-0.100794	-0.446807	-0.319020	0.835817	-0.662994	0.745351	-0.069929	-0.600669	-0.585387	-0.544536
13402	10.722702	0.405697	-2.113052	-1.174341	-1.640223	-0.102240	-0.455946	-0.329290	0.826850	-0.656434	0.751783	-0.062580	-0.601005	-0.571306	-0.558930
13403	10.582549	0.278584	-2.842108	-1.233821	-1.659153	-0.104513	-0.465206	-0.339464	0.817525	-0.649517	0.758377	-0.054699	-0.601424	-0.556443	-0.573289
13404	10.582272	0.215639	-3.712409	-1.284272	-1.654592	-0.070979	-0.474656	-0.349102	0.807979	-0.642161	0.765149	-0.046648	-0.601939	-0.540994	-0.587362
13405	10.559311	0.223740	-4.355509	-1.347972	-1.674868	-0.015957	-0.484608	-0.358179	0.798036	-0.634140	0.772260	-0.038472	-0.602512	-0.524711	-0.601380
13406	10.556508	0.043197	-5.071298	-1.406531	-1.672020	0.054370	-0.494979	-0.366408	0.787871	-0.625435	0.779686	-0.030327	-0.603180	-0.507774	-0.615093
13407	10.324941	-0.082487	-5.791234	-1.371866	-1.648562	0.122546	-0.505655	-0.373711	0.777594	-0.616567	0.786975	-0.022722	-0.603456	-0.490928	-0.628356
13408	10.005666	-0.147030	-6.447966	-1.357927	-1.628921	0.194069	-0.516619	-0.380057	0.767243	-0.607423	0.794225	-0.015582	-0.603442	-0.474091	-0.641167
13409	9.265334	-0.252691	-7.289853	-1.359737	-1.597159	0.252892	-0.527749	-0.385508	0.756878	-0.597921	0.801508	-0.008673	-0.603301	-0.457130	-0.653498
13410	8.546085	-0.429515	-7.828922	-1.327782	-1.575349	0.279519	-0.538853	-0.390349	0.746502	-0.588468	0.808518	-0.002001	-0.602780	-0.440370	-0.665380
13411	7.872873	-0.682762	-8.346191	-1.185593	-1.467372	0.298488	-0.549404	-0.394307	0.736666	-0.579726	0.814803	0.003772	-0.601725	-0.424992	-0.676246
13412	6.909250	-0.651876	-8.686380	-1.017865	-1.359796	0.334899	-0.559451	-0.397279	0.727450	-0.571799	0.820352	0.008269	-0.600050	-0.411330	-0.686110
13413	6.358789	-0.594683	-8.945265	-0.850555	-1.243478	0.353417	-0.568878	-0.399445	0.718903	-0.564735	0.825190	0.011619	-0.597873	-0.399380	-0.695013
13414	6.052433	-0.768699	-8.875402	-0.750639	-1.066896	0.306191	-0.576917	-0.401143	0.711513	-0.558547	0.829343	0.014687	-0.595980	-0.388940	-0.702520
13415	6.084530	-1.920166	-8.613905	-0.665162	-0.770956	0.196776	-0.582574	-0.402507	0.706113	-0.553469	0.832675	0.018015	-0.595213	-0.380317	-0.707870
13416	6.499696	-3.611587	-8.508220	-0.295675	-0.440908	0.111015	-0.585765	-0.403276	0.703028	-0.551110	0.834209	0.019339	-0.594271	-0.376117	-0.710899
13417	7.017829	-3.558458	-7.266095	0.487154	-0.090321	0.037408	-0.586478	-0.403340	0.702397	-0.553803	0.832501	0.015643	-0.591055	-0.379815	-0.711614
13418	7.079160	-2.572634	-6.417925	1.073461	0.318156	-0.002152	-0.584548	-0.402159	0.704679	-0.560190	0.828325	0.008032	-0.586933	-0.390059	-0.709481
13419	6.625110	-1.176054	-6.286491	1.251335	0.699929	-0.002910	-0.580405	-0.399440	0.709633	-0.567558	0.823333	-0.000763	-0.583959	-0.403201	-0.704571
13420	6.329883	-0.855040	-6.554420	1.195688	1.006196	-0.033588	-0.574297	-0.395612	0.716710	-0.574783	0.818257	-0.008907	-0.582930	-0.417068	-0.697314
13421	6.546293	-0.657953	-6.558101	1.192544	1.281398	-0.104005	-0.566193	-0.391054	0.725604	-0.582355	0.812769	-0.016384	-0.583342	-0.431836	-0.687917
13422	6.861484	-0.575955	-6.360034	1.160674	1.504844	-0.197371	-0.556201	-0.386060	0.735934	-0.590297	0.806862	-0.022863	-0.584971	-0.447136	-0.676668
13423	7.158543	-0.474903	-6.069459	1.121979	1.733673	-0.301535	-0.544211	-0.380628	0.747634	-0.598559	0.800585	-0.028112	-0.587845	-0.462802	-0.663515
13424	7.266142	-0.298852	-6.093544	1.018575	1.965370	-0.402861	-0.530141	-0.374610	0.760670	-0.606786	0.794231	-0.031755	-0.592251	-0.478399	-0.648362
13425	7.313622	-0.320949	-6.302377	0.869852	2.212465	-0.493358	-0.513923	-0.367793	0.774991	-0.614563	0.788156	-0.033498	-0.598494	-0.493496	-0.631084
13426	7.430529	-0.404336	-6.536564	0.778206	2.436900	-0.560938	-0.495733	-0.360003	0.790346	-0.622132	0.782176	-0.033942	-0.605971	-0.508526	-0.611720
13427	7.571903	-0.418961	-6.605152	0.780683	2.647905	-0.618017	-0.475679	-0.351177	0.806476	-0.629917	0.775932	-0.033664	-0.613949	-0.524027	-0.590307
13428	7.746700	-0.356054	-6.455231	0.824497	2.833589	-0.677628	-0.453828	-0.341345	0.823119	-0.638209	0.769159	-0.032910	-0.621876	-0.540257	-0.566915
13429	7.878288	-0.319006	-6.295634	0.849484	3.000051	-0.729129	-0.430334	-0.330499	0.839990	-0.646768	0.762035	-0.031519	-0.629685	-0.556842	-0.541686
13430	8.068487	-0.213864	-6.161321	0.863588	3.167076	-0.779065	-0.405153	-0.318511	0.856972	-0.655538	0.754587	-0.029463	-0.637276	-0.573715	-0.514520
13431	8.152953	-0.107767	-6.028800	0.880137	3.311991	-0.814573	-0.378516	-0.305372	0.873770	-0.664388	0.746908	-0.026777	-0.644449	-0.590658	-0.485602
13432	8.258577	0.011966	-5.831189	0.900231	3.435997	-0.848730	-0.350540	-0.291095	0.890160	-0.673353	0.738947	-0.023516	-0.650935	-0.607636	-0.455040
13433	8.525690	0.100848	-5.644131	0.921772	3.528208	-0.877690	-0.321487	-0.275836	0.905848	-0.682344	0.730767	-0.019642	-0.656546	-0.624414	-0.423147
13434	8.566420	0.274239	-5.083845	0.989179	3.613247	-0.902831	-0.291442	-0.259529	0.920710	-0.691663	0.722057	-0.015406	-0.660806	-0.641310	-0.389944
13435	8.585059	0.283995	-4.785226	1.001331	3.671068	-0.921286	-0.260671	-0.242321	0.934522	-0.700851	0.713229	-0.010552	-0.663971	-0.657711	-0.355750
13436	8.799052	0.182187	-4.530605	1.032380	3.733479	-0.941411	-0.229165	-0.224137	0.947231	-0.710053	0.704130	-0.005171	-0.665814	-0.673769	-0.320511
13437	8.879634	0.330648	-4.078219	1.085316	3.786257	-0.958097	-0.197061	-0.205052	0.958708	-0.719333	0.694665	0.000720	-0.666129	-0.689488	-0.284393
13438	8.981193	0.430508	-3.683761	1.050254	3.811221	-0.968339	-0.164640	-0.185174	0.968816	-0.728103	0.685429	0.007276	-0.665402	-0.704200	-0.247674
13439	9.237248	0.717487	-3.429469	1.012761	3.822309	-0.980755	-0.132017	-0.164698	0.977469	-0.736295	0.676505	0.014543	-0.663658	-0.717786	-0.210576
13440	9.377373	0.713977	-3.051611	0.932692	3.807664	-0.969159	-0.099585	-0.143648	0.984606	-0.743617	0.668234	0.022280	-0.661148	-0.729951	-0.173366
13441	9.571788	0.829696	-2.685792	0.835686	3.783382	-0.948408	-0.067505	-0.122154	0.990213	-0.749926	0.660823	0.030396	-0.658069	-0.740534	-0.136216
13442	9.844795	0.814349	-2.541491	0.711157	3.730484	-0.915341	-0.036096	-0.100380	0.994294	-0.755084	0.654487	0.038662	-0.654633	-0.749380	-0.099420
13443	10.030728	0.777643	-2.424346	0.602980	3.666336	-0.871702	-0.005523	-0.078476	0.996901	-0.759202	0.649163	0.046896	-0.650831	-0.756591	-0.063164
13444	10.187522	0.697598	-2.306441	0.508752	3.575485	-0.823546	0.023971	-0.056648	0.998106	-0.762439	0.644727	0.054903	-0.646616	-0.762311	-0.027736
13445	10.643971	1.092757	-2.077961	0.499143	3.462246	-0.744140	0.051996	-0.034974	0.998035	-0.765369	0.640567	0.062321	-0.641488	-0.767106	0.006539
13446	10.791932	1.895274	1.509370	0.374414	3.150285	-0.673405	0.077317	-0.015063	0.996893	-0.767334	0.637509	0.069145	-0.636569	-0.770296	0.037732
13447	9.780813	0.544828	0.940999	0.003658	2.884865	-0.557140	0.099958	0.003590	0.994985	-0.766859	0.637449	0.074740	-0.633984	-0.770484	0.066471
13448	8.870703	-0.050028	0.799633	-0.194087	2.438079	-0.464974	0.118992	0.019388	0.992706	-0.765126	0.638986	0.079233	-0.632789	-0.768974	0.090868
13449	8.904459	-0.018925	1.245757	-0.465533	2.037777	-0.395975	0.134958	0.032463	0.990319	-0.761669	0.642662	0.082732	-0.633755	-0.765461	0.111458
13450	8.397369	0.093585	0.795000	-0.572797	1.694259	-0.323733	0.148199	0.043307	0.988009	-0.757581	0.647148	0.085269	-0.635695	-0.761133	0.128715
13451	7.814035	0.923413	0.263950	-0.635332	1.328358	-0.180757	0.158065	0.052189	0.986049	-0.753249	0.652058	0.086235	-0.638460	-0.756371	0.142379
13452	6.851898	1.622434	0.055171	-0.775726	0.973773	0.013389	0.164228	0.059613	0.984619	-0.748306	0.657888	0.084981	-0.642703	-0.750753	0.152653
13453	6.779013	1.675324	-0.440115	-0.926041	0.710548	0.162556	0.167641	0.065976	0.983638	-0.742589	0.664711	0.081975	-0.648427	-0.744181	0.160426
13454	6.487128	1.550035	-0.805346	-1.021243	0.467454	0.255860	0.168822	0.071142	0.983076	-0.736365	0.672094	0.077817	-0.655184	-0.737040	0.165851
13455	6.308604	1.055802	-0.968948	-1.112529	0.208912	0.343906	0.167715	0.074975	0.982980	-0.729604	0.680004	0.072618	-0.662986	-0.729365	0.168749
13456	6.431904	0.010647	-1.651248	-1.188050	-0.023780	0.421033	0.164523	0.077671	0.983310	-0.722375	0.688297	0.066497	-0.671645	-0.721259	0.169348
13457	6.386086	-1.088401	-2.425322	-1.116001	-0.241089	0.468989	0.159559	0.079162	0.984009	-0.715584	0.695941	0.060046	-0.680059	-0.713723	0.167690
13458	6.219502	-1.921105	-3.450554	-0.821479	-0.432558	0.470108	0.153269	0.079354	0.984993	-0.710705	0.701408	0.054081	-0.686591	-0.708329	0.163901
13459	6.190935	-2.289002	-3.847507	-0.375033	-0.608825	0.417395	0.146152	0.077955	0.986186	-0.708741	0.703736	0.049406	-0.690163	-0.706171	0.158102
13460	6.392834	-2.527427	-4.067700	0.095823	-0.802821	0.335941	0.138235	0.074622	0.987584	-0.709879	0.702803	0.046260	-0.690625	-0.707460	0.150125
13461	7.706748	-2.579717	-3.948621	0.661328	-0.996255	0.232847	0.129750	0.069153	0.989132	-0.714740	0.697943	0.044961	-0.687249	-0.712807	0.139984
13462	11.054421	-1.537049	-0.892877	1.415411	-0.990183	0.068858	0.122492	0.062496	0.990500	-0.724489	0.687736	0.046203	-0.678315	-0.723266	0.129520
13463	14.803864	-0.278530	4.669646	2.074020	-0.783396	-0.157008	0.118420	0.055680	0.991401	-0.738216	0.672679	0.050397	-0.664089	-0.737836	0.120763
13464	15.558360	2.363053	5.900339	2.255510	-0.812307	-0.152867	0.114227	0.048589	0.992266	-0.752838	0.655942	0.054545	-0.648218	-0.753246	0.111506
13465	14.810536	3.796359	6.315161	1.277050	-1.057918	0.161864	0.106227	0.041605	0.993471	-0.761235	0.646196	0.054334	-0.639716	-0.762037	0.100314
13466	12.958447	1.615371	2.873264	0.528084	-1.267877	0.513961	0.094219	0.035214	0.994929	-0.765123	0.641960	0.049736	-0.636953	-0.765929	0.087428
13467	10.581067	2.296432	-0.950282	0.426590	-1.440820	0.760988	0.079259	0.029005	0.996432	-0.768492	0.638444	0.042544	-0.634932	-0.769122	0.072892
13468	9.271106	3.712746	-2.969553	0.209203	-1.499145	0.822538	0.063425	0.022688	0.997729	-0.770408	0.636618	0.034498	-0.634389	-0.770846	0.057857
13469	8.211669	3.797718	-3.490436	0.013574	-1.413124	0.705358	0.049058	0.016260	0.998664	-0.770888	0.636377	0.027507	-0.635079	-0.771207	0.043754
13470	8.451283	1.872115	-3.632451	-0.347666	-1.344302	0.626423	0.035687	0.009873	0.999314	-0.768935	0.638977	0.021147	-0.638330	-0.769163	0.030395
13471	9.394993	0.592006	-3.851204	-0.471332	-1.211275	0.586197	0.023470	0.004308	0.999715	-0.766089	0.642554	0.015217	-0.642306	-0.766228	0.018381
13472	9.999476	0.378299	-3.665078	-0.594323	-1.150448	0.577347	0.011648	-0.000800	0.999932	-0.762352	0.647095	0.009398	-0.647058	-0.762409	0.006928
13473	10.088116	-0.747086	-3.431028	-0.559035	-1.107165	0.568798	0.000172	-0.005551	0.999985	-0.758755	0.651365	0.003746	-0.651376	-0.758744	-0.004099
13474	9.830424	-1.594073	-3.040176	-0.312432	-1.064079	0.555198	-0.010976	-0.010033	0.999889	-0.756677	0.653787	-0.001746	-0.653697	-0.756612	-0.014767
13475	9.907686	-1.937740	-2.392891	-0.167263	-1.009996	0.535250	-0.021593	-0.014188	0.999666	-0.755496	0.655116	-0.007020	-0.654798	-0.755395	-0.024865
13476	9.969102	-2.249295	-2.455345	-0.080614	-0.899466	0.511714	-0.031352	-0.017670	0.999352	-0.754822	0.655818	-0.012085	-0.655180	-0.754712	-0.033899
13477	9.739556	-2.543563	-2.445558	0.050859	-0.825388	0.465703	-0.040235	-0.020869	0.998972	-0.754990	0.655523	-0.016713	-0.654501	-0.754886	-0.042131
13478	9.767168	-2.415578	-2.288022	0.267351	-0.766326	0.401572	-0.048286	-0.024076	0.998543	-0.756550	0.653605	-0.020825	-0.652151	-0.756453	-0.049774
13479	9.923935	-1.771030	-2.030647	0.426264	-0.726111	0.366520	-0.055747	-0.027211	0.998074	-0.759133	0.650468	-0.024667	-0.648544	-0.759046	-0.056919
13480	9.955579	-0.995706	-1.856853	0.439847	-0.700133	0.370623	-0.063107	-0.030173	0.997551	-0.761748	0.647241	-0.028613	-0.644792	-0.761688	-0.063830
13481	9.820648	-0.418047	-2.055522	0.408160	-0.681814	0.382014	-0.070368	-0.032930	0.996977	-0.764120	0.644247	-0.032653	-0.641224	-0.764109	-0.070497
13482	9.734095	0.380379	-1.942213	0.381201	-0.669157	0.389247	-0.077642	-0.035593	0.996346	-0.766261	0.641475	-0.036796	-0.637821	-0.766318	-0.077078
13483	9.742433	0.969970	-1.635282	0.305168	-0.655622	0.404197	-0.084876	-0.038056	0.995664	-0.767878	0.639281	-0.041024	-0.634949	-0.768031	-0.083482
13484	9.773942	0.868595	-1.567347	0.139163	-0.653880	0.428696	-0.092331	-0.040388	0.994909	-0.768370	0.638394	-0.045392	-0.633311	-0.768649	-0.089977
13485	9.843919	0.519974	-1.477089	-0.014351	-0.657460	0.447677	-0.099893	-0.042604	0.994086	-0.767853	0.638689	-0.049787	-0.632790	-0.768285	-0.096514
13486	9.891133	-0.136626	-1.544946	-0.149021	-0.660356	0.468700	-0.107684	-0.044725	0.993179	-0.766411	0.640053	-0.054274	-0.633260	-0.767028	-0.103201
13487	9.790867	-0.748202	-1.606046	-0.175531	-0.651411	0.471528	-0.115383	-0.046718	0.992222	-0.764778	0.641613	-0.058724	-0.633879	-0.765605	-0.109760
13488	9.578734	-1.090268	-1.467284	-0.145862	-0.647667	0.447252	-0.122921	-0.048849	0.991213	-0.763308	0.642958	-0.062972	-0.634233	-0.764342	-0.116320
13489	9.684930	-1.284079	-1.279997	-0.123704	-0.628538	0.423852	-0.130103	-0.050944	0.990191	-0.761992	0.644113	-0.066980	-0.634383	-0.763232	-0.122620
13490	9.714543	-1.396983	-1.288644	-0.102925	-0.602823	0.403262	-0.137013	-0.052991	0.989151	-0.760789	0.645124	-0.070820	-0.634372	-0.762238	-0.128705
13491	9.715237	-1.216770	-1.254805	-0.096930	-0.591405	0.384122	-0.143647	-0.055039	0.988097	-0.759641	0.646068	-0.074447	-0.634280	-0.761293	-0.134615
13492	9.704883	-1.191254	-1.377840	-0.173511	-0.590110	0.370344	-0.150218	-0.057179	0.986998	-0.757985	0.647610	-0.077845	-0.634739	-0.759823	-0.140623
13493	9.656426	-1.404493	-1.544734	-0.231741	-0.579210	0.339963	-0.156432	-0.059392	0.985901	-0.755998	0.649565	-0.080823	-0.635607	-0.757983	-0.146513
13494	9.554674	-1.608800	-1.801529	-0.237852	-0.569691	0.315414	-0.162455	-0.061699	0.984785	-0.753972	0.651571	-0.083556	-0.636502	-0.756074	-0.152370
13495	9.582769	-1.708717	-1.808590	-0.227739	-0.556694	0.283597	-0.168098	-0.064076	0.983686	-0.752059	0.653467	-0.085951	-0.637299	-0.754238	-0.158035
13496	9.576450	-1.803297	-1.934209	-0.181991	-0.544697	0.257025	-0.173520	-0.066544	0.982580	-0.750450	0.655020	-0.088167	-0.637742	-0.752676	-0.163597
13497	9.501533	-1.698440	-1.971578	-0.100146	-0.530668	0.236822	-0.178642	-0.069006	0.981491	-0.749402	0.655931	-0.090283	-0.637560	-0.751660	-0.168891
13498	9.400697	-1.512275	-1.750859	-0.046737	-0.544324	0.220990	-0.183787	-0.071691	0.980348	-0.748695	0.656450	-0.092354	-0.636929	-0.750955	-0.174321
13499	9.477157	-1.413751	-1.565952	-0.028525	-0.551144	0.209318	-0.188824	-0.074476	0.979183	-0.748131	0.656815	-0.094311	-0.636118	-0.750365	-0.179740
13500	9.407218	-1.381193	-1.437664	-0.007425	-0.553660	0.193139	-0.193808	-0.077405	0.977981	-0.747706	0.657029	-0.096172	-0.635118	-0.749881	-0.185214
13501	9.389574	-1.045210	-1.148704	0.037032	-0.565849	0.188269	-0.198768	-0.080433	0.976740	-0.747579	0.656897	-0.098039	-0.633732	-0.749678	-0.190701
13502	9.510145	-0.707450	-0.869308	0.020208	-0.580403	0.183054	-0.203831	-0.083624	0.975428	-0.747331	0.656907	-0.099850	-0.632415	-0.749320	-0.196393
13503	9.409564	-0.730210	-0.798470	-0.012802	-0.606112	0.185979	-0.209013	-0.086965	0.974038	-0.746875	0.657158	-0.101595	-0.631262	-0.748719	-0.202306
13504	9.328763	-1.016852	-0.795876	-0.024717	-0.636974	0.190978	-0.214474	-0.090517	0.972526	-0.746308	0.657522	-0.103387	-0.630099	-0.747978	-0.208575
13505	9.250171	-0.888993	-0.517515	0.015626	-0.677277	0.206132	-0.220237	-0.094249	0.970882	-0.745968	0.657592	-0.105381	-0.628512	-0.747456	-0.215133
13506	9.197637	-0.989826	-0.405959	0.007969	-0.726883	0.211257	-0.226391	-0.098329	0.969061	-0.745541	0.657744	-0.107432	-0.626830	-0.746796	-0.222216
13507	9.192628	-0.908837	-0.424324	0.006555	-0.753529	0.207469	-0.232617	-0.102612	0.967140	-0.745116	0.657899	-0.109413	-0.625054	-0.746083	-0.229497
13508	9.170507	-0.786756	-0.744099	-0.027247	-0.783713	0.210999	-0.239094	-0.107104	0.965071	-0.744445	0.658329	-0.111373	-0.623406	-0.745071	-0.237135
13509	9.171103	-1.023436	-1.291847	-0.088731	-0.818397	0.223480	-0.245816	-0.111746	0.962854	-0.743361	0.659230	-0.113271	-0.622084	-0.743592	-0.245117
13510	9.263821	-1.274768	-1.853106	-0.130696	-0.845249	0.231364	-0.252799	-0.116532	0.960475	-0.741971	0.660469	-0.115155	-0.620945	-0.741756	-0.253429
13511	9.336682	-1.466673	-2.427323	-0.133234	-0.850633	0.226510	-0.259718	-0.121359	0.958028	-0.740574	0.661721	-0.116943	-0.619755	-0.739863	-0.261736
13512	9.250055	-1.591860	-3.016587	-0.137846	-0.847161	0.227300	-0.266656	-0.126148	0.955501	-0.739122	0.663023	-0.118736	-0.618541	-0.737894	-0.270037
13513	9.169236	-1.770102	-3.649314	-0.130149	-0.827091	0.216032	-0.273325	-0.130832	0.952983	-0.737746	0.664255	-0.120399	-0.617271	-0.735968	-0.278078
13514	9.000289	-1.931407	-4.088125	-0.099738	-0.809808	0.211343	-0.279888	-0.135415	0.950435	-0.736547	0.665272	-0.122115	-0.615761	-0.734218	-0.285941
13515	8.892901	-2.146360	-4.267402	-0.042325	-0.799866	0.190475	-0.286171	-0.140038	0.947890	-0.735759	0.665839	-0.123759	-0.613812	-0.732835	-0.293578
13516	9.007312	-2.184486	-4.239021	0.023685	-0.776700	0.165384	-0.292160	-0.144660	0.945365	-0.735426	0.665904	-0.125383	-0.611385	-0.731878	-0.300937
13517	9.234179	-2.379372	-4.209932	0.101774	-0.749882	0.134448	-0.297686	-0.149275	0.942921	-0.735662	0.665351	-0.126920	-0.608428	-0.731454	-0.307882
13518	9.471857	-2.194865	-4.299500	0.224646	-0.714991	0.112613	-0.302869	-0.153793	0.940541	-0.736686	0.663881	-0.128670	-0.604619	-0.731853	-0.314367
13519	9.316136	-2.139409	-3.970539	0.305312	-0.728512	0.109807	-0.308031	-0.158424	0.938093	-0.738202	0.661810	-0.130629	-0.600145	-0.732741	-0.320807
13520	9.301980	-1.723737	-3.548515	0.453305	-0.740545	0.095987	-0.313184	-0.163258	0.935555	-0.740611	0.658642	-0.132989	-0.594484	-0.734532	-0.327186
13521	9.277533	-1.283601	-2.954966	0.508998	-0.767583	0.095039	-0.318391	-0.168303	0.932899	-0.743335	0.655049	-0.135518	-0.588286	-0.736604	-0.333667
13522	9.489343	-1.114322	-2.610900	0.493282	-0.781688	0.088161	-0.323641	-0.173527	0.930132	-0.745938	0.651563	-0.137994	-0.582094	-0.738481	-0.340313
13523	9.785705	-0.960622	-2.611167	0.473251	-0.798295	0.081040	-0.328832	-0.178925	0.927284	-0.748427	0.648200	-0.140332	-0.575956	-0.740151	-0.347061
13524	10.062510	-0.638818	-2.571968	0.465121	-0.826658	0.092054	-0.334274	-0.184487	0.924243	-0.750787	0.644922	-0.142808	-0.569718	-0.741647	-0.354092
13525	10.120714	-0.167708	-2.411425	0.446254	-0.862896	0.101810	-0.339892	-0.190260	0.921018	-0.752987	0.641793	-0.145303	-0.563457	-0.742902	-0.361403
13526	9.890281	-0.045038	-2.290511	0.353016	-0.917668	0.136085	-0.346075	-0.196240	0.917454	-0.754501	0.639432	-0.147835	-0.557639	-0.743381	-0.369354
13527	9.529291	-0.263248	-2.133336	0.226232	-0.970776	0.151860	-0.352573	-0.202506	0.913610	-0.755241	0.638046	-0.150030	-0.552543	-0.742892	-0.377899
13528	9.287699	-0.720990	-1.947427	0.091048	-1.029120	0.172431	-0.359548	-0.209075	0.909403	-0.755131	0.637724	-0.151938	-0.548182	-0.741347	-0.387171
13529	9.517580	-1.205620	-1.721794	-0.009127	-1.096331	0.173256	-0.366807	-0.216107	0.904848	-0.754467	0.638151	-0.153434	-0.544272	-0.738959	-0.397124
13530	9.879114	-1.453441	-1.629601	-0.085413	-1.148479	0.174144	-0.374355	-0.223493	0.899950	-0.753364	0.639161	-0.154650	-0.540649	-0.735883	-0.407644
13531	10.087165	-1.332699	-1.385769	-0.133332	-1.220658	0.191118	-0.382334	-0.231253	0.894619	-0.751938	0.640565	-0.155775	-0.537038	-0.732256	-0.418798
13532	10.347600	-1.261480	-1.050823	-0.204822	-1.318373	0.198750	-0.390884	-0.239629	0.888700	-0.750082	0.642521	-0.156665	-0.533467	-0.727836	-0.430893
13533	10.679381	-0.974836	-0.515186	-0.225668	-1.430312	0.184427	-0.399831	-0.248840	0.882164	-0.748170	0.644598	-0.157272	-0.529506	-0.722891	-0.443905
13534	11.163915	-0.345202	0.180967	-0.277107	-1.562196	0.163309	-0.409283	-0.259057	0.874858	-0.746061	0.646996	-0.157445	-0.525243	-0.717137	-0.458077
13535	11.544276	0.765173	0.472422	-0.353384	-1.680241	0.163796	-0.419256	-0.270011	0.866786	-0.743552	0.649941	-0.157187	-0.520917	-0.710402	-0.473259
13536	11.585414	1.957125	0.698364	-0.592760	-1.763867	0.178639	-0.429726	-0.281319	0.858018	-0.739733	0.654601	-0.155860	-0.517813	-0.701681	-0.489400
13537	11.409302	2.345812	0.506298	-0.972775	-1.823677	0.219839	-0.440746	-0.292587	0.848608	-0.733761	0.661989	-0.152854	-0.517047	-0.690046	-0.506458
13538	11.274770	2.274611	0.289600	-1.349026	-1.865352	0.278640	-0.452409	-0.303483	0.838585	-0.725555	0.672010	-0.148231	-0.518551	-0.675501	-0.524217
13539	10.869947	1.597733	0.044234	-1.681761	-1.876305	0.298608	-0.464289	-0.313996	0.828156	-0.715455	0.684135	-0.141715	-0.522072	-0.658305	-0.542286
13540	10.791393	0.923811	-0.453235	-1.834706	-1.913164	0.293860	-0.476362	-0.324400	0.817217	-0.704486	0.696955	-0.133989	-0.526097	-0.639546	-0.560538
13541	10.839652	0.684313	-1.184170	-1.897881	-1.900689	0.276656	-0.488300	-0.334450	0.806044	-0.693148	0.709805	-0.125390	-0.530197	-0.619936	-0.578421
13542	10.990859	0.652566	-1.919562	-1.869361	-1.873728	0.253025	-0.499959	-0.344088	0.794761	-0.681987	0.722040	-0.116413	-0.533793	-0.600218	-0.595654
13543	11.051937	0.021504	-2.470583	-1.831027	-1.829061	0.224321	-0.511236	-0.353281	0.783473	-0.671071	0.733618	-0.107090	-0.536937	-0.580514	-0.612128
13544	11.178223	-0.735536	-3.356179	-1.779134	-1.809382	0.216789	-0.522361	-0.362023	0.772061	-0.660414	0.744517	-0.097715	-0.539438	-0.560922	-0.627991
13545	11.271172	-0.695538	-4.384813	-1.814626	-1.839449	0.242971	-0.533863	-0.370361	0.760147	-0.649344	0.755386	-0.088003	-0.541611	-0.540579	-0.643764
