// General information: 
//  MT Manager version: 2022.2.0 
//  XDA version: 2022.2.0 build 7381 rev 124627 built on 2023-07-19
// Device information: 
//  DeviceId: 00B4CB9F
//  ProductCode: MTW2-3A7G6
//  Firmware Version: 4.6.0
//  Hardware Version: 2.0.0
// Device settings: 
//  Filter Profile: human(46.1)
//  Option Flags: Orientation Smoother Disabled, Position/Velocity Smoother Disabled, Continuous Zero Rotation Update Disabled, AHS Disabled, ICC Disabled
// Coordinate system: ENU
PacketCounter	Acc_X	Acc_Y	Acc_Z	Gyr_X	Gyr_Y	Gyr_Z	Mat[1][1]	Mat[2][1]	Mat[3][1]	Mat[1][2]	Mat[2][2]	Mat[3][2]	Mat[1][3]	Mat[2][3]	Mat[3][3]
25111	9.735407	1.126594	-1.131576	-0.043982	-0.010209	0.002027	-0.068616	-0.158718	0.984937	-0.348639	0.928832	0.125389	-0.934742	-0.334784	-0.119068
25112	9.702163	1.173758	-1.026072	-0.064999	0.003343	-0.009459	-0.068603	-0.158765	0.984930	-0.348055	0.929034	0.125511	-0.934961	-0.334199	-0.118994
25113	9.644214	1.252720	-1.076937	-0.053640	0.002608	-0.023262	-0.068587	-0.158899	0.984910	-0.347432	0.929239	0.125723	-0.935193	-0.333566	-0.118941
25114	9.685034	1.202617	-0.971801	-0.055731	-0.002533	-0.040175	-0.068523	-0.159250	0.984857	-0.346955	0.929361	0.126136	-0.935375	-0.333058	-0.118935
25115	9.691932	1.212394	-0.948566	-0.061972	-0.000080	-0.040144	-0.068485	-0.159564	0.984809	-0.346295	0.929554	0.126530	-0.935623	-0.332369	-0.118917
25116	9.654508	1.190494	-1.060700	-0.063638	0.007955	-0.042985	-0.068314	-0.159907	0.984765	-0.345745	0.929697	0.126980	-0.935838	-0.331804	-0.118798
25117	9.638723	1.124703	-1.169602	-0.036572	0.004707	-0.036817	-0.068193	-0.160180	0.984729	-0.345481	0.929750	0.127312	-0.935945	-0.331524	-0.118741
25118	9.630984	1.122829	-1.191879	-0.004799	-0.001579	-0.029126	-0.068158	-0.160426	0.984692	-0.345473	0.929719	0.127557	-0.935950	-0.331490	-0.118791
25119	9.608508	1.109201	-1.260306	0.027451	-0.005131	-0.020756	-0.068224	-0.160599	0.984659	-0.345764	0.929597	0.127661	-0.935838	-0.331750	-0.118950
25120	9.626782	1.226822	-1.294900	0.030734	-0.016347	-0.021260	-0.068355	-0.160820	0.984614	-0.346083	0.929461	0.127786	-0.935710	-0.332023	-0.119190
25121	9.689746	1.263291	-1.246611	0.025527	-0.012917	-0.016340	-0.068476	-0.161003	0.984576	-0.346541	0.929280	0.127859	-0.935532	-0.332440	-0.119428
25122	9.697352	1.329483	-1.160611	0.012546	-0.011125	-0.014303	-0.068583	-0.161142	0.984545	-0.346685	0.929216	0.127937	-0.935471	-0.332553	-0.119593
25123	9.665576	1.343420	-1.154374	-0.017536	-0.012870	-0.019140	-0.068637	-0.161323	0.984512	-0.346772	0.929164	0.128077	-0.935435	-0.332610	-0.119717
25124	9.737018	1.332559	-1.070293	-0.036229	-0.010055	-0.015528	-0.068729	-0.161470	0.984481	-0.346461	0.929259	0.128225	-0.935543	-0.332271	-0.119810
25125	9.810935	1.348006	-1.018453	-0.053555	0.002298	-0.020539	-0.068606	-0.161616	0.984466	-0.346304	0.929290	0.128424	-0.935610	-0.332114	-0.119724
25126	9.662565	1.251498	-0.997851	-0.062594	0.015562	-0.026446	-0.068421	-0.161779	0.984452	-0.345754	0.929456	0.128711	-0.935827	-0.331572	-0.119530
25127	9.588693	1.128659	-1.100797	-0.060758	-0.000369	-0.024526	-0.068472	-0.161935	0.984423	-0.344950	0.929722	0.128944	-0.936120	-0.330748	-0.119519
25128	9.645988	0.995200	-1.114149	-0.027423	-0.009512	-0.022877	-0.068533	-0.162149	0.984384	-0.344726	0.929776	0.129154	-0.936198	-0.330492	-0.119618
25129	9.655486	1.028990	-1.124708	-0.002779	0.004921	-0.022856	-0.068382	-0.162280	0.984372	-0.344924	0.929682	0.129303	-0.936136	-0.330692	-0.119548
25130	9.643809	1.165697	-1.073111	0.019019	0.002631	-0.024257	-0.068325	-0.162467	0.984346	-0.345136	0.929580	0.129471	-0.936062	-0.330887	-0.119586
25131	9.655650	1.225392	-1.116696	0.033484	0.005248	-0.026054	-0.068242	-0.162654	0.984320	-0.345572	0.929397	0.129620	-0.935908	-0.331308	-0.119633
25132	9.636474	1.356746	-1.087931	0.039148	0.008035	-0.025827	-0.068129	-0.162837	0.984298	-0.345973	0.929225	0.129779	-0.935768	-0.331699	-0.119645
25133	9.616437	1.368938	-1.188847	0.040712	0.008304	-0.024713	-0.067989	-0.162997	0.984281	-0.346546	0.928995	0.129904	-0.935566	-0.332266	-0.119648
25134	9.614695	1.364164	-1.265605	0.036120	0.006182	-0.017378	-0.067923	-0.163107	0.984268	-0.346913	0.928846	0.129983	-0.935435	-0.332626	-0.119674
25135	9.635935	1.261722	-1.327284	0.030533	0.002053	-0.006941	-0.067935	-0.163114	0.984266	-0.347250	0.928726	0.129942	-0.935309	-0.332959	-0.119735
25136	9.603977	1.214611	-1.385365	0.026564	-0.008404	-0.006982	-0.068041	-0.163176	0.984248	-0.347521	0.928627	0.129931	-0.935200	-0.333206	-0.119892
25137	9.638625	1.175721	-1.415452	0.021570	-0.020190	-0.009247	-0.068290	-0.163290	0.984212	-0.347728	0.928549	0.129928	-0.935105	-0.333365	-0.120191
25138	9.634723	1.203450	-1.396692	0.009190	-0.023624	-0.007458	-0.068536	-0.163407	0.984175	-0.347837	0.928507	0.129941	-0.935047	-0.333426	-0.120475
25139	9.751203	1.243060	-1.288595	-0.009914	-0.027711	-0.003656	-0.068834	-0.163463	0.984145	-0.347722	0.928554	0.129909	-0.935068	-0.333266	-0.120756
25140	9.791751	1.303018	-1.133149	-0.030490	-0.008313	-0.007296	-0.068938	-0.163528	0.984127	-0.347459	0.928644	0.129969	-0.935158	-0.332984	-0.120838
25141	9.687526	1.309889	-1.100058	-0.054607	0.004378	-0.018284	-0.068971	-0.163647	0.984105	-0.346856	0.928845	0.130148	-0.935379	-0.332366	-0.120825
25142	9.654643	1.377802	-1.103807	-0.056091	0.000335	-0.021181	-0.068946	-0.163812	0.984079	-0.346363	0.928997	0.130376	-0.935563	-0.331860	-0.120789
25143	9.634994	1.317510	-1.082134	-0.039986	-0.000901	-0.021003	-0.068945	-0.164000	0.984048	-0.346208	0.929026	0.130574	-0.935621	-0.331683	-0.120830
25144	9.651599	1.164083	-1.077301	-0.007825	-0.000277	-0.013531	-0.068952	-0.164096	0.984032	-0.346162	0.929030	0.130668	-0.935637	-0.331625	-0.120862
25145	9.616160	1.145024	-1.113337	0.012778	0.007528	-0.011768	-0.068913	-0.164152	0.984025	-0.346394	0.928939	0.130705	-0.935554	-0.331854	-0.120877
25146	9.632798	1.122833	-1.165931	0.019702	-0.001112	-0.004057	-0.068961	-0.164163	0.984020	-0.346599	0.928867	0.130672	-0.935475	-0.332049	-0.120954
25147	9.631485	1.176402	-1.178335	0.026407	-0.000116	-0.008733	-0.068984	-0.164205	0.984011	-0.346956	0.928736	0.130657	-0.935341	-0.332395	-0.121040
25148	9.600922	1.268555	-1.216697	0.039380	-0.001534	-0.013436	-0.069003	-0.164304	0.983993	-0.347352	0.928583	0.130693	-0.935193	-0.332773	-0.121147
25149	9.625785	1.331322	-1.292991	0.033792	-0.008111	-0.015450	-0.068994	-0.164418	0.983975	-0.347924	0.928364	0.130730	-0.934981	-0.333328	-0.121256
25150	9.651166	1.321162	-1.247315	0.020352	-0.009420	-0.011423	-0.069094	-0.164525	0.983950	-0.348140	0.928277	0.130769	-0.934893	-0.333517	-0.121416
25151	9.688488	1.368608	-1.245145	0.003703	-0.006781	-0.013145	-0.069099	-0.164596	0.983938	-0.348305	0.928209	0.130813	-0.934831	-0.333671	-0.121468
25152	9.678652	1.338415	-1.234746	-0.022355	0.000864	-0.009934	-0.069108	-0.164655	0.983927	-0.348121	0.928267	0.130889	-0.934899	-0.333480	-0.121470
25153	9.648312	1.298687	-1.214928	-0.037838	-0.003101	-0.010355	-0.069137	-0.164720	0.983914	-0.347909	0.928335	0.130969	-0.934976	-0.333258	-0.121490
25154	9.667377	1.170803	-1.243536	-0.040296	-0.009496	-0.007489	-0.069251	-0.164791	0.983894	-0.347555	0.928457	0.131043	-0.935099	-0.332883	-0.121571
25155	9.724330	1.148678	-1.204634	-0.034559	-0.010839	-0.006398	-0.069310	-0.164838	0.983882	-0.347485	0.928479	0.131077	-0.935120	-0.332800	-0.121631
25156	9.691733	1.082600	-1.152338	-0.032091	-0.004431	-0.009257	-0.069370	-0.164908	0.983866	-0.347210	0.928570	0.131159	-0.935218	-0.332510	-0.121673
25157	9.728470	1.110661	-1.039415	-0.029418	-0.009748	-0.014843	-0.069423	-0.165020	0.983844	-0.347061	0.928611	0.131265	-0.935269	-0.332341	-0.121739
25158	9.749420	1.241439	-0.918347	-0.038036	0.006572	-0.022720	-0.069335	-0.165178	0.983824	-0.346740	0.928700	0.131487	-0.935395	-0.332014	-0.121665
25159	9.690680	1.320836	-0.968417	-0.018510	0.014094	-0.031174	-0.069172	-0.165382	0.983801	-0.346632	0.928703	0.131747	-0.935447	-0.331904	-0.121567
25160	9.603646	1.326315	-1.097119	-0.011188	0.009901	-0.036103	-0.069006	-0.165653	0.983767	-0.346571	0.928680	0.132067	-0.935482	-0.331832	-0.121495
25161	9.623565	1.279825	-1.170381	0.002457	0.001919	-0.030416	-0.068898	-0.165856	0.983740	-0.346660	0.928616	0.132283	-0.935457	-0.331910	-0.121475
25162	9.626908	1.255140	-1.190833	0.013651	0.014395	-0.021050	-0.068742	-0.165972	0.983732	-0.346821	0.928536	0.132425	-0.935409	-0.332076	-0.121392
25163	9.568019	1.273845	-1.306376	0.026732	0.008166	-0.019569	-0.068696	-0.166047	0.983722	-0.346896	0.928497	0.132501	-0.935384	-0.332147	-0.121385
25164	9.597919	1.316576	-1.325816	0.028974	-0.000564	-0.020511	-0.068681	-0.166209	0.983696	-0.347200	0.928367	0.132619	-0.935273	-0.332431	-0.121469
25165	9.623956	1.326855	-1.389640	0.017161	-0.005423	-0.017173	-0.068710	-0.166358	0.983669	-0.347561	0.928219	0.132703	-0.935136	-0.332767	-0.121597
25166	9.655160	1.316281	-1.397678	-0.003560	-0.005667	-0.015339	-0.068761	-0.166489	0.983643	-0.347557	0.928206	0.132810	-0.935134	-0.332740	-0.121689
25167	9.635916	1.314502	-1.312269	-0.023208	-0.008038	-0.015739	-0.068833	-0.166607	0.983618	-0.347390	0.928253	0.132919	-0.935191	-0.332550	-0.121772
25168	9.657788	1.332288	-1.244199	-0.046164	0.000454	-0.012958	-0.068835	-0.166695	0.983603	-0.346986	0.928384	0.133054	-0.935341	-0.332137	-0.121746
25169	9.657684	1.394006	-1.178781	-0.063665	-0.005806	-0.020482	-0.068755	-0.166861	0.983580	-0.346772	0.928434	0.133266	-0.935426	-0.331915	-0.121697
25170	9.600945	1.346869	-1.095717	-0.082293	-0.006133	-0.023966	-0.068780	-0.167073	0.983542	-0.346037	0.928667	0.133553	-0.935696	-0.331157	-0.121687
25171	9.667264	1.086857	-1.029178	-0.101962	-0.004666	-0.022541	-0.068816	-0.167232	0.983513	-0.345036	0.929000	0.133821	-0.936063	-0.330139	-0.121631
25172	9.709782	0.902993	-0.867176	-0.102134	0.006747	-0.017113	-0.068745	-0.167338	0.983500	-0.344111	0.929309	0.134064	-0.936409	-0.329217	-0.121468
25173	9.729531	1.107655	-0.865289	-0.084849	0.023062	-0.024583	-0.068539	-0.167460	0.983494	-0.343369	0.929543	0.134344	-0.936696	-0.328494	-0.121211
25174	9.637784	1.312119	-0.851775	-0.047908	0.038276	-0.036129	-0.068108	-0.167639	0.983493	-0.342964	0.929639	0.134708	-0.936876	-0.328128	-0.120810
25175	9.637597	1.375193	-0.782737	-0.015716	0.032367	-0.040284	-0.067755	-0.167864	0.983479	-0.342847	0.929632	0.135053	-0.936944	-0.328033	-0.120539
25176	9.689326	1.436276	-0.730165	-0.013788	0.039859	-0.041997	-0.067289	-0.168092	0.983472	-0.342766	0.929607	0.135434	-0.937008	-0.327987	-0.120169
25177	9.621469	1.506082	-0.876629	-0.038630	0.041613	-0.042777	-0.066813	-0.168277	0.983473	-0.342356	0.929702	0.135818	-0.937192	-0.327624	-0.119727
25178	9.526031	1.442421	-1.168586	-0.033382	0.013380	-0.033497	-0.066624	-0.168513	0.983445	-0.342085	0.929755	0.136139	-0.937304	-0.327352	-0.119590
25179	9.580130	1.351404	-1.348210	-0.014156	-0.016014	-0.018735	-0.066767	-0.168685	0.983406	-0.341990	0.929771	0.136266	-0.937329	-0.327217	-0.119767
25180	9.587150	1.239877	-1.458665	0.012682	-0.038569	-0.009931	-0.067146	-0.168872	0.983348	-0.342135	0.929713	0.136299	-0.937249	-0.327285	-0.120204
25181	9.603363	1.158861	-1.581592	0.032186	-0.055863	-0.004158	-0.067713	-0.169033	0.983282	-0.342436	0.929613	0.136226	-0.937098	-0.327487	-0.120830
25182	9.749569	1.026550	-1.394532	0.017791	-0.058856	0.000314	-0.068317	-0.169192	0.983213	-0.342622	0.929555	0.136152	-0.936986	-0.327569	-0.121473
25183	9.860857	1.051977	-1.046272	-0.041428	-0.021773	-0.008669	-0.068472	-0.169277	0.983187	-0.342396	0.929630	0.136211	-0.937058	-0.327312	-0.121613
25184	9.832597	1.275406	-0.798555	-0.092862	0.014240	-0.024549	-0.068305	-0.169427	0.983173	-0.341561	0.929892	0.136516	-0.937374	-0.326489	-0.121387
25185	9.717468	1.503142	-0.677206	-0.111929	0.036835	-0.048195	-0.067986	-0.169701	0.983148	-0.340259	0.930291	0.137048	-0.937871	-0.325208	-0.120990
25186	9.673842	1.521252	-0.555031	-0.101430	0.055956	-0.049133	-0.067346	-0.169945	0.983150	-0.339360	0.930537	0.137604	-0.938243	-0.324375	-0.120340
25187	9.798621	1.378854	-0.423025	-0.107350	0.070190	-0.055359	-0.066558	-0.170164	0.983165	-0.338352	0.930816	0.138198	-0.938663	-0.323458	-0.119528
25188	9.792180	1.246519	-0.380433	-0.102637	0.094853	-0.058171	-0.065522	-0.170367	0.983200	-0.337446	0.931049	0.138843	-0.939062	-0.322680	-0.118494
25189	9.791765	1.391866	-0.347071	-0.122172	0.121361	-0.070816	-0.064149	-0.170601	0.983250	-0.336601	0.931240	0.139616	-0.939460	-0.322007	-0.117162
25190	9.708803	1.637428	-0.254108	-0.146711	0.144855	-0.090090	-0.062536	-0.170942	0.983294	-0.335299	0.931558	0.140623	-0.940034	-0.320904	-0.115573
25191	9.631473	1.745212	-0.233962	-0.150175	0.173316	-0.095353	-0.060572	-0.171204	0.983372	-0.334082	0.931839	0.141654	-0.940596	-0.319946	-0.113640
25192	9.606509	1.649728	-0.392455	-0.116376	0.195195	-0.099875	-0.058454	-0.171479	0.983452	-0.333066	0.932040	0.142718	-0.941090	-0.319212	-0.111595
25193	9.576467	1.490794	-0.639306	-0.064858	0.202049	-0.089995	-0.056370	-0.171600	0.983553	-0.332308	0.932176	0.143591	-0.941485	-0.318748	-0.109571
25194	9.532557	1.379026	-0.867148	-0.013082	0.192200	-0.076811	-0.054356	-0.171671	0.983654	-0.332247	0.932087	0.144312	-0.941625	-0.318972	-0.107702
25195	9.542462	1.344723	-1.156593	0.020323	0.174459	-0.070825	-0.052546	-0.171721	0.983743	-0.332500	0.931904	0.144912	-0.941638	-0.319480	-0.106065
25196	9.561403	1.404577	-1.314993	0.022875	0.152526	-0.064046	-0.050948	-0.171798	0.983814	-0.332768	0.931721	0.145469	-0.941631	-0.319971	-0.104639
25197	9.525619	1.433793	-1.504171	-0.008019	0.129003	-0.060695	-0.049555	-0.171889	0.983869	-0.332810	0.931623	0.145998	-0.941691	-0.320207	-0.103373
25198	9.422439	1.283751	-1.793563	-0.030724	0.073586	-0.047956	-0.048753	-0.172068	0.983878	-0.332565	0.931639	0.146453	-0.941819	-0.320063	-0.102644
25199	9.456061	1.203277	-2.093197	-0.014878	0.015157	-0.028782	-0.048542	-0.172215	0.983863	-0.332450	0.931646	0.146673	-0.941871	-0.319965	-0.102476
25200	9.554679	1.054493	-2.247032	0.020946	-0.032447	-0.019779	-0.048832	-0.172471	0.983803	-0.332677	0.931545	0.146797	-0.941776	-0.320120	-0.102867
25201	9.526257	0.731646	-2.355090	0.049399	-0.065966	-0.018069	-0.049507	-0.172799	0.983712	-0.333062	0.931400	0.146848	-0.941604	-0.320368	-0.103664
25202	9.522946	0.561525	-2.430187	0.088380	-0.107265	-0.018215	-0.050507	-0.173280	0.983577	-0.333924	0.931085	0.146886	-0.941246	-0.321021	-0.104889
25203	9.695190	0.778762	-2.178498	0.109404	-0.128923	-0.007858	-0.051691	-0.173735	0.983435	-0.335268	0.930618	0.146782	-0.940704	-0.322127	-0.106352
25204	9.736917	1.073378	-1.801416	0.094365	-0.122885	-0.001318	-0.052893	-0.174111	0.983304	-0.336177	0.930312	0.146645	-0.940312	-0.322808	-0.107739
25205	9.761364	1.385544	-1.448652	0.057395	-0.123860	-0.005767	-0.054109	-0.174504	0.983169	-0.336693	0.930139	0.146561	-0.940059	-0.323095	-0.109083
25206	9.785820	1.534108	-1.083908	0.020607	-0.109242	-0.014628	-0.055137	-0.174961	0.983030	-0.336915	0.930047	0.146633	-0.939919	-0.323112	-0.110227
25207	9.726397	1.531499	-0.682178	-0.031532	-0.080414	-0.018636	-0.055876	-0.175351	0.982919	-0.336766	0.930077	0.146780	-0.939929	-0.322813	-0.111021
25208	9.777133	1.356257	-0.428204	-0.080799	-0.042769	-0.022056	-0.056255	-0.175662	0.982842	-0.336039	0.930300	0.147037	-0.940166	-0.322002	-0.111363
25209	9.755628	1.103027	-0.365544	-0.073603	0.001756	-0.016084	-0.056145	-0.175760	0.982831	-0.335673	0.930405	0.147209	-0.940304	-0.321645	-0.111235
25210	9.648914	1.012185	-0.519435	0.020806	0.022391	-0.022923	-0.055908	-0.175869	0.982825	-0.335902	0.930298	0.147362	-0.940236	-0.321894	-0.111086
25211	9.545699	1.129652	-0.904449	0.170021	0.017772	-0.035670	-0.055598	-0.176096	0.982802	-0.337815	0.929591	0.147452	-0.939569	-0.323807	-0.111171
25212	9.483720	1.271639	-1.233612	0.283173	-0.020224	-0.051396	-0.055664	-0.176608	0.982706	-0.340523	0.928580	0.147592	-0.938587	-0.326418	-0.111828
25213	9.440340	1.241250	-1.377302	0.328040	-0.045952	-0.050867	-0.055967	-0.177144	0.982592	-0.343538	0.927461	0.147637	-0.937469	-0.329295	-0.112763
25214	9.468188	1.362404	-1.451541	0.353743	-0.087217	-0.042887	-0.056687	-0.177798	0.982433	-0.346897	0.926215	0.147608	-0.936189	-0.332436	-0.114182
25215	9.550674	1.605911	-1.733964	0.394943	-0.102135	-0.027222	-0.057638	-0.178299	0.982287	-0.350376	0.924949	0.147332	-0.934834	-0.335678	-0.115784
25216	9.502222	1.679983	-1.834587	0.452807	-0.111318	-0.008729	-0.058698	-0.178724	0.982147	-0.354631	0.923404	0.146840	-0.933162	-0.339680	-0.117583
25217	9.569158	1.726232	-1.968589	0.469915	-0.140843	0.009729	-0.060145	-0.179047	0.982000	-0.358875	0.921880	0.146105	-0.931446	-0.343628	-0.119702
25218	9.584033	1.691919	-2.043000	0.421625	-0.159001	0.042561	-0.061830	-0.179173	0.981873	-0.362793	0.920500	0.145128	-0.929816	-0.347243	-0.121917
25219	9.618923	1.714948	-1.875575	0.330329	-0.175650	0.075733	-0.063750	-0.179035	0.981775	-0.365941	0.919444	0.143907	-0.928452	-0.350098	-0.124131
25220	9.660718	1.787181	-1.510825	0.223779	-0.176844	0.091099	-0.065778	-0.178788	0.981686	-0.367979	0.918822	0.142683	-0.927505	-0.351854	-0.126228
25221	9.802395	1.972152	-0.806998	0.078174	-0.152440	0.084375	-0.067610	-0.178488	0.981616	-0.368520	0.918760	0.141677	-0.927158	-0.352167	-0.127894
25222	9.841751	2.225538	0.000241	-0.096881	-0.088625	0.053120	-0.068679	-0.178281	0.981580	-0.367605	0.919196	0.141230	-0.927442	-0.351134	-0.128667
25223	9.912400	2.193185	0.513497	-0.274055	-0.000474	0.018157	-0.068781	-0.178054	0.981614	-0.365060	0.920193	0.141334	-0.928440	-0.348627	-0.128292
25224	9.881334	1.801422	0.686900	-0.347054	0.088857	-0.000448	-0.068006	-0.177719	0.981729	-0.361856	0.921397	0.141731	-0.929750	-0.345606	-0.126969
25225	9.656275	1.259269	0.596378	-0.274374	0.153422	-0.009704	-0.066598	-0.177242	0.981911	-0.359417	0.922294	0.142103	-0.930797	-0.343452	-0.125127
25226	9.499392	1.058168	0.503587	-0.110501	0.165984	-0.011284	-0.065064	-0.176746	0.982104	-0.358416	0.922653	0.142302	-0.931292	-0.342743	-0.123380
25227	9.414831	1.024321	0.291000	0.037752	0.151087	-0.012186	-0.063697	-0.176285	0.982276	-0.358752	0.922523	0.142297	-0.931257	-0.343330	-0.122004
25228	9.355968	1.217669	-0.017260	0.135030	0.096333	-0.021028	-0.062776	-0.176116	0.982366	-0.360043	0.922021	0.142290	-0.930821	-0.344761	-0.121290
25229	9.464897	1.395231	-0.566055	0.196486	0.038681	-0.019840	-0.062455	-0.176142	0.982381	-0.362028	0.921262	0.142168	-0.930072	-0.346771	-0.121306
25230	9.495961	1.514271	-1.293787	0.270596	-0.019342	-0.019386	-0.062616	-0.176357	0.982333	-0.364576	0.920286	0.141979	-0.929066	-0.349245	-0.121921
25231	9.399165	1.527094	-2.095693	0.370434	-0.097014	0.001723	-0.063673	-0.176621	0.982217	-0.367849	0.919069	0.141419	-0.927703	-0.352303	-0.123489
25232	9.336890	1.419892	-2.810383	0.431715	-0.183269	0.042344	-0.065580	-0.176850	0.982051	-0.371843	0.917615	0.140415	-0.925976	-0.355960	-0.125938
25233	9.261760	1.451505	-3.650637	0.476255	-0.289244	0.089171	-0.068659	-0.177011	0.981811	-0.376182	0.916082	0.138854	-0.923998	-0.359806	-0.129486
25234	9.399530	1.366217	-3.935531	0.469458	-0.411912	0.139183	-0.073040	-0.177196	0.981462	-0.380436	0.914631	0.136818	-0.921918	-0.363390	-0.134216
25235	9.501551	1.687964	-3.559304	0.328340	-0.454089	0.186836	-0.078114	-0.177086	0.981091	-0.383118	0.913862	0.134448	-0.920390	-0.365372	-0.139231
25236	9.567895	2.119341	-3.041818	0.091323	-0.482885	0.214499	-0.083432	-0.176860	0.980693	-0.383804	0.913908	0.132164	-0.919638	-0.365368	-0.144129
25237	9.722388	2.415886	-2.429033	-0.252101	-0.475633	0.224810	-0.088707	-0.176498	0.980296	-0.381373	0.915197	0.130266	-0.920155	-0.362303	-0.148496
25238	9.613590	2.295923	-1.865007	-0.586120	-0.469085	0.228391	-0.093945	-0.176059	0.979886	-0.375785	0.917704	0.128859	-0.921933	-0.356121	-0.152374
25239	9.648142	2.120387	-1.488967	-0.808526	-0.456549	0.215200	-0.099035	-0.175657	0.979457	-0.368144	0.920925	0.127935	-0.924479	-0.347911	-0.155871
25240	9.578904	1.625345	-1.338771	-0.919321	-0.441190	0.194014	-0.103878	-0.175350	0.979011	-0.359453	0.924421	0.127432	-0.927363	-0.338671	-0.159057
25241	9.552916	1.225142	-0.887371	-0.906220	-0.432950	0.183745	-0.108670	-0.175066	0.978541	-0.350835	0.927782	0.127024	-0.930111	-0.329502	-0.162242
25242	9.725213	1.307854	-0.282508	-0.891243	-0.406464	0.158622	-0.113058	-0.174881	0.978077	-0.342375	0.930957	0.126880	-0.932736	-0.320525	-0.165127
25243	9.848024	1.325166	0.279918	-0.903313	-0.344809	0.127282	-0.116820	-0.174757	0.977657	-0.333812	0.934035	0.127072	-0.935373	-0.311509	-0.167450
25244	9.970356	1.325749	0.585098	-0.855991	-0.280040	0.101485	-0.119829	-0.174635	0.977315	-0.325693	0.936844	0.127470	-0.937852	-0.303029	-0.169138
25245	9.947415	1.056118	0.687241	-0.727801	-0.209063	0.072032	-0.122126	-0.174555	0.977044	-0.318803	0.939147	0.127936	-0.939920	-0.295861	-0.170343
25246	9.676129	0.853090	0.525458	-0.486073	-0.165553	0.054214	-0.123905	-0.174498	0.976831	-0.314183	0.940669	0.128186	-0.941242	-0.291020	-0.171378
25247	9.510283	0.705065	0.019930	-0.193559	-0.153484	0.052209	-0.125574	-0.174416	0.976632	-0.312365	0.941307	0.127944	-0.941626	-0.288999	-0.172685
25248	9.370119	0.517642	-0.596519	0.038377	-0.169950	0.060376	-0.127413	-0.174305	0.976414	-0.312668	0.941302	0.127236	-0.941278	-0.289081	-0.174434
25249	9.569091	0.363265	-1.089617	0.208892	-0.223354	0.050180	-0.129800	-0.174374	0.976087	-0.314297	0.940887	0.126291	-0.940409	-0.290389	-0.176932
25250	9.752898	0.526981	-1.592153	0.308380	-0.224905	0.043446	-0.132101	-0.174587	0.975740	-0.317156	0.940064	0.125266	-0.939128	-0.292914	-0.179555
25251	9.700096	0.928732	-1.546015	0.369683	-0.206562	0.056919	-0.134214	-0.174626	0.975445	-0.320726	0.939023	0.123977	-0.937615	-0.296211	-0.182037
25252	9.747184	1.572947	-1.242441	0.324753	-0.184609	0.054515	-0.136170	-0.174630	0.975173	-0.323712	0.938153	0.122799	-0.936306	-0.298954	-0.184278
25253	9.856617	2.089618	-0.827108	0.170719	-0.136213	0.026193	-0.137577	-0.174729	0.974958	-0.325280	0.937695	0.122151	-0.935556	-0.300329	-0.185841
25254	9.825075	2.324772	-0.314222	-0.017163	-0.074871	-0.003505	-0.138317	-0.174953	0.974813	-0.325141	0.937742	0.122165	-0.935495	-0.300054	-0.186590
25255	9.825497	2.191975	-0.207264	-0.171047	0.003822	-0.024413	-0.138162	-0.175106	0.974807	-0.323645	0.938195	0.122658	-0.936037	-0.298545	-0.186295
25256	9.601417	1.697721	-0.597973	-0.189001	0.030906	-0.012319	-0.137884	-0.175095	0.974849	-0.321909	0.938737	0.123078	-0.936676	-0.296842	-0.185801
25257	9.329604	1.233136	-1.057274	-0.123185	0.020274	0.004987	-0.137737	-0.174929	0.974899	-0.320778	0.939110	0.123187	-0.937086	-0.295758	-0.185464
25258	9.191668	0.690048	-2.283711	0.072482	-0.061194	0.020799	-0.138428	-0.174881	0.974810	-0.321445	0.938932	0.122798	-0.936755	-0.296349	-0.186189
25259	9.109182	-0.049639	-3.345824	0.337141	-0.213683	0.066763	-0.140645	-0.174840	0.974500	-0.324595	0.938024	0.121448	-0.935338	-0.299237	-0.188681
25260	8.997136	-0.486009	-3.967798	0.595887	-0.370959	0.116978	-0.144544	-0.174829	0.973931	-0.330011	0.936431	0.119119	-0.932845	-0.304190	-0.193051
25261	9.039645	-0.113846	-3.905992	0.806733	-0.541876	0.169276	-0.150214	-0.174842	0.973070	-0.337251	0.934265	0.115807	-0.929353	-0.310774	-0.199305
25262	9.586702	1.028977	-3.333114	0.812507	-0.634648	0.199621	-0.156832	-0.174939	0.972008	-0.344497	0.932063	0.112165	-0.925595	-0.317263	-0.206443
25263	9.845385	1.556019	-3.332394	0.704704	-0.683123	0.218099	-0.163962	-0.175026	0.970815	-0.350641	0.930205	0.108484	-0.922045	-0.322620	-0.213889
25264	9.638386	1.372435	-3.211925	0.576129	-0.687245	0.247024	-0.171211	-0.174929	0.969581	-0.355545	0.928767	0.104782	-0.918844	-0.326790	-0.221210
25265	9.104592	1.124570	-2.812685	0.469235	-0.698389	0.277349	-0.178676	-0.174537	0.968304	-0.359209	0.927781	0.100950	-0.915993	-0.329786	-0.228468
25266	9.258852	1.106228	-2.247132	0.405145	-0.670603	0.326259	-0.186039	-0.173699	0.967067	-0.362334	0.927008	0.096800	-0.913293	-0.332393	-0.235396
25267	9.820675	1.356616	-1.047562	0.246440	-0.623588	0.318766	-0.192999	-0.172759	0.965871	-0.363929	0.926768	0.093045	-0.911212	-0.333550	-0.241737
25268	10.584728	2.178625	0.644248	-0.062361	-0.513580	0.221053	-0.198532	-0.172386	0.964815	-0.362941	0.927357	0.091010	-0.910417	-0.332103	-0.246676
25269	11.005359	2.636137	1.924399	-0.377330	-0.317834	0.072972	-0.201753	-0.172755	0.964081	-0.359500	0.928680	0.091179	-0.911074	-0.328192	-0.249470
25270	10.985454	2.230128	2.799765	-0.492639	-0.104642	-0.047795	-0.202588	-0.173508	0.963770	-0.355118	0.930202	0.092817	-0.912606	-0.323449	-0.250064
25271	10.519340	1.670086	3.443657	-0.299312	0.073869	-0.117419	-0.201530	-0.174315	0.963846	-0.352673	0.930950	0.094626	-0.913788	-0.320852	-0.249090
25272	10.247732	1.290302	3.791990	0.120172	0.202556	-0.118962	-0.199310	-0.174738	0.964231	-0.354022	0.930356	0.095422	-0.913753	-0.322341	-0.247290
25273	10.130924	0.989107	3.639731	0.491008	0.304504	-0.102670	-0.196206	-0.174631	0.964887	-0.358713	0.928589	0.095119	-0.912594	-0.327454	-0.244837
25274	10.100757	0.940902	3.060144	0.749869	0.394875	-0.083290	-0.192357	-0.174063	0.965765	-0.365724	0.925960	0.094045	-0.910629	-0.335113	-0.241773
25275	10.559741	1.178727	1.934677	0.912741	0.461945	-0.063171	-0.187974	-0.173015	0.966815	-0.374202	0.922735	0.092372	-0.908096	-0.344421	-0.238193
25276	10.908018	1.351573	0.521931	1.064743	0.518718	-0.039719	-0.183173	-0.171535	0.968000	-0.383943	0.918942	0.090189	-0.905006	-0.355136	-0.234185
25277	11.336463	1.240536	-1.070693	1.242626	0.503164	-0.014194	-0.178520	-0.169891	0.969158	-0.395597	0.914256	0.087397	-0.900907	-0.367794	-0.230421
25278	12.720486	0.513896	-2.502421	1.406167	0.430108	0.039270	-0.174867	-0.167891	0.970172	-0.408176	0.909054	0.083744	-0.895999	-0.381357	-0.227492
25279	12.778135	0.344998	-2.879146	1.334414	0.453660	0.063833	-0.171170	-0.165513	0.971240	-0.420087	0.903950	0.080010	-0.891195	-0.394310	-0.224259
25280	11.822130	1.355146	-2.204347	0.947582	0.428080	0.034673	-0.167563	-0.163464	0.972215	-0.428472	0.900224	0.077511	-0.887882	-0.403579	-0.220884
25281	11.468978	2.443394	-1.030517	0.424824	0.418007	0.021692	-0.163996	-0.161580	0.973138	-0.432454	0.898422	0.076295	-0.886616	-0.408326	-0.217213
25282	11.389061	3.074573	0.932701	-0.106337	0.480335	-0.006558	-0.159760	-0.159649	0.974161	-0.431537	0.898843	0.076535	-0.887836	-0.408159	-0.212494
25283	11.318627	3.148638	2.954343	-0.516986	0.682185	-0.025041	-0.153706	-0.157103	0.975548	-0.427138	0.900836	0.077772	-0.891026	-0.404739	-0.205569
25284	11.011171	3.336986	3.839596	-0.817847	0.985789	-0.036860	-0.144796	-0.153446	0.977491	-0.419901	0.904062	0.079719	-0.895945	-0.398907	-0.195337
25285	10.443534	2.804700	3.238712	-1.113896	1.301348	-0.020789	-0.133174	-0.148385	0.979922	-0.409776	0.908504	0.081881	-0.902412	-0.390644	-0.181793
25286	9.920585	1.106651	2.976698	-1.448660	1.527352	0.034631	-0.119524	-0.142156	0.982601	-0.396621	0.914131	0.084005	-0.910168	-0.379679	-0.165643
25287	10.082736	-0.842127	2.978114	-1.590805	1.742296	0.127398	-0.104121	-0.134449	0.985435	-0.382177	0.920157	0.085162	-0.918205	-0.367743	-0.147191
25288	10.374350	-1.775277	2.799786	-1.448796	1.934185	0.182918	-0.087030	-0.125721	0.988241	-0.368666	0.925641	0.085291	-0.925479	-0.356907	-0.126908
25289	10.940638	-1.441776	2.637449	-1.116192	2.096277	0.177467	-0.068260	-0.116555	0.990836	-0.358220	0.929788	0.084696	-0.931138	-0.349156	-0.105220
25290	11.407409	-0.366214	2.448361	-0.744937	2.216580	0.081791	-0.047919	-0.108071	0.992988	-0.351243	0.932460	0.084533	-0.935057	-0.344730	-0.082642
25291	11.518946	0.667357	2.215261	-0.527501	2.225731	-0.067841	-0.026955	-0.100948	0.994526	-0.346402	0.934188	0.085435	-0.937699	-0.342203	-0.060149
25292	11.833879	1.700816	1.958949	-0.555221	2.226533	-0.257078	-0.005219	-0.095733	0.995393	-0.341255	0.935822	0.088214	-0.939956	-0.339222	-0.037553
25293	11.338404	2.066873	1.263121	-0.906703	2.136623	-0.355138	0.016067	-0.091738	0.995654	-0.332832	0.938503	0.091843	-0.942849	-0.332861	-0.015454
25294	10.514285	1.150902	-0.250938	-1.111991	1.873079	-0.336886	0.034810	-0.088719	0.995448	-0.322270	0.941847	0.095211	-0.946007	-0.324118	0.004194
25295	10.953645	1.156197	-2.068609	-0.872338	1.705864	-0.306504	0.051918	-0.086036	0.994938	-0.314243	0.944266	0.098052	-0.947922	-0.317743	0.021988
25296	11.091278	1.518995	-2.668107	-0.894703	1.781481	-0.184765	0.069343	-0.082150	0.994205	-0.305670	0.946918	0.099562	-0.949609	-0.310803	0.040551
25297	10.864582	1.683378	-2.955360	-1.188590	1.858965	-0.070567	0.087096	-0.077025	0.993218	-0.294353	0.950501	0.099524	-0.951720	-0.301024	0.060113
25298	10.857371	-0.006674	-3.453209	-1.563211	1.947341	-0.035048	0.105706	-0.071591	0.991817	-0.279451	0.955071	0.098723	-0.954323	-0.287600	0.080951
25299	10.560273	-1.031682	-3.208531	-1.380662	1.929264	0.060283	0.123806	-0.065485	0.990143	-0.266342	0.959013	0.096729	-0.955894	-0.275693	0.101290
25300	10.373520	-0.752519	-2.828769	-0.960066	1.921736	0.164015	0.141697	-0.058651	0.988171	-0.257416	0.961719	0.093993	-0.955855	-0.267689	0.121175
25301	10.101714	-0.210102	-2.480001	-0.684309	1.870433	0.221068	0.158882	-0.051451	0.985956	-0.251002	0.963724	0.090738	-0.954858	-0.261893	0.140204
25302	10.332411	0.305000	-2.437426	-0.487101	1.743572	0.248925	0.174848	-0.044479	0.983590	-0.246804	0.965105	0.087517	-0.953161	-0.258056	0.157770
25303	10.535748	0.650037	-2.301198	-0.440653	1.673107	0.255633	0.189987	-0.037627	0.981065	-0.242958	0.966383	0.084114	-0.951250	-0.254339	0.174458
25304	10.028666	1.032715	-2.203553	-0.536218	1.609485	0.259476	0.204610	-0.031023	0.978352	-0.238410	0.967818	0.080549	-0.949366	-0.249730	0.190629
25305	9.598631	1.435545	-2.029207	-0.674212	1.501499	0.252481	0.218065	-0.024795	0.975619	-0.232519	0.969570	0.076612	-0.947830	-0.243556	0.205665
25306	9.108822	1.666122	-1.807632	-0.849727	1.397692	0.235669	0.230719	-0.019119	0.972833	-0.225036	0.971652	0.072466	-0.946640	-0.235641	0.219876
25307	8.743263	1.908699	-1.527480	-0.991567	1.276333	0.209735	0.242232	-0.014012	0.970117	-0.216341	0.973941	0.068086	-0.945791	-0.226369	0.232888
25308	8.545952	2.176089	-1.204752	-1.120132	1.185312	0.188496	0.252994	-0.009515	0.967421	-0.206255	0.976433	0.063542	-0.945226	-0.215612	0.245070
25309	7.911155	2.209644	-0.943308	-1.307021	1.104152	0.158852	0.262971	-0.005605	0.964788	-0.194208	0.979207	0.058624	-0.945055	-0.202786	0.256414
25310	7.565923	2.191874	-0.924566	-1.497190	0.966254	0.127774	0.271819	-0.002422	0.962345	-0.180438	0.982134	0.053437	-0.945281	-0.188169	0.266526
25311	7.615986	1.525906	-1.342439	-1.605359	0.863295	0.150401	0.279499	0.000560	0.960146	-0.165264	0.985103	0.047533	-0.945816	-0.171963	0.275428
25312	7.217769	0.835122	-1.501770	-1.587498	0.824136	0.143285	0.287024	0.003369	0.957918	-0.150693	0.987702	0.041679	-0.945996	-0.156314	0.284002
25313	6.907549	0.404313	-1.439610	-1.458826	0.738790	0.101250	0.293586	0.005384	0.955917	-0.136779	0.989931	0.036432	-0.946097	-0.141445	0.291367
25314	6.883358	-0.173562	-1.329890	-1.182846	0.620916	0.065496	0.299331	0.006919	0.954124	-0.125824	0.991527	0.032284	-0.945817	-0.129715	0.297665
25315	6.630661	-1.054261	-1.003716	-0.794121	0.488361	0.069555	0.303679	0.008192	0.952739	-0.118274	0.992553	0.029164	-0.945405	-0.121541	0.302386
25316	6.485404	-1.321437	-0.616496	-0.408806	0.293576	0.090335	0.306306	0.009485	0.951886	-0.114727	0.993029	0.027023	-0.944994	-0.117484	0.305259
25317	6.220772	-1.456320	-0.395403	-0.171660	0.079706	0.097253	0.306655	0.010421	0.951764	-0.112909	0.993278	0.025503	-0.945100	-0.115284	0.305770
25318	5.961271	-1.561877	-0.331619	-0.174031	-0.105309	0.043778	0.305568	0.010780	0.952109	-0.111439	0.993469	0.024516	-0.945627	-0.113593	0.304774
25319	6.476857	-2.512727	-0.431500	-0.110774	-0.242875	-0.029490	0.303177	0.010247	0.952879	-0.110234	0.993606	0.024388	-0.946537	-0.112434	0.302369
25320	7.447499	-3.475432	1.254702	0.119824	-0.194137	0.007735	0.301288	0.010149	0.953479	-0.111433	0.993467	0.024637	-0.946999	-0.113671	0.300451
25321	9.015418	-3.370892	6.034413	0.400743	0.042023	0.164252	0.301381	0.011735	0.953432	-0.115114	0.993058	0.024165	-0.946529	-0.117037	0.300640
25322	10.413686	-0.472963	11.856906	1.135779	0.203643	0.170776	0.303058	0.013724	0.952873	-0.126410	0.991639	0.025922	-0.944551	-0.128309	0.302259
25323	11.379186	1.995040	14.707968	1.305096	0.184846	-0.099157	0.304764	0.013027	0.952339	-0.138333	0.989909	0.030728	-0.942328	-0.141105	0.303491
25324	12.037488	2.885036	11.390744	0.523626	-0.003561	-0.458778	0.305329	0.008526	0.952209	-0.141907	0.989202	0.036646	-0.941614	-0.146314	0.303242
25325	11.295842	-0.236940	8.674801	-0.562505	0.025903	-0.561520	0.306314	0.003052	0.951926	-0.134706	0.990071	0.040172	-0.942351	-0.140536	0.303683
25326	9.406060	-4.082423	7.354193	-0.595300	0.083021	-0.430895	0.307618	-0.001058	0.951509	-0.127813	0.990891	0.042423	-0.942886	-0.134665	0.304681
25327	6.174808	-4.888842	7.775280	-0.060125	0.040572	-0.348078	0.308293	-0.004483	0.951281	-0.125827	0.991011	0.045448	-0.942933	-0.133708	0.304958
25328	4.071237	-4.362225	7.837324	0.319519	-0.211873	-0.347545	0.306693	-0.008169	0.951774	-0.127812	0.990553	0.049686	-0.943188	-0.136886	0.302751
25329	3.943813	-2.799380	5.736852	0.401605	-0.615614	-0.362808	0.301195	-0.012518	0.953480	-0.130523	0.989961	0.054228	-0.944587	-0.140785	0.296537
25330	5.859309	-1.665619	0.966294	0.334620	-1.223097	-0.285015	0.289954	-0.017036	0.956889	-0.132887	0.989440	0.057882	-0.947770	-0.143941	0.284628
25331	12.022480	-5.053760	-2.037725	0.705128	-1.686455	0.091443	0.273650	-0.018552	0.961651	-0.139716	0.988443	0.058827	-0.951628	-0.150456	0.267895
25332	19.140967	-5.179776	0.885800	1.228079	-1.239994	0.593702	0.260926	-0.014586	0.965249	-0.153038	0.986617	0.056278	-0.953151	-0.162404	0.255202
25333	17.726157	-0.849023	2.100297	1.593731	-0.238337	0.384511	0.257873	-0.011083	0.966115	-0.169224	0.983959	0.056457	-0.951244	-0.178049	0.251861
25334	11.974816	2.881457	-0.557453	1.887675	-0.188651	-0.430658	0.256800	-0.015625	0.966338	-0.186084	0.980361	0.065302	-0.948381	-0.196589	0.248850
25335	9.824729	2.571277	-3.430853	1.925382	-0.545419	-0.935938	0.253376	-0.025687	0.967027	-0.202231	0.976153	0.078917	-0.945993	-0.215558	0.242139
25336	8.827614	1.923884	-4.818068	2.474339	-0.772575	-0.935441	0.248022	-0.036509	0.968066	-0.223290	0.970228	0.093799	-0.942670	-0.239424	0.232486
25337	7.885688	2.545370	-4.254258	2.859858	-0.918703	-0.766726	0.241092	-0.046131	0.969405	-0.248297	0.962693	0.107563	-0.938202	-0.266633	0.220643
25338	7.628783	3.457113	-2.537019	2.736555	-1.058177	-0.598988	0.232698	-0.054795	0.971004	-0.272528	0.954737	0.119187	-0.933585	-0.292361	0.207232
25339	7.898932	4.229683	-1.024614	2.383798	-1.182467	-0.462375	0.222930	-0.062631	0.972820	-0.293828	0.947206	0.128315	-0.929498	-0.314448	0.192758
25340	8.640804	4.839133	-0.526028	2.002482	-1.317443	-0.362499	0.211751	-0.070279	0.974793	-0.311658	0.940482	0.135506	-0.926299	-0.332496	0.177245
25341	9.295162	5.417392	-0.520885	1.528294	-1.393946	-0.271040	0.199665	-0.077418	0.976801	-0.325394	0.935064	0.140623	-0.924258	-0.345923	0.161508
25342	9.966199	5.594271	-0.641027	0.860780	-1.406428	-0.193525	0.187251	-0.084105	0.978705	-0.333010	0.931894	0.143796	-0.924144	-0.352844	0.146490
25343	10.441719	5.110689	-0.492598	0.061008	-1.337119	-0.130483	0.175265	-0.089937	0.980405	-0.333435	0.931546	0.145062	-0.926338	-0.352326	0.133280
25344	10.685338	3.846079	-0.584404	-0.598376	-1.228204	-0.092049	0.164114	-0.095048	0.981852	-0.327758	0.933544	0.145155	-0.930399	-0.345631	0.122055
25345	10.637856	2.030728	-0.908920	-0.987109	-1.096213	-0.043601	0.153969	-0.099114	0.983092	-0.318550	0.936852	0.144343	-0.935318	-0.335389	0.112673
25346	10.173912	0.656759	-0.980933	-0.944098	-1.039451	0.000812	0.144168	-0.102507	0.984230	-0.309733	0.939968	0.143266	-0.939831	-0.325502	0.103763
25347	9.787196	-0.330014	-1.117770	-0.721870	-1.026671	-0.002454	0.134469	-0.105755	0.985258	-0.302991	0.942280	0.142494	-0.943459	-0.317685	0.094665
25348	9.347806	-0.477796	-0.956421	-0.359344	-1.077314	-0.013552	0.124280	-0.109246	0.986215	-0.299611	0.943396	0.142259	-0.945932	-0.313160	0.084514
25349	9.844058	0.253600	-0.145461	-0.041176	-1.162128	-0.020962	0.113303	-0.112985	0.987115	-0.299314	0.943477	0.142346	-0.947403	-0.311586	0.073081
25350	9.870636	0.929576	0.419682	0.024574	-1.123047	-0.062472	0.102792	-0.117033	0.987794	-0.299511	0.943326	0.142932	-0.948539	-0.310547	0.061914
25351	10.290177	0.753805	0.665622	0.088179	-1.075825	-0.180957	0.093089	-0.121991	0.988156	-0.300273	0.942817	0.144681	-0.949300	-0.310185	0.051135
25352	10.185809	1.322567	1.027457	0.110892	-0.984923	-0.255598	0.084453	-0.127419	0.988247	-0.301130	0.942152	0.147210	-0.949836	-0.310023	0.041198
25353	10.057719	1.512878	1.295764	0.129091	-0.909813	-0.288146	0.076648	-0.132865	0.988166	-0.302229	0.941357	0.150014	-0.950149	-0.310150	0.031997
25354	9.984637	0.859912	1.418432	0.251204	-0.806095	-0.309447	0.069875	-0.138246	0.987930	-0.304418	0.940156	0.153092	-0.949972	-0.311441	0.023609
25355	9.502380	0.630966	1.316249	0.523402	-0.714782	-0.263372	0.063867	-0.142869	0.987679	-0.309324	0.938123	0.155703	-0.948810	-0.315457	0.015722
25356	9.247763	1.065246	1.665255	0.837736	-0.676428	-0.195896	0.058017	-0.146826	0.987459	-0.317173	0.935166	0.157686	-0.946591	-0.322344	0.007686
25357	9.230960	1.855245	2.784257	1.099197	-0.619957	-0.151975	0.052617	-0.150180	0.987258	-0.327598	0.931320	0.159130	-0.943351	-0.331796	-0.000196
25358	9.174456	3.130460	3.064535	1.068595	-0.557751	-0.129539	0.047741	-0.153226	0.987037	-0.337625	0.927528	0.160318	-0.940069	-0.340902	-0.007451
25359	9.087249	3.574009	1.916724	1.026682	-0.527379	-0.141941	0.043253	-0.156269	0.986767	-0.347308	0.923738	0.161511	-0.936753	-0.349698	-0.014319
25360	8.929366	3.316057	0.118616	0.973131	-0.563358	-0.135660	0.038408	-0.159480	0.986454	-0.356381	0.920079	0.162625	-0.933551	-0.357799	-0.021497
25361	8.937702	2.551632	-1.752058	0.971966	-0.695362	-0.105648	0.032281	-0.162883	0.986117	-0.365503	0.916369	0.163327	-0.930250	-0.365701	-0.029952
25362	9.057608	2.039700	-3.286556	1.017494	-0.817443	-0.042592	0.024794	-0.166262	0.985770	-0.374965	0.912535	0.163341	-0.926707	-0.373679	-0.039717
25363	9.240311	2.037354	-3.957384	1.009810	-0.923645	0.043319	0.016055	-0.169282	0.985437	-0.384403	0.908773	0.162375	-0.923026	-0.381412	-0.050482
25364	9.600570	2.137396	-3.649832	0.866368	-0.976802	0.109188	0.006575	-0.172017	0.985072	-0.392425	0.905626	0.160763	-0.919761	-0.387624	-0.061549
25365	9.740327	2.327543	-3.084280	0.621831	-0.961108	0.165034	-0.002941	-0.174207	0.984705	-0.398217	0.903468	0.158646	-0.917286	-0.391660	-0.072029
25366	9.901260	2.242528	-2.564418	0.338329	-0.940304	0.202831	-0.012426	-0.176035	0.984306	-0.401328	0.902494	0.156337	-0.915850	-0.393086	-0.081862
25367	9.759633	1.867497	-2.102920	0.126993	-0.875532	0.201756	-0.021295	-0.177601	0.983872	-0.402520	0.902335	0.154170	-0.915163	-0.392745	-0.090703
25368	9.742689	1.555005	-1.494232	0.006788	-0.841822	0.196402	-0.029845	-0.179098	0.983378	-0.402556	0.902657	0.152180	-0.914909	-0.391323	-0.099037
25369	9.765864	1.290241	-0.691460	-0.062844	-0.815545	0.162416	-0.038003	-0.180765	0.982792	-0.401981	0.903182	0.150578	-0.914859	-0.389341	-0.106988
25370	10.073177	1.398968	0.083851	-0.126387	-0.776726	0.129209	-0.045685	-0.182581	0.982129	-0.400794	0.903906	0.149396	-0.915029	-0.386806	-0.114472
25371	10.093687	1.580330	0.532167	-0.204783	-0.690607	0.082086	-0.052375	-0.184448	0.981446	-0.398941	0.904830	0.148760	-0.915480	-0.383748	-0.120975
25372	9.819451	1.526303	0.647516	-0.211629	-0.617595	0.036295	-0.058231	-0.186449	0.980737	-0.397006	0.905705	0.148612	-0.915967	-0.380705	-0.126762
25373	9.669373	1.256427	0.478062	-0.124939	-0.596020	-0.007571	-0.063700	-0.188726	0.979962	-0.395932	0.906148	0.148773	-0.916068	-0.378521	-0.132444
25374	9.651881	1.019532	0.630541	0.074777	-0.593645	-0.031630	-0.069067	-0.191227	0.979113	-0.396660	0.905804	0.148928	-0.915364	-0.378088	-0.138413
25375	9.508957	1.067679	0.686181	0.270571	-0.580167	-0.022476	-0.074319	-0.193569	0.978268	-0.399223	0.904717	0.148687	-0.913837	-0.379497	-0.144515
25376	9.616038	1.456397	0.312829	0.477066	-0.644385	0.013331	-0.080309	-0.195873	0.977335	-0.403589	0.902924	0.147797	-0.911409	-0.382572	-0.151565
25377	9.486593	1.056249	-0.370808	0.661584	-0.696791	0.030534	-0.086804	-0.198220	0.976306	-0.409662	0.900415	0.146389	-0.908098	-0.387248	-0.159362
25378	9.248004	0.906553	-0.998629	0.943236	-0.825686	0.036404	-0.094489	-0.201088	0.975005	-0.418193	0.896802	0.144431	-0.903430	-0.394093	-0.168832
25379	8.931325	1.080518	-1.558917	1.199207	-0.956057	0.053751	-0.103354	-0.204357	0.973425	-0.429021	0.892106	0.141733	-0.897362	-0.402971	-0.179876
25380	9.115248	1.543711	-1.579959	1.353650	-1.103264	0.090294	-0.113665	-0.208024	0.971497	-0.441042	0.886770	0.138279	-0.890259	-0.412754	-0.192542
25381	9.598097	2.123049	-1.372023	1.324237	-1.148117	0.123294	-0.124426	-0.211670	0.969388	-0.452718	0.881472	0.134365	-0.882930	-0.422141	-0.205505
25382	9.971672	2.428503	-1.092724	1.178884	-1.110963	0.153855	-0.134959	-0.215024	0.967239	-0.462905	0.876775	0.130324	-0.876074	-0.430151	-0.217864
25383	9.814920	2.742147	-0.846988	1.008500	-1.015752	0.176985	-0.144683	-0.217827	0.965204	-0.471538	0.872757	0.126280	-0.869896	-0.436860	-0.228987
25384	9.749415	2.921714	-0.511422	0.782556	-0.898091	0.215512	-0.153554	-0.219867	0.963369	-0.478022	0.869790	0.122316	-0.864822	-0.441729	-0.238661
25385	9.571831	2.436355	-0.202498	0.605017	-0.784085	0.246590	-0.161533	-0.221153	0.961768	-0.482926	0.867621	0.118395	-0.860633	-0.445338	-0.246950
25386	10.490457	2.541160	0.303535	0.497227	-0.725137	0.223384	-0.168902	-0.222429	0.960207	-0.486843	0.865894	0.114945	-0.857004	-0.448055	-0.254539
25387	11.172442	2.080547	0.762846	0.285294	-0.534247	0.200483	-0.174478	-0.223043	0.959067	-0.489014	0.865029	0.112210	-0.854648	-0.449419	-0.259999
25388	11.143756	1.821069	1.435141	0.137301	-0.357630	0.160503	-0.178375	-0.223236	0.958305	-0.489918	0.864768	0.110255	-0.853324	-0.449824	-0.263621
25389	10.932813	1.436329	1.951736	0.065215	-0.232135	0.116134	-0.180944	-0.223225	0.957826	-0.490350	0.864697	0.108889	-0.852535	-0.449967	-0.265920
25390	10.967689	1.145521	1.832040	0.137120	-0.156892	0.093722	-0.182799	-0.223095	0.957504	-0.491363	0.864287	0.107569	-0.851556	-0.450818	-0.267611
25391	11.046661	0.596413	0.818172	0.374081	-0.156155	0.092869	-0.184594	-0.222941	0.957195	-0.494476	0.862754	0.105585	-0.849363	-0.453820	-0.269499
25392	10.530211	0.495131	-0.081340	0.768044	-0.264649	0.094102	-0.187363	-0.223313	0.956570	-0.500823	0.859454	0.102545	-0.845028	-0.459859	-0.272870
25393	9.662120	1.386840	-0.132525	1.113596	-0.505728	0.068404	-0.191967	-0.225010	0.955259	-0.510186	0.854379	0.098722	-0.838367	-0.468408	-0.278810
25394	10.081160	2.211863	-0.184222	1.253326	-0.719962	0.040324	-0.198241	-0.228046	0.953255	-0.520580	0.848541	0.094735	-0.830480	-0.477465	-0.286932
25395	11.188382	2.665725	-1.263711	1.294068	-0.826383	0.030550	-0.205230	-0.231712	0.950889	-0.531329	0.842309	0.090577	-0.821931	-0.486646	-0.295982
25396	11.622097	2.607884	-2.236360	1.112914	-0.779294	0.077640	-0.212080	-0.234857	0.948612	-0.540285	0.837030	0.086441	-0.814318	-0.494189	-0.304408
25397	11.823174	2.591395	-2.561465	0.878321	-0.632689	0.136239	-0.217952	-0.236809	0.946794	-0.547234	0.832918	0.082353	-0.808104	-0.500169	-0.311126
25398	11.848224	3.340191	-1.840183	0.510141	-0.357687	0.181727	-0.221893	-0.237069	0.945813	-0.550960	0.830786	0.078979	-0.804492	-0.503580	-0.314961
25399	12.050889	3.621886	-1.067356	-0.046987	-0.002556	0.230212	-0.223178	-0.235115	0.945998	-0.550181	0.831501	0.076861	-0.804669	-0.503316	-0.314928
25400	11.710386	3.019310	0.537758	-0.670826	0.456148	0.249090	-0.220919	-0.230730	0.947607	-0.544226	0.835440	0.076541	-0.809329	-0.498803	-0.310134
25401	10.953656	2.172686	2.192696	-1.292995	0.852042	0.241501	-0.215281	-0.224437	0.950412	-0.533293	0.842317	0.078113	-0.818079	-0.490031	-0.301025
25402	10.766442	1.504970	3.167744	-1.774263	1.199483	0.202037	-0.206518	-0.216897	0.954100	-0.518259	0.851345	0.081359	-0.829914	-0.477669	-0.288227
25403	10.675862	0.116260	3.395106	-1.990040	1.493514	0.172030	-0.194886	-0.208326	0.958446	-0.501405	0.861008	0.085194	-0.842978	-0.463967	-0.272254
25404	10.733764	-1.865213	3.242967	-1.880621	1.731179	0.205466	-0.181255	-0.198599	0.963175	-0.485062	0.870029	0.088112	-0.855489	-0.451229	-0.254030
25405	10.879147	-3.043292	2.808626	-1.362722	1.924658	0.256334	-0.165895	-0.187666	0.968122	-0.473068	0.876534	0.088848	-0.865266	-0.443248	-0.234192
25406	10.979057	-2.790218	2.834205	-0.611728	2.104844	0.252556	-0.148862	-0.176106	0.973050	-0.467376	0.879697	0.087709	-0.871435	-0.441724	-0.213261
25407	11.068966	-1.525515	2.875840	0.087354	2.285791	0.182303	-0.129730	-0.164235	0.977853	-0.468106	0.879515	0.085616	-0.874098	-0.446632	-0.190979
25408	11.199270	-0.158372	2.796443	0.524658	2.417018	0.011416	-0.108708	-0.153209	0.982196	-0.472699	0.877162	0.084507	-0.874493	-0.455097	-0.167777
25409	11.435050	0.910988	2.374815	0.675730	2.502938	-0.231570	-0.085689	-0.143583	0.985922	-0.479082	0.873588	0.085586	-0.873578	-0.465003	-0.143645
25410	11.434264	1.665908	1.020275	0.574025	2.448951	-0.465290	-0.062123	-0.136121	0.988743	-0.484460	0.870237	0.089368	-0.872605	-0.473454	-0.120007
25411	11.438711	1.715660	-0.846480	0.423853	2.270239	-0.581588	-0.039453	-0.130191	0.990704	-0.488713	0.867310	0.094513	-0.871552	-0.480441	-0.097844
25412	12.458413	1.726995	-2.039986	0.264865	2.235658	-0.613763	-0.017026	-0.124682	0.992051	-0.491218	0.865241	0.100314	-0.870870	-0.485606	-0.075978
25413	13.451962	2.201873	-3.707322	0.256000	2.480519	-0.584664	0.007475	-0.117459	0.993050	-0.493728	0.863155	0.105811	-0.869584	-0.491088	-0.051541
25414	13.832816	3.163425	-4.204423	0.068189	2.778003	-0.465963	0.033864	-0.107757	0.993600	-0.494252	0.862285	0.110361	-0.868659	-0.494827	-0.024059
25415	12.364848	2.238557	-3.901171	-0.431544	2.882688	-0.317345	0.060502	-0.096077	0.993533	-0.490586	0.863979	0.113423	-0.869290	-0.494276	0.005138
25416	12.748022	1.627137	-3.301386	-0.850090	2.726754	-0.125444	0.084789	-0.083725	0.992875	-0.483126	0.868038	0.114455	-0.871436	-0.489388	0.033150
25417	12.555966	1.053568	-2.864583	-1.187831	2.598506	-0.042655	0.107691	-0.071325	0.991623	-0.472934	0.873666	0.114201	-0.874492	-0.481271	0.060354
25418	12.530974	1.497751	-2.795816	-1.368046	2.493632	0.000368	0.129483	-0.059421	0.989800	-0.460980	0.880168	0.113143	-0.877913	-0.470928	0.086575
25419	11.650077	1.630488	-3.072746	-1.523999	2.446843	0.075486	0.150670	-0.047216	0.987456	-0.447889	0.887202	0.110763	-0.881302	-0.458959	0.112527
25420	10.960494	1.772321	-3.198143	-1.723993	2.349051	0.154138	0.170683	-0.035200	0.984697	-0.432945	0.895043	0.107040	-0.885114	-0.444589	0.137529
25421	10.389331	1.372414	-3.426200	-1.881384	2.277017	0.207890	0.189992	-0.023240	0.981511	-0.416822	0.903239	0.102071	-0.888911	-0.428508	0.161921
25422	9.630696	1.323475	-3.366823	-1.911329	2.166692	0.248772	0.208219	-0.011849	0.978010	-0.400331	0.911299	0.096272	-0.892401	-0.411574	0.185007
25423	9.026130	1.282106	-3.380133	-1.877793	2.037619	0.285203	0.225302	-0.000884	0.974288	-0.384341	0.918822	0.089712	-0.895277	-0.394672	0.206673
25424	8.495707	1.365151	-3.184414	-1.884267	1.889718	0.345093	0.240895	0.009627	0.970503	-0.368290	0.926067	0.082230	-0.897960	-0.377236	0.226631
25425	7.602946	1.153653	-2.972483	-1.963787	1.761167	0.358591	0.255424	0.019570	0.966631	-0.351672	0.933191	0.074034	-0.900603	-0.358847	0.245241
25426	6.739747	1.035568	-3.202207	-2.021215	1.571368	0.338327	0.268386	0.028263	0.962897	-0.334368	0.940157	0.065602	-0.903420	-0.339569	0.261775
25427	6.410627	0.512165	-3.684503	-2.024608	1.319314	0.362398	0.279118	0.036146	0.959576	-0.317175	0.946677	0.056599	-0.906363	-0.320151	0.275699
25428	5.971337	-0.065087	-3.837816	-1.932493	1.138375	0.354472	0.288307	0.043088	0.956568	-0.300681	0.952530	0.047718	-0.909104	-0.301379	0.287577
25429	5.741041	-0.061274	-3.771688	-1.757902	0.963537	0.331684	0.296075	0.049178	0.953898	-0.285770	0.957491	0.039335	-0.911414	-0.284241	0.297543
25430	5.791202	0.110325	-3.934059	-1.480838	0.784700	0.304892	0.302334	0.054317	0.951653	-0.273216	0.961423	0.031924	-0.913207	-0.269659	0.305511
25431	6.131131	-0.061680	-3.905806	-1.041734	0.653315	0.240014	0.307624	0.058447	0.949711	-0.264538	0.964015	0.026361	-0.913995	-0.259344	0.312015
25432	5.936462	-0.127565	-3.742625	-0.516784	0.411245	0.193749	0.310826	0.061413	0.948481	-0.260459	0.965214	0.022859	-0.914083	-0.254145	0.316010
25433	5.658106	-0.474900	-3.455843	-0.029885	0.104868	0.100969	0.311484	0.062732	0.948178	-0.260591	0.965204	0.021748	-0.913822	-0.253861	0.316993
25434	5.682660	-0.896239	-2.942618	0.458465	-0.230693	0.000236	0.309328	0.062184	0.948920	-0.264825	0.964018	0.023154	-0.913337	-0.258460	0.314666
25435	6.462337	-1.629581	-2.091528	0.864113	-0.493914	-0.032142	0.304863	0.060647	0.950463	-0.272697	0.961746	0.026101	-0.912521	-0.267146	0.309740
25436	6.982986	-1.648587	-0.814542	0.949578	-0.605083	0.094562	0.299034	0.059951	0.952357	-0.281689	0.959095	0.028073	-0.911718	-0.276663	0.303689
25437	7.357158	-2.578426	-0.833254	0.794891	-0.620628	0.210923	0.292728	0.060301	0.954292	-0.289641	0.956714	0.028393	-0.911273	-0.284713	0.297523
25438	7.911740	-3.985014	1.248522	1.045472	-0.653123	0.409584	0.285523	0.062359	0.956341	-0.300390	0.953419	0.027515	-0.910078	-0.295132	0.290955
25439	8.886983	-1.408059	5.407111	1.369438	-0.696089	0.533054	0.277507	0.065413	0.958494	-0.314437	0.948915	0.026278	-0.907810	-0.308678	0.283899
25440	10.824744	0.797008	13.495343	1.525337	-0.609672	0.365635	0.270754	0.066984	0.960315	-0.329305	0.943837	0.027010	-0.904572	-0.323550	0.277606
25441	11.906027	4.194686	16.266143	0.955267	-0.386871	-0.023261	0.267290	0.065599	0.961381	-0.337995	0.940676	0.029786	-0.902394	-0.332903	0.273605
25442	13.365323	6.630596	15.022778	-0.856227	-0.447273	-0.431592	0.264633	0.060098	0.962475	-0.329146	0.943751	0.031570	-0.906439	-0.325149	0.269529
25443	13.775621	2.638122	12.491607	-1.941882	-0.081425	-0.577913	0.265705	0.054473	0.962514	-0.310077	0.950179	0.031822	-0.912827	-0.306909	0.269358
25444	11.416530	-3.030114	11.855083	-1.948739	0.291703	-0.455575	0.269694	0.051038	0.961592	-0.291062	0.956206	0.030881	-0.917904	-0.288211	0.272739
25445	7.647876	-6.135008	11.084733	-1.227540	0.519331	-0.226861	0.275088	0.050465	0.960094	-0.279328	0.959740	0.029587	-0.919947	-0.276320	0.278109
25446	4.175158	-6.615918	9.292693	-0.477441	0.571411	-0.022477	0.280357	0.051855	0.958494	-0.274918	0.961048	0.028420	-0.919685	-0.271475	0.283692
25447	1.208674	-4.076986	5.420155	0.001354	0.066151	-0.045226	0.281068	0.051793	0.958289	-0.275037	0.961004	0.028730	-0.919432	-0.271640	0.284353
25448	4.574434	-4.711471	-0.138267	0.438906	-1.125633	-0.158843	0.271099	0.047223	0.961392	-0.278682	0.959869	0.031436	-0.921326	-0.276445	0.273380
25449	15.384600	-5.927223	0.638467	1.217454	-1.653263	0.084700	0.255599	0.043579	0.965800	-0.290395	0.956313	0.033703	-0.922139	-0.289078	0.257088
25450	22.692075	-2.720678	4.222063	1.364081	-0.679404	0.356355	0.248233	0.045009	0.967654	-0.303899	0.952109	0.033673	-0.919796	-0.302428	0.250024
25451	19.246022	1.794847	0.224412	1.494311	0.217881	0.015000	0.250161	0.046062	0.967108	-0.317931	0.947387	0.037116	-0.914516	-0.316759	0.251644
25452	11.925894	2.397597	-4.738946	1.567378	0.065194	-0.707408	0.252999	0.039627	0.966655	-0.330488	0.942596	0.047857	-0.909269	-0.331575	0.251572
25453	7.830125	1.427967	-5.522709	1.624175	-0.397837	-1.170620	0.253302	0.027480	0.966997	-0.342508	0.937395	0.063080	-0.904724	-0.347182	0.246857
25454	5.899632	0.464741	-7.529831	2.282908	-0.794298	-1.116579	0.250012	0.014251	0.968138	-0.360327	0.929443	0.079370	-0.898698	-0.368690	0.237507
25455	5.312152	0.680819	-7.074012	2.861991	-1.051286	-0.845011	0.243721	0.002603	0.969842	-0.384061	0.918505	0.094049	-0.890560	-0.395400	0.224858
25456	5.852372	2.753259	-4.323579	2.618147	-1.239373	-0.591173	0.235010	-0.007811	0.971962	-0.405909	0.907811	0.105440	-0.883181	-0.419307	0.210174
25457	7.629912	4.514669	-2.882030	2.154746	-1.415689	-0.383730	0.224104	-0.017207	0.974413	-0.424171	0.898451	0.113420	-0.877415	-0.438736	0.194048
25458	10.091551	4.759118	-2.342121	1.682037	-1.585915	-0.182698	0.210951	-0.025885	0.977154	-0.438541	0.890894	0.118274	-0.873602	-0.453472	0.176584
25459	12.113197	4.128663	-2.354034	1.154336	-1.615418	-0.018062	0.196894	-0.033345	0.979858	-0.448709	0.885544	0.120300	-0.871719	-0.463357	0.159396
25460	12.621533	3.627674	-1.709547	0.619617	-1.486082	0.078788	0.183527	-0.039541	0.982219	-0.454299	0.882673	0.120420	-0.871740	-0.468322	0.144031
25461	11.830008	3.469217	-0.951146	0.116694	-1.307962	0.101975	0.171605	-0.044693	0.984152	-0.455597	0.882129	0.119501	-0.873489	-0.468883	0.131016
25462	10.374754	3.332594	-0.496874	-0.306876	-1.166589	0.045026	0.161135	-0.049716	0.985679	-0.453024	0.883571	0.118624	-0.876815	-0.465651	0.119852
25463	9.518037	3.218868	-0.386104	-0.613281	-1.122864	-0.007352	0.151250	-0.054916	0.986969	-0.447698	0.886375	0.117927	-0.881300	-0.459700	0.109478
25464	9.204378	2.642574	-0.130105	-0.906300	-1.075804	-0.015747	0.141752	-0.059924	0.988087	-0.439699	0.890481	0.117085	-0.886888	-0.451058	0.099879
25465	9.277094	1.611224	0.269841	-1.051808	-1.012944	-0.006264	0.132717	-0.064450	0.989056	-0.430391	0.895147	0.116083	-0.892832	-0.441087	0.091062
25466	9.304702	0.902010	0.431863	-1.086471	-0.933377	0.031404	0.124167	-0.068205	0.989914	-0.420736	0.899893	0.114776	-0.898645	-0.430744	0.083041
25467	9.858121	0.649047	0.654632	-0.998631	-0.908249	0.034955	0.115787	-0.071711	0.990682	-0.411834	0.904152	0.113581	-0.903873	-0.421148	0.075155
25468	10.295214	0.021906	0.829761	-0.856472	-0.836280	0.010323	0.108112	-0.075072	0.991300	-0.404122	0.907721	0.112816	-0.908294	-0.412803	0.067798
25469	10.206646	-0.235888	0.802268	-0.576644	-0.757210	-0.062495	0.101426	-0.078693	0.991726	-0.398871	0.910018	0.113003	-0.911381	-0.407032	0.060911
25470	9.642092	-0.452166	0.317484	-0.212837	-0.763915	-0.142025	0.094968	-0.083052	0.992010	-0.396826	0.910757	0.114238	-0.912968	-0.404504	0.053536
25471	9.597399	-0.389916	-0.097173	0.151946	-0.840399	-0.208883	0.088078	-0.088299	0.992192	-0.398091	0.909942	0.116318	-0.913108	-0.405228	0.044995
25472	9.599357	-0.284738	-0.457360	0.463519	-0.898619	-0.272465	0.080913	-0.094398	0.992241	-0.402126	0.907798	0.119156	-0.912002	-0.408647	0.035493
25473	9.453437	-0.028044	-0.689710	0.790737	-0.923773	-0.315063	0.073731	-0.100996	0.992151	-0.409157	0.904210	0.122451	-0.909480	-0.414974	0.025345
25474	9.351606	0.517633	-0.582805	0.999076	-0.984986	-0.305194	0.065997	-0.107843	0.991975	-0.418048	0.899697	0.125624	-0.906025	-0.422984	0.014293
25475	9.359010	1.081638	-0.279836	1.117557	-0.998903	-0.290098	0.058146	-0.114656	0.991702	-0.428044	0.894572	0.128524	-0.901885	-0.431966	0.002938
25476	9.320084	1.789089	-0.129681	1.186680	-0.992560	-0.242942	0.050214	-0.121125	0.991366	-0.438621	0.889096	0.130846	-0.897268	-0.441404	-0.008483
25477	9.135701	2.416453	-0.124516	1.206093	-0.978997	-0.182318	0.042215	-0.127053	0.990997	-0.449399	0.883464	0.132410	-0.892333	-0.450943	-0.019802
25478	9.187770	2.648683	-0.277171	1.114841	-0.993623	-0.124885	0.033882	-0.132645	0.990584	-0.459306	0.878218	0.133309	-0.887632	-0.459498	-0.031169
25479	9.687096	2.676055	-0.375360	0.990917	-0.992039	-0.078393	0.025412	-0.137878	0.990123	-0.468117	0.873501	0.133652	-0.883301	-0.466890	-0.042346
25480	10.021752	2.535642	-0.434062	0.790048	-0.938555	-0.035307	0.017247	-0.142564	0.989635	-0.475105	0.869732	0.133571	-0.879760	-0.472484	-0.052733
25481	9.983311	2.431942	-0.308955	0.579037	-0.858639	0.005172	0.009628	-0.146550	0.989156	-0.480244	0.866974	0.133122	-0.877082	-0.476319	-0.062032
25482	9.900686	2.846961	0.071463	0.397222	-0.778924	0.035654	0.002575	-0.149931	0.988693	-0.483757	0.865122	0.132452	-0.875199	-0.478628	-0.070303
25483	9.584368	3.242527	0.343924	0.207787	-0.650009	0.048963	-0.003400	-0.152583	0.988285	-0.485620	0.864184	0.131752	-0.874164	-0.479483	-0.077035
25484	9.144646	2.857401	-0.833517	0.125976	-0.585750	0.039132	-0.008766	-0.155025	0.987872	-0.486747	0.863633	0.131209	-0.873499	-0.479694	-0.083029
25485	8.795006	1.635325	-2.490432	0.226989	-0.730165	0.051584	-0.015444	-0.158052	0.987310	-0.488760	0.862611	0.130445	-0.872282	-0.480543	-0.090572
25486	8.944610	0.820445	-3.187033	0.343123	-0.907788	0.062045	-0.023716	-0.161858	0.986529	-0.491766	0.861051	0.129449	-0.870404	-0.482071	-0.100017
25487	9.297724	0.645369	-3.158177	0.430077	-1.051611	0.063981	-0.033229	-0.166360	0.985505	-0.495514	0.859071	0.128309	-0.867964	-0.484068	-0.110979
25488	9.783612	0.915470	-2.685439	0.397790	-1.149126	0.064201	-0.043566	-0.171352	0.984246	-0.498964	0.857243	0.127155	-0.865527	-0.485564	-0.122845
25489	9.873721	0.846205	-2.238637	0.347812	-1.127226	0.047903	-0.053609	-0.176395	0.982858	-0.501969	0.855631	0.126182	-0.863223	-0.486600	-0.134414
25490	9.845538	0.716642	-1.639159	0.276723	-1.086938	0.048826	-0.063284	-0.181241	0.981400	-0.504352	0.854365	0.125258	-0.861176	-0.487045	-0.145477
25491	9.731008	0.953502	-1.320521	0.302170	-1.052640	0.047143	-0.072636	-0.185943	0.979872	-0.506940	0.852974	0.124284	-0.858915	-0.487709	-0.156219
25492	9.805997	0.765389	-1.182758	0.313784	-1.014836	0.039191	-0.081598	-0.190535	0.978283	-0.509626	0.851510	0.123336	-0.856518	-0.488494	-0.166583
25493	9.795236	0.450903	-0.871568	0.404507	-0.968816	0.056729	-0.090232	-0.194766	0.976691	-0.513059	0.849635	0.122030	-0.853597	-0.490089	-0.176590
25494	10.043300	0.355924	0.017583	0.464573	-0.923281	0.065905	-0.098496	-0.198714	0.975096	-0.516978	0.847477	0.120486	-0.850313	-0.492236	-0.186204
25495	10.065402	0.904800	1.029365	0.536310	-0.806875	0.040092	-0.105606	-0.202326	0.973607	-0.521520	0.844899	0.119010	-0.846679	-0.495187	-0.194744
25496	9.863735	1.562381	1.813612	0.487926	-0.649764	0.005744	-0.111186	-0.205477	0.972325	-0.525659	0.842482	0.117929	-0.843398	-0.498000	-0.201683
25497	9.602213	2.394909	2.617286	0.431088	-0.513634	-0.033357	-0.115384	-0.208285	0.971238	-0.529371	0.840242	0.117303	-0.840508	-0.500610	-0.207211
25498	9.485610	3.132624	2.878931	0.414075	-0.392070	-0.086499	-0.118274	-0.210953	0.970315	-0.532968	0.837977	0.117217	-0.837828	-0.503283	-0.211542
25499	9.544801	3.341189	1.542007	0.531512	-0.365094	-0.129149	-0.120677	-0.213837	0.969387	-0.537621	0.834993	0.117263	-0.834506	-0.507012	-0.215727
25500	9.558630	2.193853	-0.618439	0.895453	-0.482165	-0.125216	-0.124068	-0.217313	0.968185	-0.545244	0.830148	0.116460	-0.829045	-0.513448	-0.221484
25501	8.979376	0.953753	-2.896590	1.354226	-0.676219	-0.095026	-0.129161	-0.221564	0.966554	-0.556590	0.822893	0.114255	-0.820685	-0.523217	-0.229606
25502	8.690242	-0.123396	-5.306787	1.793284	-0.968798	0.002441	-0.137131	-0.226649	0.964275	-0.571223	0.813397	0.109952	-0.809259	-0.535738	-0.241009
25503	9.266512	-0.471897	-6.267640	1.978475	-1.224146	0.164947	-0.147954	-0.231921	0.961417	-0.586916	0.803020	0.103389	-0.796015	-0.548974	-0.254928
25504	9.871480	0.515620	-5.639444	1.775233	-1.275480	0.311413	-0.159937	-0.236485	0.958381	-0.600475	0.793897	0.095689	-0.783486	-0.560180	-0.268977
25505	10.399250	1.620421	-4.452772	1.359259	-1.242904	0.402865	-0.172099	-0.240283	0.955325	-0.610421	0.787171	0.088023	-0.773154	-0.568002	-0.282145
25506	10.720710	2.413834	-2.703202	0.886643	-1.147804	0.419806	-0.183567	-0.243509	0.952369	-0.616513	0.783125	0.081404	-0.765646	-0.572205	-0.293882
25507	11.093438	3.033827	-0.597416	0.454942	-1.003898	0.383650	-0.193652	-0.246233	0.949667	-0.619290	0.781443	0.076333	-0.760907	-0.573337	-0.303818
25508	11.236138	3.209515	1.403623	0.061496	-0.754992	0.307749	-0.201356	-0.248130	0.947569	-0.619164	0.781846	0.073163	-0.759007	-0.571969	-0.311062
25509	11.181924	3.518594	3.134135	-0.322704	-0.538575	0.214674	-0.206817	-0.249493	0.946034	-0.616309	0.784199	0.072079	-0.759862	-0.568142	-0.315950
25510	11.379178	3.141722	4.266352	-0.357059	-0.319292	0.105451	-0.209954	-0.250452	0.945089	-0.613388	0.786479	0.072154	-0.761364	-0.564557	-0.318748
25511	11.689248	2.975106	4.843942	-0.118802	-0.090564	0.013299	-0.210756	-0.250826	0.944811	-0.612508	0.787147	0.072339	-0.761850	-0.563458	-0.319529
25512	12.762230	2.712965	4.440585	-0.001459	0.127986	-0.052316	-0.209521	-0.250494	0.945174	-0.612621	0.787019	0.072777	-0.762100	-0.563785	-0.318355
25513	12.815647	1.786697	4.033523	0.057441	0.434867	-0.082607	-0.205712	-0.248647	0.946497	-0.613311	0.786433	0.073301	-0.762583	-0.565418	-0.314277
25514	12.459057	1.591087	4.985276	0.082963	0.685890	-0.066972	-0.200128	-0.245266	0.948574	-0.614095	0.785792	0.073616	-0.763437	-0.567782	-0.307876
25515	12.790982	1.460424	6.142696	0.029447	1.039113	-0.021793	-0.192048	-0.239468	0.951721	-0.614475	0.785491	0.073647	-0.765204	-0.570665	-0.298000
25516	12.515405	1.033140	6.261587	-0.079106	1.537219	0.053031	-0.180646	-0.230235	0.956221	-0.613786	0.786062	0.073310	-0.768527	-0.573672	-0.283314
25517	12.024237	0.139113	5.340530	-0.161482	2.022340	0.158529	-0.166009	-0.217277	0.961890	-0.612420	0.787235	0.072130	-0.772906	-0.577106	-0.263753
25518	11.695472	-0.898481	4.061469	-0.199307	2.427256	0.320200	-0.149205	-0.200681	0.968228	-0.610388	0.789050	0.069482	-0.777923	-0.580627	-0.240223
25519	11.714252	-1.710690	2.747048	-0.140465	2.721864	0.483181	-0.130881	-0.180902	0.974754	-0.608809	0.790651	0.064990	-0.782446	-0.584932	-0.213616
25520	11.703460	-1.169582	1.080050	0.095528	2.843707	0.498345	-0.111684	-0.160225	0.980742	-0.608973	0.790928	0.059867	-0.785289	-0.590560	-0.185907
25521	11.954316	-0.340118	-0.351323	0.556276	2.799807	0.315368	-0.091601	-0.140954	0.985769	-0.613242	0.787930	0.055680	-0.784566	-0.599415	-0.158614
25522	12.371026	0.755311	-0.688733	1.072530	2.732486	0.036731	-0.070510	-0.124100	0.989761	-0.621626	0.781471	0.053699	-0.780134	-0.611475	-0.132246
25523	12.275124	1.831256	-1.461343	1.285100	2.552665	-0.245623	-0.049115	-0.110094	0.992707	-0.631984	0.773065	0.054467	-0.773423	-0.624700	-0.107547
25524	12.020171	2.883599	-2.545443	1.297226	2.218099	-0.509849	-0.028855	-0.100001	0.994569	-0.642193	0.764329	0.058219	-0.766000	-0.637025	-0.086275
25525	12.009372	3.468694	-3.534584	1.160332	1.931839	-0.749729	-0.009260	-0.093150	0.995609	-0.651395	0.755977	0.064672	-0.758682	-0.647936	-0.067678
25526	11.754295	3.974467	-4.085625	0.649986	1.672222	-0.769791	0.008363	-0.088044	0.996081	-0.656343	0.751029	0.071895	-0.754416	-0.654372	-0.051506
25527	12.367291	4.177455	-5.312737	0.229693	1.483648	-0.759603	0.024544	-0.083882	0.996173	-0.658135	0.748717	0.079261	-0.752500	-0.657562	-0.036829
25528	12.221833	4.027925	-6.123200	-0.216391	1.750668	-0.664784	0.042033	-0.077335	0.996119	-0.656312	0.749585	0.085889	-0.753318	-0.657375	-0.019249
25529	12.011623	4.131033	-5.584779	-0.839158	1.958355	-0.517426	0.060207	-0.068293	0.995847	-0.649859	0.754583	0.091037	-0.757666	-0.652642	0.001050
25530	11.716380	4.160382	-3.874362	-1.661293	2.079306	-0.362150	0.078327	-0.057573	0.995264	-0.636975	0.765084	0.094387	-0.766895	-0.641351	0.023254
25531	11.763909	3.848760	-2.704899	-2.363083	2.079042	-0.212171	0.095729	-0.045970	0.994345	-0.618637	0.779838	0.095611	-0.779823	-0.624292	0.046215
25532	12.144467	3.248239	-2.281403	-2.775695	2.018668	-0.138295	0.112401	-0.034648	0.993059	-0.596674	0.796800	0.095336	-0.794573	-0.603248	0.068888
25533	11.810272	2.757203	-2.476413	-2.989983	1.958076	-0.070227	0.128505	-0.023558	0.991429	-0.572710	0.814398	0.093584	-0.809623	-0.579828	0.091162
25534	11.331684	2.368154	-2.825518	-3.187173	1.901150	-0.009685	0.144039	-0.012834	0.989489	-0.546684	0.832448	0.090378	-0.824857	-0.553955	0.112888
25535	10.571839	1.596679	-3.218556	-3.297646	1.823006	0.039236	0.158985	-0.002597	0.987278	-0.519384	0.850215	0.085875	-0.839621	-0.526429	0.133823
25536	9.930951	0.892422	-3.350350	-3.220653	1.738482	0.059352	0.173342	0.006854	0.984838	-0.492262	0.866706	0.080612	-0.853013	-0.498771	0.153610
25537	9.198672	0.497731	-3.303889	-3.039931	1.650065	0.099259	0.187016	0.015779	0.982230	-0.466403	0.881418	0.074644	-0.864577	-0.472074	0.172199
25538	8.657984	0.387467	-3.001730	-2.885025	1.534300	0.152777	0.199611	0.024212	0.979576	-0.441648	0.894617	0.067883	-0.874701	-0.446178	0.189269
25539	8.145044	0.458001	-2.666844	-2.772278	1.404087	0.175024	0.211180	0.031913	0.976926	-0.417688	0.906562	0.060676	-0.883708	-0.420864	0.204777
25540	7.643079	0.375639	-2.395262	-2.712244	1.292214	0.170887	0.221906	0.038783	0.974297	-0.394020	0.917560	0.053217	-0.891911	-0.395702	0.218893
25541	7.178493	0.058470	-2.374136	-2.602978	1.192235	0.151182	0.231978	0.044778	0.971690	-0.371095	0.927462	0.045854	-0.899152	-0.371226	0.231768
25542	6.777345	0.009948	-2.140269	-2.489805	1.113419	0.105320	0.241594	0.049799	0.969099	-0.348922	0.936345	0.038869	-0.905475	-0.347530	0.243592
25543	6.616473	-0.083858	-2.028469	-2.393602	1.016824	0.094838	0.250481	0.054130	0.966607	-0.327447	0.944329	0.031971	-0.911064	-0.324520	0.254261
25544	6.763138	-0.258722	-1.799746	-2.242345	0.931463	0.122533	0.258551	0.058253	0.964240	-0.307321	0.951279	0.024935	-0.915808	-0.302778	0.263857
25545	7.029979	-0.525070	-1.363014	-1.963903	0.897177	0.127065	0.266374	0.062112	0.961866	-0.289659	0.956953	0.018422	-0.919316	-0.283520	0.272899
25546	6.721080	-0.422793	-0.659551	-1.642177	0.794975	0.127886	0.273284	0.065571	0.959696	-0.274934	0.961381	0.012604	-0.921807	-0.267297	0.280757
25547	6.501235	-0.532087	-0.086263	-1.294882	0.596848	0.084175	0.278534	0.067953	0.958019	-0.263238	0.964697	0.008107	-0.923647	-0.254445	0.286589
25548	6.894773	-0.674002	0.234853	-0.998055	0.341209	0.025656	0.281575	0.069096	0.957048	-0.254131	0.967157	0.004942	-0.925274	-0.244608	0.289887
25549	7.354578	-0.879646	0.257397	-0.828651	0.125558	-0.010576	0.282732	0.069311	0.956691	-0.246447	0.969153	0.002619	-0.926999	-0.236514	0.291092
25550	7.738216	-1.243670	-0.025654	-0.692308	-0.030941	-0.055963	0.282535	0.068741	0.956791	-0.239913	0.970794	0.001098	-0.928771	-0.229857	0.290775
25551	8.259723	-1.645000	-0.205512	-0.518550	-0.096139	-0.092176	0.281827	0.067645	0.957078	-0.234855	0.972030	0.000455	-0.930278	-0.224903	0.289831
25552	8.436343	-1.970457	-0.280874	-0.327649	-0.096345	-0.096347	0.281109	0.066538	0.957366	-0.231582	0.972815	0.000387	-0.931315	-0.221818	0.288876
25553	8.112497	-2.398086	-0.128062	-0.211874	-0.095010	-0.072042	0.280354	0.065651	0.957649	-0.229433	0.973324	0.000441	-0.932074	-0.219840	0.287938
25554	7.382845	-2.863954	0.061697	-0.117533	-0.123638	-0.044381	0.279257	0.064993	0.958014	-0.228261	0.973600	0.000487	-0.932691	-0.218813	0.286720
25555	7.012669	-3.040143	0.660785	-0.028005	-0.216577	-0.030747	0.277267	0.064255	0.958642	-0.227953	0.973672	0.000668	-0.933360	-0.218710	0.284614
25556	7.459778	-2.795855	1.922414	-0.005945	-0.275851	0.002418	0.274641	0.063720	0.959433	-0.227952	0.973672	0.000586	-0.934136	-0.218865	0.281935
25557	8.529962	-2.306955	3.858561	-0.091369	-0.262061	0.062039	0.272009	0.063801	0.960177	-0.227323	0.973819	-0.000309	-0.935059	-0.218187	0.279391
25558	9.843340	-1.784878	4.733590	-0.110533	-0.134563	0.117043	0.270440	0.064693	0.960561	-0.226655	0.973974	-0.001784	-0.935676	-0.217233	0.278064
25559	10.331431	-1.015831	5.431805	0.313699	-0.134511	0.086822	0.268943	0.065309	0.960939	-0.229898	0.973213	-0.001801	-0.935316	-0.220433	0.276753
25560	11.180982	0.049195	8.474683	0.719114	-0.126086	-0.074613	0.267892	0.064346	0.961298	-0.236466	0.971639	0.000860	-0.933979	-0.227545	0.275510
25561	10.950718	0.452849	8.794227	0.873920	0.005450	-0.332540	0.268704	0.061204	0.961276	-0.243814	0.969801	0.006406	-0.931854	-0.236094	0.275512
25562	10.643272	-0.012970	8.267666	0.732664	-0.020721	-0.491063	0.269676	0.056440	0.961296	-0.249361	0.968322	0.013101	-0.930104	-0.243243	0.275207
25563	10.332766	-0.694864	8.240566	0.702178	0.144963	-0.488307	0.272220	0.052156	0.960820	-0.254662	0.966830	0.019669	-0.927924	-0.250039	0.276473
25564	9.447409	0.651155	8.407011	0.629673	0.449204	-0.433060	0.277448	0.049152	0.959482	-0.259353	0.965445	0.025538	-0.925072	-0.255931	0.280609
25565	8.524263	1.901227	8.678760	0.281921	0.597493	-0.391370	0.283958	0.047007	0.957684	-0.260977	0.964878	0.030021	-0.922637	-0.258458	0.286253
25566	8.062068	1.567863	7.463507	-0.142965	0.545024	-0.365571	0.289887	0.044926	0.956006	-0.258658	0.965403	0.033064	-0.921445	-0.256863	0.291478
25567	7.618386	0.638703	5.330836	-0.392367	0.407227	-0.355740	0.294528	0.042628	0.954692	-0.254127	0.966528	0.035243	-0.921234	-0.252994	0.295503
25568	7.097880	-0.412514	3.545010	-0.365938	0.192533	-0.332247	0.297093	0.039942	0.954013	-0.249822	0.967574	0.037288	-0.921588	-0.249411	0.297438
25569	6.583928	-1.353026	1.749080	-0.167388	-0.053166	-0.266529	0.297246	0.037336	0.954071	-0.247617	0.968062	0.039263	-0.922134	-0.247915	0.296998
25570	5.852694	-1.943866	0.033333	0.184787	-0.294132	-0.212279	0.295014	0.034593	0.954867	-0.248742	0.967668	0.041794	-0.922548	-0.249845	0.294080
25571	5.388072	-2.752074	-1.050859	0.434422	-0.701840	-0.195661	0.289005	0.031044	0.956824	-0.252320	0.966604	0.044851	-0.923477	-0.254388	0.287187
25572	7.748520	-1.991943	-1.227816	0.637239	-1.137674	-0.155011	0.278839	0.026659	0.959968	-0.257818	0.964996	0.048089	-0.925083	-0.260906	0.275951
25573	11.027855	0.251597	0.966812	0.569534	-1.100313	-0.080870	0.268839	0.023095	0.962908	-0.263016	0.963478	0.050324	-0.926579	-0.266789	0.265094
25574	14.562497	1.075644	3.002723	0.288113	-0.841164	0.026879	0.260920	0.021140	0.965129	-0.265806	0.962688	0.050773	-0.928045	-0.269785	0.256804
25575	17.412304	0.345585	3.531902	-0.007775	-0.545800	0.155104	0.255413	0.021273	0.966598	-0.266274	0.962642	0.049174	-0.929442	-0.269940	0.251536
25576	17.654593	-0.298583	3.283223	0.017132	-0.384578	0.126607	0.251452	0.021496	0.967631	-0.266802	0.962558	0.047949	-0.930370	-0.270222	0.247773
25577	15.683225	-0.374605	2.587086	0.093156	-0.453920	-0.118897	0.247519	0.019237	0.968692	-0.267513	0.962295	0.049245	-0.931220	-0.271327	0.243332
25578	12.142277	-0.810091	0.818302	0.137946	-0.631631	-0.397138	0.242649	0.013740	0.970017	-0.267872	0.961975	0.053382	-0.932398	-0.272793	0.237103
25579	8.743573	-1.953031	-2.171840	0.382464	-0.882776	-0.577410	0.235939	0.005878	0.971750	-0.270201	0.960946	0.059792	-0.933447	-0.276675	0.228313
25580	7.177331	-3.538216	-5.214323	0.974466	-1.103435	-0.566091	0.227144	-0.002617	0.973858	-0.278032	0.958203	0.067423	-0.933329	-0.286078	0.216922
25581	7.117507	-3.301408	-5.555020	1.687685	-1.188918	-0.416624	0.217218	-0.009979	0.976072	-0.292984	0.953176	0.074946	-0.931116	-0.302253	0.204123
25582	7.507924	-0.587228	-3.165672	1.978088	-1.158352	-0.352793	0.207468	-0.016899	0.978096	-0.310664	0.946954	0.082257	-0.927602	-0.320925	0.191212
25583	8.176332	2.388561	-1.311390	1.810590	-1.149911	-0.421100	0.198124	-0.024550	0.979869	-0.326712	0.940864	0.089632	-0.924124	-0.337893	0.178387
25584	9.070459	4.106161	-0.774623	1.606699	-1.200738	-0.526991	0.188753	-0.033600	0.981450	-0.340560	0.935152	0.097512	-0.921081	-0.352649	0.165070
25585	10.257571	4.395632	-0.270540	1.299508	-1.217981	-0.560528	0.179446	-0.043105	0.982823	-0.351595	0.930246	0.104994	-0.918793	-0.364396	0.151774
25586	10.871556	4.033133	0.651449	0.957427	-1.119365	-0.545107	0.171056	-0.052254	0.983875	-0.359472	0.926446	0.111701	-0.917344	-0.372783	0.139690
25587	10.561321	3.659957	1.636805	0.766286	-0.951403	-0.526575	0.164199	-0.060632	0.984562	-0.365700	0.923242	0.117845	-0.916135	-0.379404	0.129422
25588	9.418373	3.935066	2.145748	0.778044	-0.844759	-0.491483	0.158227	-0.068358	0.985034	-0.372071	0.919937	0.123606	-0.914619	-0.386061	0.120125
25589	8.555868	3.714781	1.292301	0.818888	-0.866070	-0.395739	0.151754	-0.075307	0.985545	-0.379012	0.916443	0.128387	-0.912864	-0.393016	0.110532
25590	8.443688	2.706708	-0.189905	0.879768	-0.948192	-0.248144	0.144005	-0.081302	0.986231	-0.386708	0.912748	0.131710	-0.910889	-0.400351	0.100000
25591	8.607165	2.097350	-1.489138	0.854076	-1.021818	-0.070207	0.134935	-0.086022	0.987113	-0.394438	0.909225	0.133153	-0.908962	-0.407322	0.088756
25592	9.119357	1.801829	-2.197280	0.732510	-1.048044	0.082918	0.125033	-0.089533	0.988105	-0.401238	0.906282	0.132891	-0.907400	-0.413081	0.077391
25593	9.430554	1.894563	-2.415880	0.538522	-1.003338	0.139718	0.115318	-0.092398	0.989022	-0.406331	0.904163	0.131847	-0.906420	-0.417074	0.066722
25594	9.663121	1.921452	-2.506293	0.309088	-0.974482	0.115169	0.105962	-0.095396	0.989784	-0.409298	0.902970	0.130847	-0.906227	-0.418982	0.056635
25595	10.038861	1.468525	-2.476637	0.092542	-0.968036	0.083452	0.096788	-0.098673	0.990402	-0.410247	0.902658	0.130023	-0.906824	-0.418894	0.046886
25596	9.985391	0.711988	-2.206530	-0.094363	-0.933356	0.074061	0.087960	-0.101871	0.990901	-0.409497	0.903117	0.129197	-0.908061	-0.417135	0.037722
25597	10.130711	0.431210	-1.630362	-0.123986	-0.926024	0.026014	0.079378	-0.105469	0.991249	-0.408407	0.903659	0.128854	-0.909342	-0.415061	0.028656
25598	10.440419	0.671175	-0.835370	-0.125680	-0.872422	-0.061960	0.071638	-0.109607	0.991390	-0.407254	0.904104	0.129385	-0.910501	-0.413016	0.020130
25599	10.435023	1.270045	0.069463	-0.154801	-0.766681	-0.136940	0.065146	-0.113983	0.991345	-0.405763	0.904589	0.130672	-0.911654	-0.410764	0.012680
25600	10.018113	1.948386	0.802011	-0.220186	-0.682666	-0.158548	0.059505	-0.118177	0.991208	-0.403692	0.905298	0.132169	-0.912958	-0.408008	0.006163
25601	9.816347	2.236414	1.442883	-0.298286	-0.635377	-0.160673	0.054283	-0.122193	0.991021	-0.400888	0.906317	0.133708	-0.914518	-0.404546	0.000212
25602	9.797131	1.950444	1.680647	-0.372382	-0.558639	-0.161566	0.049760	-0.125872	0.990798	-0.397431	0.907608	0.135263	-0.916282	-0.400504	-0.004863
25603	9.442203	1.918379	1.863694	-0.333850	-0.492498	-0.146818	0.045764	-0.129147	0.990569	-0.394313	0.908753	0.136697	-0.917836	-0.396850	-0.009336
25604	9.345889	1.669218	1.447241	-0.197208	-0.493740	-0.137598	0.041717	-0.132315	0.990329	-0.392477	0.909346	0.138028	-0.918815	-0.394440	-0.013995
25605	9.508586	1.538471	0.870122	-0.017708	-0.548218	-0.131141	0.037136	-0.135643	0.990062	-0.392280	0.909240	0.139284	-0.919096	-0.393553	-0.019445
25606	9.763191	0.875546	-0.055304	0.262633	-0.575458	-0.146564	0.032372	-0.139209	0.989734	-0.394677	0.907996	0.140621	-0.918250	-0.395177	-0.025549
25607	9.112596	0.870235	-0.656025	0.569306	-0.660874	-0.151270	0.026854	-0.143180	0.989332	-0.399873	0.905519	0.141904	-0.916177	-0.399418	-0.032937
25608	8.907370	1.034470	-1.506375	0.816253	-0.808220	-0.136651	0.019959	-0.147633	0.988841	-0.407341	0.902028	0.142894	-0.913058	-0.405647	-0.042133
25609	8.861425	1.288603	-2.128890	1.047592	-0.949879	-0.097376	0.011648	-0.152376	0.988254	-0.416887	0.897590	0.143310	-0.908884	-0.413659	-0.053068
25610	9.027629	1.293281	-2.542552	1.154706	-1.076738	-0.047211	0.002032	-0.157265	0.987554	-0.427384	0.892683	0.143036	-0.904068	-0.422356	-0.065399
25611	9.348795	1.396090	-2.702424	1.169627	-1.134770	0.003568	-0.008278	-0.162054	0.986747	-0.437939	0.887701	0.142114	-0.898967	-0.430959	-0.078318
25612	9.470708	1.464171	-2.895480	1.082588	-1.140372	0.037735	-0.018724	-0.166645	0.985839	-0.447671	0.883049	0.140767	-0.894002	-0.438696	-0.091137
25613	9.576011	1.769849	-2.240533	0.931010	-1.150485	0.076809	-0.029399	-0.171035	0.984826	-0.455957	0.879071	0.139058	-0.889516	-0.444950	-0.103829
25614	9.796028	2.413033	-1.084244	0.637792	-1.054104	0.094539	-0.039248	-0.174884	0.983807	-0.461617	0.876378	0.137371	-0.886211	-0.448750	-0.115126
25615	9.966182	2.795169	-0.257356	0.353179	-0.911958	0.074603	-0.047737	-0.178316	0.982815	-0.464706	0.874932	0.136171	-0.884177	-0.450219	-0.124631
25616	10.048352	2.753699	0.421769	0.149022	-0.746315	0.057630	-0.054656	-0.181140	0.981937	-0.466022	0.874358	0.135355	-0.883083	-0.450206	-0.132205
25617	9.681215	2.321434	0.566847	0.002879	-0.564643	0.038619	-0.059891	-0.183329	0.981226	-0.466018	0.874426	0.134931	-0.882746	-0.449187	-0.137805
25618	9.547121	2.044909	0.385653	-0.008435	-0.514913	0.029668	-0.064630	-0.185348	0.980545	-0.465953	0.874513	0.134593	-0.882446	-0.448189	-0.142884
25619	10.029515	1.724975	0.220036	-0.005068	-0.482700	0.038664	-0.069136	-0.187157	0.979894	-0.465877	0.874617	0.134180	-0.882145	-0.447233	-0.147660
25620	10.245962	1.219697	0.178772	0.015946	-0.427546	0.019949	-0.073056	-0.188861	0.979282	-0.466031	0.874577	0.133902	-0.881747	-0.446594	-0.151909
25621	9.762673	1.297265	0.374655	0.039284	-0.380503	-0.007339	-0.076440	-0.190607	0.978686	-0.466383	0.874395	0.133869	-0.881274	-0.446209	-0.155734
25622	9.273406	1.297195	0.307482	0.184824	-0.385696	-0.011642	-0.079838	-0.192400	0.978063	-0.468047	0.873541	0.133632	-0.880090	-0.447111	-0.159794
25623	8.863609	0.963421	-0.620649	0.481454	-0.465897	-0.002290	-0.083982	-0.194490	0.977303	-0.472286	0.871380	0.132826	-0.877435	-0.450412	-0.165035
25624	8.803888	0.604616	-2.139501	0.878889	-0.634586	0.014274	-0.089659	-0.197213	0.976252	-0.479992	0.867415	0.131144	-0.872679	-0.456834	-0.172433
25625	8.919719	0.107980	-4.060749	1.347905	-0.872307	0.021711	-0.097405	-0.201033	0.974730	-0.491693	0.861236	0.128490	-0.865303	-0.466752	-0.182735
25626	9.000679	0.183006	-4.949977	1.703479	-1.127199	0.075477	-0.107539	-0.205687	0.972691	-0.506300	0.853328	0.124470	-0.855626	-0.479088	-0.195905
25627	9.166239	0.551610	-4.982731	1.748864	-1.313368	0.143828	-0.119512	-0.210819	0.970192	-0.521011	0.845148	0.119467	-0.845142	-0.491203	-0.210845
25628	9.529203	1.432389	-4.277552	1.599469	-1.398851	0.227426	-0.132522	-0.215822	0.967398	-0.534184	0.837686	0.113707	-0.834916	-0.501700	-0.226300
25629	9.765277	2.302160	-3.242592	1.310801	-1.369265	0.297384	-0.145569	-0.220250	0.964521	-0.544648	0.831718	0.107724	-0.825935	-0.509643	-0.241031
25630	10.022722	2.983443	-2.256709	1.016035	-1.257366	0.345772	-0.157863	-0.223798	0.961766	-0.552498	0.827272	0.101816	-0.818429	-0.515301	-0.254243
25631	10.507771	3.404575	-0.981963	0.724265	-1.115620	0.377144	-0.169129	-0.226441	0.959229	-0.557770	0.824394	0.096266	-0.812581	-0.518748	-0.265731
25632	10.805875	3.401190	0.575917	0.386105	-0.890936	0.357414	-0.178409	-0.228097	0.957153	-0.560299	0.823195	0.091736	-0.808848	-0.519926	-0.274668
25633	10.697864	3.561736	1.908794	0.084755	-0.658503	0.295709	-0.185457	-0.229073	0.955579	-0.560428	0.823447	0.088631	-0.807172	-0.519096	-0.281093
25634	10.748225	3.190608	2.939899	-0.208240	-0.450549	0.209642	-0.190326	-0.229651	0.954482	-0.558372	0.825000	0.087156	-0.807463	-0.516368	-0.285249
25635	10.811521	2.654792	3.474828	-0.326705	-0.254979	0.131303	-0.193178	-0.229865	0.953858	-0.555473	0.826992	0.086796	-0.808785	-0.513075	-0.287440
25636	10.840210	1.788465	3.609101	-0.266126	-0.117720	0.051179	-0.194473	-0.230017	0.953558	-0.553238	0.828467	0.087012	-0.810005	-0.510623	-0.288368
25637	10.682835	0.663364	3.915864	-0.059930	-0.008190	0.010845	-0.194646	-0.229948	0.953539	-0.552745	0.828793	0.087034	-0.810300	-0.510123	-0.288424
25638	10.238704	0.314383	4.826697	0.121558	0.104592	0.000610	-0.193861	-0.229382	0.953835	-0.553746	0.828168	0.086616	-0.809804	-0.511392	-0.287569
25639	9.727669	1.033992	4.556457	0.331335	0.202927	0.002863	-0.192265	-0.228286	0.954421	-0.556465	0.826452	0.085579	-0.808320	-0.514648	-0.285931
25640	10.060905	1.363441	2.473448	0.779977	0.189248	0.019240	-0.190906	-0.227120	0.954972	-0.562736	0.822449	0.083107	-0.804291	-0.521531	-0.284819
25641	10.579264	0.843545	-0.519752	1.398000	0.050067	0.029960	-0.190693	-0.226573	0.955144	-0.573934	0.815105	0.078769	-0.796390	-0.533169	-0.285473
25642	10.619930	0.682944	-3.279399	2.070982	-0.153060	0.024630	-0.192105	-0.227178	0.954718	-0.590270	0.803941	0.072528	-0.784013	-0.549608	-0.288537
25643	10.698402	0.774936	-5.312819	2.366715	-0.323739	0.072214	-0.195068	-0.228374	0.953831	-0.608579	0.790836	0.064888	-0.769142	-0.567824	-0.293250
25644	11.202543	0.865244	-5.749265	2.137002	-0.424759	0.168906	-0.199407	-0.229471	0.952670	-0.624550	0.778910	0.056890	-0.755099	-0.583645	-0.298636
25645	11.854370	1.745764	-4.207040	1.567392	-0.326309	0.327576	-0.203939	-0.228826	0.951865	-0.635699	0.770380	0.048997	-0.744510	-0.595107	-0.302575
25646	12.275202	3.214469	-2.101493	0.785388	-0.081518	0.452957	-0.207496	-0.225811	0.951817	-0.640610	0.766704	0.042242	-0.739300	-0.600978	-0.303745
25647	12.144056	3.676092	-0.240927	-0.050332	0.316704	0.469777	-0.208181	-0.220275	0.952964	-0.639313	0.768014	0.037862	-0.740229	-0.601360	-0.300711
25648	11.145771	2.768469	0.967864	-0.801809	0.664193	0.440459	-0.206105	-0.212880	0.955093	-0.632455	0.773761	0.035982	-0.746674	-0.596637	-0.294113
25649	10.512671	1.265292	2.133257	-1.269317	0.915786	0.380843	-0.201626	-0.204460	0.957885	-0.622198	0.782034	0.035958	-0.756450	-0.588744	-0.284893
25650	9.964699	0.299562	3.099683	-1.404584	1.117588	0.351919	-0.195341	-0.195139	0.961126	-0.610815	0.790934	0.036442	-0.767299	-0.579951	-0.273696
25651	10.156012	0.069962	3.257369	-1.342932	1.296971	0.311507	-0.187212	-0.185154	0.964712	-0.599926	0.799201	0.036967	-0.777843	-0.571836	-0.260698
25652	10.626767	-0.060830	2.547140	-1.133875	1.505893	0.244146	-0.176940	-0.174607	0.968610	-0.590626	0.806077	0.037416	-0.787308	-0.565466	-0.245755
25653	11.248625	0.129181	2.043764	-0.746828	1.710067	0.158527	-0.164341	-0.163630	0.972737	-0.584558	0.810481	0.037577	-0.794534	-0.562446	-0.228846
25654	11.874993	0.955340	1.659035	-0.260633	1.928097	0.070383	-0.149448	-0.152180	0.976989	-0.582391	0.812048	0.037401	-0.799053	-0.563400	-0.209987
25655	12.388102	2.280375	1.426054	0.107875	2.147782	-0.065468	-0.131868	-0.140503	0.981259	-0.583475	0.811254	0.037749	-0.801354	-0.567562	-0.188958
25656	12.444296	3.236657	1.265669	0.227411	2.286901	-0.257159	-0.112082	-0.129526	0.985221	-0.585635	0.809597	0.039813	-0.802789	-0.572518	-0.166596
25657	12.530594	3.581432	0.944661	0.085306	2.323867	-0.538089	-0.090236	-0.120461	0.988608	-0.587000	0.808340	0.044916	-0.804542	-0.576260	-0.143652
25658	12.502433	2.682800	-0.394264	-0.204403	2.187274	-0.739023	-0.068332	-0.113797	0.991151	-0.585963	0.808639	0.052444	-0.807452	-0.577194	-0.121937
25659	12.908914	2.090162	-1.852715	-0.269352	2.168482	-0.793478	-0.046134	-0.107621	0.993121	-0.584373	0.809223	0.060547	-0.810173	-0.577559	-0.100224
25660	13.157358	1.717121	-3.043600	-0.365005	2.239397	-0.785116	-0.023441	-0.101028	0.994607	-0.581711	0.810496	0.068617	-0.813058	-0.576965	-0.077768
25661	12.706698	1.208800	-4.113493	-0.590343	2.354005	-0.731789	-0.000007	-0.093341	0.995634	-0.577112	0.813100	0.076224	-0.816665	-0.574592	-0.053874
25662	12.562998	1.366612	-3.994663	-0.928408	2.373170	-0.593999	0.022780	-0.084588	0.996156	-0.569469	0.817865	0.082472	-0.821697	-0.569159	-0.029539
25663	13.599101	1.117954	-2.927780	-1.447790	2.306906	-0.506201	0.044677	-0.075662	0.996132	-0.557462	0.825556	0.087709	-0.828999	-0.559225	-0.005295
25664	13.302941	1.401588	-2.470166	-1.743829	2.485612	-0.358831	0.067301	-0.064872	0.995621	-0.542766	0.834930	0.091092	-0.837183	-0.546520	0.020981
25665	12.914961	2.010128	-2.198518	-1.960906	2.454788	-0.238430	0.089231	-0.053574	0.994569	-0.526185	0.845298	0.092742	-0.845675	-0.531603	0.047237
25666	12.419174	2.018198	-2.657923	-2.145187	2.410516	-0.172095	0.110555	-0.042400	0.992965	-0.507814	0.856420	0.093108	-0.854343	-0.514535	0.073150
25667	11.395622	1.793742	-3.211733	-2.311783	2.376722	-0.097457	0.131443	-0.031174	0.990834	-0.487940	0.868011	0.092039	-0.862924	-0.495565	0.098883
25668	10.406343	1.830361	-3.367158	-2.426438	2.300788	-0.044574	0.151551	-0.020366	0.988240	-0.466875	0.879759	0.089728	-0.871241	-0.474983	0.123820
25669	9.572130	1.566588	-3.632485	-2.591182	2.242005	-0.006140	0.171193	-0.009972	0.985187	-0.444261	0.891739	0.086224	-0.879389	-0.452441	0.148229
25670	8.828548	1.320418	-3.601211	-2.645248	2.150350	0.033240	0.189988	-0.000164	0.981786	-0.420999	0.903382	0.081619	-0.886941	-0.428837	0.171563
25671	8.347834	1.142743	-3.388921	-2.714813	2.052712	0.096167	0.207858	0.009299	0.978115	-0.397074	0.914660	0.075686	-0.893939	-0.404116	0.193812
25672	8.060546	1.195998	-3.141273	-2.776189	1.964286	0.134520	0.224912	0.018259	0.974208	-0.372501	0.925489	0.068652	-0.900365	-0.378334	0.214955
25673	7.936268	1.084917	-2.845147	-2.907674	1.916762	0.138323	0.241712	0.026563	0.969984	-0.346598	0.936045	0.060736	-0.906336	-0.350875	0.235460
25674	8.117853	0.628065	-3.011181	-2.947116	1.827899	0.161383	0.257740	0.034277	0.965606	-0.320257	0.945908	0.051905	-0.911595	-0.322620	0.254776
25675	7.885901	0.251652	-3.250544	-2.919987	1.756186	0.197476	0.273159	0.041587	0.961069	-0.294125	0.954831	0.042281	-0.915901	-0.294224	0.273053
25676	7.259072	-0.057788	-3.227248	-2.837569	1.709510	0.186029	0.288275	0.048205	0.956334	-0.268660	0.962688	0.032459	-0.919086	-0.266285	0.290469
25677	6.991131	-0.330412	-3.016201	-2.665575	1.579696	0.209322	0.302249	0.054232	0.951685	-0.244763	0.969322	0.022498	-0.921269	-0.239737	0.306250
25678	6.720249	-0.774213	-2.609871	-2.337972	1.351525	0.266912	0.314039	0.059953	0.947515	-0.224080	0.974489	0.012608	-0.922587	-0.216279	0.319462
25679	6.564370	-1.300933	-2.523097	-1.851269	1.048566	0.301353	0.323038	0.065068	0.944147	-0.207962	0.978130	0.003743	-0.923254	-0.197556	0.329504
25680	6.859657	-2.038237	-2.447646	-1.239819	0.734879	0.303544	0.329164	0.069493	0.941712	-0.197555	0.980286	-0.003286	-0.923376	-0.184958	0.336404
25681	6.882986	-2.653445	-2.413744	-0.691893	0.448331	0.320918	0.332646	0.073459	0.940186	-0.192236	0.981310	-0.008657	-0.923251	-0.177858	0.340551
25682	6.393200	-2.957395	-2.624808	-0.139900	0.202799	0.307881	0.333884	0.076887	0.939473	-0.192023	0.981316	-0.012067	-0.922848	-0.176371	0.342410
25683	5.824019	-3.040000	-2.904176	0.330135	-0.050971	0.259983	0.332872	0.079359	0.939627	-0.195949	0.980522	-0.013396	-0.922388	-0.179660	0.341939
25684	5.793591	-2.889309	-2.856702	0.645683	-0.307024	0.203062	0.329593	0.080834	0.940656	-0.202629	0.979167	-0.013145	-0.922123	-0.186271	0.339106
25685	6.057166	-2.577347	-2.378105	0.777605	-0.406753	0.159444	0.325470	0.081641	0.942021	-0.210341	0.977554	-0.012047	-0.921860	-0.194224	0.335336
25686	6.127478	-2.346721	-2.128930	0.824614	-0.316433	0.108775	0.322277	0.082122	0.943077	-0.218343	0.975817	-0.010358	-0.921121	-0.202576	0.332414
25687	5.700620	-2.088038	-1.704508	1.102256	-0.254941	0.084606	0.319692	0.082441	0.943928	-0.228783	0.973448	-0.007535	-0.919487	-0.213546	0.330064
25688	5.506835	0.450811	1.681748	1.700753	-0.509863	-0.026934	0.315028	0.081093	0.945612	-0.244367	0.969681	-0.001747	-0.917084	-0.230526	0.325293
25689	6.983040	2.910250	8.126354	2.017853	-0.801524	-0.210406	0.308167	0.077153	0.948198	-0.262215	0.964986	0.006701	-0.914481	-0.250697	0.317608
25690	8.912526	3.983810	11.733758	1.623207	-0.813246	-0.444842	0.301888	0.070808	0.950710	-0.275737	0.961100	0.015975	-0.912597	-0.266969	0.309669
25691	10.714049	3.210004	11.430946	0.283299	-0.896358	-0.485243	0.294993	0.063758	0.953370	-0.276900	0.960660	0.021433	-0.914497	-0.270311	0.301042
25692	13.808745	1.002902	10.560369	-1.007999	-0.767351	-0.313254	0.288761	0.058749	0.955597	-0.266792	0.963517	0.021383	-0.919478	-0.261120	0.293900
25693	15.033456	0.087646	12.304003	-1.210999	-0.258915	-0.115531	0.286638	0.057000	0.956342	-0.255334	0.966668	0.018914	-0.923387	-0.249608	0.291638
25694	13.077948	-0.966446	12.358172	-0.980824	0.223639	0.034785	0.288572	0.057928	0.955704	-0.246417	0.969037	0.015669	-0.925205	-0.240023	0.293912
25695	10.092082	-0.658879	11.470546	-1.013970	0.524711	0.099822	0.293158	0.060178	0.954168	-0.237381	0.971346	0.011671	-0.926126	-0.229923	0.299043
25696	8.174032	-0.028956	9.264193	-1.243419	0.636424	0.085690	0.298811	0.062480	0.952265	-0.226163	0.974064	0.007057	-0.927126	-0.217475	0.305192
25697	7.640785	0.246517	7.242252	-1.267713	0.605435	0.050595	0.304294	0.064318	0.950404	-0.214639	0.976690	0.002624	-0.928082	-0.204792	0.311006
25698	6.972942	-0.835199	5.513978	-1.107024	0.514846	-0.000589	0.309031	0.065385	0.948802	-0.204409	0.978885	-0.000880	-0.928825	-0.193672	0.315872
25699	5.543487	-2.152590	2.956249	-0.792511	0.166570	-0.070238	0.310703	0.065089	0.948276	-0.196923	0.980415	-0.002773	-0.929884	-0.185875	0.317435
25700	4.408923	-3.073295	-0.304265	-0.377122	-0.524304	-0.263922	0.306292	0.061582	0.949943	-0.192648	0.981267	-0.001496	-0.932240	-0.182546	0.312418
25701	6.691771	-5.270950	-3.742177	0.360253	-1.217995	-0.367873	0.295615	0.055812	0.953675	-0.195015	0.980795	0.003051	-0.935190	-0.186883	0.300822
25702	10.756956	-4.841351	-2.879390	1.188749	-1.315802	-0.260423	0.283778	0.050767	0.957545	-0.205437	0.978629	0.008999	-0.936625	-0.199269	0.288143
25703	13.829712	-1.966604	1.002730	1.329466	-0.794895	-0.118216	0.276559	0.048077	0.959793	-0.217680	0.975922	0.013838	-0.936018	-0.212755	0.280366
25704	15.336600	-0.355725	2.857387	1.044228	-0.282515	-0.024166	0.273926	0.047272	0.960588	-0.227428	0.973647	0.016940	-0.934474	-0.223106	0.277458
25705	15.770743	0.518442	3.681468	0.804456	-0.106170	-0.038146	0.272994	0.046764	0.960879	-0.234962	0.971810	0.019459	-0.932881	-0.231082	0.276286
25706	15.000778	1.092284	3.528085	0.458178	-0.165096	-0.194783	0.271870	0.044532	0.961303	-0.238753	0.970818	0.022550	-0.932247	-0.235645	0.274569
25707	13.374932	0.778589	2.456974	-0.006426	-0.358059	-0.324459	0.269274	0.040637	0.962206	-0.237936	0.970944	0.025580	-0.933209	-0.235831	0.271119
25708	10.761007	-0.489400	-0.101013	-0.128797	-0.646374	-0.348595	0.264015	0.035775	0.963855	-0.235851	0.971370	0.028549	-0.935238	-0.234864	0.264894
25709	8.436179	-2.389726	-2.389781	0.394137	-0.833013	-0.417417	0.257178	0.029843	0.965903	-0.238567	0.970547	0.033533	-0.936454	-0.239056	0.256723
25710	7.283466	-2.857263	-3.272406	1.203466	-0.937014	-0.484219	0.249540	0.022899	0.968094	-0.248655	0.967715	0.041204	-0.935896	-0.251003	0.247177
25711	7.116420	-1.569286	-2.735802	1.768202	-1.003000	-0.514068	0.241443	0.015429	0.970292	-0.264040	0.963195	0.050386	-0.933803	-0.268361	0.236630
25712	7.627305	0.809905	-1.162951	1.919389	-1.026717	-0.512116	0.233217	0.007702	0.972394	-0.280769	0.957914	0.059752	-0.931010	-0.286953	0.225564
25713	8.369305	2.892112	-0.253065	1.679190	-1.074126	-0.480673	0.224571	0.000031	0.974458	-0.295390	0.952951	0.068045	-0.928608	-0.303126	0.214014
25714	9.244636	3.777729	-0.137985	1.394476	-1.133068	-0.430216	0.215307	-0.007528	0.976517	-0.307427	0.948604	0.075096	-0.926893	-0.316377	0.201927
25715	10.274805	4.388771	0.107546	1.156943	-1.164469	-0.358242	0.205594	-0.014596	0.978529	-0.317474	0.944818	0.080796	-0.925711	-0.327269	0.189615
25716	10.349801	4.039341	-0.016294	0.891697	-1.121553	-0.346530	0.196278	-0.021541	0.980312	-0.325075	0.941790	0.085782	-0.925095	-0.335512	0.177850
25717	9.817361	3.232668	-0.565542	0.817872	-1.124212	-0.382196	0.187087	-0.028899	0.981918	-0.331964	0.938904	0.090883	-0.924553	-0.342965	0.166064
25718	9.379782	2.447016	-1.022487	0.810746	-1.167098	-0.388600	0.177553	-0.036548	0.983432	-0.338793	0.935956	0.095951	-0.923956	-0.350216	0.153800
25719	9.125343	1.573542	-1.301780	0.866995	-1.204055	-0.342793	0.167554	-0.043978	0.984881	-0.346246	0.932739	0.100556	-0.923060	-0.357860	0.141057
25720	9.150969	1.391905	-1.114233	0.912680	-1.194837	-0.228672	0.157282	-0.050392	0.986267	-0.354337	0.929318	0.103990	-0.921796	-0.365826	0.128309
25721	9.290702	1.586114	-1.056084	0.888270	-1.146108	-0.104657	0.147043	-0.055573	0.987568	-0.362385	0.925974	0.106064	-0.920356	-0.373476	0.116019
25722	9.693455	1.710405	-1.252293	0.774526	-1.111453	0.039563	0.136624	-0.059357	0.988843	-0.369606	0.923068	0.106475	-0.919089	-0.380030	0.104174
25723	10.045097	1.988991	-1.310430	0.667933	-1.033986	0.142970	0.126531	-0.061978	0.990025	-0.375944	0.920597	0.105679	-0.917963	-0.385566	0.093184
25724	10.300783	1.940590	-1.363283	0.522203	-0.967979	0.161811	0.116984	-0.064205	0.991056	-0.380973	0.918663	0.104485	-0.917156	-0.389789	0.083008
25725	10.468150	1.697529	-1.204607	0.365619	-0.882591	0.131593	0.108321	-0.066439	0.991893	-0.384475	0.917323	0.103431	-0.916758	-0.392562	0.073821
25726	10.479889	1.269522	-0.771321	0.191755	-0.782100	0.081100	0.100785	-0.068734	0.992531	-0.386357	0.916613	0.102708	-0.916826	-0.393823	0.065825
25727	10.056741	1.497142	-0.280188	-0.075780	-0.702502	0.028469	0.094161	-0.071228	0.993006	-0.385683	0.916937	0.102344	-0.917814	-0.392622	0.058868
25728	9.862517	1.678475	0.265386	-0.340140	-0.641042	-0.000036	0.088218	-0.073697	0.993371	-0.382597	0.918256	0.102102	-0.919694	-0.389068	0.052811
25729	9.829116	1.619958	0.912285	-0.482210	-0.566212	-0.048080	0.083116	-0.076323	0.993613	-0.378103	0.920093	0.102304	-0.922025	-0.384191	0.047617
25730	9.907615	1.532865	1.257642	-0.544254	-0.503578	-0.120974	0.078869	-0.079322	0.993724	-0.373019	0.922066	0.103207	-0.924466	-0.378817	0.043134
25731	10.007928	1.452789	1.225562	-0.506367	-0.451314	-0.184852	0.075307	-0.082720	0.993723	-0.368177	0.923830	0.104804	-0.926701	-0.373758	0.039115
25732	9.539914	1.465723	0.342305	-0.300384	-0.460144	-0.243220	0.071879	-0.086643	0.993643	-0.365250	0.924733	0.107056	-0.928130	-0.370623	0.034822
25733	9.173244	1.041267	-0.944884	-0.023867	-0.605221	-0.256206	0.067125	-0.091248	0.993563	-0.364836	0.924603	0.109563	-0.928649	-0.369843	0.028774
25734	9.050683	0.662526	-1.662673	0.202165	-0.781940	-0.228333	0.060648	-0.096217	0.993511	-0.366605	0.923632	0.111828	-0.928398	-0.371008	0.020743
25735	9.264640	0.701907	-1.984423	0.381924	-0.908441	-0.182763	0.052818	-0.101281	0.993455	-0.370028	0.922040	0.113673	-0.927518	-0.373610	0.011224
25736	9.403287	1.242917	-1.994863	0.416264	-0.999492	-0.129239	0.043981	-0.106183	0.993373	-0.373860	0.920337	0.114928	-0.926442	-0.376438	0.000780
25737	9.650366	1.617449	-1.999419	0.374817	-1.027384	-0.079357	0.034689	-0.110790	0.993238	-0.377276	0.918849	0.115669	-0.925451	-0.378737	-0.009925
25738	9.741751	1.511817	-2.075828	0.287787	-1.048774	-0.017987	0.025002	-0.114898	0.993063	-0.379968	0.917729	0.115748	-0.924662	-0.380226	-0.020712
25739	9.780350	1.203729	-1.994471	0.230073	-1.066169	0.023295	0.014977	-0.118744	0.992812	-0.382066	0.916898	0.115428	-0.924014	-0.381048	-0.031636
25740	9.727473	1.227948	-1.539368	0.207305	-1.076478	0.044836	0.004809	-0.122402	0.992469	-0.384019	0.916154	0.114850	-0.923313	-0.381679	-0.042599
25741	9.900901	1.284264	-0.649663	0.179729	-1.070498	0.036698	-0.005298	-0.126155	0.991996	-0.385639	0.915533	0.114372	-0.922634	-0.381947	-0.053500
25742	10.051920	1.601617	0.471457	0.035976	-0.985547	0.017572	-0.014510	-0.129717	0.991445	-0.386002	0.915412	0.114120	-0.922384	-0.381044	-0.063354
25743	10.073030	1.964268	1.473601	-0.162894	-0.855775	-0.005570	-0.022469	-0.133019	0.990859	-0.384462	0.916043	0.114257	-0.922868	-0.378380	-0.071723
25744	10.179682	2.372878	2.132221	-0.336966	-0.633907	-0.017941	-0.028307	-0.135532	0.990368	-0.381387	0.917281	0.114629	-0.923982	-0.374468	-0.077656
25745	9.996968	2.669139	2.503023	-0.452930	-0.423869	0.000088	-0.032307	-0.137107	0.990029	-0.377162	0.918985	0.114960	-0.925584	-0.369687	-0.081401
25746	9.948390	2.217697	2.520433	-0.445260	-0.284136	-0.006767	-0.034967	-0.138176	0.989790	-0.373071	0.920606	0.115338	-0.927144	-0.365229	-0.083740
25747	9.504166	1.671557	2.511462	-0.315804	-0.232414	-0.034605	-0.037069	-0.139335	0.989551	-0.370122	0.921722	0.115920	-0.928243	-0.361958	-0.085738
25748	9.466715	1.199971	2.146224	-0.186818	-0.253118	-0.051777	-0.039281	-0.140689	0.989274	-0.368439	0.922319	0.116537	-0.928822	-0.359909	-0.088064
25749	9.203539	0.930272	1.893395	-0.131471	-0.280955	-0.066154	-0.041716	-0.142299	0.988944	-0.367221	0.922710	0.117278	-0.929198	-0.358269	-0.090747
25750	9.329062	0.776752	0.912654	0.008252	-0.336952	-0.076519	-0.044618	-0.144174	0.988546	-0.367362	0.922566	0.117970	-0.929007	-0.357890	-0.094127
25751	9.095639	0.886641	-0.660658	0.271181	-0.367199	-0.094280	-0.047745	-0.146348	0.988080	-0.369908	0.921466	0.118607	-0.927841	-0.359836	-0.098130
25752	8.932977	0.423997	-2.811421	0.705561	-0.544033	-0.088580	-0.052507	-0.149099	0.987427	-0.376520	0.918771	0.118710	-0.924919	-0.365553	-0.104380
25753	8.946222	-0.219479	-4.345425	1.151183	-0.761574	-0.059382	-0.059372	-0.152450	0.986526	-0.387158	0.914430	0.118008	-0.920100	-0.374935	-0.113314
25754	8.805018	-0.491963	-5.198475	1.483272	-0.993446	-0.050643	-0.068335	-0.156659	0.985286	-0.400819	0.908696	0.116683	-0.913605	-0.386948	-0.124888
25755	9.129214	-0.207401	-5.344807	1.638714	-1.180888	0.001510	-0.079159	-0.161280	0.983729	-0.415708	0.902266	0.114473	-0.906047	-0.399882	-0.138468
25756	9.711952	0.271996	-4.789796	1.577599	-1.259858	0.090365	-0.090962	-0.165547	0.981998	-0.429892	0.896003	0.111229	-0.898287	-0.412035	-0.152670
25757	9.758879	1.203353	-3.577235	1.414584	-1.252166	0.183726	-0.103048	-0.169122	0.980193	-0.442341	0.890426	0.107130	-0.890907	-0.422540	-0.166566
25758	9.682351	2.679796	-2.528414	1.095010	-1.249048	0.243555	-0.115281	-0.172250	0.978284	-0.451822	0.886167	0.102788	-0.884628	-0.430161	-0.179985
25759	10.330322	3.509887	-1.579781	0.746085	-1.215789	0.273003	-0.127335	-0.175085	0.976284	-0.458035	0.883438	0.098693	-0.879767	-0.434606	-0.192687
25760	10.714544	3.287802	-0.760749	0.383279	-1.076142	0.271089	-0.138087	-0.177344	0.974413	-0.461066	0.882241	0.095230	-0.876556	-0.436119	-0.203593
25761	10.437674	2.776077	0.340478	0.147535	-0.911233	0.243023	-0.147272	-0.179168	0.972733	-0.461965	0.882059	0.092525	-0.874585	-0.435742	-0.212672
25762	10.429022	2.632326	1.298817	0.015020	-0.729554	0.225399	-0.154746	-0.180322	0.971359	-0.461779	0.882393	0.090241	-0.873392	-0.434589	-0.219815
25763	10.248803	2.459709	1.729003	-0.094245	-0.502929	0.206501	-0.160170	-0.180674	0.970414	-0.460588	0.883200	0.088415	-0.873043	-0.432799	-0.224678
25764	9.996831	1.905966	1.649657	-0.145946	-0.374480	0.155888	-0.164212	-0.180881	0.969699	-0.459083	0.884106	0.087172	-0.873085	-0.430858	-0.228220
25765	9.799845	1.322263	1.706987	-0.049210	-0.306784	0.108078	-0.167458	-0.181237	0.969077	-0.458439	0.884535	0.086207	-0.872807	-0.429827	-0.231209
25766	9.805148	0.971173	1.825188	0.117242	-0.281784	0.066568	-0.170278	-0.181827	0.968475	-0.459371	0.884146	0.085228	-0.871771	-0.430377	-0.234076
25767	9.920834	0.822618	1.716724	0.357133	-0.249358	0.069345	-0.172833	-0.182278	0.967938	-0.462339	0.882746	0.083681	-0.869696	-0.433052	-0.236842
25768	10.229695	0.810103	1.417741	0.659576	-0.299281	0.089017	-0.175900	-0.182765	0.967293	-0.467929	0.880029	0.081185	-0.866084	-0.438345	-0.240318
25769	10.584853	1.215666	0.738300	1.059889	-0.341086	0.103862	-0.179393	-0.183346	0.966542	-0.476886	0.875536	0.077572	-0.860464	-0.447014	-0.244500
25770	10.335888	1.150969	-0.169080	1.429889	-0.377064	0.114183	-0.183231	-0.184026	0.965692	-0.488949	0.869263	0.072877	-0.852852	-0.458821	-0.249255
25771	9.744624	1.157648	-1.111783	1.590473	-0.488283	0.147813	-0.188158	-0.185000	0.964558	-0.502168	0.862140	0.067398	-0.844052	-0.471688	-0.255120
25772	10.052426	1.463727	-2.107136	1.593135	-0.652101	0.197395	-0.194693	-0.186392	0.962991	-0.515182	0.854885	0.061311	-0.834675	-0.484179	-0.262466
25773	10.996800	1.320512	-2.673998	1.404914	-0.693763	0.254744	-0.201831	-0.187602	0.961285	-0.526342	0.848487	0.055078	-0.825971	-0.494848	-0.269994
25774	11.521208	1.196565	-2.499019	1.104728	-0.578019	0.302896	-0.208250	-0.187895	0.959858	-0.534824	0.843536	0.049089	-0.818898	-0.503133	-0.276157
25775	11.590116	1.470176	-2.078913	0.761772	-0.391589	0.321438	-0.213226	-0.187154	0.958910	-0.540365	0.840288	0.043845	-0.813966	-0.508812	-0.280303
25776	11.499431	1.916437	-1.387915	0.357213	-0.204910	0.302257	-0.216586	-0.185634	0.958452	-0.542636	0.839021	0.039880	-0.811565	-0.511453	-0.282452
25777	11.404260	2.407688	-0.087218	0.000571	-0.053682	0.246750	-0.218408	-0.183822	0.958388	-0.542103	0.839476	0.037474	-0.811433	-0.511360	-0.282999
25778	11.748250	2.646471	1.465311	-0.246882	0.154078	0.192888	-0.218258	-0.181387	0.958886	-0.539693	0.841080	0.036260	-0.813077	-0.509590	-0.281466
25779	11.992875	2.700691	2.830133	-0.598481	0.472481	0.165818	-0.215337	-0.177576	0.960259	-0.534461	0.844413	0.036301	-0.817301	-0.505404	-0.276740
25780	11.636003	2.383300	3.693247	-1.036937	0.844498	0.152383	-0.209269	-0.172019	0.962609	-0.525643	0.849874	0.037599	-0.824564	-0.498120	-0.268273
25781	11.166486	1.416368	4.001492	-1.277131	1.184952	0.128565	-0.200141	-0.165051	0.965765	-0.514813	0.856384	0.039670	-0.833613	-0.489249	-0.256368
25782	10.784224	0.243357	3.683208	-1.245429	1.466945	0.136397	-0.188597	-0.156733	0.969467	-0.504128	0.862637	0.041391	-0.842785	-0.480929	-0.241704
25783	10.520084	-1.202460	2.816789	-1.003141	1.676451	0.204255	-0.175435	-0.146925	0.973466	-0.495308	0.867716	0.041701	-0.850819	-0.474849	-0.225001
25784	10.813772	-2.144135	2.116779	-0.641978	1.838535	0.277787	-0.161159	-0.135776	0.977544	-0.489379	0.871139	0.040317	-0.857051	-0.471892	-0.206838
25785	11.199188	-2.076267	1.629194	-0.231338	2.047396	0.316810	-0.145120	-0.123302	0.981701	-0.486981	0.872602	0.037612	-0.861272	-0.472612	-0.186678
25786	11.388333	-1.328196	1.078880	0.162078	2.207019	0.230616	-0.127267	-0.110784	0.985662	-0.488088	0.872092	0.034998	-0.863465	-0.476636	-0.165062
25787	11.568233	-0.579424	0.575939	0.508020	2.308998	0.057842	-0.107611	-0.099141	0.989238	-0.492506	0.869661	0.033581	-0.863631	-0.483592	-0.142413
25788	11.714900	0.627007	0.596105	0.724448	2.354186	-0.147661	-0.086620	-0.088907	0.992266	-0.498927	0.865975	0.034037	-0.862305	-0.492120	-0.119368
25789	11.779619	1.732198	0.573867	0.717132	2.350166	-0.414002	-0.064295	-0.080759	0.994658	-0.505525	0.862005	0.037311	-0.860413	-0.500425	-0.096248
25790	11.574424	2.400845	-0.375006	0.444259	2.206491	-0.685916	-0.041897	-0.075529	0.996263	-0.509737	0.859219	0.043703	-0.859309	-0.506001	-0.074499
25791	11.565684	2.453690	-1.795359	0.148114	1.977982	-0.791356	-0.020859	-0.072224	0.997170	-0.511365	0.857823	0.051434	-0.859110	-0.508845	-0.054827
25792	11.291057	2.245840	-2.651721	-0.074279	1.851779	-0.786208	-0.000984	-0.069510	0.997581	-0.510843	0.857630	0.059254	-0.859674	-0.509548	-0.036353
25793	11.886053	1.719170	-3.756466	-0.250116	1.820449	-0.736770	0.018431	-0.066505	0.997616	-0.508721	0.858350	0.066620	-0.860734	-0.508736	-0.018013
25794	12.419694	2.387912	-4.247000	-0.760341	1.995318	-0.609538	0.038661	-0.061620	0.997351	-0.502023	0.861793	0.072705	-0.863990	-0.503503	0.002383
25795	11.694014	1.249901	-3.874741	-1.246074	2.231690	-0.466108	0.060307	-0.054470	0.996693	-0.491072	0.867697	0.077134	-0.869029	-0.494099	0.025579
25796	11.510919	1.134187	-2.569713	-1.624545	2.252497	-0.340079	0.081542	-0.046420	0.995588	-0.476696	0.875433	0.079861	-0.875278	-0.481105	0.049256
25797	11.424809	0.965644	-2.143597	-1.811784	2.229877	-0.247600	0.102280	-0.037994	0.994030	-0.460618	0.883878	0.081178	-0.881686	-0.466171	0.072902
25798	11.316448	1.424151	-2.087350	-1.824922	2.171670	-0.164615	0.122181	-0.029467	0.992070	-0.444327	0.892175	0.081222	-0.887494	-0.450727	0.095914
25799	11.338843	1.657816	-2.251053	-1.993138	2.098515	-0.098719	0.141281	-0.021036	0.989746	-0.426507	0.900937	0.080030	-0.893382	-0.433440	0.118313
25800	11.051725	1.239374	-2.623256	-2.115085	2.088233	-0.074036	0.160252	-0.012816	0.986993	-0.407478	0.909880	0.077975	-0.899044	-0.414674	0.140588
25801	10.459799	1.192374	-2.780914	-2.171107	2.050291	-0.030308	0.178839	-0.004762	0.983867	-0.387896	0.918650	0.074955	-0.904186	-0.395043	0.162443
25802	9.923227	0.985173	-2.958291	-2.175326	2.012343	0.022770	0.196942	0.003233	0.980410	-0.368263	0.927013	0.070918	-0.908623	-0.375016	0.183758
25803	9.839458	1.263635	-2.686546	-2.196374	1.943258	0.079192	0.214328	0.011080	0.976699	-0.348458	0.935008	0.065859	-0.912491	-0.354454	0.204259
25804	9.640766	1.533930	-2.444175	-2.299776	1.868361	0.142960	0.230878	0.018880	0.972799	-0.327793	0.942874	0.059497	-0.916104	-0.332613	0.223878
25805	9.309649	1.198763	-2.567142	-2.401267	1.783765	0.202872	0.246578	0.026537	0.968760	-0.306254	0.950533	0.051913	-0.919461	-0.309487	0.242508
25806	8.534092	0.488227	-2.686043	-2.507103	1.692553	0.215019	0.261485	0.033663	0.964620	-0.283754	0.957910	0.043490	-0.922556	-0.285087	0.260031
25807	7.842044	-0.172094	-2.676752	-2.532847	1.543272	0.206020	0.275151	0.039851	0.960575	-0.260907	0.964740	0.034712	-0.925321	-0.260171	0.275847
25808	7.247243	-0.873185	-2.795707	-2.432965	1.373289	0.233687	0.287245	0.045564	0.956773	-0.239071	0.970666	0.025549	-0.927543	-0.236075	0.289712
25809	6.890468	-1.298664	-2.766820	-2.156716	1.189334	0.283168	0.297600	0.050995	0.953328	-0.219873	0.975390	0.016463	-0.929026	-0.214511	0.301488
25810	6.858154	-1.396221	-2.448036	-1.770865	1.010263	0.310992	0.306285	0.056157	0.950282	-0.204403	0.978854	0.008036	-0.929736	-0.196702	0.311287
25811	6.786609	-1.488674	-1.996371	-1.339011	0.865028	0.302040	0.313688	0.060756	0.947580	-0.192884	0.981221	0.000940	-0.929729	-0.183067	0.319516
25812	6.349314	-1.736627	-1.653681	-0.930673	0.674592	0.250119	0.319443	0.064462	0.945410	-0.185075	0.982714	-0.004471	-0.929356	-0.173543	0.325852
25813	6.103526	-1.854729	-1.594304	-0.461989	0.427383	0.156668	0.323083	0.066732	0.944015	-0.181280	0.983403	-0.007475	-0.928846	-0.168716	0.329818
25814	6.140384	-1.700536	-1.327598	-0.050460	0.201993	0.066198	0.324796	0.067771	0.943353	-0.181076	0.983434	-0.008306	-0.928288	-0.168121	0.331687
25815	6.355070	-1.787105	-0.964523	0.231104	0.030633	-0.002893	0.325037	0.067797	0.943268	-0.183209	0.983045	-0.007525	-0.927785	-0.170369	0.331947
25816	6.546144	-1.979415	-0.534784	0.439690	-0.090528	-0.040031	0.324229	0.067295	0.943582	-0.187208	0.982304	-0.005729	-0.927269	-0.174788	0.331090
25817	6.473860	-1.788441	-0.003256	0.616641	-0.197668	-0.054071	0.322447	0.066420	0.944255	-0.192750	0.981243	-0.003200	-0.926755	-0.180973	0.329201
25818	6.456576	-1.365397	0.477437	0.726736	-0.286961	-0.066042	0.319874	0.065289	0.945208	-0.199322	0.979934	-0.000234	-0.926257	-0.188326	0.326469
25819	6.591798	-1.060610	0.971297	0.704101	-0.402594	-0.062592	0.316215	0.063916	0.946532	-0.205650	0.978622	0.002621	-0.926130	-0.195483	0.322600
25820	7.630763	-1.593627	3.058791	0.491815	-0.537995	0.018519	0.311149	0.063077	0.948266	-0.210315	0.977626	0.003979	-0.926798	-0.200672	0.317453
25821	9.612971	-2.111157	6.521332	0.216376	-0.422701	0.214612	0.306717	0.064340	0.949624	-0.212996	0.977050	0.002597	-0.927662	-0.203063	0.313382
25822	10.866046	-2.307074	9.182094	0.187213	-0.209814	0.402504	0.303863	0.067889	0.950294	-0.216011	0.976391	-0.000682	-0.927904	-0.205067	0.311353
25823	10.769603	-0.396914	9.075579	0.304144	-0.237792	0.443594	0.300634	0.071763	0.951036	-0.220209	0.975444	-0.003994	-0.927969	-0.208226	0.309055
25824	11.012501	2.426747	11.339502	0.354501	-0.431939	0.224758	0.296081	0.073093	0.952362	-0.224220	0.974525	-0.005086	-0.928473	-0.212033	0.304927
25825	11.443650	3.257078	12.883562	-0.124612	-0.325561	-0.092014	0.293215	0.071550	0.953365	-0.222836	0.974845	-0.004627	-0.929714	-0.211087	0.301783
25826	10.954441	2.576129	10.396032	-0.752492	-0.151163	-0.349604	0.292529	0.067870	0.953845	-0.214857	0.976639	-0.003599	-0.931806	-0.203888	0.300278
25827	10.201123	-0.055962	7.883877	-1.316468	-0.003377	-0.424374	0.293346	0.063755	0.953878	-0.201377	0.979507	-0.003539	-0.934556	-0.191051	0.300173
25828	8.671543	-2.989795	6.366511	-1.299608	0.149131	-0.317111	0.295315	0.060967	0.953453	-0.188333	0.982095	-0.004465	-0.936653	-0.178248	0.301510
25829	6.246497	-4.588765	5.216345	-0.653887	0.049395	-0.164008	0.296052	0.059499	0.953317	-0.181787	0.983326	-0.004918	-0.937713	-0.171845	0.301932
25830	3.994690	-4.589157	3.294754	0.144777	-0.406144	-0.128886	0.292434	0.057577	0.954551	-0.182815	0.983142	-0.003295	-0.938648	-0.173543	0.298030
25831	3.224739	-3.850235	0.045305	0.757108	-1.044850	-0.286533	0.283124	0.052989	0.957618	-0.189201	0.981937	0.001603	-0.940236	-0.181636	0.288035
25832	7.150837	-6.539910	-1.969955	1.425424	-1.550256	-0.356268	0.269188	0.046611	0.961959	-0.201679	0.979411	0.008980	-0.941734	-0.196424	0.273046
25833	14.491667	-4.865784	2.252530	2.154823	-1.340912	-0.057630	0.256656	0.043369	0.965529	-0.221928	0.974945	0.015201	-0.940678	-0.218179	0.259850
25834	17.807493	1.085971	7.091936	1.913740	-0.393050	0.057530	0.252787	0.043079	0.966562	-0.240092	0.970554	0.019535	-0.937259	-0.237002	0.255686
25835	16.299083	4.220467	5.433924	1.285782	-0.018967	-0.176911	0.253011	0.041426	0.966576	-0.251804	0.967469	0.024448	-0.934120	-0.249573	0.255211
25836	14.216501	3.591575	1.761394	0.578437	-0.267396	-0.442830	0.251592	0.036513	0.967144	-0.256134	0.966171	0.030154	-0.933326	-0.255305	0.252433
25837	11.727180	1.944389	-0.033287	0.167891	-0.469823	-0.665066	0.248875	0.028975	0.968102	-0.256145	0.965932	0.036939	-0.934051	-0.257168	0.247818
25838	9.261042	0.434319	-0.421075	0.184912	-0.523384	-0.700920	0.245733	0.020898	0.969112	-0.256186	0.965619	0.044138	-0.934871	-0.259119	0.242638
25839	7.639911	-0.986827	-2.188407	0.749921	-0.585967	-0.545092	0.241632	0.014180	0.970264	-0.261961	0.963722	0.051154	-0.934339	-0.266532	0.236581
25840	6.822329	-1.855768	-2.945419	1.377209	-0.643137	-0.427141	0.236727	0.008357	0.971540	-0.273839	0.959997	0.058467	-0.932187	-0.279887	0.229546
25841	6.813056	-1.014265	-1.978624	1.675212	-0.731137	-0.437292	0.231109	0.002142	0.972926	-0.288499	0.955173	0.066427	-0.929170	-0.296040	0.221367
25842	7.679017	1.214390	-1.333242	1.697750	-0.867393	-0.457666	0.224368	-0.004815	0.974493	-0.303252	0.949993	0.074514	-0.926120	-0.312235	0.211688
25843	8.511019	2.569638	-2.286671	1.687471	-1.008118	-0.424559	0.216316	-0.011993	0.976250	-0.318001	0.944532	0.082066	-0.923083	-0.328201	0.200504
25844	9.278912	3.149846	-2.547780	1.580636	-1.176444	-0.363071	0.206602	-0.019321	0.978234	-0.331848	0.939160	0.088635	-0.920431	-0.342937	0.187620
25845	10.278521	3.614661	-2.008178	1.233879	-1.278309	-0.303634	0.195814	-0.026570	0.980281	-0.342642	0.934773	0.093781	-0.918832	-0.354249	0.173937
25846	10.970140	3.971867	-1.547643	0.824241	-1.290812	-0.268541	0.184834	-0.033659	0.982193	-0.349746	0.931731	0.097747	-0.918430	-0.361586	0.160444
25847	10.997531	3.787220	-1.774842	0.476263	-1.280029	-0.257155	0.173916	-0.040674	0.983920	-0.353694	0.929897	0.100959	-0.919051	-0.365565	0.147338
25848	10.582776	2.930011	-1.694309	0.213549	-1.290331	-0.259065	0.162915	-0.047770	0.985483	-0.355264	0.928989	0.103762	-0.920460	-0.367011	0.134376
25849	10.232024	2.200224	-1.345829	-0.004458	-1.276069	-0.219299	0.151867	-0.054469	0.986899	-0.354889	0.928894	0.105879	-0.922491	-0.366319	0.121738
25850	9.937499	1.752037	-0.715727	-0.242216	-1.221809	-0.135173	0.141006	-0.060145	0.988180	-0.352494	0.929690	0.106884	-0.925130	-0.363399	0.109891
25851	9.611084	1.720180	-0.001831	-0.505342	-1.161354	-0.074435	0.130431	-0.065016	0.989323	-0.347709	0.931471	0.107055	-0.928486	-0.357960	0.098886
25852	9.786172	1.442615	0.339847	-0.684445	-1.096782	-0.063729	0.120395	-0.069459	0.990293	-0.341301	0.933845	0.106994	-0.932212	-0.350870	0.088724
25853	9.930840	1.292915	0.985695	-0.772046	-1.011734	-0.071454	0.111112	-0.073627	0.991077	-0.334001	0.936478	0.107017	-0.936001	-0.342912	0.079462
25854	10.041356	0.778016	1.179187	-0.769104	-0.931634	-0.109105	0.102685	-0.077769	0.991669	-0.326711	0.938994	0.107469	-0.939529	-0.335025	0.071013
25855	10.263209	0.114428	1.262896	-0.709924	-0.812255	-0.183526	0.095561	-0.082174	0.992026	-0.319843	0.941206	0.108775	-0.942639	-0.327687	0.063660
25856	10.054119	0.302919	1.803785	-0.635713	-0.681812	-0.218112	0.089766	-0.086401	0.992208	-0.313679	0.943077	0.110502	-0.945277	-0.321154	0.057554
25857	9.903430	0.558240	1.946429	-0.575402	-0.588891	-0.287577	0.085015	-0.090971	0.992218	-0.307983	0.944657	0.112999	-0.947586	-0.315193	0.052293
25858	9.931484	0.953691	1.663640	-0.398697	-0.478081	-0.336823	0.081462	-0.095611	0.992080	-0.303960	0.945585	0.116089	-0.949196	-0.311009	0.047967
25859	9.621283	0.441288	1.043121	-0.042802	-0.442261	-0.329337	0.078195	-0.100076	0.991902	-0.303297	0.945399	0.119294	-0.949682	-0.310169	0.043572
25860	9.170824	-0.131506	0.550922	0.438191	-0.453382	-0.295346	0.074743	-0.104240	0.991740	-0.307269	0.943725	0.122351	-0.948683	-0.313875	0.038507
25861	8.656402	0.327697	0.006227	0.852410	-0.563654	-0.249187	0.070109	-0.108352	0.991637	-0.315178	0.940754	0.125076	-0.946439	-0.321311	0.031806
25862	8.783632	0.628410	-0.716903	1.210029	-0.700204	-0.231507	0.064187	-0.112773	0.991545	-0.326491	0.936541	0.127652	-0.943018	-0.331925	0.023294
25863	8.929437	1.357102	-1.322296	1.456842	-0.811353	-0.216481	0.057204	-0.117513	0.991422	-0.340080	0.931365	0.130016	-0.938655	-0.344601	0.013314
25864	9.070754	2.044137	-2.189148	1.592164	-0.969888	-0.184469	0.048714	-0.122596	0.991260	-0.354924	0.925542	0.131910	-0.933625	-0.358248	0.001575
25865	9.354801	2.348055	-2.842210	1.591371	-1.102301	-0.161166	0.038960	-0.128084	0.990998	-0.369675	0.919538	0.133381	-0.928344	-0.371543	-0.011524
25866	9.500208	2.444107	-3.584275	1.542375	-1.219386	-0.106926	0.028023	-0.133635	0.990634	-0.383951	0.913564	0.134099	-0.922928	-0.384113	-0.025709
25867	9.451112	2.154906	-3.858223	1.409923	-1.313023	-0.044962	0.016031	-0.139148	0.990142	-0.396908	0.908020	0.134033	-0.917719	-0.395144	-0.040673
25868	9.734094	1.704215	-3.613337	1.182233	-1.350768	0.012870	0.003560	-0.144393	0.989514	-0.407765	0.903307	0.133281	-0.913080	-0.403963	-0.055663
25869	10.109216	1.455699	-2.785794	0.923069	-1.300160	0.071538	-0.008673	-0.149036	0.988794	-0.416151	0.899670	0.131953	-0.909254	-0.410343	-0.069825
25870	10.260225	1.890526	-1.509663	0.550910	-1.174974	0.090861	-0.019777	-0.153026	0.988024	-0.421172	0.897532	0.130580	-0.906765	-0.413545	-0.082201
25871	10.131442	2.296457	-0.495036	0.169103	-1.009917	0.091733	-0.029412	-0.156375	0.987260	-0.422653	0.896994	0.129486	-0.905814	-0.413460	-0.092474
25872	9.985236	2.738969	0.337901	-0.115283	-0.820358	0.097524	-0.037310	-0.158848	0.986598	-0.421606	0.897617	0.128578	-0.906011	-0.411158	-0.100461
25873	9.878883	3.067289	0.909650	-0.292964	-0.644203	0.099374	-0.043661	-0.160588	0.986055	-0.418878	0.898995	0.127862	-0.906992	-0.407455	-0.106518
25874	9.831046	2.584680	1.142580	-0.375930	-0.533942	0.072997	-0.048866	-0.162061	0.985570	-0.415462	0.900631	0.127495	-0.908297	-0.403237	-0.111341
25875	10.115915	2.128681	1.231842	-0.422320	-0.466332	0.013195	-0.053250	-0.163807	0.985054	-0.411584	0.902366	0.127808	-0.909815	-0.398626	-0.115471
25876	10.135742	1.311120	1.366814	-0.463247	-0.395393	-0.048749	-0.056705	-0.165779	0.984531	-0.407421	0.904116	0.128773	-0.911478	-0.393817	-0.118810
25877	9.797312	0.914621	1.986661	-0.423265	-0.341840	-0.075537	-0.059601	-0.167794	0.984019	-0.403577	0.905665	0.129989	-0.913002	-0.389380	-0.121697
25878	9.491709	0.926084	2.622668	-0.358306	-0.282115	-0.084910	-0.061892	-0.169621	0.983564	-0.400384	0.906905	0.131206	-0.914255	-0.385683	-0.124043
25879	9.419465	0.930558	3.042974	-0.214325	-0.217095	-0.105760	-0.063531	-0.171401	0.983151	-0.398475	0.907562	0.132474	-0.914976	-0.383345	-0.125958
25880	9.321226	1.374677	3.176676	-0.026968	-0.151619	-0.149069	-0.064379	-0.173299	0.982763	-0.398353	0.907404	0.133915	-0.914970	-0.382865	-0.127452
25881	9.070645	1.378392	1.663791	0.314752	-0.139980	-0.193408	-0.064953	-0.175570	0.982322	-0.401354	0.905865	0.135367	-0.913617	-0.385466	-0.129305
25882	8.872210	0.600514	-0.320572	0.795341	-0.293388	-0.193434	-0.066899	-0.178425	0.981677	-0.408763	0.902426	0.136164	-0.910185	-0.392164	-0.133305
25883	8.772961	-0.165310	-2.672743	1.409654	-0.496454	-0.183922	-0.070703	-0.182033	0.980747	-0.421681	0.896488	0.135995	-0.903984	-0.403947	-0.140144
25884	8.657666	-0.625155	-4.692323	2.012212	-0.770223	-0.151457	-0.077033	-0.186526	0.979425	-0.439918	0.887909	0.134497	-0.894728	-0.420506	-0.150454
25885	8.607724	-0.290656	-5.675190	2.371082	-1.042041	-0.081060	-0.086002	-0.191701	0.977678	-0.461067	0.877566	0.131513	-0.883188	-0.439465	-0.163859
25886	9.123611	0.923115	-5.545917	2.368054	-1.232204	0.024418	-0.096981	-0.196984	0.975598	-0.481840	0.866984	0.127156	-0.870876	-0.457751	-0.178996
25887	9.976585	2.420950	-4.897755	2.035382	-1.280035	0.155277	-0.108899	-0.201584	0.973399	-0.499285	0.857835	0.121794	-0.859567	-0.472741	-0.194065
25888	10.469554	3.322391	-4.035406	1.511806	-1.218429	0.254047	-0.120659	-0.205207	0.971252	-0.511945	0.851119	0.116226	-0.850502	-0.483204	-0.207750
25889	10.400234	3.615252	-2.798408	0.984571	-1.118407	0.318751	-0.131867	-0.207929	0.969215	-0.519863	0.847010	0.110982	-0.844010	-0.489224	-0.219787
25890	10.251235	3.434671	-1.156275	0.499511	-0.982447	0.343535	-0.141989	-0.209810	0.967377	-0.523621	0.845272	0.106472	-0.840036	-0.491421	-0.229881
25891	10.523625	3.546772	0.302063	0.091949	-0.794426	0.326098	-0.150451	-0.210947	0.965850	-0.523887	0.845530	0.103062	-0.838395	-0.490490	-0.237724
25892	10.685074	2.901732	1.211914	-0.341605	-0.530499	0.253503	-0.156283	-0.211364	0.964832	-0.520654	0.847728	0.101374	-0.839342	-0.486500	-0.242533
25893	10.411400	1.497193	1.574303	-0.327636	-0.387003	0.181813	-0.160558	-0.211688	0.964059	-0.517587	0.849722	0.100381	-0.840431	-0.482868	-0.245996
25894	10.783014	1.615530	1.926705	-0.255716	-0.312979	0.087976	-0.163701	-0.212418	0.963369	-0.515315	0.851134	0.100105	-0.841220	-0.480052	-0.248794
25895	10.226430	1.208054	2.142284	-0.171566	-0.225525	0.034267	-0.165846	-0.213193	0.962831	-0.513801	0.852042	0.100161	-0.841727	-0.478092	-0.250846
25896	9.849549	1.004337	2.401644	0.014983	-0.193836	-0.001302	-0.167528	-0.214102	0.962338	-0.513950	0.851963	0.100075	-0.841303	-0.477828	-0.252765
25897	9.703548	1.013871	2.100766	0.301066	-0.191451	0.019078	-0.169294	-0.214837	0.961865	-0.516448	0.850567	0.099080	-0.839417	-0.479980	-0.254948
25898	9.859155	1.613051	1.376623	0.757293	-0.272525	0.037251	-0.171827	-0.215808	0.961198	-0.522745	0.846985	0.096718	-0.834993	-0.485843	-0.258348
25899	10.191040	1.406369	-1.003216	1.271244	-0.376366	0.023300	-0.175129	-0.217437	0.960235	-0.533285	0.840794	0.093129	-0.827609	-0.495769	-0.263203
25900	9.864317	0.756172	-3.721991	1.837863	-0.572293	0.019811	-0.180000	-0.220122	0.958721	-0.548379	0.831589	0.087974	-0.816628	-0.509907	-0.270396
25901	10.134909	0.277383	-5.785579	2.135247	-0.827154	0.071861	-0.187150	-0.223791	0.956500	-0.565554	0.820689	0.081358	-0.803196	-0.525726	-0.280158
25902	11.253515	-0.043280	-6.172387	1.972791	-0.961062	0.182257	-0.195910	-0.227399	0.953891	-0.580938	0.810584	0.073923	-0.790019	-0.539670	-0.290906
25903	11.835333	0.827031	-4.649136	1.502093	-0.849030	0.327763	-0.204553	-0.229363	0.951604	-0.592075	0.803150	0.066311	-0.779491	-0.549857	-0.300086
25904	11.543452	2.492592	-2.895383	0.891467	-0.621065	0.413328	-0.211893	-0.229460	0.949973	-0.598149	0.799164	0.059615	-0.772864	-0.555594	-0.306589
25905	11.405893	3.650867	-1.399421	0.257738	-0.434248	0.410377	-0.217759	-0.228581	0.948858	-0.599257	0.798674	0.054875	-0.770371	-0.556661	-0.310897
25906	11.758837	4.088850	0.241668	-0.230510	-0.217625	0.340169	-0.221530	-0.227046	0.948354	-0.596749	0.800722	0.052305	-0.771243	-0.554342	-0.312873
25907	11.935228	3.941336	1.988473	-0.687578	0.140590	0.278725	-0.222149	-0.224019	0.948929	-0.590813	0.805146	0.051763	-0.775622	-0.549141	-0.311215
25908	11.850428	3.168415	3.456554	-1.311592	0.545966	0.218110	-0.219226	-0.219257	0.950719	-0.580116	0.812763	0.053673	-0.784478	-0.539761	-0.305374
25909	11.563576	1.547576	4.377195	-1.785973	0.859318	0.153610	-0.213349	-0.213400	0.953385	-0.565680	0.822615	0.057541	-0.796548	-0.527034	-0.296220
25910	11.324899	-0.321182	4.325772	-1.767845	1.096288	0.153559	-0.205466	-0.206393	0.956653	-0.551185	0.832139	0.061148	-0.808689	-0.514729	-0.284737
25911	11.385857	-2.110248	3.726728	-1.312594	1.296443	0.237360	-0.196233	-0.197762	0.960408	-0.540071	0.839297	0.062475	-0.818423	-0.506429	-0.271503
25912	11.685147	-3.446087	3.052165	-0.660011	1.564965	0.330807	-0.185208	-0.187045	0.964734	-0.534035	0.843261	0.060971	-0.824927	-0.503910	-0.256068
