// General information: 
//  MT Manager version: 2022.2.0 
//  XDA version: 2022.2.0 build 7381 rev 124627 built on 2023-07-19
// Device information: 
//  DeviceId: 00B4CB9F
//  ProductCode: MTW2-3A7G6
//  Firmware Version: 4.6.0
//  Hardware Version: 2.0.0
// Device settings: 
//  Filter Profile: human(46.1)
//  Option Flags: Orientation Smoother Disabled, Position/Velocity Smoother Disabled, Continuous Zero Rotation Update Disabled, AHS Disabled, ICC Disabled
// Coordinate system: ENU
PacketCounter	Acc_X	Acc_Y	Acc_Z	Gyr_X	Gyr_Y	Gyr_Z	Mat[1][1]	Mat[2][1]	Mat[3][1]	Mat[1][2]	Mat[2][2]	Mat[3][2]	Mat[1][3]	Mat[2][3]	Mat[3][3]
54871	9.829804	-0.544850	1.008107	-0.073149	0.027647	0.014838	-0.046061	-0.020505	0.998728	0.214505	-0.976670	-0.010159	0.975636	0.213765	0.049385
54872	9.832331	-0.332578	1.018729	-0.012391	0.020925	0.012490	-0.046171	-0.020700	0.998719	0.214437	-0.976683	-0.010330	0.975646	0.213686	0.049534
54873	9.834901	-0.062906	1.009656	0.022345	0.022419	0.005736	-0.046298	-0.020833	0.998710	0.214705	-0.976623	-0.010419	0.975581	0.213946	0.049688
54874	9.762935	0.041368	0.796087	0.045060	0.024123	-0.002416	-0.046471	-0.020889	0.998701	0.215191	-0.976517	-0.010412	0.975466	0.214427	0.049875
54875	9.746025	-0.010456	0.435651	0.084183	0.008840	-0.004044	-0.046487	-0.020898	0.998700	0.216058	-0.976325	-0.010373	0.975273	0.215295	0.049902
54876	9.748569	-0.058973	0.265842	0.090964	0.010183	-0.004043	-0.046528	-0.020909	0.998698	0.216991	-0.976119	-0.010327	0.975064	0.216228	0.049954
54877	9.670346	-0.165812	0.111191	0.108106	-0.001637	-0.002717	-0.046440	-0.020908	0.998702	0.218087	-0.975875	-0.010289	0.974824	0.217326	0.049879
54878	9.764538	-0.137294	0.131433	0.108132	-0.018495	0.007450	-0.046176	-0.020968	0.998713	0.219192	-0.975627	-0.010349	0.974588	0.218432	0.049646
54879	9.809405	-0.013734	0.212669	0.095403	-0.022014	0.016531	-0.045845	-0.021109	0.998726	0.220178	-0.975403	-0.010509	0.974382	0.219415	0.049365
54880	9.773553	0.051399	0.308518	0.076794	-0.037230	0.020431	-0.045370	-0.021254	0.998744	0.220982	-0.975219	-0.010715	0.974222	0.220219	0.048942
54881	9.901329	0.117945	0.377448	0.045988	-0.038185	0.017628	-0.044877	-0.021370	0.998764	0.221487	-0.975102	-0.010911	0.974130	0.220724	0.048493
54882	9.871156	0.009194	0.429259	0.010026	-0.036975	0.016043	-0.044414	-0.021472	0.998782	0.221639	-0.975065	-0.011106	0.974117	0.220876	0.048066
54883	9.805666	-0.024286	0.423740	0.009504	-0.037891	0.006253	-0.043951	-0.021477	0.998803	0.221784	-0.975031	-0.011206	0.974105	0.221026	0.047616
54884	9.854896	0.047998	0.297548	0.016872	-0.043708	0.007046	-0.043442	-0.021476	0.998825	0.221998	-0.974981	-0.011308	0.974079	0.221246	0.047123
54885	9.824971	0.061120	0.152827	0.003202	-0.038944	-0.001967	-0.042987	-0.021398	0.998846	0.222075	-0.974964	-0.011329	0.974081	0.221332	0.046663
54886	9.837086	-0.071265	0.104359	-0.009110	-0.035553	0.002621	-0.042568	-0.021372	0.998865	0.222035	-0.974972	-0.011399	0.974109	0.221297	0.046248
54887	9.741154	-0.154872	0.135095	-0.009654	-0.027714	0.004447	-0.042207	-0.021381	0.998880	0.221993	-0.974981	-0.011489	0.974134	0.221259	0.045897
54888	9.744063	-0.126480	0.512078	-0.025689	-0.022113	0.013716	-0.041894	-0.021493	0.998891	0.221796	-0.975023	-0.011677	0.974193	0.221060	0.045615
54889	9.670961	-0.065024	1.075554	-0.068891	0.005240	0.014344	-0.041833	-0.021672	0.998890	0.221175	-0.975162	-0.011894	0.974336	0.220432	0.045587
54890	9.764048	-0.415398	0.958755	-0.090099	0.004301	0.013223	-0.041778	-0.021838	0.998888	0.220350	-0.975346	-0.012107	0.974526	0.219599	0.045560
54891	9.803053	-0.882379	0.931245	-0.066391	0.016644	0.020849	-0.041817	-0.022104	0.998881	0.219762	-0.975475	-0.012386	0.974657	0.218998	0.045649
54892	9.879740	-0.663203	1.082762	-0.000085	0.034332	0.028483	-0.042021	-0.022485	0.998864	0.219820	-0.975458	-0.012711	0.974635	0.219036	0.045933
54893	9.711122	-0.475998	0.843907	0.058918	0.032260	0.018494	-0.042217	-0.022765	0.998849	0.220451	-0.975313	-0.012912	0.974484	0.219653	0.046193
54894	9.738221	-0.020118	0.584430	0.091159	0.024502	0.013106	-0.042359	-0.022975	0.998838	0.221392	-0.975098	-0.013040	0.974264	0.220583	0.046391
54895	9.748494	0.243200	0.436468	0.073711	0.030833	0.006149	-0.042568	-0.023133	0.998826	0.222166	-0.974921	-0.013111	0.974079	0.221347	0.046639
54896	9.793743	0.037680	0.486402	0.029097	0.031876	-0.000768	-0.042812	-0.023223	0.998813	0.222496	-0.974845	-0.013129	0.973993	0.221670	0.046903
54897	9.776852	-0.203377	0.465482	0.018087	0.023764	0.000538	-0.042966	-0.023310	0.998805	0.222722	-0.974793	-0.013169	0.973935	0.221890	0.047074
54898	9.824521	-0.290275	0.283570	0.012090	0.010683	0.005509	-0.042990	-0.023415	0.998801	0.222889	-0.974754	-0.013258	0.973895	0.222052	0.047124
54899	9.828984	-0.199031	0.453246	-0.008260	0.007422	0.008168	-0.042966	-0.023539	0.998799	0.222861	-0.974758	-0.013386	0.973903	0.222018	0.047127
54900	9.798434	-0.306896	0.509258	-0.020095	0.001596	0.005663	-0.042901	-0.023626	0.998800	0.222715	-0.974790	-0.013492	0.973939	0.221869	0.047082
54901	9.753123	-0.488434	0.446285	-0.006571	-0.005935	0.004167	-0.042757	-0.023682	0.998805	0.222697	-0.974793	-0.013580	0.973950	0.221850	0.046953
54902	9.822669	-0.290754	0.317835	0.022487	-0.019334	0.001653	-0.042498	-0.023683	0.998816	0.222964	-0.974732	-0.013625	0.973900	0.222121	0.046704
54903	9.879859	-0.298721	0.354781	-0.003955	-0.001945	0.004298	-0.042391	-0.023750	0.998819	0.222974	-0.974728	-0.013714	0.973902	0.222129	0.046615
54904	9.799041	-0.630510	0.314723	0.000797	-0.002985	0.001179	-0.042292	-0.023783	0.998822	0.223029	-0.974715	-0.013765	0.973894	0.222185	0.046527
54905	9.884837	-0.586174	0.351559	0.047016	-0.000498	0.009316	-0.042189	-0.023903	0.998824	0.223532	-0.974598	-0.013882	0.973783	0.222684	0.046460
54906	9.836180	-0.208991	0.313046	0.080523	-0.002217	0.008516	-0.042081	-0.024009	0.998826	0.224367	-0.974405	-0.013969	0.973596	0.223516	0.046391
54907	9.782839	-0.036085	0.144942	0.095098	-0.016614	-0.000401	-0.041842	-0.023998	0.998836	0.225342	-0.974180	-0.013966	0.973381	0.224495	0.046169
54908	9.816859	0.011358	0.038870	0.082674	-0.015270	-0.003704	-0.041634	-0.023955	0.998846	0.226192	-0.973983	-0.013931	0.973193	0.225351	0.045969
54909	9.842106	-0.149714	0.029416	0.084560	-0.024433	-0.007311	-0.041335	-0.023859	0.998860	0.227064	-0.973781	-0.013864	0.973002	0.226232	0.045668
54910	9.828738	-0.119799	-0.010022	0.107214	-0.030743	-0.009047	-0.040989	-0.023729	0.998878	0.228150	-0.973529	-0.013764	0.972763	0.227330	0.045317
54911	9.835540	-0.020468	-0.035645	0.100033	-0.038979	-0.019898	-0.040575	-0.023476	0.998901	0.229156	-0.973295	-0.013566	0.972544	0.228354	0.044871
54912	9.747716	-0.012252	0.094703	0.069344	-0.029829	-0.021231	-0.040266	-0.023228	0.998919	0.229869	-0.973130	-0.013363	0.972388	0.229083	0.044523
54913	9.711326	0.030296	0.816241	0.013887	-0.000604	-0.021406	-0.040229	-0.023048	0.998925	0.230044	-0.973091	-0.013187	0.972348	0.229266	0.044449
54914	9.647093	-0.289779	1.039424	-0.050425	0.015434	-0.023481	-0.040366	-0.022882	0.998923	0.229591	-0.973200	-0.013015	0.972450	0.228818	0.044537
54915	9.892124	-0.996287	0.815502	-0.057804	0.021285	-0.008889	-0.040513	-0.022872	0.998917	0.229078	-0.973321	-0.012996	0.972565	0.228303	0.044672
54916	9.989015	-0.929162	1.062445	0.003700	0.051142	0.005912	-0.040929	-0.023074	0.998896	0.229163	-0.973300	-0.013093	0.972527	0.228374	0.045124
54917	9.816131	-0.583302	1.144056	0.075393	0.056308	0.000021	-0.041399	-0.023233	0.998873	0.229948	-0.973115	-0.013104	0.972322	0.229146	0.045628
54918	9.824594	-0.310898	0.875406	0.147877	0.050495	0.001785	-0.041818	-0.023394	0.998851	0.231433	-0.972763	-0.013094	0.971952	0.230620	0.046093
54919	9.857119	0.082396	0.531253	0.184638	0.058803	-0.001479	-0.042315	-0.023548	0.998827	0.233275	-0.972323	-0.013041	0.971490	0.232450	0.046637
54920	9.838053	0.082991	0.189636	0.188918	0.060481	-0.001222	-0.042838	-0.023704	0.998801	0.235156	-0.971871	-0.012979	0.971013	0.234318	0.047207
54921	9.724479	0.103786	-0.037496	0.209435	0.052708	-0.003351	-0.043278	-0.023827	0.998779	0.237237	-0.971366	-0.012893	0.970487	0.236390	0.047691
54922	9.724683	0.272058	-0.096400	0.207642	0.030432	-0.002074	-0.043511	-0.023905	0.998767	0.239298	-0.970862	-0.012812	0.969971	0.238445	0.047963
54923	9.725921	0.432794	-0.035639	0.142469	0.019481	-0.007134	-0.043638	-0.023913	0.998761	0.240723	-0.970511	-0.012719	0.969613	0.239869	0.048107
54924	9.759059	0.306353	0.079521	0.043390	0.006834	-0.013756	-0.043669	-0.023822	0.998762	0.241184	-0.970398	-0.012600	0.969496	0.240335	0.048122
54925	9.823573	0.111458	0.321743	-0.030995	-0.000228	-0.020172	-0.043636	-0.023655	0.998767	0.240924	-0.970464	-0.012458	0.969562	0.240084	0.048046
54926	9.813013	-0.035978	0.434842	-0.067534	-0.004369	-0.016572	-0.043566	-0.023510	0.998774	0.240309	-0.970618	-0.012365	0.969718	0.239476	0.047935
54927	9.950841	-0.208418	0.540111	-0.077400	-0.000447	-0.009661	-0.043506	-0.023443	0.998778	0.239604	-0.970792	-0.012349	0.969895	0.238774	0.047852
54928	9.854746	-0.290496	0.575050	-0.043603	0.006422	-0.009686	-0.043524	-0.023391	0.998779	0.239224	-0.970886	-0.012313	0.969989	0.238396	0.047852
54929	9.783510	-0.147429	0.614696	-0.008013	0.010787	-0.009583	-0.043572	-0.023352	0.998777	0.239188	-0.970896	-0.012266	0.969995	0.238362	0.047889
54930	9.635365	0.201098	0.775524	0.033851	0.006753	-0.015420	-0.043606	-0.023245	0.998778	0.239557	-0.970806	-0.012135	0.969903	0.238735	0.047902
54931	9.608702	0.415116	0.917604	0.000290	0.023027	-0.017504	-0.043793	-0.023157	0.998772	0.239603	-0.970797	-0.012003	0.969883	0.238783	0.048063
54932	9.733868	0.066017	0.637856	-0.051137	0.026978	-0.013345	-0.044019	-0.023119	0.998763	0.239148	-0.970910	-0.011934	0.969985	0.238327	0.048267
54933	9.862848	-0.202955	0.804636	-0.081128	0.049300	0.004248	-0.044410	-0.023305	0.998742	0.238410	-0.971090	-0.012058	0.970149	0.237575	0.048682
54934	9.793831	-0.183562	0.977440	-0.079239	0.048892	-0.003145	-0.044824	-0.023417	0.998720	0.237687	-0.971266	-0.012105	0.970307	0.236840	0.049102
54935	9.695676	-0.307287	0.793164	-0.066914	0.038221	0.001427	-0.045114	-0.023548	0.998704	0.237090	-0.971411	-0.012195	0.970440	0.236233	0.049407
54936	9.776781	-0.180271	0.481349	-0.057604	0.033430	0.000133	-0.045370	-0.023655	0.998690	0.236578	-0.971535	-0.012265	0.970553	0.235712	0.049675
54937	9.765441	-0.097630	0.391405	-0.054107	0.017560	-0.003656	-0.045474	-0.023689	0.998685	0.236101	-0.971651	-0.012297	0.970664	0.235231	0.049778
54938	9.764714	-0.089115	0.270246	-0.056599	-0.003364	-0.008881	-0.045394	-0.023622	0.998690	0.235594	-0.971774	-0.012276	0.970791	0.234728	0.049678
54939	9.688529	-0.158238	0.338569	-0.069013	-0.012305	-0.013654	-0.045230	-0.023489	0.998700	0.234966	-0.971927	-0.012218	0.970951	0.234108	0.049480
54940	9.660780	-0.274214	0.480882	-0.080370	-0.018629	-0.011626	-0.045009	-0.023359	0.998713	0.234227	-0.972106	-0.012181	0.971139	0.233378	0.049225
54941	9.794820	-0.275347	0.590345	-0.069575	-0.021963	-0.004215	-0.044729	-0.023296	0.998728	0.233598	-0.972257	-0.012217	0.971304	0.232754	0.048930
54942	9.818417	-0.169334	0.791236	-0.070338	-0.017552	-0.000154	-0.044491	-0.023281	0.998738	0.232962	-0.972408	-0.012289	0.971468	0.232121	0.048687
54943	9.795552	-0.018771	0.883727	-0.073329	-0.010209	-0.000745	-0.044317	-0.023279	0.998746	0.232296	-0.972566	-0.012361	0.971635	0.231457	0.048509
54944	9.810046	-0.097712	0.783946	-0.070570	-0.012193	-0.001697	-0.044135	-0.023261	0.998755	0.231657	-0.972718	-0.012418	0.971796	0.230820	0.048320
54945	9.843628	-0.154716	0.597333	-0.061859	-0.010547	-0.006466	-0.043971	-0.023204	0.998763	0.231100	-0.972851	-0.012427	0.971936	0.230268	0.048140
54946	9.854178	-0.285189	0.587298	-0.058843	0.001822	-0.005610	-0.043934	-0.023180	0.998765	0.230573	-0.972976	-0.012439	0.972063	0.229742	0.048092
54947	9.761202	-0.250279	0.388944	-0.023264	-0.015007	-0.011007	-0.043739	-0.023068	0.998777	0.230389	-0.973020	-0.012384	0.972115	0.229566	0.047874
54948	9.808002	-0.109895	0.156522	-0.015963	-0.031697	-0.014259	-0.043396	-0.022884	0.998796	0.230275	-0.973048	-0.012289	0.972158	0.229464	0.047496
54949	9.794773	-0.136205	0.136644	-0.031031	-0.035106	-0.004952	-0.042992	-0.022785	0.998816	0.230019	-0.973108	-0.012298	0.972236	0.229218	0.047077
54950	9.759716	-0.229943	0.135655	-0.037473	-0.048460	-0.007122	-0.042469	-0.022631	0.998841	0.229699	-0.973184	-0.012284	0.972335	0.228911	0.046529
54951	9.795023	-0.247639	0.168016	-0.047442	-0.055421	-0.004263	-0.041864	-0.022492	0.998870	0.229287	-0.973281	-0.012306	0.972458	0.228513	0.045903
54952	9.770498	-0.151291	0.311596	-0.048212	-0.060503	0.000980	-0.041206	-0.022391	0.998900	0.228865	-0.973379	-0.012378	0.972586	0.228104	0.045234
54953	9.861245	-0.175269	0.415643	-0.051037	-0.059166	-0.000680	-0.040555	-0.022279	0.998929	0.228418	-0.973484	-0.012438	0.972718	0.227669	0.044569
54954	9.873925	-0.364291	0.385944	-0.033437	-0.052432	0.002894	-0.039971	-0.022215	0.998954	0.228141	-0.973548	-0.012521	0.972807	0.227402	0.043982
54955	9.857135	-0.388302	0.433574	0.023269	-0.041202	0.005206	-0.039482	-0.022201	0.998974	0.228421	-0.973481	-0.012606	0.972762	0.227689	0.043506
54956	9.756615	-0.370468	0.805602	0.050089	-0.014366	0.006180	-0.039261	-0.022255	0.998981	0.228958	-0.973354	-0.012686	0.972644	0.228226	0.043310
54957	9.703101	-0.366708	0.697667	0.099522	-0.013469	0.005125	-0.039042	-0.022305	0.998989	0.229975	-0.973113	-0.012739	0.972413	0.229245	0.043122
54958	9.860605	-0.310862	0.911346	0.086974	0.022270	0.014778	-0.039157	-0.022527	0.998979	0.230874	-0.972898	-0.012889	0.972196	0.230133	0.043297
54959	9.789788	-0.331274	0.859753	0.078368	0.032228	0.010877	-0.039370	-0.022738	0.998966	0.231687	-0.972703	-0.013009	0.971993	0.230936	0.043564
54960	9.811294	-0.321088	0.864225	0.077445	0.042640	0.016029	-0.039680	-0.023019	0.998947	0.232493	-0.972509	-0.013175	0.971788	0.231726	0.043941
54961	9.801400	0.024711	0.918227	0.082661	0.051383	0.018898	-0.040059	-0.023353	0.998924	0.233356	-0.972299	-0.013373	0.971566	0.232570	0.044399
54962	9.770080	0.100708	0.639897	0.073793	0.046995	0.013184	-0.040417	-0.023618	0.998904	0.234125	-0.972113	-0.013511	0.971366	0.233323	0.044820
54963	9.830316	0.159783	0.314899	0.061978	0.041129	0.010692	-0.040718	-0.023849	0.998886	0.234777	-0.971954	-0.013635	0.971196	0.233960	0.045175
54964	9.813950	0.086168	0.235570	0.048957	0.039367	0.005094	-0.041021	-0.024017	0.998870	0.235301	-0.971826	-0.013704	0.971057	0.234473	0.045516
54965	9.746228	-0.042123	0.034336	0.049240	0.017174	0.001523	-0.041110	-0.024102	0.998864	0.235831	-0.971697	-0.013740	0.970924	0.234998	0.045630
54966	9.747987	-0.142072	-0.236179	0.064282	-0.006426	0.001057	-0.040977	-0.024124	0.998869	0.236502	-0.971534	-0.013761	0.970767	0.235671	0.045516
54967	9.769829	-0.187723	-0.215765	0.045774	-0.012269	0.003816	-0.040774	-0.024162	0.998876	0.236995	-0.971412	-0.013823	0.970655	0.236165	0.045334
54968	9.799343	-0.256174	-0.055275	0.027104	-0.012109	0.007643	-0.040570	-0.024234	0.998883	0.237308	-0.971335	-0.013927	0.970587	0.236478	0.045158
54969	9.796591	-0.317083	0.154442	0.029881	-0.022877	0.010521	-0.040249	-0.024312	0.998894	0.237645	-0.971250	-0.014063	0.970518	0.236816	0.044869
54970	9.868118	-0.250106	0.307783	0.045040	-0.025396	0.015532	-0.039898	-0.024429	0.998905	0.238135	-0.971128	-0.014238	0.970412	0.237306	0.044563
54971	9.877818	-0.163902	0.369833	0.050815	-0.024509	0.016603	-0.039545	-0.024562	0.998916	0.238682	-0.970991	-0.014426	0.970292	0.237853	0.044260
54972	9.877842	-0.221215	0.388817	0.057564	-0.014368	0.012761	-0.039307	-0.024678	0.998922	0.239293	-0.970838	-0.014568	0.970152	0.238462	0.044066
54973	9.800715	-0.227859	0.314550	0.087734	-0.013449	0.008443	-0.039080	-0.024757	0.998929	0.240195	-0.970614	-0.014658	0.969938	0.239365	0.043878
54974	9.812318	-0.086539	0.322715	0.099615	-0.005446	0.003405	-0.038951	-0.024803	0.998933	0.241209	-0.970362	-0.014689	0.969691	0.240380	0.043779
54975	9.717271	0.140849	0.788559	0.075405	0.016244	0.001447	-0.039029	-0.024887	0.998928	0.241987	-0.970168	-0.014715	0.969494	0.241154	0.043887
54976	9.705984	0.154755	0.997146	0.018769	0.029707	-0.002266	-0.039254	-0.024963	0.998917	0.242215	-0.970111	-0.014724	0.969428	0.241375	0.044127
54977	9.841744	-0.446421	0.874035	-0.027418	0.042409	0.004751	-0.039578	-0.025140	0.998900	0.241998	-0.970164	-0.014829	0.969469	0.241145	0.044481
54978	9.843988	-0.625524	1.028997	-0.012553	0.053382	0.017125	-0.039987	-0.025461	0.998876	0.241930	-0.970177	-0.015045	0.969470	0.241056	0.044954
54979	9.768531	-0.368469	1.100251	0.025054	0.060151	0.020328	-0.040446	-0.025833	0.998848	0.242229	-0.970099	-0.015281	0.969376	0.241332	0.045495
54980	9.686712	-0.083955	0.873988	0.062122	0.038197	0.020063	-0.040700	-0.026146	0.998829	0.242886	-0.969931	-0.015493	0.969201	0.241971	0.045827
54981	9.893519	0.224459	0.626350	0.058902	0.040638	0.016474	-0.040981	-0.026435	0.998810	0.243511	-0.969772	-0.015675	0.969032	0.242579	0.046179
54982	9.813613	0.227143	0.469689	0.024654	0.042975	0.008083	-0.041309	-0.026643	0.998791	0.243800	-0.969697	-0.015784	0.968945	0.242853	0.046553
54983	9.660538	0.107785	0.212083	0.010603	0.020252	0.000763	-0.041430	-0.026730	0.998784	0.243952	-0.969658	-0.015831	0.968902	0.242999	0.046694
54984	9.739748	0.068110	-0.004930	0.001586	0.002817	-0.001442	-0.041393	-0.026749	0.998785	0.244014	-0.969642	-0.015855	0.968888	0.243061	0.046663
54985	9.757724	0.083816	0.064576	-0.037189	0.000860	-0.005180	-0.041339	-0.026730	0.998788	0.243698	-0.969721	-0.015866	0.968970	0.242747	0.046601
54986	9.790425	-0.099350	0.199460	-0.082707	-0.010497	-0.002438	-0.041175	-0.026707	0.998795	0.242943	-0.969910	-0.015919	0.969166	0.241994	0.046425
54987	9.794402	-0.391399	0.356006	-0.096852	-0.015531	-0.002072	-0.040956	-0.026678	0.998805	0.242050	-0.970132	-0.015987	0.969399	0.241106	0.046190
54988	9.803626	-0.472162	0.481107	-0.077327	-0.015762	0.005830	-0.040721	-0.026723	0.998813	0.241349	-0.970304	-0.016120	0.969584	0.240407	0.045961
54989	9.902397	-0.511951	0.574189	-0.050772	-0.011294	-0.003947	-0.040547	-0.026686	0.998821	0.240904	-0.970415	-0.016148	0.969702	0.239966	0.045776
54990	9.826701	-0.357094	0.559115	-0.026538	-0.005254	-0.008241	-0.040448	-0.026620	0.998827	0.240690	-0.970468	-0.016117	0.969759	0.239756	0.045660
54991	9.820520	-0.173744	0.477487	-0.016816	-0.002432	-0.011464	-0.040378	-0.026532	0.998832	0.240569	-0.970499	-0.016055	0.969792	0.239640	0.045570
54992	9.807346	-0.143586	0.439713	-0.019496	-0.008577	-0.019449	-0.040274	-0.026349	0.998841	0.240419	-0.970539	-0.015909	0.969833	0.239500	0.045422
54993	9.795991	-0.171319	0.388470	-0.036767	-0.000294	-0.018641	-0.040242	-0.026198	0.998846	0.240098	-0.970620	-0.015785	0.969914	0.239186	0.045350
54994	9.827396	-0.281901	0.258551	-0.044884	0.000420	-0.014229	-0.040212	-0.026087	0.998851	0.239704	-0.970719	-0.015702	0.970013	0.238797	0.045288
54995	9.831106	-0.397418	0.231805	-0.056715	0.012848	-0.006378	-0.040278	-0.026085	0.998848	0.239201	-0.970843	-0.015708	0.970134	0.238293	0.045344
54996	9.788215	-0.370476	0.332653	-0.053954	0.010857	-0.007326	-0.040333	-0.026066	0.998846	0.238721	-0.970961	-0.015699	0.970250	0.237813	0.045385
54997	9.715945	-0.387871	0.313018	-0.050805	0.007020	-0.008989	-0.040349	-0.026026	0.998847	0.238272	-0.971072	-0.015677	0.970360	0.237364	0.045383
54998	9.676873	-0.420775	0.365366	-0.046893	0.008273	-0.015909	-0.040399	-0.025917	0.998847	0.237857	-0.971175	-0.015579	0.970460	0.236953	0.045399
54999	9.634721	-0.401631	0.588016	-0.049432	0.015172	-0.011975	-0.040500	-0.025868	0.998845	0.237419	-0.971283	-0.015527	0.970563	0.236516	0.045479
55000	9.796067	-0.243620	0.814616	-0.048679	0.020279	-0.017227	-0.040670	-0.025775	0.998840	0.236986	-0.971391	-0.015417	0.970661	0.236084	0.045615
55001	9.884150	-0.151627	0.920976	-0.070306	0.037978	-0.012588	-0.040995	-0.025774	0.998827	0.236344	-0.971548	-0.015370	0.970804	0.235436	0.045920
55002	9.853274	-0.145325	0.940689	-0.085254	0.054941	-0.015815	-0.041498	-0.025776	0.998806	0.235556	-0.971740	-0.015291	0.970974	0.234641	0.046397
55003	9.893926	-0.112275	0.860079	-0.081310	0.057643	-0.017473	-0.042025	-0.025772	0.998784	0.234808	-0.971923	-0.015200	0.971133	0.233884	0.046897
55004	9.951188	-0.215480	0.667623	-0.077932	0.068211	-0.017332	-0.042660	-0.025790	0.998757	0.234091	-0.972097	-0.015103	0.971278	0.233155	0.047507
55005	9.851108	-0.381647	0.417382	-0.037692	0.059183	-0.014173	-0.043195	-0.025821	0.998733	0.233768	-0.972176	-0.015024	0.971332	0.232823	0.048029
55006	9.847612	-0.464455	0.132090	0.019657	0.036924	-0.014818	-0.043521	-0.025790	0.998720	0.234000	-0.972122	-0.014907	0.971262	0.233051	0.048342
55007	9.821434	-0.348901	0.040724	0.063086	0.024020	-0.013315	-0.043712	-0.025749	0.998712	0.234653	-0.971967	-0.014789	0.971096	0.233704	0.048529
55008	9.726454	-0.054531	0.176029	0.066016	0.005800	-0.016792	-0.043740	-0.025627	0.998714	0.235333	-0.971805	-0.014629	0.970930	0.234391	0.048538
55009	9.701782	0.251827	0.486315	0.008375	-0.007458	-0.023500	-0.043649	-0.025412	0.998724	0.235452	-0.971779	-0.014436	0.970905	0.234522	0.048401
55010	9.787491	0.347477	0.623929	-0.079992	-0.013041	-0.036950	-0.043542	-0.025049	0.998738	0.234706	-0.971963	-0.014145	0.971091	0.233794	0.048200
55011	9.935806	0.158395	0.677392	-0.169990	-0.011158	-0.047512	-0.043471	-0.024593	0.998752	0.233082	-0.972359	-0.013798	0.971485	0.232192	0.048002
55012	9.920942	0.015459	0.856832	-0.223631	-0.008553	-0.059282	-0.043458	-0.024023	0.998766	0.230930	-0.972879	-0.013352	0.971999	0.230065	0.047827
55013	9.936357	-0.123913	0.899279	-0.249772	-0.000196	-0.063799	-0.043530	-0.023432	0.998777	0.228525	-0.973453	-0.012878	0.972564	0.227685	0.047729
55014	9.844325	-0.253140	0.761648	-0.230446	0.005714	-0.070145	-0.043678	-0.022789	0.998786	0.226299	-0.973980	-0.012327	0.973078	0.225486	0.047698
55015	9.907811	-0.372852	0.737168	-0.225242	0.017470	-0.072063	-0.043938	-0.022158	0.998789	0.224123	-0.974490	-0.011759	0.973570	0.223335	0.047783
55016	9.923244	-0.500569	0.658765	-0.216276	0.027020	-0.078633	-0.044309	-0.021479	0.998787	0.222030	-0.974977	-0.011117	0.974033	0.221268	0.047969
55017	9.803519	-0.679367	0.522801	-0.210145	0.037224	-0.089487	-0.044800	-0.020721	0.998781	0.219986	-0.975448	-0.010369	0.974474	0.219254	0.048258
55018	9.652946	-0.682065	0.343086	-0.186760	0.035544	-0.098982	-0.045296	-0.019861	0.998776	0.218169	-0.975865	-0.009511	0.974859	0.217471	0.048535
55019	9.696445	-0.492009	0.410529	-0.191999	0.039427	-0.107870	-0.045843	-0.018928	0.998769	0.216293	-0.976291	-0.008574	0.975252	0.215634	0.048850
55020	9.734815	-0.276664	0.303535	-0.206177	0.017132	-0.115503	-0.046192	-0.017865	0.998773	0.214276	-0.976744	-0.007560	0.975680	0.213664	0.048946
55021	9.772151	0.008016	0.054580	-0.247283	-0.002682	-0.125073	-0.046360	-0.016671	0.998786	0.211853	-0.977280	-0.006479	0.976201	0.211296	0.048839
55022	9.751529	0.121922	-0.019786	-0.321463	-0.014697	-0.136493	-0.046437	-0.015335	0.998804	0.208698	-0.977966	-0.005312	0.976877	0.208202	0.048614
55023	9.733124	-0.215753	0.091878	-0.399607	-0.001667	-0.147513	-0.046652	-0.013922	0.998814	0.204774	-0.978801	-0.004079	0.977697	0.204341	0.048514
55024	9.664775	-0.673496	0.253242	-0.410971	0.006295	-0.156940	-0.046965	-0.012427	0.998819	0.200729	-0.979643	-0.002750	0.978520	0.200362	0.048504
55025	9.687003	-0.931279	0.413526	-0.366272	0.011519	-0.159449	-0.047322	-0.010922	0.998820	0.197120	-0.980378	-0.001381	0.979237	0.196822	0.048546
55026	9.659420	-1.026901	0.464525	-0.317095	0.039015	-0.155788	-0.047942	-0.009500	0.998805	0.193988	-0.981004	-0.000019	0.979832	0.193755	0.048874
55027	9.545331	-1.167915	0.512543	-0.245043	0.052746	-0.149540	-0.048674	-0.008172	0.998781	0.191564	-0.981479	0.001305	0.980272	0.191394	0.049338
55028	9.597591	-1.076840	0.830551	-0.160969	0.083411	-0.133699	-0.049680	-0.007048	0.998740	0.189968	-0.981787	0.002521	0.980533	0.189854	0.050114
55029	9.777472	-0.862796	1.142166	-0.098575	0.104171	-0.122616	-0.050861	-0.006082	0.998687	0.188989	-0.981972	0.003645	0.980661	0.188926	0.051093
55030	9.804471	-0.968561	0.808510	-0.034464	0.105559	-0.124144	-0.052064	-0.005092	0.998631	0.188635	-0.982035	0.004827	0.980666	0.188628	0.052089
55031	9.637164	-1.417001	0.292024	0.053294	0.101725	-0.115001	-0.053206	-0.004198	0.998575	0.189145	-0.981931	0.005950	0.980507	0.189192	0.053039
55032	9.312953	-1.874948	0.164693	0.167249	0.111140	-0.092774	-0.054405	-0.003528	0.998513	0.190782	-0.981608	0.006927	0.980124	0.190875	0.054078
55033	9.484929	-1.278014	0.443792	0.338355	0.095376	-0.063025	-0.055388	-0.003138	0.998460	0.194113	-0.980949	0.007685	0.979414	0.194240	0.054941
55034	9.763231	0.471711	0.779400	0.422409	0.085475	-0.056175	-0.056268	-0.002784	0.998412	0.198265	-0.980112	0.008441	0.978532	0.198425	0.055701
55035	9.977225	2.120122	1.203734	0.284341	0.084936	-0.080545	-0.057187	-0.002210	0.998361	0.201048	-0.979537	0.009348	0.977911	0.201253	0.056461
55036	10.014155	3.051116	1.193084	0.009286	0.072168	-0.131214	-0.058089	-0.001099	0.998311	0.201111	-0.979511	0.010624	0.977844	0.201389	0.057120
55037	9.833559	2.371390	0.598821	-0.297349	0.071582	-0.177372	-0.059072	0.000454	0.998254	0.198146	-0.980097	0.012172	0.978391	0.198518	0.057807
55038	9.656433	0.645099	0.090996	-0.484869	0.076096	-0.203691	-0.060150	0.002273	0.998187	0.193326	-0.981036	0.013884	0.979289	0.193811	0.058569
55039	9.548711	-0.515831	-0.051948	-0.504194	0.061833	-0.200039	-0.061066	0.004079	0.998125	0.188314	-0.981986	0.015534	0.980209	0.188909	0.059197
55040	9.808444	-0.843476	0.092169	-0.474194	0.037658	-0.161740	-0.061669	0.005568	0.998081	0.183613	-0.982855	0.016828	0.981062	0.184298	0.059590
55041	9.813785	-0.547941	0.229428	-0.441752	0.005782	-0.119442	-0.061869	0.006691	0.998062	0.179255	-0.983643	0.017706	0.981855	0.180003	0.059658
55042	9.857125	0.136458	0.354176	-0.457252	-0.018676	-0.100968	-0.061799	0.007687	0.998059	0.174749	-0.984441	0.018402	0.982672	0.175547	0.059494
55043	9.934435	0.090860	0.444690	-0.494199	-0.020479	-0.095959	-0.061691	0.008626	0.998058	0.169881	-0.985281	0.019016	0.983532	0.170724	0.059317
55044	9.925370	-0.471111	0.590655	-0.453490	-0.003719	-0.114962	-0.061781	0.009734	0.998042	0.165396	-0.986027	0.019856	0.984290	0.166299	0.059308
55045	9.682614	-1.241400	0.574161	-0.285642	0.012799	-0.129042	-0.062049	0.010945	0.998013	0.162552	-0.986478	0.020925	0.984747	0.163527	0.059431
55046	9.544500	-1.267997	0.493351	-0.026870	0.018842	-0.129140	-0.062379	0.012156	0.997978	0.162255	-0.986500	0.022158	0.984775	0.163309	0.059564
55047	9.578637	-0.212569	0.622814	0.222510	0.017719	-0.119541	-0.062676	0.013260	0.997946	0.164422	-0.986112	0.023430	0.984397	0.165552	0.059625
55048	9.653588	0.962331	1.448166	0.211623	0.040858	-0.114153	-0.063201	0.014286	0.997899	0.166481	-0.985736	0.024656	0.984017	0.167689	0.059921
55049	9.571454	0.872153	1.425077	0.125595	0.032255	-0.118064	-0.063645	0.015351	0.997855	0.167691	-0.985500	0.025857	0.983783	0.168977	0.060148
55050	9.857117	0.304825	1.145401	0.091076	0.019432	-0.090929	-0.063924	0.016183	0.997824	0.168577	-0.985325	0.026780	0.983613	0.169922	0.060257
55051	9.821507	0.232768	1.768415	0.052298	0.055489	-0.072317	-0.064520	0.016759	0.997776	0.169099	-0.985216	0.027482	0.983485	0.170496	0.060732
55052	9.593769	0.376385	1.913688	0.070165	0.047130	-0.073347	-0.065042	0.017369	0.997731	0.169790	-0.985076	0.028218	0.983332	0.171240	0.061122
55053	9.707846	0.618990	1.668375	0.105115	0.015480	-0.076642	-0.065256	0.018053	0.997705	0.170824	-0.984875	0.028994	0.983138	0.172324	0.061186
55054	9.801891	1.098321	1.767045	0.115191	-0.013259	-0.079478	-0.065197	0.018827	0.997695	0.171953	-0.984654	0.029818	0.982945	0.173501	0.060959
55055	9.914753	1.201450	1.460430	0.118144	-0.053370	-0.091296	-0.064764	0.019777	0.997705	0.173104	-0.984423	0.030751	0.982772	0.174698	0.060332
55056	9.848122	1.058584	0.908029	0.110658	-0.104912	-0.090190	-0.063824	0.020818	0.997744	0.174182	-0.984204	0.031678	0.982643	0.175810	0.059190
55057	9.638638	1.080274	0.620142	0.089072	-0.132900	-0.077269	-0.062588	0.021770	0.997802	0.175057	-0.984023	0.032450	0.982567	0.176703	0.057777
55058	9.708304	0.931494	0.106742	0.082610	-0.164961	-0.053790	-0.060996	0.022560	0.997883	0.175884	-0.983858	0.032994	0.982519	0.177524	0.056043
55059	9.914866	0.961699	-0.241279	0.091412	-0.163133	-0.040468	-0.059400	0.023209	0.997964	0.176805	-0.983679	0.033400	0.982452	0.178429	0.054327
55060	9.908401	1.095307	-0.413313	0.073452	-0.157188	-0.031980	-0.057846	0.023774	0.998042	0.177556	-0.983533	0.033719	0.982409	0.179159	0.052672
55061	9.911332	1.196918	-0.480499	0.044795	-0.154272	-0.016693	-0.056293	0.024175	0.998122	0.178037	-0.983441	0.033861	0.982412	0.179608	0.051057
55062	9.837817	0.823238	-0.450628	0.003804	-0.147960	-0.025585	-0.054819	0.024662	0.998192	0.178108	-0.983421	0.034079	0.982483	0.179654	0.049518
55063	9.751178	0.448711	-0.213233	0.010137	-0.147724	-0.019969	-0.053336	0.025087	0.998261	0.178248	-0.983390	0.034237	0.982539	0.179764	0.047978
55064	9.831598	0.408647	0.175617	0.072435	-0.134306	-0.007187	-0.051963	0.025369	0.998327	0.179004	-0.983250	0.034303	0.982475	0.180487	0.046551
55065	9.840159	0.514177	0.856166	0.108250	-0.107349	0.007051	-0.050826	0.025458	0.998383	0.180122	-0.983048	0.034237	0.982330	0.181570	0.045379
55066	9.921677	0.797668	1.491486	0.126664	-0.089946	0.011475	-0.049856	0.025479	0.998431	0.181419	-0.982813	0.034139	0.982141	0.182837	0.044377
55067	9.772675	0.767488	1.923861	0.101207	-0.056263	0.019876	-0.049200	0.025349	0.998467	0.182470	-0.982625	0.033939	0.981980	0.183860	0.043720
55068	9.656234	0.691794	2.240319	0.103936	-0.030916	0.035946	-0.048765	0.025023	0.998497	0.183556	-0.982435	0.033585	0.981799	0.184918	0.043315
55069	9.586386	0.825960	2.146335	0.151629	-0.016530	0.050061	-0.048446	0.024525	0.998525	0.185115	-0.982159	0.033105	0.981522	0.186446	0.043042
55070	9.421456	1.098074	1.873062	0.187466	-0.022733	0.056739	-0.048051	0.023981	0.998557	0.187030	-0.981814	0.032579	0.981178	0.188326	0.042692
55071	9.469130	1.190617	1.594369	0.180546	-0.026383	0.064178	-0.047608	0.023364	0.998593	0.188879	-0.981480	0.031969	0.980846	0.190135	0.042314
55072	9.313308	0.750417	1.254067	0.144581	-0.040812	0.062363	-0.047023	0.022801	0.998634	0.190374	-0.981210	0.031367	0.980585	0.191589	0.041799
55073	9.316457	0.291287	0.731815	0.143487	-0.086493	0.075321	-0.045971	0.022194	0.998696	0.191862	-0.980944	0.030632	0.980345	0.193020	0.040837
55074	9.582398	0.382507	0.493280	0.156990	-0.134158	0.099546	-0.044398	0.021449	0.998784	0.193493	-0.980653	0.029660	0.980097	0.194574	0.039389
55075	9.589822	0.825625	0.351518	0.152957	-0.191953	0.111498	-0.042240	0.020696	0.998893	0.195088	-0.980370	0.028562	0.979876	0.196079	0.037374
55076	9.795503	1.160755	0.233014	0.092842	-0.235720	0.115592	-0.039638	0.019996	0.999014	0.196092	-0.980203	0.027400	0.979784	0.196985	0.034932
55077	9.774268	1.138297	0.241566	-0.012589	-0.264935	0.112467	-0.036765	0.019383	0.999136	0.196053	-0.980242	0.026230	0.979904	0.196848	0.032238
55078	9.651279	0.887075	0.366939	-0.094586	-0.301279	0.109427	-0.033532	0.018872	0.999259	0.195212	-0.980441	0.025067	0.980188	0.195908	0.029192
55079	9.680820	0.648519	0.704360	-0.120586	-0.324136	0.102302	-0.030097	0.018472	0.999376	0.194106	-0.980688	0.023972	0.980519	0.194706	0.025930
55080	9.755651	0.532117	1.057377	-0.110667	-0.334841	0.104183	-0.026545	0.018071	0.999484	0.193097	-0.980913	0.022863	0.980821	0.193604	0.022549
55081	9.707586	0.187758	1.371800	-0.085713	-0.333458	0.108403	-0.023005	0.017622	0.999580	0.192331	-0.981090	0.021723	0.981060	0.192750	0.019180
55082	9.814828	-0.587564	1.592281	-0.029136	-0.314604	0.127681	-0.019606	0.016946	0.999664	0.192119	-0.981160	0.020400	0.981176	0.192454	0.015981
55083	9.691844	-1.494279	1.600849	0.142766	-0.302942	0.166097	-0.016257	0.015872	0.999742	0.193595	-0.980903	0.018721	0.980947	0.193849	0.012873
55084	9.579103	-1.339252	1.396213	0.447949	-0.337370	0.208202	-0.012474	0.014463	0.999818	0.198063	-0.980048	0.016648	0.980110	0.198235	0.009361
55085	9.641538	-0.070515	1.210678	0.661721	-0.367182	0.242971	-0.008331	0.012791	0.999883	0.204619	-0.978738	0.014225	0.978806	0.204713	0.005536
55086	9.544564	1.135712	1.264834	0.675571	-0.365336	0.255952	-0.004158	0.011019	0.999931	0.211288	-0.977354	0.011649	0.977415	0.211322	0.001736
55087	9.484483	1.610057	1.188805	0.596529	-0.373507	0.258401	0.000097	0.009263	0.999957	0.217165	-0.976093	0.009021	0.976135	0.217155	-0.002106
55088	9.421566	1.412909	1.028746	0.495264	-0.383494	0.245924	0.004446	0.007678	0.999961	0.222036	-0.975017	0.006499	0.975028	0.221998	-0.006039
55089	9.331376	1.218762	1.250696	0.415262	-0.403140	0.241014	0.008965	0.006202	0.999941	0.226109	-0.974094	0.004015	0.974061	0.226060	-0.010135
55090	9.298241	1.451439	1.592667	0.335684	-0.444046	0.235215	0.013892	0.004896	0.999892	0.229395	-0.973332	0.001579	0.973234	0.229349	-0.014644
55091	9.677416	2.381406	1.845379	0.259557	-0.496995	0.223444	0.019291	0.003842	0.999807	0.231924	-0.972734	-0.000737	0.972543	0.231893	-0.019656
55092	10.365154	2.649952	1.690694	0.063314	-0.481495	0.198837	0.024503	0.002999	0.999695	0.232540	-0.972583	-0.002782	0.972278	0.232538	-0.024528
55093	10.052505	0.893774	1.352396	-0.116164	-0.418825	0.178044	0.029031	0.002217	0.999576	0.231401	-0.972848	-0.004563	0.972425	0.231436	-0.028756
55094	10.932491	-0.476516	1.021059	0.012532	-0.378859	0.202875	0.033252	0.001094	0.999446	0.231504	-0.972811	-0.006638	0.972266	0.231596	-0.032601
55095	11.145439	-1.027680	1.562759	0.195429	-0.255198	0.236117	0.036324	-0.000632	0.999340	0.233359	-0.972348	-0.009097	0.971712	0.233536	-0.035172
55096	10.533612	-0.872856	2.134232	0.283265	-0.118171	0.264801	0.038161	-0.002955	0.999267	0.236056	-0.971667	-0.011888	0.970990	0.236337	-0.036382
55097	10.064331	-0.208451	2.430454	0.299225	-0.001166	0.278237	0.038871	-0.005680	0.999228	0.238889	-0.970934	-0.014812	0.970268	0.239281	-0.036385
55098	9.974887	0.420598	2.831685	0.241079	0.080016	0.298015	0.038878	-0.008791	0.999205	0.241155	-0.970321	-0.017920	0.969707	0.241660	-0.035604
55099	10.106604	0.631756	3.535174	0.127034	0.149963	0.313707	0.038218	-0.012223	0.999195	0.242300	-0.969971	-0.021134	0.969448	0.242913	-0.034109
55100	10.412148	0.366004	4.219181	0.032586	0.208722	0.321575	0.037042	-0.015876	0.999188	0.242538	-0.969835	-0.024401	0.969434	0.243245	-0.032074
55101	10.924199	0.060305	4.463379	-0.081885	0.321538	0.310555	0.034702	-0.019694	0.999204	0.241667	-0.969969	-0.027510	0.969739	0.242429	-0.028900
55102	11.330578	-0.403594	4.580762	-0.251621	0.504813	0.284564	0.030557	-0.023698	0.999252	0.239176	-0.970502	-0.030330	0.970495	0.239924	-0.023987
55103	11.610576	-0.946007	5.172258	-0.436122	0.660318	0.265393	0.024792	-0.027867	0.999304	0.234896	-0.971463	-0.032919	0.971704	0.235548	-0.017539
55104	12.290050	-1.167556	6.143523	-0.544244	0.792463	0.252481	0.017740	-0.032194	0.999324	0.229594	-0.972642	-0.035410	0.973125	0.230067	-0.009863
55105	11.615961	-1.060609	6.730565	-0.601472	0.959231	0.214288	0.008892	-0.036486	0.999295	0.223738	-0.973926	-0.037551	0.974609	0.223914	-0.000497
55106	10.626209	-0.599934	6.833916	-0.538394	1.018832	0.155612	-0.000633	-0.040283	0.999188	0.218526	-0.975045	-0.039171	0.975831	0.218324	0.009420
55107	10.810164	-0.607812	6.483168	-0.532578	1.102739	0.086567	-0.011217	-0.043534	0.998989	0.213359	-0.976149	-0.040143	0.976910	0.212693	0.020238
55108	11.352537	-1.015698	6.072817	-0.606475	1.249706	0.020791	-0.023321	-0.046384	0.998651	0.207480	-0.977398	-0.040551	0.977961	0.206255	0.032418
55109	12.187235	-1.189368	5.785660	-0.884585	1.404336	0.017493	-0.037043	-0.049423	0.998091	0.198862	-0.979165	-0.041106	0.979327	0.196960	0.046099
55110	12.156398	-1.954109	5.160220	-1.511562	1.496628	0.002751	-0.051645	-0.052312	0.997294	0.184090	-0.982013	-0.041977	0.981552	0.181424	0.060346
55111	11.636674	-2.474153	3.504706	-1.896805	1.325167	-0.059368	-0.064790	-0.054042	0.996434	0.165442	-0.985296	-0.042681	0.984089	0.162087	0.072778
55112	12.106542	-1.668771	-0.748009	-1.256214	1.081449	-0.064896	-0.075477	-0.055117	0.995623	0.153075	-0.987276	-0.043051	0.985328	0.149156	0.082954
55113	12.540646	0.030947	-4.309907	-0.096623	1.170460	-0.001040	-0.087024	-0.056892	0.994580	0.152163	-0.987412	-0.043168	0.984517	0.147582	0.094586
55114	11.995869	0.274112	-5.167909	0.197578	1.453564	0.024436	-0.101221	-0.059319	0.993094	0.154179	-0.987096	-0.043246	0.982844	0.148737	0.109060
55115	11.375301	-0.495272	-4.476694	-0.080446	1.602676	-0.003503	-0.116971	-0.061700	0.991217	0.153430	-0.987208	-0.043345	0.981212	0.147012	0.124941
55116	11.057078	-0.853364	-3.720280	-0.269180	1.600210	-0.032422	-0.132644	-0.063737	0.989112	0.150801	-0.987610	-0.043417	0.979625	0.143400	0.140613
55117	10.327611	-0.926286	-3.668560	-0.148769	1.522317	-0.047117	-0.147610	-0.065481	0.986876	0.149325	-0.987844	-0.043211	0.977708	0.140987	0.155594
55118	9.802735	-1.159053	-4.035424	0.105885	1.439832	-0.035943	-0.161660	-0.067190	0.984556	0.150355	-0.987709	-0.042718	0.975325	0.141128	0.169775
55119	9.298933	-1.116271	-4.090776	0.407021	1.417794	0.019170	-0.175425	-0.069447	0.982040	0.154400	-0.987106	-0.042225	0.972310	0.144219	0.183886
55120	8.762962	-0.778411	-3.576698	0.638909	1.387217	0.075302	-0.188706	-0.072261	0.979371	0.160791	-0.986104	-0.041776	0.968781	0.149590	0.197702
55121	8.378276	-0.215369	-3.078667	0.797555	1.308541	0.092963	-0.201182	-0.075223	0.976661	0.168733	-0.984805	-0.041093	0.964912	0.156528	0.210818
55122	8.214727	0.560749	-2.724712	0.898328	1.242889	0.079674	-0.212947	-0.078034	0.973943	0.177601	-0.983291	-0.039951	0.960787	0.164466	0.223248
55123	8.023359	1.108666	-2.525167	0.893641	1.181084	0.053736	-0.224142	-0.080592	0.971218	0.186337	-0.981733	-0.038460	0.956577	0.172353	0.235065
55124	7.798702	1.248449	-2.206125	0.748917	1.135683	0.007148	-0.234905	-0.082686	0.968495	0.193556	-0.980400	-0.036757	0.952552	0.178824	0.246305
55125	7.724744	1.069975	-1.775649	0.477703	1.092041	-0.072279	-0.245393	-0.083988	0.965779	0.197976	-0.979586	-0.034885	0.948993	0.182641	0.257011
55126	7.821444	0.389782	-1.374475	0.127371	1.075590	-0.119607	-0.255757	-0.084813	0.963014	0.198938	-0.979442	-0.033426	0.946051	0.183031	0.267372
55127	7.970696	-0.498702	-0.802635	-0.213685	1.104371	-0.122904	-0.266393	-0.085648	0.960052	0.196651	-0.979923	-0.032854	0.943591	0.180043	0.277887
55128	8.198790	-0.396256	0.351386	-0.600376	1.197089	-0.119502	-0.277844	-0.086621	0.956713	0.190722	-0.981074	-0.033438	0.941503	0.173176	0.289106
55129	8.381237	0.436552	1.820672	-1.032948	1.301792	-0.122812	-0.290272	-0.087630	0.952924	0.180711	-0.982901	-0.035340	0.939727	0.161945	0.301144
55130	7.944854	1.283952	3.506819	-1.505742	1.400082	-0.124194	-0.303571	-0.088595	0.948681	0.166259	-0.985318	-0.038815	0.938191	0.145944	0.313843
55131	6.491446	1.298124	4.142369	-1.888962	1.336790	-0.137672	-0.316278	-0.089090	0.944474	0.148175	-0.988001	-0.043576	0.937023	0.126166	0.325684
55132	5.678615	0.814323	3.474772	-1.824675	1.006663	-0.132944	-0.325831	-0.088985	0.941231	0.130714	-0.990240	-0.048368	0.936348	0.107272	0.334283
55133	6.255866	0.045988	2.995361	-1.488050	0.588772	-0.081235	-0.331405	-0.088801	0.939300	0.116569	-0.991787	-0.052635	0.936260	0.092050	0.339035
55134	7.233754	-1.439692	3.107051	-1.235156	0.299172	0.020233	-0.334124	-0.089295	0.938290	0.105127	-0.992821	-0.057049	0.936648	0.079578	0.341112
55135	8.303223	-2.496228	3.361545	-1.122103	0.165588	0.135437	-0.335502	-0.090800	0.937654	0.095122	-0.993522	-0.062174	0.937225	0.068332	0.341965
55136	9.150598	-2.438309	3.528949	-1.120195	0.166513	0.213398	-0.336810	-0.093063	0.936962	0.085396	-0.994022	-0.068033	0.937692	0.057099	0.342744
55137	9.270223	-2.205717	3.955214	-1.209414	0.161014	0.200131	-0.338123	-0.095176	0.936277	0.074784	-0.994444	-0.074081	0.938126	0.044970	0.343362
55138	8.960039	-2.697766	4.456558	-1.342481	0.096170	0.098982	-0.338899	-0.096237	0.935888	0.062579	-0.994857	-0.079640	0.938739	0.031577	0.343178
55139	8.712085	-3.159596	4.212057	-1.306148	-0.056258	0.012485	-0.338327	-0.096392	0.936079	0.050410	-0.995168	-0.084257	0.939677	0.018682	0.341552
55140	8.365335	-3.352309	3.869644	-1.172315	-0.155137	-0.040340	-0.336829	-0.096011	0.936658	0.039310	-0.995354	-0.087892	0.940745	0.007215	0.339038
55141	8.183773	-3.394955	4.041957	-1.006144	-0.201968	-0.073036	-0.334919	-0.095330	0.937412	0.029651	-0.995442	-0.090638	0.941780	-0.002561	0.336219
55142	8.991249	-3.486959	4.218194	-0.729649	-0.328988	-0.131536	-0.331796	-0.094082	0.938648	0.022394	-0.995519	-0.091867	0.943085	-0.009461	0.332416
55143	8.502717	-1.901769	3.270174	-0.324242	-0.468854	-0.239091	-0.327387	-0.091808	0.940420	0.018603	-0.995702	-0.090728	0.944707	-0.012208	0.327687
55144	7.218253	-0.445362	1.549295	-0.006040	-0.683263	-0.363664	-0.320933	-0.088310	0.942976	0.017425	-0.996025	-0.087348	0.946942	-0.011602	0.321196
55145	7.095604	0.673203	0.219753	-0.024740	-0.860232	-0.389543	-0.312807	-0.084582	0.946043	0.016013	-0.996355	-0.083786	0.949682	-0.011060	0.313021
55146	8.646243	0.566565	-0.662393	-0.297984	-0.905690	-0.355516	-0.304185	-0.081192	0.949146	0.012139	-0.996611	-0.081362	0.952536	-0.013227	0.304140
55147	10.806998	-0.824783	-0.551310	-0.586269	-0.797748	-0.313494	-0.296567	-0.078248	0.951801	0.005663	-0.996764	-0.080180	0.954995	-0.018389	0.296051
55148	12.059480	-2.336550	0.853094	-0.780767	-0.593627	-0.317404	-0.290841	-0.075258	0.953807	-0.002676	-0.996834	-0.079469	0.956768	-0.025665	0.289718
55149	12.107907	-2.509200	2.298384	-0.644677	-0.533263	-0.360810	-0.285670	-0.071870	0.955629	-0.009832	-0.996912	-0.077914	0.958278	-0.031654	0.284081
55150	12.217699	-2.083664	2.812913	-0.275961	-0.593667	-0.381079	-0.279875	-0.068309	0.957603	-0.013500	-0.997087	-0.075071	0.959941	-0.033939	0.278138
55151	12.399633	-1.675976	3.334573	-0.080992	-0.516372	-0.386687	-0.274816	-0.064688	0.959318	-0.015294	-0.997314	-0.071632	0.961375	-0.034357	0.273088
55152	11.417574	-1.563306	4.026090	-0.148196	-0.360093	-0.414477	-0.271227	-0.060724	0.960598	-0.017795	-0.997521	-0.068082	0.962351	-0.035560	0.269474
55153	10.120141	-2.738748	4.003733	-0.195918	-0.335083	-0.424198	-0.267876	-0.056674	0.961785	-0.020768	-0.997697	-0.064574	0.963229	-0.037273	0.266082
55154	9.933750	-4.167006	3.334120	0.113912	-0.435599	-0.364757	-0.263546	-0.053237	0.963177	-0.020584	-0.997938	-0.060791	0.964427	-0.035847	0.261907
55155	9.830711	-3.453824	1.875953	0.658124	-0.533852	-0.329141	-0.258293	-0.050189	0.964762	-0.015034	-0.998320	-0.055959	0.965950	-0.028958	0.257104
55156	9.435131	-0.772257	-0.098910	1.139865	-0.710434	-0.324607	-0.251334	-0.047154	0.966751	-0.004784	-0.998740	-0.049958	0.967889	-0.017181	0.250792
55157	9.959926	0.769325	-1.557505	1.083346	-0.765433	-0.271089	-0.243874	-0.044600	0.968781	0.005097	-0.998987	-0.044707	0.969794	-0.005965	0.243854
55158	10.186667	0.356641	-1.575643	0.615937	-0.668867	-0.223722	-0.237341	-0.042425	0.970500	0.010593	-0.999100	-0.041085	0.971369	0.000529	0.237577
55159	9.673957	-0.903471	-0.906207	0.469509	-0.652034	-0.225462	-0.230979	-0.040215	0.972127	0.014685	-0.999176	-0.037845	0.972848	0.005534	0.231379
55160	9.584478	-0.776488	-0.063665	0.660987	-0.698497	-0.228737	-0.224160	-0.037908	0.973815	0.020655	-0.999204	-0.034142	0.974333	0.012461	0.224765
55161	9.797925	0.934837	0.558662	0.775849	-0.730018	-0.249761	-0.217046	-0.035354	0.975521	0.027725	-0.999164	-0.030043	0.975768	0.020526	0.217845
55162	10.037872	2.207043	0.635048	0.601895	-0.727391	-0.291343	-0.209972	-0.032312	0.977173	0.033035	-0.999118	-0.025939	0.977149	0.026834	0.210855
55163	9.849633	2.313158	0.754997	0.266682	-0.692358	-0.341054	-0.203259	-0.028767	0.978702	0.034993	-0.999143	-0.022100	0.978499	0.029756	0.204091
55164	9.638976	1.124945	1.342019	-0.086096	-0.612177	-0.374231	-0.197333	-0.024887	0.980021	0.033455	-0.999266	-0.018640	0.979765	0.029108	0.198021
55165	9.105076	-0.796150	2.033691	-0.293684	-0.537709	-0.363240	-0.192116	-0.021164	0.981144	0.029924	-0.999429	-0.015699	0.980916	0.026343	0.192640
55166	8.917005	-1.749193	2.619542	-0.247330	-0.501340	-0.325400	-0.187229	-0.017826	0.982155	0.026933	-0.999553	-0.013007	0.981947	0.024017	0.187625
55167	9.467429	-1.343653	3.269258	-0.080100	-0.469532	-0.281691	-0.182630	-0.014956	0.983068	0.025680	-0.999616	-0.010437	0.982846	0.023339	0.182944
55168	9.757327	-0.466426	3.890441	0.006203	-0.434069	-0.264372	-0.178370	-0.012252	0.983887	0.025317	-0.999649	-0.007859	0.983638	0.023507	0.178618
55169	9.741990	0.357048	3.708130	0.063523	-0.427586	-0.277963	-0.174176	-0.009430	0.984669	0.025507	-0.999662	-0.005062	0.984384	0.024234	0.174358
55170	9.662673	0.788353	3.358459	0.071459	-0.426009	-0.301116	-0.169998	-0.006356	0.985424	0.025745	-0.999667	-0.002006	0.985108	0.025029	0.170105
55171	9.543830	0.712528	2.972388	0.057478	-0.389601	-0.326358	-0.166188	-0.003052	0.986089	0.025817	-0.999666	0.001257	0.985756	0.025667	0.166212
55172	9.357589	0.384816	2.587558	0.052968	-0.400679	-0.347129	-0.162267	0.000482	0.986747	0.025822	-0.999655	0.004735	0.986409	0.026248	0.162199
55173	9.534414	-0.167255	2.356445	0.111599	-0.423742	-0.340937	-0.158122	0.003947	0.987412	0.026430	-0.999617	0.008229	0.987066	0.027398	0.157957
55174	9.755938	-0.161153	2.437880	0.230260	-0.423851	-0.308624	-0.153961	0.007113	0.988051	0.028274	-0.999533	0.011602	0.987672	0.029723	0.153688
55175	9.810961	0.352399	2.429910	0.315099	-0.423179	-0.265173	-0.149807	0.009840	0.988666	0.031037	-0.999411	0.014649	0.988228	0.032880	0.149413
55176	9.979115	1.046803	2.132121	0.336513	-0.394103	-0.218053	-0.145922	0.012115	0.989222	0.034093	-0.999269	0.017267	0.988708	0.036245	0.145402
55177	9.926994	1.661743	1.714040	0.297369	-0.361830	-0.189012	-0.142359	0.014085	0.989715	0.036813	-0.999132	0.019514	0.989130	0.039213	0.141717
55178	9.981221	1.520961	1.252859	0.148120	-0.314499	-0.165304	-0.139249	0.015823	0.990131	0.038098	-0.999046	0.021323	0.989524	0.040691	0.138514
55179	9.821652	0.865925	0.950271	0.102639	-0.288092	-0.134911	-0.136399	0.017237	0.990504	0.038979	-0.998981	0.022752	0.989887	0.041713	0.135588
55180	9.643198	0.433001	0.682342	0.189358	-0.307015	-0.106737	-0.133341	0.018395	0.990899	0.040762	-0.998880	0.024028	0.990232	0.043595	0.132442
55181	9.523561	0.534154	0.345384	0.296031	-0.339332	-0.096733	-0.129969	0.019462	0.991327	0.043618	-0.998727	0.025326	0.990558	0.046531	0.128954
55182	9.513919	0.868768	-0.191589	0.375246	-0.395959	-0.083378	-0.126023	0.020447	0.991817	0.047280	-0.998528	0.026593	0.990900	0.050245	0.124870
55183	9.840518	1.123235	-0.540495	0.380000	-0.449901	-0.078728	-0.121548	0.021417	0.992354	0.051000	-0.998312	0.027793	0.991274	0.053988	0.120251
55184	9.939144	1.038000	-0.430064	0.295418	-0.471414	-0.071464	-0.116850	0.022354	0.992898	0.053895	-0.998131	0.028814	0.991686	0.056879	0.115427
55185	10.209841	0.329869	-0.281274	0.242507	-0.533895	-0.045777	-0.111522	0.023072	0.993494	0.056299	-0.997978	0.029496	0.992166	0.059223	0.109998
55186	9.985425	0.139685	0.027777	0.251104	-0.595989	0.014379	-0.105538	0.023250	0.994143	0.058858	-0.997828	0.029585	0.992672	0.061635	0.103940
55187	9.682253	0.498855	0.626401	0.220163	-0.637548	0.040823	-0.099124	0.023194	0.994805	0.061137	-0.997698	0.029354	0.993195	0.063729	0.097477
55188	9.558150	0.820208	1.188333	0.145240	-0.614064	0.041569	-0.092936	0.023137	0.995403	0.062670	-0.997612	0.029040	0.993698	0.065080	0.091264
55189	9.584152	0.823227	1.798162	0.096651	-0.579360	0.037048	-0.087094	0.023100	0.995932	0.063714	-0.997555	0.028709	0.994161	0.065955	0.085409
55190	9.709869	0.775281	2.205090	0.038789	-0.529835	0.030288	-0.081744	0.023110	0.996385	0.064175	-0.997534	0.028402	0.994585	0.066265	0.080060
55191	9.851857	0.469904	1.883963	0.045713	-0.494958	0.015214	-0.076753	0.023240	0.996779	0.064692	-0.997506	0.028239	0.994949	0.066651	0.075058
55192	9.769959	-0.288536	1.698930	0.058825	-0.420578	0.008809	-0.072500	0.023396	0.997094	0.065333	-0.997466	0.028155	0.995226	0.067184	0.070788
55193	9.416413	-0.949089	1.631971	0.131737	-0.388378	0.006706	-0.068573	0.023546	0.997368	0.066698	-0.997377	0.028132	0.995414	0.068452	0.066823
55194	9.104523	-0.674021	1.393467	0.323577	-0.424023	0.008130	-0.064285	0.023724	0.997650	0.069974	-0.997150	0.028221	0.995475	0.071623	0.062441
55195	9.261326	0.356147	1.036859	0.421138	-0.466561	-0.002906	-0.059587	0.024049	0.997933	0.074213	-0.996836	0.028454	0.995461	0.075755	0.057613
55196	9.496217	1.207043	1.001631	0.356395	-0.494430	-0.008042	-0.054608	0.024475	0.998208	0.077805	-0.996556	0.028691	0.995472	0.079232	0.052516
55197	9.577624	1.501522	0.848536	0.238500	-0.520700	-0.028748	-0.049392	0.025133	0.998463	0.080212	-0.996354	0.029048	0.995553	0.081524	0.047196
55198	9.701908	1.362022	0.699182	0.123545	-0.551110	-0.021555	-0.043860	0.025764	0.998705	0.081481	-0.996245	0.029278	0.995709	0.082659	0.041596
55199	9.727064	1.250288	0.997361	-0.025137	-0.584068	-0.031541	-0.038014	0.026515	0.998925	0.081265	-0.996255	0.029536	0.995967	0.082300	0.035717
55200	9.474195	1.332883	1.334976	-0.175198	-0.632612	-0.050923	-0.031691	0.027500	0.999119	0.079550	-0.996381	0.029948	0.996327	0.080429	0.029389
55201	9.624414	1.241563	1.220961	-0.284138	-0.649142	-0.052890	-0.025210	0.028495	0.999276	0.076750	-0.996588	0.030355	0.996732	0.077459	0.022937
55202	9.743209	1.150937	1.122185	-0.326283	-0.625859	-0.049269	-0.018945	0.029423	0.999387	0.073533	-0.996819	0.030742	0.997113	0.074070	0.016721
55203	9.773004	0.364388	1.303763	-0.341189	-0.579809	-0.058895	-0.013153	0.030387	0.999452	0.070167	-0.997046	0.031237	0.997449	0.070539	0.010982
55204	9.634295	-0.918976	1.486471	-0.274815	-0.564447	-0.075971	-0.007512	0.031497	0.999476	0.067464	-0.997211	0.031932	0.997693	0.067669	0.005366
55205	9.478993	-1.617922	1.703438	-0.040364	-0.588169	-0.070147	-0.001641	0.032549	0.999469	0.067103	-0.997214	0.032585	0.997745	0.067121	-0.000548
55206	9.207406	-1.924501	1.761460	0.250970	-0.615307	-0.049287	0.004526	0.033422	0.999431	0.069654	-0.997024	0.033027	0.997561	0.069465	-0.006841
55207	9.138149	-1.821486	1.703844	0.555069	-0.657063	0.019102	0.011141	0.033659	0.999371	0.075233	-0.996629	0.032728	0.997104	0.074821	-0.013636
55208	9.524600	-0.393473	1.729485	0.818152	-0.682725	0.091198	0.018081	0.033251	0.999283	0.083420	-0.996012	0.031633	0.996350	0.082788	-0.020783
55209	9.375007	1.143142	1.756840	0.909335	-0.723048	0.119423	0.025433	0.032645	0.999143	0.092494	-0.995256	0.030163	0.995388	0.091647	-0.028332
55210	9.332884	1.948818	1.686005	0.815908	-0.745659	0.129992	0.033041	0.032028	0.998941	0.100618	-0.994515	0.028559	0.994376	0.099568	-0.036082
55211	9.414220	2.116036	1.890884	0.704428	-0.774977	0.135040	0.040928	0.031438	0.998667	0.107611	-0.993830	0.026876	0.993350	0.106368	-0.044058
55212	9.908323	2.049741	2.149167	0.622471	-0.779296	0.140649	0.048884	0.030858	0.998328	0.113773	-0.993189	0.025128	0.992303	0.112354	-0.052062
55213	9.915203	1.208107	2.294185	0.576269	-0.720721	0.147391	0.056245	0.030182	0.997961	0.119451	-0.992567	0.023286	0.991246	0.117898	-0.059432
55214	9.889867	0.829615	2.610245	0.631566	-0.650899	0.181890	0.062980	0.029130	0.997590	0.125643	-0.991853	0.021030	0.990074	0.124016	-0.066127
55215	11.102892	1.744948	2.650427	0.717072	-0.547402	0.260921	0.068770	0.027200	0.997262	0.132605	-0.991008	0.017885	0.988780	0.131012	-0.071759
55216	11.493177	1.865382	2.699832	0.491534	-0.346171	0.273641	0.072625	0.024917	0.997048	0.137313	-0.990418	0.014750	0.987862	0.135836	-0.075351
55217	11.234896	1.394915	3.262247	0.237135	-0.129184	0.259731	0.074293	0.022483	0.996983	0.139502	-0.990150	0.011934	0.987431	0.138195	-0.076698
55218	11.173129	0.963340	4.001772	0.057244	0.085255	0.223169	0.073828	0.020122	0.997068	0.139945	-0.990113	0.009620	0.987403	0.138824	-0.075914
55219	11.478068	0.752537	4.741484	-0.097023	0.290434	0.204652	0.071271	0.017655	0.997301	0.138876	-0.990281	0.007607	0.987742	0.137959	-0.073030
55220	11.947515	0.232179	5.066675	-0.353318	0.486893	0.155265	0.066737	0.015421	0.997651	0.135320	-0.990782	0.006262	0.988552	0.134584	-0.068208
55221	12.857706	-1.042580	5.977856	-0.638831	0.702094	0.081425	0.059917	0.013651	0.998110	0.128986	-0.991629	0.005819	0.989835	0.128393	-0.061177
55222	13.755394	-2.264469	7.802502	-0.809346	0.969510	0.028743	0.050413	0.012125	0.998655	0.120996	-0.992635	0.005944	0.991372	0.120534	-0.051509
55223	12.079428	-3.262978	8.525754	-0.765188	1.250642	0.018810	0.038035	0.010433	0.999222	0.113433	-0.993527	0.006056	0.992817	0.113114	-0.038972
55224	11.239985	-3.490268	9.087094	-0.507709	1.346792	0.054966	0.024782	0.008361	0.999658	0.108417	-0.994090	0.005627	0.993797	0.108241	-0.025542
55225	11.308778	-3.211064	8.982489	-0.289948	1.482956	0.084762	0.010125	0.005883	0.999931	0.105556	-0.994402	0.004781	0.994362	0.105501	-0.010690
55226	11.445786	-2.758506	8.519328	-0.338248	1.611456	0.107341	-0.005727	0.003106	0.999979	0.102236	-0.994753	0.003675	0.994744	0.102255	0.005379
55227	11.702938	-2.719383	7.604929	-0.686650	1.664304	0.150461	-0.022154	-0.000093	0.999755	0.095462	-0.995431	0.002022	0.995187	0.095483	0.022062
55228	12.325337	-3.323618	4.580504	-0.954775	1.617226	0.179398	-0.038026	-0.003384	0.999271	0.086059	-0.996290	-0.000099	0.995564	0.085993	0.038177
55229	13.148671	-3.886899	0.993908	-0.930037	1.602041	0.210273	-0.053830	-0.006845	0.998527	0.076934	-0.997033	-0.002687	0.995582	0.076676	0.054196
55230	13.007088	-3.755949	-4.279355	0.003783	1.638502	0.238081	-0.069888	-0.010512	0.997499	0.077168	-0.997005	-0.005100	0.994566	0.076619	0.070490
55231	13.264135	-1.568862	-6.106990	1.307881	1.755325	0.276957	-0.087113	-0.014796	0.996089	0.090418	-0.995880	-0.006885	0.992087	0.089465	0.088092
55232	12.888873	0.644242	-4.612724	1.914439	1.905138	0.264196	-0.105652	-0.019343	0.994215	0.109681	-0.993937	-0.007683	0.988336	0.108235	0.107133
55233	12.933897	1.698852	-3.650079	1.479487	1.860476	0.255001	-0.123715	-0.024087	0.992025	0.124611	-0.992169	-0.008550	0.984463	0.122560	0.125747
55234	13.198696	1.318146	-4.467364	0.768223	1.856339	0.251808	-0.141571	-0.028959	0.989504	0.132547	-0.991126	-0.010043	0.981014	0.129734	0.144153
55235	12.031963	0.397147	-4.921533	0.431384	1.937260	0.247224	-0.160209	-0.034017	0.986497	0.137190	-0.990474	-0.011874	0.977503	0.133435	0.163350
55236	10.272987	-0.318431	-4.533758	0.399997	1.903880	0.260272	-0.178357	-0.039200	0.983185	0.141585	-0.989830	-0.013780	0.973726	0.136747	0.182094
55237	9.409758	-0.411569	-4.198824	0.599811	1.752169	0.314930	-0.194917	-0.044814	0.979795	0.148049	-0.988854	-0.015776	0.969582	0.141983	0.199380
55238	9.384320	-0.311857	-4.104410	0.742493	1.646923	0.387829	-0.210196	-0.051072	0.976324	0.156071	-0.987581	-0.018060	0.965122	0.148580	0.215556
55239	9.264222	0.399410	-3.721017	0.875264	1.608987	0.393960	-0.225034	-0.057468	0.972655	0.165405	-0.986023	-0.019989	0.960209	0.156384	0.231394
55240	8.758851	1.562443	-3.238132	0.898332	1.563091	0.333213	-0.239372	-0.063289	0.968863	0.174836	-0.984371	-0.021106	0.955057	0.164340	0.246696
55241	8.202096	2.280540	-3.085256	0.704810	1.468771	0.285631	-0.252828	-0.068607	0.965076	0.182305	-0.982993	-0.022121	0.950181	0.170345	0.261035
55242	7.899611	2.051416	-2.998186	0.333311	1.372851	0.280660	-0.265262	-0.073751	0.961351	0.186247	-0.982211	-0.023960	0.946017	0.172693	0.274279
55243	7.855195	1.419076	-2.528578	0.030259	1.301708	0.272865	-0.277011	-0.078720	0.957637	0.187326	-0.981940	-0.026530	0.942430	0.172041	0.286755
55244	7.765676	0.856779	-2.071271	-0.165963	1.237063	0.258070	-0.288104	-0.083397	0.953961	0.186549	-0.982002	-0.029509	0.939253	0.169459	0.298476
55245	7.812982	0.409789	-1.477192	-0.322583	1.184395	0.246906	-0.298716	-0.087847	0.950290	0.184302	-0.982320	-0.032874	0.936377	0.165321	0.309625
55246	7.758033	0.065298	-0.953992	-0.549963	1.170917	0.255831	-0.309136	-0.092291	0.946529	0.179993	-0.982970	-0.037059	0.933830	0.158913	0.320483
55247	7.774430	0.031378	-0.011466	-0.944325	1.218905	0.250072	-0.320023	-0.096667	0.942465	0.172027	-0.984174	-0.042531	0.931661	0.148518	0.331587
55248	7.590699	0.015977	0.680898	-1.529829	1.258190	0.255015	-0.331251	-0.100978	0.938124	0.158673	-0.986059	-0.050111	0.930105	0.132256	0.342656
55249	6.845814	-0.850087	0.665783	-1.999971	1.223588	0.291113	-0.342145	-0.105385	0.933719	0.141118	-0.988184	-0.059822	0.928990	0.111297	0.352974
55250	6.639395	-2.334944	1.036628	-2.114672	0.995184	0.331376	-0.350889	-0.109697	0.929970	0.122685	-0.989940	-0.070480	0.928345	0.089363	0.360817
55251	7.442847	-3.366822	2.367665	-1.963999	0.733077	0.340291	-0.357260	-0.113696	0.927059	0.105718	-0.991107	-0.080810	0.928003	0.069137	0.366103
55252	7.806270	-3.086957	4.317514	-1.787596	0.612831	0.276231	-0.362616	-0.116840	0.924585	0.090185	-0.991853	-0.089971	0.927565	0.050759	0.370199
55253	6.523837	-1.696639	4.823008	-1.548340	0.563577	0.196877	-0.367633	-0.119087	0.922315	0.076607	-0.992275	-0.097584	0.926810	0.034780	0.373916
55254	4.710324	-1.513853	3.769951	-1.130138	0.257063	0.262493	-0.369769	-0.121806	0.921105	0.067159	-0.992280	-0.104258	0.926693	0.023310	0.375094
55255	5.328985	-2.012982	4.344285	-1.084390	0.006930	0.361911	-0.369564	-0.125453	0.920697	0.058504	-0.992020	-0.111688	0.927362	0.012589	0.373955
55256	6.574000	-2.437861	5.658609	-1.180825	-0.002647	0.361120	-0.369288	-0.129076	0.920307	0.048942	-0.991634	-0.119441	0.928025	0.000934	0.372516
55257	7.211774	-2.586628	6.024451	-1.062638	-0.080610	0.226627	-0.368402	-0.131384	0.920336	0.039972	-0.991286	-0.125512	0.928807	-0.009451	0.370443
55258	7.622528	-2.954305	4.776056	-0.821001	-0.291380	0.067618	-0.365612	-0.132135	0.921340	0.032648	-0.991083	-0.129182	0.930195	-0.017151	0.366666
55259	7.150334	-2.910114	3.196827	-0.318376	-0.556447	-0.047690	-0.360410	-0.131826	0.923432	0.029570	-0.991081	-0.129942	0.932325	-0.019527	0.361094
55260	7.279119	-1.584616	1.720416	0.191810	-0.888458	-0.085671	-0.352082	-0.131179	0.926731	0.031114	-0.991223	-0.128487	0.935452	-0.016403	0.353073
55261	8.220393	-0.364799	-0.196863	0.459150	-1.087901	-0.091757	-0.341880	-0.130477	0.930641	0.035159	-0.991397	-0.126079	0.939086	-0.010383	0.343527
55262	9.303654	0.152536	-1.415464	0.615425	-1.131055	-0.082512	-0.331212	-0.129776	0.934589	0.040730	-0.991540	-0.123249	0.942677	-0.002756	0.333696
55263	10.139315	-0.038728	-0.775423	0.571421	-1.071152	-0.103700	-0.321101	-0.128799	0.938246	0.045847	-0.991661	-0.120441	0.945935	0.004342	0.324328
55264	10.373624	-0.671937	-0.135572	0.281673	-0.974098	-0.172227	-0.311894	-0.127070	0.941581	0.048028	-0.991858	-0.117946	0.948902	0.008435	0.315458
55265	9.106906	-0.141595	0.615399	-0.088452	-0.934690	-0.272144	-0.303093	-0.124349	0.944813	0.046409	-0.992200	-0.115698	0.951830	0.008781	0.306500
55266	10.406445	0.081773	1.030072	-0.325790	-1.012337	-0.333879	-0.293531	-0.120997	0.948261	0.042364	-0.992629	-0.113545	0.955010	0.006843	0.296493
55267	12.753271	-0.063808	2.083882	-0.403952	-0.882363	-0.362570	-0.285187	-0.117408	0.951254	0.037509	-0.993076	-0.111324	0.957738	0.003933	0.287617
55268	14.235396	0.058611	3.553373	-0.453629	-0.734585	-0.414764	-0.278229	-0.113314	0.953807	0.032047	-0.993559	-0.108688	0.959980	0.000327	0.280069
55269	15.905567	-2.063094	5.080891	-0.685934	-0.599123	-0.400009	-0.272534	-0.109411	0.955905	0.024412	-0.993980	-0.106809	0.961836	-0.005773	0.273565
55270	14.367076	-4.687643	5.948349	-0.589586	-0.573590	-0.392168	-0.267037	-0.105602	0.957883	0.017734	-0.994348	-0.104678	0.963523	-0.010966	0.267400
55271	10.085227	-4.544653	5.435349	-0.124294	-0.686002	-0.469500	-0.260449	-0.101068	0.960183	0.015354	-0.994814	-0.100549	0.965365	-0.011445	0.260650
55272	8.586998	-3.455849	3.190122	0.337338	-0.867410	-0.470098	-0.252085	-0.096514	0.962880	0.017466	-0.995306	-0.095191	0.967547	-0.007179	0.252587
55273	8.900826	-2.339037	0.696914	0.739943	-0.915566	-0.366058	-0.243245	-0.092960	0.965500	0.023783	-0.995669	-0.089872	0.969673	0.001102	0.244402
55274	9.648889	-1.241804	-1.098621	0.992000	-0.888734	-0.251914	-0.234631	-0.090435	0.967869	0.032865	-0.995832	-0.085081	0.971529	0.011847	0.236625
55275	9.775770	-0.311930	-1.818982	0.935400	-0.846542	-0.238277	-0.226436	-0.087981	0.970044	0.041468	-0.995880	-0.080645	0.973143	0.021965	0.229152
55276	9.706045	0.125413	-1.141988	0.732749	-0.824816	-0.304756	-0.218480	-0.084772	0.972152	0.047981	-0.995948	-0.076064	0.974661	0.030026	0.221662
55277	9.867865	0.576465	-0.034508	0.540272	-0.854916	-0.371180	-0.210270	-0.080852	0.974294	0.052511	-0.996070	-0.071326	0.976232	0.036164	0.213689
55278	9.706185	1.119395	0.360371	0.259987	-0.868682	-0.442953	-0.201958	-0.076150	0.976429	0.054193	-0.996314	-0.066492	0.977894	0.039487	0.205341
55279	9.348932	0.572020	0.500346	-0.107434	-0.822059	-0.488806	-0.194112	-0.071014	0.978406	0.052229	-0.996710	-0.061981	0.979588	0.039070	0.197183
55280	9.244881	-0.853166	1.549756	-0.391608	-0.704237	-0.452733	-0.187374	-0.066277	0.980050	0.047580	-0.997162	-0.058338	0.981136	0.035699	0.189995
55281	8.990600	-2.395181	2.975019	-0.468626	-0.569038	-0.387900	-0.181900	-0.062275	0.981343	0.042318	-0.997564	-0.055460	0.982406	0.031440	0.184093
55282	9.327930	-2.971253	4.037119	-0.285185	-0.505804	-0.325132	-0.177001	-0.058918	0.982446	0.038984	-0.997843	-0.052818	0.983438	0.028951	0.178916
55283	10.027736	-1.336149	4.728719	-0.026524	-0.466626	-0.288872	-0.172463	-0.055961	0.983425	0.038274	-0.998012	-0.050079	0.984272	0.029003	0.174262
55284	10.040507	0.865407	4.349194	0.091572	-0.450920	-0.321673	-0.168086	-0.052657	0.984365	0.038681	-0.998156	-0.046790	0.985013	0.030211	0.169813
55285	9.995865	1.379523	3.209974	0.012629	-0.417218	-0.347479	-0.164054	-0.049121	0.985228	0.038282	-0.998324	-0.043400	0.985708	0.030597	0.165659
55286	9.627732	0.437085	2.495655	-0.101323	-0.323184	-0.357111	-0.160941	-0.045498	0.985915	0.036756	-0.998520	-0.040080	0.986279	0.029787	0.162375
55287	9.580262	-0.839473	2.530039	-0.090731	-0.254918	-0.347785	-0.158498	-0.042009	0.986465	0.035359	-0.998695	-0.036848	0.986726	0.029040	0.159777
55288	9.563790	-1.155344	2.302203	0.124585	-0.239924	-0.326994	-0.156187	-0.038712	0.986969	0.036126	-0.998787	-0.033458	0.987067	0.030430	0.157396
55289	9.529293	0.138664	1.386982	0.426315	-0.322616	-0.306836	-0.153066	-0.035600	0.987574	0.039914	-0.998758	-0.029817	0.987410	0.034854	0.154297
55290	9.688281	1.519573	0.348480	0.510236	-0.381456	-0.288915	-0.149361	-0.032612	0.988245	0.044568	-0.998662	-0.026219	0.987778	0.040128	0.150614
55291	9.888931	2.233426	-0.299622	0.392668	-0.389970	-0.262589	-0.145576	-0.029881	0.988896	0.048114	-0.998575	-0.023091	0.988176	0.044218	0.146806
55292	10.004364	2.066797	-0.671324	0.234199	-0.396642	-0.238831	-0.141712	-0.027355	0.989530	0.050137	-0.998533	-0.020424	0.988637	0.046718	0.142875
55293	10.289387	1.674707	-0.708878	0.144938	-0.415139	-0.208784	-0.137656	-0.025126	0.990161	0.051332	-0.998516	-0.018202	0.989149	0.048321	0.138742
55294	10.302176	1.260361	-0.495894	0.054879	-0.421860	-0.200031	-0.133524	-0.022962	0.990780	0.051655	-0.998534	-0.016181	0.989698	0.049018	0.134514
55295	9.866585	0.425886	-0.188545	0.014738	-0.442889	-0.194252	-0.129181	-0.020855	0.991402	0.051598	-0.998566	-0.014283	0.990278	0.049310	0.130072
55296	9.606219	-0.109574	0.172634	0.062722	-0.499146	-0.182169	-0.124270	-0.018827	0.992070	0.052040	-0.998568	-0.012432	0.990883	0.050083	0.125071
55297	9.635793	0.166592	0.888319	0.128020	-0.538743	-0.169908	-0.118958	-0.016907	0.992755	0.053155	-0.998530	-0.010636	0.991475	0.051504	0.119682
55298	9.540663	0.924185	1.579042	0.126119	-0.573631	-0.175969	-0.113302	-0.014889	0.993449	0.054252	-0.998489	-0.008777	0.992078	0.052902	0.113939
55299	9.551738	1.417782	2.049909	0.020662	-0.584200	-0.178819	-0.107541	-0.012842	0.994118	0.054312	-0.998499	-0.007023	0.992716	0.053237	0.108077
55300	9.416200	1.288825	2.112171	-0.078326	-0.591257	-0.174811	-0.101702	-0.010822	0.994756	0.053401	-0.998559	-0.005404	0.993381	0.052572	0.102134
55301	9.670148	0.892403	2.187296	-0.153773	-0.597309	-0.151954	-0.095787	-0.009042	0.995361	0.051774	-0.998650	-0.004089	0.994054	0.051142	0.096126
55302	9.762932	0.290324	2.208541	-0.189848	-0.602134	-0.124281	-0.089801	-0.007537	0.995931	0.049821	-0.998753	-0.003066	0.994713	0.049343	0.090065
55303	9.750800	0.043951	1.950184	-0.178912	-0.630566	-0.077020	-0.083507	-0.006508	0.996486	0.048024	-0.998843	-0.002499	0.995349	0.047647	0.083723
55304	9.256875	0.347106	1.213794	-0.189286	-0.598192	-0.037968	-0.077508	-0.005888	0.996974	0.046159	-0.998931	-0.002311	0.995923	0.045840	0.077697
55305	9.589198	0.604477	0.318654	-0.087562	-0.600387	0.007911	-0.071467	-0.005741	0.997426	0.045342	-0.998968	-0.002501	0.996412	0.045046	0.071654
55306	10.000643	0.932239	-0.030710	-0.014375	-0.521511	0.032353	-0.066194	-0.005868	0.997790	0.045270	-0.998971	-0.002872	0.996779	0.044980	0.066391
55307	9.525182	0.411914	0.374631	-0.183873	-0.491588	-0.037408	-0.061252	-0.005323	0.998108	0.043462	-0.999052	-0.002661	0.997176	0.043217	0.061425
55308	9.531280	-1.017325	-0.054184	-0.246889	-0.523315	-0.078253	-0.056005	-0.004361	0.998421	0.041003	-0.999157	-0.002064	0.997588	0.040822	0.056136
55309	9.503657	-1.471466	0.343378	-0.087054	-0.561600	-0.062374	-0.050369	-0.003556	0.998724	0.040150	-0.999193	-0.001533	0.997923	0.040021	0.050471
55310	9.702444	-0.892806	0.672965	0.105643	-0.618876	-0.043066	-0.044149	-0.002914	0.999021	0.041232	-0.999149	-0.001092	0.998174	0.041143	0.044231
55311	9.831000	-0.083423	0.870889	0.109742	-0.623917	-0.018977	-0.037870	-0.002511	0.999280	0.042368	-0.999102	-0.000905	0.998384	0.042303	0.037943
55312	9.501175	0.244677	1.188356	0.074953	-0.646533	-0.023999	-0.031364	-0.002034	0.999506	0.043156	-0.999068	-0.000679	0.998576	0.043113	0.031422
55313	9.701391	0.271597	1.454791	0.144486	-0.668233	-0.024423	-0.024644	-0.001544	0.999695	0.044640	-0.999003	-0.000443	0.998699	0.044615	0.024688
55314	9.438946	0.173255	1.988039	0.241838	-0.703301	-0.033518	-0.017574	-0.000926	0.999845	0.047095	-0.998890	-0.000097	0.998736	0.047086	0.017598
55315	9.309903	0.175085	2.453462	0.363037	-0.750433	-0.025808	-0.010037	-0.000347	0.999950	0.050764	-0.998711	0.000163	0.998660	0.050763	0.010041
55316	9.243930	0.467676	3.067548	0.403112	-0.734278	-0.004064	-0.002645	0.000043	0.999997	0.054836	-0.998495	0.000187	0.998492	0.054837	0.002638
55317	9.291553	0.409382	3.653138	0.398641	-0.695809	0.031796	0.004372	0.000075	0.999990	0.058862	-0.998266	-0.000182	0.998257	0.058862	-0.004369
55318	9.285755	0.347104	4.031393	0.428416	-0.651359	0.077941	0.010983	-0.000343	0.999940	0.063178	-0.998002	-0.001037	0.997942	0.063185	-0.010939
55319	9.298687	0.254967	4.096353	0.435911	-0.623071	0.097916	0.017311	-0.000958	0.999850	0.067558	-0.997713	-0.002125	0.997565	0.067584	-0.017207
55320	9.263439	-0.029830	3.931159	0.450606	-0.588437	0.103035	0.023314	-0.001612	0.999727	0.072076	-0.997394	-0.003289	0.997127	0.072133	-0.023137
55321	9.140964	-0.505196	3.208519	0.536907	-0.576355	0.095778	0.029174	-0.002180	0.999572	0.077446	-0.996987	-0.004435	0.996570	0.077543	-0.028917
55322	9.075158	-0.787705	2.447344	0.661634	-0.569905	0.105381	0.034999	-0.002806	0.999383	0.084049	-0.996445	-0.005742	0.995847	0.084198	-0.034639
55323	9.085935	-0.405541	1.850882	0.802132	-0.591916	0.120049	0.041036	-0.003524	0.999151	0.092030	-0.995730	-0.007292	0.994910	0.092251	-0.040536
55324	9.372790	0.413748	1.548098	0.897845	-0.609373	0.136788	0.047290	-0.004332	0.998872	0.100942	-0.994851	-0.009094	0.993768	0.101258	-0.046610
55325	9.959921	1.181411	1.094570	0.934836	-0.607571	0.147159	0.053517	-0.005195	0.998553	0.110193	-0.993849	-0.011077	0.992468	0.110626	-0.052615
55326	10.542515	1.788933	0.350319	0.849216	-0.568020	0.151095	0.059388	-0.006078	0.998216	0.118574	-0.992859	-0.013100	0.991168	0.119141	-0.058243
55327	11.208821	1.607593	0.058434	0.647151	-0.463078	0.166615	0.064214	-0.007206	0.997910	0.124922	-0.992050	-0.015202	0.990086	0.125637	-0.062803
55328	11.437888	1.035472	0.320256	0.523269	-0.355451	0.164465	0.068006	-0.008415	0.997649	0.130035	-0.991360	-0.017226	0.989174	0.130901	-0.066324
55329	11.451557	0.939200	0.119526	0.416409	-0.249893	0.182928	0.070753	-0.009933	0.997444	0.134066	-0.990783	-0.019377	0.988443	0.135094	-0.068770
55330	11.663756	1.212373	0.402971	0.133179	-0.065726	0.179304	0.071709	-0.011654	0.997358	0.135297	-0.990576	-0.021302	0.988207	0.136467	-0.069456
55331	11.258862	1.203836	1.341307	-0.267850	0.121501	0.126991	0.070712	-0.013113	0.997411	0.132599	-0.990916	-0.022428	0.988644	0.133841	-0.068331
55332	11.488722	0.514130	2.192237	-0.570844	0.177467	0.080021	0.069125	-0.014172	0.997507	0.126940	-0.991646	-0.022886	0.989499	0.128205	-0.066749
55333	12.393637	0.089456	3.317625	-0.715459	0.241583	0.066318	0.066846	-0.015167	0.997648	0.119851	-0.992523	-0.023120	0.990539	0.121114	-0.064528
55334	13.111702	-0.122314	5.141545	-0.833004	0.438036	0.057019	0.062634	-0.016281	0.997904	0.111601	-0.993482	-0.023213	0.991777	0.112821	-0.060409
55335	12.104550	-0.492889	6.183324	-0.958132	0.697515	0.049761	0.055788	-0.017566	0.998288	0.102101	-0.994503	-0.023206	0.993209	0.103221	-0.053688
55336	11.963293	-1.005866	6.750248	-0.963677	0.865875	0.042457	0.047286	-0.018876	0.998703	0.092545	-0.995438	-0.023197	0.994585	0.093522	-0.045324
55337	12.031759	-2.103306	7.300663	-0.894737	1.118915	0.025840	0.036187	-0.020170	0.999141	0.083669	-0.996225	-0.023141	0.995836	0.084434	-0.034363
55338	11.574056	-2.904522	7.325122	-0.800740	1.349121	0.037329	0.022838	-0.021662	0.999504	0.075724	-0.996856	-0.023335	0.996867	0.076220	-0.021125
55339	11.646276	-3.632828	7.247398	-0.864990	1.539419	0.067373	0.007537	-0.023484	0.999696	0.067127	-0.997457	-0.023937	0.997716	0.067287	-0.005942
55340	11.836986	-4.385777	7.499819	-1.560499	1.662877	0.105506	-0.008937	-0.025561	0.999633	0.051597	-0.998353	-0.025067	0.998628	0.051354	0.010242
55341	11.647135	-6.076229	4.641097	-1.799387	1.584038	0.056546	-0.024742	-0.026846	0.999333	0.033672	-0.999095	-0.026006	0.999127	0.033007	0.025624
55342	12.852799	-5.814090	0.934383	-0.819461	1.521048	0.098353	-0.039848	-0.028306	0.998805	0.025565	-0.999300	-0.027300	0.998879	0.024447	0.040544
55343	13.020203	-4.101245	-0.478848	0.221558	1.672078	0.143582	-0.056514	-0.030224	0.997944	0.027889	-0.999199	-0.028683	0.998012	0.026211	0.057311
55344	12.597673	-2.018009	-1.750259	1.088790	1.754558	0.122589	-0.073910	-0.032040	0.996750	0.038877	-0.998817	-0.029223	0.996507	0.036591	0.075068
55345	12.254889	-0.182233	-2.930152	1.591424	1.748302	0.066231	-0.091288	-0.033537	0.995260	0.054818	-0.998087	-0.028604	0.994315	0.051947	0.092951
55346	11.918117	0.631649	-4.459861	1.958031	1.693051	0.035183	-0.108013	-0.034966	0.993534	0.074345	-0.996867	-0.027001	0.991366	0.070947	0.110274
55347	11.918594	0.734445	-3.571969	1.505752	1.682084	0.101511	-0.124577	-0.037350	0.991507	0.089413	-0.995648	-0.026272	0.988173	0.085381	0.127374
55348	11.315278	-0.568159	-3.319418	0.717877	1.775763	0.135951	-0.141909	-0.040314	0.989058	0.096729	-0.994953	-0.026676	0.985142	0.091885	0.145092
55349	10.143432	-1.283569	-3.324966	0.491860	1.777501	0.143551	-0.159239	-0.043468	0.986283	0.101831	-0.994425	-0.027386	0.981974	0.096073	0.162778
55350	9.268363	-0.937021	-3.118576	0.794193	1.692548	0.138077	-0.175620	-0.046563	0.983356	0.109899	-0.993564	-0.027419	0.978305	0.103254	0.179607
55351	8.693877	0.150676	-2.467386	1.133289	1.607221	0.158699	-0.191109	-0.049938	0.980298	0.121303	-0.992251	-0.026899	0.974045	0.113773	0.195686
55352	8.575754	1.024841	-2.142834	1.191786	1.535591	0.172488	-0.205749	-0.053515	0.977140	0.133281	-0.990732	-0.026195	0.969486	0.124844	0.210975
55353	8.576752	1.717269	-1.845639	1.079615	1.480915	0.155459	-0.219834	-0.057028	0.973869	0.144104	-0.989236	-0.025399	0.964835	0.134755	0.225686
55354	8.473864	2.259299	-1.527345	0.827636	1.454165	0.110135	-0.233605	-0.060163	0.970468	0.152375	-0.988017	-0.024572	0.960318	0.142135	0.239973
55355	8.155559	2.681166	-1.336209	0.507019	1.439145	0.051508	-0.247288	-0.062795	0.966905	0.157409	-0.987245	-0.023858	0.956071	0.146300	0.254018
55356	7.938158	2.823665	-1.094702	0.131917	1.422900	0.009984	-0.260786	-0.065011	0.963205	0.158748	-0.987036	-0.023638	0.952255	0.146743	0.267725
55357	8.105789	2.531834	-0.636554	-0.254815	1.396351	0.006031	-0.274019	-0.067138	0.959378	0.156395	-0.987392	-0.024429	0.948923	0.143348	0.281064
55358	8.172561	1.505262	-0.450427	-0.638972	1.373211	0.051258	-0.286889	-0.069597	0.955432	0.150540	-0.988241	-0.026784	0.946062	0.136147	0.293992
55359	7.904272	0.151445	-0.331452	-0.915311	1.359006	0.134452	-0.299497	-0.072749	0.951320	0.142340	-0.989337	-0.030844	0.943420	0.126174	0.306659
55360	7.837884	-0.869140	0.183454	-1.071614	1.339729	0.227357	-0.311745	-0.076647	0.947069	0.132996	-0.990449	-0.036379	0.940812	0.114615	0.318961
55361	7.809283	-1.470036	0.911533	-1.151127	1.335275	0.301108	-0.323867	-0.081119	0.942618	0.123194	-0.991451	-0.042995	0.938048	0.102200	0.331092
55362	7.860485	-1.613475	1.705156	-1.164580	1.325385	0.340647	-0.335817	-0.085805	0.938011	0.113467	-0.992275	-0.050147	0.935068	0.089594	0.342959
55363	8.010731	-1.579451	2.788338	-1.207722	1.294110	0.350936	-0.347480	-0.090407	0.933319	0.103448	-0.992962	-0.057670	0.931963	0.076511	0.354387
55364	7.990619	-1.683243	3.417956	-1.449392	1.189206	0.356516	-0.358140	-0.094804	0.928842	0.091276	-0.993621	-0.066222	0.929195	0.061064	0.364509
55365	7.731296	-2.081012	3.327802	-1.484167	1.017321	0.381729	-0.367220	-0.099187	0.924830	0.078945	-0.994034	-0.075262	0.926778	0.045373	0.372860
55366	7.112160	-2.791710	2.542605	-1.152420	0.782170	0.387562	-0.374115	-0.103386	0.921601	0.069771	-0.994088	-0.083194	0.924754	0.033177	0.379117
55367	6.841774	-3.400641	1.369263	-0.665768	0.392038	0.394381	-0.377437	-0.107473	0.919778	0.065158	-0.993863	-0.089391	0.923740	0.026192	0.382123
55368	8.057567	-4.061888	0.447213	-0.287408	0.037684	0.392332	-0.377474	-0.111421	0.919293	0.064043	-0.993499	-0.094118	0.923803	0.023347	0.382155
55369	9.234000	-3.735452	0.645476	-0.176999	0.053803	0.311587	-0.377733	-0.114582	0.918797	0.063644	-0.993179	-0.097693	0.923724	0.021574	0.382449
55370	8.220889	-3.448895	1.197143	0.004263	0.297084	0.309649	-0.380219	-0.117761	0.917369	0.064916	-0.992813	-0.100540	0.922615	0.021324	0.385131
55371	5.854272	-0.504372	3.255738	0.366383	0.311862	0.342154	-0.382822	-0.121287	0.915826	0.069659	-0.992312	-0.102298	0.921192	0.024634	0.388328
55372	5.048778	2.138636	4.624781	0.131516	0.046253	0.313258	-0.382968	-0.124446	0.915341	0.072129	-0.991887	-0.104675	0.920941	0.025935	0.388838
55373	6.679814	2.962988	3.951469	-0.424133	-0.208987	0.165716	-0.380886	-0.126095	0.915984	0.068913	-0.991773	-0.107873	0.922050	0.022036	0.386442
55374	7.573922	1.935731	3.078345	-1.199890	-0.199651	0.071467	-0.378940	-0.126812	0.916691	0.058170	-0.991872	-0.113166	0.923591	0.010441	0.383237
55375	7.340119	-0.082922	3.083017	-1.724273	-0.216311	0.012701	-0.376895	-0.126987	0.917510	0.042338	-0.991884	-0.119889	0.925288	-0.006340	0.379213
55376	7.757687	-2.216709	3.710537	-1.718785	-0.347926	-0.039968	-0.373630	-0.126684	0.918886	0.026326	-0.991679	-0.126015	0.927204	-0.022892	0.373856
55377	8.559880	-3.549973	3.721446	-1.415838	-0.456598	-0.105346	-0.369375	-0.125829	0.920722	0.012853	-0.991387	-0.130330	0.929192	-0.036307	0.367811
55378	8.384745	-3.525414	3.035294	-0.977328	-0.523996	-0.148068	-0.364457	-0.124619	0.922844	0.003277	-0.991171	-0.132552	0.931214	-0.045285	0.361647
55379	8.752587	-3.837840	2.818556	-0.654468	-0.613801	-0.162241	-0.358697	-0.123365	0.925266	-0.003352	-0.991052	-0.133436	0.933448	-0.050964	0.355074
55380	8.903697	-3.770227	2.836117	-0.599546	-0.541720	-0.191224	-0.353568	-0.121805	0.927445	-0.009577	-0.990962	-0.133798	0.935360	-0.056188	0.349206
55381	7.268821	-2.726116	1.578339	-0.217501	-0.645739	-0.290494	-0.347451	-0.119355	0.930071	-0.012572	-0.991184	-0.131894	0.937614	-0.057519	0.342887
55382	9.447823	-1.395002	-0.882163	0.574334	-1.039912	-0.298367	-0.337595	-0.117004	0.933991	-0.008140	-0.991845	-0.127193	0.941256	-0.050543	0.333889
55383	14.045483	-0.119226	-1.241707	0.929272	-1.056961	-0.272630	-0.327575	-0.114840	0.937820	-0.000224	-0.992576	-0.121624	0.944825	-0.040051	0.325117
55384	14.900953	0.883249	1.485228	0.771849	-0.712365	-0.345593	-0.320789	-0.111708	0.940540	0.006015	-0.993241	-0.115915	0.947131	-0.031527	0.319293
55385	12.345751	-0.559937	4.771819	0.526971	-0.508585	-0.420899	-0.315954	-0.107731	0.942638	0.009729	-0.993848	-0.110323	0.948725	-0.025686	0.315059
55386	11.551626	-2.621740	7.014239	0.245425	-0.515523	-0.411559	-0.311044	-0.103808	0.944709	0.010827	-0.994339	-0.105696	0.950334	-0.022648	0.310408
55387	12.113159	-3.233813	7.410942	0.103433	-0.564214	-0.448019	-0.305680	-0.099534	0.946918	0.010487	-0.994813	-0.101183	0.952077	-0.020999	0.305138
55388	10.932739	-2.260673	4.784922	0.189658	-0.749856	-0.517664	-0.298530	-0.094574	0.949703	0.010788	-0.995349	-0.095728	0.954339	-0.018332	0.298162
55389	10.355075	-1.916869	1.464212	0.202041	-0.875840	-0.486397	-0.290171	-0.089940	0.952739	0.011345	-0.995827	-0.090552	0.956908	-0.015466	0.289980
55390	10.358821	-1.962702	-0.975076	0.169804	-0.873666	-0.375403	-0.281786	-0.086368	0.955582	0.011955	-0.996179	-0.086512	0.959403	-0.012953	0.281742
55391	9.396712	-1.734712	-1.905304	0.244344	-0.829113	-0.316473	-0.273815	-0.083371	0.958162	0.013481	-0.996471	-0.082852	0.961688	-0.009769	0.273972
55392	9.473419	-1.513780	-2.060225	0.394679	-0.874257	-0.321851	-0.265387	-0.080270	0.960795	0.016470	-0.996760	-0.078726	0.964001	-0.005069	0.265850
55393	10.207552	-0.426691	-1.233589	0.548721	-0.892610	-0.354912	-0.256786	-0.076812	0.963411	0.020896	-0.997045	-0.073924	0.966242	0.001149	0.257632
55394	10.640638	0.970606	0.077751	0.479469	-0.897754	-0.407254	-0.248136	-0.072758	0.965989	0.024562	-0.997327	-0.068809	0.968414	0.006653	0.249260
55395	10.229958	1.341057	-0.105049	0.325420	-0.954178	-0.452962	-0.238943	-0.068218	0.968634	0.026671	-0.997614	-0.063680	0.970667	0.010618	0.240192
55396	9.670497	0.593662	-0.088611	0.098704	-0.957682	-0.453607	-0.229698	-0.063624	0.971180	0.026622	-0.997898	-0.059077	0.972898	0.012285	0.230909
55397	9.815639	-0.491721	1.205108	-0.057305	-0.866121	-0.388603	-0.221303	-0.059697	0.973376	0.025244	-0.998141	-0.055477	0.974878	0.012295	0.222399
55398	9.357638	-0.744267	2.596548	-0.003657	-0.796448	-0.338031	-0.213557	-0.056264	0.975309	0.024528	-0.998334	-0.052222	0.976623	0.012770	0.214581
55399	9.484561	-0.061612	3.610806	0.032701	-0.771802	-0.328925	-0.206032	-0.052937	0.977112	0.024214	-0.998506	-0.048991	0.978246	0.013566	0.207006
55400	9.890813	0.852260	4.339381	-0.034037	-0.704677	-0.351534	-0.199158	-0.049372	0.978723	0.023222	-0.998687	-0.045654	0.979692	0.013636	0.200043
55401	9.555469	0.906324	4.389026	-0.182355	-0.642240	-0.383376	-0.192887	-0.045518	0.980165	0.020739	-0.998889	-0.042306	0.981002	0.012167	0.193617
55402	9.582583	0.095940	4.105327	-0.295434	-0.550160	-0.403485	-0.187504	-0.041468	0.981388	0.017125	-0.999095	-0.038945	0.982115	0.009504	0.188044
55403	9.435354	-0.743394	3.797516	-0.262839	-0.475396	-0.412256	-0.182841	-0.037366	0.982432	0.013833	-0.999276	-0.035432	0.983045	0.007112	0.183225
55404	9.133357	-0.930428	3.152019	-0.061408	-0.446954	-0.412987	-0.178440	-0.033250	0.983389	0.012537	-0.999425	-0.031517	0.983871	0.006705	0.178755
55405	9.098101	-0.269121	2.555190	0.126850	-0.462132	-0.400165	-0.173889	-0.029273	0.984330	0.013135	-0.999538	-0.027405	0.984678	0.008163	0.174193
55406	9.410180	0.274142	2.370509	0.099477	-0.442959	-0.379447	-0.169517	-0.025482	0.985198	0.013516	-0.999632	-0.023530	0.985435	0.009327	0.169799
55407	9.648383	0.174020	1.901533	0.082070	-0.428613	-0.341968	-0.165286	-0.022078	0.985999	0.013806	-0.999703	-0.020071	0.986149	0.010295	0.165542
55408	9.529310	0.123979	1.100117	0.123721	-0.455157	-0.307255	-0.160780	-0.018998	0.986807	0.014578	-0.999751	-0.016872	0.986883	0.011673	0.161017
55409	9.681099	0.498080	0.720925	0.177033	-0.479151	-0.263698	-0.156037	-0.016357	0.987616	0.015962	-0.999774	-0.014036	0.987622	0.013574	0.156262
55410	9.824115	0.821508	0.631392	0.200806	-0.491239	-0.238611	-0.151164	-0.013940	0.988410	0.017631	-0.999780	-0.011404	0.988351	0.015703	0.151376
55411	9.753082	1.042008	0.370753	0.212389	-0.535897	-0.237543	-0.145855	-0.011530	0.989239	0.019431	-0.999773	-0.008788	0.989115	0.017941	0.146046
55412	9.777422	1.030737	0.186464	0.213716	-0.596839	-0.222285	-0.139934	-0.009235	0.990118	0.021281	-0.999754	-0.006317	0.989932	0.020186	0.140096
55413	9.517144	1.386361	0.533042	0.166529	-0.642584	-0.205992	-0.133560	-0.007093	0.991015	0.022701	-0.999734	-0.004096	0.990781	0.021950	0.133685
55414	9.845450	1.697655	0.575207	0.084525	-0.689065	-0.199953	-0.126715	-0.004980	0.991927	0.023330	-0.999726	-0.002039	0.991665	0.022883	0.126797
55415	9.892738	1.755780	0.574795	-0.012960	-0.684874	-0.175781	-0.119904	-0.003117	0.992781	0.023036	-0.999735	-0.000356	0.992518	0.022827	0.119944
55416	9.718493	1.388456	0.785407	-0.157686	-0.661179	-0.167347	-0.113316	-0.001338	0.993558	0.021327	-0.999772	0.001086	0.993330	0.021312	0.113319
55417	9.700528	0.472805	0.761733	-0.218184	-0.630502	-0.157006	-0.107025	0.000310	0.994256	0.019037	-0.999816	0.002361	0.994074	0.019180	0.106999
55418	9.885283	-0.319580	0.805740	-0.181851	-0.608786	-0.140978	-0.100937	0.001790	0.994891	0.017132	-0.999847	0.003537	0.994745	0.017402	0.100891
55419	9.848183	-0.684010	0.704575	-0.056819	-0.586379	-0.142418	-0.095068	0.003266	0.995465	0.016478	-0.999852	0.004854	0.995334	0.016865	0.095000
55420	9.585331	-0.535964	0.763059	0.057439	-0.586185	-0.147738	-0.089197	0.004803	0.996002	0.016964	-0.999836	0.006340	0.995870	0.017462	0.089100
55421	9.554376	-0.172395	0.785808	0.142693	-0.605565	-0.142677	-0.083131	0.006290	0.996519	0.018313	-0.999802	0.007838	0.996370	0.018901	0.083000
55422	9.780735	0.407545	1.034472	0.175980	-0.625430	-0.114216	-0.076860	0.007515	0.997014	0.020025	-0.999758	0.009079	0.996841	0.020663	0.076691
55423	9.456331	1.047115	1.477099	0.125099	-0.651263	-0.108890	-0.070330	0.008693	0.997486	0.021243	-0.999722	0.010210	0.997298	0.021907	0.070126
55424	9.486404	1.204076	1.618153	0.027740	-0.690515	-0.111138	-0.063406	0.009915	0.997939	0.021494	-0.999705	0.011298	0.997756	0.022166	0.063174
55425	9.600632	1.008104	1.736899	-0.046035	-0.665972	-0.080150	-0.056719	0.010815	0.998332	0.021036	-0.999706	0.012025	0.998169	0.021683	0.056475
55426	9.642266	0.621487	1.745265	-0.067118	-0.645787	-0.054525	-0.050223	0.011457	0.998672	0.020385	-0.999714	0.012494	0.998530	0.020986	0.049975
55427	9.617800	0.323142	1.696136	-0.055710	-0.621516	-0.036914	-0.043967	0.011907	0.998962	0.019860	-0.999721	0.012790	0.998836	0.020402	0.043719
55428	9.603006	0.057914	1.321117	0.023620	-0.611971	-0.031406	-0.037800	0.012306	0.999210	0.020131	-0.999712	0.013074	0.999083	0.020609	0.037541
55429	9.340928	-0.177236	1.305786	0.090889	-0.616921	-0.050564	-0.031592	0.012894	0.999418	0.021069	-0.999686	0.013564	0.999279	0.021486	0.031310
55430	9.250356	-0.701172	1.214230	0.174673	-0.636716	-0.073543	-0.025184	0.013731	0.999589	0.022842	-0.999637	0.014307	0.999422	0.023193	0.024862
55431	9.248255	-2.116783	1.529740	0.255311	-0.637936	-0.054473	-0.018768	0.014384	0.999720	0.025429	-0.999566	0.014859	0.999500	0.025700	0.018394
55432	9.289085	-2.109960	1.864374	0.511056	-0.671803	-0.009709	-0.011995	0.014631	0.999821	0.030582	-0.999420	0.014992	0.999460	0.030757	0.011541
55433	9.047400	-0.951753	2.402421	0.733400	-0.731745	0.018667	-0.004624	0.014646	0.999882	0.037960	-0.999170	0.014811	0.999269	0.038024	0.004064
55434	9.171050	0.265867	2.995798	0.797317	-0.779843	0.028010	0.003241	0.014654	0.999887	0.045972	-0.998838	0.014490	0.998937	0.045920	-0.003911
55435	9.033795	0.937247	3.455978	0.703403	-0.798700	0.011438	0.011273	0.014885	0.999826	0.053042	-0.998490	0.014267	0.998529	0.052872	-0.012046
55436	8.701450	0.517331	3.533201	0.622480	-0.804139	-0.002484	0.019362	0.015321	0.999695	0.059303	-0.998140	0.014149	0.998052	0.059010	-0.020234
55437	8.730116	0.188271	3.409586	0.659359	-0.807772	0.011018	0.027474	0.015666	0.999500	0.065923	-0.997729	0.013826	0.997446	0.065510	-0.028444
55438	9.286268	0.368278	3.305426	0.745178	-0.812579	0.041608	0.035667	0.015776	0.999239	0.073385	-0.997217	0.013124	0.996666	0.072861	-0.036726
55439	9.446697	0.480739	2.941796	0.812968	-0.804295	0.066118	0.043773	0.015688	0.998918	0.081500	-0.996600	0.012080	0.995712	0.080883	-0.044903
55440	9.575508	0.602541	2.959851	0.829819	-0.790988	0.079124	0.051775	0.015535	0.998538	0.089764	-0.995904	0.010840	0.994616	0.089072	-0.052958
55441	10.114555	0.995939	3.710852	0.797745	-0.710563	0.086534	0.058959	0.015288	0.998143	0.097688	-0.995172	0.009473	0.993469	0.096948	-0.060168
55442	10.504738	1.628100	4.645027	0.731536	-0.566118	0.073125	0.064717	0.015095	0.997789	0.104950	-0.994443	0.008237	0.992369	0.104185	-0.065942
55443	11.050102	2.924133	5.242743	0.599681	-0.394005	0.078124	0.068744	0.014696	0.997526	0.110886	-0.993808	0.007000	0.991453	0.110131	-0.069948
55444	12.059374	3.103071	5.195304	0.285777	-0.117717	0.070154	0.070053	0.014095	0.997444	0.113713	-0.993495	0.006053	0.991041	0.112999	-0.071200
55445	11.252833	1.875219	4.840448	-0.105801	0.219794	0.070820	0.067981	0.013103	0.997601	0.112654	-0.993620	0.005374	0.991306	0.112019	-0.069023
55446	11.473512	0.818976	4.356618	-0.262395	0.381206	0.098564	0.064375	0.011666	0.997858	0.110031	-0.993918	0.004522	0.991841	0.109504	-0.065267
55447	12.489113	0.238700	3.616469	-0.293373	0.553539	0.134278	0.059048	0.009693	0.998208	0.107075	-0.994245	0.003320	0.992496	0.106687	-0.059746
55448	13.653748	0.108362	3.775882	-0.313728	0.661436	0.178632	0.052733	0.007185	0.998583	0.103904	-0.994586	0.001669	0.993188	0.103669	-0.053194
55449	15.238910	-0.213701	4.625140	-0.551539	0.886430	0.198740	0.044140	0.004271	0.999016	0.098366	-0.995150	-0.000091	0.994171	0.098273	-0.044346
55450	12.932462	-0.947606	4.540911	-0.772786	1.100847	0.205437	0.033447	0.001150	0.999440	0.090644	-0.995882	-0.001887	0.995322	0.090656	-0.033413
55451	11.618536	-1.350697	4.329170	-0.699001	1.021623	0.237236	0.023489	-0.002147	0.999722	0.083654	-0.996486	-0.004106	0.996218	0.083728	-0.023227
55452	11.501625	-1.537783	4.059699	-0.585148	1.079506	0.274558	0.013015	-0.005793	0.999899	0.077818	-0.996944	-0.006789	0.996883	0.077899	-0.012525
55453	11.660875	-1.567224	3.564577	-0.465657	1.201754	0.307699	0.001267	-0.009815	0.999951	0.073193	-0.997269	-0.009882	0.997317	0.073202	-0.000546
55454	12.073859	-1.327291	4.095452	-0.734392	1.372446	0.337917	-0.012126	-0.014178	0.999826	0.065932	-0.997735	-0.013348	0.997750	0.065759	0.013033
55455	11.529105	-2.361376	3.839983	-1.511085	1.463214	0.263883	-0.026578	-0.017711	0.999490	0.050942	-0.998568	-0.016340	0.998348	0.050482	0.027442
55456	11.210712	-3.280813	0.480810	-1.320597	1.302152	0.123666	-0.039463	-0.019556	0.999030	0.037845	-0.999120	-0.018062	0.998504	0.037096	0.040168
55457	12.299599	-2.531170	-1.814291	-0.198547	1.275299	0.077243	-0.052170	-0.020840	0.998421	0.035941	-0.999174	-0.018977	0.997991	0.034894	0.052876
55458	12.784726	-1.204846	-2.285659	0.695013	1.459155	0.077567	-0.066632	-0.022212	0.997530	0.042969	-0.998889	-0.019372	0.996852	0.041572	0.067513
55459	12.510306	0.278636	-2.755657	1.109295	1.577170	0.053205	-0.082316	-0.023538	0.996328	0.054101	-0.998352	-0.019116	0.995137	0.052329	0.083454
55460	12.501671	1.299926	-2.638444	1.169287	1.630662	0.016578	-0.098454	-0.024688	0.994835	0.065790	-0.997667	-0.018247	0.992964	0.063654	0.099849
55461	12.796940	1.591345	-2.554654	0.677828	1.710842	0.011164	-0.115410	-0.025994	0.992978	0.072571	-0.997207	-0.017670	0.990663	0.070022	0.116974
55462	12.398217	0.260508	-2.919213	-0.122532	1.799627	0.033769	-0.133133	-0.027613	0.990713	0.071451	-0.997278	-0.018195	0.988519	0.068365	0.134744
55463	11.222619	-1.419364	-2.742163	-0.618203	1.834140	0.043815	-0.151204	-0.029293	0.988068	0.065456	-0.997664	-0.019560	0.986333	0.061718	0.152768
55464	10.114022	-2.255004	-2.616988	-0.502692	1.779049	0.042092	-0.168642	-0.030800	0.985196	0.060624	-0.997943	-0.020821	0.983811	0.056215	0.170162
55465	9.547220	-2.069671	-2.446634	-0.002801	1.674118	0.078120	-0.185024	-0.032568	0.982194	0.060784	-0.997916	-0.021639	0.980852	0.055698	0.186618
55466	9.402635	-1.421660	-2.177539	0.456795	1.599955	0.143523	-0.200539	-0.034962	0.979062	0.065588	-0.997600	-0.022190	0.977488	0.059764	0.202351
55467	9.316638	-0.536331	-1.814366	0.696271	1.557873	0.189918	-0.215586	-0.037889	0.975749	0.072827	-0.997088	-0.022627	0.973765	0.066183	0.217718
55468	8.899519	0.351965	-1.537676	0.751777	1.527117	0.199579	-0.230213	-0.040980	0.972277	0.080632	-0.996481	-0.022908	0.969794	0.073123	0.232707
55469	8.543257	1.124377	-1.286525	0.645007	1.501637	0.151335	-0.244592	-0.043680	0.968642	0.087286	-0.995921	-0.022870	0.965689	0.078956	0.247407
55470	8.155101	1.736060	-1.048774	0.441692	1.489557	0.103434	-0.258792	-0.045951	0.964839	0.091858	-0.995512	-0.022774	0.961555	0.082735	0.261852
55471	8.047669	2.019511	-0.791433	0.159380	1.489244	0.057139	-0.272999	-0.047807	0.960826	0.093593	-0.995346	-0.022932	0.957451	0.083666	0.276203
55472	8.166810	2.072668	-0.280660	-0.124017	1.500000	0.052936	-0.287220	-0.049612	0.956579	0.092613	-0.995417	-0.023818	0.953377	0.081750	0.290499
55473	8.371127	1.494655	0.254735	-0.399354	1.527319	0.090965	-0.301635	-0.051775	0.952017	0.089136	-0.995682	-0.025908	0.949248	0.077044	0.304948
55474	8.365921	0.230648	0.584274	-0.584893	1.547710	0.155702	-0.316099	-0.054504	0.947159	0.084134	-0.996025	-0.029238	0.944988	0.070446	0.319428
55475	8.087636	-1.071618	0.720895	-0.686093	1.549806	0.238401	-0.330482	-0.057956	0.942031	0.078492	-0.996343	-0.033761	0.940543	0.062785	0.333823
55476	7.594523	-2.501713	0.576534	-0.734527	1.459599	0.337518	-0.343865	-0.062215	0.936956	0.072795	-0.996566	-0.039457	0.936193	0.054638	0.347213
55477	6.998142	-3.652289	0.406777	-0.693332	1.299839	0.438907	-0.355662	-0.067296	0.932189	0.067910	-0.996629	-0.046038	0.932144	0.046931	0.359033
55478	6.614925	-3.937928	0.540078	-0.522728	1.135728	0.510944	-0.365830	-0.072926	0.927820	0.064949	-0.996495	-0.052715	0.928412	0.040976	0.369285
55479	6.302659	-3.183891	0.700094	-0.273632	0.950824	0.545444	-0.374251	-0.078785	0.923975	0.064490	-0.996183	-0.058821	0.925082	0.037573	0.377903
55480	6.255557	-2.338262	0.910889	-0.075950	0.757470	0.555476	-0.380828	-0.084637	0.920764	0.065944	-0.995752	-0.064255	0.922292	0.036249	0.384791
55481	6.612258	-1.672528	1.062498	0.039418	0.578542	0.554368	-0.385744	-0.090419	0.918165	0.068491	-0.995246	-0.069235	0.920060	0.036180	0.390103
55482	7.239118	-1.244386	1.279748	0.118300	0.413423	0.526475	-0.389118	-0.095848	0.916188	0.071678	-0.994707	-0.073620	0.918395	0.037023	0.393928
55483	7.788251	-1.127199	1.697134	0.126887	0.291359	0.492639	-0.391388	-0.100911	0.914676	0.074824	-0.994168	-0.077664	0.917179	0.038043	0.396656
55484	8.402466	-1.131900	2.374972	0.159568	0.193722	0.443716	-0.392767	-0.105436	0.913574	0.078086	-0.993642	-0.081105	0.916317	0.039482	0.398503
55485	9.133416	-1.296645	3.201697	0.181623	0.163304	0.361846	-0.393930	-0.109151	0.912636	0.081233	-0.993173	-0.083720	0.915544	0.041156	0.400108
55486	9.448099	-0.935986	3.996071	0.287263	0.227913	0.212741	-0.395781	-0.111399	0.911563	0.084760	-0.992810	-0.084527	0.914425	0.043810	0.402378
55487	8.823314	0.324991	4.663910	0.374553	0.368362	0.126534	-0.398991	-0.112878	0.909980	0.088745	-0.992489	-0.084201	0.912650	0.047161	0.406012
55488	7.327711	1.860946	5.446371	0.562614	0.393473	0.090866	-0.402437	-0.114014	0.908320	0.094297	-0.992099	-0.082751	0.910578	0.052350	0.410009
55489	7.103213	3.581696	6.554201	0.283565	0.255234	0.068194	-0.404651	-0.114879	0.907227	0.097213	-0.991860	-0.082236	0.909290	0.054917	0.412525
55490	7.799933	3.268679	6.289650	-0.345767	0.165615	0.074336	-0.406027	-0.115743	0.906502	0.094430	-0.991951	-0.084357	0.908969	0.051349	0.413688
55491	7.942043	1.324734	5.925390	-0.857191	0.176731	0.064893	-0.407534	-0.116517	0.905726	0.086961	-0.992271	-0.088523	0.909040	0.042687	0.414517
55492	7.540588	-1.426287	5.655723	-1.102998	0.122799	0.044583	-0.408557	-0.117045	0.905197	0.077173	-0.992622	-0.093517	0.909464	0.031650	0.414575
55493	7.606306	-3.520707	5.304794	-0.980546	0.000275	0.025332	-0.408504	-0.117345	0.905182	0.068415	-0.992848	-0.097834	0.910189	0.021963	0.413610
55494	7.997450	-4.216107	4.566415	-0.603749	-0.139091	-0.020155	-0.407193	-0.117158	0.905797	0.062894	-0.992981	-0.100161	0.911174	0.016184	0.411704
55495	8.293638	-3.266936	3.533889	-0.226646	-0.364796	-0.071067	-0.403874	-0.116449	0.907373	0.060599	-0.993092	-0.100477	0.912805	0.014406	0.408141
55496	9.526540	-1.569861	2.814528	-0.144094	-0.525588	-0.144896	-0.399100	-0.114977	0.909670	0.058760	-0.993275	-0.099764	0.915022	0.013636	0.403172
55497	8.253249	0.736587	2.234945	-0.188234	-0.571229	-0.245178	-0.393971	-0.112521	0.912210	0.056123	-0.993571	-0.098318	0.917408	0.012462	0.397753
55498	7.051024	1.499733	1.728351	-0.240580	-0.757965	-0.325462	-0.387125	-0.109238	0.915533	0.052700	-0.993955	-0.096312	0.920520	0.010964	0.390542
55499	7.757590	1.221142	1.167585	-0.541439	-0.852435	-0.384571	-0.379415	-0.105392	0.919204	0.046292	-0.994409	-0.094907	0.924068	0.006542	0.382173
55500	9.572517	0.853037	1.880977	-1.129788	-0.701553	-0.440287	-0.373042	-0.101045	0.922296	0.034236	-0.994874	-0.095149	0.927183	-0.003919	0.374589
55501	10.446387	-0.041148	2.938132	-1.439162	-0.638986	-0.514557	-0.367206	-0.096045	0.925168	0.019027	-0.995222	-0.095766	0.929945	-0.017562	0.367279
55502	11.690956	-1.377128	2.762670	-1.227021	-0.830660	-0.585135	-0.359484	-0.090457	0.928757	0.005529	-0.995480	-0.094815	0.933135	-0.028949	0.358359
55503	12.399013	-2.547716	1.495668	-0.992160	-0.936598	-0.574078	-0.350687	-0.085107	0.932617	-0.005726	-0.995649	-0.093012	0.936475	-0.037958	0.348674
55504	12.817835	-4.704794	2.125655	-0.988399	-0.806794	-0.481653	-0.343012	-0.080699	0.935858	-0.016608	-0.995626	-0.091940	0.939184	-0.047079	0.340171
55505	12.372880	-7.566502	4.305168	-0.752159	-0.589121	-0.399516	-0.337347	-0.077075	0.938220	-0.024979	-0.995559	-0.090767	0.941049	-0.054056	0.333924
55506	10.425852	-8.335866	5.797480	0.057000	-0.614000	-0.393575	-0.331408	-0.073530	0.940618	-0.025701	-0.995885	-0.086905	0.943137	-0.052976	0.328154
55507	9.080141	-5.712761	4.270129	1.066972	-0.861020	-0.403807	-0.323146	-0.069978	0.943758	-0.016884	-0.996677	-0.079683	0.946198	-0.041684	0.320891
55508	9.024909	-2.206531	1.215974	1.658574	-1.003084	-0.361110	-0.313547	-0.066753	0.947223	-0.002254	-0.997471	-0.071040	0.949570	-0.024410	0.312604
55509	9.463564	0.558804	-0.162892	1.613259	-0.979384	-0.313047	-0.304204	-0.063852	0.950465	0.012181	-0.997930	-0.063142	0.952529	-0.007631	0.304352
55510	9.812173	1.567488	0.031025	1.204622	-0.904829	-0.283309	-0.295566	-0.061078	0.953368	0.022878	-0.998120	-0.056853	0.955048	0.005007	0.296408
55511	10.691097	0.907147	1.081695	0.803757	-0.822820	-0.301181	-0.287729	-0.058058	0.955950	0.029742	-0.998221	-0.051673	0.957250	0.013564	0.288944
55512	10.274416	1.513470	0.828109	0.767643	-0.911120	-0.393851	-0.279068	-0.054006	0.958751	0.036040	-0.998303	-0.045743	0.959595	0.021788	0.280541
55513	9.756478	1.822029	0.318047	0.526782	-0.965835	-0.456798	-0.269910	-0.049266	0.961624	0.039905	-0.998405	-0.039950	0.962058	0.027590	0.271445
55514	10.447652	0.181087	0.572238	0.216621	-0.888318	-0.401149	-0.261457	-0.045044	0.964164	0.040981	-0.998528	-0.035536	0.964345	0.030221	0.262918
55515	9.964309	-1.406410	0.887653	0.225542	-0.870006	-0.296268	-0.253127	-0.041868	0.966527	0.042453	-0.998581	-0.032139	0.966501	0.032897	0.254545
55516	9.911121	-1.676314	1.740343	0.374964	-0.855365	-0.234450	-0.244895	-0.039268	0.968754	0.045553	-0.998542	-0.028960	0.968479	0.037037	0.246326
55517	10.202167	-0.409052	1.912600	0.602023	-0.868859	-0.215574	-0.236520	-0.036824	0.970929	0.050926	-0.998378	-0.025459	0.970291	0.043424	0.238011
55518	10.172484	0.848746	2.084803	0.649425	-0.827375	-0.195274	-0.228530	-0.034526	0.972924	0.056833	-0.998140	-0.022071	0.971876	0.050251	0.230067
55519	10.133157	0.987162	2.235096	0.556111	-0.772111	-0.194690	-0.221079	-0.032229	0.974723	0.061860	-0.997905	-0.018965	0.973292	0.056104	0.222609
55520	9.566645	0.823981	2.041696	0.523661	-0.751203	-0.191687	-0.213825	-0.029913	0.976414	0.066598	-0.997652	-0.015979	0.974599	0.061610	0.215315
55521	9.483023	0.485939	2.069869	0.513447	-0.705437	-0.193362	-0.207021	-0.027585	0.977948	0.071253	-0.997373	-0.013049	0.975738	0.066980	0.208442
55522	9.562019	0.628528	2.142769	0.593356	-0.649838	-0.172308	-0.200743	-0.025449	0.979313	0.076748	-0.996999	-0.010177	0.976633	0.073118	0.202094
55523	9.368617	0.801138	2.208848	0.636967	-0.614336	-0.168293	-0.194817	-0.023355	0.980562	0.082693	-0.996548	-0.007307	0.977348	0.079662	0.196076
55524	9.564230	1.128420	2.048701	0.705118	-0.594661	-0.161254	-0.189080	-0.021291	0.981731	0.089330	-0.995992	-0.004395	0.977890	0.086867	0.190224
55525	9.829013	1.649070	1.566398	0.747470	-0.573196	-0.134740	-0.183540	-0.019480	0.982819	0.096444	-0.995337	-0.001717	0.978270	0.094472	0.184563
55526	9.388711	1.791965	0.610192	0.730955	-0.598034	-0.127918	-0.177754	-0.017656	0.983917	0.103418	-0.994638	0.000835	0.978626	0.101904	0.178627
55527	9.213862	1.646117	0.148388	0.600615	-0.630655	-0.134566	-0.171663	-0.015704	0.985031	0.109116	-0.994024	0.003169	0.979094	0.108027	0.172351
55528	9.320256	1.372605	0.713373	0.432722	-0.632527	-0.118539	-0.165537	-0.013864	0.986106	0.113207	-0.993559	0.005036	0.979684	0.112468	0.166040
55529	9.559026	1.506078	1.255689	0.295736	-0.657594	-0.095737	-0.159140	-0.012208	0.987180	0.116003	-0.993228	0.006418	0.980417	0.115537	0.159479
55530	9.543983	1.928623	1.734194	0.163539	-0.693321	-0.092921	-0.152385	-0.010513	0.988265	0.117514	-0.993042	0.007556	0.981310	0.117287	0.152560
55531	9.505802	2.272518	2.041157	-0.039807	-0.704799	-0.108173	-0.145530	-0.008656	0.989316	0.117015	-0.993094	0.008524	0.982410	0.117005	0.145538
55532	9.461244	2.031910	1.960338	-0.211646	-0.715861	-0.127624	-0.138577	-0.006593	0.990330	0.114804	-0.993343	0.009452	0.983675	0.115004	0.138412
55533	9.455208	1.554150	1.917603	-0.339478	-0.727551	-0.139945	-0.131513	-0.004419	0.991305	0.111325	-0.993730	0.010340	0.985044	0.111717	0.131180
55534	9.568075	1.221113	1.872537	-0.432513	-0.717576	-0.147649	-0.124537	-0.002200	0.992212	0.106924	-0.994204	0.011216	0.986437	0.107488	0.124051
55535	9.575849	0.711068	1.719323	-0.512530	-0.707349	-0.163811	-0.117666	0.000132	0.993053	0.101717	-0.994739	0.012184	0.987830	0.102444	0.117034
55536	9.820554	-0.793957	1.471157	-0.591031	-0.643932	-0.140822	-0.111377	0.002138	0.993776	0.095764	-0.995321	0.012874	0.989153	0.096602	0.110651
55537	9.522236	-2.713937	1.382239	-0.467163	-0.566994	-0.096839	-0.105797	0.003596	0.994381	0.091086	-0.995754	0.013292	0.990207	0.091981	0.105020
55538	9.482327	-2.750351	1.116364	-0.048462	-0.571516	-0.043039	-0.100112	0.004512	0.994966	0.090612	-0.995793	0.013633	0.990842	0.091521	0.099282
55539	9.600991	-1.414897	1.168547	0.244642	-0.572549	-0.001354	-0.094380	0.005012	0.995524	0.093086	-0.995562	0.013838	0.991175	0.093975	0.093495
55540	9.495879	0.079843	1.031107	0.351503	-0.590294	0.002578	-0.088463	0.005516	0.996064	0.096622	-0.995221	0.014092	0.991382	0.097489	0.087508
55541	9.453463	0.969340	0.997268	0.306867	-0.626995	-0.006230	-0.082194	0.006154	0.996597	0.099709	-0.994913	0.014367	0.991616	0.100551	0.081162
55542	9.629317	1.426328	0.933760	0.202803	-0.651797	0.007648	-0.075658	0.006704	0.997111	0.101776	-0.994703	0.014410	0.991926	0.102572	0.074575
55543	9.654700	1.611935	0.978229	0.067820	-0.658039	-0.000260	-0.069071	0.007340	0.997585	0.102498	-0.994629	0.014415	0.992332	0.103246	0.067948
55544	9.640938	1.652807	1.073958	-0.083753	-0.663806	-0.017829	-0.062437	0.008165	0.998016	0.101704	-0.994709	0.014500	0.992853	0.102407	0.061276
55545	9.523060	1.164618	1.033396	-0.196182	-0.674677	-0.042880	-0.055721	0.009234	0.998404	0.099779	-0.994900	0.014770	0.993448	0.100442	0.054516
55546	9.513759	0.505638	0.911018	-0.163741	-0.720243	-0.055431	-0.048556	0.010467	0.998766	0.098171	-0.995053	0.015201	0.993984	0.098788	0.047288
55547	9.397439	0.110551	1.292443	-0.098340	-0.745783	-0.054475	-0.041136	0.011701	0.999085	0.097217	-0.995140	0.015657	0.994413	0.097772	0.039799
55548	9.347694	-0.290607	1.674609	-0.015409	-0.798991	-0.058013	-0.033183	0.013023	0.999364	0.097090	-0.995144	0.016191	0.994722	0.097565	0.031757
55549	9.056061	-0.397896	1.844117	0.058415	-0.849011	-0.069878	-0.024748	0.014507	0.999588	0.097698	-0.995073	0.016860	0.994908	0.098075	0.023209
55550	8.896106	-0.432349	2.029636	0.156980	-0.895315	-0.059912	-0.015836	0.015952	0.999747	0.099294	-0.994905	0.017447	0.994932	0.099546	0.014172
55551	8.986913	-0.312023	2.522589	0.243537	-0.899165	-0.028363	-0.006864	0.017097	0.999830	0.101760	-0.994651	0.017707	0.994785	0.101864	0.005088
55552	8.854014	-0.517233	2.970153	0.348663	-0.896398	-0.004233	0.002111	0.018032	0.999835	0.105274	-0.994286	0.017710	0.994441	0.105220	-0.003997
55553	8.870780	-0.568936	3.093636	0.518809	-0.915065	0.034657	0.011297	0.018631	0.999763	0.110475	-0.993729	0.017270	0.993815	0.110253	-0.013284
55554	9.107556	-0.083787	3.063885	0.668781	-0.941356	0.077927	0.020801	0.018890	0.999605	0.117151	-0.992980	0.016327	0.992896	0.116765	-0.022868
55555	9.386751	0.607278	3.216423	0.744752	-0.906655	0.105035	0.029974	0.018896	0.999372	0.124559	-0.992098	0.015023	0.991759	0.124030	-0.032091
55556	9.210096	1.196609	3.645041	0.736740	-0.840086	0.126348	0.038527	0.018682	0.999083	0.131862	-0.991177	0.013449	0.990519	0.131223	-0.040650
55557	9.573539	1.651039	3.833961	0.712859	-0.786486	0.156814	0.046569	0.018146	0.998750	0.138895	-0.990240	0.011515	0.989212	0.138185	-0.048635
55558	10.403894	2.219997	4.038324	0.635460	-0.669963	0.202383	0.053545	0.017056	0.998420	0.145119	-0.989372	0.009119	0.987964	0.144402	-0.055451
55559	11.299368	2.870281	4.073823	0.481300	-0.496721	0.195670	0.058779	0.015811	0.998146	0.149803	-0.988692	0.006839	0.986967	0.149124	-0.060483
55560	11.948310	2.532227	3.831318	0.205247	-0.239362	0.166796	0.061457	0.014489	0.998005	0.151772	-0.988403	0.005003	0.986503	0.151161	-0.062943
55561	11.385191	1.118063	3.544350	-0.151919	0.057935	0.150967	0.061148	0.012872	0.998046	0.150220	-0.988646	0.003547	0.986760	0.149710	-0.062388
55562	11.153185	-0.277497	3.607613	-0.371179	0.264559	0.154195	0.058831	0.010923	0.998208	0.146507	-0.989207	0.002190	0.987459	0.146116	-0.059796
55563	11.309315	-0.727368	3.870547	-0.371860	0.370209	0.166567	0.055444	0.008703	0.998424	0.142779	-0.989754	0.000699	0.988200	0.142515	-0.056119
55564	12.279677	-0.393028	4.284791	-0.303038	0.416153	0.194464	0.051670	0.006158	0.998645	0.139723	-0.990190	-0.001123	0.988842	0.139592	-0.052023
55565	14.594687	0.359254	5.823447	-0.309836	0.510876	0.206307	0.046926	0.003370	0.998893	0.136597	-0.990622	-0.003075	0.989515	0.136590	-0.046946
55566	13.716418	0.758614	6.408181	-0.528183	0.781610	0.180516	0.039494	0.000500	0.999220	0.131334	-0.991327	-0.004695	0.990551	0.131417	-0.039217
55567	11.949158	0.461854	6.778884	-0.687890	0.879247	0.172136	0.031016	-0.002373	0.999516	0.124495	-0.992201	-0.006219	0.991735	0.124628	-0.030479
55568	12.110097	0.334981	6.907530	-0.709038	0.978721	0.179183	0.021585	-0.005372	0.999753	0.117458	-0.993047	-0.007872	0.992843	0.117598	-0.020804
55569	12.392095	-0.066158	6.410478	-0.798760	1.192112	0.207953	0.009987	-0.008834	0.999911	0.109531	-0.993934	-0.009875	0.993933	0.109619	-0.008958
55570	12.361705	-1.116014	5.739681	-1.155601	1.404642	0.250632	-0.003660	-0.012820	0.999911	0.098075	-0.995102	-0.012400	0.995172	0.098021	0.004899
55571	12.132657	-2.809610	4.189482	-1.673393	1.522879	0.221821	-0.018627	-0.016438	0.999691	0.081477	-0.996564	-0.014869	0.996501	0.081175	0.019902
55572	11.469707	-4.449057	1.188872	-1.750757	1.527511	0.152169	-0.033682	-0.019098	0.999250	0.064109	-0.997800	-0.016910	0.997374	0.063492	0.034833
55573	11.586451	-4.724978	-1.371798	-1.045657	1.496520	0.114625	-0.048544	-0.021163	0.998597	0.053771	-0.998381	-0.018544	0.997373	0.052795	0.049604
55574	11.875664	-3.301367	-2.965417	0.179919	1.545187	0.092414	-0.063836	-0.022952	0.997696	0.055665	-0.998261	-0.019403	0.996407	0.054298	0.065003
55575	11.948771	-1.427804	-4.118468	1.348255	1.550074	0.051605	-0.079233	-0.024464	0.996556	0.069169	-0.997424	-0.018986	0.994454	0.067426	0.080721
55576	12.584770	0.213228	-3.553770	1.922366	1.537639	0.067336	-0.094388	-0.026354	0.995187	0.088367	-0.995925	-0.017992	0.991606	0.086244	0.096332
55577	13.105389	0.662943	-3.264153	1.346619	1.621533	0.118863	-0.110323	-0.029093	0.993470	0.101870	-0.994638	-0.017815	0.988661	0.099239	0.112695
55578	12.508378	0.020637	-3.275004	0.636727	1.691984	0.128953	-0.126830	-0.032139	0.991404	0.108360	-0.993942	-0.018359	0.985988	0.105100	0.129544
55579	11.242184	0.071899	-2.902431	0.347686	1.729820	0.099960	-0.143738	-0.035026	0.988996	0.111967	-0.993532	-0.018913	0.983261	0.108017	0.146730
55580	10.167481	0.494831	-2.552594	0.364251	1.692339	0.071454	-0.160209	-0.037625	0.986366	0.115704	-0.993100	-0.019088	0.980278	0.111069	0.163457
55581	9.886747	0.307171	-2.435779	0.328641	1.617551	0.094929	-0.175910	-0.040433	0.983576	0.119130	-0.992687	-0.019502	0.977171	0.113743	0.179440
55582	9.810937	-0.301362	-2.376590	0.272100	1.587904	0.147732	-0.191160	-0.043757	0.980583	0.122109	-0.992305	-0.020476	0.973934	0.115824	0.195032
55583	9.392867	-0.562379	-2.283227	0.250300	1.579761	0.160427	-0.206296	-0.047240	0.977349	0.124913	-0.991933	-0.021578	0.970484	0.117632	0.210533
55584	8.715846	-0.301011	-1.992718	0.218615	1.589428	0.125348	-0.221471	-0.050399	0.973864	0.127352	-0.991606	-0.022355	0.966815	0.119073	0.226031
55585	8.088503	0.033236	-1.739836	0.142713	1.587167	0.106212	-0.236621	-0.053393	0.970134	0.129025	-0.991372	-0.023092	0.962997	0.119708	0.241469
55586	7.940027	0.259329	-1.390773	0.083099	1.585079	0.106898	-0.251653	-0.056384	0.966174	0.130140	-0.991206	-0.023949	0.959028	0.119711	0.256778
55587	8.082781	0.777915	-0.781732	0.044277	1.596503	0.117597	-0.266744	-0.059503	0.961929	0.130922	-0.991077	-0.025001	0.954833	0.119269	0.272154
55588	8.417483	1.223429	0.005195	-0.009395	1.598531	0.119326	-0.281754	-0.062618	0.957441	0.131216	-0.991008	-0.026200	0.950472	0.118250	0.287437
55589	8.605799	1.275931	0.617532	-0.081109	1.628448	0.127004	-0.296993	-0.065831	0.952608	0.130869	-0.991013	-0.027684	0.945869	0.116445	0.302939
55590	8.510102	0.862478	1.063977	-0.220132	1.658561	0.145320	-0.312391	-0.069211	0.947429	0.129292	-0.991160	-0.029775	0.941114	0.113193	0.318578
55591	8.175507	0.020274	1.325084	-0.474823	1.629185	0.177130	-0.327424	-0.072805	0.942068	0.125456	-0.991549	-0.033026	0.936512	0.107375	0.333791
55592	7.593233	-0.984929	1.224992	-0.749770	1.541323	0.240362	-0.341472	-0.076814	0.936748	0.119312	-0.992135	-0.037863	0.932289	0.098836	0.347951
55593	6.966501	-1.733299	0.824026	-0.903287	1.365028	0.305191	-0.353782	-0.081167	0.931800	0.112025	-0.992733	-0.043942	0.928595	0.088839	0.360303
55594	6.711728	-2.310633	0.082017	-0.866100	1.083550	0.374356	-0.363361	-0.085832	0.927686	0.105395	-0.993142	-0.050607	0.925668	0.079385	0.369915
55595	7.079461	-2.591144	-0.168696	-0.822125	0.858450	0.441629	-0.370805	-0.090908	0.924251	0.099474	-0.993360	-0.057797	0.923368	0.070507	0.377386
55596	7.380844	-2.873190	-0.078574	-0.794577	0.668149	0.509477	-0.376417	-0.096449	0.921416	0.094106	-0.993403	-0.065540	0.921658	0.062040	0.383010
55597	7.776604	-2.803367	0.091899	-0.719828	0.448226	0.548231	-0.380000	-0.102205	0.919323	0.089607	-0.993270	-0.073387	0.920636	0.054491	0.386600
55598	8.257115	-3.026279	0.026553	-0.587930	0.281755	0.549316	-0.382051	-0.107844	0.917827	0.086348	-0.992989	-0.080733	0.920098	0.048409	0.388684
55599	8.560734	-2.984687	0.701572	-0.409184	0.246253	0.457235	-0.383880	-0.112550	0.916498	0.084395	-0.992666	-0.086554	0.919518	0.044121	0.390563
55600	8.746169	-1.593146	2.327661	-0.213990	0.306415	0.318199	-0.386370	-0.115878	0.915036	0.083713	-0.992388	-0.090327	0.918537	0.041700	0.393129
55601	8.394105	0.364352	4.227479	-0.033426	0.353091	0.202722	-0.389393	-0.118090	0.913470	0.084252	-0.992156	-0.092347	0.917210	0.041002	0.396288
55602	7.988609	2.021337	5.616812	-0.207692	0.324673	0.084793	-0.392240	-0.119099	0.912120	0.082738	-0.992131	-0.093967	0.916134	0.038610	0.399008
55603	7.807683	2.619353	5.890818	-0.664197	0.276935	0.004300	-0.394727	-0.119291	0.911022	0.076732	-0.992352	-0.096694	0.915589	0.031737	0.400861
55604	7.612775	1.701023	5.693034	-1.091504	0.288299	-0.056713	-0.397349	-0.118844	0.909940	0.066575	-0.992699	-0.100581	0.915250	0.020613	0.402360
55605	7.231422	-0.487359	5.667288	-1.277941	0.314409	-0.083582	-0.400233	-0.118108	0.908771	0.054608	-0.992972	-0.105001	0.914785	0.007601	0.403870
55606	6.694406	-2.494716	5.257457	-1.090949	0.186920	-0.136384	-0.401954	-0.116799	0.908180	0.044141	-0.993150	-0.108190	0.914595	-0.003399	0.404356
55607	7.474246	-3.776792	5.207135	-0.791765	-0.055391	-0.182773	-0.401481	-0.115039	0.908614	0.036224	-0.993298	-0.109755	0.915151	-0.011151	0.402957
55608	9.351665	-4.369389	5.725661	-0.540971	-0.137596	-0.229250	-0.400241	-0.112823	0.909438	0.030411	-0.993481	-0.109865	0.915905	-0.016315	0.401063
55609	7.333335	-2.503887	5.360850	-0.158967	-0.203075	-0.305408	-0.398431	-0.109878	0.910593	0.027795	-0.993789	-0.107755	0.916777	-0.017623	0.399010
55610	4.665634	-1.000113	4.030190	0.117680	-0.581567	-0.365516	-0.393138	-0.106385	0.913304	0.027488	-0.994200	-0.103975	0.919069	-0.015771	0.393782
55611	5.198391	0.014522	2.524543	0.203003	-0.962044	-0.389333	-0.384350	-0.102706	0.917457	0.027904	-0.994631	-0.099656	0.922766	-0.012702	0.385152
55612	8.596930	0.582913	0.562980	0.128272	-1.155199	-0.343214	-0.373704	-0.099466	0.922199	0.027849	-0.994989	-0.096032	0.927130	-0.010205	0.374601
55613	11.616685	-0.153811	-1.461405	0.082840	-1.218803	-0.229491	-0.362402	-0.097349	0.926924	0.027834	-0.995217	-0.093640	0.931606	-0.008136	0.363379
55614	13.157039	-0.059671	-0.700982	0.002587	-1.058555	-0.215972	-0.352523	-0.095322	0.930936	0.027144	-0.995422	-0.091646	0.935409	-0.007038	0.353497
55615	12.675942	0.485233	1.561793	-0.427896	-0.874473	-0.281381	-0.344354	-0.092651	0.934257	0.022213	-0.995644	-0.090552	0.938577	-0.010429	0.344913
55616	12.061977	-2.148683	3.869001	-0.935224	-0.717203	-0.324048	-0.337613	-0.089573	0.937013	0.012376	-0.995798	-0.090733	0.941204	-0.019036	0.337303
55617	12.199640	-6.289042	6.170815	-0.857213	-0.562497	-0.357808	-0.332295	-0.086194	0.939229	0.003159	-0.995912	-0.090278	0.943170	-0.027032	0.331209
55618	11.458110	-4.729972	7.195083	-0.137201	-0.570375	-0.480784	-0.326862	-0.081605	0.941542	0.000337	-0.996275	-0.086231	0.945072	-0.027868	0.325672
55619	10.502694	-0.335087	4.392564	0.464680	-0.816391	-0.570185	-0.319102	-0.076188	0.944653	0.002952	-0.996839	-0.079399	0.947716	-0.022548	0.318318
55620	10.378408	0.792888	0.433615	0.324615	-0.935484	-0.532111	-0.310185	-0.071117	0.948012	0.004416	-0.997295	-0.073370	0.950666	-0.018572	0.309660
55621	9.991225	-0.906059	-1.129184	0.004535	-0.883257	-0.442626	-0.301748	-0.066921	0.951036	0.003162	-0.997598	-0.069194	0.953382	-0.017872	0.301235
55622	10.467319	-3.547038	-1.714362	0.057176	-0.869543	-0.343320	-0.293400	-0.063689	0.953866	0.002744	-0.997830	-0.065780	0.955986	-0.016683	0.292938
55623	10.607400	-3.098513	-1.726930	0.524954	-0.914700	-0.303587	-0.284608	-0.060844	0.956711	0.006949	-0.998089	-0.061409	0.958619	-0.010829	0.284487
55624	10.438079	-0.373244	-1.037849	0.727269	-0.978116	-0.316793	-0.275192	-0.057792	0.959651	0.013100	-0.998324	-0.056364	0.961300	-0.002939	0.275488
55625	10.253492	0.691185	-0.587105	0.489867	-0.944569	-0.336131	-0.266095	-0.054498	0.962405	0.016963	-0.998511	-0.051852	0.963797	0.002527	0.266623
55626	9.842042	-0.829387	-0.173019	0.294129	-0.871875	-0.335740	-0.257685	-0.051150	0.964874	0.018977	-0.998673	-0.047873	0.966043	0.005975	0.258313
55627	9.999150	-1.795939	0.441488	0.428620	-0.831386	-0.299099	-0.249647	-0.048152	0.967139	0.022420	-0.998783	-0.043940	0.968077	0.010714	0.250422
55628	9.816941	-0.464941	1.561046	0.601908	-0.800070	-0.256123	-0.241900	-0.045523	0.969233	0.027679	-0.998816	-0.040005	0.969906	0.017150	0.242873
55629	9.902635	1.312172	2.485616	0.585157	-0.752028	-0.238149	-0.234610	-0.043052	0.971136	0.032848	-0.998799	-0.036342	0.971535	0.023373	0.235742
55630	9.953002	2.292050	2.851562	0.410055	-0.671170	-0.244232	-0.228109	-0.040481	0.972794	0.036324	-0.998794	-0.033045	0.972958	0.027798	0.229305
55631	9.968537	1.948716	2.986357	0.205681	-0.587916	-0.262247	-0.222414	-0.037786	0.974220	0.037966	-0.998826	-0.030073	0.974213	0.030299	0.223588
55632	9.706044	0.710472	3.038843	0.077818	-0.504072	-0.283367	-0.217549	-0.034840	0.975427	0.038156	-0.998902	-0.027169	0.975303	0.031308	0.218639
55633	9.434073	-0.956410	2.731496	0.131745	-0.447017	-0.272284	-0.213231	-0.032031	0.976477	0.038910	-0.998948	-0.024271	0.976227	0.032819	0.214253
55634	9.345440	-1.598811	2.362765	0.415669	-0.422671	-0.232093	-0.209138	-0.029605	0.977438	0.042534	-0.998871	-0.021153	0.976961	0.037150	0.210161
55635	9.321864	-1.089249	2.206139	0.696881	-0.440529	-0.202419	-0.204864	-0.027458	0.978405	0.048980	-0.998642	-0.017770	0.977564	0.044282	0.205931
55636	9.341257	0.196034	2.041392	0.852509	-0.454898	-0.197835	-0.200460	-0.025301	0.979375	0.056969	-0.998276	-0.014128	0.978044	0.052962	0.201556
55637	9.449245	1.534411	1.742106	0.873934	-0.476647	-0.181544	-0.195847	-0.023269	0.980358	0.065213	-0.997814	-0.010656	0.978464	0.061845	0.196936
55638	9.611490	2.407797	1.381716	0.805765	-0.488704	-0.173669	-0.191123	-0.021252	0.981336	0.072816	-0.997318	-0.007417	0.978862	0.070040	0.192157
55639	9.248738	2.729931	1.040254	0.561668	-0.513676	-0.214767	-0.186192	-0.018786	0.982334	0.077965	-0.996947	-0.004288	0.979415	0.075789	0.187089
55640	9.345550	2.428690	1.440101	0.263783	-0.532307	-0.237995	-0.181103	-0.016040	0.983333	0.080166	-0.996780	-0.001495	0.980191	0.078559	0.181806
55641	9.528037	1.911100	2.174560	0.001897	-0.512447	-0.247542	-0.176213	-0.013217	0.984263	0.079796	-0.996811	0.000900	0.981112	0.078699	0.176705
55642	9.459269	1.208693	2.579648	-0.151592	-0.514615	-0.251967	-0.171298	-0.010341	0.985165	0.077923	-0.996955	0.003084	0.982133	0.077295	0.171582
55643	9.471690	0.728324	2.694642	-0.216427	-0.504954	-0.237937	-0.166456	-0.007629	0.986019	0.075447	-0.997137	0.005022	0.983158	0.075229	0.166555
55644	9.597832	0.231436	2.652437	-0.250997	-0.482314	-0.202362	-0.161800	-0.005291	0.986809	0.072699	-0.997332	0.006572	0.984142	0.072803	0.161753
55645	9.344157	0.028919	2.645472	-0.225864	-0.486927	-0.165071	-0.157063	-0.003341	0.987583	0.070265	-0.997498	0.007800	0.985086	0.070617	0.156905
55646	9.333788	0.327584	2.512028	-0.110662	-0.531461	-0.145860	-0.151865	-0.001551	0.988400	0.069001	-0.997576	0.009037	0.985990	0.069573	0.151604
55647	9.695982	0.878654	1.969554	-0.010964	-0.566500	-0.107730	-0.146292	-0.000128	0.989241	0.068785	-0.997581	0.010043	0.986847	0.069514	0.145947
55648	9.272866	1.313034	1.561599	0.038538	-0.548766	-0.115887	-0.140892	0.001373	0.990024	0.069051	-0.997550	0.011211	0.987614	0.069941	0.140452
55649	9.806602	1.192687	0.996630	0.002492	-0.621499	-0.092515	-0.134756	0.002687	0.990875	0.068999	-0.997543	0.012089	0.988473	0.069999	0.134240
55650	9.838500	0.821373	0.440646	-0.055100	-0.622899	-0.073690	-0.128585	0.003819	0.991691	0.068409	-0.997576	0.012712	0.989336	0.069475	0.128012
55651	9.704499	0.745603	0.079211	-0.131893	-0.630808	-0.073820	-0.122332	0.004946	0.992477	0.067062	-0.997661	0.013238	0.990221	0.068177	0.121714
55652	9.576567	0.670376	-0.208013	-0.130428	-0.625782	-0.043479	-0.116099	0.005765	0.993221	0.065769	-0.997744	0.013479	0.991058	0.066889	0.115458
55653	9.820504	0.311465	-0.195935	-0.087520	-0.605539	-0.010060	-0.110042	0.006206	0.993908	0.065116	-0.997787	0.013440	0.991792	0.066198	0.109395
55654	9.804550	-0.492834	0.289819	-0.108184	-0.583251	-0.031913	-0.104214	0.006870	0.994531	0.064059	-0.997853	0.013605	0.992490	0.065126	0.103551
55655	9.479922	-1.487126	0.875212	-0.138269	-0.619438	-0.064369	-0.098042	0.007868	0.995151	0.062671	-0.997935	0.014065	0.993207	0.063746	0.097347
55656	9.823319	-1.601797	1.527371	-0.040403	-0.656710	-0.060378	-0.091494	0.008850	0.995766	0.062263	-0.997953	0.014590	0.993857	0.063334	0.090756
55657	9.472176	-0.619416	1.638145	0.144482	-0.704975	-0.045734	-0.084452	0.009713	0.996380	0.063709	-0.997854	0.015127	0.994389	0.064756	0.083652
55658	9.625268	0.847909	1.850747	0.209312	-0.693908	-0.011912	-0.077496	0.010251	0.996940	0.065831	-0.997712	0.015376	0.994817	0.066821	0.076644
55659	9.451238	1.316285	2.115835	0.106821	-0.644430	-0.018769	-0.071035	0.010827	0.997415	0.066930	-0.997636	0.015596	0.995226	0.067865	0.070142
55660	9.316280	1.081520	2.195164	0.023257	-0.642210	-0.043904	-0.064609	0.011664	0.997842	0.067181	-0.997612	0.016011	0.995647	0.068070	0.063671
55661	9.296561	0.923804	1.738188	0.036529	-0.649209	-0.050981	-0.058121	0.012562	0.998231	0.067736	-0.997567	0.016497	0.996009	0.068575	0.057128
55662	9.368104	1.048722	1.437165	0.069645	-0.665191	-0.063391	-0.051475	0.013615	0.998581	0.068444	-0.997508	0.017128	0.996326	0.069228	0.050415
55663	9.284998	0.865165	1.547058	0.046153	-0.680666	-0.081770	-0.044690	0.014861	0.998890	0.068913	-0.997462	0.017923	0.996621	0.069637	0.043553
55664	9.421610	0.477882	1.554982	0.021376	-0.721930	-0.077836	-0.037486	0.016103	0.999167	0.069142	-0.997432	0.018669	0.996902	0.069784	0.036276
55665	9.429861	-0.257604	1.655035	-0.017504	-0.731489	-0.065011	-0.030180	0.017219	0.999396	0.068993	-0.997431	0.019268	0.997161	0.069533	0.028914
55666	9.224826	-0.859655	1.934741	0.056739	-0.755938	-0.047325	-0.022612	0.018181	0.999579	0.069593	-0.997381	0.019715	0.997319	0.070010	0.021287
55667	9.119013	-1.060288	2.351412	0.200201	-0.788484	-0.035863	-0.014718	0.019055	0.999710	0.071630	-0.997229	0.020062	0.997323	0.071905	0.013312
55668	9.008749	-1.111142	2.667244	0.342716	-0.825792	-0.036202	-0.006446	0.019986	0.999779	0.075091	-0.996968	0.020414	0.997156	0.075206	0.004926
55669	9.143068	-1.151768	3.098469	0.493780	-0.862548	-0.029040	0.002180	0.020901	0.999779	0.080233	-0.996562	0.020659	0.996774	0.080170	-0.003850
55670	9.414373	-0.826506	3.858877	0.668389	-0.871538	-0.023494	0.010908	0.021826	0.999702	0.086941	-0.995996	0.020796	0.996154	0.086688	-0.012762
55671	9.293690	-0.360652	4.271598	0.794618	-0.840527	-0.005552	0.019323	0.022597	0.999558	0.094899	-0.995272	0.020666	0.995299	0.094457	-0.021376
55672	9.545503	0.397199	4.758812	0.826515	-0.765956	0.027255	0.027033	0.023045	0.999369	0.103160	-0.994461	0.020141	0.994297	0.102550	-0.029261
55673	10.051809	1.264113	5.603120	0.716546	-0.610117	0.063756	0.033210	0.023014	0.999183	0.110306	-0.993712	0.019221	0.993343	0.109577	-0.035540
55674	10.480714	2.144591	6.274911	0.579042	-0.437756	0.090224	0.037723	0.022575	0.999033	0.116068	-0.993077	0.018057	0.992525	0.115274	-0.040082
55675	11.357776	3.021739	5.944800	0.496540	-0.294757	0.116224	0.040824	0.021725	0.998930	0.120991	-0.992514	0.016641	0.991814	0.120182	-0.043147
55676	10.792351	2.642039	5.062994	0.267462	-0.050370	0.155543	0.041578	0.020208	0.998931	0.123624	-0.992217	0.014927	0.991458	0.122871	-0.043752
55677	10.604714	1.435382	4.363561	0.020906	0.168621	0.189510	0.040172	0.018080	0.999029	0.123795	-0.992223	0.012979	0.991494	0.123154	-0.042098
55678	11.811389	0.074693	3.508075	-0.148113	0.437181	0.196752	0.036143	0.015558	0.999226	0.122296	-0.992432	0.011029	0.991835	0.121803	-0.037772
55679	12.925014	-1.082114	3.106455	-0.245218	0.648213	0.179154	0.029956	0.012958	0.999467	0.119846	-0.992749	0.009278	0.992340	0.119504	-0.031292
55680	14.737768	-1.878969	4.604744	-0.328989	0.808235	0.162748	0.022190	0.010354	0.999700	0.116583	-0.993151	0.007698	0.992933	0.116377	-0.023245
55681	14.150943	-1.529013	5.646769	-0.311287	1.032934	0.167246	0.012146	0.007463	0.999898	0.113505	-0.993519	0.006036	0.993463	0.113420	-0.012914
