// General information: 
//  MT Manager version: 2022.2.0 
//  XDA version: 2022.2.0 build 7381 rev 124627 built on 2023-07-19
// Device information: 
//  DeviceId: 00B4CAF0
//  ProductCode: MTW2-3A7G6
//  Firmware Version: 4.6.0
//  Hardware Version: 2.0.0
// Device settings: 
//  Filter Profile: human(46.1)
//  Option Flags: Orientation Smoother Disabled, Position/Velocity Smoother Disabled, Continuous Zero Rotation Update Disabled, AHS Disabled, ICC Disabled
// Coordinate system: ENU
PacketCounter	Acc_X	Acc_Y	Acc_Z	Gyr_X	Gyr_Y	Gyr_Z	Mat[1][1]	Mat[2][1]	Mat[3][1]	Mat[1][2]	Mat[2][2]	Mat[3][2]	Mat[1][3]	Mat[2][3]	Mat[3][3]
06869	5.486523	-0.028024	8.704769	0.001835	0.002797	0.005049	0.815366	0.231140	0.530804	-0.269449	0.962999	-0.005440	-0.512421	-0.138589	0.847477
06870	5.421962	-0.015273	8.641354	-0.000377	0.003313	0.005148	0.815395	0.231113	0.530772	-0.269397	0.963014	-0.005464	-0.512403	-0.138533	0.847497
06871	5.479671	-0.061160	8.714251	-0.000279	0.000132	0.003829	0.815383	0.231120	0.530787	-0.269383	0.963017	-0.005504	-0.512429	-0.138497	0.847487
06872	5.454003	-0.051456	8.667123	-0.000195	0.006362	0.002637	0.815383	0.231154	0.530772	-0.269403	0.963012	-0.005536	-0.512419	-0.138478	0.847497
06873	5.452925	-0.040121	8.707962	-0.002491	0.000648	0.003928	0.815373	0.231163	0.530783	-0.269378	0.963018	-0.005596	-0.512447	-0.138419	0.847489
06874	5.466428	-0.033506	8.676949	0.003619	-0.000218	0.005781	0.815303	0.231286	0.530836	-0.269523	0.962978	-0.005614	-0.512482	-0.138496	0.847456
06875	5.452860	-0.040365	8.708001	0.004536	0.001180	0.008305	0.815285	0.231337	0.530843	-0.269571	0.962964	-0.005637	-0.512487	-0.138503	0.847452
06876	5.453440	-0.052202	8.667473	-0.002064	0.003147	0.003096	0.815311	0.231294	0.530821	-0.269494	0.962985	-0.005672	-0.512485	-0.138429	0.847465
06877	5.465935	-0.033974	8.677257	0.001834	0.002797	0.005048	0.815309	0.231316	0.530814	-0.269501	0.962983	-0.005702	-0.512484	-0.138406	0.847469
06878	5.465744	-0.034045	8.677377	0.002604	0.001564	0.004575	0.815306	0.231338	0.530809	-0.269526	0.962976	-0.005703	-0.512476	-0.138417	0.847472
06879	5.439514	-0.012481	8.670767	0.003373	0.000332	0.004103	0.815295	0.231348	0.530823	-0.269533	0.962974	-0.005714	-0.512490	-0.138415	0.847464
06880	5.458373	-0.055174	8.727341	-0.002736	0.001199	0.002250	0.815308	0.231292	0.530827	-0.269444	0.962999	-0.005753	-0.512516	-0.138337	0.847461
06881	5.465434	-0.034425	8.677571	0.003765	0.002413	0.008777	0.815294	0.231349	0.530823	-0.269491	0.962985	-0.005786	-0.512513	-0.138335	0.847463
06882	5.458854	-0.067241	8.686873	-0.002211	0.000517	0.000099	0.815301	0.231277	0.530844	-0.269391	0.963013	-0.005816	-0.512555	-0.138263	0.847449
06883	5.465075	-0.034617	8.677796	0.004473	0.004779	0.004116	0.815312	0.231292	0.530820	-0.269404	0.963010	-0.005818	-0.512531	-0.138261	0.847464
06884	5.471134	-0.048783	8.696796	0.001162	0.000848	0.004202	0.815339	0.231204	0.530818	-0.269291	0.963041	-0.005831	-0.512548	-0.138190	0.847466
06885	5.464701	-0.034775	8.678031	0.000392	0.002081	0.004674	0.815335	0.231221	0.530817	-0.269287	0.963042	-0.005871	-0.512556	-0.138156	0.847466
06886	5.464496	-0.035095	8.678159	-0.001819	0.002598	0.004773	0.815389	0.231076	0.530797	-0.269086	0.963098	-0.005913	-0.512576	-0.138008	0.847479
06887	5.457894	-0.068026	8.687470	-0.000525	0.000683	0.002150	0.815384	0.231067	0.530808	-0.269057	0.963106	-0.005947	-0.512598	-0.137968	0.847472
06888	5.483929	-0.042852	8.666235	0.002262	0.005296	0.004215	0.815389	0.231096	0.530788	-0.269081	0.963099	-0.005957	-0.512578	-0.137968	0.847483
06889	5.450295	-0.042534	8.709596	-0.002492	0.000649	0.003927	0.815379	0.231104	0.530799	-0.269057	0.963105	-0.006017	-0.512606	-0.137909	0.847476
06890	5.451049	-0.054254	8.668964	0.005584	-0.000186	0.004003	0.815332	0.231129	0.530860	-0.269098	0.963094	-0.006018	-0.512659	-0.137947	0.847438
06891	5.443883	-0.028390	8.690820	0.002078	0.002247	0.006725	0.815324	0.231166	0.530858	-0.269120	0.963088	-0.006054	-0.512662	-0.137928	0.847439
06892	5.437249	-0.060998	8.700151	0.004570	0.001597	0.002798	0.815302	0.231183	0.530884	-0.269149	0.963080	-0.006047	-0.512681	-0.137957	0.847423
06893	5.469686	-0.049770	8.697702	0.002359	0.002114	0.002896	0.815303	0.231184	0.530882	-0.269141	0.963082	-0.006060	-0.512684	-0.137941	0.847424
06894	5.456880	-0.021439	8.660140	0.001833	0.002797	0.005046	0.815303	0.231191	0.530878	-0.269138	0.963082	-0.006078	-0.512685	-0.137924	0.847426
06895	5.468555	-0.038183	8.738568	0.003372	0.000331	0.004102	0.815292	0.231200	0.530892	-0.269145	0.963080	-0.006089	-0.512699	-0.137922	0.847418
06896	5.450249	-0.054047	8.669468	0.001686	0.000166	0.002051	0.815299	0.231184	0.530888	-0.269131	0.963084	-0.006079	-0.512695	-0.137923	0.847420
06897	5.450303	-0.053985	8.669435	0.004385	-0.001452	0.005308	0.815275	0.231202	0.530917	-0.269153	0.963078	-0.006088	-0.512722	-0.137935	0.847402
06898	5.475571	-0.063873	8.716809	0.001589	0.003347	0.003368	0.815276	0.231214	0.530910	-0.269158	0.963077	-0.006102	-0.512718	-0.137924	0.847406
06899	5.442967	-0.028218	8.691395	0.001161	0.000849	0.004201	0.815267	0.231225	0.530919	-0.269154	0.963078	-0.006132	-0.512734	-0.137900	0.847400
06900	5.455425	-0.056353	8.729176	0.009909	0.001961	0.005122	0.815228	0.231282	0.530953	-0.269249	0.963051	-0.006096	-0.512745	-0.137989	0.847379
06901	5.429313	-0.034522	8.722487	0.001257	-0.002333	0.002884	0.815207	0.231275	0.530990	-0.269235	0.963055	-0.006118	-0.512787	-0.137973	0.847356
06902	5.437154	-0.071860	8.660059	0.006012	0.002312	0.003170	0.815210	0.231204	0.531015	-0.269164	0.963075	-0.006105	-0.512819	-0.137953	0.847341
06903	5.475330	-0.015992	8.688997	0.010677	0.000727	0.004649	0.815199	0.231219	0.531025	-0.269212	0.963062	-0.006057	-0.512811	-0.138021	0.847334
06904	5.449794	-0.052347	8.669765	0.006108	-0.000869	0.001853	0.815208	0.231159	0.531038	-0.269168	0.963074	-0.006016	-0.512820	-0.138034	0.847327
06905	5.468890	-0.047705	8.698214	0.007268	-0.000020	0.006053	0.815190	0.231186	0.531054	-0.269211	0.963063	-0.006005	-0.512827	-0.138071	0.847316
06906	5.455392	-0.007292	8.701233	0.005524	0.003412	-0.000187	0.815212	0.231106	0.531054	-0.269138	0.963083	-0.005969	-0.512829	-0.138061	0.847317
06907	5.448721	-0.039738	8.710594	0.001160	0.000849	0.004200	0.815203	0.231117	0.531064	-0.269134	0.963084	-0.005999	-0.512846	-0.138037	0.847311
06908	5.469192	-0.058822	8.657878	0.004044	0.002280	0.004945	0.815196	0.231097	0.531084	-0.269108	0.963091	-0.006009	-0.512871	-0.138021	0.847298
06909	5.441893	-0.072304	8.720054	0.004044	0.002280	0.004945	0.815192	0.231116	0.531081	-0.269125	0.963086	-0.006019	-0.512868	-0.138021	0.847299
06910	5.455326	-0.065448	8.689103	0.003371	0.000332	0.004101	0.815168	0.231138	0.531108	-0.269153	0.963079	-0.006023	-0.512891	-0.138039	0.847283
06911	5.454837	-0.006947	8.701581	0.002942	-0.002166	0.004934	0.815142	0.231152	0.531143	-0.269164	0.963075	-0.006043	-0.512928	-0.138039	0.847261
06912	5.455448	-0.065206	8.689029	0.006780	0.001079	0.002696	0.815180	0.231080	0.531115	-0.269107	0.963092	-0.005988	-0.512897	-0.138046	0.847278
06913	5.461135	-0.020700	8.720432	0.001929	-0.000383	0.003728	0.815166	0.231084	0.531135	-0.269103	0.963093	-0.006009	-0.512921	-0.138032	0.847266
06914	5.448383	-0.039170	8.710808	0.003614	-0.000218	0.005778	0.815120	0.231153	0.531176	-0.269183	0.963070	-0.006024	-0.512952	-0.138073	0.847240
06915	5.488033	-0.053935	8.686490	-0.000244	0.000549	-0.001678	0.815125	0.231106	0.531188	-0.269124	0.963087	-0.006035	-0.512975	-0.138036	0.847232
06916	5.461894	-0.032045	8.679809	0.009234	0.000011	0.004275	0.815128	0.231087	0.531191	-0.269137	0.963083	-0.005977	-0.512963	-0.138091	0.847231
06917	5.468135	-0.045860	8.698698	0.003127	0.000881	0.002422	0.815124	0.231081	0.531201	-0.269129	0.963086	-0.005981	-0.512974	-0.138086	0.847225
06918	5.474383	-0.059826	8.717584	0.005581	-0.000186	0.004001	0.815108	0.231051	0.531239	-0.269106	0.963092	-0.005972	-0.513012	-0.138092	0.847201
06919	5.455206	-0.063766	8.689191	0.005767	0.002861	0.001489	0.815116	0.231038	0.531231	-0.269104	0.963093	-0.005949	-0.513000	-0.138107	0.847206
06920	5.455173	-0.063429	8.689214	0.004908	-0.002135	0.003157	0.815106	0.230980	0.531272	-0.269052	0.963107	-0.005933	-0.513042	-0.138104	0.847181
06921	5.448167	-0.037355	8.710951	0.004812	0.001048	0.004472	0.815098	0.230994	0.531279	-0.269069	0.963103	-0.005934	-0.513047	-0.138114	0.847176
06922	5.455024	-0.063017	8.689311	0.003557	0.003379	0.001588	0.815100	0.230957	0.531291	-0.269032	0.963113	-0.005929	-0.513063	-0.138101	0.847169
06923	5.467726	-0.044290	8.698964	0.004664	-0.001586	0.001479	0.815086	0.230939	0.531321	-0.269024	0.963115	-0.005916	-0.513090	-0.138116	0.847150
06924	5.454989	-0.062395	8.689337	0.007022	0.000529	0.004373	0.815110	0.230867	0.531315	-0.268960	0.963133	-0.005878	-0.513084	-0.138111	0.847154
06925	5.455147	-0.015209	8.661245	0.006779	0.001078	0.002695	0.815106	0.230863	0.531322	-0.268973	0.963130	-0.005853	-0.513084	-0.138141	0.847149
06926	5.454745	-0.061691	8.689495	0.003800	0.002830	0.003265	0.815107	0.230893	0.531308	-0.269014	0.963118	-0.005838	-0.513061	-0.138171	0.847158
06927	5.487399	-0.003677	8.658914	0.004568	0.001597	0.002794	0.815106	0.230891	0.531311	-0.269016	0.963118	-0.005832	-0.513062	-0.138178	0.847156
06928	5.447310	-0.035560	8.711495	0.001833	0.002800	0.005042	0.815089	0.230926	0.531323	-0.269044	0.963110	-0.005858	-0.513075	-0.138175	0.847149
06929	5.447822	-0.047231	8.671033	0.001872	0.003213	-0.000463	0.815104	0.230895	0.531312	-0.269006	0.963121	-0.005857	-0.513070	-0.138152	0.847156
06930	5.453856	-0.061391	8.690056	0.002075	0.002251	0.006719	0.815087	0.230893	0.531340	-0.268983	0.963127	-0.005899	-0.513110	-0.138114	0.847138
06931	5.453717	-0.061415	8.690143	0.003126	0.000881	0.002422	0.815083	0.230886	0.531349	-0.268975	0.963129	-0.005903	-0.513121	-0.138108	0.847132
06932	5.440176	-0.021266	8.693162	0.004716	0.004230	0.005785	0.815105	0.230891	0.531312	-0.268982	0.963127	-0.005889	-0.513081	-0.138113	0.847156
06933	5.453267	-0.061181	8.690426	0.003126	0.000881	0.002421	0.815101	0.230885	0.531321	-0.268974	0.963130	-0.005894	-0.513092	-0.138107	0.847150
06934	5.433320	-0.053683	8.702653	0.004285	0.001733	0.006620	0.815114	0.230878	0.531304	-0.268965	0.963132	-0.005888	-0.513076	-0.138103	0.847161
06935	5.466567	-0.054242	8.659565	0.004568	0.001597	0.002793	0.815113	0.230876	0.531308	-0.268967	0.963131	-0.005882	-0.513077	-0.138110	0.847159
06936	5.466482	-0.054086	8.659620	0.003369	0.000333	0.004099	0.815081	0.230916	0.531339	-0.269017	0.963117	-0.005888	-0.513101	-0.138140	0.847139
06937	5.445811	-0.034553	8.712436	0.008745	0.001108	0.000917	0.815082	0.230896	0.531346	-0.269025	0.963115	-0.005837	-0.513095	-0.138188	0.847135
06938	5.420085	-0.070926	8.693347	0.006009	0.002312	0.003165	0.815061	0.230962	0.531350	-0.269121	0.963089	-0.005809	-0.513079	-0.138262	0.847132
06939	5.452654	-0.059395	8.690824	0.009999	-0.001224	0.003801	0.815042	0.230966	0.531377	-0.269159	0.963079	-0.005763	-0.513089	-0.138328	0.847116
06940	5.452546	-0.000332	8.703020	0.008465	-0.008167	0.004629	0.814989	0.230961	0.531460	-0.269195	0.963069	-0.005721	-0.513154	-0.138404	0.847064
06941	5.440380	-0.018295	8.693041	0.009137	-0.006218	0.005471	0.814940	0.230974	0.531530	-0.269242	0.963056	-0.005690	-0.513207	-0.138473	0.847021
06942	5.421449	-0.010540	8.704633	0.006404	-0.014425	0.007605	0.814850	0.230989	0.531661	-0.269294	0.963041	-0.005677	-0.513323	-0.138548	0.846938
06943	5.461711	-0.013723	8.720086	0.002321	-0.017118	0.008168	0.814738	0.231013	0.531822	-0.269328	0.963031	-0.005718	-0.513483	-0.138576	0.846837
06944	5.457073	-0.105324	8.716074	-0.004552	-0.015012	0.006789	0.814616	0.231105	0.531969	-0.269417	0.963006	-0.005799	-0.513630	-0.138598	0.846744
06945	5.405344	0.054152	8.726613	-0.001089	-0.017862	0.009571	0.814496	0.231142	0.532137	-0.269445	0.962998	-0.005876	-0.513805	-0.138595	0.846638
06946	5.473702	-0.099981	8.683081	-0.003206	-0.020526	0.008357	0.814354	0.231162	0.532346	-0.269456	0.962994	-0.005964	-0.514025	-0.138587	0.846506
06947	5.475685	-0.054024	8.653804	-0.005660	-0.019458	0.006778	0.814233	0.231169	0.532527	-0.269438	0.962999	-0.006066	-0.514225	-0.138544	0.846391
06948	5.424801	-0.104861	8.695615	0.001735	-0.022251	0.006003	0.814116	0.231116	0.532729	-0.269400	0.963009	-0.006089	-0.514430	-0.138560	0.846264
06949	5.486042	-0.127328	8.657943	0.002166	-0.019753	0.005167	0.813999	0.231107	0.532913	-0.269409	0.963006	-0.006116	-0.514612	-0.138593	0.846148
06950	5.434836	-0.119057	8.712148	0.005234	-0.024690	0.003278	0.813861	0.231059	0.533143	-0.269408	0.963007	-0.006098	-0.514829	-0.138670	0.846003
06951	5.462787	-0.035010	8.701800	0.006187	-0.022879	0.000293	0.813741	0.230999	0.533353	-0.269398	0.963010	-0.006065	-0.515025	-0.138749	0.845871
06952	5.451517	-0.041311	8.731462	0.005566	-0.028421	0.003637	0.813591	0.230960	0.533598	-0.269416	0.963005	-0.006037	-0.515252	-0.138848	0.845717
06953	5.493193	0.002216	8.717922	-0.003182	-0.029525	0.002728	0.813429	0.230914	0.533864	-0.269377	0.963015	-0.006096	-0.515527	-0.138852	0.845548
06954	5.442355	0.021341	8.812205	-0.013959	-0.036475	-0.000707	0.813237	0.230812	0.534202	-0.269243	0.963052	-0.006224	-0.515901	-0.138769	0.845334
06955	5.549594	-0.045722	8.917486	-0.084630	-0.056665	-0.008918	0.812966	0.230616	0.534699	-0.268690	0.963202	-0.006909	-0.516616	-0.138051	0.845015
06956	5.381399	0.169480	8.599571	-0.000839	-0.046233	0.005338	0.812701	0.230596	0.535109	-0.268719	0.963193	-0.006951	-0.517017	-0.138145	0.844754
06957	5.412183	-0.124803	8.811668	-0.074943	-0.099402	0.007833	0.812164	0.230503	0.535965	-0.268351	0.963291	-0.007644	-0.518052	-0.137619	0.844206
06958	5.308545	0.062538	8.895406	-0.065499	-0.109355	0.013578	0.811590	0.230444	0.536860	-0.268078	0.963362	-0.008255	-0.519092	-0.137221	0.843631
06959	5.407305	-0.305270	8.714380	-0.112377	-0.128326	0.005141	0.810906	0.230286	0.537958	-0.267491	0.963516	-0.009247	-0.520461	-0.136400	0.842921
06960	5.474312	0.191023	8.784168	-0.051977	-0.125192	0.007497	0.810232	0.230115	0.539046	-0.267189	0.963595	-0.009743	-0.521664	-0.136133	0.842220
06961	5.493519	0.017503	8.838497	-0.093977	-0.160146	0.017203	0.809347	0.230032	0.540409	-0.266793	0.963695	-0.010644	-0.523238	-0.135563	0.841335
06962	5.416761	-0.039307	8.856752	-0.099447	-0.170323	0.020124	0.808385	0.230008	0.541858	-0.266450	0.963779	-0.011595	-0.524899	-0.135005	0.840390
06963	5.425852	-0.059069	8.937458	-0.101989	-0.191661	0.022251	0.807315	0.229933	0.543482	-0.266049	0.963877	-0.012589	-0.526745	-0.134429	0.839326
06964	5.340292	-0.135524	8.944075	-0.114995	-0.226834	0.019874	0.806062	0.229776	0.545405	-0.265548	0.964001	-0.013672	-0.528912	-0.133811	0.838061
06965	5.225749	-0.049940	9.181050	-0.118806	-0.284006	0.019877	0.804501	0.229558	0.547797	-0.265033	0.964126	-0.014792	-0.531540	-0.133284	0.836481
06966	5.106650	-0.159441	9.366610	-0.140446	-0.371566	0.017298	0.802414	0.229286	0.550963	-0.264486	0.964255	-0.016085	-0.534957	-0.132815	0.834375
06967	4.863531	-0.360851	9.719412	-0.165043	-0.497495	-0.005962	0.799755	0.228537	0.555125	-0.263507	0.964500	-0.017444	-0.539404	-0.132329	0.831584
06968	4.796876	-0.596937	9.723926	-0.153161	-0.658097	-0.056496	0.796320	0.227132	0.560612	-0.262236	0.964828	-0.018408	-0.545075	-0.132354	0.827874
06969	4.960667	-0.606465	9.685350	-0.128962	-0.825227	-0.101020	0.792054	0.225031	0.567460	-0.260681	0.965240	-0.018918	-0.551992	-0.132942	0.823183
06970	4.974595	-0.524480	9.574086	-0.094102	-0.983399	-0.142694	0.786934	0.222327	0.575591	-0.259009	0.965690	-0.018895	-0.560043	-0.134214	0.817520
06971	5.217732	-0.705660	9.417888	-0.076820	-1.142400	-0.188843	0.780968	0.218929	0.584944	-0.257050	0.966222	-0.018440	-0.569223	-0.135959	0.810864
06972	5.685999	-0.636699	9.026922	-0.052106	-1.246025	-0.221398	0.774393	0.215011	0.595051	-0.254933	0.966799	-0.017568	-0.579072	-0.138093	0.803496
06973	6.109989	-0.581245	8.790731	-0.058353	-1.272948	-0.249801	0.767588	0.210792	0.605289	-0.252620	0.967424	-0.016549	-0.589060	-0.140205	0.795834
06974	6.132317	-0.420879	8.606538	-0.029691	-1.233722	-0.282217	0.760934	0.206325	0.615150	-0.250286	0.968054	-0.015089	-0.598612	-0.142482	0.788266
06975	6.318839	-0.116623	8.328121	-0.138813	-1.186489	-0.330525	0.754593	0.201396	0.624523	-0.246898	0.968938	-0.014142	-0.607973	-0.143522	0.780878
06976	6.174432	-0.776421	8.471005	-0.306696	-1.101348	-0.390734	0.748786	0.196031	0.633159	-0.242075	0.970155	-0.014085	-0.617024	-0.142725	0.773893
06977	6.033140	-0.448388	8.691793	-0.392626	-0.981134	-0.458434	0.743783	0.190158	0.640802	-0.236169	0.971608	-0.014203	-0.625309	-0.140774	0.767575
06978	5.987854	-0.826835	9.358671	-0.680444	-0.807787	-0.513035	0.739852	0.184093	0.647092	-0.228123	0.973499	-0.016128	-0.632912	-0.135685	0.762241
06979	4.199532	-1.225252	9.418886	-0.713543	-0.528406	-0.564605	0.737751	0.177858	0.651222	-0.219369	0.975478	-0.017900	-0.638436	-0.129653	0.758676
06980	3.570845	-1.260895	9.951539	-0.826783	-0.360359	-0.601863	0.736696	0.171525	0.654109	-0.209611	0.977575	-0.020271	-0.642918	-0.122175	0.756129
06981	2.520359	-1.154228	10.343025	-0.915415	-0.101493	-0.588311	0.737238	0.165617	0.655020	-0.199330	0.979654	-0.023348	-0.645560	-0.113352	0.755251
06982	1.694369	-1.734047	10.659896	-1.046833	0.134242	-0.524534	0.739052	0.160687	0.654203	-0.188758	0.981628	-0.027871	-0.646662	-0.102887	0.755806
06983	0.997552	-2.488045	10.850362	-1.073507	0.398018	-0.396778	0.742346	0.157145	0.651327	-0.178835	0.983311	-0.033418	-0.645709	-0.091672	0.758061
06984	0.947941	-3.351172	11.042484	-1.024242	0.629725	-0.171459	0.746668	0.156078	0.646627	-0.171027	0.984449	-0.040131	-0.642834	-0.080626	0.761750
06985	1.298755	-4.281803	11.265527	-0.876321	0.890027	0.189457	0.752039	0.158586	0.639756	-0.166789	0.984821	-0.048060	-0.637667	-0.070561	0.767074
06986	3.250782	-5.447031	11.341007	-0.699363	1.117076	0.524652	0.758160	0.164692	0.630928	-0.166542	0.984395	-0.056832	-0.630442	-0.061989	0.773757
06987	2.940778	-5.115682	11.265023	-0.224831	1.536120	0.738790	0.766504	0.172846	0.618543	-0.170723	0.983289	-0.063210	-0.619132	-0.057149	0.783205
06988	2.425750	-3.757935	10.973472	0.050508	1.755760	0.871235	0.775681	0.182484	0.604167	-0.177797	0.981698	-0.068243	-0.605563	-0.054484	0.793930
06989	2.591819	-2.233428	10.807086	0.137042	1.852461	0.973141	0.784986	0.192988	0.588687	-0.186165	0.979805	-0.072966	-0.590881	-0.052315	0.805061
06990	3.336245	-2.041976	10.572811	0.061888	1.876779	1.059701	0.793860	0.204366	0.572731	-0.194862	0.977663	-0.078759	-0.576034	-0.049080	0.815951
06991	4.196551	-2.336832	10.281188	0.059721	1.904824	1.101556	0.802485	0.215996	0.556205	-0.203949	0.975328	-0.084503	-0.560734	-0.045625	0.826738
06992	4.740719	-2.153939	10.093867	0.089599	1.926096	1.095005	0.810831	0.227553	0.539234	-0.213235	0.972856	-0.089903	-0.545055	-0.042087	0.837343
06993	5.060162	-1.782849	9.789315	0.074106	1.892532	1.039875	0.818731	0.238389	0.522350	-0.222061	0.970412	-0.094817	-0.529498	-0.038364	0.847443
06994	5.498988	-1.480004	9.482257	-0.006405	1.812062	0.950414	0.825992	0.248332	0.506032	-0.229843	0.968086	-0.099910	-0.514693	-0.033784	0.856708
06995	5.877196	-1.367942	9.087590	-0.120931	1.719376	0.837696	0.832766	0.256938	0.490391	-0.236133	0.966015	-0.105144	-0.500741	-0.028237	0.865137
06996	5.904761	-1.378317	8.567446	-0.208807	1.595721	0.730253	0.838872	0.264426	0.475787	-0.241164	0.964157	-0.110644	-0.487990	-0.021927	0.872574
06997	6.000387	-1.330267	8.019712	-0.302466	1.449232	0.630442	0.844326	0.270740	0.462400	-0.244968	0.962534	-0.116271	-0.476555	-0.015102	0.879015
06998	4.677344	-4.300277	8.525103	-0.464846	1.174868	0.550232	0.848471	0.276242	0.451428	-0.247444	0.961060	-0.123022	-0.467833	-0.007322	0.883787
06999	8.055193	-4.033395	1.799618	1.373783	0.339242	0.056271	0.849904	0.276801	0.448379	-0.254264	0.960728	-0.111135	-0.461533	-0.019553	0.886908
07000	9.275164	3.415925	5.133945	0.515378	0.091674	0.026791	0.850238	0.277136	0.447539	-0.256852	0.960528	-0.106833	-0.459481	-0.024118	0.887860
07001	12.446006	1.700956	3.573533	0.437102	0.075106	0.247317	0.849940	0.279502	0.446632	-0.260916	0.959735	-0.104078	-0.457739	-0.028073	0.888644
07002	11.620686	0.814070	1.249466	0.494239	-0.213091	0.202752	0.848391	0.281344	0.448418	-0.264784	0.959030	-0.100748	-0.458391	-0.033260	0.888128
07003	11.768950	2.036695	-0.085613	0.888176	-0.516403	0.079943	0.845803	0.281885	0.452944	-0.269499	0.958475	-0.093249	-0.460421	-0.043198	0.886649
07004	13.684401	3.404835	-1.261862	1.087573	-0.959585	-0.008923	0.841366	0.281230	0.461534	-0.274293	0.957996	-0.083713	-0.465690	-0.056162	0.883164
07005	14.678147	5.182727	-0.200923	1.396616	-1.346258	-0.082144	0.835272	0.279543	0.473473	-0.280118	0.957333	-0.071053	-0.473133	-0.073280	0.877938
07006	8.360333	11.025870	12.558224	0.984687	-1.151546	-0.369230	0.830804	0.274974	0.483894	-0.281560	0.957618	-0.060754	-0.480091	-0.085770	0.873015
07007	8.878318	4.363696	13.558530	-0.004713	-0.861917	-0.551249	0.828173	0.268913	0.491747	-0.276922	0.959133	-0.058127	-0.487282	-0.088036	0.868796
07008	2.658315	0.287925	8.775760	0.505996	-0.665528	-0.367290	0.825931	0.264628	0.497805	-0.276164	0.959704	-0.051973	-0.491499	-0.094550	0.865731
07009	5.613709	-4.488452	8.962867	-0.394794	-1.492841	-0.180534	0.818987	0.261453	0.510786	-0.272669	0.960564	-0.054485	-0.504888	-0.094653	0.857980
07010	8.522980	-1.287793	9.413673	0.677850	-1.012029	-0.199320	0.814375	0.258318	0.519678	-0.274202	0.960487	-0.047737	-0.511475	-0.103621	0.853028
07011	9.452518	3.341517	10.568417	0.443088	-1.013204	-0.196837	0.809695	0.255313	0.528403	-0.274842	0.960529	-0.042956	-0.518513	-0.110446	0.847907
07012	10.726412	2.257448	9.738079	0.446741	0.073204	0.038203	0.809938	0.255600	0.527891	-0.277257	0.959987	-0.039424	-0.516845	-0.114430	0.848397
07013	4.517991	1.198908	8.625063	0.179361	-0.309710	0.068277	0.808142	0.255868	0.530508	-0.278694	0.959616	-0.038284	-0.518880	-0.116910	0.846815
07014	5.786206	-1.820616	8.752315	0.196158	-0.015712	0.109644	0.807734	0.256706	0.530724	-0.280354	0.959173	-0.037258	-0.518621	-0.118695	0.846725
07015	5.677507	0.728268	8.950325	0.273317	-0.131669	0.080894	0.806821	0.257293	0.531828	-0.282381	0.958649	-0.035394	-0.518943	-0.121622	0.846113
07016	5.498067	-0.770074	8.873016	0.179366	-0.148631	0.084611	0.805757	0.257853	0.533168	-0.283920	0.958233	-0.034348	-0.519756	-0.123701	0.845312
07017	5.566795	-0.695297	8.674578	0.203541	-0.128511	0.079259	0.804860	0.258422	0.534246	-0.285572	0.957786	-0.033070	-0.520239	-0.125949	0.844682
07018	5.789378	-0.579101	8.555148	0.207461	-0.095091	0.063150	0.804148	0.258811	0.535129	-0.287051	0.957391	-0.031678	-0.520526	-0.128136	0.844176
07019	5.657553	-0.568487	8.624575	0.183672	-0.063512	0.057783	0.803649	0.259252	0.535665	-0.288428	0.957017	-0.030456	-0.520536	-0.130025	0.843881
07020	5.741302	-0.292911	8.577890	0.185070	-0.040253	0.057985	0.803264	0.259654	0.536047	-0.289739	0.956659	-0.029219	-0.520401	-0.131843	0.843682
07021	5.637071	-0.084992	8.666017	0.132457	-0.023470	0.052382	0.802988	0.260093	0.536248	-0.290805	0.956361	-0.028401	-0.520234	-0.133138	0.843582
07022	5.566829	-0.072166	8.692036	0.090145	-0.018588	0.053776	0.802700	0.260510	0.536477	-0.291624	0.956125	-0.027948	-0.520220	-0.134016	0.843452
07023	5.490020	-0.024499	8.780647	0.064947	-0.017450	0.056515	0.802441	0.260997	0.536627	-0.292372	0.955903	-0.027722	-0.520199	-0.134649	0.843364
07024	5.418748	-0.064318	8.834363	0.021431	-0.039530	0.058046	0.802064	0.261377	0.537006	-0.292805	0.955766	-0.027871	-0.520537	-0.134884	0.843118
07025	5.435030	-0.118184	8.788196	0.014180	-0.056531	0.061870	0.801586	0.261861	0.537484	-0.293331	0.955598	-0.028102	-0.520977	-0.135134	0.842806
07026	5.473622	-0.110831	8.781971	0.006694	-0.072978	0.064029	0.800987	0.262326	0.538149	-0.293827	0.955437	-0.028402	-0.521618	-0.135373	0.842371
07027	5.467253	-0.143776	8.727397	-0.002930	-0.088456	0.060841	0.800344	0.262757	0.538895	-0.294255	0.955294	-0.028772	-0.522364	-0.135545	0.841881
07028	5.549780	-0.286115	8.688688	-0.027223	-0.101264	0.057916	0.799637	0.263088	0.539783	-0.294478	0.955208	-0.029324	-0.523320	-0.135506	0.841293
07029	5.568824	-0.413973	8.585990	-0.026210	-0.109428	0.056444	0.798895	0.263449	0.540705	-0.294748	0.955108	-0.029867	-0.524300	-0.135511	0.840682
07030	5.515386	-0.487379	8.673560	-0.007931	-0.091643	0.047902	0.798267	0.263697	0.541511	-0.294991	0.955023	-0.030203	-0.525120	-0.135631	0.840151
07031	5.610324	-0.622075	8.603741	-0.004521	-0.084186	0.043649	0.797693	0.263969	0.542224	-0.295271	0.954927	-0.030495	-0.525834	-0.135777	0.839681
07032	5.535168	-0.506880	8.683234	0.008181	-0.069713	0.035324	0.797232	0.264148	0.542814	-0.295528	0.954844	-0.030611	-0.526388	-0.136013	0.839295
07033	5.566018	-0.541511	8.645381	0.026253	-0.064942	0.030779	0.796796	0.264323	0.543368	-0.295867	0.954740	-0.030576	-0.526857	-0.136402	0.838938
07034	5.605901	-0.495761	8.570322	0.035268	-0.060966	0.029151	0.796382	0.264464	0.543907	-0.296227	0.954632	-0.030439	-0.527281	-0.136879	0.838593
07035	5.613825	-0.388763	8.551964	0.038706	-0.039966	0.019277	0.796111	0.264563	0.544255	-0.296541	0.954541	-0.030237	-0.527513	-0.137321	0.838375
07036	5.636950	-0.169313	8.677953	0.046042	-0.036128	0.015633	0.795880	0.264591	0.544580	-0.296827	0.954462	-0.029938	-0.527702	-0.137819	0.838175
07037	5.641893	-0.322406	8.588516	0.012683	-0.042912	0.012918	0.795612	0.264624	0.544954	-0.296952	0.954424	-0.029920	-0.528034	-0.138021	0.837932
07038	5.586733	-0.308677	8.583090	0.020973	-0.030919	0.008946	0.795420	0.264598	0.545247	-0.297055	0.954395	-0.029798	-0.528266	-0.138267	0.837746
07039	5.611187	-0.245481	8.621868	0.016624	-0.036162	0.006553	0.795207	0.264580	0.545566	-0.297151	0.954368	-0.029712	-0.528532	-0.138488	0.837541
07040	5.606583	-0.276858	8.629301	0.011054	-0.035870	0.002637	0.795004	0.264503	0.545900	-0.297174	0.954363	-0.029635	-0.528826	-0.138667	0.837326
07041	5.592410	-0.221031	8.611287	0.013751	-0.043904	0.003204	0.794759	0.264442	0.546286	-0.297228	0.954349	-0.029555	-0.529163	-0.138882	0.837077
07042	5.582723	-0.226143	8.640164	0.012550	-0.041553	0.000366	0.794536	0.264327	0.546666	-0.297228	0.954352	-0.029455	-0.529497	-0.139081	0.836833
07043	5.530466	-0.153870	8.646660	0.010590	-0.051496	0.003638	0.794250	0.264259	0.547114	-0.297269	0.954341	-0.029404	-0.529903	-0.139286	0.836542
07044	5.540547	-0.191702	8.581195	-0.005448	-0.059044	-0.000311	0.793944	0.264103	0.547634	-0.297157	0.954374	-0.029449	-0.530425	-0.139352	0.836200
07045	5.540688	-0.344109	8.621746	-0.004986	-0.070099	0.004489	0.793556	0.264018	0.548237	-0.297122	0.954383	-0.029533	-0.531025	-0.139457	0.835801
07046	5.566237	-0.352423	8.605248	0.005546	-0.074998	-0.000743	0.793164	0.263845	0.548887	-0.297077	0.954398	-0.029482	-0.531636	-0.139678	0.835376
07047	5.556634	-0.439489	8.538757	0.018482	-0.077826	-0.003137	0.792757	0.263675	0.549557	-0.297106	0.954394	-0.029328	-0.532227	-0.140027	0.834942
07048	5.572563	-0.357516	8.496813	0.044832	-0.077810	-0.007430	0.792378	0.263403	0.550233	-0.297175	0.954385	-0.028920	-0.532751	-0.140600	0.834510
07049	5.593762	-0.323189	8.542291	0.048055	-0.086141	-0.014468	0.791959	0.263113	0.550974	-0.297272	0.954369	-0.028456	-0.533319	-0.141253	0.834037
07050	5.573747	-0.353759	8.519104	0.055614	-0.086042	-0.017821	0.791558	0.262755	0.551721	-0.297352	0.954360	-0.027896	-0.533870	-0.141974	0.833562
07051	5.558855	-0.443928	8.542841	0.070804	-0.098590	-0.029766	0.791117	0.262299	0.552569	-0.297450	0.954351	-0.027159	-0.534468	-0.142875	0.833025
07052	5.538655	-0.517771	8.547582	0.087893	-0.101593	-0.039576	0.790696	0.261711	0.553450	-0.297533	0.954352	-0.026210	-0.535045	-0.143945	0.832470
07053	5.479986	-0.597278	8.495853	0.092625	-0.124780	-0.058313	0.790199	0.260943	0.554522	-0.297523	0.954384	-0.025134	-0.535785	-0.145122	0.831790
07054	5.523975	-0.406542	8.613089	0.142098	-0.128341	-0.076280	0.789739	0.259972	0.555631	-0.297621	0.954394	-0.023527	-0.536408	-0.146787	0.831096
07055	5.337900	-0.516966	8.764958	0.149170	-0.156219	-0.089444	0.789164	0.258857	0.556968	-0.297671	0.954419	-0.021808	-0.537226	-0.148583	0.830248
07056	5.479613	-0.408690	8.654135	0.200765	-0.196534	-0.105861	0.788420	0.257507	0.558645	-0.297868	0.954407	-0.019551	-0.538209	-0.150988	0.829176
07057	5.481312	-0.340214	8.777668	0.205009	-0.216770	-0.114272	0.787589	0.256056	0.560480	-0.298027	0.954402	-0.017230	-0.539335	-0.153468	0.827988
07058	5.456998	-0.452348	8.646519	0.224062	-0.243017	-0.128346	0.786658	0.254407	0.562535	-0.298173	0.954399	-0.014657	-0.540612	-0.156203	0.826643
07059	5.584421	-0.016893	8.711844	0.241857	-0.283993	-0.135547	0.785522	0.252634	0.564917	-0.298372	0.954375	-0.011912	-0.542152	-0.159198	0.825062
07060	5.571817	0.107129	8.622447	0.220941	-0.300624	-0.128612	0.784274	0.250872	0.567430	-0.298502	0.954363	-0.009369	-0.543885	-0.162031	0.823368
07061	5.644607	0.020980	8.696124	0.179978	-0.347772	-0.116125	0.782723	0.249165	0.570318	-0.298528	0.954373	-0.007245	-0.546101	-0.164585	0.821392
07062	5.638871	-0.176534	8.716289	0.172334	-0.370409	-0.126120	0.781071	0.247300	0.573386	-0.298433	0.954417	-0.005110	-0.548512	-0.167126	0.819270
07063	5.431959	-0.228575	8.756876	0.199321	-0.417657	-0.141584	0.779194	0.245213	0.576825	-0.298380	0.954443	-0.002681	-0.551204	-0.170024	0.816863
07064	5.659697	-0.182878	9.089158	0.198306	-0.458817	-0.151733	0.777110	0.242926	0.580593	-0.298231	0.954494	-0.000194	-0.554219	-0.173000	0.814194
07065	5.392592	-0.329665	9.176018	0.211374	-0.534360	-0.172134	0.774649	0.240318	0.584950	-0.298026	0.954554	0.002512	-0.557763	-0.176276	0.811065
07066	5.405967	-0.039759	9.285616	0.239233	-0.642980	-0.191341	0.771619	0.237298	0.590164	-0.297827	0.954604	0.005564	-0.562052	-0.180060	0.807264
07067	5.448559	0.755427	9.460834	0.229239	-0.751544	-0.204197	0.767981	0.233948	0.596216	-0.297504	0.954682	0.008606	-0.567183	-0.183986	0.802778
07068	5.112902	1.001849	10.082390	0.164100	-0.935073	-0.183813	0.763190	0.230413	0.603698	-0.296982	0.954820	0.011017	-0.573885	-0.187695	0.797137
07069	4.614312	0.576598	10.873014	0.055902	-1.231591	-0.170546	0.756567	0.226420	0.613466	-0.295964	0.955118	0.012484	-0.583106	-0.191009	0.789622
07070	4.129344	0.123825	11.316087	0.028349	-1.575595	-0.202242	0.747885	0.221405	0.625818	-0.294554	0.955533	0.013955	-0.594900	-0.194774	0.779844
07071	3.826711	-0.238232	11.612908	0.001560	-1.975218	-0.305074	0.736880	0.214566	0.641069	-0.292252	0.956209	0.015887	-0.609587	-0.199061	0.767319
07072	3.758243	-0.352243	11.941298	0.073599	-2.413323	-0.450341	0.723266	0.205352	0.659331	-0.289367	0.957022	0.019357	-0.627019	-0.204789	0.751604
07073	3.484528	0.170099	12.274869	0.171550	-2.929971	-0.598489	0.706310	0.193479	0.680949	-0.286136	0.957872	0.024630	-0.647497	-0.212241	0.731916
07074	3.377155	0.671559	12.034696	0.309874	-3.469856	-0.787055	0.685666	0.178392	0.705718	-0.282667	0.958674	0.032301	-0.670792	-0.221631	0.707756
07075	3.650778	-1.227652	11.890143	0.260658	-4.197460	-0.956640	0.659603	0.159677	0.734457	-0.277969	0.959715	0.040989	-0.698324	-0.231193	0.677416
07076	5.038769	-2.853678	12.077183	0.435243	-5.002302	-1.108824	0.626933	0.137168	0.766903	-0.273928	0.960334	0.052167	-0.729328	-0.242781	0.639639
07077	8.478472	-2.923793	12.360732	0.597875	-5.607106	-1.272349	0.588574	0.110940	0.800796	-0.270604	0.960437	0.065834	-0.761810	-0.255446	0.595309
07078	14.483840	-2.854555	13.564190	0.596552	-5.790878	-1.317225	0.547018	0.083187	0.832977	-0.267787	0.960154	0.079968	-0.793134	-0.266804	0.547498
07079	15.433359	-2.233538	12.684491	0.845850	-5.373750	-1.316141	0.507200	0.055864	0.860016	-0.267621	0.958775	0.095552	-0.819224	-0.278622	0.501241
07080	14.033545	-0.292595	12.196219	0.697191	-5.157234	-1.236646	0.467586	0.029445	0.883457	-0.267446	0.957314	0.109644	-0.842518	-0.287545	0.455502
07081	11.435049	-1.327014	11.155778	0.282908	-4.959262	-1.199322	0.428441	0.003581	0.903563	-0.264439	0.956706	0.121597	-0.864008	-0.291034	0.410839
07082	7.655337	-1.464885	9.830348	0.118045	-4.733061	-1.267028	0.390407	-0.022259	0.920373	-0.260322	0.956241	0.133551	-0.883071	-0.291733	0.367528
07083	4.567598	-2.231306	7.812602	-0.054923	-4.491091	-1.384545	0.353915	-0.048589	0.934015	-0.254632	0.955921	0.146213	-0.899948	-0.289577	0.325943
07084	0.897077	-2.639732	5.074682	0.124114	-4.185538	-1.541779	0.319864	-0.075327	0.944464	-0.250630	0.954598	0.161017	-0.913713	-0.288215	0.286463
07085	2.783911	-2.202194	3.982782	0.192347	-3.719138	-1.236203	0.288750	-0.097847	0.952391	-0.248590	0.952984	0.173276	-0.924568	-0.286789	0.250850
07086	25.799958	-1.361156	11.499739	-0.298083	-1.843214	-0.306099	0.272438	-0.105905	0.956327	-0.245050	0.953512	0.175402	-0.930445	-0.282134	0.233821
07087	10.177516	-6.849510	10.572999	0.485496	1.070435	0.469831	0.281198	-0.098410	0.954591	-0.250812	0.952617	0.172089	-0.926294	-0.287814	0.243192
07088	-0.433902	-6.892322	5.417984	0.954953	1.939882	0.741077	0.297227	-0.085516	0.950969	-0.261890	0.950482	0.167327	-0.918188	-0.298783	0.260113
07089	-7.133065	-3.358145	2.488886	1.979035	1.575018	0.672572	0.309769	-0.074312	0.947903	-0.281958	0.944918	0.166220	-0.908043	-0.318759	0.271754
07090	-4.082724	1.498282	3.791967	1.470488	0.843901	0.735137	0.315312	-0.064445	0.946797	-0.297710	0.940608	0.163170	-0.901081	-0.333321	0.277399
07091	0.269028	2.603809	5.487319	0.900645	0.676293	0.874475	0.318728	-0.053980	0.946308	-0.308531	0.938096	0.157429	-0.896226	-0.342142	0.282343
07092	3.082983	1.395527	6.654875	0.241116	1.062999	1.012646	0.325119	-0.040648	0.944799	-0.314096	0.937717	0.148428	-0.891988	-0.345014	0.292102
07093	3.388092	-1.574595	6.645754	0.175178	1.671708	1.031769	0.336704	-0.025221	0.941273	-0.319022	0.937464	0.139237	-0.885921	-0.347168	0.307601
07094	2.419331	-1.861986	6.426156	0.465524	2.154831	0.967809	0.352609	-0.008422	0.935733	-0.326622	0.935962	0.131504	-0.876918	-0.352000	0.327278
07095	2.420448	-0.721956	6.620536	0.591803	2.437608	0.938433	0.370741	0.008966	0.928693	-0.335129	0.933874	0.124769	-0.866164	-0.357489	0.349230
07096	3.330624	0.189749	7.141748	0.480472	2.636635	0.994463	0.390082	0.027949	0.920356	-0.343222	0.931917	0.117170	-0.854421	-0.361592	0.373117
07097	4.606883	-0.188953	7.727643	0.294697	2.844026	1.098663	0.410391	0.048455	0.910621	-0.350074	0.930445	0.108259	-0.842038	-0.363213	0.398809
07098	5.840947	-1.086950	8.339917	0.203280	3.056476	1.213272	0.431654	0.071085	0.899234	-0.357068	0.928927	0.097969	-0.828359	-0.363376	0.426357
07099	6.998089	-1.650358	9.018129	0.281698	3.289721	1.325648	0.453856	0.095306	0.885963	-0.365204	0.926817	0.087384	-0.812798	-0.363217	0.455448
07100	7.805393	-1.652932	9.545058	0.394028	3.509155	1.417400	0.476831	0.121443	0.870565	-0.375173	0.923782	0.076625	-0.794907	-0.363150	0.486050
07101	19.447363	2.601766	10.991391	0.631730	3.183731	1.191390	0.497317	0.143982	0.855538	-0.385897	0.919920	0.069502	-0.777020	-0.364714	0.513054
07102	6.595510	-1.576382	8.066258	-0.019105	5.336871	1.196407	0.533401	0.174506	0.827666	-0.392128	0.918006	0.059160	-0.749479	-0.356107	0.558094
07103	5.716834	2.106387	7.423305	0.630866	3.582886	0.639200	0.557326	0.193077	0.807533	-0.400230	0.914606	0.057545	-0.727464	-0.355270	0.587009
07104	11.239810	0.576258	9.226165	-0.095762	3.425269	0.705834	0.579062	0.211866	0.787274	-0.403767	0.913430	0.051166	-0.708279	-0.347504	0.614477
07105	8.715701	0.083617	7.992384	-0.045647	3.318302	0.711559	0.599356	0.229733	0.766808	-0.407597	0.912035	0.045346	-0.688939	-0.339727	0.640272
07106	8.594609	-2.085191	8.480966	-0.155580	3.031999	0.791056	0.616706	0.247417	0.747301	-0.411564	0.910581	0.038166	-0.671035	-0.331099	0.663389
07107	8.384434	-1.881444	8.852769	-0.092942	2.855944	0.927819	0.631778	0.265165	0.728385	-0.416698	0.908527	0.030685	-0.653621	-0.322902	0.684481
07108	10.871241	-1.545918	9.836983	-0.228835	2.787869	1.055287	0.645295	0.283926	0.709211	-0.422185	0.906259	0.021324	-0.636674	-0.313179	0.704674
07109	9.988520	-1.556446	9.582266	-0.268758	2.998980	1.072435	0.659557	0.302828	0.687954	-0.427454	0.903959	0.011899	-0.618279	-0.301916	0.725657
07110	8.279127	-1.080403	9.089014	-0.378972	3.033544	0.983379	0.673747	0.320994	0.665603	-0.431931	0.901904	0.002264	-0.599583	-0.289020	0.746303
07111	7.730611	-0.101714	9.047970	-0.558510	2.926494	0.853181	0.687343	0.336899	0.643474	-0.434396	0.900690	-0.007557	-0.582116	-0.274328	0.765431
07112	7.965637	0.330737	9.195063	-0.825899	2.844039	0.723362	0.700456	0.351292	0.621253	-0.434906	0.900281	-0.018720	-0.565879	-0.257074	0.783386
07113	7.989052	0.381869	9.309693	-1.055100	2.840726	0.563071	0.713868	0.363360	0.598633	-0.432958	0.900897	-0.030528	-0.550400	-0.237390	0.800441
07114	7.609707	0.522791	9.126053	-1.238346	2.867237	0.347215	0.727857	0.373298	0.575215	-0.428966	0.902307	-0.042772	-0.534988	-0.215616	0.816883
07115	7.144091	1.056352	9.017777	-1.409441	2.868908	0.103694	0.742550	0.380056	0.551523	-0.422254	0.904808	-0.054999	-0.519925	-0.192044	0.832345
07116	6.809117	1.418328	8.755017	-1.656984	2.839642	-0.146139	0.757641	0.384116	0.527669	-0.412882	0.908219	-0.068310	-0.505478	-0.166110	0.846699
07117	6.600770	1.334305	8.475807	-1.881782	2.802954	-0.379432	0.773162	0.384900	0.504057	-0.400554	0.912557	-0.082432	-0.491709	-0.138169	0.859728
07118	6.563745	1.158849	8.429799	-2.042978	2.753486	-0.564980	0.788663	0.383413	0.480630	-0.386444	0.917143	-0.097519	-0.478196	-0.108827	0.871484
07119	6.787220	0.869435	8.440325	-2.162744	2.710321	-0.662252	0.803952	0.379839	0.457585	-0.370932	0.921710	-0.113399	-0.464834	-0.078566	0.881905
07120	7.292654	0.706032	8.622268	-2.204259	2.690759	-0.647396	0.818555	0.375825	0.434423	-0.355785	0.925449	-0.130233	-0.450981	-0.047958	0.891244
07121	7.606901	0.594496	8.250664	-2.181302	2.694514	-0.518790	0.832321	0.371877	0.411036	-0.341786	0.928115	-0.147600	-0.436377	-0.017635	0.899591
07122	2.073781	-11.490847	5.055880	-1.704022	1.517544	-0.563519	0.840717	0.366986	0.398142	-0.329881	0.930218	-0.160850	-0.429388	0.003890	0.903112
07123	13.966294	5.710940	-1.894356	2.706901	0.936159	-1.180944	0.848562	0.356019	0.391400	-0.331264	0.934307	-0.131663	-0.412562	-0.017932	0.910753
07124	15.337250	10.079962	2.021226	0.167537	0.103938	-0.716343	0.851282	0.349572	0.391304	-0.326047	0.936716	-0.127503	-0.411112	-0.019042	0.911386
07125	18.476459	6.909499	-2.649037	0.639705	0.131204	-0.365687	0.853010	0.346150	0.390582	-0.325513	0.937858	-0.120267	-0.407940	-0.024551	0.912678
07126	15.307552	3.408852	-7.633811	0.675367	-0.786910	-0.292215	0.850696	0.343328	0.398049	-0.325901	0.938617	-0.113078	-0.412438	-0.033530	0.910368
07127	18.789976	2.464822	-10.404598	1.212478	-1.816979	-0.294726	0.844061	0.339769	0.414871	-0.328437	0.939120	-0.100906	-0.423898	-0.051088	0.904268
07128	28.476189	5.899441	-13.518270	1.832642	-3.017359	-0.085914	0.831241	0.337095	0.442047	-0.335717	0.938196	-0.084152	-0.443094	-0.078452	0.893036
07129	19.753727	10.376583	-0.001038	1.305400	-3.261240	-0.247177	0.817256	0.331816	0.471159	-0.339573	0.937860	-0.071481	-0.465600	-0.101575	0.879147
07130	29.645078	6.953330	26.052446	-0.674064	-3.778116	-1.024295	0.802460	0.318219	0.504772	-0.327993	0.941904	-0.072370	-0.498477	-0.107487	0.860214
07131	15.257399	3.639319	13.194319	2.283606	0.292016	-0.658949	0.806080	0.312333	0.502676	-0.333925	0.941304	-0.049397	-0.488599	-0.128038	0.863063
07132	-5.881788	5.013213	6.412584	0.164307	-1.345907	-0.224140	0.800194	0.308378	0.514385	-0.332851	0.941816	-0.046833	-0.498898	-0.133738	0.856279
07133	19.075271	-1.801188	13.782824	-0.623628	-2.711534	-0.273401	0.787246	0.302117	0.537559	-0.327456	0.943505	-0.050712	-0.522510	-0.136104	0.841700
07134	11.562452	3.295870	8.432107	1.846061	1.117442	-0.036656	0.793138	0.303275	0.528164	-0.336579	0.941008	-0.034896	-0.507590	-0.150092	0.848425
07135	3.344954	4.457281	9.925669	-0.329397	-1.028655	0.058522	0.787670	0.302256	0.536859	-0.335315	0.941339	-0.038015	-0.516856	-0.150074	0.842815
07136	7.242601	-5.132364	7.897923	0.014007	-0.043994	0.173400	0.786881	0.303699	0.537202	-0.336636	0.940836	-0.038792	-0.517199	-0.150317	0.842561
07137	5.718755	1.542530	8.809351	0.613343	-0.143114	0.019586	0.786073	0.303638	0.538417	-0.339919	0.939849	-0.033752	-0.516279	-0.156487	0.842002
07138	5.757753	-1.731837	8.595961	-0.020288	-0.167004	0.055104	0.785041	0.303778	0.539842	-0.340136	0.939755	-0.034188	-0.517705	-0.156780	0.841072
07139	5.531998	-0.912859	8.632078	0.246214	-0.080541	0.037287	0.784495	0.303975	0.540524	-0.341663	0.939266	-0.032341	-0.517527	-0.159306	0.840707
07140	5.737922	-0.395364	8.660385	0.238313	-0.068262	0.023070	0.784080	0.303972	0.541128	-0.342970	0.938853	-0.030434	-0.517290	-0.161728	0.840390
07141	5.398489	-0.262647	8.713779	0.176147	-0.069053	0.022984	0.783642	0.304050	0.541718	-0.344022	0.938511	-0.029100	-0.517256	-0.163559	0.840056
07142	5.587979	-0.347216	8.680017	0.190225	-0.088664	0.027039	0.783108	0.304048	0.542492	-0.345112	0.938155	-0.027621	-0.517339	-0.165590	0.839607
07143	5.640312	-0.075911	8.695034	0.169671	-0.081405	0.026836	0.782592	0.304138	0.543185	-0.346160	0.937805	-0.026363	-0.517420	-0.167397	0.839199
07144	5.622466	-0.053142	8.643025	0.157124	-0.085750	0.029935	0.782062	0.304165	0.543933	-0.347102	0.937489	-0.025180	-0.517590	-0.169108	0.838751
07145	5.654007	0.019866	8.676522	0.131859	-0.087800	0.042482	0.781458	0.304388	0.544676	-0.348076	0.937150	-0.024327	-0.517848	-0.170579	0.838294
07146	5.736876	0.162415	8.685198	0.123765	-0.083723	0.049085	0.780871	0.304594	0.545402	-0.348995	0.936829	-0.023529	-0.518115	-0.171970	0.837844
07147	5.729878	0.065049	8.640778	0.090300	-0.080048	0.054313	0.780264	0.304939	0.546077	-0.349847	0.936522	-0.023090	-0.518454	-0.173027	0.837417
07148	5.727379	-0.049237	8.616430	0.059025	-0.066530	0.056125	0.779741	0.305238	0.546658	-0.350484	0.936289	-0.022873	-0.518812	-0.173760	0.837044
07149	5.723703	-0.079534	8.623623	0.046776	-0.057727	0.058889	0.779233	0.305662	0.547145	-0.351146	0.936043	-0.022825	-0.519127	-0.174342	0.836727
07150	5.644634	-0.231982	8.658299	0.019352	-0.054007	0.053499	0.778782	0.305957	0.547621	-0.351556	0.935886	-0.022927	-0.519525	-0.174665	0.836413
07151	5.643750	-0.219024	8.635950	0.026691	-0.053612	0.048484	0.778331	0.306290	0.548075	-0.352032	0.935706	-0.022990	-0.519879	-0.175047	0.836113
07152	5.648375	-0.219063	8.632925	0.031823	-0.055821	0.042368	0.777910	0.306478	0.548569	-0.352421	0.935561	-0.022927	-0.520246	-0.175492	0.835791
07153	5.553090	-0.084731	8.661261	0.024464	-0.072787	0.042832	0.777378	0.306725	0.549184	-0.352841	0.935401	-0.022978	-0.520755	-0.175912	0.835385
07154	5.584314	-0.195504	8.633224	0.000592	-0.093079	0.043086	0.776759	0.306853	0.549988	-0.353073	0.935309	-0.023182	-0.521522	-0.176179	0.834851
07155	5.589583	-0.400817	8.636738	0.022693	-0.103160	0.038373	0.776083	0.307004	0.550857	-0.353449	0.935165	-0.023224	-0.522272	-0.176676	0.834276
07156	5.539770	-0.312524	8.618180	0.030559	-0.100319	0.032465	0.775462	0.307021	0.551722	-0.353756	0.935052	-0.023120	-0.522987	-0.177246	0.833708
07157	5.674283	-0.291704	8.498228	0.046146	-0.108571	0.028133	0.774792	0.307064	0.552638	-0.354175	0.934898	-0.022911	-0.523695	-0.177979	0.833107
07158	5.602309	-0.322745	8.491094	0.051945	-0.112064	0.021521	0.774146	0.306958	0.553602	-0.354510	0.934780	-0.022571	-0.524424	-0.178784	0.832476
07159	5.590343	-0.427397	8.536949	0.057737	-0.115559	0.014901	0.773485	0.306863	0.554577	-0.354888	0.934645	-0.022193	-0.525143	-0.179647	0.831836
07160	5.524525	-0.555678	8.518489	0.079555	-0.131289	0.000607	0.772810	0.306526	0.555704	-0.355208	0.934540	-0.021508	-0.525920	-0.180769	0.831102
07161	5.372665	-0.474147	8.641356	0.104111	-0.137690	-0.024662	0.772171	0.306019	0.556870	-0.355525	0.934441	-0.020526	-0.526644	-0.182131	0.830346
07162	5.399043	-0.543507	8.571508	0.154664	-0.180309	-0.033548	0.771356	0.305272	0.558407	-0.355981	0.934299	-0.019031	-0.527529	-0.184103	0.829349
07163	5.651067	-0.280571	8.483307	0.175153	-0.214591	-0.044209	0.770379	0.304435	0.560211	-0.356525	0.934125	-0.017352	-0.528589	-0.186361	0.828168
07164	5.648122	-0.194087	8.434041	0.187386	-0.213494	-0.049025	0.769440	0.303475	0.562019	-0.357040	0.933960	-0.015503	-0.529608	-0.188735	0.826979
07165	5.819101	-0.066351	8.422775	0.185485	-0.219808	-0.059039	0.768484	0.302479	0.563861	-0.357529	0.933802	-0.013657	-0.530666	-0.191101	0.825757
07166	5.874368	-0.066440	8.385744	0.186920	-0.205243	-0.066445	0.767646	0.301364	0.565596	-0.357914	0.933681	-0.011716	-0.531617	-0.193441	0.824599
07167	5.784206	-0.230584	8.308723	0.181427	-0.198250	-0.073306	0.766852	0.300266	0.567255	-0.358276	0.933564	-0.009825	-0.532519	-0.195699	0.823484
07168	5.854998	-0.110972	8.350162	0.202998	-0.190219	-0.088054	0.766169	0.298970	0.568860	-0.358585	0.933466	-0.007631	-0.533293	-0.198138	0.822399
07169	5.673535	-0.124077	8.406067	0.187869	-0.192656	-0.093299	0.765474	0.297688	0.570467	-0.358833	0.933385	-0.005575	-0.534125	-0.200435	0.821302
07170	5.788681	-0.169994	8.593548	0.187456	-0.215701	-0.100460	0.764696	0.296216	0.572274	-0.358969	0.933343	-0.003440	-0.535146	-0.202798	0.820056
07171	5.762769	-0.071115	8.646452	0.225082	-0.227600	-0.117040	0.763895	0.294631	0.574158	-0.359240	0.933245	-0.000943	-0.536108	-0.205540	0.818744
07172	5.518733	-0.300862	8.724704	0.203919	-0.249600	-0.122542	0.763010	0.292873	0.576231	-0.359303	0.933220	0.001452	-0.537325	-0.208149	0.817286
07173	5.455550	-0.282990	8.822934	0.250002	-0.328821	-0.137290	0.761732	0.290875	0.578927	-0.359561	0.933112	0.004267	-0.538963	-0.211410	0.815368
07174	5.465084	0.273853	9.168051	0.255752	-0.387870	-0.141805	0.760160	0.288631	0.582107	-0.359770	0.933013	0.007193	-0.541038	-0.214893	0.813080
07175	5.357922	0.455868	9.141556	0.232800	-0.482773	-0.125824	0.757992	0.286383	0.586031	-0.360037	0.932887	0.009799	-0.543894	-0.218421	0.810229
07176	5.552986	0.559790	9.359196	0.201425	-0.582511	-0.113755	0.755235	0.283946	0.590757	-0.360184	0.932802	0.012117	-0.547619	-0.221933	0.806758
07177	5.383425	0.656912	9.357289	0.189442	-0.705269	-0.104990	0.751733	0.281361	0.596434	-0.360394	0.932691	0.014247	-0.552281	-0.225661	0.802536
07178	5.323514	0.570085	9.441635	0.127599	-0.827491	-0.100431	0.747513	0.278450	0.603067	-0.360258	0.932717	0.015891	-0.558066	-0.229139	0.797532
07179	5.167471	0.649039	9.919452	0.095551	-1.020508	-0.112430	0.742184	0.275015	0.611171	-0.359916	0.932824	0.017316	-0.565353	-0.232822	0.791309
07180	4.617902	0.167228	10.267369	0.038480	-1.271863	-0.135350	0.735433	0.270677	0.621187	-0.359046	0.933137	0.018474	-0.574652	-0.236621	0.783445
07181	4.423257	0.036527	10.734125	0.009686	-1.577568	-0.181916	0.726925	0.265184	0.633449	-0.357730	0.933618	0.019675	-0.586181	-0.240906	0.773535
07182	4.077721	-0.280102	11.369438	0.026437	-1.928488	-0.261844	0.716432	0.257960	0.648215	-0.355914	0.934270	0.021574	-0.600042	-0.246165	0.761152
07183	3.966030	-0.262333	11.686305	0.084530	-2.355749	-0.381145	0.703451	0.248490	0.665890	-0.353680	0.935040	0.024701	-0.616496	-0.252888	0.745641
07184	4.074208	-0.125641	11.649936	0.113667	-2.834970	-0.529282	0.687570	0.236188	0.686631	-0.350638	0.936058	0.029131	-0.635846	-0.260788	0.726422
07185	3.906251	-0.136598	11.297776	0.267278	-3.294312	-0.741064	0.668850	0.220461	0.709955	-0.347296	0.937056	0.036206	-0.657286	-0.270781	0.703316
07186	4.098558	-0.963769	10.942141	0.394983	-3.869729	-0.920118	0.646132	0.201072	0.736263	-0.343828	0.937925	0.045592	-0.681392	-0.282606	0.675158
07187	4.780009	-2.000283	11.282467	0.479442	-4.581776	-1.064143	0.617916	0.177804	0.765876	-0.340390	0.938571	0.056733	-0.708742	-0.295752	0.640481
07188	6.434431	-2.168614	10.796583	0.737526	-5.098988	-1.219233	0.585193	0.150856	0.796738	-0.338342	0.938353	0.070838	-0.736935	-0.311024	0.600159
07189	9.750512	-1.815262	11.895968	0.592766	-5.639313	-1.325874	0.547238	0.120465	0.828262	-0.335246	0.938286	0.085032	-0.766903	-0.324204	0.553851
07190	14.873793	-2.264879	13.552191	0.576594	-5.767387	-1.333106	0.506632	0.088917	0.857565	-0.332699	0.937789	0.099317	-0.795384	-0.335628	0.504696
07191	15.198797	-2.003019	12.853095	0.823294	-5.452497	-1.396703	0.467240	0.057174	0.882280	-0.332499	0.936013	0.115430	-0.819226	-0.347291	0.456353
07192	13.773069	-0.115384	11.870772	0.783253	-5.354843	-1.336389	0.427244	0.025841	0.903767	-0.333021	0.933813	0.130731	-0.840571	-0.356827	0.407572
07193	12.432292	-1.095590	11.479738	0.444168	-5.219896	-1.318799	0.387213	-0.005250	0.921975	-0.331382	0.932368	0.144484	-0.860379	-0.361472	0.359285
07194	9.279230	-1.407201	10.828862	0.219351	-4.936806	-1.329354	0.348698	-0.035472	0.936563	-0.328414	0.931302	0.157547	-0.877812	-0.362517	0.313094
07195	5.069930	-2.490508	8.573576	0.080770	-4.638806	-1.421097	0.312250	-0.065515	0.947738	-0.324388	0.930305	0.171186	-0.892901	-0.360888	0.269236
07196	-0.659424	-3.533607	3.723777	0.342365	-4.153082	-1.554821	0.279987	-0.094883	0.955303	-0.322902	0.927816	0.186791	-0.904069	-0.360769	0.229138
07197	0.868052	-1.636828	2.928094	0.432697	-3.733306	-1.203437	0.249952	-0.119533	0.960852	-0.323600	0.924977	0.199251	-0.912582	-0.360735	0.192519
07198	28.237835	-1.949199	14.040232	-0.262730	-1.990840	0.039632	0.231633	-0.126220	0.964580	-0.321349	0.925958	0.198334	-0.918195	-0.355907	0.173922
07199	12.717187	-9.241680	11.647593	0.723787	1.436134	1.079684	0.241249	-0.111088	0.964084	-0.330484	0.924645	0.189243	-0.912458	-0.364269	0.186357
07200	-0.268219	-8.936620	6.875061	1.350413	2.206687	1.396838	0.256589	-0.089854	0.962335	-0.346328	0.921006	0.178337	-0.902341	-0.379043	0.205201
07201	-7.612281	-4.698123	4.382753	2.575716	1.883900	1.334754	0.268647	-0.070273	0.960672	-0.372852	0.912002	0.170979	-0.888150	-0.404121	0.218806
07202	-4.086915	1.515423	6.282301	2.049107	1.095750	1.336251	0.273235	-0.053419	0.960463	-0.394706	0.904309	0.162582	-0.877240	-0.423523	0.226004
07203	0.645235	3.706634	8.632499	1.287893	0.930734	1.394915	0.275745	-0.036871	0.960523	-0.409741	0.899423	0.152154	-0.869527	-0.435522	0.232904
07204	3.144938	2.897530	10.061767	0.306325	1.354234	1.412214	0.281695	-0.018068	0.959334	-0.416480	0.898423	0.139214	-0.864403	-0.438759	0.245557
07205	3.712763	-0.359428	9.930623	-0.064332	1.979300	1.255827	0.293495	0.001868	0.955959	-0.419496	0.898824	0.127036	-0.859002	-0.438305	0.264584
07206	2.737480	-1.015718	9.445783	0.047344	2.528660	0.992532	0.310977	0.022084	0.950161	-0.423062	0.898439	0.117582	-0.851065	-0.438543	0.288736
07207	2.444916	0.211024	9.101943	0.065352	2.843953	0.774465	0.331754	0.041478	0.942454	-0.426062	0.897925	0.110461	-0.841671	-0.438190	0.315562
07208	3.205326	1.607855	9.114859	-0.163762	3.043541	0.643324	0.354514	0.060788	0.933073	-0.427080	0.898242	0.103748	-0.831819	-0.435277	0.344401
07209	4.340048	1.596977	9.101325	-0.543748	3.199970	0.590062	0.378465	0.079879	0.922163	-0.424703	0.900194	0.096326	-0.822431	-0.428101	0.374616
07210	5.470904	0.649712	9.028076	-0.801016	3.392657	0.560138	0.403862	0.099542	0.909388	-0.420537	0.903006	0.087919	-0.812431	-0.417938	0.406550
07211	6.332462	-0.034058	8.920286	-0.873644	3.601361	0.582301	0.430478	0.119619	0.894640	-0.415874	0.905987	0.078973	-0.801085	-0.406054	0.439754
07212	6.806091	-0.186371	8.883260	-0.858460	3.779323	0.659904	0.457791	0.140998	0.877808	-0.412190	0.908478	0.069040	-0.787735	-0.393430	0.474011
07213	7.176487	-0.007613	8.830561	-0.825467	3.895448	0.773675	0.485006	0.163072	0.859172	-0.409353	0.910514	0.058265	-0.772787	-0.379964	0.508359
07214	17.744328	3.240790	10.793110	-0.816277	3.674542	0.657246	0.510453	0.183077	0.840191	-0.406595	0.912335	0.048227	-0.757706	-0.366235	0.540142
07215	3.863099	-0.991055	6.137844	-0.837347	5.246480	0.771109	0.546445	0.208839	0.811039	-0.404384	0.913835	0.037149	-0.733398	-0.348271	0.583811
07216	7.549846	3.533032	7.579722	-0.814860	3.759226	0.486228	0.571714	0.226395	0.788599	-0.401417	0.915461	0.028201	-0.715547	-0.332680	0.614261
07217	10.098782	1.721723	8.345870	-1.010431	3.861150	0.588516	0.596633	0.244254	0.764441	-0.397675	0.917364	0.017263	-0.697054	-0.314299	0.644463
07218	8.128180	1.504433	7.921623	-1.004865	3.752744	0.659023	0.619808	0.262050	0.739708	-0.394986	0.918671	0.005513	-0.678103	-0.295591	0.672906
07219	8.139375	0.306577	8.289837	-0.863621	3.604530	0.807994	0.640713	0.279785	0.714988	-0.394264	0.918976	-0.006301	-0.658819	-0.277856	0.699109
07220	7.605204	0.148470	8.807907	-0.808764	3.496666	1.047633	0.659239	0.299114	0.689880	-0.396034	0.918027	-0.019588	-0.639188	-0.260303	0.723658
07221	10.473687	-0.223121	9.941902	-0.756615	3.453400	1.251942	0.675985	0.319256	0.664168	-0.399591	0.916076	-0.033644	-0.619169	-0.242653	0.746826
07222	10.301406	-0.321596	10.089402	-0.552184	3.775764	1.347059	0.693452	0.340699	0.634861	-0.405671	0.912823	-0.046758	-0.595446	-0.225120	0.771210
07223	8.934851	0.330778	9.778633	-0.429139	3.936786	1.310700	0.711024	0.361131	0.603349	-0.412337	0.909167	-0.058254	-0.569582	-0.207363	0.795347
07224	8.287995	1.256974	9.590300	-0.387788	3.942051	1.218537	0.727830	0.380284	0.570656	-0.419150	0.905314	-0.068705	-0.542750	-0.189184	0.818310
07225	8.634270	1.559024	9.674026	-0.491145	3.899442	1.110792	0.743790	0.397295	0.537525	-0.424685	0.901892	-0.078954	-0.516158	-0.169554	0.839543
07226	9.180064	1.062722	9.890218	-0.554870	3.895791	0.990279	0.759084	0.412670	0.503483	-0.429528	0.898659	-0.088982	-0.489180	-0.148715	0.859411
07227	9.916501	-1.574454	10.923109	-0.682365	3.796293	0.750439	0.773928	0.424612	0.469830	-0.431996	0.896471	-0.098585	-0.463049	-0.126666	0.877235
07228	11.211303	-13.809781	6.106530	1.192357	2.059986	-0.397012	0.784904	0.423920	0.451905	-0.434475	0.896532	-0.086384	-0.441767	-0.128538	0.887874
07229	14.503308	18.516393	-5.289158	4.304731	1.560882	-1.223811	0.796929	0.415187	0.438775	-0.443108	0.895459	-0.042523	-0.410560	-0.160537	0.897590
07230	29.914938	17.750127	-4.480931	-2.322367	-0.958319	0.329109	0.791412	0.416873	0.447083	-0.436121	0.897546	-0.064891	-0.428329	-0.143626	0.892135
07231	30.573122	-6.790286	-6.764479	-1.242904	-0.098320	-0.101289	0.791428	0.415805	0.448049	-0.429922	0.899700	-0.075545	-0.434522	-0.132838	0.890811
07232	21.680273	5.709149	-4.623243	0.910479	0.113715	-1.116640	0.796673	0.405980	0.447765	-0.425043	0.903013	-0.062499	-0.429711	-0.140528	0.891965
07233	15.941520	1.261134	-6.189304	-0.553389	-0.723827	-1.013274	0.797787	0.395773	0.454861	-0.414529	0.907861	-0.062879	-0.437837	-0.138389	0.888340
07234	19.904567	-0.462189	-6.605498	0.270602	-1.444224	-1.186780	0.796258	0.382931	0.468333	-0.406266	0.912096	-0.055042	-0.448242	-0.146440	0.881836
07235	24.215874	1.525865	-7.796431	0.922134	-2.120431	-1.220689	0.791539	0.368476	0.487535	-0.400733	0.915271	-0.041145	-0.461388	-0.162803	0.872133
07236	25.408442	9.428093	-1.089648	0.692425	-2.461114	-0.729929	0.782905	0.357546	0.509137	-0.398183	0.916764	-0.031515	-0.478026	-0.178056	0.860108
07237	16.730120	0.258737	14.987131	-1.141412	-1.678211	-0.042834	0.774904	0.354179	0.523528	-0.392256	0.918938	-0.041084	-0.495641	-0.173521	0.851017
07238	15.032498	1.616054	13.862006	1.821599	-0.125337	-0.186101	0.775047	0.352129	0.524698	-0.399679	0.916326	-0.024575	-0.489448	-0.190664	0.850934
07239	0.768390	6.740432	8.680204	0.648588	-0.015429	0.010868	0.774927	0.352175	0.524843	-0.402893	0.915047	-0.019137	-0.486996	-0.196626	0.850984
07240	9.296345	-4.830977	8.776279	-0.921117	-0.455614	0.233801	0.771784	0.353297	0.528706	-0.400058	0.916058	-0.028149	-0.494270	-0.189788	0.848338
07241	4.819615	1.161361	9.094406	1.093518	-0.127874	-0.032310	0.771284	0.352729	0.529815	-0.405158	0.914055	-0.018727	-0.490885	-0.200215	0.847906
07242	6.217673	0.195177	8.963963	-0.068013	-0.174752	0.085902	0.770105	0.353031	0.531326	-0.405366	0.913942	-0.019717	-0.492562	-0.200197	0.846938
07243	5.627715	0.255139	8.646456	0.324442	-0.142578	0.069640	0.769119	0.353356	0.532537	-0.407462	0.913057	-0.017364	-0.492372	-0.203634	0.846229
07244	5.669371	0.206673	8.796433	0.150608	-0.173370	0.083614	0.767953	0.353630	0.534036	-0.408726	0.912508	-0.016493	-0.493144	-0.205608	0.845301
07245	5.588175	0.107739	8.678339	0.117445	-0.172488	0.089260	0.766736	0.354064	0.535495	-0.409953	0.911966	-0.016001	-0.494019	-0.207259	0.844387
07246	5.698833	-0.429860	8.616752	0.099779	-0.145469	0.094113	0.765660	0.354484	0.536755	-0.411046	0.911481	-0.015620	-0.494779	-0.208672	0.843593
07247	5.676381	-0.431933	8.612929	0.115544	-0.125994	0.081865	0.764699	0.354942	0.537822	-0.412207	0.910965	-0.015108	-0.495299	-0.210141	0.842923
07248	5.709051	-0.408152	8.524114	0.133228	-0.096666	0.074940	0.763939	0.355287	0.538672	-0.413320	0.910473	-0.014346	-0.495543	-0.211684	0.842393
07249	5.723994	-0.543665	8.513862	0.115244	-0.071263	0.068515	0.763302	0.355735	0.539279	-0.414377	0.910001	-0.013768	-0.495642	-0.212956	0.842015
07250	5.636909	-0.365224	8.614672	0.139412	-0.036364	0.054862	0.762923	0.356025	0.539625	-0.415368	0.909563	-0.012849	-0.495397	-0.214340	0.841808
07251	5.539690	-0.158714	8.675878	0.134236	-0.039579	0.046281	0.762534	0.356337	0.539968	-0.416349	0.909126	-0.011991	-0.495172	-0.215671	0.841600
07252	5.524571	-0.039031	8.691472	0.112217	-0.042283	0.047853	0.762153	0.356550	0.540365	-0.417151	0.908767	-0.011266	-0.495083	-0.216828	0.841355
07253	5.461070	0.114875	8.800032	0.099609	-0.060125	0.050011	0.761647	0.356849	0.540882	-0.417989	0.908389	-0.010720	-0.495157	-0.217917	0.841030
07254	5.452067	0.001989	8.782233	0.078086	-0.081908	0.055782	0.761036	0.357048	0.541610	-0.418683	0.908074	-0.010326	-0.495509	-0.218905	0.840566
07255	5.446592	0.003457	8.808599	0.066607	-0.108836	0.054874	0.760266	0.357283	0.542536	-0.419394	0.907748	-0.010086	-0.496090	-0.219868	0.839972
07256	5.560064	-0.018990	8.732246	0.075286	-0.133361	0.055687	0.759398	0.357365	0.543696	-0.420074	0.907438	-0.009717	-0.496842	-0.221014	0.839226
07257	5.557113	0.066387	8.722556	0.046774	-0.147952	0.056496	0.758424	0.357526	0.544948	-0.420699	0.907149	-0.009654	-0.497800	-0.221937	0.838415
07258	5.643494	-0.138928	8.564252	0.015335	-0.163199	0.049819	0.757429	0.357487	0.546356	-0.421037	0.906991	-0.009758	-0.499028	-0.222645	0.837496
07259	5.634528	-0.156647	8.638602	0.020436	-0.158751	0.044349	0.756449	0.357510	0.547697	-0.421438	0.906804	-0.009852	-0.500175	-0.223368	0.836619
07260	5.574813	-0.213005	8.670045	0.009207	-0.164038	0.033056	0.755515	0.357316	0.549110	-0.421619	0.906719	-0.009917	-0.501432	-0.224022	0.835691
07261	5.533445	-0.236722	8.748000	-0.000766	-0.178899	0.020295	0.754531	0.357074	0.550618	-0.421731	0.906665	-0.010057	-0.502818	-0.224624	0.834696
07262	5.605794	-0.357972	8.586110	0.040669	-0.186363	0.013913	0.753561	0.356655	0.552216	-0.421927	0.906577	-0.009757	-0.504106	-0.225643	0.833644
07263	5.563950	-0.107496	8.601499	0.034982	-0.206888	0.008274	0.752481	0.356238	0.553955	-0.422129	0.906486	-0.009533	-0.505548	-0.226667	0.832492
07264	5.719967	-0.153539	8.495489	0.035396	-0.207709	0.006109	0.751430	0.355698	0.555726	-0.422242	0.906436	-0.009235	-0.507015	-0.227711	0.831314
07265	5.792087	-0.083605	8.454448	0.045228	-0.194759	-0.001647	0.750448	0.355214	0.557361	-0.422421	0.906356	-0.008872	-0.508319	-0.228783	0.830223
07266	5.795171	-0.125296	8.416944	0.048912	-0.183988	-0.006802	0.749566	0.354607	0.558931	-0.422508	0.906320	-0.008391	-0.509546	-0.229863	0.829172
07267	5.822619	-0.175188	8.427695	0.046348	-0.171082	-0.016777	0.748764	0.354036	0.560367	-0.422581	0.906291	-0.007935	-0.510664	-0.230859	0.828207
07268	5.795802	-0.077875	8.368897	0.057168	-0.156675	-0.022199	0.748082	0.353351	0.561708	-0.422596	0.906289	-0.007301	-0.511650	-0.231914	0.827303
07269	5.782717	-0.074952	8.423663	0.058877	-0.156395	-0.025687	0.747390	0.352729	0.563020	-0.422668	0.906260	-0.006690	-0.512602	-0.232970	0.826417
07270	5.816757	-0.052047	8.330862	0.060353	-0.151923	-0.031297	0.746767	0.351970	0.564319	-0.422633	0.906281	-0.005980	-0.513536	-0.234035	0.825535
07271	5.787527	-0.065781	8.378923	0.060213	-0.144482	-0.032351	0.746161	0.351312	0.565529	-0.422664	0.906271	-0.005321	-0.514392	-0.235058	0.824711
07272	5.807290	-0.099754	8.371562	0.073147	-0.145149	-0.037622	0.745597	0.350509	0.566770	-0.422650	0.906282	-0.004470	-0.515220	-0.236213	0.823864
07273	5.733443	-0.236726	8.321340	0.082628	-0.142533	-0.041867	0.745039	0.349766	0.567962	-0.422726	0.906251	-0.003572	-0.515965	-0.237431	0.823047
07274	5.758615	-0.236241	8.392594	0.105303	-0.144774	-0.049239	0.744523	0.348856	0.569196	-0.422794	0.906223	-0.002391	-0.516653	-0.238872	0.822198
07275	5.712275	-0.132662	8.458066	0.112066	-0.154473	-0.057874	0.743969	0.347936	0.570483	-0.422905	0.906173	-0.001161	-0.517360	-0.240396	0.821309
07276	5.579627	-0.100871	8.558470	0.113952	-0.179645	-0.064891	0.743336	0.346797	0.571999	-0.422905	0.906174	0.000179	-0.518268	-0.242034	0.820254
07277	5.546121	0.007693	8.680433	0.126477	-0.219412	-0.066045	0.742477	0.345640	0.573813	-0.423032	0.906113	0.001573	-0.519395	-0.243910	0.818985
07278	5.592568	-0.113427	8.781151	0.123159	-0.288479	-0.067096	0.741283	0.344210	0.576211	-0.423070	0.906092	0.003000	-0.521068	-0.246001	0.817295
07279	5.288004	-0.137063	9.096445	0.122863	-0.334813	-0.072766	0.739842	0.342697	0.578958	-0.423134	0.906056	0.004403	-0.523059	-0.248234	0.815346
07280	5.152815	-0.087238	9.381945	0.131202	-0.445485	-0.081147	0.737871	0.340738	0.582619	-0.423119	0.906054	0.005974	-0.525849	-0.250925	0.812724
07281	5.026852	0.360187	9.528093	0.128547	-0.610569	-0.076904	0.734973	0.338473	0.587581	-0.423193	0.906009	0.007447	-0.529833	-0.254133	0.809131
07282	5.117168	0.569400	9.638678	0.082083	-0.778288	-0.065821	0.731127	0.335778	0.593891	-0.423048	0.906067	0.008528	-0.535242	-0.257479	0.804500
07283	4.955046	0.233200	9.656404	0.059590	-0.955693	-0.074694	0.726295	0.332596	0.601561	-0.422786	0.906181	0.009433	-0.541985	-0.261183	0.798771
07284	4.976928	0.059795	9.750796	0.063617	-1.167048	-0.101970	0.720372	0.328493	0.610865	-0.422298	0.906395	0.010587	-0.550208	-0.265594	0.791664
07285	5.127494	0.060334	9.550288	0.079321	-1.357741	-0.136162	0.713411	0.323592	0.621557	-0.421723	0.906645	0.012033	-0.559638	-0.270709	0.783277
07286	5.326426	0.202972	9.535452	0.057201	-1.547116	-0.166084	0.705387	0.317756	0.633609	-0.420775	0.907064	0.013549	-0.570419	-0.276164	0.773535
07287	5.384675	-0.030683	9.444057	0.060352	-1.729945	-0.204932	0.696276	0.311041	0.646880	-0.419647	0.907558	0.015308	-0.582320	-0.282120	0.762438
07288	5.789559	-0.032604	8.692714	0.091148	-1.882615	-0.260719	0.686302	0.303206	0.661102	-0.418292	0.908140	0.017729	-0.594997	-0.288701	0.750087
07289	6.371799	0.510760	7.761890	0.089046	-1.962382	-0.301074	0.675753	0.294713	0.675650	-0.416737	0.908799	0.020389	-0.608020	-0.295346	0.736941
07290	6.819290	0.738495	7.233686	0.085247	-1.974890	-0.313372	0.664935	0.285876	0.690026	-0.415072	0.909493	0.023179	-0.620948	-0.301823	0.723413
07291	7.193265	0.814283	7.116084	0.028910	-1.948182	-0.316573	0.654022	0.277032	0.703924	-0.413125	0.910315	0.025580	-0.633706	-0.307538	0.709815
07292	7.173982	0.232673	7.344537	0.030751	-1.920343	-0.352915	0.643202	0.267765	0.717352	-0.410942	0.911221	0.028335	-0.646079	-0.313015	0.696135
07293	7.046429	-0.169057	7.595426	0.083737	-1.971229	-0.415102	0.632043	0.257724	0.730821	-0.408800	0.912066	0.031906	-0.658334	-0.318926	0.681823
07294	6.826051	-0.386013	7.995322	0.165921	-2.076336	-0.483256	0.620228	0.246531	0.744674	-0.406788	0.912788	0.036621	-0.670702	-0.325639	0.666422
07295	6.635832	-0.407432	8.491433	0.225968	-2.272311	-0.550638	0.607069	0.233990	0.759418	-0.404898	0.913386	0.042240	-0.683758	-0.333129	0.649231
07296	6.263323	-0.436810	9.408477	0.229027	-2.606326	-0.628480	0.591603	0.219377	0.775809	-0.402631	0.914073	0.048557	-0.698494	-0.341092	0.629096
07297	6.634487	-1.340904	9.847718	0.223955	-3.009270	-0.734612	0.573274	0.202240	0.794012	-0.399893	0.914868	0.055699	-0.715152	-0.349451	0.605344
07298	6.810130	-1.361441	10.176415	0.384457	-3.417718	-0.883708	0.552059	0.181969	0.813707	-0.397633	0.915232	0.065101	-0.732884	-0.359496	0.577619
07299	8.967934	-2.060316	10.785779	0.239139	-3.901166	-1.053809	0.527236	0.158091	0.834883	-0.393680	0.916173	0.075128	-0.753020	-0.368287	0.545276
07300	11.787338	-1.640599	11.090319	0.390516	-4.051345	-1.157089	0.500876	0.132328	0.855344	-0.390655	0.916418	0.086984	-0.772342	-0.377712	0.510706
07301	12.571501	-0.898803	10.927650	0.270442	-4.026115	-1.218981	0.474134	0.105769	0.874076	-0.386782	0.916857	0.098861	-0.790946	-0.384951	0.475623
07302	12.110632	-0.717114	10.497315	0.232735	-4.015820	-1.250667	0.446831	0.078696	0.891151	-0.382844	0.917123	0.110972	-0.808562	-0.390758	0.439927
07303	12.576579	0.630292	11.091792	-0.082080	-4.092727	-1.238446	0.418062	0.051266	0.906971	-0.376773	0.918267	0.121766	-0.826599	-0.392628	0.403208
07304	11.257363	0.482279	11.396963	-0.462874	-4.140696	-1.227039	0.388024	0.023772	0.921343	-0.367932	0.920550	0.131203	-0.845023	-0.389901	0.365942
07305	9.571457	-0.265167	11.400114	-0.838723	-4.174701	-1.272294	0.356950	-0.004119	0.934114	-0.355982	0.923931	0.140104	-0.863634	-0.382538	0.328331
07306	6.895705	-1.327016	10.720078	-1.071891	-4.225671	-1.414848	0.325017	-0.033148	0.945127	-0.341792	0.927715	0.150075	-0.881784	-0.371814	0.290193
07307	4.360337	-1.801023	9.380842	-1.013580	-4.186141	-1.615405	0.293154	-0.063517	0.953953	-0.327732	0.930659	0.162680	-0.898138	-0.360331	0.252010
07308	1.634437	-1.361131	7.808888	-0.925961	-4.068047	-1.746061	0.261953	-0.094169	0.960475	-0.314515	0.932564	0.177211	-0.912393	-0.348505	0.214670
07309	7.363920	-0.254136	8.073012	-0.996035	-3.716209	-1.540933	0.232550	-0.121288	0.964992	-0.301511	0.934321	0.190093	-0.924668	-0.335162	0.180706
07310	27.368720	-2.124164	14.776895	-1.565921	-1.383591	-0.861852	0.222264	-0.133828	0.965758	-0.285041	0.938339	0.195629	-0.932389	-0.318762	0.170413
07311	9.896048	-7.183877	12.369076	-0.663653	0.943539	-0.403375	0.232185	-0.134660	0.963305	-0.277894	0.939906	0.198370	-0.932129	-0.313756	0.180810
07312	1.462338	-7.534480	7.729423	0.038136	1.713479	-0.211201	0.248756	-0.131138	0.959647	-0.277817	0.939499	0.200399	-0.927868	-0.316457	0.197274
07313	-4.572210	-3.304189	5.614881	0.863440	1.324750	-0.126170	0.261354	-0.128093	0.956706	-0.285438	0.936571	0.203373	-0.922073	-0.326233	0.208214
07314	-1.496272	0.733924	6.498983	0.465859	0.632594	0.182106	0.266710	-0.124165	0.955745	-0.290310	0.935257	0.202518	-0.919013	-0.331476	0.213396
07315	2.254699	1.635259	7.454803	-0.039569	0.508609	0.627764	0.269544	-0.116633	0.955899	-0.291586	0.936155	0.196445	-0.917782	-0.331678	0.218326
07316	4.408839	-0.567164	7.852863	-0.506930	0.820735	1.009002	0.274203	-0.104317	0.955997	-0.289787	0.938928	0.185572	-0.916971	-0.327920	0.227227
07317	4.715020	-2.980108	7.719095	-0.347855	1.347545	1.211655	0.283018	-0.088548	0.955018	-0.289935	0.941245	0.173193	-0.914242	-0.325909	0.240716
07318	3.938467	-2.651597	7.559974	0.046715	1.818858	1.300184	0.295864	-0.070184	0.952648	-0.294252	0.942105	0.160793	-0.908779	-0.327892	0.258084
07319	3.612478	-0.809350	7.558586	0.248935	2.144265	1.381928	0.311153	-0.050121	0.949037	-0.300656	0.942127	0.148330	-0.901548	-0.331488	0.278076
07320	3.888737	0.683246	7.691497	0.151833	2.395577	1.487918	0.328196	-0.027931	0.944197	-0.306923	0.942175	0.134556	-0.893356	-0.333956	0.300645
07321	4.503413	0.741875	7.817083	-0.029279	2.632518	1.556313	0.346775	-0.004498	0.937938	-0.311872	0.942538	0.119825	-0.884581	-0.334069	0.325445
07322	5.355392	0.504663	7.816032	-0.115573	2.909776	1.539375	0.367591	0.019933	0.929774	-0.316511	0.942768	0.104922	-0.874470	-0.332852	0.352862
07323	5.965508	0.576468	7.873147	-0.123860	3.242388	1.434907	0.391172	0.044192	0.919256	-0.320835	0.942733	0.091205	-0.862583	-0.330607	0.382949
07324	6.123810	1.008846	7.791406	-0.139499	3.557992	1.306778	0.417447	0.068449	0.906120	-0.325092	0.942412	0.078578	-0.848559	-0.327374	0.415660
07325	6.134805	1.212728	7.681272	-0.205556	3.810663	1.156546	0.445699	0.091703	0.890473	-0.328312	0.942169	0.067300	-0.832805	-0.322349	0.450031
07326	6.382045	1.168465	7.759126	-0.287371	3.981092	1.020195	0.475190	0.114259	0.872433	-0.330813	0.941984	0.056817	-0.815326	-0.315611	0.485420
07327	6.995698	0.934226	7.957541	-0.365563	4.097301	0.921150	0.505153	0.135668	0.852300	-0.332339	0.941987	0.047031	-0.796475	-0.307010	0.520935
07328	7.756529	0.640800	8.234009	-0.432655	4.186859	0.883195	0.535168	0.156885	0.830049	-0.333707	0.941946	0.037120	-0.776038	-0.296859	0.556453
07329	8.382538	-0.011963	8.450774	-0.457108	4.275566	0.907545	0.564841	0.177857	0.805805	-0.335158	0.941773	0.027066	-0.754071	-0.285360	0.591562
07330	8.921551	-0.674483	8.611630	-0.406564	4.338674	1.001594	0.593694	0.199671	0.779525	-0.338123	0.940957	0.016496	-0.730206	-0.273369	0.626154
07331	9.465064	-1.332917	8.630925	-0.297509	4.384606	1.154562	0.621216	0.222226	0.751470	-0.342961	0.939332	0.005734	-0.704605	-0.261286	0.659743
07332	9.427414	-1.025463	9.019021	-0.128281	4.403734	1.328078	0.647042	0.246209	0.721608	-0.350683	0.936480	-0.005076	-0.677022	-0.249771	0.692283
07333	9.521541	-1.248636	9.164419	-0.133702	4.397258	1.517742	0.670794	0.271080	0.690327	-0.359758	0.932895	-0.016753	-0.648544	-0.237113	0.723303
07334	9.634645	-1.254660	9.276635	-0.057671	4.364236	1.661221	0.692374	0.296881	0.657631	-0.370907	0.928232	-0.028539	-0.618907	-0.224160	0.752799
07335	9.807954	-1.102159	9.557240	-0.021016	4.322392	1.766955	0.711811	0.322611	0.623898	-0.383148	0.922819	-0.040042	-0.588662	-0.210543	0.780480
07336	9.951622	-0.544928	9.845476	-0.039023	4.286058	1.814307	0.729285	0.348278	0.588937	-0.396188	0.916723	-0.051517	-0.557834	-0.195759	0.806536
07337	10.061439	-0.060133	10.229970	-0.102044	4.262069	1.789859	0.745197	0.372607	0.553033	-0.408795	0.910477	-0.062596	-0.526848	-0.179431	0.830804
07338	10.165925	0.397433	10.482024	-0.223108	4.228310	1.683285	0.759797	0.395338	0.516155	-0.420505	0.904298	-0.073630	-0.495866	-0.161101	0.853325
07339	10.141672	0.753300	10.717375	-0.370677	4.178780	1.509361	0.773464	0.415235	0.478887	-0.430260	0.898754	-0.084368	-0.465434	-0.140791	0.873813
07340	10.272512	0.838837	10.939914	-0.538708	4.082556	1.303989	0.786149	0.432449	0.441540	-0.438172	0.893828	-0.095272	-0.435861	-0.118573	0.892169
07341	9.684208	0.653130	11.663092	-0.705302	3.947287	1.088803	0.798000	0.446354	0.404924	-0.443788	0.889809	-0.106258	-0.407734	-0.094907	0.908155
07342	6.872278	-8.156067	4.815753	0.842302	1.198176	0.213672	0.801796	0.449606	0.393671	-0.449030	0.887952	-0.099570	-0.394328	-0.096935	0.913843
07343	16.000384	13.672693	2.773957	1.518797	1.971933	-0.080479	0.809714	0.450829	0.375655	-0.454166	0.886820	-0.085342	-0.371613	-0.101507	0.922822
07344	24.365030	8.708764	2.923694	-1.154489	0.369049	0.225591	0.810023	0.453345	0.371943	-0.451813	0.886829	-0.096952	-0.373802	-0.089515	0.923179
07345	21.792747	4.464375	1.492916	-0.945931	1.051245	-0.050135	0.814158	0.453752	0.362293	-0.447858	0.887853	-0.105545	-0.369554	-0.076325	0.926069
07346	19.577951	2.960604	-0.654502	-0.712525	0.938833	-0.522819	0.819912	0.449848	0.354093	-0.441025	0.890686	-0.110344	-0.365024	-0.065691	0.928678
07347	16.510264	4.135724	-1.777388	-0.453692	0.625001	-0.992293	0.826513	0.441356	0.349401	-0.431175	0.895402	-0.111102	-0.361890	-0.058826	0.930363
07348	15.388731	3.274533	-2.702779	-0.492960	0.147098	-1.171083	0.832028	0.430941	0.349312	-0.419684	0.900780	-0.111631	-0.362760	-0.053720	0.930333
07349	14.514006	1.588255	-3.614985	-0.287982	-0.411064	-1.225655	0.835604	0.419629	0.354511	-0.408380	0.906157	-0.110026	-0.367413	-0.052838	0.928556
07350	14.101875	0.652392	-3.990444	0.054130	-1.005943	-1.202810	0.836732	0.408117	0.365131	-0.398490	0.911119	-0.105206	-0.375614	-0.057472	0.924993
07351	14.035880	0.399312	-4.367890	0.454998	-1.618288	-1.152462	0.835106	0.396555	0.381238	-0.390559	0.915481	-0.096739	-0.387379	-0.068109	0.919401
07352	12.592813	1.296171	-3.858573	0.991166	-2.220838	-1.131364	0.830746	0.384400	0.402613	-0.384981	0.919165	-0.083222	-0.402059	-0.085862	0.911579
07353	1.575828	5.292254	10.100565	0.657442	-2.398313	-0.781211	0.823888	0.374949	0.424997	-0.381184	0.921528	-0.074056	-0.419414	-0.100988	0.902160
07354	8.345382	-10.848340	12.587735	-0.918167	-3.542458	-0.844770	0.811653	0.363391	0.457348	-0.370184	0.925635	-0.078511	-0.451868	-0.105579	0.885815
07355	13.865443	-5.149092	12.454894	2.463405	-2.724805	-1.259884	0.803833	0.348377	0.482168	-0.371262	0.927130	-0.050932	-0.464776	-0.138070	0.874597
07356	12.892692	4.282788	10.938127	0.817400	-2.760276	-0.494141	0.792588	0.339671	0.506388	-0.371118	0.927663	-0.041384	-0.483814	-0.155129	0.861312
07357	24.894426	6.901169	15.272414	0.867799	-2.361359	-0.294917	0.782077	0.333062	0.526713	-0.373025	0.927253	-0.032462	-0.499208	-0.171089	0.849423
07358	14.572727	8.624787	8.588434	0.890845	1.932562	0.137304	0.791052	0.337529	0.510206	-0.378354	0.925309	-0.025520	-0.480712	-0.172851	0.859673
07359	-3.250153	-0.624784	10.084254	-0.676998	-1.416027	0.079267	0.783848	0.335804	0.522320	-0.375641	0.926221	-0.031748	-0.494445	-0.171319	0.852158
07360	10.346051	-3.967289	8.282621	0.501386	0.339890	0.196850	0.784806	0.338067	0.519414	-0.379524	0.924745	-0.028442	-0.489940	-0.174809	0.854050
07361	4.476960	3.840872	8.902341	0.442867	-0.223283	0.014338	0.783656	0.337781	0.521332	-0.381770	0.923926	-0.024761	-0.490036	-0.179625	0.852995
07362	5.504505	-2.156837	8.608931	-0.135514	-0.090320	0.118617	0.782789	0.338564	0.522126	-0.381902	0.923824	-0.026479	-0.491317	-0.178674	0.852457
07363	5.356247	0.831360	8.972381	0.222019	-0.087923	0.085158	0.782030	0.339170	0.522870	-0.383622	0.923150	-0.025056	-0.491186	-0.180990	0.852044
07364	5.529930	0.400026	8.957487	0.103417	-0.155271	0.084451	0.780970	0.339519	0.524226	-0.384660	0.922731	-0.024563	-0.492059	-0.182466	0.851225
07365	5.359265	-0.153824	8.730589	0.053346	-0.177863	0.089541	0.779748	0.339997	0.525733	-0.385586	0.922344	-0.024603	-0.493272	-0.183531	0.850294
07366	5.571977	-0.456912	8.649737	0.081592	-0.158495	0.081759	0.778678	0.340310	0.527114	-0.386495	0.921972	-0.024285	-0.494249	-0.184817	0.849447
07367	5.557744	-0.575439	8.655677	0.068268	-0.145933	0.072744	0.777673	0.340687	0.528352	-0.387362	0.921612	-0.024113	-0.495151	-0.185912	0.848683
07368	5.550459	-0.562066	8.659886	0.087455	-0.130172	0.066755	0.776797	0.340913	0.529494	-0.388186	0.921277	-0.023671	-0.495881	-0.187154	0.847983
07369	5.525928	-0.578905	8.617198	0.099461	-0.104223	0.062197	0.776037	0.341267	0.530380	-0.389125	0.920893	-0.023181	-0.496334	-0.188395	0.847443
07370	5.598568	-0.458462	8.615291	0.123729	-0.069994	0.052247	0.775513	0.341471	0.531014	-0.390018	0.920536	-0.022358	-0.496453	-0.189766	0.847068
07371	5.500025	-0.255885	8.677563	0.127187	-0.066265	0.051903	0.774981	0.341800	0.531581	-0.391015	0.920131	-0.021581	-0.496500	-0.191131	0.846733
07372	5.587097	-0.058168	8.633372	0.139201	-0.058178	0.051767	0.774516	0.342021	0.532115	-0.391981	0.919742	-0.020627	-0.496464	-0.192603	0.846421
07373	5.487094	0.086938	8.746613	0.108642	-0.062182	0.054053	0.773994	0.342375	0.532647	-0.392902	0.919362	-0.020019	-0.496549	-0.193784	0.846101
07374	5.463736	-0.057209	8.678898	0.092499	-0.066209	0.057127	0.773467	0.342628	0.533249	-0.393678	0.919042	-0.019490	-0.496756	-0.194854	0.845734
07375	5.502603	-0.103242	8.723169	0.086706	-0.082699	0.054533	0.772840	0.342945	0.533954	-0.394494	0.918701	-0.019071	-0.497084	-0.195903	0.845298
07376	5.520804	-0.182426	8.659714	0.098420	-0.080602	0.050435	0.772267	0.343107	0.534679	-0.395248	0.918389	-0.018458	-0.497376	-0.197076	0.844854
07377	5.545367	-0.246012	8.695406	0.072176	-0.085879	0.052572	0.771631	0.343397	0.535411	-0.395976	0.918082	-0.018153	-0.497785	-0.198002	0.844397
07378	5.528713	-0.390410	8.686877	0.083305	-0.085552	0.042411	0.771063	0.343475	0.536178	-0.396594	0.917825	-0.017627	-0.498172	-0.199053	0.843921
07379	5.533803	-0.299424	8.650257	0.095198	-0.090921	0.039269	0.770453	0.343630	0.536955	-0.397334	0.917516	-0.017058	-0.498526	-0.200208	0.843439
07380	5.523977	-0.267457	8.696530	0.090815	-0.091517	0.024394	0.769925	0.343531	0.537775	-0.397852	0.917304	-0.016375	-0.498928	-0.201347	0.842930
07381	5.563537	-0.168519	8.655808	0.093797	-0.100256	0.017812	0.769353	0.343468	0.538633	-0.398420	0.917069	-0.015703	-0.499357	-0.202521	0.842394
07382	5.479741	-0.223236	8.660887	0.081444	-0.111053	0.015157	0.768763	0.343243	0.539618	-0.398822	0.916905	-0.015051	-0.499944	-0.203641	0.841776
07383	5.530309	-0.151329	8.658792	0.079188	-0.119939	0.006472	0.768136	0.343034	0.540642	-0.399231	0.916737	-0.014442	-0.500581	-0.204747	0.841129
07384	5.604722	-0.218725	8.618083	0.072979	-0.120879	-0.004993	0.767576	0.342603	0.541711	-0.399437	0.916657	-0.013755	-0.501276	-0.205822	0.840452
07385	5.505952	-0.190123	8.621739	0.077896	-0.122834	-0.012700	0.767010	0.342209	0.542761	-0.399693	0.916556	-0.013054	-0.501938	-0.206925	0.839786
07386	5.622317	-0.133689	8.532375	0.084608	-0.132082	-0.017507	0.766441	0.341639	0.543923	-0.399864	0.916493	-0.012203	-0.502670	-0.208143	0.839047
07387	5.713377	-0.166890	8.538571	0.077694	-0.117814	-0.027234	0.765956	0.341119	0.544930	-0.400009	0.916440	-0.011425	-0.503293	-0.209226	0.838404
07388	5.696112	-0.105697	8.543403	0.088928	-0.104093	-0.034554	0.765594	0.340449	0.545857	-0.400073	0.916424	-0.010446	-0.503792	-0.210386	0.837813
07389	5.709750	-0.109162	8.557651	0.085867	-0.101016	-0.042640	0.765255	0.339821	0.546724	-0.400143	0.916404	-0.009516	-0.504253	-0.211485	0.837259
07390	5.605309	-0.049090	8.582536	0.093081	-0.090195	-0.047572	0.765014	0.339060	0.547533	-0.400130	0.916420	-0.008431	-0.504629	-0.212634	0.836741
07391	5.584712	-0.059149	8.601123	0.069262	-0.099690	-0.050134	0.764710	0.338364	0.548387	-0.400059	0.916458	-0.007599	-0.505145	-0.213576	0.836190
07392	5.501159	0.004609	8.653451	0.087275	-0.110408	-0.049625	0.764374	0.337539	0.549364	-0.400003	0.916491	-0.006552	-0.505698	-0.214738	0.835558
07393	5.541970	-0.006204	8.714329	0.097218	-0.140217	-0.052569	0.763874	0.336731	0.550554	-0.400055	0.916475	-0.005473	-0.506412	-0.216071	0.834782
07394	5.606966	0.057534	8.638135	0.095477	-0.151203	-0.049386	0.763328	0.335818	0.551867	-0.400045	0.916485	-0.004360	-0.507242	-0.217444	0.833921
07395	5.553439	0.054813	8.637264	0.090912	-0.167202	-0.046274	0.762663	0.335005	0.553278	-0.400116	0.916458	-0.003369	-0.508185	-0.218807	0.832990
07396	5.566878	-0.006952	8.640687	0.086651	-0.183540	-0.046870	0.761939	0.334040	0.554857	-0.400084	0.916476	-0.002343	-0.509295	-0.220203	0.831943
07397	5.640669	-0.073189	8.536016	0.090228	-0.208143	-0.048307	0.761070	0.333113	0.556604	-0.400138	0.916454	-0.001347	-0.510550	-0.221694	0.830777
07398	5.571247	-0.080155	8.505169	0.104402	-0.214494	-0.055590	0.760218	0.331996	0.558433	-0.400134	0.916457	-0.000126	-0.511821	-0.223352	0.829550
07399	5.607457	-0.034650	8.539428	0.107277	-0.233946	-0.062484	0.759268	0.330874	0.560388	-0.400171	0.916440	0.001091	-0.513200	-0.225079	0.828230
07400	5.620137	-0.152563	8.532834	0.112842	-0.251626	-0.070502	0.758278	0.329530	0.562516	-0.400102	0.916467	0.002463	-0.514716	-0.226932	0.826783
07401	5.533670	-0.300760	8.650403	0.145705	-0.269814	-0.083344	0.757220	0.328126	0.564758	-0.400184	0.916426	0.004116	-0.516208	-0.229123	0.825247
07402	5.462122	-0.503402	8.638149	0.168746	-0.303462	-0.107386	0.756101	0.326316	0.567300	-0.400132	0.916437	0.006156	-0.517886	-0.231649	0.823488
07403	5.534385	-0.293813	8.817122	0.213608	-0.358793	-0.135056	0.754779	0.324217	0.570256	-0.400182	0.916395	0.008660	-0.519772	-0.234743	0.821421
07404	5.227408	-0.438702	8.781884	0.238645	-0.393670	-0.152650	0.753359	0.321763	0.573515	-0.400164	0.916371	0.011530	-0.521842	-0.238186	0.819114
07405	5.562614	0.096149	9.053103	0.285523	-0.474703	-0.180847	0.751598	0.318941	0.577388	-0.400259	0.916281	0.014885	-0.524302	-0.242292	0.816334
07406	5.324500	0.437451	9.208495	0.297224	-0.558582	-0.180482	0.749401	0.315802	0.581951	-0.400361	0.916173	0.018390	-0.527360	-0.246772	0.813016
07407	5.460444	0.793278	9.202431	0.255529	-0.679113	-0.168782	0.746481	0.312539	0.587440	-0.400413	0.916084	0.021429	-0.531447	-0.251215	0.808984
07408	5.613781	0.916061	9.160825	0.238798	-0.771729	-0.149083	0.742975	0.309098	0.593672	-0.400472	0.915987	0.024274	-0.536293	-0.255784	0.804341
07409	5.626862	0.870940	9.086899	0.176322	-0.877090	-0.128947	0.738761	0.305629	0.600686	-0.400429	0.915946	0.026438	-0.542115	-0.260064	0.799048
07410	5.484907	0.760921	9.203045	0.134877	-1.010378	-0.131568	0.733792	0.301656	0.608730	-0.400091	0.916037	0.028347	-0.549068	-0.264348	0.792871
07411	5.446002	0.476045	9.210299	0.095426	-1.141885	-0.141423	0.728041	0.297291	0.617717	-0.399546	0.916224	0.029949	-0.557063	-0.268611	0.785830
07412	5.485731	0.380365	9.369179	0.060830	-1.291740	-0.153385	0.721415	0.292271	0.627805	-0.398672	0.916555	0.031420	-0.566234	-0.272955	0.777737
07413	5.443028	0.028395	9.458586	0.056562	-1.458770	-0.194965	0.713854	0.286441	0.639034	-0.397557	0.916981	0.033075	-0.576508	-0.277663	0.768467
07414	5.249486	-0.101899	9.411514	0.084262	-1.636727	-0.261274	0.705377	0.279344	0.651467	-0.396093	0.917526	0.035443	-0.587838	-0.283042	0.757848
07415	5.250822	0.683908	9.434387	0.117896	-1.830229	-0.321687	0.695774	0.271129	0.665122	-0.394500	0.918092	0.038431	-0.600224	-0.289130	0.745745
07416	5.127456	0.865346	9.988897	0.061221	-2.112053	-0.354680	0.684355	0.261593	0.680609	-0.392328	0.918898	0.041308	-0.614604	-0.295291	0.731482
07417	5.164926	0.908933	10.182971	0.073203	-2.418399	-0.410301	0.670897	0.250570	0.697934	-0.389962	0.919748	0.044651	-0.630735	-0.302125	0.714769
07418	4.860488	-0.109346	10.220859	0.105197	-2.764542	-0.546483	0.655347	0.236980	0.717189	-0.386919	0.920795	0.049298	-0.648701	-0.309802	0.695133
07419	4.764347	-1.005458	10.382822	0.246927	-3.230905	-0.702932	0.636770	0.220311	0.738909	-0.383962	0.921643	0.056093	-0.668653	-0.319431	0.671466
07420	5.334796	-1.734778	9.964740	0.462173	-3.727251	-0.869931	0.614785	0.200072	0.762896	-0.381576	0.922000	0.065698	-0.690246	-0.331493	0.643174
07421	5.951992	-1.411316	9.659887	0.593864	-4.208807	-1.031189	0.589162	0.176300	0.788547	-0.379494	0.921950	0.077412	-0.713353	-0.344857	0.610083
07422	7.168079	-1.238491	10.089337	0.630844	-4.682867	-1.163269	0.559589	0.149042	0.815259	-0.377320	0.921650	0.090498	-0.737896	-0.358255	0.571982
07423	10.274902	-1.226588	11.107715	0.512184	-5.079556	-1.231073	0.526069	0.119172	0.842051	-0.374439	0.921455	0.103520	-0.763575	-0.369755	0.529371
07424	14.161073	-1.133072	11.899553	0.537781	-5.149501	-1.220331	0.490684	0.088572	0.866824	-0.372350	0.920727	0.116697	-0.787772	-0.380023	0.484765
07425	14.660341	-1.410897	11.529301	0.557473	-4.885307	-1.245406	0.456297	0.058300	0.887916	-0.370860	0.919516	0.130209	-0.808861	-0.388706	0.441193
07426	13.472780	-0.390351	11.500267	0.640266	-4.872085	-1.247192	0.421052	0.027680	0.906614	-0.370587	0.917552	0.144095	-0.827877	-0.396651	0.396595
07427	12.595255	-0.651604	11.545523	0.325441	-4.879995	-1.273549	0.384889	-0.003477	0.922956	-0.368136	0.916426	0.156971	-0.846367	-0.400190	0.351442
07428	10.666872	-0.713611	11.131341	0.174226	-4.764016	-1.315118	0.348995	-0.034614	0.936485	-0.364774	0.915487	0.169776	-0.863216	-0.400856	0.306874
07429	7.382749	-1.555995	10.075122	-0.173900	-4.608750	-1.386403	0.313844	-0.065724	0.947197	-0.358620	0.915500	0.182350	-0.879144	-0.396913	0.263754
07430	2.654417	-2.678074	8.201152	-0.194950	-4.461444	-1.591460	0.279987	-0.097861	0.955003	-0.352161	0.914971	0.197005	-0.893079	-0.391474	0.221716
07431	-1.953154	-2.977370	5.301910	0.050016	-4.223395	-1.807637	0.248347	-0.130855	0.959792	-0.347792	0.912722	0.214429	-0.904082	-0.387061	0.181162
07432	4.273752	-0.912593	4.651647	0.275235	-3.917673	-1.493701	0.217991	-0.159528	0.962824	-0.346822	0.909492	0.229215	-0.912247	-0.383895	0.142933
07433	31.334436	1.893694	14.767127	-0.569757	-1.428816	-0.275669	0.205859	-0.167497	0.964140	-0.340983	0.911219	0.231108	-0.917253	-0.376332	0.130469
07434	13.551477	-6.006373	13.002996	-0.304668	1.716866	0.727357	0.219160	-0.154332	0.963406	-0.339772	0.913533	0.223636	-0.914617	-0.376351	0.147772
07435	3.133768	-7.309517	7.994285	0.309350	2.865626	1.067393	0.241598	-0.133721	0.961119	-0.345007	0.913907	0.213878	-0.906973	-0.383265	0.174663
07436	-6.710658	-5.499918	4.047940	1.388954	2.643964	0.980717	0.262030	-0.114313	0.958266	-0.360067	0.909678	0.206974	-0.895372	-0.399274	0.197202
07437	-5.328806	-0.165694	4.594980	1.522359	1.793781	0.862336	0.274816	-0.099215	0.956364	-0.375892	0.904414	0.201841	-0.884975	-0.414959	0.211254
07438	-0.957990	3.541141	6.283939	1.087022	1.247399	0.869867	0.282550	-0.085981	0.955391	-0.387979	0.900631	0.195795	-0.877290	-0.425994	0.221115
07439	3.425914	4.673304	8.015233	0.174758	1.335665	1.028195	0.290218	-0.071041	0.954320	-0.392411	0.900708	0.186386	-0.872804	-0.428578	0.233525
07440	5.014139	1.421515	8.272709	-0.432485	1.854690	1.104874	0.302108	-0.053012	0.951798	-0.392000	0.903220	0.174730	-0.868946	-0.425892	0.252089
07441	4.311369	-0.992110	7.715110	-0.335232	2.429686	1.010378	0.319177	-0.033580	0.947100	-0.392193	0.905098	0.164262	-0.862734	-0.423875	0.275716
07442	3.271179	-0.672578	7.246692	-0.052981	2.797957	0.859913	0.339879	-0.013773	0.940368	-0.394669	0.905499	0.155908	-0.853650	-0.424124	0.302325
07443	3.509065	0.788240	7.283570	0.001180	2.987976	0.761443	0.362209	0.005770	0.932079	-0.397310	0.905542	0.148790	-0.843178	-0.424217	0.330288
07444	4.452386	1.950514	7.514044	-0.212449	3.161359	0.745728	0.385796	0.026078	0.922215	-0.398426	0.906290	0.141048	-0.832116	-0.421851	0.360034
07445	5.346613	1.351168	7.782335	-0.502159	3.353952	0.772923	0.410436	0.047116	0.910672	-0.397311	0.908129	0.132082	-0.820784	-0.416031	0.391448
07446	6.203460	0.324817	7.973310	-0.627467	3.575130	0.801502	0.436445	0.069331	0.897056	-0.395709	0.910213	0.122177	-0.808041	-0.408296	0.424693
07447	6.720616	-0.033191	8.201283	-0.610432	3.795382	0.852697	0.463463	0.092407	0.881285	-0.394615	0.912008	0.111897	-0.793398	-0.399628	0.459147
07448	7.194340	0.132945	8.491047	-0.587736	3.974992	0.931359	0.491057	0.116815	0.863259	-0.394572	0.913313	0.100860	-0.776644	-0.390146	0.494581
07449	11.931830	1.665191	7.620721	-0.382521	3.818242	0.943151	0.516641	0.140142	0.844655	-0.396345	0.913596	0.090847	-0.758942	-0.381710	0.527546
07450	13.127090	2.886328	11.159327	-1.182459	5.039864	0.838589	0.551079	0.166810	0.817610	-0.392110	0.916668	0.077267	-0.736588	-0.363173	0.570564
07451	2.524022	0.764684	6.043595	-0.601908	4.462772	0.630265	0.580972	0.188474	0.791801	-0.391270	0.917712	0.068644	-0.713708	-0.349688	0.606909
07452	10.155694	1.562666	8.705928	-1.074234	4.014750	0.630091	0.606818	0.208169	0.767097	-0.387586	0.920074	0.056920	-0.693937	-0.331856	0.639001
07453	8.326378	0.893265	8.685106	-0.955962	4.046747	0.664856	0.631898	0.227341	0.740959	-0.385131	0.921733	0.045638	-0.672591	-0.314205	0.669997
07454	9.415043	-0.036394	9.234143	-1.030484	3.844384	0.770710	0.654424	0.246394	0.714857	-0.383401	0.922998	0.032854	-0.651716	-0.295577	0.698499
07455	12.240057	0.086170	10.794101	-0.991828	3.954849	0.883744	0.676367	0.265838	0.686919	-0.382888	0.923587	0.019577	-0.629226	-0.276255	0.726470
07456	11.112936	0.089345	10.408707	-0.887528	4.137645	0.933429	0.698321	0.285704	0.656294	-0.383971	0.923321	0.006610	-0.604082	-0.256613	0.754477
07457	10.032360	0.199632	10.042089	-0.819564	4.162499	0.911868	0.719409	0.304367	0.624348	-0.385553	0.922669	-0.005542	-0.577753	-0.236733	0.781127
07458	9.645346	0.632140	9.774027	-0.820351	4.044184	0.864261	0.738906	0.321717	0.592045	-0.387363	0.921762	-0.017434	-0.551333	-0.216454	0.805716
07459	9.845530	0.805180	9.911668	-0.861087	3.881015	0.829703	0.756585	0.337337	0.560163	-0.388893	0.920818	-0.029270	-0.525682	-0.195698	0.827865
07460	10.232235	0.588169	9.916726	-0.898444	3.749350	0.811244	0.772653	0.351943	0.528340	-0.390621	0.919623	-0.041337	-0.500422	-0.174442	0.848026
07461	10.180557	0.298029	9.722827	-0.903258	3.661110	0.767237	0.787515	0.364967	0.496608	-0.392163	0.918366	-0.053037	-0.475425	-0.152984	0.866353
07462	9.836999	0.375352	9.528447	-0.897451	3.537884	0.697705	0.801143	0.376586	0.465138	-0.393677	0.916993	-0.064359	-0.450765	-0.131553	0.882896
07463	10.036446	0.709138	9.369201	-0.958534	3.382752	0.616607	0.813565	0.386299	0.434609	-0.394412	0.915811	-0.075694	-0.427260	-0.109833	0.897433
07464	9.968177	0.542227	8.972634	-1.060549	3.231196	0.531434	0.824893	0.394513	0.404860	-0.394471	0.914722	-0.087621	-0.404901	-0.087428	0.910171
07465	7.417449	-0.155866	10.478636	-1.183833	3.085137	0.470721	0.835209	0.401138	0.376185	-0.393675	0.913758	-0.100329	-0.383988	-0.064299	0.921097
07466	10.183641	-3.115180	2.942273	-0.198896	1.311652	0.358822	0.838737	0.405354	0.363604	-0.396032	0.912374	-0.103595	-0.373736	-0.057110	0.925775
07467	10.933512	2.812050	5.170558	-0.397880	1.425045	0.215331	0.843137	0.408045	0.350169	-0.396344	0.911717	-0.108087	-0.363360	-0.047655	0.930429
07468	16.602484	2.390360	5.648107	-0.793230	1.272097	0.413279	0.846049	0.412458	0.337758	-0.397074	0.910299	-0.116997	-0.355717	-0.035130	0.933933
07469	14.902973	1.060054	3.994912	-0.646097	1.330169	0.398435	0.849140	0.416454	0.324849	-0.398149	0.908847	-0.124394	-0.347043	-0.023710	0.937549
07470	12.375655	1.027422	2.857063	-0.575467	1.152943	0.207632	0.852255	0.418636	0.313696	-0.397998	0.908052	-0.130535	-0.339499	-0.013602	0.940508
07471	11.525731	2.276504	2.185910	-0.436724	0.911836	-0.036328	0.855469	0.418376	0.305178	-0.396187	0.908255	-0.134567	-0.333479	-0.005790	0.942740
07472	11.654927	2.844818	1.487639	-0.504918	0.538914	-0.215677	0.858101	0.416478	0.300349	-0.392693	0.909145	-0.138734	-0.330841	0.001102	0.943686
07473	10.585213	1.328698	1.247777	-0.432948	0.195863	-0.378088	0.860226	0.413012	0.299051	-0.387981	0.910707	-0.141719	-0.330880	0.005884	0.943655
07474	10.387281	-0.020320	0.398899	-0.137207	-0.179098	-0.526471	0.861660	0.408241	0.301467	-0.382998	0.912852	-0.141473	-0.332950	0.006440	0.942923
07475	10.466004	-0.020062	-0.130030	0.286753	-0.586913	-0.585981	0.861928	0.402889	0.307833	-0.378877	0.915248	-0.137018	-0.336947	0.001469	0.941523
07476	10.676991	-0.317217	-0.940816	0.710802	-1.049513	-0.484275	0.860191	0.398407	0.318345	-0.377109	0.917162	-0.128850	-0.343309	-0.009215	0.939177
07477	10.918566	0.540594	-1.656648	1.103506	-1.569615	-0.185862	0.855433	0.396410	0.333307	-0.379323	0.917718	-0.117932	-0.352631	-0.025548	0.935414
07478	12.673276	-0.044000	-3.235115	1.499965	-2.189992	0.254322	0.846600	0.397909	0.353464	-0.386836	0.916170	-0.104839	-0.365550	-0.047976	0.929555
07479	5.839887	3.469423	2.838337	1.813550	-2.454006	0.421235	0.835812	0.400242	0.375798	-0.397100	0.913390	-0.089612	-0.379117	-0.074331	0.922359
07480	5.170902	7.060853	14.186508	1.112780	-3.206521	0.235301	0.822367	0.399583	0.405026	-0.403334	0.911519	-0.080337	-0.401290	-0.097294	0.910769
07481	7.186295	4.452623	14.386132	1.099255	-2.846654	-0.571800	0.812981	0.391274	0.431239	-0.403140	0.912607	-0.068023	-0.420167	-0.118548	0.899670
07482	10.662591	4.841959	12.282715	0.979113	-3.136712	-1.096805	0.803878	0.377116	0.459960	-0.398412	0.915593	-0.054374	-0.441642	-0.139543	0.886273
07483	15.601137	-2.132026	12.204978	-0.163151	-2.979572	-0.538571	0.792486	0.367856	0.486465	-0.393338	0.917849	-0.053286	-0.466103	-0.149116	0.872074
07484	18.180117	-2.568091	11.345972	0.757125	-1.967325	-0.337759	0.784542	0.361577	0.503743	-0.394153	0.917942	-0.045016	-0.478683	-0.163235	0.862680
07485	9.740473	8.142478	11.357699	1.256152	-0.952956	-0.258692	0.780992	0.357555	0.512061	-0.398122	0.916742	-0.032917	-0.481197	-0.178154	0.858318
07486	15.478085	5.935359	11.601823	0.071555	-0.498175	0.006446	0.778583	0.356585	0.516387	-0.398400	0.916643	-0.032290	-0.484857	-0.180588	0.855746
07487	1.206243	-0.470833	8.167297	0.156573	-0.041790	0.132333	0.777851	0.357700	0.516719	-0.400153	0.915902	-0.031658	-0.484588	-0.182141	0.855570
07488	7.985060	-1.079865	8.835942	0.169380	-0.248596	0.094735	0.776292	0.357960	0.518879	-0.401581	0.915311	-0.030643	-0.485904	-0.184584	0.854299
07489	5.322952	1.120952	8.955095	0.289483	-0.175789	0.077290	0.775126	0.358317	0.520373	-0.403552	0.914510	-0.028597	-0.486133	-0.187832	0.853460
07490	5.371723	-0.809087	8.887169	0.104977	-0.142302	0.082615	0.774127	0.358650	0.521629	-0.404572	0.914075	-0.028072	-0.486877	-0.189305	0.852710
07491	5.604162	-0.031764	8.753890	0.164404	-0.166549	0.074122	0.773015	0.358988	0.523045	-0.405910	0.913512	-0.027082	-0.487530	-0.191374	0.851875
07492	5.427278	-0.517212	8.752480	0.108375	-0.172721	0.072042	0.771906	0.359162	0.524561	-0.406866	0.913104	-0.026479	-0.488489	-0.192987	0.850961
07493	5.680286	-0.712030	8.650357	0.122148	-0.145633	0.060639	0.770946	0.359410	0.525801	-0.407895	0.912665	-0.025782	-0.489146	-0.194595	0.850217
07494	5.634131	-0.686856	8.638193	0.111289	-0.105806	0.054017	0.770234	0.359546	0.526751	-0.408728	0.912312	-0.025064	-0.489573	-0.195992	0.849650
07495	5.552433	-0.451126	8.684725	0.128104	-0.074247	0.044355	0.769688	0.359782	0.527387	-0.409660	0.911916	-0.024234	-0.489652	-0.197397	0.849279
07496	5.573252	-0.339614	8.656897	0.131818	-0.070400	0.038673	0.769210	0.359847	0.528040	-0.410477	0.911574	-0.023264	-0.489719	-0.198854	0.848901
07497	5.468050	-0.062688	8.734616	0.126857	-0.060776	0.039868	0.768748	0.360066	0.528563	-0.411368	0.911193	-0.022421	-0.489697	-0.200198	0.848598
07498	5.471175	-0.010729	8.790056	0.118022	-0.065188	0.044961	0.768268	0.360197	0.529171	-0.412166	0.910852	-0.021604	-0.489778	-0.201509	0.848240
07499	5.380973	0.065584	8.821912	0.102297	-0.088131	0.052249	0.767621	0.360472	0.529923	-0.413033	0.910473	-0.021036	-0.490064	-0.202728	0.847785
07500	5.477833	0.028378	8.740434	0.094627	-0.101627	0.054293	0.766923	0.360612	0.530838	-0.413788	0.910143	-0.020468	-0.490519	-0.203957	0.847226
07501	5.565243	-0.025309	8.709823	0.080903	-0.107091	0.060561	0.766146	0.360921	0.531749	-0.414613	0.909775	-0.020128	-0.491036	-0.205049	0.846663
07502	5.640229	-0.126075	8.651896	0.068539	-0.100127	0.058665	0.765435	0.361102	0.532648	-0.415274	0.909481	-0.019806	-0.491585	-0.206035	0.846105
07503	5.562424	-0.209815	8.697731	0.050516	-0.085470	0.057338	0.764776	0.361424	0.533376	-0.415925	0.909185	-0.019708	-0.492061	-0.206772	0.845649
07504	5.596949	-0.305326	8.624372	0.050864	-0.075122	0.053725	0.764208	0.361610	0.534065	-0.416462	0.908944	-0.019511	-0.492490	-0.207507	0.845218
07505	5.583519	-0.392599	8.625813	0.058082	-0.063915	0.047195	0.763696	0.361883	0.534612	-0.417072	0.908669	-0.019296	-0.492768	-0.208236	0.844877
07506	5.548728	-0.338072	8.664445	0.076945	-0.058374	0.042895	0.763253	0.362006	0.535160	-0.417655	0.908411	-0.018823	-0.492959	-0.209146	0.844541
07507	5.519784	-0.254236	8.631251	0.079717	-0.066715	0.034800	0.762778	0.362159	0.535734	-0.418278	0.908134	-0.018359	-0.493167	-0.210081	0.844188
07508	5.530766	-0.161113	8.653778	0.091694	-0.068397	0.025875	0.762356	0.362106	0.536369	-0.418805	0.907904	-0.017672	-0.493371	-0.211162	0.843798
07509	5.555367	-0.166646	8.638625	0.075804	-0.075782	0.024313	0.761880	0.362143	0.537021	-0.419328	0.907672	-0.017186	-0.493663	-0.212094	0.843394
07510	5.532565	-0.239517	8.560426	0.080600	-0.077370	0.015058	0.761458	0.361973	0.537734	-0.419719	0.907503	-0.016537	-0.493981	-0.213105	0.842953
07511	5.538200	-0.333154	8.550685	0.092403	-0.078590	0.004484	0.761051	0.361822	0.538411	-0.420174	0.907306	-0.015805	-0.494222	-0.214198	0.842534
07512	5.533914	-0.354325	8.559018	0.115974	-0.081636	-0.009723	0.760711	0.361417	0.539163	-0.420553	0.907149	-0.014726	-0.494423	-0.215544	0.842073
07513	5.549338	-0.284534	8.561386	0.121571	-0.085019	-0.017791	0.760365	0.361048	0.539897	-0.420982	0.906967	-0.013630	-0.494590	-0.216924	0.841621
07514	5.629336	-0.172923	8.575553	0.143923	-0.075829	-0.022600	0.760107	0.360539	0.540600	-0.421403	0.906791	-0.012248	-0.494627	-0.218501	0.841190
07515	5.659251	-0.143416	8.488301	0.135433	-0.071942	-0.035995	0.759903	0.360031	0.541226	-0.421763	0.906640	-0.010937	-0.494635	-0.219958	0.840806
07516	5.601737	-0.153866	8.512296	0.141663	-0.062239	-0.044968	0.759807	0.359347	0.541815	-0.422004	0.906545	-0.009455	-0.494577	-0.221464	0.840444
07517	5.658782	0.000385	8.556958	0.140974	-0.060352	-0.051553	0.759726	0.358722	0.542343	-0.422273	0.906433	-0.008013	-0.494472	-0.222929	0.840119
07518	5.553151	-0.016747	8.616499	0.128456	-0.063615	-0.055044	0.759665	0.357942	0.542943	-0.422372	0.906399	-0.006588	-0.494481	-0.224319	0.839744
07519	5.478770	-0.100328	8.686094	0.125573	-0.082997	-0.054629	0.759485	0.357236	0.543659	-0.422542	0.906328	-0.005260	-0.494612	-0.225724	0.839290
07520	5.522554	-0.024342	8.623968	0.135843	-0.099850	-0.058151	0.759257	0.356346	0.544560	-0.422656	0.906283	-0.003757	-0.494864	-0.227309	0.838713
07521	5.479692	0.056477	8.730365	0.118782	-0.105117	-0.057137	0.758979	0.355564	0.545459	-0.422773	0.906232	-0.002472	-0.495191	-0.228729	0.838134
07522	5.492437	-0.059865	8.700743	0.109392	-0.136409	-0.057403	0.758566	0.354595	0.546663	-0.422764	0.906239	-0.001196	-0.495831	-0.230202	0.837352
07523	5.474260	-0.081391	8.678016	0.117732	-0.156215	-0.065589	0.758068	0.353616	0.547987	-0.422814	0.906216	0.000126	-0.496550	-0.231792	0.836487
07524	5.506419	-0.034386	8.715050	0.104241	-0.186081	-0.070882	0.757462	0.352406	0.549601	-0.422681	0.906278	0.001432	-0.497586	-0.233390	0.835426
07525	5.412835	-0.051811	8.768877	0.133696	-0.195586	-0.067777	0.756775	0.351309	0.551248	-0.422796	0.906220	0.002899	-0.498533	-0.235260	0.834336
07526	5.408967	-0.258445	8.683210	0.132011	-0.237885	-0.082171	0.755954	0.349869	0.553286	-0.422721	0.906249	0.004498	-0.499841	-0.237286	0.832979
07527	5.455141	-0.264028	8.678251	0.183016	-0.289643	-0.096248	0.754911	0.348281	0.555707	-0.422873	0.906165	0.006533	-0.501287	-0.239925	0.831353
07528	5.402726	-0.137956	8.745297	0.192989	-0.305417	-0.114004	0.753877	0.346381	0.558291	-0.422871	0.906147	0.008814	-0.502841	-0.242730	0.829598
07529	5.407220	-0.392032	8.709907	0.202089	-0.330635	-0.126109	0.752745	0.344406	0.561034	-0.422902	0.906107	0.011173	-0.504509	-0.245673	0.827717
07530	5.503919	-0.176382	8.760185	0.267403	-0.403645	-0.156374	0.751383	0.341862	0.564405	-0.422969	0.906031	0.014304	-0.506479	-0.249474	0.825374
07531	5.557335	0.339963	8.851027	0.299940	-0.423217	-0.161029	0.749917	0.339314	0.567883	-0.423245	0.905843	0.017667	-0.508418	-0.253602	0.822920
07532	5.523752	0.519394	8.873782	0.247861	-0.477486	-0.145372	0.748114	0.336651	0.571831	-0.423312	0.905750	0.020572	-0.511011	-0.257453	0.820113
07533	5.576594	0.553479	8.903108	0.242663	-0.547293	-0.130431	0.745861	0.334025	0.576297	-0.423544	0.905576	0.023286	-0.514103	-0.261456	0.816908
07534	5.614588	0.534402	8.844623	0.221391	-0.616710	-0.129983	0.743245	0.331098	0.581344	-0.423612	0.905474	0.025884	-0.517821	-0.265503	0.813246
07535	5.639015	0.521604	8.997049	0.208460	-0.681839	-0.124592	0.740228	0.328120	0.586856	-0.423734	0.905345	0.028283	-0.522027	-0.269607	0.809197
07536	5.464720	0.386982	9.249474	0.198897	-0.778983	-0.135478	0.736731	0.324652	0.593151	-0.423672	0.905294	0.030728	-0.527000	-0.273940	0.804505
07537	5.471158	0.334435	9.322930	0.201998	-0.891643	-0.160903	0.732688	0.320707	0.600263	-0.423522	0.905274	0.033289	-0.532727	-0.278615	0.799109
07538	5.218868	0.472703	9.644255	0.193452	-1.046622	-0.178169	0.727845	0.316029	0.608578	-0.423155	0.905344	0.035946	-0.539613	-0.283686	0.792679
07539	5.067222	0.298705	9.783540	0.150416	-1.241741	-0.206235	0.721963	0.310581	0.618311	-0.422439	0.905578	0.038379	-0.548009	-0.288907	0.784996
07540	4.955532	0.491757	9.981585	0.170108	-1.469543	-0.240842	0.714867	0.303992	0.629725	-0.421550	0.905866	0.041250	-0.557907	-0.294949	0.775722
07541	4.888782	1.045914	10.378975	0.148048	-1.741810	-0.253168	0.706111	0.296478	0.643046	-0.420547	0.906204	0.043984	-0.569690	-0.301489	0.764564
07542	4.668607	1.320107	10.706776	0.069279	-2.049061	-0.271792	0.695447	0.287656	0.658489	-0.418946	0.906829	0.046318	-0.583813	-0.308083	0.751164
07543	4.324962	0.888287	11.138711	-0.023171	-2.423777	-0.337218	0.682499	0.277022	0.676354	-0.416445	0.907873	0.048381	-0.600640	-0.314684	0.734986
07544	3.984101	0.386421	11.716606	0.013961	-2.892709	-0.459204	0.666760	0.263525	0.697127	-0.413340	0.909109	0.051677	-0.620146	-0.322607	0.715083
07545	3.926529	-0.555715	11.258984	0.180845	-3.391036	-0.666351	0.648103	0.246321	0.720616	-0.410060	0.910234	0.057660	-0.641726	-0.332865	0.690932
07546	4.114981	-1.112535	11.357770	0.301510	-4.087921	-0.848325	0.624837	0.224640	0.747740	-0.406550	0.911244	0.065966	-0.666555	-0.345211	0.660707
07547	4.977109	-1.873912	11.757095	0.466391	-4.802747	-0.997338	0.596195	0.198592	0.777890	-0.403591	0.911730	0.076562	-0.694021	-0.359595	0.623719
07548	6.452968	-1.919547	11.843244	0.584114	-5.500062	-1.151730	0.561849	0.167811	0.810040	-0.400993	0.911723	0.089255	-0.723554	-0.374968	0.579542
07549	11.962091	-2.344635	12.889671	0.476513	-6.075728	-1.210112	0.521761	0.133548	0.842574	-0.397915	0.911746	0.101896	-0.754606	-0.388438	0.528854
07550	16.826744	-2.291080	13.248536	0.777423	-5.839634	-1.220861	0.481787	0.099282	0.870646	-0.397703	0.910114	0.116294	-0.780841	-0.402288	0.477966
07551	15.201054	-1.587848	11.734457	0.953497	-5.433403	-1.218937	0.443623	0.065954	0.893783	-0.399568	0.907241	0.131376	-0.802212	-0.415409	0.428826
07552	12.876492	-0.242009	11.663305	0.718179	-5.377514	-1.212816	0.404802	0.032349	0.913832	-0.400218	0.904835	0.145255	-0.822169	-0.424531	0.379226
07553	10.921971	-1.024283	10.869406	0.425112	-5.250779	-1.232856	0.366054	-0.001246	0.930593	-0.398957	0.903230	0.158142	-0.840736	-0.429155	0.330134
07554	7.152305	-1.466539	9.480762	0.140766	-4.975944	-1.290947	0.328946	-0.034274	0.943726	-0.395642	0.902406	0.170679	-0.857474	-0.429522	0.283283
07555	2.648505	-2.885615	6.870134	0.072129	-4.687852	-1.452475	0.294117	-0.067503	0.953383	-0.391697	0.901374	0.184658	-0.871819	-0.427749	0.238668
07556	-2.267501	-3.647340	3.396626	0.325378	-4.347965	-1.711478	0.262689	-0.101473	0.959530	-0.389778	0.898542	0.201733	-0.882648	-0.426997	0.196485
07557	3.182060	-0.437175	2.703907	0.544598	-3.929790	-1.526531	0.233798	-0.131977	0.963286	-0.390775	0.894448	0.217390	-0.890300	-0.427253	0.157547
07558	29.483072	3.277765	13.274461	-0.553629	-1.598242	-0.428724	0.221225	-0.142555	0.964747	-0.384854	0.896208	0.220678	-0.896073	-0.420107	0.143401
07559	12.713714	-6.506141	11.585260	-0.460936	1.647072	0.577243	0.233746	-0.130498	0.963500	-0.382000	0.898942	0.214428	-0.894113	-0.418179	0.160274
07560	2.095105	-7.807521	7.059072	0.392122	2.738526	0.846897	0.254914	-0.111269	0.960540	-0.387587	0.898310	0.206920	-0.885887	-0.425040	0.185866
07561	-7.423055	-6.573560	3.437794	1.391551	2.480136	0.832401	0.273444	-0.093113	0.957371	-0.401989	0.893157	0.201683	-0.873861	-0.440002	0.206798
07562	-4.752402	-1.640094	4.465995	1.556610	1.652728	0.841742	0.284401	-0.078113	0.955518	-0.417905	0.886899	0.196889	-0.862827	-0.455311	0.219591
07563	-0.256825	1.442546	6.298675	1.285677	1.278414	0.959233	0.291292	-0.063759	0.954507	-0.431660	0.881664	0.190626	-0.853709	-0.467550	0.229299
07564	3.575159	2.912146	8.356532	0.512181	1.493119	1.184558	0.298892	-0.046184	0.953169	-0.439568	0.879892	0.180472	-0.847020	-0.472924	0.242691
07565	4.998547	0.415586	8.918960	-0.077971	2.045530	1.313396	0.310357	-0.024976	0.950292	-0.442870	0.880746	0.167786	-0.841157	-0.472929	0.262285
07566	4.575319	-1.316444	8.554244	-0.088619	2.614149	1.266419	0.326683	-0.001325	0.945133	-0.446228	0.881311	0.155473	-0.833162	-0.472536	0.287318
07567	3.889374	-1.176780	8.241473	0.054823	2.993525	1.150420	0.346307	0.022933	0.937841	-0.450513	0.880947	0.144815	-0.822867	-0.472659	0.315410
07568	4.123625	0.255928	8.353219	0.079399	3.210981	1.053573	0.367840	0.047542	0.928673	-0.455005	0.880171	0.135165	-0.810965	-0.472270	0.345394
07569	5.017238	1.423986	8.804852	-0.130066	3.370550	0.989824	0.390449	0.072093	0.917797	-0.457670	0.880211	0.125561	-0.798804	-0.469074	0.376673
07570	6.041234	1.503755	9.054727	-0.415833	3.523485	0.954769	0.414076	0.097092	0.905049	-0.458307	0.881305	0.115138	-0.786445	-0.462466	0.409425
07571	6.603408	0.983285	9.093814	-0.607716	3.689024	0.896463	0.438744	0.121863	0.890311	-0.457348	0.883126	0.104501	-0.773522	-0.453031	0.443200
07572	7.217517	0.717494	9.048172	-0.692646	3.844291	0.814989	0.464553	0.146461	0.873350	-0.455821	0.885090	0.094031	-0.759221	-0.441774	0.477932
07573	14.750845	3.215270	9.675831	-0.557787	3.615619	0.576769	0.489112	0.167326	0.856021	-0.454337	0.886641	0.086287	-0.744545	-0.431126	0.509689
07574	7.034737	0.741226	8.557872	-1.221935	5.193853	0.588930	0.524647	0.194628	0.828773	-0.448456	0.890676	0.074725	-0.723625	-0.410872	0.554573
07575	5.054955	2.305775	7.349642	-0.897768	3.926438	0.259226	0.551568	0.212734	0.806546	-0.443389	0.893786	0.067473	-0.706526	-0.394830	0.587308
07576	9.631042	0.912803	8.932638	-1.268169	3.811419	0.380392	0.576570	0.231017	0.783708	-0.436786	0.897777	0.056700	-0.690496	-0.375004	0.618536
07577	8.022970	0.384858	8.266734	-1.200004	3.730877	0.505710	0.599824	0.249163	0.760348	-0.431534	0.900964	0.045186	-0.673788	-0.355219	0.647942
07578	7.948621	-1.151431	8.635286	-1.120337	3.551116	0.725362	0.620372	0.268183	0.737033	-0.428620	0.902909	0.032236	-0.656829	-0.335905	0.675088
07579	10.438373	-0.469336	9.684214	-1.028657	3.423388	0.990473	0.638321	0.288283	0.713751	-0.428145	0.903531	0.017964	-0.639718	-0.317056	0.700169
07580	10.618317	-0.663462	10.153455	-0.927697	3.599609	1.199188	0.655880	0.310390	0.688098	-0.430182	0.902738	0.002830	-0.620294	-0.297864	0.725612
07581	9.627907	-0.407682	10.031961	-0.813189	3.705787	1.283638	0.672932	0.332626	0.660699	-0.433714	0.900973	-0.011847	-0.599212	-0.278582	0.750558
07582	8.935213	0.408374	9.906120	-0.725984	3.702159	1.271244	0.689177	0.354227	0.632106	-0.438227	0.898496	-0.025717	-0.577055	-0.259283	0.774455
07583	8.777371	0.949205	9.925291	-0.759024	3.646454	1.215303	0.704467	0.374198	0.603077	-0.442362	0.895979	-0.039206	-0.555015	-0.239159	0.796719
07584	9.155434	1.419572	10.287394	-0.828473	3.602584	1.147709	0.718969	0.392895	0.573339	-0.446147	0.893403	-0.052757	-0.532952	-0.217863	0.817618
07585	9.682552	1.335112	10.419641	-0.928231	3.622602	1.063391	0.733117	0.409840	0.542744	-0.448987	0.891068	-0.066396	-0.510833	-0.195009	0.837270
07586	9.740533	1.118083	10.330590	-0.953698	3.694877	0.926427	0.747388	0.425026	0.510650	-0.451201	0.888878	-0.079456	-0.487677	-0.171021	0.856109
07587	9.158581	1.164105	9.946843	-0.932415	3.735194	0.738459	0.761823	0.437496	0.477727	-0.452302	0.887190	-0.091197	-0.463733	-0.146601	0.873762
07588	8.821630	1.674083	9.618693	-0.956405	3.688221	0.523665	0.776101	0.447245	0.444565	-0.452119	0.886090	-0.102144	-0.439608	-0.121722	0.889903
07589	8.726855	2.305778	9.471514	-1.085001	3.562965	0.326630	0.789885	0.453999	0.412271	-0.449997	0.885813	-0.113304	-0.416635	-0.096023	0.903988
07590	8.787634	2.699415	9.454976	-1.254120	3.384481	0.133112	0.803012	0.458112	0.381190	-0.446064	0.886182	-0.125332	-0.395220	-0.069392	0.915962
07591	4.430415	-4.785396	7.767107	-0.758534	1.803456	-0.348447	0.811585	0.456117	0.365085	-0.440263	0.888256	-0.131032	-0.384054	-0.054390	0.921707
07592	13.414792	7.697815	5.330285	0.294359	2.176658	-0.604321	0.822367	0.451970	0.345594	-0.436522	0.890792	-0.126245	-0.364911	-0.047040	0.929853
07593	17.997007	3.450126	5.543543	-1.273734	1.326000	-0.529560	0.829460	0.447734	0.333961	-0.427503	0.893674	-0.136338	-0.359495	-0.029682	0.932675
07594	15.092578	3.556527	3.431760	-0.923902	1.723129	-0.524688	0.837780	0.443488	0.318501	-0.419913	0.896176	-0.143323	-0.348994	-0.013670	0.937025
07595	13.847039	0.375536	0.788604	-1.072255	1.381553	-0.602733	0.845060	0.438139	0.306445	-0.411106	0.898905	-0.151533	-0.341857	0.002073	0.939750
07596	13.588791	1.084682	0.022737	-0.721634	0.937808	-0.710377	0.851131	0.431714	0.298662	-0.402660	0.901921	-0.156215	-0.336809	0.012701	0.941487
07597	13.815184	-0.107207	-0.902240	-0.449725	0.522796	-0.605553	0.855305	0.426144	0.294711	-0.395953	0.904455	-0.158687	-0.334177	0.019034	0.942318
07598	12.963905	-0.789248	-2.151996	-0.044411	-0.005222	-0.405772	0.856890	0.422484	0.295376	-0.392334	0.906162	-0.157941	-0.334387	0.019452	0.942235
07599	12.674702	-0.975748	-3.103065	0.452191	-0.636742	-0.171745	0.855425	0.421011	0.301660	-0.392352	0.906967	-0.153203	-0.338096	0.012697	0.941026
07600	13.130941	-0.408019	-4.135712	0.920900	-1.313440	0.066038	0.850678	0.421676	0.313904	-0.396044	0.906746	-0.144780	-0.345682	-0.001159	0.938351
07601	13.350738	0.558223	-4.593377	1.344517	-2.002616	0.273350	0.842549	0.423904	0.332291	-0.403052	0.905445	-0.133109	-0.357297	-0.021780	0.933737
07602	14.481205	0.863862	-5.858472	1.748939	-2.692552	0.316972	0.831434	0.425781	0.356970	-0.412044	0.903497	-0.117949	-0.372742	-0.049020	0.926639
07603	0.961402	3.122002	8.940123	1.561018	-2.667278	0.048390	0.821084	0.424552	0.381545	-0.418352	0.902339	-0.103755	-0.388333	-0.074428	0.918509
07604	7.996167	4.200274	16.915706	1.523696	-3.347027	-0.560171	0.810092	0.416477	0.412672	-0.419797	0.903378	-0.087629	-0.409294	-0.102251	0.906655
07605	10.408050	3.064733	14.389056	1.406822	-3.114784	-1.168562	0.801928	0.402298	0.441664	-0.416238	0.906558	-0.069994	-0.428553	-0.127707	0.894446
07606	14.186575	5.668578	11.666129	1.082112	-2.938264	-0.879815	0.792722	0.390162	0.468364	-0.413884	0.908583	-0.056365	-0.447539	-0.149166	0.881736
07607	12.583645	-2.056287	10.902573	0.014670	-2.847312	-0.575129	0.782028	0.380503	0.493609	-0.409388	0.910791	-0.053496	-0.469930	-0.160242	0.868037
07608	14.874855	2.318968	12.032281	1.218326	-2.060865	-0.382954	0.773815	0.373412	0.511638	-0.412106	0.910212	-0.041026	-0.481018	-0.179102	0.858221
07609	26.409896	9.618222	13.718273	1.231813	-0.587005	-0.214067	0.771880	0.370353	0.516760	-0.416338	0.908735	-0.029394	-0.480484	-0.192458	0.855626
07610	-5.325531	2.675738	8.209816	-0.102060	0.568603	0.162987	0.773941	0.372765	0.511919	-0.416981	0.908385	-0.031051	-0.476594	-0.189429	0.858472
07611	11.382222	-3.629283	8.520894	-0.300573	-0.666707	0.149351	0.770119	0.372838	0.517599	-0.416656	0.908412	-0.034419	-0.483026	-0.189154	0.854931
07612	3.842913	2.199232	9.139695	0.868159	0.062239	0.027248	0.770324	0.373057	0.517136	-0.420918	0.906694	-0.027082	-0.478987	-0.196810	0.855475
07613	5.910715	-0.619639	8.749137	-0.281512	-0.175222	0.104720	0.769042	0.373640	0.518621	-0.420337	0.906870	-0.030055	-0.481551	-0.194882	0.854476
07614	5.478135	-0.010014	8.812785	0.279537	-0.098847	0.075113	0.768270	0.373977	0.519520	-0.422135	0.906100	-0.028001	-0.481209	-0.197796	0.853999
07615	5.550897	-0.648328	8.724983	0.051909	-0.142516	0.070936	0.767284	0.374315	0.520734	-0.422894	0.905748	-0.027951	-0.482116	-0.198769	0.853262
07616	5.407753	-0.370304	8.660251	0.133522	-0.108738	0.064144	0.766509	0.374529	0.521721	-0.423906	0.905301	-0.027091	-0.482460	-0.200395	0.852686
07617	5.478623	-0.707230	8.743525	0.123700	-0.098998	0.057846	0.765785	0.374831	0.522565	-0.424911	0.904851	-0.026362	-0.482725	-0.201856	0.852192
07618	5.467474	-0.488614	8.702539	0.138280	-0.084747	0.052769	0.765171	0.374989	0.523350	-0.425860	0.904432	-0.025407	-0.482862	-0.203434	0.851739
07619	5.347449	-0.570345	8.692931	0.151635	-0.067279	0.041566	0.764669	0.375205	0.523929	-0.426874	0.903983	-0.024357	-0.482762	-0.205027	0.851413
07620	5.407337	-0.334865	8.706292	0.180127	-0.071122	0.041873	0.764166	0.375292	0.524601	-0.427943	0.903513	-0.022991	-0.482612	-0.206931	0.851038
07621	5.455630	-0.127608	8.731166	0.190365	-0.066192	0.036906	0.763689	0.375464	0.525172	-0.429108	0.902995	-0.021588	-0.482334	-0.208869	0.850722
07622	5.395842	-0.366327	8.724599	0.187700	-0.078478	0.032556	0.763189	0.375449	0.525909	-0.430142	0.902537	-0.020112	-0.482203	-0.210866	0.850303
07623	5.464067	-0.229150	8.640090	0.218749	-0.076424	0.029548	0.762694	0.375530	0.526569	-0.431386	0.901979	-0.018431	-0.481876	-0.213097	0.849932
07624	5.500739	-0.263263	8.686366	0.197883	-0.080985	0.028527	0.762199	0.375471	0.527328	-0.432438	0.901506	-0.016850	-0.481716	-0.215194	0.849495
07625	5.632528	-0.041757	8.671351	0.213493	-0.072193	0.019745	0.761766	0.375470	0.527954	-0.433581	0.900987	-0.015165	-0.481373	-0.217359	0.849138
07626	5.580459	0.038304	8.719231	0.174573	-0.058325	0.022105	0.761407	0.375399	0.528521	-0.434472	0.900580	-0.013750	-0.481137	-0.219158	0.848809
07627	5.572776	-0.124008	8.666724	0.151860	-0.058395	0.015479	0.761059	0.375387	0.529031	-0.435284	0.900205	-0.012566	-0.480953	-0.220715	0.848510
07628	5.580052	-0.011219	8.667839	0.147137	-0.051884	0.010211	0.760783	0.375222	0.529545	-0.435953	0.899898	-0.011323	-0.480785	-0.222242	0.848207
07629	5.538609	-0.035056	8.681143	0.123525	-0.047001	0.008756	0.760520	0.375172	0.529958	-0.436577	0.899607	-0.010345	-0.480636	-0.223500	0.847961
07630	5.551913	0.034058	8.684182	0.121634	-0.049949	0.004111	0.760279	0.374956	0.530456	-0.437076	0.899376	-0.009287	-0.480562	-0.224789	0.847661
07631	5.479387	-0.025837	8.682230	0.098882	-0.054284	0.005047	0.759997	0.374855	0.530932	-0.437554	0.899152	-0.008499	-0.480574	-0.225852	0.847372
07632	5.494957	-0.072503	8.701555	0.083534	-0.062426	0.001596	0.759707	0.374588	0.531535	-0.437852	0.899014	-0.007752	-0.480761	-0.226845	0.847001
07633	5.504783	-0.207602	8.696525	0.080874	-0.071038	-0.003134	0.759380	0.374374	0.532153	-0.438181	0.898859	-0.007073	-0.480978	-0.227808	0.846619
07634	5.466145	-0.280099	8.652027	0.092933	-0.062236	-0.012103	0.759150	0.373984	0.532754	-0.438421	0.898748	-0.006175	-0.481121	-0.228883	0.846247
07635	5.506896	-0.181480	8.609699	0.101190	-0.067308	-0.022231	0.758924	0.373606	0.533341	-0.438703	0.898617	-0.005223	-0.481221	-0.230015	0.845884
07636	5.476450	-0.147232	8.627816	0.107901	-0.073515	-0.025730	0.758700	0.373067	0.534038	-0.438914	0.898520	-0.004127	-0.481383	-0.231265	0.845451
07637	5.442587	-0.229691	8.603679	0.105208	-0.078420	-0.031028	0.758459	0.372582	0.534717	-0.439149	0.898409	-0.003095	-0.481548	-0.232473	0.845025
07638	5.455132	-0.214097	8.658932	0.115262	-0.083288	-0.044568	0.758269	0.371851	0.535495	-0.439253	0.898361	-0.001838	-0.481751	-0.233825	0.844536
07639	5.420540	-0.180661	8.616955	0.137087	-0.087347	-0.053785	0.758085	0.371139	0.536249	-0.439470	0.898257	-0.000415	-0.481843	-0.235351	0.844060
07640	5.488498	-0.000003	8.584521	0.145724	-0.107703	-0.065346	0.757868	0.370162	0.537230	-0.439566	0.898210	0.001209	-0.482097	-0.237064	0.843435
07641	5.555831	0.013328	8.623283	0.137760	-0.113210	-0.065789	0.757612	0.369278	0.538198	-0.439695	0.898143	0.002702	-0.482381	-0.238690	0.842814
07642	5.625654	0.018494	8.511793	0.141569	-0.102550	-0.071131	0.757445	0.368259	0.539132	-0.439729	0.898120	0.004321	-0.482614	-0.240345	0.842210
07643	5.638402	0.152350	8.546760	0.145173	-0.109555	-0.076856	0.757254	0.367280	0.540066	-0.439812	0.898070	0.005936	-0.482837	-0.242022	0.841602
07644	5.624026	0.109384	8.567743	0.138484	-0.092649	-0.073569	0.757145	0.366261	0.540911	-0.439813	0.898058	0.007541	-0.483007	-0.243610	0.841046
07645	5.690226	0.206763	8.570272	0.132756	-0.091886	-0.073634	0.757025	0.365351	0.541693	-0.439861	0.898020	0.009034	-0.483151	-0.245108	0.840528
07646	5.555313	0.158266	8.614256	0.117315	-0.093147	-0.071178	0.756902	0.364349	0.542540	-0.439780	0.898045	0.010448	-0.483419	-0.246506	0.839965
07647	5.603317	0.182389	8.664190	0.116001	-0.097926	-0.069285	0.756734	0.363460	0.543370	-0.439780	0.898028	0.011776	-0.483682	-0.247874	0.839411
07648	5.503889	0.221589	8.666985	0.110763	-0.116153	-0.070060	0.756493	0.362409	0.544406	-0.439677	0.898060	0.013128	-0.484151	-0.249294	0.838719
07649	5.463311	0.027988	8.692520	0.106157	-0.131989	-0.071817	0.756170	0.361410	0.545518	-0.439612	0.898073	0.014388	-0.484715	-0.250696	0.837975
07650	5.497659	-0.019466	8.788131	0.107611	-0.152266	-0.083620	0.755812	0.360144	0.546850	-0.439394	0.898156	0.015787	-0.485471	-0.252215	0.837082
07651	5.275778	0.151030	8.921407	0.118211	-0.188187	-0.087737	0.755283	0.358855	0.548425	-0.439269	0.898190	0.017235	-0.486405	-0.253923	0.836022
07652	5.331511	-0.413621	8.735044	0.091842	-0.234874	-0.098316	0.754583	0.357244	0.550438	-0.438868	0.898359	0.018583	-0.487852	-0.255592	0.834669
07653	5.193578	0.165937	9.142649	0.212614	-0.300311	-0.112088	0.753608	0.355440	0.552935	-0.439025	0.898231	0.020952	-0.489216	-0.258542	0.832961
07654	5.153897	0.291098	9.113165	0.176597	-0.389842	-0.108435	0.752184	0.353325	0.556220	-0.438970	0.898206	0.023062	-0.491451	-0.261510	0.830715
07655	5.158862	0.307517	9.094955	0.187947	-0.468242	-0.100039	0.750316	0.351170	0.560094	-0.439108	0.898082	0.025158	-0.494176	-0.264818	0.828047
07656	5.347614	0.126878	9.089601	0.187386	-0.554554	-0.101760	0.748024	0.348652	0.564714	-0.439172	0.897987	0.027317	-0.497582	-0.268441	0.824835
07657	5.275739	0.098059	9.230513	0.206290	-0.622822	-0.113498	0.745412	0.345924	0.569822	-0.439318	0.897842	0.029638	-0.501358	-0.272426	0.821233
07658	5.371719	0.059991	9.004705	0.241340	-0.705962	-0.142466	0.742494	0.342583	0.575622	-0.439373	0.897718	0.032468	-0.505623	-0.277020	0.817071
07659	5.555649	0.682763	9.099105	0.263207	-0.791983	-0.165981	0.739200	0.338854	0.582032	-0.439444	0.897566	0.035553	-0.510365	-0.282051	0.812388
07660	5.516780	0.774172	9.173082	0.219663	-0.882798	-0.158425	0.735375	0.334799	0.589180	-0.439304	0.897522	0.038297	-0.515980	-0.286992	0.807094
07661	5.466803	0.887344	9.436169	0.188817	-1.011109	-0.157892	0.730818	0.330429	0.597262	-0.439090	0.897519	0.040732	-0.522595	-0.292020	0.801011
07662	5.094810	0.572055	9.666783	0.146481	-1.171521	-0.168386	0.725397	0.325347	0.606588	-0.438537	0.897686	0.042952	-0.530551	-0.297169	0.793855
07663	5.060905	0.470723	9.694086	0.120503	-1.378713	-0.190062	0.718849	0.319479	0.617405	-0.437772	0.897957	0.045049	-0.540011	-0.302666	0.785354
07664	5.069640	0.887976	10.059516	0.117981	-1.596817	-0.203386	0.711036	0.312655	0.629821	-0.436867	0.898283	0.047276	-0.550977	-0.308763	0.775300
07665	4.842423	0.990751	10.622328	0.056024	-1.871536	-0.218820	0.701556	0.304825	0.644128	-0.435595	0.898804	0.049084	-0.563982	-0.315014	0.763341
07666	4.526313	0.981624	10.909324	-0.025173	-2.195481	-0.269296	0.690183	0.295305	0.660638	-0.433485	0.899734	0.050690	-0.579430	-0.321362	0.748991
07667	3.885213	0.704406	11.672799	-0.022960	-2.604528	-0.375391	0.676478	0.283433	0.679738	-0.430745	0.900915	0.053021	-0.597358	-0.328661	0.731536
07668	3.418582	0.341734	12.403590	0.032900	-3.149421	-0.546466	0.659687	0.267908	0.702167	-0.427207	0.902351	0.057074	-0.618310	-0.337622	0.709721
07669	3.405252	-0.716061	11.937039	0.236850	-3.795376	-0.767483	0.639031	0.247909	0.728135	-0.423675	0.903536	0.064200	-0.641981	-0.349519	0.682420
07670	3.998548	-1.497722	12.520216	0.328615	-4.692597	-0.925969	0.612160	0.222714	0.758722	-0.419960	0.904577	0.073308	-0.669996	-0.363509	0.647277
07671	5.271947	-2.505888	12.519878	0.479873	-5.494805	-1.090126	0.579048	0.192409	0.792264	-0.416714	0.905078	0.084760	-0.700752	-0.379227	0.604263
07672	9.841142	-2.639924	13.237530	0.519940	-6.237311	-1.232727	0.539435	0.157033	0.827255	-0.413483	0.905245	0.097786	-0.733513	-0.394805	0.553251
07673	16.758842	-3.562640	14.238424	0.629510	-6.301378	-1.266824	0.497471	0.120197	0.859113	-0.411585	0.904490	0.111784	-0.763623	-0.409207	0.499429
07674	16.494417	-2.731811	13.187829	1.042745	-5.749909	-1.337095	0.458411	0.084104	0.884752	-0.413230	0.901528	0.128406	-0.786829	-0.424468	0.448025
07675	13.921710	-0.510389	12.637222	0.890049	-5.675674	-1.340768	0.418682	0.047573	0.906886	-0.414405	0.898599	0.144180	-0.808068	-0.436184	0.395941
07676	11.519431	-0.792694	11.794383	0.471737	-5.492544	-1.324790	0.379235	0.011535	0.925229	-0.412943	0.896934	0.158076	-0.828045	-0.442015	0.344912
07677	7.205762	-1.264368	10.096117	0.130522	-5.200879	-1.336939	0.341175	-0.023499	0.939706	-0.409177	0.896294	0.170972	-0.846270	-0.442838	0.296178
07678	1.915721	-3.007762	7.383773	-0.048009	-4.788096	-1.496099	0.306381	-0.058053	0.950137	-0.403900	0.895906	0.184981	-0.861972	-0.440435	0.251041
