// General information: 
//  MT Manager version: 2022.2.0 
//  XDA version: 2022.2.0 build 7381 rev 124627 built on 2023-07-19
// Device information: 
//  DeviceId: 00B4CAF0
//  ProductCode: MTW2-3A7G6
//  Firmware Version: 4.6.0
//  Hardware Version: 2.0.0
// Device settings: 
//  Filter Profile: human(46.1)
//  Option Flags: Orientation Smoother Disabled, Position/Velocity Smoother Disabled, Continuous Zero Rotation Update Disabled, AHS Disabled, ICC Disabled
// Coordinate system: ENU
PacketCounter	Acc_X	Acc_Y	Acc_Z	Gyr_X	Gyr_Y	Gyr_Z	Mat[1][1]	Mat[2][1]	Mat[3][1]	Mat[1][2]	Mat[2][2]	Mat[3][2]	Mat[1][3]	Mat[2][3]	Mat[3][3]
07720	5.112210	1.495825	8.851248	0.149081	-0.059319	-0.001479	-0.301639	-0.820172	0.486140	0.953320	-0.266925	0.141182	0.013969	0.506033	0.862401
07721	5.068739	1.387502	8.774842	0.196292	-0.062696	0.003842	-0.301615	-0.819853	0.486692	0.953351	-0.265914	0.142872	0.012284	0.507080	0.861811
07722	5.128796	1.622078	8.689590	0.220901	-0.058500	-0.006558	-0.301673	-0.819524	0.487211	0.953355	-0.264857	0.144792	0.010381	0.508165	0.861197
07723	5.002638	1.453904	8.858077	0.198270	-0.037027	-0.011832	-0.301803	-0.819284	0.487533	0.953331	-0.264002	0.146504	0.008681	0.508995	0.860726
07724	4.957093	1.521429	8.874714	0.169343	-0.036870	-0.016812	-0.301962	-0.819037	0.487850	0.953293	-0.263288	0.148028	0.007205	0.509763	0.860285
07725	4.785553	1.493482	8.965531	0.131228	-0.030423	-0.015931	-0.302149	-0.818812	0.488112	0.953242	-0.262767	0.149278	0.006029	0.510393	0.859920
07726	4.788896	1.604279	9.006869	0.102144	-0.040867	-0.016112	-0.302302	-0.818545	0.488464	0.953198	-0.262388	0.150220	0.005205	0.511015	0.859556
07727	4.698804	1.583971	8.855229	0.076012	-0.055819	-0.011569	-0.302442	-0.818188	0.488976	0.953156	-0.262204	0.150809	0.004821	0.511681	0.859162
07728	4.749367	1.595490	8.998817	0.051388	-0.070752	-0.005469	-0.302492	-0.817796	0.489600	0.953141	-0.261996	0.151262	0.004572	0.512414	0.858727
07729	5.002624	1.491393	8.834122	0.045246	-0.079922	-0.008403	-0.302606	-0.817335	0.490298	0.953106	-0.261832	0.151768	0.004330	0.513232	0.858239
07730	5.159852	1.535336	8.684972	0.030099	-0.070714	-0.011840	-0.302718	-0.816925	0.490912	0.953071	-0.261785	0.152069	0.004284	0.513908	0.857835
07731	5.086745	1.549354	8.899006	0.028749	-0.053988	-0.015273	-0.302910	-0.816565	0.491393	0.953010	-0.261777	0.152461	0.004141	0.514484	0.857490
07732	5.239750	1.470874	8.756194	0.031792	-0.050893	-0.012252	-0.303026	-0.816255	0.491835	0.952974	-0.261725	0.152779	0.004019	0.515002	0.857179
07733	5.147481	1.573862	8.746723	0.045592	-0.038725	-0.009310	-0.303110	-0.816054	0.492119	0.952949	-0.261552	0.153230	0.003670	0.515410	0.856936
07734	4.954589	1.557309	8.765177	0.033316	-0.038496	-0.003347	-0.303142	-0.815831	0.492468	0.952939	-0.261419	0.153518	0.003496	0.515830	0.856684
07735	4.913173	1.702537	8.657873	0.018183	-0.030890	-0.009791	-0.303281	-0.815597	0.492770	0.952895	-0.261492	0.153667	0.003525	0.516162	0.856484
07736	4.610887	1.458943	9.075732	0.004257	-0.056755	-0.010885	-0.303384	-0.815260	0.493264	0.952861	-0.261570	0.153742	0.003684	0.516655	0.856186
07737	4.891370	1.494762	8.856119	0.005500	-0.096499	-0.013027	-0.303560	-0.814665	0.494139	0.952804	-0.261748	0.153795	0.004049	0.517503	0.855672
07738	4.899932	1.445995	8.853156	-0.028114	-0.121005	-0.028076	-0.303824	-0.813948	0.495156	0.952717	-0.262134	0.153678	0.004711	0.518434	0.855105
07739	4.958088	1.448423	8.945662	-0.032803	-0.139345	-0.030761	-0.304134	-0.813127	0.496314	0.952613	-0.262617	0.153495	0.005530	0.519478	0.854466
07740	5.048979	1.709332	8.831118	-0.046534	-0.140806	-0.032375	-0.304436	-0.812293	0.497492	0.952511	-0.263133	0.153243	0.006429	0.520520	0.853826
07741	5.010376	1.659764	8.850894	-0.046455	-0.127008	-0.029625	-0.304742	-0.811520	0.498566	0.952406	-0.263714	0.152895	0.007401	0.521431	0.853261
07742	5.267453	1.699538	8.748853	-0.011463	-0.128472	-0.015594	-0.304882	-0.810792	0.499663	0.952357	-0.263912	0.152860	0.007929	0.522462	0.852626
07743	5.301071	1.577430	8.723480	0.028213	-0.117793	-0.003345	-0.304933	-0.810143	0.500683	0.952340	-0.263835	0.153103	0.008063	0.523506	0.851984
07744	5.211165	1.510356	8.768124	0.031379	-0.096322	0.002309	-0.304906	-0.809629	0.501532	0.952348	-0.263664	0.153343	0.008085	0.524388	0.851441
07745	5.268306	1.509685	8.714897	0.019285	-0.081018	0.000376	-0.304926	-0.809184	0.502236	0.952341	-0.263564	0.153558	0.008115	0.525124	0.850987
07746	5.225177	1.513968	8.759157	0.013327	-0.061180	-0.001623	-0.304939	-0.808842	0.502779	0.952337	-0.263519	0.153664	0.008201	0.525673	0.850647
07747	5.231773	1.584579	8.679697	0.002703	-0.050361	0.001135	-0.304965	-0.808543	0.503244	0.952327	-0.263541	0.153688	0.008362	0.526123	0.850368
07748	5.186900	1.609338	8.676012	-0.006341	-0.031926	0.003734	-0.304929	-0.808368	0.503546	0.952337	-0.263556	0.153600	0.008547	0.526383	0.850205
07749	5.213552	1.633542	8.698457	-0.009291	-0.015057	0.006397	-0.304831	-0.808376	0.503594	0.952366	-0.263560	0.153409	0.008715	0.526370	0.850211
07750	4.970301	1.636843	8.720118	-0.009231	-0.007464	0.004703	-0.304788	-0.808333	0.503689	0.952379	-0.263582	0.153292	0.008853	0.526424	0.850176
07751	4.944524	1.522186	8.895104	0.001275	-0.031910	0.006818	-0.304744	-0.808162	0.503990	0.952392	-0.263582	0.153214	0.009021	0.526687	0.850012
07752	5.046978	1.539796	8.771014	0.004255	-0.044202	0.004051	-0.304703	-0.807923	0.504396	0.952404	-0.263539	0.153215	0.009142	0.527074	0.849770
07753	5.124277	1.540117	8.793522	0.004214	-0.051898	0.001169	-0.304732	-0.807604	0.504891	0.952392	-0.263593	0.153193	0.009366	0.527537	0.849480
07754	5.129659	1.561359	8.716621	-0.000354	-0.050341	0.001117	-0.304719	-0.807325	0.505345	0.952394	-0.263598	0.153169	0.009550	0.527961	0.849215
07755	5.280960	1.557495	8.666201	0.011830	-0.051848	0.005774	-0.304633	-0.807137	0.505696	0.952422	-0.263445	0.153261	0.009520	0.528325	0.848989
07756	5.310594	1.603025	8.563978	0.028726	-0.036709	0.005494	-0.304580	-0.806941	0.506041	0.952441	-0.263261	0.153462	0.009386	0.528715	0.848747
07757	5.311997	1.608822	8.635532	0.035061	-0.004751	0.003271	-0.304564	-0.806912	0.506096	0.952448	-0.263101	0.153691	0.009139	0.528839	0.848673
07758	5.238565	1.635940	8.609443	0.036768	0.022801	0.007233	-0.304500	-0.807036	0.505938	0.952472	-0.262860	0.153952	0.008746	0.528770	0.848720
07759	5.162789	1.663790	8.609103	0.029307	0.047296	0.008177	-0.304434	-0.807292	0.505568	0.952496	-0.262706	0.154068	0.008438	0.528455	0.848919
07760	5.085169	1.695067	8.707144	0.018620	0.052192	0.018711	-0.304262	-0.807601	0.505178	0.952554	-0.262469	0.154116	0.008129	0.528101	0.849143
07761	5.105222	1.669720	8.686420	0.018599	0.052333	0.024813	-0.304072	-0.807909	0.504801	0.952617	-0.262193	0.154192	0.007782	0.527767	0.849353
07762	5.124906	1.643588	8.666100	0.007971	0.063229	0.030624	-0.303787	-0.808306	0.504335	0.952710	-0.261916	0.154090	0.007541	0.527296	0.849648
07763	4.897008	1.556849	8.866899	-0.004246	0.064951	0.035110	-0.303499	-0.808727	0.503834	0.952804	-0.261651	0.153961	0.007316	0.526782	0.849969
07764	5.013626	1.479726	8.874219	0.000145	0.045262	0.043218	-0.303093	-0.809062	0.503540	0.952934	-0.261313	0.153729	0.007205	0.526435	0.850185
07765	5.083629	1.423968	8.806247	-0.009039	0.039126	0.038736	-0.302749	-0.809369	0.503254	0.953043	-0.261063	0.153475	0.007163	0.526088	0.850400
07766	5.078402	1.304546	8.935449	-0.021386	0.017691	0.031537	-0.302453	-0.809528	0.503177	0.953136	-0.260933	0.153120	0.007340	0.525907	0.850510
07767	5.132160	1.487470	8.756869	-0.024625	-0.008358	0.026013	-0.302203	-0.809563	0.503270	0.953213	-0.260901	0.152698	0.007685	0.525869	0.850531
07768	5.106914	1.367097	8.858991	-0.026318	-0.034522	0.015918	-0.302051	-0.809407	0.503612	0.953258	-0.260922	0.152379	0.008067	0.526098	0.850385
07769	5.066598	1.605524	8.772653	-0.020286	-0.042165	0.017648	-0.301932	-0.809184	0.504043	0.953292	-0.260934	0.152141	0.008412	0.526436	0.850173
07770	5.024032	1.674499	8.717994	-0.020412	-0.054265	0.022500	-0.301715	-0.808941	0.504562	0.953358	-0.260872	0.151839	0.008798	0.526840	0.849919
07771	4.882251	1.657365	8.885335	-0.017651	-0.084662	0.029302	-0.301490	-0.808495	0.505411	0.953424	-0.260833	0.151492	0.009347	0.527544	0.849477
07772	4.965970	1.701645	8.879034	-0.013427	-0.117919	0.045329	-0.301049	-0.807974	0.506505	0.953558	-0.260550	0.151134	0.009858	0.528480	0.848888
07773	5.025604	1.597541	8.828699	-0.009084	-0.140636	0.055011	-0.300562	-0.807333	0.507815	0.953705	-0.260224	0.150764	0.010429	0.529620	0.848171
07774	5.086910	1.498663	8.898786	-0.006321	-0.169442	0.064822	-0.299928	-0.806586	0.509374	0.953898	-0.259747	0.150366	0.011025	0.530989	0.847307
07775	5.197989	1.318692	8.824732	-0.011015	-0.181568	0.066612	-0.299331	-0.805762	0.511027	0.954079	-0.259287	0.150015	0.011626	0.532464	0.846373
07776	5.140614	1.273425	8.890210	0.056148	-0.182433	0.057539	-0.298763	-0.804921	0.512681	0.954256	-0.258537	0.150181	0.011663	0.534098	0.845342
07777	5.109095	1.274057	8.831124	0.046885	-0.193224	0.048626	-0.298342	-0.803955	0.514440	0.954385	-0.257978	0.150320	0.011864	0.535821	0.844248
07778	5.176247	1.299915	8.843789	0.034636	-0.196392	0.038027	-0.297958	-0.802982	0.516179	0.954502	-0.257500	0.150402	0.012146	0.537507	0.843172
07779	4.923065	1.142015	8.988480	0.003969	-0.205783	0.013882	-0.297871	-0.801855	0.517978	0.954521	-0.257422	0.150411	0.012731	0.539224	0.842066
07780	5.290946	1.470137	8.837644	0.000598	-0.234874	0.008459	-0.297763	-0.800591	0.519992	0.954545	-0.257364	0.150358	0.013452	0.541127	0.840834
07781	5.240307	1.545583	8.822152	0.023430	-0.239801	0.003902	-0.297704	-0.799337	0.521951	0.954557	-0.257193	0.150572	0.013884	0.543058	0.839581
07782	5.358629	1.542701	8.759329	0.017341	-0.241157	0.008548	-0.297591	-0.798030	0.524011	0.954584	-0.257044	0.150659	0.014463	0.545047	0.838281
07783	5.210062	1.477928	8.848917	-0.004309	-0.266932	0.006240	-0.297502	-0.796608	0.526220	0.954598	-0.257054	0.150552	0.015336	0.547118	0.836915
07784	5.223615	2.136619	8.804224	0.021750	-0.274311	0.029107	-0.297184	-0.795162	0.528582	0.954687	-0.256716	0.150566	0.015971	0.549376	0.835423
07785	5.147844	1.851409	8.926712	0.014173	-0.287499	0.049333	-0.296782	-0.793613	0.531131	0.954799	-0.256333	0.150505	0.016704	0.551790	0.833816
07786	4.985570	1.792634	9.186939	0.001950	-0.318726	0.079204	-0.295974	-0.792035	0.533929	0.955033	-0.255708	0.150085	0.017657	0.554341	0.832103
07787	4.876764	1.705784	9.421855	0.007842	-0.368540	0.106260	-0.294938	-0.790233	0.537162	0.955332	-0.254906	0.149543	0.018752	0.557274	0.830117
07788	4.826499	1.383141	9.883839	-0.002080	-0.458055	0.125311	-0.293655	-0.787974	0.541169	0.955699	-0.253943	0.148836	0.020147	0.560902	0.827637
07789	4.814204	1.411914	10.055016	0.001362	-0.581280	0.146493	-0.292155	-0.785082	0.546161	0.956120	-0.252836	0.148012	0.021888	0.565438	0.824500
07790	4.732149	2.097850	10.658098	-0.008841	-0.720775	0.183598	-0.290237	-0.781431	0.552384	0.956651	-0.251463	0.146918	0.024098	0.571080	0.820541
07791	4.761586	3.019691	10.776148	-0.101271	-0.908699	0.257384	-0.287602	-0.776842	0.560180	0.957348	-0.250135	0.144630	0.027766	0.577883	0.815647
07792	4.763849	3.160158	10.757257	-0.276719	-1.100778	0.362951	-0.283791	-0.771325	0.569667	0.958298	-0.248950	0.140317	0.033589	0.585732	0.809809
07793	4.707334	2.358638	10.729275	-0.297148	-1.286049	0.479293	-0.278794	-0.764904	0.580686	0.959512	-0.247137	0.135133	0.040145	0.594849	0.802835
07794	4.374607	2.373016	10.883085	-0.394883	-1.490564	0.571564	-0.272651	-0.757348	0.593368	0.960911	-0.245171	0.128611	0.048073	0.605240	0.794590
07795	4.367036	2.236678	10.843258	-0.435636	-1.741015	0.657897	-0.265561	-0.748212	0.607994	0.962401	-0.243094	0.121203	0.057115	0.617320	0.784636
07796	4.495613	2.052243	11.077483	-0.404698	-2.037931	0.760887	-0.256976	-0.737305	0.624776	0.964136	-0.239986	0.113349	0.066365	0.631497	0.772533
07797	3.831559	3.003193	10.823075	-0.299693	-2.358092	0.858721	-0.247166	-0.724203	0.643769	0.966038	-0.235840	0.105590	0.075358	0.648004	0.757900
07798	2.794380	4.921838	10.705909	-0.492448	-2.948852	1.019020	-0.234915	-0.707160	0.666888	0.968092	-0.231804	0.095213	0.087256	0.667975	0.739050
07799	3.063787	5.094759	10.490866	-0.806973	-3.565056	1.238107	-0.219621	-0.685736	0.693926	0.970085	-0.228923	0.080802	0.103446	0.690913	0.715499
07800	6.219495	5.994691	10.753581	-1.003768	-4.124291	1.501078	-0.200396	-0.660102	0.723952	0.972104	-0.225902	0.063108	0.121884	0.716403	0.686958
07801	7.532196	6.113153	11.088601	-1.168618	-4.356858	1.854022	-0.176834	-0.632291	0.754280	0.973958	-0.222899	0.041485	0.141897	0.741973	0.655241
07802	10.447730	5.434234	11.377497	-1.296632	-4.565562	2.157330	-0.148863	-0.602577	0.784054	0.975498	-0.219382	0.016607	0.162001	0.767315	0.620470
07803	15.474471	5.901372	13.007392	-1.168259	-4.492097	2.351096	-0.118357	-0.572447	0.811355	0.976523	-0.215206	-0.009386	0.179982	0.791196	0.584479
07804	12.311167	8.026084	12.663989	-1.271087	-4.016831	2.707990	-0.084340	-0.545998	0.833531	0.976871	-0.210264	-0.038889	0.196495	0.810972	0.551103
07805	9.538549	7.350925	12.347122	-1.646911	-3.997086	3.000003	-0.046923	-0.519144	0.853398	0.975270	-0.208533	-0.073232	0.215979	0.828857	0.516091
07806	8.679078	5.119588	12.320890	-1.783212	-3.960689	3.182917	-0.007000	-0.492577	0.870241	0.972106	-0.207379	-0.109561	0.234437	0.845199	0.480289
07807	8.540186	5.780414	12.409101	-1.662746	-3.886851	3.350169	0.034815	-0.466261	0.883962	0.967489	-0.205983	-0.146754	0.250507	0.860332	0.443931
07808	7.537409	6.828558	12.002934	-1.558078	-3.657970	3.402274	0.077044	-0.441486	0.893954	0.961575	-0.204072	-0.183654	0.263512	0.873753	0.408799
07809	0.909997	5.994827	10.285432	-1.519878	-3.681897	3.374428	0.119083	-0.416077	0.901498	0.954123	-0.203264	-0.219849	0.274717	0.886320	0.372783
07810	-3.578949	4.731039	7.812673	-1.653659	-3.997000	3.253560	0.161172	-0.387001	0.907884	0.944929	-0.204985	-0.255127	0.284837	0.899006	0.332651
07811	6.169679	9.151016	7.615448	-2.409626	-4.347549	2.093918	0.193308	-0.352334	0.915693	0.934130	-0.219332	-0.281593	0.300055	0.909810	0.286727
07812	27.167840	5.294388	11.790165	-1.693797	-1.289988	-0.832697	0.189504	-0.338660	0.921628	0.930523	-0.237648	-0.278659	0.313394	0.910403	0.270096
07813	15.586992	15.291612	17.058605	-1.601809	1.184920	-2.687109	0.160401	-0.342919	0.925569	0.930020	-0.261623	-0.258103	0.330659	0.902197	0.276957
07814	3.600212	13.250214	10.210432	-2.042757	2.516791	-3.610735	0.118246	-0.355411	0.927201	0.928058	-0.292542	-0.230492	0.353165	0.887751	0.295250
07815	-2.728285	10.874053	7.388646	-2.392821	2.651972	-3.846176	0.072586	-0.367026	0.927374	0.922896	-0.327824	-0.201978	0.378146	0.870530	0.314932
07816	-2.591154	6.241584	6.463992	-2.619050	2.519704	-3.778761	0.028017	-0.375622	0.926350	0.914550	-0.364445	-0.175437	0.403502	0.852108	0.333314
07817	-0.533592	0.634848	6.243897	-2.276115	2.427964	-3.653672	-0.015691	-0.382376	0.923874	0.905214	-0.397867	-0.149296	0.424667	0.833961	0.352375
07818	0.778067	-2.086914	6.342822	-1.347902	2.516111	-3.431530	-0.057461	-0.389068	0.919415	0.898147	-0.422270	-0.122559	0.435925	0.818728	0.373704
07819	1.622493	-2.693559	6.431637	-0.277865	2.666986	-3.054970	-0.096910	-0.397810	0.912335	0.894387	-0.436973	-0.095532	0.436670	0.806723	0.398143
07820	1.597422	-1.007655	6.688486	0.536511	2.840074	-2.669807	-0.133066	-0.408812	0.902866	0.893626	-0.443462	-0.069092	0.428632	0.797631	0.424335
07821	2.146602	1.106031	6.773175	0.841031	2.979986	-2.227859	-0.166032	-0.422700	0.890931	0.893621	-0.446529	-0.045321	0.416984	0.788629	0.451872
07822	3.224257	2.058317	7.080119	0.837270	3.124187	-1.805960	-0.194995	-0.439084	0.877030	0.893785	-0.447773	-0.025457	0.403888	0.778912	0.479760
07823	4.776880	2.244309	7.448329	0.726594	3.296415	-1.458754	-0.221618	-0.458157	0.860800	0.893378	-0.449214	-0.009087	0.390847	0.767006	0.508861
07824	6.020026	1.831739	7.640374	0.596802	3.522765	-1.227871	-0.246116	-0.479384	0.842388	0.892786	-0.450459	0.004494	0.377307	0.753178	0.538853
07825	6.799466	0.940858	7.716443	0.587101	3.750207	-1.079551	-0.270145	-0.502556	0.821255	0.891898	-0.451923	0.016834	0.362684	0.737023	0.570313
07826	7.785550	-0.010400	7.783462	0.738726	3.961862	-0.985056	-0.292952	-0.526944	0.797815	0.891725	-0.451638	0.029135	0.344971	0.719968	0.602197
07827	8.323569	-1.009744	7.662803	1.007683	4.161906	-0.933268	-0.315733	-0.552380	0.771485	0.891967	-0.450070	0.042792	0.323585	0.701651	0.634806
07828	7.937057	-1.419684	7.589637	1.338816	4.280556	-0.894630	-0.337022	-0.577995	0.743195	0.893194	-0.445880	0.058274	0.297693	0.683456	0.666533
07829	7.240302	-1.354457	7.579343	1.634543	4.254137	-0.824906	-0.357003	-0.603044	0.713363	0.894665	-0.440307	0.075521	0.268556	0.665183	0.696713
07830	7.111473	-0.874695	7.651851	1.858882	4.137166	-0.696029	-0.373701	-0.627146	0.683400	0.896808	-0.432410	0.093581	0.236820	0.647849	0.724022
07831	7.797435	0.556096	7.934116	1.970352	3.987649	-0.504325	-0.387599	-0.650451	0.653208	0.898936	-0.423638	0.111558	0.204161	0.630432	0.748915
07832	7.716919	1.532167	8.203541	1.913683	3.874030	-0.389765	-0.398398	-0.672879	0.623308	0.900990	-0.414347	0.128583	0.171745	0.612821	0.771332
07833	7.221783	2.489111	8.863153	1.769431	3.681714	-0.476066	-0.409031	-0.693092	0.593564	0.901544	-0.407524	0.145405	0.141112	0.594599	0.791543
07834	7.252699	3.632536	9.550222	1.532012	3.450946	-0.721603	-0.419930	-0.710353	0.564852	0.900489	-0.403644	0.161835	0.113039	0.576602	0.809167
07835	8.451161	3.771878	10.382075	1.261374	3.251999	-1.054067	-0.433255	-0.724451	0.536153	0.896967	-0.404660	0.178045	0.087974	0.558051	0.825130
07836	11.167761	2.570397	10.408348	1.136013	3.212108	-1.406507	-0.448285	-0.736333	0.506808	0.891619	-0.408730	0.194823	0.063693	0.539216	0.839755
07837	13.667773	1.046252	9.764390	1.207751	3.342124	-1.741377	-0.466004	-0.746715	0.474612	0.883975	-0.415842	0.213691	0.037797	0.519126	0.853862
07838	14.218301	-0.756154	8.363032	1.387383	3.524852	-2.002788	-0.484457	-0.756221	0.439809	0.874770	-0.423863	0.234770	0.008881	0.498468	0.866863
07839	14.479205	-1.674540	6.971381	1.663149	3.500884	-2.111647	-0.503080	-0.764135	0.403743	0.863939	-0.432330	0.258265	-0.022799	0.478737	0.877662
07840	15.351731	-3.394539	5.873100	1.982036	3.293514	-2.078192	-0.519628	-0.770554	0.369097	0.852515	-0.438983	0.283748	-0.056616	0.462104	0.885016
07841	16.954887	-3.998061	5.523974	2.355832	3.014562	-1.978454	-0.534562	-0.775387	0.336182	0.840062	-0.444017	0.311680	-0.092402	0.449026	0.888728
07842	17.463322	-3.555586	5.636745	2.650463	2.764961	-1.804670	-0.546563	-0.779615	0.305729	0.827358	-0.446305	0.341014	-0.129411	0.439333	0.888954
07843	17.671303	-2.347710	5.828173	2.701089	2.537112	-1.570384	-0.556062	-0.783488	0.277385	0.814488	-0.447205	0.369617	-0.165543	0.431456	0.886815
07844	17.219521	-1.328099	5.114725	2.396814	2.381407	-1.233122	-0.561727	-0.788136	0.251604	0.803230	-0.446679	0.394080	-0.198202	0.423462	0.883966
07845	16.231913	-2.030206	3.927096	1.968540	2.187063	-0.933139	-0.564793	-0.793009	0.228354	0.793621	-0.446093	0.413724	-0.226219	0.414895	0.881298
07846	15.856721	-2.987790	2.851866	1.529840	1.866124	-0.718497	-0.566058	-0.797454	0.208918	0.785920	-0.445550	0.428737	-0.248814	0.406882	0.878942
07847	16.070526	-3.316578	2.073318	1.139278	1.428013	-0.548611	-0.566850	-0.800682	0.193882	0.779760	-0.445527	0.439864	-0.265811	0.400518	0.876886
07848	10.575269	7.281672	6.824871	0.725038	0.928726	-0.655896	-0.569450	-0.801432	0.182849	0.774064	-0.447921	0.447428	-0.276681	0.396325	0.875428
07849	18.385875	-5.094581	-5.644792	-2.095736	-1.379628	0.307832	-0.570803	-0.797287	0.196257	0.781292	-0.453887	0.428450	-0.252520	0.397894	0.881994
07850	17.785576	1.998908	-2.474177	-1.765695	-1.574766	-0.612324	-0.579409	-0.788150	0.207615	0.782023	-0.465835	0.414051	-0.229620	0.402265	0.886260
07851	4.305659	-5.240646	5.874249	-2.874668	-1.457871	-0.408141	-0.585718	-0.780376	0.218971	0.785803	-0.480541	0.389351	-0.198616	0.400118	0.894683
07852	11.614296	6.669322	15.588724	-1.374774	-1.433920	-1.265844	-0.598366	-0.768405	0.226963	0.780900	-0.495904	0.379835	-0.179316	0.404516	0.896779
07853	-0.258017	9.409640	10.654601	-2.298224	-0.671638	-1.613089	-0.612017	-0.757551	0.227049	0.775025	-0.517389	0.362828	-0.157388	0.398026	0.903772
07854	-4.034826	4.451363	7.890015	-2.425341	-1.638441	-1.447698	-0.625560	-0.743372	0.236796	0.769525	-0.537931	0.344183	-0.128476	0.397527	0.908552
07855	3.641560	-0.867084	8.547579	-1.969925	-2.492194	-1.220741	-0.637727	-0.726706	0.255349	0.764048	-0.554785	0.329310	-0.097647	0.405109	0.909039
07856	7.639738	-0.191277	11.418791	-1.912089	-2.306446	-1.179230	-0.648633	-0.710633	0.272537	0.758038	-0.571090	0.315015	-0.068217	0.410923	0.909114
07857	2.039379	-4.503221	12.559586	-1.697450	-2.106517	-0.943891	-0.656909	-0.696471	0.288788	0.752819	-0.584727	0.302255	-0.041650	0.415959	0.908429
07858	2.236160	-10.192325	12.810847	-1.216169	-2.468242	-0.238764	-0.659435	-0.684654	0.310473	0.751586	-0.591523	0.291923	-0.016214	0.425852	0.904648
07859	6.563237	-11.992034	14.448899	-0.854647	-2.406749	0.570436	-0.655285	-0.677614	0.333827	0.755357	-0.591360	0.282363	0.006078	0.437187	0.899350
07860	8.775940	-9.317971	14.041555	-0.238226	-2.053732	0.959406	-0.647742	-0.674131	0.354933	0.761561	-0.585960	0.276903	0.021307	0.449665	0.892943
07861	8.481883	0.820254	12.258761	-0.006007	-1.684029	1.016417	-0.639569	-0.672335	0.372717	0.768056	-0.579226	0.273105	0.032270	0.460937	0.886846
07862	7.688642	7.122073	10.191238	-0.138618	-1.507843	0.852622	-0.632445	-0.670207	0.388377	0.773413	-0.574177	0.268614	0.042970	0.470259	0.881482
07863	11.160427	11.765550	10.259446	-0.727104	-1.406987	0.873789	-0.624991	-0.668521	0.403071	0.778509	-0.571829	0.258718	0.057529	0.475491	0.877837
07864	9.167422	3.772705	9.210801	-0.996701	-0.781799	0.711249	-0.618956	-0.668848	0.411748	0.782281	-0.571839	0.247055	0.070211	0.475019	0.877170
07865	4.783105	0.637878	9.578825	-0.731078	-0.677638	0.637772	-0.613445	-0.669253	0.419268	0.785658	-0.571062	0.237970	0.080166	0.475382	0.876119
07866	5.685583	3.075935	9.386593	-0.307856	-0.898417	0.580470	-0.608133	-0.668246	0.428510	0.788929	-0.568679	0.232798	0.088119	0.479636	0.873032
07867	6.288969	3.672730	9.123918	-0.483844	-0.727888	0.485436	-0.603624	-0.667486	0.436005	0.791419	-0.567780	0.226453	0.096401	0.481756	0.870987
07868	5.752315	1.152120	9.447236	-0.500698	-0.626765	0.417646	-0.599700	-0.666808	0.442411	0.793415	-0.567438	0.220244	0.104180	0.483095	0.869348
07869	4.726597	0.790086	9.544778	-0.381498	-0.566432	0.356299	-0.596254	-0.666070	0.448142	0.795134	-0.566921	0.215318	0.110644	0.484717	0.867644
07870	5.596678	1.174467	9.495055	-0.311560	-0.598977	0.305728	-0.593154	-0.664868	0.454004	0.796582	-0.566429	0.211221	0.116727	0.486938	0.865602
07871	5.821562	0.807247	9.691258	-0.343065	-0.441015	0.241080	-0.590701	-0.664064	0.458357	0.797596	-0.566515	0.207126	0.122122	0.487933	0.864296
07872	5.620408	0.123760	10.044252	-0.318338	-0.379755	0.184314	-0.588770	-0.663230	0.462035	0.798270	-0.566876	0.203510	0.126942	0.488649	0.863196
07873	5.949475	0.722282	9.601928	-0.205369	-0.288898	0.142514	-0.587258	-0.662603	0.464850	0.798837	-0.566956	0.201047	0.130335	0.489406	0.862261
07874	5.558623	1.826055	9.240298	-0.193325	-0.204078	0.110125	-0.586122	-0.662204	0.466848	0.799213	-0.567202	0.198850	0.133118	0.489661	0.861691
07875	5.586282	1.937432	9.195764	-0.188335	-0.123476	0.080807	-0.585307	-0.662036	0.468106	0.799426	-0.567610	0.196818	0.135401	0.489415	0.861475
07876	4.958407	2.004815	8.920783	-0.172978	-0.049721	0.068243	-0.584707	-0.662156	0.468687	0.799573	-0.568033	0.194990	0.137116	0.488762	0.861575
07877	4.674375	2.536085	8.677252	-0.128045	-0.061577	0.065973	-0.584091	-0.662208	0.469381	0.799775	-0.568242	0.193547	0.138554	0.488448	0.861523
07878	4.807634	2.437235	8.595360	-0.165550	-0.047471	0.077533	-0.583417	-0.662392	0.469958	0.799981	-0.568566	0.191739	0.140196	0.487821	0.861612
07879	4.056232	2.482051	8.497558	-0.206014	-0.044024	0.111807	-0.582457	-0.662793	0.470585	0.800336	-0.568848	0.189408	0.142153	0.486948	0.861786
07880	4.469715	2.902184	8.846928	-0.244782	-0.137521	0.144886	-0.581112	-0.662923	0.472061	0.800811	-0.569107	0.186599	0.144953	0.486467	0.861591
07881	4.821065	2.069309	8.648279	-0.316311	-0.080207	0.150882	-0.579783	-0.663371	0.473065	0.801216	-0.569662	0.183133	0.148002	0.485204	0.861784
07882	4.550604	2.128229	8.690203	-0.290287	-0.100077	0.160514	-0.578359	-0.663776	0.474238	0.801695	-0.570033	0.179854	0.150948	0.484214	0.861830
07883	5.151597	2.261340	8.985634	-0.294697	-0.145276	0.156721	-0.576878	-0.663946	0.475801	0.802143	-0.570437	0.176543	0.154199	0.483505	0.861653
07884	5.220876	1.242839	8.814594	-0.237794	-0.069332	0.126124	-0.575771	-0.664306	0.476639	0.802484	-0.570777	0.173877	0.156547	0.482608	0.861732
07885	4.866798	1.415404	9.088656	-0.210090	-0.081091	0.100602	-0.574833	-0.664469	0.477544	0.802724	-0.571140	0.171560	0.158748	0.481955	0.861695
07886	4.992950	1.338511	9.176747	-0.214002	-0.097924	0.087361	-0.573987	-0.664472	0.478556	0.802867	-0.571619	0.169282	0.161069	0.481383	0.861584
07887	5.130188	1.583711	8.952621	-0.146687	-0.095032	0.065396	-0.573307	-0.664367	0.479517	0.802996	-0.571911	0.167679	0.162841	0.481181	0.861364
07888	5.081634	1.587531	8.856517	-0.152877	-0.062672	0.050203	-0.572813	-0.664328	0.480160	0.803016	-0.572341	0.166104	0.164468	0.480723	0.861311
07889	4.866348	2.176707	8.606959	-0.122096	-0.084443	0.047204	-0.572294	-0.664171	0.480996	0.803076	-0.572635	0.164799	0.165980	0.480590	0.861095
07890	4.675988	1.699105	8.783751	-0.212149	-0.090412	0.067627	-0.571611	-0.664099	0.481905	0.803091	-0.573233	0.162630	0.168241	0.479975	0.860999
07891	4.817589	2.195771	8.614621	-0.184424	-0.089898	0.072018	-0.570880	-0.664059	0.482826	0.803181	-0.573660	0.160670	0.170283	0.479520	0.860851
07892	4.691094	1.851202	8.852853	-0.229373	-0.110414	0.078893	-0.570069	-0.663959	0.483922	0.803220	-0.574264	0.158297	0.172796	0.478936	0.860675
07893	5.046549	1.780694	8.784369	-0.184539	-0.133525	0.078623	-0.569204	-0.663749	0.485225	0.803338	-0.574645	0.156304	0.175085	0.478769	0.860306
07894	4.919552	1.628328	8.917935	-0.165570	-0.126022	0.074227	-0.568398	-0.663548	0.486444	0.803451	-0.574974	0.154503	0.177173	0.478653	0.859943
07895	4.601696	1.804966	9.071145	-0.123957	-0.170156	0.081885	-0.567436	-0.663183	0.488062	0.803685	-0.575044	0.153015	0.179181	0.479075	0.859291
07896	5.344772	0.738094	8.934623	0.003770	-0.192547	0.052866	-0.566677	-0.662538	0.489817	0.803975	-0.574705	0.152772	0.180283	0.480373	0.858336
07897	5.148397	1.866324	8.796540	-0.014203	-0.207588	0.056745	-0.565846	-0.661844	0.491713	0.804259	-0.574419	0.152348	0.181618	0.481670	0.857326
07898	5.030147	1.531468	8.876913	-0.029733	-0.161772	0.055132	-0.565119	-0.661356	0.493203	0.804500	-0.574226	0.151805	0.182813	0.482569	0.856567
07899	5.143507	1.625639	8.704019	-0.022489	-0.179997	0.066219	-0.564257	-0.660844	0.494873	0.804821	-0.573918	0.151263	0.184056	0.483635	0.855699
07900	4.958190	1.717751	8.888500	-0.027724	-0.175906	0.063439	-0.563433	-0.660332	0.496493	0.805110	-0.573662	0.150694	0.185311	0.484638	0.854860
07901	4.917158	1.655280	8.998743	-0.016383	-0.191372	0.063812	-0.562565	-0.659747	0.498252	0.805428	-0.573342	0.150215	0.186565	0.485812	0.853921
07902	4.766384	1.811525	8.966885	0.006473	-0.232767	0.083943	-0.561464	-0.659070	0.500384	0.805894	-0.572786	0.149834	0.187861	0.487383	0.852740
07903	4.658422	1.838989	9.038191	0.058761	-0.285961	0.108940	-0.560050	-0.658274	0.503010	0.806604	-0.571804	0.149767	0.189036	0.489607	0.851205
07904	4.966407	1.292216	9.089555	0.050780	-0.351299	0.124943	-0.558386	-0.657239	0.506204	0.807382	-0.570762	0.149552	0.190631	0.492208	0.849348
07905	4.222474	1.511108	9.684651	0.085452	-0.344184	0.133844	-0.556651	-0.656279	0.509350	0.808278	-0.569486	0.149576	0.191904	0.494958	0.847461
07906	5.276045	1.088395	9.157319	0.128172	-0.505033	0.131895	-0.554622	-0.654495	0.513840	0.809240	-0.568014	0.149969	0.193714	0.498996	0.844676
07907	4.625150	1.363984	9.356232	0.144157	-0.466356	0.113692	-0.552802	-0.652778	0.517967	0.810134	-0.566578	0.150577	0.195176	0.502862	0.842043
07908	5.324704	1.167779	9.088165	0.127419	-0.530907	0.099154	-0.550968	-0.650634	0.522599	0.810913	-0.565317	0.151116	0.197113	0.507043	0.839079
07909	4.998297	1.231989	9.413249	0.131580	-0.578896	0.085047	-0.549141	-0.648139	0.527598	0.811623	-0.564127	0.151749	0.199278	0.511542	0.835831
07910	4.997219	1.673444	9.458836	0.169951	-0.648437	0.091577	-0.547109	-0.645296	0.533164	0.812448	-0.562691	0.152666	0.201492	0.516693	0.832123
07911	4.787940	2.100058	9.590691	0.194238	-0.734999	0.118994	-0.544665	-0.642118	0.539467	0.813471	-0.560952	0.153618	0.203974	0.522510	0.827875
07912	4.756876	1.823156	9.799180	0.212048	-0.829051	0.153782	-0.541721	-0.638595	0.546566	0.814724	-0.558882	0.154518	0.206791	0.529006	0.823037
07913	4.910082	1.830682	9.893781	0.187149	-0.956072	0.209909	-0.538032	-0.634645	0.554750	0.816224	-0.556590	0.154876	0.210477	0.536128	0.817475
07914	4.846227	2.190932	10.094652	0.167060	-1.106129	0.273660	-0.533453	-0.630165	0.564199	0.818028	-0.553987	0.154691	0.215078	0.544051	0.811018
07915	4.260344	2.735738	10.851955	0.022045	-1.322480	0.386382	-0.527420	-0.625019	0.575482	0.820098	-0.551488	0.152647	0.221964	0.552460	0.803442
07916	4.187435	3.319289	11.088323	-0.146370	-1.632057	0.487482	-0.519725	-0.618583	0.589272	0.822300	-0.549302	0.148625	0.231751	0.561802	0.794147
07917	4.150866	2.512271	11.521899	-0.243239	-1.943750	0.555896	-0.510554	-0.610575	0.605419	0.824552	-0.547321	0.143367	0.243822	0.572396	0.782888
07918	3.472693	3.184445	12.592138	-0.310279	-2.288127	0.693323	-0.499096	-0.601098	0.624166	0.827255	-0.544946	0.136685	0.257976	0.584564	0.769242
07919	2.833762	2.378754	13.027204	-0.314231	-2.787594	0.782266	-0.485233	-0.588813	0.646412	0.830226	-0.542222	0.129307	0.274361	0.599412	0.751952
07920	-0.542711	5.024129	12.810791	-0.446199	-3.694864	0.947203	-0.466830	-0.571407	0.674954	0.833444	-0.539475	0.119736	0.295703	0.618434	0.728079
07921	0.969815	6.072819	13.335619	-0.771823	-4.874205	1.270255	-0.441165	-0.547499	0.711068	0.836760	-0.537326	0.105423	0.324356	0.641502	0.695175
07922	3.481753	5.942302	13.750845	-1.103198	-5.675150	1.657757	-0.407909	-0.519259	0.750986	0.840016	-0.535726	0.085846	0.357746	0.665858	0.654714
07923	4.566009	4.554727	12.692703	-0.969605	-6.517252	2.047103	-0.366322	-0.485854	0.793570	0.844239	-0.532142	0.063913	0.391240	0.693376	0.605113
07924	9.991915	4.981220	12.426163	-0.602022	-7.191605	2.405830	-0.316720	-0.447567	0.836285	0.849993	-0.525209	0.040828	0.420951	0.723768	0.546773
07925	20.273821	3.608894	15.567302	0.178705	-7.505818	2.416606	-0.263780	-0.404525	0.875660	0.857705	-0.513712	0.021054	0.441320	0.756611	0.482469
07926	26.535165	10.751535	17.028775	0.401202	-6.126193	2.696919	-0.213146	-0.371011	0.903836	0.865913	-0.500194	-0.001120	0.452509	0.782404	0.427878
07927	14.554572	7.355269	15.302282	-0.279733	-5.738961	2.881811	-0.161846	-0.339852	0.926448	0.869963	-0.492287	-0.028609	0.465801	0.801345	0.375333
07928	11.822545	4.742575	16.121367	-0.214559	-5.453304	2.914785	-0.110779	-0.309893	0.944296	0.872910	-0.484585	-0.056624	0.475139	0.818012	0.324191
07929	4.658288	4.360350	14.293401	0.003190	-5.254232	2.904621	-0.060385	-0.280469	0.957962	0.875334	-0.476127	-0.084223	0.479734	0.833451	0.274255
07930	2.044756	6.698338	11.996218	-0.147250	-5.525106	2.827091	-0.009029	-0.247366	0.968880	0.875590	-0.469934	-0.111820	0.482970	0.847332	0.220834
07931	-1.300317	12.937823	8.368087	-1.271868	-5.848258	1.808894	0.035207	-0.206204	0.977875	0.869053	-0.476829	-0.131838	0.493465	0.854467	0.162414
07932	29.628303	15.157420	10.645134	-1.720340	-6.303560	0.348411	0.069698	-0.153881	0.985628	0.860263	-0.490964	-0.137485	0.505064	0.857482	0.098159
07933	19.916166	5.924941	9.711675	-4.112059	-2.039184	-0.807051	0.073369	-0.132527	0.988460	0.839285	-0.527179	-0.132978	0.538718	0.839356	0.072550
07934	12.726126	3.462386	12.226833	-2.938934	-0.350019	-2.134075	0.057539	-0.118041	0.991340	0.824475	-0.554326	-0.113859	0.562965	0.823887	0.065427
07935	6.419165	-0.092412	12.445118	-2.949917	1.315726	-2.355422	0.030611	-0.115452	0.992841	0.808419	-0.581291	-0.092520	0.587811	0.805464	0.075540
07936	-2.721701	-1.818750	9.364403	-2.325963	1.872268	-2.134647	0.002311	-0.117716	0.993045	0.794857	-0.602359	-0.073254	0.606793	0.789497	0.092176
07937	-6.286847	-2.997165	6.635638	-1.608573	1.779322	-1.471964	-0.020362	-0.122759	0.992228	0.784699	-0.616944	-0.060226	0.619542	0.777374	0.108892
07938	-5.868786	-2.445570	6.595569	-0.824443	1.720262	-0.839783	-0.037640	-0.130823	0.990691	0.779302	-0.624416	-0.052847	0.625517	0.770059	0.125454
07939	-3.062895	-0.955819	7.780683	-0.293116	1.907162	-0.281305	-0.051923	-0.143787	0.988246	0.777151	-0.627290	-0.050437	0.627169	0.765397	0.144315
07940	-0.287931	0.317077	8.160163	0.071095	2.393156	0.133962	-0.065870	-0.162872	0.984446	0.777653	-0.626570	-0.051630	0.625233	0.762157	0.167930
07941	0.893996	0.986230	7.898246	0.330032	3.015035	0.361400	-0.082009	-0.188145	0.978711	0.779768	-0.623687	-0.054558	0.620675	0.758693	0.197857
07942	1.207575	1.314357	7.483788	0.537573	3.606804	0.434043	-0.100872	-0.218104	0.970699	0.783459	-0.618767	-0.057614	0.613202	0.754691	0.233292
07943	1.301583	1.463870	6.821337	0.748277	4.077735	0.387954	-0.122822	-0.251243	0.960100	0.788224	-0.612510	-0.059449	0.603007	0.749472	0.273266
07944	1.472801	1.755617	6.012804	0.944426	4.423280	0.240650	-0.147302	-0.285695	0.946932	0.794159	-0.604845	-0.058949	0.589588	0.743331	0.315982
07945	1.841350	2.190027	5.577179	1.071419	4.683289	0.016292	-0.174648	-0.320486	0.931014	0.800194	-0.597172	-0.055459	0.573749	0.735306	0.360746
07946	2.127183	2.522282	5.260544	1.082606	4.885097	-0.305561	-0.204703	-0.354320	0.912444	0.805706	-0.590328	-0.048480	0.555819	0.725238	0.406320
07947	1.942947	3.009722	5.015429	0.981653	4.959081	-0.676772	-0.237532	-0.386029	0.891381	0.809349	-0.586089	-0.038144	0.537153	0.712378	0.451647
07948	1.782706	3.177833	4.918018	0.795164	4.882703	-1.039495	-0.271734	-0.414337	0.868611	0.810874	-0.584677	-0.025225	0.518308	0.697480	0.494852
07949	2.568259	2.845398	5.075089	0.609997	4.693733	-1.346155	-0.306825	-0.438809	0.844574	0.809854	-0.586536	-0.010531	0.499994	0.680751	0.535336
07950	4.390117	2.150176	5.595934	0.481590	4.506735	-1.509035	-0.341158	-0.460190	0.819656	0.807303	-0.590118	0.004699	0.481531	0.663314	0.572837
07951	6.206838	0.665572	6.386992	0.484810	4.439608	-1.504436	-0.374517	-0.480299	0.793127	0.803967	-0.594347	0.019713	0.461924	0.645031	0.608738
07952	7.461112	-1.625141	7.071739	0.684707	4.459973	-1.381133	-0.405711	-0.500417	0.764840	0.801638	-0.596798	0.034759	0.439061	0.627227	0.643282
07953	8.772885	-3.192001	7.371189	1.227528	4.548260	-1.168924	-0.434701	-0.521553	0.734178	0.801692	-0.595502	0.051636	0.410274	0.611031	0.676991
07954	10.725697	-2.038953	7.926937	1.919913	4.681330	-0.855857	-0.459950	-0.544747	0.701210	0.805367	-0.588498	0.071086	0.373937	0.597428	0.709402
07955	10.986569	0.037557	8.484235	2.322577	4.844815	-0.554933	-0.481857	-0.570040	0.665483	0.810713	-0.578213	0.091728	0.332502	0.583716	0.740755
07956	10.216766	2.361327	9.009065	2.459938	4.828847	-0.381741	-0.499983	-0.595680	0.628636	0.816459	-0.566285	0.112770	0.288812	0.569638	0.769480
07957	10.165867	4.577884	9.996806	2.287536	4.699481	-0.330805	-0.515575	-0.620115	0.591304	0.820667	-0.555786	0.132697	0.246351	0.553679	0.795457
07958	10.332197	5.234100	10.510858	1.954941	4.482512	-0.434753	-0.529325	-0.642118	0.554526	0.822804	-0.547911	0.150953	0.206901	0.536170	0.818361
07959	10.996061	5.121362	10.669621	1.687345	4.245067	-0.641244	-0.542910	-0.660863	0.518178	0.822328	-0.543528	0.168384	0.170366	0.517530	0.838533
07960	13.020277	4.903537	10.343630	1.540794	4.110172	-0.898989	-0.556591	-0.676838	0.481764	0.819719	-0.541751	0.185922	0.135156	0.498394	0.856351
07961	14.967719	4.521916	9.566745	1.471814	4.131781	-1.210536	-0.571621	-0.690312	0.443530	0.814414	-0.543146	0.204260	0.099899	0.477977	0.872673
07962	15.914546	3.427556	8.988941	1.488903	4.124730	-1.521698	-0.587358	-0.701285	0.403991	0.806795	-0.546808	0.223792	0.063964	0.457384	0.886966
07963	17.888045	1.300189	8.673434	1.628897	4.058318	-1.816082	-0.604002	-0.709333	0.363358	0.796533	-0.552590	0.245315	0.026778	0.437597	0.898772
07964	19.792778	-1.365772	8.151025	1.901409	4.011776	-2.008651	-0.620185	-0.715340	0.321961	0.784351	-0.558786	0.269354	-0.012772	0.419579	0.907629
07965	20.462921	-3.559169	6.597564	2.321625	3.959696	-1.968200	-0.634328	-0.720485	0.280232	0.771059	-0.563562	0.296421	-0.055639	0.404104	0.913019
07966	19.859449	-5.533001	4.859873	2.777594	3.718281	-1.660252	-0.644144	-0.725913	0.241101	0.758259	-0.564535	0.326104	-0.100613	0.392875	0.914071
07967	20.956023	-7.015633	3.634616	3.282086	3.263439	-1.092641	-0.648470	-0.732410	0.207515	0.747032	-0.559845	0.358492	-0.146387	0.387491	0.910177
07968	21.986355	-6.574503	2.885157	3.682618	2.778650	-0.440772	-0.647071	-0.740709	0.180692	0.737938	-0.548856	0.392689	-0.191695	0.387437	0.901746
07969	23.793933	-3.985920	2.443917	3.614162	2.280043	0.244063	-0.640511	-0.750836	0.161214	0.731777	-0.533072	0.424660	-0.232911	0.389973	0.890884
07970	24.925790	-1.143318	1.300868	2.893909	2.016117	0.827746	-0.629450	-0.763015	0.146972	0.729793	-0.515557	0.449003	-0.266823	0.389884	0.881360
07971	22.440199	-1.208174	-0.421355	1.720252	1.767472	1.225994	-0.615560	-0.776083	0.137042	0.732638	-0.499455	0.462370	-0.290391	0.385019	0.876033
07972	10.606351	8.916915	6.038019	0.808810	1.452519	1.066849	-0.603425	-0.786867	0.129301	0.736726	-0.488070	0.467999	-0.305145	0.377662	0.874219
07973	12.910633	7.683764	-3.402646	-4.307988	-1.589185	1.419390	-0.597276	-0.787933	0.149744	0.757547	-0.492906	0.427978	-0.263408	0.369059	0.891298
07974	-3.582766	-3.241487	11.718992	-4.570869	0.263106	0.915957	-0.589638	-0.793406	0.151109	0.774253	-0.502003	0.385390	-0.229913	0.344237	0.910297
07975	5.496653	-8.860655	13.599845	-3.724925	-1.383581	0.201451	-0.590918	-0.789763	0.164591	0.783372	-0.512998	0.350942	-0.192726	0.336314	0.921819
07976	-2.475673	-0.665673	13.171904	-1.856813	-0.210813	-0.948351	-0.598753	-0.784110	0.163299	0.781153	-0.526667	0.335295	-0.176904	0.328320	0.927853
07977	-5.604162	0.958806	5.566239	-1.701432	-1.292678	-0.990505	-0.608573	-0.774605	0.172121	0.778050	-0.539923	0.321127	-0.155814	0.329348	0.931264
07978	-1.850821	-4.472187	6.761099	-1.709064	-1.976105	-0.605531	-0.616134	-0.764714	0.188657	0.776775	-0.550297	0.306258	-0.130383	0.335240	0.933067
07979	2.948539	-9.040602	11.518223	-0.898293	-2.615524	-0.659087	-0.624323	-0.752108	0.211078	0.773781	-0.558346	0.299187	-0.107167	0.350118	0.930555
07980	4.919842	-4.851214	13.269989	-0.315452	-2.478727	-0.543551	-0.630978	-0.740149	0.232481	0.770664	-0.563567	0.297437	-0.089129	0.366841	0.926004
07981	2.089459	-6.657063	13.130290	-0.374672	-2.578100	0.182284	-0.631608	-0.731499	0.256867	0.772128	-0.563625	0.293503	-0.069921	0.383713	0.920801
07982	4.258796	-7.818309	13.019776	0.136762	-3.049066	0.755143	-0.627638	-0.723657	0.287040	0.776784	-0.557625	0.292678	-0.051738	0.406664	0.912112
07983	10.362539	1.837004	14.183684	0.321756	-2.927591	0.946421	-0.621546	-0.716637	0.316404	0.782555	-0.549485	0.292703	-0.035902	0.429532	0.902338
07984	11.247746	5.494658	11.972646	0.116546	-2.373903	0.870926	-0.615418	-0.710962	0.340284	0.787891	-0.542793	0.290867	-0.022092	0.447111	0.894205
07985	8.146284	11.826958	9.775359	-0.143141	-2.104262	0.775090	-0.609594	-0.705585	0.361309	0.792673	-0.537954	0.286837	-0.008020	0.461254	0.887232
07986	9.378924	12.325958	10.021828	-0.789883	-2.068556	0.876191	-0.602619	-0.700613	0.382088	0.797956	-0.535514	0.276572	0.010844	0.471557	0.881769
07987	12.570156	5.223211	10.194368	-1.500366	-1.591301	0.952842	-0.594605	-0.698194	0.398711	0.803364	-0.535916	0.259614	0.032415	0.474678	0.879562
07988	8.656771	-2.658376	10.841629	-0.937436	-1.108528	0.729017	-0.588318	-0.696795	0.410316	0.807288	-0.535330	0.248409	0.046564	0.477387	0.877459
07989	7.277512	-1.502884	11.004831	-0.348358	-0.927491	0.559282	-0.583269	-0.695343	0.419876	0.810426	-0.533062	0.243013	0.054843	0.482020	0.874442
07990	6.414482	1.871432	9.883230	-0.210843	-0.736844	0.454375	-0.579176	-0.694167	0.427420	0.812926	-0.530962	0.239227	0.060880	0.486015	0.871827
07991	6.608700	2.489173	9.835009	-0.255096	-0.602012	0.346146	-0.575920	-0.693075	0.433546	0.814800	-0.529760	0.235490	0.066463	0.488877	0.869817
07992	5.828587	0.285711	9.989422	-0.339306	-0.403346	0.275317	-0.573418	-0.692533	0.437710	0.816129	-0.529550	0.231322	0.071591	0.489872	0.868850
07993	5.819840	-0.176926	10.178980	-0.213057	-0.295319	0.233093	-0.571242	-0.692325	0.440873	0.817343	-0.528936	0.228421	0.075052	0.490828	0.868018
07994	5.847527	0.936062	9.852423	-0.179899	-0.145747	0.185725	-0.569633	-0.692565	0.442575	0.818247	-0.528570	0.226021	0.077397	0.490884	0.867780
07995	5.449366	1.132210	9.628384	-0.209795	-0.019914	0.146822	-0.568362	-0.693248	0.443139	0.818952	-0.528541	0.223522	0.079262	0.489951	0.868139
07996	4.743702	1.606811	9.316332	-0.231979	0.057458	0.129065	-0.567371	-0.694185	0.442942	0.819480	-0.528817	0.220916	0.080879	0.488324	0.868907
07997	4.307185	2.512767	8.807021	-0.263077	0.059537	0.133315	-0.566277	-0.695183	0.442777	0.820052	-0.529137	0.218010	0.082733	0.486554	0.869724
07998	3.399170	3.016765	8.280343	-0.325219	0.049583	0.161612	-0.565013	-0.696253	0.442710	0.820675	-0.529628	0.214446	0.085163	0.484486	0.870644
07999	2.637370	3.545868	8.076635	-0.371175	-0.114219	0.221293	-0.563049	-0.696874	0.444233	0.821629	-0.529849	0.210204	0.088891	0.483350	0.870903
08000	4.382571	3.012602	8.754750	-0.485767	-0.283561	0.275068	-0.560548	-0.696936	0.447288	0.822710	-0.530315	0.204729	0.094520	0.482749	0.870643
08001	4.307182	1.972676	8.808129	-0.462593	-0.209524	0.258204	-0.558174	-0.697295	0.449691	0.823732	-0.530715	0.199517	0.099535	0.481790	0.870615
08002	4.118734	2.194760	8.887259	-0.345132	-0.399000	0.236210	-0.555840	-0.696598	0.453644	0.824677	-0.530769	0.195429	0.104645	0.482737	0.869491
08003	4.543255	3.154042	7.588973	-0.220173	-0.375072	0.200752	-0.553741	-0.695848	0.457347	0.825580	-0.530408	0.192576	0.108577	0.484213	0.868187
08004	3.673648	3.873112	9.034367	-0.376691	-0.582735	0.240052	-0.551126	-0.694268	0.462873	0.826466	-0.530603	0.188186	0.114951	0.486264	0.866218
08005	6.417415	-1.419316	9.955830	-0.546186	-0.413247	0.214842	-0.548820	-0.693397	0.466902	0.827024	-0.531741	0.182435	0.121771	0.486263	0.865286
08006	7.489293	1.230774	9.898099	-0.091156	-0.372885	0.118455	-0.547400	-0.692183	0.470357	0.827542	-0.531401	0.181074	0.124612	0.488360	0.863699
08007	3.495054	2.942480	8.776608	-0.053171	-0.122400	0.071292	-0.546614	-0.691960	0.471597	0.827888	-0.531140	0.180254	0.125756	0.488959	0.863195
08008	6.025476	1.117224	8.705559	-0.248027	-0.164714	0.097592	-0.545616	-0.691648	0.473209	0.828086	-0.531714	0.177635	0.128751	0.488778	0.862855
08009	4.727096	2.185415	8.738626	-0.196973	-0.167668	0.089701	-0.544614	-0.691301	0.474867	0.828340	-0.532031	0.175486	0.131330	0.488923	0.862384
08010	4.927919	2.437704	8.631986	-0.285773	-0.131165	0.111084	-0.543539	-0.691225	0.476207	0.828546	-0.532695	0.172476	0.134454	0.488307	0.862252
08011	4.789973	1.983906	8.726261	-0.344126	-0.131360	0.140334	-0.542157	-0.691328	0.477631	0.828859	-0.533380	0.168816	0.138052	0.487414	0.862189
08012	4.839302	1.794478	8.836995	-0.365559	-0.132362	0.141794	-0.540815	-0.691414	0.479026	0.829096	-0.534215	0.164968	0.141841	0.486376	0.862160
08013	5.234067	1.413859	8.900306	-0.306871	-0.135545	0.121416	-0.539575	-0.691399	0.480444	0.829331	-0.534844	0.161717	0.145152	0.485705	0.861987
08014	5.039568	1.415884	9.123717	-0.243105	-0.142820	0.102374	-0.538535	-0.691227	0.481856	0.829507	-0.535352	0.159112	0.147980	0.485390	0.861684
08015	4.957627	1.590703	8.918077	-0.157912	-0.122647	0.073664	-0.537705	-0.691020	0.483079	0.829686	-0.535589	0.157373	0.149984	0.485424	0.861318
08016	5.019261	1.797133	8.809950	-0.117178	-0.129891	0.063909	-0.536997	-0.690705	0.484315	0.829833	-0.535751	0.156037	0.151696	0.485692	0.860867
08017	5.273694	1.169189	9.014545	-0.054982	-0.137998	0.024776	-0.536545	-0.690161	0.485590	0.829899	-0.535828	0.155421	0.152927	0.486381	0.860260
08018	4.873753	2.310866	8.676928	0.036798	-0.133908	0.027492	-0.536130	-0.689630	0.486801	0.830083	-0.535494	0.155587	0.153382	0.487500	0.859545
08019	4.767612	2.172905	8.807246	0.056328	-0.115459	0.042029	-0.535569	-0.689284	0.487907	0.830411	-0.534911	0.155844	0.153566	0.488629	0.858871
08020	4.941585	1.803915	8.884735	0.112216	-0.159642	0.070357	-0.534758	-0.688852	0.489404	0.830941	-0.533912	0.156446	0.153531	0.490327	0.857909
08021	4.800857	1.946794	8.939680	0.157444	-0.136916	0.087897	-0.533784	-0.688640	0.490763	0.831667	-0.532516	0.157344	0.152986	0.492139	0.856968
08022	4.910114	1.106863	9.099703	0.144372	-0.183741	0.105893	-0.532640	-0.688271	0.492521	0.832433	-0.531111	0.158043	0.152807	0.494170	0.855830
08023	4.926108	1.357439	9.181965	0.160062	-0.214342	0.107443	-0.531387	-0.687770	0.494570	0.833262	-0.529564	0.158859	0.152648	0.496522	0.854496
08024	4.619132	1.399138	9.353369	0.074160	-0.274690	0.075008	-0.530360	-0.686774	0.497051	0.833755	-0.528714	0.159104	0.153530	0.498801	0.853010
08025	5.414189	0.972691	9.007004	0.042682	-0.338049	0.074174	-0.529192	-0.685465	0.500094	0.834225	-0.527981	0.159076	0.154999	0.501372	0.851235
08026	4.559631	1.395762	9.399177	0.092966	-0.336476	0.058109	-0.528202	-0.684053	0.503064	0.834657	-0.527151	0.159558	0.156044	0.504165	0.849392
08027	4.888529	0.429622	9.486894	0.110469	-0.402546	0.030377	-0.527292	-0.682165	0.506570	0.835000	-0.526376	0.160320	0.157282	0.507522	0.847163
08028	4.510123	2.555618	9.479605	0.157831	-0.428242	0.032967	-0.526359	-0.680131	0.510262	0.835404	-0.525383	0.161472	0.158262	0.511267	0.844724
08029	4.605203	1.810546	9.662815	0.198566	-0.501772	0.059705	-0.525042	-0.677854	0.514630	0.836039	-0.523955	0.162818	0.159276	0.515738	0.841811
08030	4.647602	2.123336	9.679907	0.258964	-0.615991	0.081153	-0.523397	-0.675058	0.519954	0.836859	-0.522099	0.164558	0.160381	0.521257	0.838194
08031	4.909267	1.939653	9.615065	0.305258	-0.741161	0.106958	-0.521290	-0.671712	0.526364	0.837913	-0.519778	0.166529	0.161733	0.527857	0.833792
08032	4.756338	2.133525	9.670923	0.359226	-0.840581	0.122631	-0.518914	-0.667853	0.533574	0.839115	-0.517083	0.168850	0.163135	0.535348	0.828727
08033	4.749580	1.433612	9.949195	0.268325	-0.973105	0.158681	-0.515967	-0.663406	0.541914	0.840379	-0.514585	0.170192	0.165955	0.543226	0.823022
08034	4.704637	1.793343	10.151346	0.169586	-1.185431	0.212499	-0.512203	-0.657979	0.552008	0.841738	-0.512289	0.170405	0.170664	0.551927	0.816241
08035	4.383714	3.021452	10.704616	0.043882	-1.373989	0.337932	-0.506957	-0.652039	0.563773	0.843532	-0.509844	0.168856	0.177336	0.561164	0.808485
08036	3.802458	3.857832	11.350117	-0.164379	-1.653250	0.524620	-0.499530	-0.645321	0.577954	0.845854	-0.507408	0.164526	0.187086	0.571050	0.799312
08037	3.548199	2.469311	11.288409	-0.301204	-1.977384	0.616815	-0.490484	-0.637018	0.594672	0.848315	-0.505212	0.158500	0.199468	0.582211	0.788190
08038	3.580547	3.090206	11.795028	-0.215306	-2.305392	0.708635	-0.479729	-0.626981	0.613804	0.851289	-0.502039	0.152524	0.212524	0.595695	0.774584
08039	2.557855	2.731546	11.458219	-0.233629	-2.779566	0.819935	-0.466629	-0.614272	0.636339	0.854636	-0.498398	0.145592	0.227717	0.611775	0.757546
08040	0.747680	4.300752	12.443650	-0.591012	-3.742182	1.085465	-0.448409	-0.596374	0.665784	0.858171	-0.495538	0.134107	0.249943	0.631491	0.733994
08041	1.004120	4.569837	13.257679	-0.835749	-4.701282	1.334528	-0.424554	-0.572698	0.701264	0.861759	-0.493172	0.118964	0.277713	0.654827	0.702906
08042	2.496625	5.665361	13.981234	-1.121028	-5.580581	1.689610	-0.393563	-0.543718	0.741268	0.865355	-0.491262	0.099106	0.310271	0.680465	0.663852
08043	4.329769	5.114015	12.821985	-1.067784	-6.241399	2.025484	-0.355644	-0.510260	0.783040	0.869408	-0.488087	0.076814	0.342997	0.708100	0.617210
08044	8.574953	6.156532	12.351754	-0.777973	-7.118315	2.385967	-0.309329	-0.470272	0.826535	0.874536	-0.482054	0.053020	0.373501	0.739235	0.560383
08045	14.552310	4.079641	13.048465	-0.242405	-7.498810	2.577985	-0.257846	-0.425879	0.867261	0.880861	-0.472431	0.029896	0.396989	0.771645	0.496954
08046	27.627784	9.338042	17.920818	0.572861	-6.848986	2.723897	-0.206163	-0.384594	0.899769	0.889469	-0.456916	0.008500	0.407849	0.802069	0.436284
08047	17.900451	9.966332	16.015212	-0.431088	-5.607083	3.144356	-0.154916	-0.353314	0.922589	0.893306	-0.448915	-0.021917	0.421907	0.820759	0.385161
08048	13.073323	9.225719	16.151532	-1.043162	-5.351114	3.380813	-0.101702	-0.324122	0.940533	0.893139	-0.446132	-0.057167	0.438131	0.834213	0.334858
08049	7.144687	8.085924	15.681982	-1.358538	-4.940014	3.477866	-0.048725	-0.298205	0.953257	0.889634	-0.446830	-0.094308	0.454067	0.843455	0.287065
08050	-1.332898	7.498953	13.637227	-1.464861	-4.903583	3.547969	0.005349	-0.272517	0.962136	0.883631	-0.449153	-0.132132	0.468154	0.850880	0.238402
08051	-3.385615	6.259173	13.595369	-1.511665	-5.432259	3.639512	0.063023	-0.242540	0.968092	0.875146	-0.452852	-0.170427	0.479738	0.857962	0.183718
08052	0.047641	8.044444	13.663741	-1.683083	-5.524840	2.757371	0.113789	-0.207565	0.971581	0.864533	-0.461165	-0.199773	0.489525	0.862695	0.126971
08053	25.533673	10.794996	13.265656	-1.289362	-4.815308	0.753571	0.143863	-0.169531	0.974968	0.857126	-0.471073	-0.208387	0.494609	0.865650	0.077540
08054	20.219138	7.881734	14.668820	-2.314386	-0.416391	-0.402275	0.142526	-0.163978	0.976113	0.846019	-0.491693	-0.206130	0.513749	0.855190	0.068649
08055	10.379796	6.414453	16.894117	-1.132408	2.054680	-2.176387	0.113330	-0.170697	0.978784	0.842807	-0.505171	-0.185686	0.526149	0.845970	0.086613
08056	0.105335	7.833936	13.135677	-1.187452	3.529613	-2.779060	0.071138	-0.186059	0.979960	0.839026	-0.520137	-0.159663	0.539420	0.833570	0.119107
08057	-7.571094	6.153368	8.498052	-1.150769	3.494069	-2.798632	0.028506	-0.200285	0.979323	0.834001	-0.535306	-0.133753	0.551026	0.820569	0.151779
08058	-7.481678	3.506405	6.549620	-1.049801	3.145873	-2.628704	-0.010836	-0.211619	0.977292	0.828381	-0.549307	-0.109760	0.560060	0.808381	0.181253
08059	-6.305123	-0.044799	6.605914	-0.637839	2.926812	-2.365084	-0.047024	-0.222099	0.973890	0.823936	-0.559827	-0.087887	0.564729	0.798289	0.209320
08060	-3.532256	-1.703893	7.333311	0.118384	2.831040	-2.059992	-0.079952	-0.233012	0.969182	0.823273	-0.563608	-0.067588	0.561987	0.792497	0.236894
08061	-0.204897	-1.598254	8.268168	0.906322	2.996280	-1.781875	-0.111544	-0.246776	0.962631	0.826415	-0.561007	-0.048058	0.551902	0.790173	0.266517
08062	2.884440	-0.607656	9.039179	1.481823	3.382169	-1.538478	-0.142705	-0.264891	0.953660	0.832492	-0.553271	-0.029104	0.535342	0.789762	0.299474
08063	5.092850	0.408062	9.191068	1.727509	4.029461	-1.324039	-0.175165	-0.289475	0.941022	0.839242	-0.543647	-0.011016	0.514772	0.787815	0.338167
08064	4.850620	0.774846	8.839932	1.772256	4.636424	-1.169126	-0.208350	-0.319572	0.924372	0.845890	-0.533320	0.006282	0.490979	0.783226	0.381440
08065	3.868580	0.495135	8.300063	1.705630	4.988251	-1.039639	-0.241301	-0.352987	0.903977	0.851483	-0.523890	0.022719	0.465564	0.775203	0.426978
08066	3.722179	-0.187350	7.878502	1.662307	5.112429	-0.968475	-0.272698	-0.387301	0.880701	0.856484	-0.514710	0.038847	0.438260	0.764899	0.472078
08067	4.490753	-0.167202	7.984379	1.642442	5.086860	-0.941524	-0.302654	-0.421100	0.855029	0.860504	-0.506448	0.055168	0.409797	0.752453	0.515637
08068	5.496475	0.171526	8.364126	1.597659	5.048024	-0.938944	-0.330709	-0.453986	0.827363	0.863817	-0.498686	0.071644	0.380068	0.738383	0.557080
08069	6.618374	0.334735	9.056451	1.451351	5.026150	-0.924986	-0.357401	-0.486073	0.797494	0.865693	-0.492856	0.087569	0.350485	0.721682	0.596938
08070	7.456057	0.038620	9.541858	1.320925	5.092840	-0.888318	-0.382200	-0.517961	0.765271	0.866815	-0.487949	0.102654	0.320243	0.702582	0.635470
08071	7.534363	-0.623904	9.849599	1.271915	5.161557	-0.766871	-0.404937	-0.549890	0.730512	0.867423	-0.483682	0.116741	0.289141	0.680935	0.672848
08072	8.126994	-1.260961	10.085199	1.358960	5.195861	-0.550910	-0.423903	-0.582005	0.693957	0.868821	-0.477743	0.130047	0.255845	0.658052	0.708175
08073	10.033618	-0.573927	10.101235	1.614569	5.234337	-0.294692	-0.439289	-0.614347	0.655441	0.871136	-0.469525	0.143765	0.219424	0.634133	0.741437
08074	11.326053	0.589388	10.623709	1.857816	5.324091	-0.121505	-0.450995	-0.646860	0.614959	0.874281	-0.458782	0.158594	0.179544	0.609172	0.772446
08075	11.640811	2.155752	11.193529	2.069772	5.375697	-0.195934	-0.461617	-0.677904	0.572150	0.876424	-0.448198	0.176067	0.137080	0.582721	0.801027
08076	12.036406	4.136835	11.543202	2.121604	5.414996	-0.424577	-0.471603	-0.706796	0.527286	0.876867	-0.439113	0.195661	0.093246	0.554634	0.826853
08077	13.139454	5.042057	12.330436	2.099167	5.464214	-0.727297	-0.482253	-0.732974	0.479771	0.874663	-0.433470	0.216951	0.048947	0.524264	0.850148
08078	14.481299	3.770215	12.212511	2.065191	5.556752	-1.106234	-0.493400	-0.756403	0.429431	0.869794	-0.431259	0.239738	0.003857	0.491803	0.870698
08079	15.486929	0.793150	11.068184	2.181779	5.596766	-1.514554	-0.505798	-0.776301	0.376199	0.861585	-0.432922	0.265045	-0.042890	0.458187	0.887820
08080	16.200187	-3.489409	9.763309	2.494496	5.359594	-1.860383	-0.518150	-0.791916	0.323096	0.850365	-0.436513	0.293830	-0.091653	0.426997	0.899596
08081	18.820827	-7.239352	8.449487	3.154043	4.890454	-2.086546	-0.530318	-0.802877	0.272307	0.835513	-0.440458	0.328505	-0.143809	0.401728	0.904397
08082	22.575898	-9.685302	8.140739	3.699331	4.414154	-2.020070	-0.539513	-0.811247	0.225397	0.818369	-0.442299	0.366939	-0.197985	0.382426	0.902525
08083	25.759974	-12.179105	7.466996	4.315936	3.993562	-1.886847	-0.546001	-0.817766	0.182049	0.798195	-0.441761	0.409550	-0.254493	0.368926	0.893939
08084	29.450726	-4.042999	7.229325	4.297919	3.677650	-1.627270	-0.548500	-0.823935	0.142401	0.777180	-0.439545	0.450324	-0.308446	0.357674	0.881436
08085	28.672606	4.450606	4.456954	2.751898	3.628358	-1.227372	-0.546183	-0.831085	0.104793	0.761306	-0.440309	0.475964	-0.349425	0.339743	0.873199
08086	24.117623	8.698904	-2.253795	-0.194979	2.473658	-0.624567	-0.542171	-0.836433	0.080186	0.758596	-0.446199	0.474804	-0.361363	0.318254	0.876431
08087	25.492161	-6.250536	-13.780558	-2.002827	0.852224	-0.286389	-0.541383	-0.837746	0.071317	0.764142	-0.454884	0.457348	-0.350700	0.302097	0.886424
08088	26.834230	-8.546107	-15.351910	-1.958222	-1.649255	-0.589214	-0.551515	-0.829989	0.083360	0.767550	-0.465800	0.440338	-0.326647	0.306836	0.893954
08089	14.131490	-4.418989	-6.643508	-2.458348	-2.268105	-1.413207	-0.569371	-0.816255	0.097702	0.767309	-0.485015	0.419520	-0.295049	0.313830	0.902473
08090	1.848917	-0.896263	18.314177	-1.939972	-3.039213	-2.053648	-0.593569	-0.796269	0.116753	0.760767	-0.507848	0.404134	-0.262507	0.328704	0.907218
08091	6.793069	8.492284	13.166391	-1.444556	-2.157888	-2.567744	-0.618298	-0.775750	0.126175	0.748881	-0.532780	0.394110	-0.238507	0.338168	0.910361
08092	-11.000092	6.820472	8.789504	-2.260984	-2.112565	-1.603600	-0.635018	-0.759833	0.139308	0.743871	-0.552824	0.375556	-0.208347	0.342112	0.916270
08093	-0.403574	-10.770349	6.684750	-3.371132	-3.502179	0.092253	-0.640744	-0.748262	0.171904	0.750729	-0.563735	0.344396	-0.160790	0.349723	0.922952
08094	6.401727	-19.404058	11.364880	-1.341118	-3.927644	0.211799	-0.644799	-0.735272	0.208827	0.753995	-0.567038	0.331603	-0.125406	0.371272	0.920017
08095	5.951299	-5.113324	17.670853	-0.879708	-3.328527	0.763107	-0.642698	-0.726922	0.241917	0.759918	-0.564783	0.321784	-0.097281	0.390647	0.915386
08096	6.887919	-8.446132	14.547577	-0.555802	-3.640573	1.588339	-0.633610	-0.721146	0.280154	0.770502	-0.555556	0.312543	-0.069748	0.413890	0.907651
08097	9.228538	1.003997	12.268849	-0.084096	-3.564536	1.603967	-0.623219	-0.714767	0.317342	0.780655	-0.544385	0.306956	-0.046646	0.439036	0.897258
08098	13.837434	12.247618	12.452275	-0.353997	-3.525679	1.389561	-0.613546	-0.706359	0.353012	0.789352	-0.536146	0.299117	-0.022018	0.462173	0.886516
08099	19.653705	14.256416	13.489179	-1.274749	-2.900470	1.553032	-0.601395	-0.701057	0.383202	0.798931	-0.531151	0.282113	0.005761	0.475813	0.879527
08100	19.373059	3.185566	11.082873	-2.132865	-1.532534	1.396792	-0.589915	-0.701163	0.400463	0.806829	-0.531541	0.257860	0.032061	0.475220	0.879283
08101	8.367517	-4.549241	12.036977	-1.151199	-0.869166	0.817267	-0.582854	-0.701412	0.410247	0.811246	-0.531173	0.244407	0.046482	0.475265	0.878614
08102	6.066023	-1.707251	11.205998	-0.452277	-0.801322	0.660565	-0.577103	-0.701064	0.418882	0.814828	-0.528739	0.237679	0.054851	0.478482	0.876382
08103	4.976422	3.286097	9.161349	-0.298519	-0.842407	0.566238	-0.571878	-0.700033	0.427678	0.817981	-0.526103	0.232642	0.062145	0.482876	0.873481
08104	7.126388	1.981037	9.721371	-0.581013	-0.701037	0.473125	-0.567561	-0.699102	0.434892	0.820269	-0.525645	0.225512	0.070943	0.484720	0.871788
08105	6.342094	0.926877	10.036648	-0.424408	-0.452910	0.370953	-0.564066	-0.698885	0.439760	0.822131	-0.525002	0.220165	0.077005	0.485728	0.870712
08106	5.702526	1.008462	9.710621	-0.295651	-0.289988	0.280380	-0.561554	-0.698920	0.442909	0.823455	-0.524521	0.216334	0.081114	0.486199	0.870076
08107	6.057327	0.744741	9.821923	-0.250759	-0.208161	0.195707	-0.559653	-0.698965	0.445237	0.824422	-0.524262	0.213255	0.084363	0.486412	0.869647
08108	5.879236	0.766309	9.935585	-0.149725	-0.044215	0.114470	-0.558696	-0.699323	0.445877	0.824913	-0.524231	0.211424	0.085889	0.485932	0.869766
08109	5.708435	0.835246	9.935652	-0.055516	0.047989	0.047677	-0.558225	-0.699837	0.445659	0.825210	-0.524056	0.210698	0.086096	0.485380	0.870054
08110	5.545313	0.645369	9.835186	-0.015923	0.159696	-0.014823	-0.558509	-0.700506	0.444251	0.825093	-0.524277	0.210606	0.085380	0.484174	0.870796
08111	4.994340	1.101897	9.676131	0.061432	0.211085	-0.056168	-0.559032	-0.701264	0.442393	0.824909	-0.524264	0.211358	0.083713	0.483090	0.871560
08112	4.931888	1.742214	9.240832	0.077995	0.256669	-0.095316	-0.560055	-0.701975	0.439966	0.824420	-0.524597	0.212439	0.081678	0.481694	0.872525
08113	2.676714	2.359052	8.280574	0.082293	0.309393	-0.089996	-0.560927	-0.703023	0.437172	0.824060	-0.524724	0.213519	0.079286	0.480025	0.873665
08114	2.609802	3.609316	8.316277	0.052352	-0.073274	-0.024672	-0.561097	-0.702514	0.437773	0.823942	-0.524686	0.214065	0.079310	0.480811	0.873230
08115	5.455747	2.773693	8.517254	-0.032234	-0.063900	0.001756	-0.560918	-0.702246	0.438431	0.824001	-0.524725	0.213743	0.079955	0.481160	0.872979
08116	2.290036	2.624516	8.081582	-0.058431	-0.006177	0.048196	-0.560540	-0.702441	0.438601	0.824204	-0.524707	0.213002	0.080516	0.480893	0.873074
08117	4.033072	2.974341	8.746187	-0.105311	-0.364925	0.125762	-0.559092	-0.701372	0.442147	0.824896	-0.524228	0.211498	0.083447	0.482972	0.871650
08118	5.327648	2.410265	8.774113	-0.170242	-0.260599	0.130815	-0.557815	-0.700770	0.444706	0.825461	-0.524174	0.209416	0.086351	0.483903	0.870851
08119	4.719480	1.980327	8.812967	-0.209395	-0.203876	0.135694	-0.556402	-0.700524	0.446860	0.826108	-0.524132	0.206957	0.089235	0.484306	0.870336
08120	4.541487	1.828257	8.921466	-0.222753	-0.206824	0.124666	-0.555207	-0.700148	0.448930	0.826578	-0.524378	0.204442	0.092269	0.484583	0.869865
08121	4.532705	2.151815	8.781847	-0.221669	-0.215881	0.122921	-0.553875	-0.699774	0.451153	0.827126	-0.524487	0.201930	0.095318	0.485004	0.869302
08122	4.303783	1.676963	9.024603	-0.308929	-0.232427	0.129338	-0.552602	-0.699299	0.453446	0.827520	-0.525120	0.198641	0.099204	0.485005	0.868866
08123	4.042666	2.142303	8.694394	-0.276754	-0.271879	0.139501	-0.551059	-0.698739	0.456177	0.828083	-0.525385	0.195573	0.103015	0.485525	0.868132
08124	3.823244	2.992213	8.336057	-0.383917	-0.371557	0.193210	-0.549089	-0.697922	0.459789	0.828720	-0.525940	0.191338	0.108283	0.486098	0.867170
08125	4.713371	3.480692	8.585695	-0.558998	-0.456415	0.263578	-0.546281	-0.697115	0.464335	0.829609	-0.526719	0.185246	0.115436	0.486413	0.866070
08126	6.142147	3.042152	8.448971	-0.662666	-0.233855	0.231874	-0.544101	-0.697176	0.466797	0.830065	-0.528359	0.178409	0.122254	0.484544	0.866182
08127	4.343410	2.159659	9.429348	-0.764848	-0.393003	0.287764	-0.541098	-0.696823	0.470798	0.830732	-0.529947	0.170409	0.130753	0.483315	0.865627
08128	5.515296	1.282091	8.513682	-0.518295	-0.123077	0.205039	-0.539252	-0.697290	0.472222	0.831128	-0.531057	0.164937	0.135768	0.481420	0.865911
08129	5.601725	2.024099	9.131713	-0.457118	-0.274346	0.199397	-0.537098	-0.697054	0.475018	0.831642	-0.531761	0.160009	0.141061	0.480985	0.865306
08130	4.965433	0.645079	9.247548	-0.322989	-0.124114	0.149979	-0.535695	-0.697228	0.476344	0.831964	-0.532306	0.156483	0.144457	0.480128	0.865222
08131	5.298824	0.392564	9.442697	-0.202631	-0.114957	0.095043	-0.534619	-0.697206	0.477583	0.832250	-0.532510	0.154249	0.146774	0.479933	0.864940
08132	5.303403	0.648151	9.409667	-0.142836	-0.185233	0.056720	-0.533894	-0.696592	0.479288	0.832320	-0.532839	0.152725	0.148996	0.480460	0.864268
08133	4.763676	0.903829	8.989900	-0.047488	-0.129690	0.003695	-0.533552	-0.696011	0.480510	0.832341	-0.532938	0.152269	0.150101	0.481192	0.863669
08134	4.843301	1.739817	9.250430	-0.103979	-0.189951	0.013450	-0.533175	-0.695141	0.482186	0.832234	-0.533383	0.151289	0.152023	0.481955	0.862907
08135	4.815322	2.312049	8.825434	-0.008570	-0.262970	0.020742	-0.532485	-0.694004	0.484581	0.832402	-0.533179	0.151086	0.153514	0.483817	0.861600
08136	4.571894	2.271038	9.109847	-0.092954	-0.262838	0.056353	-0.531630	-0.693004	0.486944	0.832537	-0.533277	0.149994	0.155729	0.485141	0.860457
08137	4.271686	2.059690	9.453536	0.013176	-0.348588	0.098027	-0.530153	-0.691852	0.490182	0.833148	-0.532432	0.149601	0.157487	0.487706	0.858686
08138	4.517898	1.800765	9.456512	0.103451	-0.457106	0.163126	-0.528090	-0.690454	0.494362	0.834154	-0.530836	0.149668	0.159086	0.491412	0.856275
08139	3.117321	1.096293	10.834311	0.210624	-0.615805	0.151852	-0.525728	-0.688234	0.499944	0.835357	-0.528651	0.150685	0.160589	0.496851	0.852848
08140	5.004874	1.859980	9.702891	0.473689	-0.578575	0.139260	-0.523657	-0.686048	0.505095	0.836825	-0.525364	0.154000	0.159708	0.503320	0.849213
08141	4.776749	1.432441	9.883312	0.286474	-0.797698	0.177181	-0.520790	-0.682947	0.512212	0.838271	-0.522611	0.155497	0.161491	0.510354	0.844665
08142	4.663745	1.266180	10.176874	0.439642	-0.860797	0.149715	-0.518161	-0.679272	0.519711	0.839740	-0.519368	0.158411	0.162317	0.518504	0.839528
08143	4.828173	1.038078	9.884205	0.435171	-0.989597	0.130450	-0.515355	-0.674781	0.528280	0.841179	-0.516128	0.161339	0.163792	0.527525	0.833601
08144	4.985884	1.362493	10.040517	0.324415	-1.130938	0.117003	-0.512520	-0.669338	0.537876	0.842296	-0.513654	0.163394	0.166916	0.536793	0.827038
08145	4.785749	1.966795	10.261049	0.173547	-1.306804	0.182654	-0.508675	-0.663202	0.549011	0.843573	-0.511423	0.163801	0.172144	0.546452	0.819608
08146	4.279138	2.903873	10.854320	-0.004554	-1.553579	0.309074	-0.503350	-0.656182	0.562195	0.845108	-0.509448	0.162032	0.180087	0.556675	0.810976
08147	3.555477	3.966994	11.721967	-0.189508	-1.859493	0.517315	-0.495442	-0.648356	0.578076	0.847383	-0.507077	0.157527	0.190996	0.567898	0.800633
08148	3.084167	2.987393	12.185123	-0.305924	-2.238610	0.665422	-0.485386	-0.638836	0.596900	0.850020	-0.504591	0.151176	0.204613	0.580755	0.787944
08149	2.303145	2.761025	12.945200	-0.210080	-2.672022	0.816016	-0.472712	-0.627196	0.619006	0.853512	-0.500622	0.144550	0.219227	0.596659	0.771970
08150	0.854973	3.177489	12.066621	-0.163877	-3.329951	0.941915	-0.457089	-0.611661	0.645709	0.857497	-0.495821	0.137335	0.236153	0.616468	0.751132
08151	-0.594338	3.941274	12.401602	-0.567831	-4.531230	1.214294	-0.435349	-0.589147	0.680718	0.861509	-0.492096	0.125074	0.261292	0.640895	0.721789
08152	0.412705	4.410270	14.547609	-0.953259	-5.648846	1.516171	-0.406603	-0.559564	0.722193	0.865227	-0.489669	0.107731	0.293353	0.668665	0.683251
08153	3.076194	4.252291	15.273393	-1.129085	-6.631760	1.818098	-0.370202	-0.523053	0.767702	0.868752	-0.487596	0.086720	0.328969	0.699046	0.634912
08154	3.141463	6.304184	14.235419	-1.099041	-7.630368	2.154179	-0.324959	-0.478876	0.815524	0.872405	-0.484706	0.063005	0.365118	0.731941	0.575284
08155	10.909253	6.540935	12.524950	-0.707902	-8.318012	2.517210	-0.271289	-0.428636	0.861785	0.877165	-0.478679	0.038044	0.396211	0.766249	0.505845
08156	25.120892	5.491199	15.234754	-0.155805	-8.502020	2.545560	-0.214244	-0.374072	0.902313	0.882692	-0.469716	0.014855	0.418275	0.799648	0.430825
08157	27.557432	9.336223	16.192758	0.145901	-6.792609	2.737468	-0.161229	-0.331598	0.929542	0.888398	-0.458974	-0.009639	0.429831	0.824249	0.368591
08158	17.473069	8.177012	15.695713	-0.157690	-6.160373	3.083274	-0.107000	-0.294226	0.949727	0.891829	-0.450676	-0.039143	0.439536	0.842806	0.310621
08159	11.927960	9.855536	16.741124	-0.918159	-5.498970	3.341832	-0.052759	-0.262605	0.963460	0.890341	-0.449289	-0.073705	0.452227	0.853919	0.257512
08160	4.014472	9.117397	15.405443	-1.116879	-4.933433	3.403807	0.000064	-0.235569	0.971858	0.886105	-0.450427	-0.109238	0.463484	0.861175	0.208710
08161	-5.463649	8.674070	12.240464	-1.304082	-5.009563	3.547441	0.054750	-0.208382	0.976514	0.878931	-0.454003	-0.146160	0.473797	0.866290	0.158297
08162	-12.028610	11.904014	9.251390	-1.803190	-6.040444	3.645511	0.115531	-0.172617	0.978190	0.867167	-0.462749	-0.184077	0.484431	0.869521	0.096226
08163	24.482632	4.580744	12.052197	-2.332435	-7.213955	2.970141	0.176244	-0.123970	0.976509	0.851302	-0.478855	-0.214438	0.494190	0.869097	0.021141
08164	24.749375	6.988798	15.603869	-2.261914	-2.644328	1.232016	0.199893	-0.107069	0.973950	0.837632	-0.497036	-0.226556	0.508346	0.861099	-0.009670
08165	18.156177	1.155554	13.748872	-1.896210	0.599979	0.083783	0.197321	-0.112789	0.973829	0.827518	-0.513439	-0.227142	0.525621	0.850681	-0.007977
08166	10.592780	3.767978	14.484670	-0.777330	2.891554	-1.276690	0.171385	-0.130637	0.976505	0.825726	-0.521612	-0.214703	0.537404	0.843122	0.018474
08167	0.279566	6.210447	10.357793	-0.690853	4.222966	-1.751533	0.133750	-0.157021	0.978496	0.824449	-0.530250	-0.197784	0.549904	0.833174	0.058535
08168	-6.041984	7.110412	6.661028	-0.621620	4.063625	-1.669731	0.097433	-0.181719	0.978512	0.822913	-0.538263	-0.181900	0.559751	0.822953	0.097094
08169	-5.253389	5.732111	4.827182	-0.712055	3.692607	-1.482400	0.064147	-0.204046	0.976857	0.819863	-0.547309	-0.168160	0.568956	0.811676	0.132181
08170	-4.472127	3.289012	4.404988	-0.673727	3.565119	-1.400035	0.032262	-0.225026	0.973819	0.816659	-0.555781	-0.155483	0.576217	0.800294	0.165839
08171	-3.165705	1.805079	4.781224	-0.349577	3.449951	-1.372571	0.000816	-0.244957	0.969534	0.814609	-0.562176	-0.142722	0.580009	0.789908	0.199086
08172	-1.546436	1.377380	5.189797	0.054445	3.426749	-1.400001	-0.030464	-0.263955	0.964054	0.814695	-0.565348	-0.129046	0.579089	0.781479	0.232266
08173	0.245900	1.767020	5.780739	0.368816	3.459543	-1.461910	-0.062685	-0.282734	0.957148	0.815859	-0.566897	-0.114025	0.574843	0.773750	0.266207
08174	2.700868	2.176135	6.415009	0.537784	3.600837	-1.530085	-0.095769	-0.301751	0.948565	0.817695	-0.567266	-0.097899	0.567630	0.766261	0.301066
08175	4.721671	2.476063	6.879238	0.593384	3.845918	-1.593584	-0.130851	-0.322125	0.937610	0.818923	-0.568171	-0.080914	0.558788	0.757243	0.338142
08176	5.994423	2.393223	7.138105	0.552329	4.142308	-1.650135	-0.167315	-0.343853	0.923997	0.819494	-0.569553	-0.063560	0.548121	0.746575	0.377080
08177	6.762454	1.591481	7.451606	0.494826	4.407961	-1.722759	-0.205745	-0.366719	0.907296	0.818630	-0.572496	-0.045758	0.536204	0.733325	0.417995
08178	7.705370	0.911300	7.678857	0.536503	4.610014	-1.782586	-0.244729	-0.389933	0.887728	0.817424	-0.575385	-0.027389	0.521465	0.718947	0.459554
08179	8.118359	0.461204	7.768912	0.617299	4.787444	-1.798287	-0.284418	-0.413626	0.864882	0.815473	-0.578732	-0.008606	0.504094	0.702840	0.501902
08180	8.213408	0.319259	7.886908	0.708937	4.881550	-1.739280	-0.322716	-0.437411	0.839360	0.813664	-0.581251	0.009932	0.483534	0.686162	0.543485
08181	8.587128	0.558765	8.139868	0.782016	4.912288	-1.620099	-0.359559	-0.461219	0.811168	0.811448	-0.583765	0.027762	0.460728	0.668203	0.584154
08182	8.719766	0.793310	8.604164	0.798645	4.917913	-1.460824	-0.393469	-0.485054	0.780964	0.809496	-0.585457	0.044218	0.435773	0.649586	0.623009
08183	8.819895	-0.136631	9.250615	0.791038	4.898359	-1.238590	-0.424696	-0.509041	0.748672	0.807375	-0.587101	0.058811	0.409609	0.629436	0.660326
08184	9.464845	-2.549023	9.398676	0.977244	4.900328	-0.911202	-0.451430	-0.534028	0.714860	0.807212	-0.585841	0.072104	0.380289	0.609594	0.695540
08185	10.902055	-4.459763	8.944545	1.602555	4.942164	-0.528326	-0.474147	-0.560501	0.678987	0.810168	-0.579670	0.087237	0.344692	0.591457	0.728949
08186	12.631971	-4.397008	8.939036	2.362432	5.068484	-0.138228	-0.491662	-0.589266	0.641120	0.817100	-0.566717	0.105736	0.301027	0.575845	0.760122
08187	12.074535	-2.536943	9.159788	3.044675	5.165485	0.136640	-0.505321	-0.619233	0.601000	0.825783	-0.549154	0.128504	0.250467	0.561231	0.788851
08188	11.878940	-0.360951	9.816266	3.379027	5.182477	0.236096	-0.514958	-0.649190	0.559795	0.834506	-0.528979	0.154213	0.196006	0.546565	0.814155
08189	13.073923	1.534318	10.702465	3.464022	5.192501	0.126914	-0.523162	-0.677606	0.516868	0.840621	-0.510072	0.182161	0.140206	0.529790	0.836460
08190	15.095068	3.255023	11.521728	3.379784	5.281905	-0.181457	-0.530640	-0.704142	0.471811	0.843430	-0.493791	0.211650	0.083944	0.510250	0.855920
08191	18.177013	3.089397	11.736161	3.114626	5.392068	-0.582604	-0.539107	-0.727966	0.423591	0.841738	-0.482995	0.241233	0.028983	0.486603	0.873142
08192	21.371951	0.793926	10.578909	2.909239	5.578798	-1.010109	-0.547707	-0.749484	0.371874	0.836275	-0.476741	0.270855	-0.025714	0.459338	0.887890
08193	22.907724	-2.228679	8.264841	2.858323	5.694883	-1.305000	-0.555965	-0.768387	0.316993	0.827264	-0.474417	0.300935	-0.080847	0.429546	0.899419
08194	23.166862	-6.652142	4.922951	3.074305	5.495861	-1.432222	-0.561786	-0.784417	0.262841	0.815895	-0.472809	0.332817	-0.136794	0.401423	0.905620
08195	23.333353	-8.446075	2.442682	3.630980	5.023390	-1.460383	-0.565591	-0.796958	0.212050	0.801435	-0.470540	0.369180	-0.194443	0.378749	0.904843
08196	21.840042	-10.493897	1.000876	4.016337	4.304144	-1.411977	-0.567244	-0.806281	0.167767	0.784483	-0.467006	0.408035	-0.250642	0.363066	0.897419
08197	22.439560	-6.556930	0.599370	4.306560	3.327221	-1.537417	-0.570120	-0.810979	0.131437	0.763694	-0.464156	0.448698	-0.302878	0.356190	0.883965
08198	24.654480	0.973488	0.282520	3.392147	2.564996	-1.515119	-0.573293	-0.812991	0.101886	0.744065	-0.464508	0.480208	-0.343078	0.351109	0.871217
08199	24.042388	3.054180	-2.328937	1.146143	2.058933	-1.294809	-0.575617	-0.814021	0.077684	0.732558	-0.471124	0.491326	-0.363351	0.339723	0.867505
08200	20.951831	-1.857828	-5.203745	-0.734008	1.186073	-0.884949	-0.577806	-0.813736	0.063045	0.730121	-0.480816	0.485530	-0.364780	0.326573	0.871943
08201	20.374762	-10.312879	-5.416946	-1.414177	0.003486	-0.508527	-0.581402	-0.811353	0.060657	0.732345	-0.489389	0.473465	-0.354462	0.319695	0.878722
08202	21.214246	-12.546958	-3.011024	-0.734245	-1.029314	-0.489397	-0.588609	-0.805602	0.067415	0.732035	-0.495755	0.467281	-0.343021	0.324396	0.881535
08203	8.371176	-1.632620	6.321550	-0.071450	-1.204270	-0.734192	-0.597833	-0.798127	0.074757	0.728100	-0.501622	0.467168	-0.335360	0.333719	0.881003
08204	-30.061627	25.301461	34.554349	-2.234576	-0.397314	-1.036144	-0.606712	-0.791513	0.073537	0.729136	-0.517266	0.448103	-0.316641	0.325488	0.890952
08205	14.717675	-11.893001	12.838324	-2.847841	-1.796410	-0.606189	-0.616409	-0.782593	0.087110	0.734113	-0.531134	0.423053	-0.284811	0.324723	0.901908
08206	-25.292151	3.806011	13.694428	0.409613	0.317151	-1.259100	-0.624717	-0.776855	0.078899	0.725112	-0.539665	0.427755	-0.289725	0.324437	0.900445
08207	-7.089711	6.539651	-7.990815	-1.793360	-4.527480	0.021135	-0.636660	-0.761765	0.119908	0.730148	-0.545457	0.411534	-0.248088	0.349558	0.903472
08208	13.811436	6.134773	6.152522	-2.527668	-3.069178	1.222172	-0.634714	-0.757527	0.152616	0.743694	-0.545172	0.386921	-0.209901	0.359084	0.909396
08209	9.584354	-7.346980	12.872907	-3.430703	-1.736722	0.682823	-0.632815	-0.755158	0.171122	0.754689	-0.552105	0.354435	-0.173177	0.353436	0.919289
08210	-5.237805	-1.665626	10.813095	-0.818065	-2.314135	-0.367209	-0.639381	-0.744764	0.191099	0.753668	-0.557846	0.347553	-0.152242	0.366244	0.917980
08211	-1.631691	2.261367	10.272635	-1.303803	-3.810095	0.083906	-0.643803	-0.730935	0.226386	0.756050	-0.562040	0.335410	-0.117925	0.387097	0.914467
08212	7.963986	-11.674681	14.017555	-1.725123	-4.246420	0.944694	-0.640803	-0.719329	0.268212	0.763785	-0.562093	0.317308	-0.077488	0.408188	0.909603
08213	12.448216	-11.179186	16.920916	-0.443025	-3.671772	1.317977	-0.632954	-0.711296	0.305658	0.772530	-0.554453	0.309482	-0.050660	0.432018	0.900441
08214	11.507068	-1.781845	13.923774	-0.312622	-3.015746	1.703257	-0.620937	-0.707295	0.337893	0.783314	-0.543796	0.301174	-0.029274	0.451686	0.891697
08215	10.042965	11.054605	10.069661	-0.001277	-2.810760	1.658786	-0.608339	-0.703279	0.367862	0.793588	-0.532017	0.295257	-0.011940	0.471547	0.881760
08216	16.723000	24.994193	10.364771	-1.218150	-2.854622	1.629018	-0.595315	-0.698217	0.397609	0.803352	-0.526472	0.278303	0.015015	0.485098	0.874331
08217	18.172525	4.367344	8.550273	-3.339764	-1.602021	1.673075	-0.581104	-0.699403	0.416117	0.812203	-0.530707	0.242230	0.051420	0.478733	0.876454
08218	4.854757	-10.975481	12.902228	-2.094396	-0.495842	0.726764	-0.574914	-0.700894	0.422163	0.815095	-0.535610	0.220777	0.071373	0.471030	0.879225
08219	5.974307	-4.177699	12.522462	0.008384	-1.692800	0.693978	-0.567765	-0.696584	0.438649	0.819198	-0.530533	0.217830	0.080981	0.483017	0.871858
08220	11.046496	3.223038	10.856499	-0.274560	-0.864876	0.423349	-0.563589	-0.694600	0.447099	0.821336	-0.528965	0.213546	0.088171	0.487571	0.868620
08221	6.421183	-2.481496	11.585191	-0.910888	-0.285829	0.270888	-0.560903	-0.694710	0.450295	0.822147	-0.531322	0.204378	0.097268	0.484845	0.869174
08222	6.432033	-2.451096	11.360324	-0.107696	-0.334430	0.122352	-0.559594	-0.693706	0.453460	0.822703	-0.531041	0.202870	0.100073	0.486588	0.867881
08223	6.991516	1.335549	9.682270	-0.045372	-0.113583	0.039115	-0.558971	-0.693418	0.454667	0.823001	-0.530814	0.202253	0.101098	0.487245	0.867394
08224	5.651495	1.584571	9.508680	-0.252654	0.136245	0.005101	-0.559095	-0.694079	0.453506	0.822748	-0.532051	0.200018	0.102460	0.484950	0.868519
08225	4.999135	0.650074	9.548884	-0.326412	0.149066	0.007734	-0.558998	-0.694898	0.452369	0.822579	-0.533400	0.197099	0.104329	0.482287	0.869778
08226	5.183745	2.049872	8.943117	-0.308872	0.249846	-0.010083	-0.559370	-0.696016	0.450185	0.822175	-0.534998	0.194436	0.105518	0.478893	0.871509
08227	4.131605	3.261268	8.319725	-0.327911	0.279549	0.005632	-0.559437	-0.697436	0.447898	0.821980	-0.536354	0.191503	0.106670	0.475297	0.873335
08228	3.976575	3.174451	8.334516	-0.355912	0.174118	0.036517	-0.559351	-0.698428	0.446458	0.821778	-0.537828	0.188209	0.108667	0.472164	0.874787
08229	3.269941	2.807253	8.292609	-0.284466	0.112842	0.055843	-0.558838	-0.699315	0.445712	0.821896	-0.538613	0.185427	0.110394	0.469952	0.875761
08230	3.267777	2.775078	8.470185	-0.209690	-0.107704	0.066378	-0.558198	-0.699138	0.446790	0.822009	-0.539177	0.183274	0.112765	0.469569	0.875665
08231	4.392060	2.652548	8.267002	-0.184738	-0.179072	0.084691	-0.557130	-0.698803	0.448643	0.822381	-0.539298	0.181237	0.115303	0.469928	0.875142
08232	4.246381	1.610645	9.056457	-0.385585	-0.228232	0.129758	-0.555820	-0.698403	0.450885	0.822626	-0.540245	0.177260	0.119790	0.469435	0.874804
08233	6.389703	0.919182	9.411081	-0.295739	-0.204587	0.097662	-0.554606	-0.698017	0.452974	0.822916	-0.540802	0.174192	0.123380	0.469367	0.874341
08234	4.367578	2.070008	8.674223	-0.232813	0.052098	0.082019	-0.554021	-0.698676	0.452673	0.823057	-0.541363	0.171765	0.125052	0.467737	0.874977
08235	4.109836	1.967357	8.840542	-0.365410	-0.150463	0.125877	-0.552632	-0.698700	0.454330	0.823394	-0.542044	0.167957	0.128915	0.466911	0.874857
08236	4.821994	1.755284	8.642279	-0.322820	-0.119327	0.121220	-0.551503	-0.698773	0.455589	0.823618	-0.542745	0.164562	0.132277	0.465987	0.874848
08237	3.930952	2.530538	8.495984	-0.288925	-0.161886	0.129157	-0.550067	-0.698762	0.457338	0.824043	-0.543048	0.161407	0.135572	0.465651	0.874522
08238	4.239706	2.344268	8.436425	-0.298833	-0.266259	0.137242	-0.548594	-0.698239	0.459899	0.824362	-0.543523	0.158146	0.139542	0.465881	0.873775
08239	4.747819	2.425637	9.323752	-0.260199	-0.378615	0.134500	-0.546798	-0.697243	0.463535	0.824826	-0.543663	0.155216	0.143783	0.467207	0.872378
08240	4.050644	2.082053	8.157538	-0.176130	-0.220932	0.113940	-0.545562	-0.696801	0.465651	0.825169	-0.543734	0.153132	0.146487	0.467784	0.871619
08241	5.200863	1.174343	9.395832	-0.205739	-0.427602	0.127888	-0.543726	-0.695528	0.469684	0.825652	-0.543678	0.150708	0.150535	0.469740	0.869876
08242	5.169853	1.217761	9.652548	-0.046756	-0.334708	0.088001	-0.542516	-0.694402	0.472740	0.826035	-0.543328	0.149869	0.152784	0.471805	0.868364
08243	6.369612	-0.150647	9.805448	-0.025307	-0.233499	0.006462	-0.541963	-0.693366	0.474888	0.826119	-0.543278	0.149584	0.154280	0.473383	0.867240
08244	4.862595	1.285775	8.606849	0.210533	-0.112630	-0.061560	-0.542323	-0.692469	0.475786	0.826085	-0.542748	0.151683	0.153196	0.475301	0.866383
08245	5.791945	1.997316	8.677001	0.033890	-0.113318	-0.029499	-0.542254	-0.691802	0.476834	0.826064	-0.542669	0.152081	0.153553	0.476362	0.865737
08246	4.950066	1.414598	8.947322	0.062709	-0.039571	-0.027825	-0.542447	-0.691434	0.477148	0.825985	-0.542604	0.152738	0.153294	0.476970	0.865448
08247	5.153251	1.878341	8.834355	0.086489	-0.032243	-0.030584	-0.542514	-0.691145	0.477490	0.826038	-0.542282	0.153598	0.152776	0.477754	0.865107
08248	5.004724	1.659066	8.741351	0.037701	0.006440	-0.018168	-0.542697	-0.691049	0.477421	0.825973	-0.542268	0.153993	0.152474	0.477908	0.865076
08249	4.863240	1.732847	8.748150	0.058443	0.013440	-0.020948	-0.542757	-0.691030	0.477381	0.826032	-0.542016	0.154564	0.151939	0.478222	0.864996
08250	4.802437	1.653555	8.987019	0.020019	0.027573	-0.018810	-0.542978	-0.691032	0.477127	0.825937	-0.542091	0.154809	0.151669	0.478135	0.865092
08251	4.745325	1.911148	8.813241	0.049890	0.021385	-0.012927	-0.542987	-0.691093	0.477028	0.826023	-0.541828	0.155268	0.151162	0.478345	0.865064
08252	4.575876	1.529432	9.077184	0.030514	0.029932	-0.011035	-0.543147	-0.691148	0.476766	0.825986	-0.541799	0.155567	0.150792	0.478298	0.865155
08253	4.724050	2.120277	9.072430	0.106875	-0.091805	0.014617	-0.542764	-0.690814	0.477686	0.826304	-0.541077	0.156388	0.150429	0.479595	0.864499
08254	4.196307	2.054876	9.408472	0.082548	-0.094076	0.042175	-0.542297	-0.690562	0.478579	0.826634	-0.540430	0.156882	0.150302	0.480686	0.863916
08255	4.343101	2.151367	9.600159	0.174167	-0.242938	0.095892	-0.541021	-0.689933	0.480926	0.827488	-0.538826	0.157893	0.150199	0.483384	0.862427
08256	4.012324	2.235420	9.592037	0.238421	-0.423298	0.132962	-0.539306	-0.688565	0.484796	0.828542	-0.536793	0.159287	0.150556	0.487578	0.860000
08257	3.830796	1.462085	10.762793	0.333857	-0.381904	0.163208	-0.537270	-0.687588	0.488430	0.829989	-0.533940	0.161328	0.149865	0.492068	0.857560
08258	4.962700	0.270237	9.254914	0.525763	-0.555364	0.136766	-0.535328	-0.685536	0.493420	0.831484	-0.530438	0.165139	0.148520	0.498674	0.853971
08259	4.868046	1.289140	10.077162	0.394629	-0.610075	0.115799	-0.533359	-0.683102	0.498898	0.832748	-0.527582	0.167894	0.148521	0.505004	0.850243
08260	4.698535	0.895478	9.825017	0.528312	-0.690935	0.063433	-0.531830	-0.679892	0.504879	0.833846	-0.524503	0.172039	0.147842	0.512487	0.845872
08261	5.031029	1.243356	9.767347	0.376931	-0.803039	0.043554	-0.530184	-0.675985	0.511809	0.834690	-0.522189	0.174963	0.148988	0.519964	0.841094
08262	4.683562	1.579178	9.854418	0.402399	-0.944758	0.042895	-0.528434	-0.671228	0.519818	0.835497	-0.519832	0.178099	0.150673	0.528420	0.835506
08263	4.537369	2.738947	10.116440	0.302470	-1.115692	0.066046	-0.526099	-0.665631	0.529297	0.836353	-0.517714	0.180236	0.154054	0.537501	0.829072
08264	4.241517	3.756274	10.622498	0.152610	-1.366823	0.190392	-0.522382	-0.659172	0.540934	0.837569	-0.515667	0.180462	0.159986	0.547339	0.821477
08265	4.023689	4.962921	11.063920	0.009219	-1.606501	0.422999	-0.516128	-0.652469	0.554885	0.839818	-0.512790	0.178188	0.168277	0.557970	0.812620
08266	2.968241	4.561576	11.998037	-0.153728	-1.938891	0.704960	-0.506846	-0.645109	0.571788	0.843134	-0.509125	0.172963	0.179532	0.569760	0.801961
08267	2.217823	3.695474	13.360319	-0.118887	-2.405300	0.948888	-0.494298	-0.636021	0.592576	0.847687	-0.503703	0.166466	0.192606	0.584603	0.788126
08268	1.718159	2.749637	14.875492	-0.106197	-3.113646	1.174574	-0.478082	-0.623368	0.618748	0.853162	-0.496979	0.158514	0.208693	0.603675	0.769431
08269	-2.907555	6.900659	13.955568	-0.553408	-4.307512	1.576910	-0.455039	-0.604616	0.653742	0.859292	-0.490718	0.144270	0.233575	0.627404	0.742837
08270	-0.853649	5.282789	14.462920	-1.336239	-5.688339	2.042882	-0.423113	-0.578107	0.697687	0.864874	-0.487244	0.120771	0.270125	0.654512	0.706149
08271	1.239488	5.824372	13.658559	-1.563263	-6.836319	2.478685	-0.381760	-0.544300	0.746992	0.870264	-0.483884	0.092175	0.311287	0.685269	0.658412
08272	6.415786	5.134706	13.013383	-1.417010	-7.766196	2.813051	-0.331461	-0.503256	0.798040	0.875580	-0.479141	0.061514	0.351416	0.719137	0.599457
08273	10.556278	5.165817	12.280839	-0.882257	-8.330398	2.964927	-0.274803	-0.455900	0.846545	0.881259	-0.471540	0.032127	0.384533	0.754854	0.531347
08274	26.065579	7.641973	16.320569	0.323314	-8.329554	3.048419	-0.215023	-0.405538	0.888428	0.889980	-0.455942	0.007276	0.402121	0.792247	0.458959
08275	21.650380	10.232215	16.353117	-0.391635	-6.312396	3.466663	-0.158278	-0.370418	0.915281	0.894782	-0.445764	-0.025669	0.417507	0.814914	0.401998
08276	15.484236	10.941094	16.307970	-0.962465	-5.985842	3.747991	-0.099241	-0.337693	0.936010	0.895491	-0.440459	-0.063963	0.433874	0.831841	0.346113
08277	10.783858	9.037856	15.631778	-1.513201	-5.311885	3.918945	-0.040813	-0.310496	0.949698	0.891463	-0.440584	-0.105735	0.451252	0.842305	0.294777
08278	4.427019	9.850770	14.360484	-1.563449	-4.782825	3.922990	0.015959	-0.287306	0.957706	0.884761	-0.442127	-0.147379	0.465771	0.849693	0.247142
08279	-5.836016	11.342971	12.073144	-1.698851	-4.779209	4.080428	0.074285	-0.264732	0.961457	0.874800	-0.445558	-0.190272	0.478756	0.855216	0.198489
08280	-8.824666	12.239548	10.671712	-2.136798	-5.681656	4.107929	0.137488	-0.234434	0.962360	0.860064	-0.453673	-0.233390	0.491311	0.859780	0.139254
08281	22.555617	8.880502	12.248205	-2.582479	-6.253343	2.487590	0.189595	-0.192242	0.962859	0.843031	-0.470844	-0.260008	0.503341	0.861016	0.072796
08282	23.702572	8.700067	14.467583	-2.304943	-1.369265	-0.076085	0.195949	-0.180109	0.963932	0.831370	-0.490774	-0.260702	0.520027	0.852468	0.053571
08283	13.141933	2.749180	13.331423	-1.274651	1.637157	-1.786578	0.172264	-0.185258	0.967473	0.827799	-0.505128	-0.244119	0.533923	0.842927	0.066341
08284	6.094789	8.021174	13.396714	-0.407313	3.525642	-3.202945	0.126708	-0.198455	0.971885	0.830379	-0.514729	-0.213365	0.542600	0.834068	0.099572
08285	-3.647504	8.422073	8.464153	-0.614114	4.267201	-3.432667	0.074542	-0.216079	0.973526	0.830277	-0.527277	-0.180605	0.552343	0.821760	0.140101
08286	-7.096338	7.062662	5.458732	-0.646321	3.687364	-3.063331	0.028614	-0.229794	0.972819	0.828243	-0.539421	-0.151780	0.559637	0.810074	0.174890
08287	-5.146647	4.188094	4.233593	-0.759483	3.351797	-2.750032	-0.013313	-0.241879	0.970215	0.823940	-0.552398	-0.126409	0.566520	0.797717	0.206648
08288	-3.795261	0.769072	4.652165	-0.515189	3.123500	-2.484085	-0.051500	-0.252745	0.966161	0.820184	-0.562664	-0.103473	0.569777	0.787102	0.236275
08289	-1.694320	-0.649338	5.540762	-0.018752	3.001704	-2.284199	-0.087649	-0.263448	0.960684	0.818216	-0.569116	-0.081418	0.568190	0.778911	0.265440
08290	0.740601	-1.042581	6.547567	0.508623	3.041163	-2.088635	-0.121933	-0.275115	0.953648	0.818873	-0.570832	-0.059977	0.560874	0.773603	0.294888
08291	3.523984	-0.292087	7.686175	0.909560	3.279379	-1.914904	-0.156219	-0.289593	0.944315	0.820953	-0.569670	-0.038890	0.549211	0.769163	0.326736
08292	5.519376	-0.030214	8.093346	1.072221	3.725942	-1.770610	-0.190980	-0.308063	0.932000	0.823659	-0.566782	-0.018565	0.533960	0.764104	0.361983
08293	6.518900	0.341035	8.234483	1.134110	4.229300	-1.643154	-0.227160	-0.331002	0.915880	0.825843	-0.563899	0.001033	0.516122	0.756608	0.401451
08294	6.787906	-0.622161	8.215632	1.114764	4.634429	-1.539451	-0.263356	-0.357154	0.896150	0.827678	-0.560857	0.019708	0.495573	0.746914	0.443314
08295	6.889612	-1.578539	7.990092	1.220530	4.935780	-1.505356	-0.300160	-0.385334	0.872595	0.828984	-0.557926	0.038782	0.471900	0.735008	0.486903
08296	6.535741	-1.917093	7.805728	1.390552	5.092265	-1.483464	-0.335824	-0.414166	0.845984	0.830607	-0.553766	0.058614	0.444201	0.722364	0.529977
08297	6.377479	-1.472158	8.080928	1.518051	5.076929	-1.427290	-0.369963	-0.442593	0.816846	0.831709	-0.549575	0.078918	0.413990	0.708575	0.571431
08298	7.193898	-0.701122	8.532057	1.552002	5.002136	-1.336312	-0.401017	-0.470338	0.786109	0.832703	-0.544833	0.098806	0.381826	0.694218	0.610139
08299	7.927389	-0.338824	8.938343	1.444448	4.968765	-1.201719	-0.429709	-0.497817	0.753345	0.832604	-0.541326	0.117206	0.349458	0.677602	0.647097
08300	8.849228	-1.309459	9.566907	1.355616	4.927421	-1.015139	-0.454596	-0.525261	0.719336	0.832599	-0.537500	0.133690	0.316421	0.659693	0.681677
08301	10.009887	-4.291083	9.968470	1.421820	4.944894	-0.791094	-0.476512	-0.553042	0.683433	0.832773	-0.533124	0.149226	0.281827	0.640253	0.714598
08302	11.632075	-5.312370	10.297084	1.990694	5.008226	-0.644187	-0.495004	-0.581228	0.645868	0.834818	-0.524255	0.168032	0.240935	0.622359	0.744728
08303	13.483954	-3.802207	10.622803	2.472937	5.225457	-0.491703	-0.511030	-0.610548	0.605044	0.837336	-0.512637	0.189927	0.194208	0.603684	0.773207
08304	13.708830	-1.301402	10.941960	2.718880	5.518033	-0.460312	-0.524222	-0.640936	0.560707	0.839510	-0.499430	0.213992	0.142879	0.582899	0.799884
08305	13.642099	1.712071	11.244975	2.691120	5.725222	-0.555185	-0.536090	-0.670671	0.512648	0.839336	-0.488316	0.238877	0.090126	0.558343	0.824700
08306	13.842904	4.564668	11.374516	2.402015	5.806428	-0.780720	-0.546403	-0.698472	0.462147	0.836632	-0.480634	0.262751	0.038600	0.530215	0.846984
08307	15.232056	5.373027	10.809686	1.826405	5.749521	-1.061814	-0.556638	-0.722716	0.409677	0.830715	-0.479358	0.283072	-0.008199	0.497893	0.867200
08308	17.181070	3.709884	9.815030	1.383418	5.583058	-1.305770	-0.565819	-0.743256	0.356959	0.822955	-0.482327	0.300177	-0.050937	0.463607	0.884576
08309	19.468901	-0.219742	8.860163	1.281542	5.220850	-1.454726	-0.574455	-0.759317	0.305677	0.813450	-0.488017	0.316446	-0.091107	0.430437	0.898011
08310	22.956335	-4.709639	7.388276	1.720228	4.771255	-1.485040	-0.581157	-0.771881	0.257793	0.802926	-0.492273	0.336122	-0.132542	0.402328	0.905850
08311	25.216722	-8.803326	5.193736	2.516486	4.417032	-1.448480	-0.586158	-0.781837	0.212486	0.790329	-0.494044	0.362355	-0.178325	0.380331	0.907496
08312	25.300822	-11.679425	2.267264	3.512164	3.973485	-1.460297	-0.589524	-0.789445	0.170989	0.774571	-0.492450	0.396905	-0.229131	0.366428	0.901792
08313	27.034590	-7.598717	-0.297317	4.219622	3.410882	-1.467321	-0.592223	-0.794518	0.134213	0.754995	-0.488955	0.436927	-0.281522	0.360088	0.889428
08314	28.789102	0.891214	-2.642737	3.733341	2.920748	-1.297780	-0.593052	-0.798610	0.102531	0.735938	-0.485991	0.471390	-0.326628	0.355015	0.875944
08315	20.884848	10.048947	-1.951321	1.386260	2.481613	-1.223958	-0.593586	-0.801268	0.075004	0.723977	-0.490969	0.484569	-0.351444	0.341935	0.871532
08316	20.553600	-1.855340	-11.571958	-2.354972	-0.569394	0.484801	-0.592028	-0.801705	0.082295	0.734876	-0.495100	0.463501	-0.330847	0.334882	0.882267
08317	15.277752	-6.635226	-9.957745	-3.091369	-1.495126	-0.412740	-0.599660	-0.794736	0.093823	0.742258	-0.508546	0.436387	-0.299099	0.331325	0.894854
08318	-5.082668	-7.721585	13.328500	-3.664321	-1.409852	-0.340818	-0.606204	-0.788333	0.105109	0.750495	-0.523290	0.403640	-0.263200	0.323572	0.908860
08319	9.472280	-5.225239	19.207488	-1.015217	-2.702805	-1.527968	-0.624266	-0.771357	0.123696	0.743765	-0.538410	0.396142	-0.238968	0.339298	0.909819
08320	-7.977425	9.213638	9.547446	-0.229812	-0.991325	-2.025088	-0.641567	-0.756865	0.124690	0.731473	-0.554716	0.396533	-0.230954	0.345609	0.909513
08321	-4.190291	5.637498	3.103315	-2.604344	-2.904090	-0.252114	-0.649450	-0.745396	0.150333	0.735483	-0.565566	0.373095	-0.193080	0.352874	0.915533
08322	2.778260	-14.113856	9.128968	-3.115106	-2.946303	0.781915	-0.648757	-0.739351	0.180210	0.745899	-0.570864	0.343147	-0.150831	0.357037	0.921832
08323	5.629638	-10.245629	13.465262	-0.255628	-3.432075	0.121038	-0.652509	-0.727445	0.212263	0.747138	-0.570808	0.340534	-0.126558	0.380791	0.915959
08324	3.508608	-2.103686	14.817302	-0.890755	-3.024549	0.631689	-0.651233	-0.719245	0.242037	0.752245	-0.569750	0.330926	-0.100116	0.397581	0.912089
08325	4.191967	-7.673468	12.193225	-0.184576	-3.728167	1.152889	-0.645674	-0.710520	0.279762	0.759971	-0.562173	0.326198	-0.074496	0.423229	0.902955
08326	10.136404	0.723854	12.790247	-0.089712	-3.660274	1.420273	-0.637128	-0.702450	0.317225	0.769116	-0.552575	0.321126	-0.050284	0.448582	0.892326
08327	12.020241	7.396562	12.899860	-0.160116	-3.354862	1.471180	-0.626944	-0.695126	0.351768	0.778568	-0.542935	0.314727	-0.027788	0.471192	0.881593
08328	16.223331	17.461132	12.353358	-0.571661	-3.121658	1.472898	-0.615932	-0.688040	0.383704	0.787790	-0.535541	0.304275	-0.003864	0.489691	0.871888
08329	19.236375	15.775625	8.449184	-2.220840	-2.115743	1.593887	-0.602888	-0.686255	0.406915	0.797380	-0.535325	0.278589	0.026648	0.492424	0.869947
08330	9.674087	-4.760193	11.292713	-2.476716	-1.107163	1.221551	-0.592697	-0.687367	0.419806	0.803671	-0.539108	0.251946	0.053142	0.486714	0.871944
08331	6.555369	-7.296378	12.065055	-0.754967	-1.145659	0.719128	-0.585993	-0.685729	0.431726	0.807626	-0.537626	0.242277	0.065971	0.490646	0.868858
08332	7.599376	0.488117	10.569592	-0.294162	-1.113477	0.603289	-0.580356	-0.683437	0.442832	0.810912	-0.534995	0.237069	0.074891	0.496683	0.864695
08333	7.736619	2.455565	10.200628	-0.553146	-0.755215	0.429707	-0.576036	-0.682059	0.450531	0.813122	-0.534586	0.230325	0.083753	0.499012	0.862538
08334	5.469720	-0.666336	10.516078	-0.627728	-0.494687	0.291550	-0.573259	-0.681120	0.455467	0.814221	-0.535778	0.223573	0.091749	0.499016	0.861722
08335	4.835342	-0.896085	10.307724	-0.290889	-0.531132	0.224753	-0.570690	-0.679749	0.460711	0.815397	-0.535474	0.219989	0.097162	0.501208	0.859855
08336	6.189062	0.539155	9.772293	-0.072207	-0.520630	0.146680	-0.569006	-0.677886	0.465513	0.816136	-0.534888	0.218671	0.100763	0.504348	0.857601
08337	7.302627	1.271975	9.538672	-0.078274	-0.280410	0.038491	-0.568173	-0.676752	0.468173	0.816437	-0.534798	0.217765	0.103005	0.505962	0.856383
08338	6.393674	0.224454	9.851575	-0.099692	-0.079048	-0.054511	-0.568564	-0.676030	0.468741	0.815998	-0.535718	0.217148	0.104314	0.505954	0.856229
08339	6.169320	1.345714	9.315776	0.109289	0.059534	-0.145574	-0.569574	-0.675631	0.468090	0.815449	-0.535919	0.218707	0.103094	0.506274	0.856188
08340	5.220293	3.217133	8.510023	0.151774	0.139042	-0.193987	-0.571325	-0.675264	0.466483	0.814472	-0.536507	0.220895	0.101109	0.506140	0.856504
08341	4.801820	3.623955	8.109015	0.091581	0.191333	-0.167264	-0.572636	-0.675416	0.464652	0.813776	-0.536941	0.222400	0.099278	0.505477	0.857110
08342	4.161591	3.301931	8.256325	0.066442	0.158543	-0.119947	-0.573796	-0.675543	0.463034	0.813129	-0.537462	0.223508	0.097874	0.504755	0.857697
08343	4.057589	3.061286	8.256476	0.046821	0.155451	-0.050808	-0.574119	-0.676137	0.461765	0.813053	-0.537335	0.224089	0.096608	0.504093	0.858229
08344	3.959156	3.114574	8.358992	-0.008288	0.066355	0.029814	-0.573968	-0.676601	0.461272	0.813191	-0.537221	0.223862	0.096340	0.503592	0.858553
08345	5.080907	2.537838	8.377298	-0.051063	0.076091	0.065209	-0.573273	-0.677416	0.460941	0.813683	-0.536806	0.223070	0.096325	0.502939	0.858938
08346	3.856559	2.673296	8.529783	-0.063000	0.060817	0.060425	-0.572867	-0.678016	0.460563	0.813944	-0.536758	0.222231	0.096534	0.502181	0.859358
08347	4.871598	1.823367	9.053757	-0.133602	-0.077252	0.078927	-0.571913	-0.678132	0.461576	0.814431	-0.536664	0.220667	0.098070	0.502124	0.859217
08348	4.605226	1.597464	8.731206	-0.091293	-0.021113	0.061118	-0.571422	-0.678324	0.461902	0.814666	-0.536753	0.219582	0.098980	0.501770	0.859320
08349	4.239878	2.878241	8.685083	-0.103214	-0.111890	0.073942	-0.570473	-0.678238	0.463199	0.815148	-0.536543	0.218299	0.100468	0.502110	0.858948
08350	5.204113	2.269800	8.693774	-0.159042	-0.108007	0.076971	-0.569763	-0.678079	0.464305	0.815401	-0.536864	0.216558	0.102425	0.501981	0.858792
08351	4.729002	2.993213	8.443883	-0.164774	-0.061207	0.089814	-0.568734	-0.678332	0.465197	0.815905	-0.536857	0.214673	0.104125	0.501648	0.858783
08352	4.418895	2.734657	8.587898	-0.298492	-0.099524	0.129156	-0.567601	-0.678497	0.466338	0.816299	-0.537521	0.211489	0.107171	0.500712	0.858954
08353	4.653658	2.201051	8.576694	-0.373368	-0.090685	0.166070	-0.565913	-0.679013	0.467637	0.816994	-0.538037	0.207455	0.110741	0.499458	0.859231
08354	4.174137	2.841680	8.533995	-0.481513	-0.124653	0.225305	-0.563957	-0.679575	0.469181	0.817698	-0.538951	0.202243	0.115426	0.497704	0.859632
08355	4.811494	2.827656	8.638826	-0.625690	-0.191886	0.271468	-0.561277	-0.680160	0.471541	0.818641	-0.539992	0.195537	0.121631	0.495773	0.859892
08356	4.954054	1.719192	8.940625	-0.643080	-0.149143	0.261382	-0.558976	-0.680806	0.473337	0.819279	-0.541437	0.188753	0.127778	0.493304	0.860421
08357	5.138636	1.377652	9.218730	-0.506095	-0.204633	0.230356	-0.556590	-0.681117	0.475696	0.820060	-0.542142	0.183257	0.133076	0.492098	0.860308
08358	5.339683	1.409005	8.949410	-0.396881	-0.153558	0.173044	-0.554988	-0.681272	0.477343	0.820461	-0.542958	0.179000	0.137229	0.490984	0.860292
08359	4.913110	1.875771	8.835739	-0.316951	-0.154517	0.151212	-0.553301	-0.681405	0.479110	0.821013	-0.543265	0.175501	0.140696	0.490460	0.860031
08360	4.973003	1.659015	9.040996	-0.346264	-0.208151	0.138733	-0.551890	-0.681109	0.481153	0.821261	-0.544060	0.171840	0.144735	0.489989	0.859630
08361	5.001267	1.587787	8.862414	-0.289962	-0.190486	0.122129	-0.550377	-0.680908	0.483166	0.821662	-0.544434	0.168710	0.148176	0.489853	0.859120
08362	5.050244	1.869851	8.780313	-0.282235	-0.218667	0.117945	-0.549105	-0.680450	0.485254	0.821863	-0.545056	0.165697	0.151742	0.489797	0.858529
08363	5.036678	1.764572	8.672478	-0.278105	-0.187294	0.112862	-0.547659	-0.680214	0.487215	0.822207	-0.545436	0.162712	0.155065	0.489702	0.857990
08364	4.737757	2.039461	8.672738	-0.276245	-0.217948	0.116208	-0.546386	-0.679752	0.489285	0.822385	-0.546041	0.159758	0.158574	0.489670	0.857367
08365	4.747545	1.850680	8.752109	-0.243115	-0.267979	0.113896	-0.544791	-0.679125	0.491927	0.822766	-0.546246	0.157068	0.162045	0.490311	0.856351
08366	5.229036	1.698062	8.768627	-0.199189	-0.318498	0.114435	-0.543352	-0.678158	0.494845	0.823038	-0.546490	0.154782	0.165461	0.491377	0.855085
08367	5.336241	1.429027	8.658912	-0.109525	-0.283316	0.095012	-0.541869	-0.677344	0.497577	0.823520	-0.546174	0.153327	0.167908	0.492847	0.853761
08368	5.162340	1.427599	8.873362	-0.070963	-0.272326	0.079644	-0.540777	-0.676406	0.500035	0.823806	-0.546027	0.152308	0.170011	0.494297	0.852506
08369	5.528338	0.343750	9.124867	0.022114	-0.272359	0.029282	-0.539844	-0.675277	0.502564	0.824150	-0.545510	0.152302	0.171308	0.496407	0.851019
08370	5.026642	1.719559	9.023072	0.073102	-0.288645	0.035504	-0.539078	-0.674005	0.505086	0.824442	-0.544949	0.152728	0.172306	0.498746	0.849448
08371	4.914710	1.348878	9.178268	0.005188	-0.312060	0.052368	-0.537881	-0.672789	0.507976	0.824879	-0.544363	0.152458	0.173951	0.501023	0.847772
08372	4.727240	1.352957	9.441125	0.103640	-0.336792	0.086443	-0.536603	-0.671538	0.510974	0.825500	-0.543303	0.152879	0.174950	0.503844	0.845892
08373	4.455132	1.640663	9.483520	0.151588	-0.416591	0.060500	-0.535153	-0.669814	0.514743	0.826230	-0.541931	0.153800	0.175938	0.507603	0.843437
08374	5.403282	1.540962	8.939303	0.139934	-0.463113	0.077066	-0.533722	-0.667842	0.518775	0.826865	-0.540744	0.154564	0.177300	0.511452	0.840822
08375	5.154715	1.546273	9.099608	0.145651	-0.477276	0.062378	-0.532143	-0.665779	0.523032	0.827593	-0.539386	0.155412	0.178646	0.515559	0.838024
08376	5.088001	1.646797	9.207829	0.166791	-0.522016	0.045992	-0.530848	-0.663295	0.527484	0.828112	-0.538258	0.156550	0.180083	0.519921	0.835017
08377	4.900102	1.754549	9.272720	0.242689	-0.586402	0.048686	-0.529178	-0.660540	0.532596	0.828941	-0.536479	0.158265	0.181186	0.525240	0.831441
08378	5.021078	1.857047	9.312248	0.268346	-0.668601	0.056606	-0.527515	-0.657282	0.538245	0.829704	-0.534730	0.160173	0.182537	0.531077	0.827428
08379	4.897708	1.398134	9.743724	0.273228	-0.772964	0.064295	-0.525362	-0.653538	0.544870	0.830670	-0.532667	0.162029	0.184342	0.537731	0.822717
08380	5.072141	1.737463	9.489998	0.359507	-0.875317	0.078112	-0.523114	-0.649184	0.552188	0.831721	-0.530252	0.164535	0.185986	0.545338	0.817323
08381	5.048374	1.612674	9.486928	0.328170	-0.990689	0.113071	-0.520128	-0.644375	0.560578	0.833044	-0.527547	0.166528	0.188425	0.553602	0.811185
08382	4.895859	1.870080	9.887999	0.287139	-1.139836	0.161275	-0.516638	-0.638834	0.570068	0.834403	-0.524952	0.167922	0.191984	0.562421	0.804254
08383	4.408651	2.298646	10.290667	0.207011	-1.306668	0.248053	-0.511846	-0.632750	0.581069	0.836190	-0.522043	0.168100	0.196977	0.571925	0.796305
08384	4.177487	2.627409	10.491472	0.071953	-1.570316	0.305899	-0.506156	-0.625252	0.594025	0.837868	-0.519745	0.166861	0.204411	0.582172	0.786951
08385	3.955035	2.757537	11.281798	-0.091445	-1.846240	0.407303	-0.498714	-0.616533	0.609238	0.839816	-0.517618	0.163647	0.214459	0.593261	0.775918
08386	3.357593	1.474322	11.495607	-0.137807	-2.229604	0.497687	-0.489633	-0.605702	0.627204	0.841948	-0.515445	0.159500	0.226680	0.606170	0.762348
08387	1.932040	2.640128	12.078422	-0.147329	-2.841513	0.650078	-0.477369	-0.591590	0.649723	0.844815	-0.512360	0.154191	0.241675	0.622502	0.744369
08388	1.159708	2.859779	13.517779	-0.385735	-3.797007	0.839417	-0.460706	-0.571829	0.678794	0.847755	-0.509959	0.145783	0.262794	0.642614	0.719713
08389	0.507715	4.630081	13.933981	-0.517575	-4.818396	1.050767	-0.438412	-0.545607	0.714218	0.851081	-0.507441	0.134777	0.288888	0.666945	0.686824
08390	2.272110	5.557460	13.521111	-0.680738	-5.770231	1.382921	-0.409083	-0.513299	0.754437	0.854847	-0.504793	0.120081	0.319197	0.694052	0.645295
08391	4.246114	5.471012	12.303992	-0.645571	-6.627626	1.713874	-0.372169	-0.474900	0.797471	0.859363	-0.500939	0.102740	0.350693	0.723554	0.594546
08392	8.693629	4.168428	11.719111	-0.447104	-7.356692	1.985987	-0.328156	-0.430366	0.840892	0.864661	-0.495293	0.083942	0.380362	0.754632	0.534654
08393	13.891484	3.689040	11.306316	0.138306	-7.732421	2.070857	-0.279902	-0.380888	0.881237	0.871456	-0.485907	0.066776	0.402765	0.786650	0.467934
08394	26.861448	3.677747	14.655680	0.756540	-7.205283	1.975514	-0.233153	-0.332565	0.913805	0.879596	-0.472833	0.052344	0.414670	0.815984	0.402765
08395	17.708841	6.829535	13.726314	0.396306	-5.962603	2.124119	-0.189425	-0.293215	0.937093	0.885695	-0.463009	0.034161	0.423866	0.836450	0.347404
08396	13.296747	6.761424	14.460834	-0.050284	-5.801643	2.356582	-0.143627	-0.255027	0.956207	0.889383	-0.457012	0.011702	0.434014	0.852116	0.292456
08397	10.060987	6.580565	14.581971	-0.419245	-5.383985	2.589780	-0.096997	-0.220667	0.970514	0.890577	-0.454606	-0.014357	0.444370	0.862925	0.240617
08398	6.363460	6.616682	13.772391	-0.609021	-5.019970	2.690467	-0.050514	-0.189346	0.980610	0.889807	-0.454408	-0.041905	0.453532	0.870437	0.191436
08399	0.779220	6.422509	12.304541	-0.801409	-4.827660	2.839232	-0.003309	-0.160212	0.987077	0.886777	-0.456689	-0.071152	0.462186	0.875081	0.143584
08400	-2.926669	6.684844	11.771487	-1.076465	-5.136996	2.899114	0.046275	-0.128469	0.990633	0.881114	-0.461977	-0.101070	0.470634	0.877538	0.091818
08401	1.222118	10.608548	10.105780	-2.123886	-5.322499	1.906079	0.088257	-0.090987	0.991934	0.869500	-0.478811	-0.121283	0.485984	0.873190	0.036855
08402	27.814268	13.168847	11.015245	-2.283259	-3.694366	0.652933	0.112133	-0.062032	0.991755	0.857549	-0.498192	-0.128120	0.502032	0.864845	-0.002668
08403	15.941011	2.843500	13.466082	-3.681419	0.068893	-0.098618	0.110726	-0.062321	0.991895	0.838372	-0.530122	-0.126896	0.533734	0.845628	-0.006450
08404	11.422709	2.378698	15.308806	-2.187115	2.147201	-1.711014	0.084773	-0.071064	0.993863	0.828130	-0.549649	-0.109938	0.554089	0.832367	0.012255
08405	2.212859	2.800361	11.454162	-2.050870	3.526800	-2.124643	0.047114	-0.088540	0.994958	0.817647	-0.568747	-0.089330	0.573788	0.817733	0.045599
08406	-3.672090	2.620633	7.986632	-1.607725	3.590044	-2.147359	0.008778	-0.105258	0.994406	0.808886	-0.583909	-0.068947	0.587900	0.804967	0.080016
08407	-4.245116	2.136112	6.256079	-1.353884	3.312038	-1.913722	-0.026619	-0.120667	0.992336	0.800283	-0.597434	-0.051180	0.599031	0.792787	0.112471
08408	-3.423614	0.688007	5.819676	-1.024547	3.044743	-1.592851	-0.057673	-0.135019	0.989163	0.793413	-0.607577	-0.036674	0.605945	0.782700	0.142167
08409	-1.334736	0.157839	6.314308	-0.534507	2.875863	-1.280037	-0.085652	-0.149826	0.984995	0.788796	-0.614153	-0.024827	0.608658	0.774834	0.170786
08410	1.185576	0.355650	6.903470	-0.085204	2.927144	-1.005673	-0.111377	-0.166207	0.979781	0.787260	-0.616436	-0.015079	0.606479	0.769663	0.199505
08411	3.183876	0.828592	7.460363	0.299810	3.182796	-0.802372	-0.137345	-0.185899	0.972922	0.787571	-0.616188	-0.006558	0.600723	0.765345	0.231039
08412	4.653265	1.399171	7.556118	0.521752	3.592524	-0.685845	-0.164181	-0.209072	0.964020	0.789618	-0.613597	0.001405	0.591226	0.761438	0.265828
08413	4.991835	1.788800	7.260193	0.612832	4.043100	-0.642418	-0.193435	-0.235982	0.952311	0.791520	-0.611072	0.009352	0.579723	0.755582	0.304987
08414	4.840546	1.975062	6.954473	0.618866	4.396641	-0.640372	-0.223711	-0.265106	0.937908	0.793698	-0.608061	0.017441	0.565682	0.748318	0.346444
08415	4.723664	1.730356	6.711335	0.571872	4.633513	-0.653443	-0.255338	-0.295700	0.920524	0.794759	-0.606382	0.025665	0.550600	0.738148	0.389842
08416	4.996611	1.319397	6.473099	0.568398	4.749598	-0.653772	-0.286300	-0.326501	0.900794	0.796037	-0.604293	0.033974	0.533251	0.726792	0.432916
08417	5.455584	1.143219	6.392082	0.606047	4.838121	-0.609565	-0.317138	-0.357714	0.878330	0.796783	-0.602790	0.042198	0.514354	0.713221	0.476188
08418	5.532302	0.500988	6.482410	0.659119	4.860737	-0.507287	-0.345692	-0.388955	0.853939	0.798389	-0.600072	0.049881	0.493023	0.699019	0.517978
08419	5.966903	-0.196159	6.653112	0.813803	4.794414	-0.365138	-0.372390	-0.419906	0.827650	0.800390	-0.596727	0.057376	0.469789	0.683809	0.558304
08420	6.592212	-0.962559	6.780039	1.017106	4.736439	-0.189482	-0.395563	-0.450794	0.800197	0.804274	-0.590715	0.064797	0.443478	0.669209	0.596227
08421	6.828742	-1.440245	7.304486	1.324531	4.617492	-0.018559	-0.416269	-0.481173	0.771488	0.809270	-0.582867	0.073123	0.414490	0.654781	0.632028
08422	8.019591	-1.723820	7.922692	1.684123	4.488359	0.164041	-0.432831	-0.511197	0.742520	0.816640	-0.571176	0.082804	0.381780	0.642211	0.664687
08423	9.950052	-1.449747	8.596506	2.127597	4.429020	0.325364	-0.447049	-0.541076	0.712309	0.825204	-0.556795	0.094956	0.345232	0.630251	0.695413
08424	11.995836	0.062821	9.282068	2.540713	4.507273	0.400866	-0.458375	-0.571400	0.680731	0.835235	-0.538739	0.110198	0.303769	0.619082	0.724198
08425	12.138731	1.601300	9.842358	2.757144	4.694343	0.311888	-0.469782	-0.601618	0.646035	0.843875	-0.520913	0.128549	0.259191	0.605563	0.752406
08426	11.276230	3.385140	10.462702	2.884152	4.770151	0.024523	-0.480847	-0.630256	0.609560	0.850761	-0.503553	0.150467	0.212113	0.590941	0.778329
08427	12.380442	4.911940	11.233796	2.905328	4.741399	-0.418936	-0.494166	-0.655575	0.570983	0.853656	-0.490209	0.175975	0.164536	0.574384	0.801880
08428	15.658325	6.117427	11.290722	2.739270	4.774582	-1.004592	-0.509498	-0.677651	0.530284	0.852447	-0.481474	0.203755	0.117243	0.555852	0.822972
08429	19.531058	4.960484	10.136963	2.333585	4.950994	-1.673153	-0.529172	-0.696272	0.484956	0.845459	-0.481122	0.231778	0.071943	0.532661	0.843265
08430	21.223881	2.293822	8.463001	1.959705	5.254614	-2.237228	-0.550606	-0.712685	0.434641	0.834324	-0.486767	0.258769	0.027148	0.505111	0.862627
08431	21.747523	-2.591249	6.577427	1.820061	5.302448	-2.524198	-0.572400	-0.725981	0.381196	0.819787	-0.496719	0.284990	-0.017550	0.475628	0.879472
08432	22.635383	-7.061690	5.168789	2.143026	5.049644	-2.608858	-0.591551	-0.736232	0.328680	0.803700	-0.505935	0.313205	-0.064300	0.449437	0.890995
08433	24.461715	-8.048241	4.409928	2.728584	4.678692	-2.459617	-0.607421	-0.743974	0.278465	0.786163	-0.512701	0.345088	-0.113967	0.428533	0.896310
08434	19.014227	7.185643	7.368682	3.118500	3.965684	-2.512996	-0.621485	-0.747717	0.233829	0.766386	-0.518343	0.379439	-0.162509	0.415019	0.895182
08435	31.495965	-5.422255	-7.190955	0.335413	1.020085	-0.038894	-0.620387	-0.751522	0.224354	0.765347	-0.517600	0.382537	-0.171360	0.409030	0.896287
08436	26.465719	4.735434	-6.504947	0.343971	2.397025	-2.009684	-0.631354	-0.750562	0.195062	0.752130	-0.531365	0.389810	-0.188927	0.392820	0.899999
08437	30.865692	2.114181	-13.429355	-1.902095	0.250146	-0.002334	-0.630957	-0.751485	0.192778	0.755553	-0.538782	0.372631	-0.176162	0.380768	0.907735
08438	28.271566	-8.165467	-17.477345	-2.704336	-0.205635	-0.515158	-0.635227	-0.747874	0.192797	0.756742	-0.552811	0.348915	-0.154364	0.367538	0.917108
08439	17.779227	-3.349575	-11.607122	-3.193490	-1.256872	-1.157649	-0.645474	-0.736949	0.200671	0.753941	-0.572731	0.321796	-0.122216	0.359005	0.925299
08440	-11.538625	-7.842572	19.004844	-2.958545	-1.660348	-1.873000	-0.661300	-0.720044	0.210283	0.744805	-0.596970	0.298148	-0.089147	0.353785	0.931069
08441	9.676973	-5.622422	21.737625	-0.320671	-2.509863	-2.408077	-0.680811	-0.696535	0.226572	0.729111	-0.614921	0.300448	-0.069949	0.369744	0.926497
08442	-4.728840	-12.520730	12.497881	-1.285230	-2.278963	-1.617071	-0.693859	-0.677914	0.242883	0.718708	-0.630882	0.292313	-0.044933	0.377386	0.924965
08443	0.150997	-17.963195	9.969331	-0.163604	-3.388355	0.067035	-0.694295	-0.665309	0.274443	0.719407	-0.630869	0.290617	-0.020213	0.399210	0.916637
08444	10.509506	-16.662877	16.607922	0.226935	-3.424469	1.171127	-0.686167	-0.658529	0.309055	0.727442	-0.622229	0.289240	0.001830	0.423287	0.905994
08445	15.544732	0.220625	16.679424	0.924368	-2.657021	1.445742	-0.675218	-0.655959	0.337339	0.737500	-0.608567	0.292814	0.013220	0.446501	0.894686
08446	10.745407	13.582246	10.391634	0.717258	-1.957329	0.835940	-0.668723	-0.652070	0.357232	0.743212	-0.599883	0.296271	0.021108	0.463622	0.885782
08447	13.024562	29.259379	10.301147	-0.121522	-2.353219	0.776382	-0.662014	-0.645749	0.380455	0.748542	-0.595201	0.292267	0.037716	0.478271	0.877402
08448	14.938446	10.601226	7.294819	-2.470696	-1.310104	1.434285	-0.650576	-0.648046	0.395964	0.756658	-0.597710	0.264974	0.064957	0.471995	0.879205
08449	6.196566	-10.058507	12.057722	-1.975183	-0.767820	1.153831	-0.640904	-0.651527	0.405900	0.762912	-0.599119	0.242944	0.084898	0.465369	0.881036
08450	6.787200	-3.902481	11.201212	0.258015	-1.014515	0.618662	-0.635316	-0.650422	0.416323	0.767055	-0.593928	0.242645	0.089444	0.473499	0.876241
08451	7.678823	6.942105	9.041653	-0.008807	-0.780682	0.436551	-0.630916	-0.649450	0.424452	0.770080	-0.590804	0.240682	0.094457	0.478712	0.872876
08452	7.276178	1.504417	9.882822	-0.687496	-0.452688	0.385653	-0.627526	-0.649532	0.429324	0.771799	-0.591634	0.233015	0.102651	0.477575	0.872574
08453	5.608798	-2.126974	10.870364	-0.296105	-0.325746	0.250196	-0.624901	-0.649621	0.433002	0.773341	-0.591068	0.229308	0.106970	0.478153	0.871738
08454	6.195287	1.316478	10.090096	-0.027292	-0.269381	0.155291	-0.623438	-0.649215	0.435712	0.774251	-0.590237	0.228375	0.108909	0.479728	0.870632
08455	5.774003	1.952901	9.537270	-0.110954	-0.107300	0.057103	-0.622526	-0.649200	0.437035	0.774768	-0.590050	0.227105	0.110436	0.479980	0.870301
08456	5.225255	0.739470	9.772345	-0.082594	-0.035486	-0.004545	-0.622551	-0.648970	0.437342	0.774618	-0.590522	0.226386	0.111343	0.479710	0.870334
08457	4.932322	0.966822	9.436611	0.017398	0.051378	-0.046678	-0.622616	-0.649104	0.437050	0.774630	-0.590392	0.226682	0.110890	0.479688	0.870404
08458	4.106846	2.540792	8.612059	0.073194	0.061886	-0.075276	-0.623296	-0.648924	0.436349	0.774213	-0.590576	0.227628	0.109984	0.479706	0.870509
08459	3.898583	2.976911	8.382895	-0.005688	0.008989	-0.030755	-0.623194	-0.648947	0.436460	0.774296	-0.590458	0.227652	0.109977	0.479820	0.870447
08460	3.783513	2.942335	8.306985	-0.030893	-0.022227	0.030143	-0.622964	-0.648986	0.436730	0.774421	-0.590456	0.227231	0.110400	0.479770	0.870421
08461	3.495174	3.488698	8.202326	-0.045768	-0.101235	0.088665	-0.621819	-0.649182	0.438068	0.775199	-0.589759	0.226387	0.111388	0.480362	0.869968
08462	3.327654	3.756181	8.134919	-0.092262	-0.237789	0.162691	-0.620317	-0.648965	0.440512	0.776077	-0.589192	0.224850	0.113626	0.481350	0.869133
08463	4.285801	2.936584	8.445496	-0.167201	-0.349115	0.229167	-0.617794	-0.648785	0.444307	0.777574	-0.588173	0.222330	0.117085	0.482836	0.867848
08464	4.538988	1.908113	8.954198	-0.186288	-0.346095	0.244382	-0.615508	-0.648516	0.447858	0.778831	-0.587534	0.219604	0.120715	0.483974	0.866716
08465	5.502857	1.668780	9.152354	-0.108480	-0.360027	0.207284	-0.613113	-0.648136	0.451677	0.780239	-0.586381	0.217679	0.123769	0.485878	0.865219
08466	5.269565	1.854887	9.025588	-0.131316	-0.245005	0.158878	-0.611593	-0.647844	0.454150	0.781020	-0.586035	0.215804	0.126340	0.486685	0.864394
08467	4.703490	2.200027	8.913033	-0.135454	-0.237747	0.152802	-0.609754	-0.647728	0.456782	0.782048	-0.585368	0.213883	0.128848	0.487641	0.863484
08468	5.508482	3.068447	8.897817	-0.238402	-0.219314	0.177738	-0.608104	-0.647667	0.459062	0.782791	-0.585424	0.210991	0.132094	0.487654	0.862986
08469	4.340944	2.499528	8.607498	-0.292879	-0.151456	0.173244	-0.606200	-0.648088	0.460981	0.783719	-0.585390	0.207613	0.135302	0.487134	0.862782
08470	4.830270	2.596929	8.659765	-0.347392	-0.201768	0.205660	-0.604337	-0.648279	0.463155	0.784458	-0.585793	0.203647	0.139293	0.486397	0.862563
08471	4.259365	2.681584	8.356299	-0.412675	-0.198053	0.236509	-0.601856	-0.648844	0.465587	0.785565	-0.585928	0.198936	0.143721	0.485480	0.862353
08472	4.359201	2.991581	8.577736	-0.562368	-0.262545	0.294571	-0.599182	-0.649267	0.468438	0.786481	-0.586785	0.192693	0.149764	0.483876	0.862227
08473	4.406598	1.967052	8.834019	-0.722203	-0.299540	0.321027	-0.595854	-0.649843	0.471871	0.787551	-0.587855	0.184907	0.157231	0.481800	0.862060
08474	4.674232	2.243366	8.757602	-0.629483	-0.358153	0.331837	-0.592689	-0.650040	0.475571	0.788482	-0.588770	0.177892	0.164365	0.480414	0.861503
08475	4.869489	1.964537	8.955606	-0.724809	-0.349519	0.332189	-0.589141	-0.650452	0.479400	0.789480	-0.589759	0.170014	0.172145	0.478639	0.860971
08476	5.316434	1.499045	9.125603	-0.623550	-0.359736	0.312158	-0.586068	-0.650544	0.483028	0.790191	-0.590752	0.163128	0.179228	0.477288	0.860275
08477	5.798522	1.081142	9.019692	-0.482717	-0.299131	0.241363	-0.583277	-0.650670	0.486227	0.790974	-0.591162	0.157758	0.184790	0.476610	0.859474
08478	5.608512	1.083822	8.725358	-0.292364	-0.238906	0.184149	-0.581399	-0.650589	0.488579	0.791472	-0.591400	0.154331	0.188540	0.476425	0.858762
08479	5.641091	1.097990	8.573168	-0.200433	-0.178640	0.144825	-0.579571	-0.650718	0.490575	0.792184	-0.591089	0.151851	0.191161	0.476634	0.858066
08480	5.021810	1.862959	8.695436	-0.071718	-0.127030	0.124734	-0.578363	-0.650818	0.491866	0.792740	-0.590662	0.150606	0.192510	0.477027	0.857546
08481	5.674279	0.408850	9.592905	-0.178026	-0.226397	0.086446	-0.576895	-0.650371	0.494176	0.793145	-0.590625	0.148603	0.195226	0.477682	0.856567
08482	4.760590	1.151120	9.158019	0.140645	-0.119987	0.042448	-0.576348	-0.650016	0.495280	0.793636	-0.589719	0.149580	0.194847	0.479282	0.855759
08483	4.858440	1.992993	8.891428	0.004805	-0.211524	0.074443	-0.575005	-0.649558	0.497437	0.794320	-0.588894	0.149197	0.196025	0.480913	0.854574
08484	4.820086	1.564033	9.155182	0.085414	-0.273520	0.099138	-0.573703	-0.648792	0.499934	0.795029	-0.587881	0.149415	0.196962	0.483182	0.853078
08485	4.399433	1.957135	9.396895	0.139702	-0.299645	0.110684	-0.571897	-0.648105	0.502885	0.796179	-0.586173	0.149997	0.197564	0.486170	0.851239
08486	5.322629	1.701719	8.767620	0.113324	-0.441616	0.138632	-0.569940	-0.646731	0.506861	0.797168	-0.584765	0.150244	0.199227	0.489683	0.848834
08487	4.435879	1.272969	9.606710	0.175738	-0.389686	0.120156	-0.567876	-0.645626	0.510572	0.798437	-0.582817	0.151069	0.200037	0.493448	0.846460
08488	5.478633	1.133550	8.924102	0.247187	-0.434093	0.108440	-0.566163	-0.644075	0.514419	0.799520	-0.580935	0.152586	0.200567	0.497676	0.843855
08489	5.017276	1.200347	9.326130	0.157567	-0.461030	0.087344	-0.564217	-0.642381	0.518658	0.800558	-0.579287	0.153406	0.201906	0.501770	0.841107
08490	4.835702	0.967574	9.635080	0.198956	-0.491322	0.056823	-0.562789	-0.640204	0.522884	0.801254	-0.577962	0.154765	0.203126	0.506063	0.838236
08491	4.974260	1.048531	9.656642	0.155716	-0.582157	0.042332	-0.560952	-0.637584	0.528033	0.802028	-0.576612	0.155787	0.205143	0.510887	0.834812
08492	5.021737	1.229337	9.689393	0.177690	-0.666407	0.024739	-0.559401	-0.634274	0.533635	0.802506	-0.575584	0.157121	0.207494	0.516139	0.830991
08493	5.109957	1.440545	9.519868	0.162573	-0.768821	0.032018	-0.557240	-0.630556	0.540262	0.803233	-0.574263	0.158236	0.210476	0.522132	0.826486
08494	5.081068	1.578583	9.472133	0.134039	-0.873239	0.045871	-0.555039	-0.626201	0.547543	0.803746	-0.573312	0.159077	0.214299	0.528379	0.821518
08495	4.907939	1.883212	9.598729	0.121013	-0.983192	0.083461	-0.551953	-0.621530	0.555921	0.804669	-0.571886	0.159546	0.218761	0.535394	0.815780
08496	4.707692	2.070320	9.741730	0.099333	-1.164849	0.145456	-0.548222	-0.616049	0.565629	0.805662	-0.570492	0.159524	0.224412	0.543160	0.809083
08497	4.393224	2.595518	10.103096	0.014978	-1.357859	0.219302	-0.543088	-0.609933	0.577093	0.807078	-0.568821	0.158331	0.231691	0.551747	0.801183
08498	3.959677	3.268132	10.527358	-0.079149	-1.635705	0.297102	-0.536842	-0.602488	0.590601	0.808468	-0.567501	0.155954	0.241206	0.561204	0.791751
08499	3.648774	3.727521	11.103726	-0.126575	-1.952091	0.409550	-0.528464	-0.593796	0.606738	0.810500	-0.565552	0.152451	0.252617	0.572326	0.780146
08500	3.240593	3.372771	11.813842	-0.111724	-2.317945	0.578330	-0.517782	-0.583611	0.625540	0.813209	-0.562835	0.148013	0.265694	0.585333	0.766023
08501	2.005458	3.347397	12.379246	-0.184252	-2.888218	0.796691	-0.503180	-0.570975	0.648689	0.816900	-0.559156	0.141492	0.281930	0.601110	0.747785
08502	0.696657	3.028404	13.035197	-0.333612	-3.811498	1.029874	-0.483606	-0.553396	0.678143	0.820978	-0.555445	0.132198	0.303513	0.620672	0.722943
08503	0.728722	3.278763	14.432003	-0.628388	-4.954847	1.249634	-0.457443	-0.528980	0.714791	0.824933	-0.552560	0.119010	0.332011	0.644095	0.689138
08504	1.947204	4.578128	15.216087	-0.782869	-5.945785	1.524005	-0.424135	-0.498263	0.756203	0.828897	-0.549918	0.102566	0.364745	0.670316	0.646248
08505	3.570461	4.167710	13.777135	-0.754243	-6.858218	1.822849	-0.382748	-0.461257	0.800466	0.833373	-0.546342	0.083661	0.398739	0.699108	0.593511
08506	8.190599	3.553761	12.699192	-0.453264	-7.834272	2.044972	-0.333153	-0.416293	0.845996	0.838789	-0.540649	0.064276	0.430629	0.731026	0.529301
08507	17.197226	3.700494	13.911883	0.223448	-8.185388	2.063262	-0.279560	-0.366101	0.887590	0.846054	-0.530979	0.047467	0.453914	0.764219	0.458182
08508	28.001824	5.995468	16.753725	0.611799	-7.205068	2.047465	-0.228970	-0.320727	0.919079	0.854055	-0.519223	0.031579	0.467078	0.792176	0.392805
08509	17.553241	7.465213	15.532178	0.041935	-6.327517	2.251298	-0.179763	-0.281578	0.942549	0.858792	-0.512211	0.010771	0.479751	0.811390	0.333894
08510	11.628324	6.641543	15.822916	-0.347216	-6.038694	2.490114	-0.129007	-0.244816	0.960949	0.860926	-0.508537	-0.013979	0.492101	0.825503	0.276373
08511	6.859942	6.644776	15.680928	-0.506274	-5.653659	2.596602	-0.078639	-0.211061	0.974305	0.860989	-0.507021	-0.040342	0.502507	0.835693	0.221593
08512	2.436327	6.910393	15.155197	-0.545357	-5.403277	2.701125	-0.028044	-0.179338	0.983388	0.859647	-0.506366	-0.067829	0.510118	0.843464	0.168368
08513	-4.856151	6.723443	13.303629	-0.720043	-5.512201	2.881112	0.024782	-0.147425	0.988763	0.855811	-0.508075	-0.097203	0.516695	0.848602	0.113577
08514	-4.748382	11.089020	13.449094	-1.179307	-6.073087	2.624548	0.078738	-0.109208	0.990896	0.848296	-0.514765	-0.124140	0.523635	0.850348	0.052109
08515	28.021577	9.142518	10.150403	-2.023799	-5.747580	1.493930	0.121502	-0.068532	0.990223	0.835827	-0.531024	-0.139309	0.535379	0.844581	-0.007239
08516	19.059646	6.435207	14.008974	-3.141128	-0.729434	0.425025	0.128999	-0.064708	0.989531	0.818064	-0.557047	-0.143072	0.560473	0.827957	-0.018923
08517	14.893583	1.207584	18.120114	-1.592587	1.586092	-1.237065	0.109581	-0.071079	0.991433	0.810158	-0.571497	-0.130518	0.575878	0.817520	-0.005040
08518	3.731199	5.088039	13.888380	-1.651306	3.537748	-1.678202	0.075367	-0.090032	0.993083	0.802042	-0.586283	-0.114020	0.592493	0.805088	0.028023
08519	-5.743338	4.207446	8.864504	-1.324551	3.851951	-1.761010	0.037778	-0.110726	0.993133	0.794637	-0.599279	-0.097042	0.605908	0.792846	0.065347
08520	-5.958530	3.147783	6.949553	-1.134232	3.587685	-1.459024	0.004301	-0.130113	0.991490	0.787991	-0.610002	-0.083468	0.615671	0.781645	0.099904
08521	-4.590498	1.340390	6.703300	-0.864599	3.468792	-1.196828	-0.027101	-0.150018	0.988312	0.781957	-0.619098	-0.072532	0.622742	0.770852	0.134086
08522	-2.294451	0.379842	6.737160	-0.370155	3.476104	-0.970528	-0.056366	-0.170611	0.983725	0.779218	-0.623529	-0.063492	0.624214	0.762957	0.168089
08523	0.157789	0.271108	6.922544	0.157479	3.669795	-0.797212	-0.086030	-0.193822	0.977257	0.779023	-0.624553	-0.055290	0.621065	0.756549	0.204723
08524	1.970809	0.993677	7.171140	0.624643	3.988019	-0.722336	-0.116279	-0.219372	0.968687	0.782115	-0.621371	-0.046835	0.612188	0.752179	0.243827
08525	3.138971	1.794006	7.342786	0.896554	4.325254	-0.730779	-0.148917	-0.247526	0.957369	0.785927	-0.617192	-0.037325	0.600119	0.746864	0.286448
08526	3.975249	2.276007	7.190500	0.990207	4.595965	-0.796275	-0.182443	-0.276788	0.943453	0.790444	-0.611952	-0.026679	0.584733	0.740879	0.330432
08527	4.855231	2.426968	7.094193	0.992631	4.794561	-0.873652	-0.217780	-0.306961	0.926470	0.793728	-0.608090	-0.014897	0.567950	0.732121	0.376073
08528	5.971075	2.180103	6.881512	0.962872	4.947252	-0.946011	-0.252951	-0.337165	0.906827	0.796846	-0.604178	-0.002366	0.548682	0.722003	0.421496
08529	6.467969	1.786432	6.815712	0.914834	5.103531	-1.016182	-0.289401	-0.367641	0.883792	0.798299	-0.602163	0.010917	0.528173	0.708689	0.467753
08530	6.304202	1.227156	6.979873	0.885118	5.143800	-1.068070	-0.324543	-0.397274	0.858397	0.799561	-0.600082	0.024575	0.505346	0.694316	0.512397
08531	7.006399	0.672961	7.193008	0.914019	5.107279	-1.094943	-0.359420	-0.425741	0.830399	0.799581	-0.599302	0.038822	0.481131	0.677925	0.555815
08532	7.747140	0.693747	7.362675	0.981057	5.093045	-1.069293	-0.391820	-0.453418	0.800556	0.800118	-0.597478	0.053207	0.454189	0.661387	0.596892
