// General information: 
//  MT Manager version: 2022.2.0 
//  XDA version: 2022.2.0 build 7381 rev 124627 built on 2023-07-19
// Device information: 
//  DeviceId: 00B4CB9F
//  ProductCode: MTW2-3A7G6
//  Firmware Version: 4.6.0
//  Hardware Version: 2.0.0
// Device settings: 
//  Filter Profile: human(46.1)
//  Option Flags: Orientation Smoother Disabled, Position/Velocity Smoother Disabled, Continuous Zero Rotation Update Disabled, AHS Disabled, ICC Disabled
// Coordinate system: ENU
PacketCounter	Acc_X	Acc_Y	Acc_Z	Gyr_X	Gyr_Y	Gyr_Z	Mat[1][1]	Mat[2][1]	Mat[3][1]	Mat[1][2]	Mat[2][2]	Mat[3][2]	Mat[1][3]	Mat[2][3]	Mat[3][3]
44991	9.731868	-0.903839	-1.090096	0.022615	-0.018883	0.006193	-0.145417	0.005565	0.989355	-0.575960	0.812594	-0.089227	-0.804440	-0.582804	-0.114959
44992	9.690732	-0.906846	-1.055743	0.019033	-0.021420	0.004663	-0.145673	0.005486	0.989318	-0.576131	0.812460	-0.089338	-0.804271	-0.582991	-0.115193
44993	9.725896	-0.927900	-1.101528	0.012572	-0.025819	0.006334	-0.146045	0.005449	0.989263	-0.576274	0.812336	-0.089550	-0.804102	-0.583165	-0.115498
44994	9.748672	-0.900492	-1.125321	0.015797	-0.020937	0.003615	-0.146291	0.005364	0.989227	-0.576420	0.812221	-0.089647	-0.803952	-0.583325	-0.115729
44995	9.753820	-0.878286	-1.119706	0.009327	-0.019967	0.001522	-0.146510	0.005385	0.989195	-0.576168	0.812388	-0.089759	-0.804093	-0.583093	-0.115921
44996	9.741421	-0.892752	-1.070047	0.010024	-0.015713	0.003741	-0.146715	0.005331	0.989164	-0.576268	0.812307	-0.089851	-0.803984	-0.583206	-0.116105
44997	9.741219	-0.893302	-1.071421	0.014961	-0.014791	0.004803	-0.146966	0.005327	0.989127	-0.576482	0.812135	-0.090028	-0.803784	-0.583445	-0.116286
44998	9.671542	-0.884204	-1.051614	0.016487	-0.013106	0.003322	-0.147148	0.005285	0.989100	-0.576634	0.812016	-0.090124	-0.803642	-0.583611	-0.116439
44999	9.723201	-0.899886	-1.044543	0.013779	-0.011666	0.005510	-0.147316	0.005326	0.989075	-0.576622	0.812010	-0.090256	-0.803620	-0.583619	-0.116551
45000	9.710868	-0.914722	-0.994245	0.007840	-0.011530	0.007908	-0.147511	0.005330	0.989046	-0.576698	0.811942	-0.090388	-0.803530	-0.583714	-0.116697
45001	9.733779	-0.887414	-1.016812	0.012421	-0.008263	0.004719	-0.147673	0.005367	0.989022	-0.576815	0.811842	-0.090531	-0.803416	-0.583852	-0.116791
45002	9.722716	-0.902304	-1.046971	0.007535	-0.004426	0.012329	-0.147837	0.005449	0.988997	-0.576882	0.811775	-0.090706	-0.803337	-0.583944	-0.116867
45003	9.683149	-0.967896	-1.062907	0.008010	-0.008230	0.006893	-0.148029	0.005479	0.988968	-0.577084	0.811613	-0.090875	-0.803157	-0.584169	-0.116981
45004	9.722658	-0.997982	-1.004215	-0.003867	-0.007954	0.011691	-0.148218	0.005535	0.988939	-0.577060	0.811613	-0.091030	-0.803140	-0.584170	-0.117101
45005	9.740154	-0.993498	-1.033952	-0.008462	-0.002276	0.008597	-0.148293	0.005640	0.988927	-0.576903	0.811712	-0.091138	-0.803238	-0.584030	-0.117118
45006	9.752191	-0.980204	-1.085518	-0.008288	-0.000765	0.008838	-0.148407	0.005715	0.988910	-0.576848	0.811738	-0.091260	-0.803257	-0.583994	-0.117171
45007	9.728868	-0.946411	-1.093320	-0.006936	-0.000591	0.007115	-0.148548	0.005844	0.988888	-0.576723	0.811807	-0.091431	-0.803320	-0.583897	-0.117221
45008	9.705792	-1.006298	-1.057070	-0.013052	-0.000175	0.008018	-0.148652	0.005916	0.988872	-0.576631	0.811860	-0.091540	-0.803367	-0.583822	-0.117273
45009	9.705662	-0.975379	-1.071918	-0.013935	-0.000574	0.001791	-0.148710	0.005950	0.988863	-0.576603	0.811874	-0.091597	-0.803377	-0.583803	-0.117303
45010	9.700221	-0.997751	-1.079699	-0.013286	-0.002865	-0.003406	-0.148770	0.005914	0.988854	-0.576526	0.811929	-0.091592	-0.803421	-0.583726	-0.117381
45011	9.682526	-0.971489	-1.065300	-0.009530	0.002970	-0.002895	-0.148800	0.005970	0.988849	-0.576453	0.811975	-0.091645	-0.803468	-0.583662	-0.117380
45012	9.716710	-0.991858	-1.028092	-0.012581	-0.002189	0.001325	-0.148882	0.005976	0.988837	-0.576375	0.812026	-0.091688	-0.803509	-0.583591	-0.117452
45013	9.692315	-0.988938	-0.940303	-0.002704	-0.000349	0.003445	-0.148997	0.006041	0.988819	-0.576456	0.811953	-0.091822	-0.803430	-0.583691	-0.117496
45014	9.703201	-0.975638	-0.910546	0.003115	0.002757	0.009476	-0.149086	0.006143	0.988805	-0.576491	0.811912	-0.091964	-0.803387	-0.583748	-0.117504
45015	9.720883	-1.002451	-0.924449	0.011458	0.008280	0.009310	-0.149108	0.006316	0.988801	-0.576549	0.811852	-0.092127	-0.803342	-0.583829	-0.117412
45016	9.733081	-1.020803	-0.960058	0.015219	0.010536	0.012334	-0.149151	0.006486	0.988793	-0.576678	0.811740	-0.092312	-0.803241	-0.583983	-0.117332
45017	9.711216	-1.049972	-1.017903	0.021681	0.014930	0.010656	-0.149232	0.006724	0.988779	-0.576924	0.811533	-0.092591	-0.803050	-0.584268	-0.117228
45018	9.675840	-1.031092	-0.972547	0.019504	0.015536	0.017335	-0.149265	0.006964	0.988773	-0.577079	0.811395	-0.092830	-0.802932	-0.584456	-0.117094
45019	9.682522	-1.041550	-1.029883	0.017626	0.010829	0.018337	-0.149309	0.007209	0.988764	-0.577208	0.811275	-0.093076	-0.802831	-0.584620	-0.116970
45020	9.710980	-0.961708	-1.057419	0.019504	0.013746	0.018592	-0.149363	0.007448	0.988754	-0.577361	0.811137	-0.093328	-0.802711	-0.584808	-0.116854
45021	9.727356	-0.895703	-1.033078	0.016616	0.022621	0.014255	-0.149331	0.007801	0.988756	-0.577305	0.811147	-0.093590	-0.802757	-0.584790	-0.116626
45022	9.709711	-0.840054	-1.031188	0.008270	0.018891	0.013163	-0.149313	0.008027	0.988757	-0.577377	0.811075	-0.093774	-0.802709	-0.584887	-0.116469
45023	9.693421	-0.846518	-1.081133	-0.004665	0.019055	0.010231	-0.149277	0.008291	0.988761	-0.577273	0.811128	-0.093955	-0.802790	-0.584810	-0.116296
45024	9.675877	-0.883776	-1.035501	-0.013188	0.019182	0.005126	-0.149209	0.008453	0.988769	-0.577184	0.811182	-0.094035	-0.802867	-0.584733	-0.116157
45025	9.699167	-0.918603	-1.026425	-0.018651	0.011944	0.004599	-0.149193	0.008652	0.988770	-0.576904	0.811368	-0.094147	-0.803071	-0.584471	-0.116059
45026	9.710176	-0.936299	-0.980826	-0.022362	0.018024	0.007730	-0.149150	0.008828	0.988775	-0.576737	0.811476	-0.094242	-0.803199	-0.584319	-0.115940
45027	9.647588	-0.966751	-1.002600	-0.013539	0.014371	0.005904	-0.149163	0.009099	0.988771	-0.576389	0.811702	-0.094422	-0.803447	-0.584001	-0.115831
45028	9.663966	-0.993427	-0.935118	-0.013364	0.008725	0.011171	-0.149214	0.009250	0.988762	-0.576289	0.811757	-0.094562	-0.803508	-0.583923	-0.115795
45029	9.726616	-1.026962	-0.881709	-0.011485	0.011641	0.011428	-0.149321	0.009481	0.988743	-0.576251	0.811755	-0.094809	-0.803516	-0.583921	-0.115749
45030	9.697990	-1.047370	-0.880996	-0.004668	0.015472	0.012751	-0.149327	0.009683	0.988740	-0.576219	0.811758	-0.094975	-0.803538	-0.583913	-0.115638
45031	9.737516	-1.015423	-0.849203	0.005032	0.017580	0.013386	-0.149392	0.009923	0.988728	-0.576437	0.811572	-0.095242	-0.803369	-0.584168	-0.115522
45032	9.714327	-1.044837	-0.825754	-0.000735	0.019235	0.016020	-0.149387	0.010175	0.988726	-0.576432	0.811552	-0.095445	-0.803374	-0.584192	-0.115371
45033	9.696610	-1.051574	-0.794584	-0.002437	0.023197	0.012234	-0.149356	0.010484	0.988728	-0.576374	0.811567	-0.095671	-0.803422	-0.584166	-0.115170
45034	9.691162	-1.075604	-0.799983	-0.001916	0.020571	0.017982	-0.149352	0.010758	0.988726	-0.576356	0.811553	-0.095892	-0.803435	-0.584180	-0.115006
45035	9.678921	-1.028737	-0.775884	0.001145	0.023937	0.015024	-0.149388	0.011086	0.988717	-0.576486	0.811424	-0.096201	-0.803335	-0.584352	-0.114826
45036	9.701977	-1.096222	-0.751185	0.004724	0.022888	0.019069	-0.149371	0.011383	0.988716	-0.576520	0.811372	-0.096440	-0.803314	-0.584420	-0.114633
45037	9.712804	-1.084367	-0.719032	0.010185	0.026542	0.022118	-0.149382	0.011782	0.988709	-0.576589	0.811282	-0.096784	-0.803262	-0.584537	-0.114398
45038	9.700359	-1.100771	-0.664847	0.018704	0.029982	0.024722	-0.149342	0.012167	0.988711	-0.576727	0.811146	-0.097095	-0.803170	-0.584717	-0.114121
45039	9.712481	-1.152164	-0.683392	0.027918	0.034095	0.032061	-0.149355	0.012717	0.988702	-0.576850	0.811002	-0.097572	-0.803080	-0.584906	-0.113791
45040	9.751754	-1.153670	-0.634412	0.050550	0.039588	0.033149	-0.149287	0.013227	0.988705	-0.577231	0.810679	-0.098003	-0.802819	-0.585342	-0.113389
45041	9.716062	-1.137189	-0.586113	0.069802	0.045239	0.044135	-0.149280	0.013943	0.988697	-0.577691	0.810272	-0.098650	-0.802489	-0.585888	-0.112903
45042	9.715868	-1.141785	-0.580356	0.079859	0.055712	0.041495	-0.149131	0.014615	0.988709	-0.578295	0.809775	-0.099196	-0.802082	-0.586559	-0.112311
45043	9.697670	-1.183207	-0.529416	0.087234	0.070604	0.050963	-0.148911	0.015552	0.988728	-0.578782	0.809340	-0.099900	-0.801771	-0.587134	-0.111518
45044	9.743629	-1.226713	-0.519789	0.118026	0.080051	0.051694	-0.148626	0.016450	0.988757	-0.579676	0.808615	-0.100587	-0.801178	-0.588108	-0.110646
45045	9.718146	-1.260175	-0.406875	0.142564	0.098538	0.057962	-0.148259	0.017602	0.988792	-0.580658	0.807803	-0.101444	-0.800534	-0.589190	-0.109544
45046	9.697413	-1.333554	-0.254648	0.166752	0.117561	0.061241	-0.147733	0.018798	0.988849	-0.581926	0.806785	-0.102276	-0.799710	-0.590547	-0.108249
45047	9.706643	-1.419812	-0.165377	0.204686	0.136781	0.073754	-0.147171	0.020292	0.988903	-0.583480	0.805523	-0.103364	-0.798681	-0.592217	-0.106709
45048	9.696684	-1.573861	-0.014404	0.238512	0.154273	0.080254	-0.146467	0.021862	0.988974	-0.585290	0.804067	-0.104456	-0.797485	-0.594136	-0.104974
45049	9.676829	-1.618223	0.049801	0.303036	0.172219	0.093900	-0.145736	0.023724	0.989039	-0.587630	0.802179	-0.105829	-0.795897	-0.596612	-0.102966
45050	9.715553	-1.688464	0.067305	0.351195	0.187533	0.104541	-0.144919	0.025691	0.989110	-0.590294	0.800029	-0.107267	-0.794073	-0.599411	-0.100774
45051	9.757953	-1.673516	0.145869	0.436018	0.211943	0.113718	-0.143986	0.027965	0.989184	-0.593576	0.797370	-0.108943	-0.791793	-0.602842	-0.098211
45052	9.778898	-1.661209	0.338354	0.524008	0.241066	0.120255	-0.142855	0.030388	0.989277	-0.597569	0.794141	-0.110685	-0.788989	-0.606974	-0.095288
45053	9.837187	-1.518674	0.599620	0.621833	0.282455	0.121439	-0.141420	0.033123	0.989395	-0.602452	0.790178	-0.112565	-0.785527	-0.611982	-0.091793
45054	9.802194	-1.577882	0.839963	0.745175	0.332278	0.121028	-0.139608	0.036127	0.989548	-0.608145	0.785529	-0.114477	-0.781454	-0.617770	-0.087696
45055	9.927975	-1.409022	1.077099	0.850590	0.380573	0.130510	-0.137574	0.039543	0.989702	-0.614930	0.779908	-0.116639	-0.776489	-0.624644	-0.082979
45056	9.947654	-1.484154	1.179891	0.942835	0.439907	0.126182	-0.135009	0.043293	0.989898	-0.622079	0.773906	-0.118690	-0.771227	-0.631819	-0.077553
45057	9.605760	-1.384827	1.365375	1.068602	0.498895	0.130630	-0.132134	0.047542	0.990091	-0.630351	0.766831	-0.120946	-0.764983	-0.640086	-0.071356
45058	9.757345	-1.122377	1.478473	1.130133	0.523863	0.123510	-0.128986	0.051865	0.990289	-0.638823	0.759461	-0.122983	-0.758464	-0.648482	-0.064827
45059	10.032754	-0.415561	1.775328	1.129445	0.568619	0.097815	-0.125446	0.056368	0.990498	-0.647534	0.751750	-0.124791	-0.751641	-0.657035	-0.057804
45060	10.578100	0.037127	2.018946	0.984198	0.606422	0.062469	-0.121371	0.060845	0.990741	-0.654850	0.745183	-0.125987	-0.745949	-0.664078	-0.050599
45061	10.166550	0.380608	2.194082	0.843957	0.714049	-0.001072	-0.116241	0.065672	0.991048	-0.661481	0.739205	-0.126569	-0.740899	-0.670271	-0.042486
45062	9.511077	1.192898	2.504405	0.650414	0.815499	-0.084576	-0.109711	0.070535	0.991458	-0.666409	0.734859	-0.126022	-0.737471	-0.674542	-0.033617
45063	9.789863	1.286379	2.755621	0.210962	0.883161	-0.178932	-0.102141	0.075246	0.991920	-0.668532	0.733195	-0.124460	-0.736636	-0.675843	-0.024585
45064	9.893238	1.570998	3.146754	-0.106753	0.941216	-0.277566	-0.093405	0.079566	0.992444	-0.668042	0.734100	-0.121728	-0.738239	-0.674364	-0.015415
45065	10.180591	1.406828	3.409933	-0.514447	1.007243	-0.372209	-0.083613	0.083591	0.992986	-0.665199	0.737271	-0.118077	-0.741970	-0.670406	-0.006040
45066	10.841452	1.268711	3.954206	-0.969542	1.027883	-0.420536	-0.073226	0.087330	0.993484	-0.658327	0.744060	-0.113928	-0.749162	-0.662380	0.003007
45067	10.801750	1.251464	3.846693	-1.276463	1.079850	-0.447743	-0.062285	0.091111	0.993891	-0.649544	0.752372	-0.109676	-0.757769	-0.652407	0.012319
45068	10.468365	-0.229908	3.349552	-1.627081	1.060189	-0.438867	-0.051429	0.094637	0.994183	-0.637402	0.763257	-0.105627	-0.768813	-0.639126	0.021068
45069	11.491058	-0.789862	2.564426	-1.699681	1.038531	-0.359569	-0.041203	0.098448	0.994289	-0.625139	0.773752	-0.102517	-0.779425	-0.625792	0.029663
45070	10.975644	-1.621569	1.284773	-1.703004	1.077299	-0.314491	-0.030861	0.102670	0.994237	-0.611916	0.784574	-0.100013	-0.790321	-0.611476	0.038612
45071	10.371991	-1.991289	0.097886	-1.554435	1.016347	-0.288971	-0.021095	0.106556	0.994083	-0.600458	0.793651	-0.097814	-0.799378	-0.598969	0.047240
45072	10.202639	-2.396951	-0.754532	-1.322746	0.926625	-0.277415	-0.012059	0.109849	0.993875	-0.589910	0.801769	-0.095774	-0.807379	-0.587452	0.055132
45073	10.437852	-2.194450	-0.463689	-1.161736	0.828117	-0.251649	-0.003952	0.112700	0.993621	-0.581236	0.808289	-0.093990	-0.813725	-0.577900	0.062311
45074	10.595344	-2.307666	-0.230303	-0.990355	0.800347	-0.232377	0.003866	0.115415	0.993310	-0.573183	0.814204	-0.092373	-0.819418	-0.568991	0.069301
45075	11.287612	-2.909226	-0.420354	-0.685170	0.820614	-0.162525	0.011447	0.118777	0.992855	-0.568535	0.817582	-0.091254	-0.822579	-0.563428	0.076888
45076	11.433726	-3.142765	-0.367551	-0.345099	0.873310	-0.102260	0.019160	0.122855	0.992240	-0.565713	0.819615	-0.090557	-0.824380	-0.559588	0.085204
45077	11.200901	-3.123981	-0.470154	0.025089	0.887108	-0.035017	0.026596	0.127625	0.991466	-0.566420	0.819160	-0.090251	-0.823687	-0.559186	0.094076
45078	11.422119	-2.683527	-0.819828	0.408386	0.960477	0.035678	0.034233	0.133309	0.990483	-0.569826	0.816796	-0.090238	-0.821052	-0.561313	0.103925
45079	10.921724	-2.553997	-0.786683	0.650592	1.021848	0.074950	0.042098	0.139790	0.989286	-0.575506	0.812790	-0.090361	-0.816714	-0.565536	0.114667
45080	10.630121	-2.117966	-0.818465	0.912284	1.045066	0.087691	0.050036	0.146453	0.987951	-0.583007	0.807448	-0.090168	-0.810925	-0.571471	0.125785
45081	10.365511	-1.680367	-0.883354	1.034039	1.032188	0.095406	0.057754	0.153273	0.986495	-0.591637	0.801183	-0.089843	-0.804133	-0.578458	0.136953
45082	10.088802	-1.555521	-0.971508	1.122283	1.011034	0.093331	0.065232	0.159913	0.984973	-0.600715	0.794471	-0.089201	-0.796797	-0.585870	0.147887
45083	9.975989	-1.161080	-0.946331	1.146506	0.937936	0.093770	0.072042	0.166299	0.983440	-0.610029	0.787425	-0.088465	-0.789098	-0.593554	0.158175
45084	10.129206	-0.826510	-0.715063	1.159470	0.927222	0.088100	0.078722	0.172537	0.981852	-0.619236	0.780317	-0.087474	-0.781249	-0.601112	0.168269
45085	9.982710	-0.494004	-0.197414	1.105674	0.913391	0.090711	0.085195	0.178869	0.980177	-0.628050	0.773347	-0.086536	-0.773495	-0.608228	0.178224
45086	9.927566	-0.363951	-0.037604	0.996033	0.846009	0.093123	0.091061	0.184766	0.978555	-0.635838	0.767054	-0.085662	-0.766432	-0.614402	0.187330
45087	9.863424	0.072325	0.051039	0.905758	0.805662	0.082709	0.096618	0.190464	0.976928	-0.642959	0.761190	-0.084815	-0.759782	-0.619930	0.196006
45088	9.724126	0.371845	0.361886	0.793469	0.777825	0.070249	0.101992	0.195844	0.975317	-0.649071	0.756082	-0.083946	-0.753859	-0.624488	0.204231
45089	9.476030	0.646542	0.723024	0.672430	0.751220	0.052654	0.107230	0.201029	0.973699	-0.654297	0.751654	-0.083130	-0.748596	-0.628174	0.212133
45090	9.409066	0.625303	0.981146	0.603685	0.734030	0.020579	0.112513	0.205812	0.972102	-0.658862	0.747775	-0.082060	-0.743802	-0.631248	0.219736
45091	9.443643	0.862879	1.292388	0.543521	0.746652	-0.019669	0.118119	0.210461	0.970440	-0.662978	0.744275	-0.080716	-0.739262	-0.633846	0.227444
45092	9.419488	0.966603	1.763802	0.518613	0.771908	-0.067897	0.124200	0.214864	0.968715	-0.666755	0.741090	-0.078890	-0.734855	-0.636097	0.235305
45093	9.360328	0.955269	2.048012	0.483592	0.780645	-0.115826	0.130635	0.219044	0.966930	-0.670250	0.738164	-0.076667	-0.730547	-0.638070	0.243244
45094	9.371105	1.033227	2.463917	0.460308	0.781438	-0.156686	0.137321	0.222887	0.965124	-0.673431	0.735532	-0.074047	-0.726384	-0.639776	0.251103
45095	9.372723	0.965679	2.689313	0.426829	0.794359	-0.191965	0.144313	0.226622	0.963232	-0.676346	0.733139	-0.071156	-0.722309	-0.641209	0.259076
45096	9.439138	0.828655	2.882355	0.425943	0.813859	-0.221685	0.151618	0.230228	0.961253	-0.679123	0.730874	-0.067932	-0.718195	-0.642509	0.267167
45097	9.620017	0.954368	3.209936	0.401062	0.821720	-0.246602	0.159125	0.233764	0.959184	-0.681701	0.728780	-0.064520	-0.714117	-0.643610	0.275324
45098	9.625672	0.801576	3.423403	0.366724	0.855937	-0.268971	0.166998	0.237323	0.956969	-0.683912	0.727014	-0.060948	-0.710194	-0.644305	0.283718
45099	9.664462	0.848630	3.541278	0.289403	0.852044	-0.277491	0.174880	0.240846	0.954678	-0.685574	0.725728	-0.057502	-0.706686	-0.644447	0.292033
45100	9.715987	0.690234	3.563815	0.203425	0.862034	-0.283744	0.182847	0.244345	0.952293	-0.686540	0.725068	-0.054222	-0.703726	-0.643873	0.300329
45101	9.865924	0.393749	3.497070	0.107469	0.856889	-0.289869	0.190804	0.247801	0.949836	-0.686837	0.725007	-0.051174	-0.701319	-0.642619	0.308533
45102	9.791140	0.287453	3.439392	0.044823	0.867256	-0.298057	0.198865	0.251210	0.947284	-0.686610	0.725425	-0.048234	-0.699300	-0.640822	0.316745
45103	9.478898	0.506096	3.542816	-0.106617	0.865601	-0.303060	0.206940	0.254588	0.944649	-0.685333	0.726792	-0.045742	-0.698208	-0.637933	0.324880
45104	9.576563	-0.203836	3.293504	-0.196605	0.828548	-0.268974	0.214506	0.257907	0.942057	-0.683433	0.728693	-0.043877	-0.697787	-0.634421	0.332571
45105	9.337174	-0.578342	3.080168	-0.220806	0.837950	-0.259074	0.222067	0.261360	0.939349	-0.681409	0.730684	-0.042213	-0.697401	-0.630707	0.340354
45106	9.122215	-0.777077	2.857750	-0.203759	0.829100	-0.252195	0.229505	0.264735	0.936612	-0.679460	0.732590	-0.040575	-0.696895	-0.627078	0.348010
45107	8.818358	-0.742259	2.719627	-0.177955	0.814884	-0.241971	0.236770	0.268100	0.933843	-0.677738	0.734270	-0.038967	-0.696140	-0.623674	0.355555
45108	8.568075	-0.793519	2.410018	-0.164800	0.781478	-0.235417	0.243743	0.271236	0.931139	-0.676067	0.735891	-0.037389	-0.695358	-0.620399	0.362742
45109	8.285695	-0.909639	2.248503	-0.127181	0.734914	-0.229455	0.250346	0.274138	0.928534	-0.674697	0.737229	-0.035749	-0.694342	-0.617529	0.369522
45110	8.223239	-0.765941	2.120642	-0.076134	0.691948	-0.230750	0.256644	0.276707	0.926049	-0.673625	0.738295	-0.033917	-0.693082	-0.615105	0.375875
45111	8.008398	-0.717962	2.081055	-0.073042	0.642681	-0.219643	0.262520	0.279070	0.923690	-0.672627	0.739281	-0.032190	-0.691850	-0.612848	0.381786
45112	7.729868	-0.709052	2.086015	-0.064281	0.580524	-0.206473	0.267863	0.281101	0.921538	-0.671677	0.740214	-0.030555	-0.690724	-0.610791	0.387085
45113	7.613221	-0.699195	2.150988	-0.066010	0.506693	-0.185258	0.272551	0.282857	0.919624	-0.670796	0.741070	-0.029132	-0.689746	-0.608940	0.391718
45114	7.555058	-0.777511	2.149610	-0.082111	0.438765	-0.171288	0.276666	0.284262	0.917960	-0.669802	0.742016	-0.027905	-0.689073	-0.607131	0.395690
45115	7.470764	-0.722734	2.301829	-0.095888	0.386525	-0.159693	0.280344	0.285455	0.916473	-0.668769	0.742985	-0.026845	-0.688589	-0.605383	0.399195
45116	7.457068	-0.699408	2.460118	-0.118717	0.317935	-0.140610	0.283415	0.286339	0.915252	-0.667598	0.744066	-0.026055	-0.688468	-0.603636	0.402039
45117	7.343451	-0.586073	2.741179	-0.151662	0.244094	-0.115849	0.285815	0.286981	0.914304	-0.666295	0.745248	-0.025631	-0.688739	-0.601870	0.404217
45118	7.378040	-0.481908	3.029393	-0.188238	0.165142	-0.087683	0.287480	0.287327	0.913673	-0.664789	0.746592	-0.025614	-0.689500	-0.600037	0.405642
45119	7.590871	-0.406155	3.303098	-0.235890	0.110479	-0.065553	0.288624	0.287533	0.913248	-0.663043	0.748130	-0.025997	-0.690703	-0.598019	0.406574
45120	7.710643	-0.279816	3.562726	-0.281173	0.065669	-0.048067	0.289339	0.287572	0.913009	-0.661003	0.749907	-0.026724	-0.692357	-0.595769	0.407063
45121	7.896095	-0.146209	3.867146	-0.327394	0.021509	-0.035347	0.289667	0.287469	0.912937	-0.658702	0.751892	-0.027758	-0.694410	-0.593313	0.407155
45122	8.252582	-0.211695	4.135243	-0.374098	-0.006329	-0.028254	0.289752	0.287227	0.912987	-0.656061	0.754149	-0.029045	-0.696870	-0.590559	0.406955
45123	8.492442	-0.430768	4.219454	-0.415210	-0.024160	-0.026827	0.289705	0.286918	0.913099	-0.653157	0.756608	-0.030514	-0.699612	-0.587557	0.406595
45124	8.615348	-0.641734	4.270056	-0.397345	-0.046551	-0.013684	0.289410	0.286551	0.913307	-0.650375	0.758938	-0.032025	-0.702320	-0.584724	0.406010
45125	8.851774	-0.862871	4.267635	-0.324562	-0.042249	-0.011294	0.289132	0.286257	0.913488	-0.648135	0.760798	-0.033265	-0.704502	-0.582445	0.405504
45126	9.147741	-0.907860	4.283782	-0.223978	0.020236	0.003273	0.289196	0.286409	0.913420	-0.646609	0.762053	-0.034225	-0.705877	-0.580727	0.405578
45127	9.305252	-0.861545	4.271389	-0.170530	0.130586	0.006405	0.290022	0.287258	0.912891	-0.645502	0.762956	-0.035005	-0.706552	-0.579121	0.406699
45128	9.028707	-0.871375	4.051664	-0.149048	0.231852	0.002555	0.291586	0.288627	0.911960	-0.644500	0.763773	-0.035658	-0.706822	-0.577361	0.408726
45129	8.614551	-0.726364	3.924242	-0.091822	0.256056	0.009113	0.293281	0.290218	0.910911	-0.643958	0.764207	-0.036146	-0.706615	-0.575987	0.411016
45130	8.278791	-0.461965	3.827459	-0.066646	0.233115	0.002811	0.294853	0.291591	0.909965	-0.643539	0.764544	-0.036468	-0.706342	-0.574845	0.413078
45131	7.919838	-0.048243	3.580888	-0.052344	0.216485	-0.002432	0.296340	0.292862	0.909073	-0.643243	0.764782	-0.036693	-0.705989	-0.573882	0.415017
45132	7.219402	0.396503	3.396522	-0.114483	0.099273	-0.000579	0.296988	0.293436	0.908677	-0.642477	0.765402	-0.037184	-0.706414	-0.572761	0.415841
45133	7.310425	0.588455	2.927216	-0.242513	-0.115724	-0.011771	0.296189	0.292728	0.909166	-0.640807	0.766756	-0.038113	-0.708265	-0.571311	0.414687
45134	7.413270	0.639485	2.563958	-0.432617	-0.263310	-0.025937	0.294428	0.291038	0.910280	-0.637703	0.769260	-0.039686	-0.711792	-0.568803	0.412087
45135	7.609725	0.712218	2.039373	-0.644099	-0.392887	-0.030864	0.291764	0.288610	0.911909	-0.633085	0.772938	-0.042072	-0.716992	-0.565041	0.408230
45136	7.617717	0.836038	1.363253	-0.867521	-0.508887	-0.028923	0.288222	0.285534	0.914001	-0.626796	0.777863	-0.045350	-0.723916	-0.559821	0.403169
45137	7.622142	0.845078	1.039944	-1.108095	-0.657270	-0.014044	0.283472	0.281793	0.916644	-0.618751	0.784016	-0.049673	-0.732661	-0.553093	0.396606
45138	8.199087	-0.041526	1.537678	-1.436243	-0.759651	0.041299	0.277554	0.277964	0.919620	-0.608310	0.791742	-0.055715	-0.743588	-0.543950	0.388839
45139	9.356577	-1.708929	2.242290	-1.819819	-0.819597	0.152723	0.270438	0.274787	0.922689	-0.595131	0.801065	-0.064135	-0.756758	-0.531776	0.380173
45140	10.623182	-2.788990	2.924006	-1.881495	-0.774423	0.270022	0.262881	0.272908	0.925427	-0.581534	0.810174	-0.073727	-0.769878	-0.518786	0.371684
45141	11.445886	-2.838251	3.504287	-1.555090	-0.662460	0.292315	0.256011	0.271904	0.927646	-0.570293	0.817320	-0.082178	-0.780528	-0.507991	0.364308
45142	11.974057	-2.180999	4.761102	-0.942888	-0.519174	0.198895	0.250757	0.270928	0.929365	-0.563452	0.821507	-0.087457	-0.787174	-0.501722	0.358654
45143	13.171007	-1.758235	7.916656	-0.353014	-0.277299	0.103330	0.247937	0.270413	0.930271	-0.560986	0.822951	-0.089703	-0.789824	-0.499628	0.355738
45144	12.010099	-2.626668	10.320482	-0.032636	-0.068551	0.117096	0.246682	0.271050	0.930419	-0.561063	0.822763	-0.090933	-0.790162	-0.499593	0.355037
45145	9.672735	-2.872621	7.278219	0.223248	-0.373165	0.159706	0.242781	0.270536	0.931594	-0.563297	0.821154	-0.091664	-0.789781	-0.502510	0.351753
45146	10.071991	-1.384248	4.234294	0.523575	-0.618153	0.125310	0.237138	0.268453	0.933648	-0.567774	0.818136	-0.091030	-0.788288	-0.508515	0.346432
45147	9.672965	0.031302	3.610134	0.566751	-0.639680	0.116127	0.231382	0.266181	0.935740	-0.572599	0.814858	-0.090208	-0.786507	-0.514932	0.340959
45148	8.383231	1.406915	2.894272	0.289599	-0.752533	0.170759	0.224426	0.263694	0.938136	-0.575311	0.812873	-0.090856	-0.786543	-0.519329	0.334135
45149	7.987070	2.072869	1.828374	-0.260628	-0.894246	0.222611	0.216043	0.260904	0.940880	-0.573830	0.813580	-0.093843	-0.789965	-0.519631	0.325483
45150	8.461682	1.761182	1.181449	-0.860363	-0.884643	0.255552	0.207509	0.258426	0.943481	-0.567590	0.817333	-0.099038	-0.796732	-0.514959	0.316284
45151	8.763729	0.714881	1.135542	-1.314927	-0.781935	0.280861	0.199613	0.256766	0.945635	-0.557693	0.823274	-0.105819	-0.805688	-0.506252	0.307533
45152	8.808002	-0.425576	1.360846	-1.541265	-0.709052	0.301381	0.192145	0.255722	0.947463	-0.545834	0.830188	-0.113375	-0.815565	-0.495373	0.299098
45153	9.370497	-1.551596	1.583935	-1.548088	-0.726417	0.294734	0.184546	0.254640	0.949263	-0.533746	0.836979	-0.120755	-0.825262	-0.484381	0.290374
45154	10.018497	-2.520196	1.860398	-1.356512	-0.737009	0.248156	0.177064	0.253207	0.951070	-0.522987	0.842823	-0.127021	-0.833746	-0.474906	0.281657
45155	10.309535	-3.214926	1.902296	-1.071289	-0.731202	0.192341	0.169896	0.251406	0.952854	-0.514409	0.847348	-0.131849	-0.840547	-0.467756	0.273287
45156	10.065592	-3.035819	1.914899	-0.736055	-0.734568	0.145977	0.162900	0.249243	0.954642	-0.508491	0.850378	-0.135253	-0.845518	-0.463395	0.265265
45157	9.892241	-2.426376	1.917245	-0.449154	-0.767029	0.119500	0.155745	0.246739	0.956485	-0.504936	0.852119	-0.137597	-0.848989	-0.461534	0.257301
45158	10.090291	-1.369810	1.911554	-0.251991	-0.784076	0.110475	0.148465	0.244081	0.958323	-0.503006	0.852979	-0.139323	-0.851436	-0.461358	0.249412
45159	9.802957	-0.246993	1.950363	-0.209701	-0.774611	0.112323	0.141246	0.241489	0.960069	-0.501438	0.853636	-0.140945	-0.853586	-0.461507	0.241665
45160	9.687287	0.475679	1.873995	-0.334693	-0.787289	0.116863	0.133874	0.238876	0.961778	-0.498781	0.854867	-0.142895	-0.856326	-0.460587	0.233591
45161	9.660079	0.826655	1.846327	-0.588097	-0.814246	0.108797	0.126296	0.236086	0.963490	-0.493925	0.857275	-0.145316	-0.860283	-0.457539	0.224879
45162	9.635776	0.585721	1.873528	-0.867647	-0.851538	0.088594	0.118456	0.232993	0.965237	-0.486590	0.860984	-0.148112	-0.865562	-0.452130	0.215361
45163	9.692137	-0.011207	1.548110	-1.129312	-0.873997	0.056809	0.110543	0.229573	0.966994	-0.476883	0.865890	-0.151055	-0.871988	-0.444445	0.205197
45164	9.723819	-1.004099	1.318793	-1.287760	-0.889791	0.038195	0.102516	0.226010	0.968715	-0.465693	0.871438	-0.154032	-0.878988	-0.435333	0.194588
45165	9.780626	-1.804054	1.173277	-1.294068	-0.893398	0.025326	0.094472	0.222387	0.970371	-0.454327	0.876937	-0.156742	-0.885811	-0.426058	0.183882
45166	9.608655	-2.167269	1.210334	-1.230929	-0.882517	0.008764	0.086531	0.218763	0.971934	-0.443436	0.882080	-0.159060	-0.892119	-0.417226	0.173335
45167	9.487021	-2.533397	1.190552	-1.114428	-0.863751	-0.006342	0.078784	0.215142	0.973400	-0.433487	0.886681	-0.160891	-0.897709	-0.409280	0.163118
45168	9.617498	-2.569238	1.134934	-0.975985	-0.853664	-0.014569	0.071107	0.211570	0.974773	-0.424734	0.890646	-0.162328	-0.902521	-0.402476	0.153192
45169	9.442342	-2.546489	1.354707	-0.832736	-0.811778	-0.019059	0.063799	0.208165	0.976011	-0.417221	0.893995	-0.163400	-0.906563	-0.396788	0.143887
45170	9.382896	-2.139630	1.548331	-0.697850	-0.800468	-0.031585	0.056604	0.204747	0.977177	-0.410907	0.896787	-0.164101	-0.909918	-0.392240	0.134894
45171	9.542421	-2.163346	1.487776	-0.614012	-0.773329	-0.029097	0.049629	0.201480	0.978234	-0.405327	0.899223	-0.164643	-0.912824	-0.388334	0.126293
45172	9.565763	-1.826663	1.511099	-0.551784	-0.740919	-0.038152	0.042955	0.198296	0.979201	-0.400308	0.901407	-0.164981	-0.915373	-0.384895	0.118099
45173	9.437937	-1.650682	1.516027	-0.538592	-0.704699	-0.034883	0.036587	0.195298	0.980061	-0.395404	0.903514	-0.165283	-0.917778	-0.381473	0.110278
45174	9.534036	-1.436401	1.444353	-0.547486	-0.701952	-0.025616	0.030182	0.192424	0.980848	-0.390407	0.905617	-0.165652	-0.920148	-0.377930	0.102457
45175	9.681906	-1.463434	1.271470	-0.593166	-0.679193	-0.028943	0.023987	0.189622	0.981564	-0.384970	0.907881	-0.165980	-0.922617	-0.373891	0.094776
45176	9.738693	-1.475587	1.193562	-0.607534	-0.664237	-0.031727	0.017917	0.186889	0.982218	-0.379393	0.910175	-0.166260	-0.925062	-0.369667	0.087212
45177	9.696394	-1.555921	1.245046	-0.647137	-0.644373	-0.032397	0.012026	0.184246	0.982807	-0.373433	0.912590	-0.166513	-0.927579	-0.365010	0.079779
45178	9.744735	-1.737390	1.108432	-0.626573	-0.635887	-0.024964	0.006159	0.181736	0.983328	-0.367653	0.914885	-0.166784	-0.929943	-0.360497	0.072450
45179	9.759948	-1.586384	1.118373	-0.593940	-0.597120	-0.040399	0.000701	0.179246	0.983804	-0.362160	0.917065	-0.166828	-0.932115	-0.356178	0.065559
45180	9.708094	-1.461542	1.234645	-0.607152	-0.570165	-0.045463	-0.004510	0.176836	0.984230	-0.356537	0.919271	-0.166798	-0.934270	-0.351666	0.058903
45181	9.619095	-1.306901	1.409572	-0.648370	-0.532807	-0.049334	-0.009364	0.174541	0.984605	-0.350515	0.921601	-0.166706	-0.936510	-0.346680	0.052549
45182	9.542409	-1.645031	1.285426	-0.710119	-0.506028	-0.054093	-0.013975	0.172328	0.984941	-0.343904	0.924114	-0.166565	-0.938901	-0.341053	0.046350
45183	9.785993	-1.907462	1.241324	-0.744253	-0.481379	-0.045797	-0.018389	0.170298	0.985221	-0.336959	0.926686	-0.166470	-0.941340	-0.335041	0.040343
45184	9.666012	-2.149028	1.249106	-0.716687	-0.430812	-0.055422	-0.022318	0.168380	0.985469	-0.330257	0.929138	-0.166234	-0.943627	-0.329168	0.034873
45185	9.623720	-2.243690	1.123238	-0.693391	-0.416848	-0.046495	-0.026147	0.166613	0.985676	-0.323767	0.931454	-0.166036	-0.945775	-0.323471	0.029589
45186	9.525877	-2.331495	1.129972	-0.693090	-0.392499	-0.032930	-0.029811	0.165075	0.985830	-0.317255	0.933709	-0.165941	-0.947872	-0.317706	0.024536
45187	9.484162	-2.218424	0.985273	-0.700542	-0.372720	-0.036731	-0.033275	0.163588	0.985967	-0.310676	0.935948	-0.165774	-0.949933	-0.311833	0.019679
45188	9.406073	-2.359774	1.014823	-0.716281	-0.357781	-0.033595	-0.036627	0.162197	0.986078	-0.303917	0.938194	-0.165609	-0.951994	-0.305751	0.014931
45189	9.625636	-2.139992	1.011760	-0.731099	-0.372685	-0.047548	-0.040079	0.160657	0.986196	-0.297030	0.940456	-0.165276	-0.954027	-0.299554	0.010028
45190	9.608770	-1.961168	0.826510	-0.790173	-0.359778	-0.053901	-0.043409	0.159112	0.986306	-0.289546	0.942862	-0.164847	-0.956179	-0.292737	0.005142
45191	9.583041	-1.951236	0.305633	-0.838137	-0.357413	-0.043294	-0.046749	0.157708	0.986379	-0.281610	0.945325	-0.164491	-0.958389	-0.285464	0.000219
45192	9.532532	-2.006484	-0.277015	-0.884156	-0.346875	-0.037798	-0.050024	0.156403	0.986426	-0.273185	0.947854	-0.164141	-0.960660	-0.277688	-0.004688
45193	9.473867	-1.930234	-0.426399	-0.877765	-0.355992	-0.050989	-0.053352	0.154984	0.986475	-0.264839	0.950309	-0.163625	-0.962816	-0.269987	-0.009656
45194	9.464468	-1.931456	-0.650877	-0.866366	-0.359800	-0.070789	-0.056687	0.153383	0.986540	-0.256568	0.952706	-0.162865	-0.964862	-0.262347	-0.014653
45195	9.440971	-1.931863	-0.678951	-0.791193	-0.372655	-0.083717	-0.060116	0.151661	0.986603	-0.249046	0.954854	-0.161955	-0.966624	-0.255446	-0.019631
45196	9.562130	-2.023836	-0.803534	-0.735050	-0.383255	-0.093076	-0.063645	0.149836	0.986660	-0.242033	0.956831	-0.160918	-0.968178	-0.249046	-0.024633
45197	9.567174	-2.131570	-0.869452	-0.634397	-0.372366	-0.114029	-0.067022	0.147869	0.986733	-0.236032	0.958537	-0.159675	-0.969431	-0.243602	-0.029342
45198	9.605224	-2.048871	-0.890801	-0.525786	-0.359997	-0.123744	-0.070275	0.145844	0.986808	-0.231057	0.959971	-0.158332	-0.970399	-0.239136	-0.033763
45199	9.594424	-2.096732	-0.825500	-0.426101	-0.345751	-0.127345	-0.073382	0.143844	0.986876	-0.227083	0.961140	-0.156978	-0.971107	-0.235623	-0.037865
45200	9.568165	-1.879390	-0.633021	-0.329354	-0.338612	-0.120552	-0.076448	0.141924	0.986921	-0.224014	0.962068	-0.155702	-0.971583	-0.232988	-0.041756
45201	9.724480	-1.756467	-0.475636	-0.243015	-0.328769	-0.105408	-0.079451	0.140191	0.986932	-0.221808	0.962755	-0.154613	-0.971848	-0.231193	-0.045396
45202	9.838819	-1.541263	-0.218861	-0.202288	-0.312459	-0.090595	-0.082337	0.138631	0.986915	-0.219954	0.963331	-0.153668	-0.972029	-0.229729	-0.048825
45203	9.816827	-1.475008	-0.157860	-0.202095	-0.282882	-0.081900	-0.084950	0.137239	0.986889	-0.218131	0.963881	-0.152816	-0.972215	-0.228253	-0.051945
45204	9.613568	-1.388042	-0.017619	-0.234655	-0.267410	-0.071024	-0.087445	0.135979	0.986845	-0.215950	0.964495	-0.152035	-0.972481	-0.226404	-0.054975
45205	9.628522	-1.369574	-0.210348	-0.321576	-0.276543	-0.063509	-0.090040	0.134789	0.986775	-0.212952	0.965280	-0.151284	-0.972905	-0.223757	-0.058210
45206	9.460098	-1.451425	-0.379557	-0.398936	-0.265400	-0.063381	-0.092538	0.133621	0.986703	-0.209167	0.966235	-0.150466	-0.973492	-0.220309	-0.061465
45207	9.353270	-1.470509	-0.634779	-0.459327	-0.277534	-0.067567	-0.095142	0.132407	0.986619	-0.204830	0.967303	-0.149567	-0.974162	-0.216320	-0.064910
45208	9.406578	-1.468404	-0.859233	-0.517885	-0.292001	-0.082771	-0.097869	0.131014	0.986538	-0.199902	0.968505	-0.148451	-0.974916	-0.211740	-0.068596
45209	9.335029	-1.396084	-1.001561	-0.544636	-0.311294	-0.106327	-0.100736	0.129378	0.986465	-0.194769	0.969760	-0.147076	-0.975663	-0.206949	-0.072491
45210	9.449036	-1.252711	-1.136313	-0.554647	-0.340569	-0.134065	-0.103850	0.127414	0.986398	-0.189532	0.971051	-0.145386	-0.976367	-0.202052	-0.076695
45211	9.582987	-1.280870	-1.318017	-0.595877	-0.340900	-0.151481	-0.106937	0.125308	0.986338	-0.183942	0.972409	-0.143481	-0.977103	-0.196773	-0.080938
45212	9.584813	-1.361858	-1.399877	-0.591238	-0.366558	-0.167640	-0.110264	0.122999	0.986262	-0.178384	0.973751	-0.141382	-0.977763	-0.191523	-0.085429
45213	9.698795	-1.416462	-1.548251	-0.561834	-0.380020	-0.183002	-0.113700	0.120542	0.986175	-0.173163	0.975015	-0.139143	-0.978308	-0.186589	-0.089986
45214	9.769308	-1.361822	-1.611004	-0.525776	-0.382390	-0.194452	-0.117157	0.117975	0.986081	-0.168281	0.976202	-0.136787	-0.978752	-0.181964	-0.094516
45215	9.732769	-1.383116	-1.666910	-0.490206	-0.386118	-0.194811	-0.120654	0.115423	0.985962	-0.163780	0.977292	-0.134450	-0.979091	-0.177702	-0.099010
45216	9.646434	-1.472503	-1.604923	-0.413436	-0.385025	-0.208030	-0.124134	0.112747	0.985839	-0.160024	0.978244	-0.132028	-0.979277	-0.174148	-0.103391
45217	9.934957	-1.600205	-1.469222	-0.341691	-0.412795	-0.211688	-0.127881	0.110006	0.985670	-0.157010	0.979052	-0.129638	-0.979283	-0.171338	-0.107930
45218	10.151832	-1.552803	-1.196929	-0.237429	-0.392297	-0.225203	-0.131418	0.107168	0.985517	-0.155015	0.979688	-0.127205	-0.979132	-0.169487	-0.112136
45219	9.899960	-1.596569	-1.117609	-0.187433	-0.366198	-0.219712	-0.134705	0.104441	0.985366	-0.153537	0.980219	-0.124885	-0.978918	-0.168113	-0.116004
45220	9.815984	-1.522423	-0.932320	-0.127301	-0.389417	-0.215537	-0.138233	0.101711	0.985163	-0.152623	0.980643	-0.122660	-0.978569	-0.167314	-0.120033
45221	9.955228	-1.454036	-0.685765	-0.112223	-0.384622	-0.203429	-0.141726	0.099119	0.984931	-0.151877	0.981017	-0.120579	-0.978186	-0.166677	-0.123982
45222	9.973206	-1.619296	-0.452654	-0.048082	-0.367886	-0.187421	-0.145086	0.096703	0.984682	-0.151712	0.981269	-0.118722	-0.977718	-0.166613	-0.127697
45223	9.960549	-1.803289	-0.153436	-0.000252	-0.335780	-0.179459	-0.148135	0.094429	0.984449	-0.152043	0.981422	-0.117017	-0.977210	-0.167013	-0.131025
45224	9.712750	-1.880866	0.103139	0.053547	-0.293456	-0.172957	-0.150784	0.092276	0.984251	-0.152861	0.981483	-0.115435	-0.976677	-0.167860	-0.133887
45225	9.566239	-1.949231	0.353302	0.089215	-0.271651	-0.173194	-0.153209	0.090168	0.984071	-0.154072	0.981471	-0.113917	-0.976109	-0.169071	-0.136478
45226	9.925576	-1.972316	0.650772	0.084735	-0.270919	-0.143483	-0.155678	0.088336	0.983850	-0.155157	0.981444	-0.112671	-0.975546	-0.170192	-0.139083
45227	9.669468	-1.977345	0.781532	0.069722	-0.209860	-0.159943	-0.157512	0.086461	0.983725	-0.156173	0.981443	-0.111267	-0.975090	-0.171157	-0.141086
45228	9.827772	-1.927724	0.914324	0.027483	-0.224550	-0.124936	-0.159552	0.084886	0.983533	-0.156676	0.981491	-0.110126	-0.974677	-0.171667	-0.143300
45229	10.015997	-1.802333	1.204433	-0.009168	-0.198627	-0.091337	-0.161379	0.083705	0.983336	-0.156828	0.981560	-0.109291	-0.974352	-0.171852	-0.145276
45230	10.012324	-1.865285	1.259355	-0.042582	-0.109464	-0.079266	-0.162368	0.082774	0.983252	-0.156578	0.981688	-0.108499	-0.974228	-0.171573	-0.146434
45231	9.447849	-1.650332	1.442919	-0.125516	-0.075509	-0.114726	-0.162957	0.081579	0.983255	-0.155648	0.981971	-0.107268	-0.974279	-0.170521	-0.147322
45232	9.435776	-1.395037	1.343418	-0.268309	-0.066879	-0.125518	-0.163461	0.080269	0.983279	-0.153275	0.982516	-0.105687	-0.974570	-0.167987	-0.148300
45233	9.454768	-1.067042	1.092883	-0.423285	-0.058875	-0.136338	-0.163858	0.078894	0.983324	-0.149487	0.983300	-0.103802	-0.975092	-0.164003	-0.149328
45234	9.639212	-0.844913	1.056267	-0.570683	-0.040794	-0.145289	-0.164089	0.077435	0.983402	-0.144195	0.984323	-0.101568	-0.975850	-0.158467	-0.150351
45235	9.604312	-0.785640	0.772320	-0.745239	-0.019477	-0.163748	-0.164075	0.075857	0.983527	-0.137308	0.985577	-0.098921	-0.976845	-0.151277	-0.151293
45236	9.511921	-0.891355	0.494615	-0.861525	-0.007363	-0.189727	-0.163940	0.074012	0.983690	-0.129235	0.986976	-0.095797	-0.977968	-0.142832	-0.152240
45237	9.729931	-1.215407	0.165927	-0.990036	-0.019615	-0.197623	-0.163909	0.072099	0.983837	-0.119996	0.988462	-0.092429	-0.979150	-0.133206	-0.153366
45238	9.850213	-1.660301	-0.224488	-1.030201	-0.026426	-0.206105	-0.163975	0.070064	0.983973	-0.110277	0.989920	-0.088865	-0.980281	-0.123082	-0.154596
45239	10.343326	-1.448269	0.055100	-0.870606	-0.033597	-0.226749	-0.164085	0.067847	0.984110	-0.102242	0.991089	-0.085375	-0.981133	-0.114626	-0.155686
45240	10.603669	-0.790698	0.546383	-0.656139	0.078579	-0.266321	-0.163094	0.065333	0.984445	-0.096274	0.991989	-0.081783	-0.981902	-0.108115	-0.155497
45241	9.977046	-0.861260	0.288666	-0.627106	0.116938	-0.291671	-0.161690	0.062632	0.984852	-0.090724	0.992814	-0.078033	-0.982662	-0.101966	-0.154846
45242	10.059198	-1.694713	-0.136464	-0.681955	0.032326	-0.303104	-0.161151	0.059693	0.985123	-0.084547	0.993665	-0.074041	-0.983302	-0.095221	-0.155083
45243	10.345202	-2.396629	-0.680759	-0.696192	0.038853	-0.300887	-0.160539	0.056811	0.985393	-0.078324	0.994461	-0.070094	-0.983917	-0.088433	-0.155200
45244	10.282880	-2.852072	-1.214784	-0.625231	0.012274	-0.276779	-0.160253	0.054108	0.985592	-0.072652	0.995142	-0.066445	-0.984399	-0.082253	-0.155543
45245	10.397968	-2.927088	-1.371156	-0.460679	0.014364	-0.234669	-0.159959	0.051863	0.985760	-0.068645	0.995617	-0.063521	-0.984734	-0.077828	-0.155698
45246	10.470383	-2.821173	-1.333027	-0.206695	0.043208	-0.200677	-0.159441	0.049939	0.985944	-0.066968	0.995872	-0.061271	-0.984934	-0.075795	-0.155438
45247	10.381496	-2.376095	-1.216236	0.062399	0.105609	-0.176674	-0.158294	0.048346	0.986208	-0.068029	0.995893	-0.059740	-0.985046	-0.076547	-0.154355
45248	10.189417	-1.838584	-1.002648	0.298420	0.192207	-0.174995	-0.156321	0.046794	0.986597	-0.071282	0.995738	-0.058522	-0.985131	-0.079474	-0.152320
45249	9.802535	-1.195916	-0.740483	0.466320	0.264583	-0.200419	-0.153579	0.045107	0.987106	-0.076361	0.995429	-0.057367	-0.985182	-0.084187	-0.149432
45250	9.623753	-0.730999	-0.626152	0.590161	0.282750	-0.224776	-0.150658	0.043156	0.987644	-0.082555	0.995008	-0.056071	-0.985133	-0.089982	-0.146343
45251	9.439462	-0.211333	-0.363332	0.623457	0.279409	-0.265838	-0.147688	0.040864	0.988189	-0.089270	0.994517	-0.054468	-0.984997	-0.096260	-0.143230
45252	9.568919	-0.024444	-0.412822	0.561921	0.255903	-0.312022	-0.144923	0.038055	0.988711	-0.095300	0.994077	-0.052230	-0.984843	-0.101793	-0.140438
45253	9.614621	0.161129	-0.402284	0.456274	0.269623	-0.329980	-0.141955	0.035147	0.989249	-0.100443	0.993700	-0.049719	-0.984764	-0.106421	-0.137530
45254	9.396642	0.201271	-0.090287	0.352838	0.273676	-0.342745	-0.138953	0.032077	0.989779	-0.104437	0.993427	-0.046857	-0.984777	-0.109881	-0.134689
45255	9.699315	-0.078115	0.406664	0.237479	0.228407	-0.325949	-0.136367	0.029183	0.990228	-0.107398	0.993239	-0.044062	-0.984820	-0.112357	-0.132310
45256	10.090956	-0.627936	1.013308	0.116823	0.231093	-0.287400	-0.133824	0.026629	0.990647	-0.108976	0.993181	-0.041418	-0.984995	-0.113499	-0.130010
45257	10.254678	-1.075404	1.469192	0.058724	0.287583	-0.251844	-0.130721	0.024546	0.991115	-0.110064	0.993155	-0.039113	-0.985291	-0.114199	-0.127124
45258	10.647080	-1.743954	1.663868	0.110904	0.382566	-0.199579	-0.126774	0.023042	0.991664	-0.111453	0.993069	-0.037323	-0.985650	-0.115255	-0.123327
45259	10.799281	-1.988842	1.971053	0.265399	0.552208	-0.147943	-0.121165	0.022313	0.992382	-0.114440	0.992767	-0.036294	-0.986013	-0.117966	-0.117736
45260	10.785014	-2.068485	2.199977	0.464100	0.692711	-0.100975	-0.114261	0.022182	0.993203	-0.119176	0.992225	-0.035871	-0.986277	-0.122464	-0.110729
45261	10.901040	-1.963028	2.316937	0.638378	0.815463	-0.053309	-0.106151	0.022783	0.994089	-0.125735	0.991405	-0.036147	-0.986368	-0.128829	-0.102374
45262	11.010979	-1.733221	2.173155	0.750785	0.925289	-0.007756	-0.097060	0.023970	0.994990	-0.133189	0.990405	-0.036852	-0.986327	-0.136098	-0.092936
45263	10.770642	-1.435282	1.959229	0.815804	1.038954	0.034176	-0.086856	0.025877	0.995885	-0.141422	0.989218	-0.038038	-0.986132	-0.144144	-0.082259
45264	11.679471	-1.129661	1.798096	0.786037	1.030345	0.098628	-0.076886	0.028414	0.996635	-0.149133	0.988021	-0.039674	-0.985823	-0.151682	-0.071727
45265	11.240915	-0.747444	1.574783	0.762437	1.188447	0.128908	-0.065363	0.031654	0.997359	-0.156786	0.986756	-0.041593	-0.985467	-0.159091	-0.059534
45266	11.460005	-0.851904	1.214173	0.608474	1.211817	0.191091	-0.053774	0.035538	0.997921	-0.162711	0.985698	-0.043871	-0.985207	-0.164732	-0.047222
45267	11.532355	-0.771404	1.082814	0.538763	1.294733	0.235524	-0.041403	0.040151	0.998335	-0.168142	0.984662	-0.046574	-0.984893	-0.169790	-0.034017
45268	12.618711	-0.852799	0.769746	0.479466	1.268512	0.314169	-0.029494	0.045461	0.998531	-0.172796	0.983693	-0.049889	-0.984516	-0.174014	-0.021158
45269	12.055322	-0.766113	0.374788	0.514530	1.328668	0.335677	-0.017001	0.051236	0.998542	-0.178022	0.982574	-0.053448	-0.983880	-0.178671	-0.007583
45270	12.123169	-0.792056	-0.037830	0.538036	1.264740	0.359871	-0.005260	0.057095	0.998355	-0.183319	0.981394	-0.057091	-0.983039	-0.183317	0.005305
45271	12.242235	-0.721197	-0.527076	0.517233	1.247325	0.369434	0.006312	0.063170	0.997983	-0.188643	0.980159	-0.060849	-0.982025	-0.187879	0.018103
45272	11.721887	-1.098114	-0.891800	0.500924	1.288845	0.365348	0.018215	0.069233	0.997434	-0.193651	0.978954	-0.064414	-0.980901	-0.191981	0.031239
45273	11.598437	-1.104116	-1.171111	0.473649	1.278565	0.374763	0.030013	0.075518	0.996693	-0.198623	0.977707	-0.068098	-0.979616	-0.195922	0.044343
45274	11.069998	-1.555077	-1.338175	0.546153	1.305729	0.397289	0.041946	0.082022	0.995747	-0.204159	0.976300	-0.071820	-0.978039	-0.200279	0.057697
45275	10.653272	-1.611772	-1.749424	0.606220	1.275022	0.385190	0.053600	0.088507	0.994632	-0.210503	0.974682	-0.075388	-0.976123	-0.205332	0.070874
45276	10.462197	-1.623535	-1.724888	0.723981	1.234257	0.376935	0.064778	0.094784	0.993388	-0.217833	0.972815	-0.078616	-0.973834	-0.211300	0.083664
45277	10.561935	-1.826207	-1.048909	0.943382	1.254363	0.353046	0.076177	0.101059	0.991960	-0.227488	0.970374	-0.081390	-0.970797	-0.219458	0.096910
45278	11.064839	-1.736511	-1.622662	1.248658	1.279992	0.320696	0.087780	0.107079	0.990368	-0.239897	0.967217	-0.083313	-0.966822	-0.230273	0.110590
45279	11.216392	-1.368137	-1.998248	1.362041	1.295287	0.313459	0.099483	0.113311	0.988566	-0.253557	0.963585	-0.084932	-0.962191	-0.242209	0.124592
45280	11.288828	-2.094135	-1.576851	1.351141	1.327532	0.323451	0.111333	0.119747	0.986542	-0.266916	0.959840	-0.086384	-0.957267	-0.253706	0.138824
45281	11.885217	-2.307849	-1.194702	1.427917	1.345518	0.359845	0.123167	0.126835	0.984247	-0.281189	0.955613	-0.087958	-0.951716	-0.265926	0.153364
45282	11.693164	-2.424700	-0.954531	1.573152	1.405342	0.397736	0.135298	0.134489	0.981635	-0.296676	0.950787	-0.089372	-0.945345	-0.279136	0.168539
45283	11.294151	-1.850922	-1.070164	1.708494	1.402346	0.436011	0.147144	0.142785	0.978755	-0.313598	0.945210	-0.090746	-0.938086	-0.293583	0.183859
45284	11.040681	-1.387687	-0.941100	1.763629	1.419185	0.485831	0.158785	0.151663	0.975595	-0.330868	0.939167	-0.092149	-0.930222	-0.308161	0.199306
45285	10.839777	-1.367512	-0.984243	1.813712	1.440309	0.516195	0.170331	0.161185	0.972115	-0.348719	0.932550	-0.093523	-0.921620	-0.323065	0.215050
45286	10.310298	-0.759194	-0.871408	1.882822	1.476729	0.500970	0.182028	0.170750	0.968354	-0.366918	0.925470	-0.094216	-0.912270	-0.338157	0.231113
45287	9.410870	-0.335106	-0.889865	1.852915	1.476442	0.448999	0.193695	0.180128	0.964384	-0.384768	0.918192	-0.094220	-0.902461	-0.352814	0.247157
45288	8.768247	-0.043624	-0.837796	1.789052	1.461126	0.355145	0.205360	0.188659	0.960331	-0.401586	0.911076	-0.093106	-0.892500	-0.366535	0.262861
45289	8.353976	0.302876	-0.577096	1.706251	1.450343	0.261333	0.217114	0.196566	0.956150	-0.417457	0.904121	-0.091078	-0.882378	-0.379377	0.278355
45290	8.022600	0.679903	-0.230684	1.603564	1.420480	0.198377	0.228681	0.203851	0.951919	-0.432021	0.897519	-0.088416	-0.872389	-0.391030	0.293313
45291	7.949999	0.842588	-0.002962	1.483866	1.355698	0.161783	0.239683	0.210785	0.947693	-0.445432	0.891218	-0.085569	-0.862637	-0.401623	0.307500
45292	7.821091	1.059988	0.086892	1.456576	1.298568	0.140758	0.250132	0.217341	0.943503	-0.458323	0.884963	-0.082350	-0.852863	-0.411830	0.320969
45293	7.707812	1.393350	0.116008	1.443403	1.234319	0.092232	0.260118	0.223399	0.939378	-0.470938	0.878662	-0.078555	-0.842945	-0.421955	0.333763
45294	7.740580	1.862240	0.347853	1.407520	1.158247	0.022964	0.269661	0.228567	0.935436	-0.482847	0.872571	-0.074014	-0.833152	-0.431713	0.345662
45295	7.537376	2.286377	0.706453	1.334195	1.093247	-0.070578	0.279012	0.232804	0.931641	-0.493827	0.866841	-0.068718	-0.823582	-0.440896	0.356824
45296	7.190039	2.702449	1.340986	1.193353	0.987063	-0.145123	0.287767	0.235963	0.928176	-0.503244	0.861839	-0.063076	-0.814822	-0.448948	0.366756
45297	7.011949	2.832092	1.701557	0.985665	0.857461	-0.202777	0.295702	0.238160	0.925116	-0.510749	0.857800	-0.057575	-0.807277	-0.455478	0.375293
45298	7.068324	2.487421	1.615912	0.728020	0.729806	-0.251666	0.302809	0.239366	0.922502	-0.515904	0.855035	-0.052516	-0.801343	-0.460020	0.382402
45299	7.327038	1.735994	1.436271	0.500626	0.620898	-0.291429	0.309233	0.239787	0.920259	-0.519099	0.853369	-0.047926	-0.796813	-0.462885	0.388363
45300	7.442195	1.101075	1.619737	0.329033	0.521575	-0.328958	0.315036	0.239420	0.918385	-0.520741	0.852599	-0.043638	-0.793461	-0.464493	0.393275
45301	7.546225	0.510708	1.876378	0.161308	0.389271	-0.315570	0.319722	0.238571	0.916985	-0.521092	0.852557	-0.040121	-0.791354	-0.465006	0.396898
45302	7.603325	-0.179610	1.588414	0.025750	0.270108	-0.265357	0.323185	0.237583	0.916027	-0.520495	0.853036	-0.037609	-0.790339	-0.464633	0.399350
45303	7.641525	-0.754712	1.319583	-0.021514	0.185775	-0.188288	0.325590	0.236865	0.915361	-0.519781	0.853541	-0.035984	-0.789822	-0.464072	0.401022
45304	7.855856	-1.048569	1.319637	0.041894	0.111834	-0.099708	0.326937	0.236553	0.914962	-0.519839	0.853550	-0.034925	-0.789227	-0.464215	0.402026
45305	7.978560	-1.114340	1.324510	0.097706	0.062288	-0.014254	0.327459	0.236742	0.914726	-0.520626	0.853091	-0.034414	-0.788492	-0.464961	0.402606
45306	8.216376	-1.036216	1.602155	0.140766	0.067628	0.031869	0.327771	0.237349	0.914457	-0.521892	0.852327	-0.034160	-0.787524	-0.466051	0.403239
45307	8.423200	-1.001147	2.301482	0.107657	0.085639	0.055525	0.328110	0.238239	0.914104	-0.522979	0.851657	-0.034245	-0.786661	-0.466821	0.404032
45308	8.749097	-0.983511	3.222945	0.046381	0.092771	0.077802	0.328378	0.239355	0.913716	-0.523652	0.851222	-0.034790	-0.786102	-0.467045	0.404861
45309	8.735358	-1.034437	3.768692	-0.092897	0.084526	0.130741	0.328312	0.240880	0.913339	-0.523408	0.851306	-0.036373	-0.786292	-0.466107	0.405573
45310	8.640963	-1.058374	4.335927	-0.190661	0.052128	0.180181	0.327726	0.242677	0.913074	-0.522551	0.851724	-0.038814	-0.787106	-0.464408	0.405943
45311	8.782955	-1.071787	4.664554	-0.262858	0.005122	0.238929	0.326473	0.244758	0.912967	-0.521322	0.852322	-0.042077	-0.788441	-0.462213	0.405857
45312	8.924613	-0.907926	4.831632	-0.343573	0.025933	0.250749	0.325318	0.247036	0.912766	-0.519480	0.853255	-0.045782	-0.790132	-0.459270	0.405910
45313	9.019745	-0.564689	5.226775	-0.442657	0.091169	0.269049	0.324598	0.249777	0.912276	-0.516917	0.854571	-0.050053	-0.792107	-0.455324	0.406506
45314	8.949895	-0.527959	5.602390	-0.532672	0.163658	0.277672	0.324411	0.252914	0.911478	-0.513646	0.856252	-0.054775	-0.794308	-0.450407	0.407686
45315	9.295175	-0.470413	5.924362	-0.598019	0.281124	0.290913	0.325111	0.256697	0.910170	-0.509904	0.858144	-0.059888	-0.796430	-0.444629	0.409883
45316	9.190791	-0.521618	6.079799	-0.638403	0.428175	0.306977	0.326912	0.261246	0.908229	-0.505868	0.860134	-0.065328	-0.798265	-0.438087	0.413344
45317	8.377999	-0.758392	6.253020	-0.608781	0.555278	0.320092	0.329688	0.266454	0.905709	-0.502131	0.861890	-0.070781	-0.799481	-0.431449	0.417949
45318	6.072631	-1.053480	6.002257	-0.505025	0.352258	0.312558	0.330888	0.270682	0.904016	-0.499176	0.863183	-0.075748	-0.800835	-0.426199	0.420735
45319	5.355116	-1.169840	4.645656	-0.563174	-0.169893	0.276204	0.328103	0.272396	0.904516	-0.495654	0.864769	-0.080633	-0.804161	-0.421871	0.418748
45320	5.986561	-1.373623	2.402543	-0.672595	-0.639497	0.247820	0.321667	0.271879	0.906980	-0.491086	0.866886	-0.085693	-0.809546	-0.417840	0.412365
45321	6.715894	-1.654789	0.828653	-0.736938	-0.931020	0.262465	0.312769	0.270338	0.910545	-0.486022	0.869184	-0.091112	-0.816063	-0.414048	0.403244
45322	7.442024	-2.417524	-0.041709	-0.876040	-1.157166	0.331236	0.301627	0.268480	0.914844	-0.479909	0.871868	-0.097640	-0.823837	-0.409592	0.391825
45323	8.855317	-3.211355	-0.569925	-0.977012	-1.308882	0.424622	0.288715	0.266910	0.919458	-0.473161	0.874657	-0.105329	-0.832323	-0.404641	0.378818
45324	11.001941	-3.358307	-0.471505	-0.972044	-1.289212	0.499328	0.275532	0.266123	0.923721	-0.466492	0.877204	-0.113574	-0.840516	-0.399615	0.365842
45325	12.509794	-3.395597	0.492555	-0.838647	-1.042864	0.533492	0.264205	0.266711	0.926856	-0.460936	0.879067	-0.121567	-0.847192	-0.395102	0.355190
45326	12.048963	-2.900173	2.155761	-0.476207	-0.845960	0.536796	0.254498	0.268120	0.929162	-0.458336	0.879478	-0.128245	-0.851563	-0.393230	0.346715
45327	11.005948	-2.098652	4.029761	-0.048229	-0.812310	0.498860	0.245228	0.269347	0.931298	-0.459246	0.878283	-0.133086	-0.853789	-0.395059	0.339076
45328	11.472921	-1.269546	6.389181	0.391507	-0.793244	0.419969	0.236463	0.269897	0.933403	-0.463653	0.875562	-0.135713	-0.853880	-0.400683	0.332176
45329	11.961829	-0.489966	8.628158	0.741934	-0.663603	0.335805	0.229178	0.270190	0.935134	-0.470840	0.871604	-0.136443	-0.851931	-0.409029	0.326969
45330	10.851872	0.370661	7.044899	0.960284	-0.737708	0.246823	0.221676	0.269303	0.937196	-0.479615	0.866928	-0.135667	-0.849016	-0.419419	0.321339
45331	10.567983	2.126451	4.206604	0.985949	-0.899890	0.157031	0.213236	0.266884	0.939842	-0.488397	0.862265	-0.134045	-0.846167	-0.430433	0.314211
45332	10.103355	3.364744	3.230663	0.694056	-0.934029	0.066264	0.204958	0.263416	0.942658	-0.494454	0.859039	-0.132542	-0.844694	-0.438935	0.306314
45333	9.305011	4.096946	2.463326	0.106084	-1.004627	0.051018	0.196164	0.259457	0.945623	-0.495522	0.858394	-0.132730	-0.846155	-0.442539	0.296952
45334	8.864163	3.974880	1.630096	-0.696398	-1.104209	0.065962	0.186410	0.255176	0.948755	-0.489785	0.861263	-0.135412	-0.851682	-0.439444	0.285529
45335	9.037407	2.286248	1.011333	-1.516657	-1.134388	0.105344	0.176143	0.251168	0.951782	-0.477034	0.867556	-0.140658	-0.861053	-0.429257	0.272630
45336	9.050305	-0.352941	0.686624	-2.027830	-1.131107	0.164953	0.165511	0.247857	0.954554	-0.459789	0.875668	-0.147650	-0.872468	-0.414455	0.258895
45337	9.105478	-2.425353	0.552049	-2.191843	-1.163946	0.210502	0.154300	0.244978	0.957171	-0.440905	0.884036	-0.155185	-0.884191	-0.398077	0.244419
45338	9.403647	-3.588071	0.420710	-2.121735	-1.158276	0.203821	0.143061	0.242294	0.959597	-0.422381	0.891787	-0.162202	-0.895057	-0.382111	0.229921
45339	9.697218	-3.790233	0.668874	-1.871064	-1.164038	0.140359	0.131965	0.239186	0.961964	-0.405771	0.898453	-0.167729	-0.904398	-0.368203	0.215619
45340	10.022915	-3.710607	0.848598	-1.501635	-1.112897	0.061113	0.121561	0.235725	0.964187	-0.392261	0.903727	-0.171489	-0.911786	-0.357367	0.202324
45341	9.863900	-3.254398	1.331709	-1.131567	-1.034856	-0.008762	0.112087	0.231996	0.966237	-0.381936	0.907729	-0.173643	-0.917366	-0.349578	0.190353
45342	9.624886	-2.779052	1.668967	-0.814311	-0.984171	-0.048012	0.103167	0.228172	0.968140	-0.374447	0.910639	-0.174718	-0.921491	-0.344492	0.179386
45343	9.620143	-2.438595	1.839036	-0.509319	-0.927873	-0.053720	0.094759	0.224511	0.969853	-0.369731	0.912489	-0.175107	-0.924294	-0.341992	0.169475
45344	9.708280	-1.986392	1.903636	-0.226091	-0.847048	-0.042121	0.087025	0.221258	0.971325	-0.367650	0.913329	-0.175108	-0.925883	-0.341869	0.160828
45345	9.541903	-1.586133	2.068276	-0.072580	-0.762514	-0.026793	0.080015	0.218418	0.972569	-0.366996	0.913616	-0.174985	-0.926775	-0.342928	0.153262
45346	9.579233	-1.277861	1.950613	-0.031969	-0.742874	-0.008089	0.073105	0.215819	0.973693	-0.366741	0.913717	-0.174991	-0.927446	-0.344301	0.145947
45347	9.782249	-1.150492	1.747075	-0.140295	-0.715252	-0.006573	0.066447	0.213311	0.974722	-0.365476	0.914194	-0.175150	-0.928446	-0.344599	0.138706
45348	9.542277	-1.016361	1.635489	-0.312675	-0.701621	-0.005045	0.059893	0.210880	0.975675	-0.362614	0.915254	-0.175561	-0.930013	-0.343279	0.131286
45349	9.700507	-1.040889	1.590998	-0.559034	-0.719640	0.003971	0.053134	0.208473	0.976584	-0.357449	0.917135	-0.176334	-0.932420	-0.339710	0.123249
45350	9.768289	-1.336431	1.548339	-0.739354	-0.694810	-0.005395	0.046612	0.206110	0.977418	-0.350589	0.919612	-0.177201	-0.935369	-0.334412	0.115124
45351	9.527853	-1.445354	1.658095	-0.904153	-0.689174	-0.004284	0.040125	0.203803	0.978189	-0.342152	0.922595	-0.178185	-0.938788	-0.327539	0.106751
45352	9.652230	-1.756755	1.724677	-0.984842	-0.676831	-0.015169	0.033759	0.201501	0.978906	-0.332930	0.925789	-0.179086	-0.942347	-0.319861	0.098339
45353	9.555779	-1.912687	1.807068	-1.034289	-0.636217	-0.035532	0.027827	0.199179	0.979568	-0.323192	0.929108	-0.179738	-0.945924	-0.311587	0.090227
45354	9.417187	-1.969198	1.781065	-1.039952	-0.610694	-0.069612	0.022210	0.196684	0.980215	-0.313366	0.932418	-0.179993	-0.949373	-0.303169	0.082343
45355	9.509341	-1.961752	1.467265	-1.068941	-0.594104	-0.077117	0.016756	0.194207	0.980817	-0.303227	0.935744	-0.180102	-0.952771	-0.294393	0.074568
45356	9.333106	-2.180240	1.078040	-1.093110	-0.559038	-0.082649	0.011616	0.191843	0.981357	-0.292829	0.939049	-0.180106	-0.956094	-0.285278	0.067085
45357	9.226450	-2.306666	0.796032	-1.089004	-0.559330	-0.065818	0.006409	0.189676	0.981826	-0.282440	0.942212	-0.180180	-0.959264	-0.276152	0.059610
45358	9.279057	-2.361240	0.541245	-1.090374	-0.576839	-0.071714	0.001015	0.187464	0.982271	-0.272007	0.945287	-0.180125	-0.962295	-0.267002	0.051951
45359	9.275800	-2.279799	0.302966	-1.091069	-0.583946	-0.083564	-0.004429	0.185166	0.982697	-0.261542	0.948286	-0.179861	-0.965182	-0.257813	0.044229
45360	9.394786	-2.275356	0.156068	-1.054754	-0.600097	-0.093724	-0.010038	0.182789	0.983101	-0.251401	0.951110	-0.179408	-0.967831	-0.248953	0.036406
45361	9.366327	-1.915696	0.038735	-1.040411	-0.620676	-0.108335	-0.015826	0.180267	0.983490	-0.241383	0.953832	-0.178715	-0.970301	-0.240226	0.028418
45362	9.651745	-2.195231	-0.392784	-1.043554	-0.622403	-0.108191	-0.021665	0.177799	0.983828	-0.231311	0.956467	-0.177948	-0.972639	-0.231426	0.020405
45363	9.695443	-2.149150	-0.376040	-0.971263	-0.609694	-0.120591	-0.027367	0.175288	0.984137	-0.221935	0.958869	-0.176959	-0.974677	-0.223257	0.012661
45364	9.716019	-2.205517	-0.424505	-0.902728	-0.610944	-0.122285	-0.033109	0.172808	0.984399	-0.213210	0.961045	-0.175879	-0.976445	-0.215707	0.005025
45365	9.609781	-2.193502	-0.537392	-0.798061	-0.603870	-0.124454	-0.038789	0.170359	0.984618	-0.205508	0.962936	-0.174704	-0.977886	-0.209123	-0.002341
45366	9.629560	-2.231539	-0.597821	-0.673396	-0.579169	-0.137441	-0.044225	0.167875	0.984816	-0.199021	0.964540	-0.173356	-0.978997	-0.203666	-0.009247
45367	9.417851	-2.256525	-0.701158	-0.541807	-0.571384	-0.155208	-0.049556	0.165258	0.985005	-0.193839	0.965873	-0.171800	-0.979781	-0.199446	-0.015832
45368	9.399080	-2.143307	-1.058327	-0.439129	-0.588656	-0.174021	-0.055038	0.162447	0.985181	-0.189671	0.967010	-0.170047	-0.980304	-0.196219	-0.022411
45369	9.381055	-2.097927	-1.346080	-0.369542	-0.571572	-0.191224	-0.060324	0.159517	0.985350	-0.186209	0.968021	-0.168112	-0.980656	-0.193623	-0.028691
45370	9.264090	-1.868990	-1.464518	-0.318052	-0.594713	-0.196364	-0.065840	0.156506	0.985480	-0.183258	0.968927	-0.166121	-0.980858	-0.191535	-0.035113
45371	9.486941	-1.627100	-1.632936	-0.276650	-0.639660	-0.195364	-0.071800	0.153428	0.985548	-0.180729	0.969741	-0.164133	-0.980909	-0.189902	-0.041899
45372	9.744317	-1.339238	-1.651895	-0.252818	-0.654802	-0.220371	-0.077873	0.150087	0.985601	-0.178458	0.970538	-0.161893	-0.980861	-0.188495	-0.048795
45373	9.786919	-1.046750	-1.504586	-0.229115	-0.677037	-0.236841	-0.084136	0.146549	0.985619	-0.176447	0.971304	-0.159483	-0.980708	-0.187328	-0.055863
45374	9.905262	-0.797126	-1.341759	-0.231153	-0.689647	-0.250298	-0.090505	0.142865	0.985595	-0.174443	0.972082	-0.156925	-0.980499	-0.186132	-0.063057
45375	9.834269	-0.836903	-1.224240	-0.272824	-0.695607	-0.262225	-0.096913	0.139057	0.985531	-0.172052	0.972944	-0.154200	-0.980309	-0.184507	-0.070366
45376	9.724966	-0.926077	-1.046830	-0.301013	-0.699492	-0.274355	-0.103347	0.135140	0.985422	-0.169419	0.973858	-0.151322	-0.980110	-0.182588	-0.077750
45377	10.041144	-1.161632	-0.946642	-0.348738	-0.715458	-0.266187	-0.109955	0.131278	0.985229	-0.166319	0.974833	-0.148454	-0.979922	-0.180185	-0.085353
45378	9.863075	-1.466557	-0.891110	-0.347163	-0.675000	-0.259834	-0.116186	0.127572	0.985001	-0.163253	0.975776	-0.145634	-0.979719	-0.177725	-0.092545
45379	9.676825	-1.377411	-0.337596	-0.305727	-0.656131	-0.240459	-0.122266	0.124095	0.984709	-0.160577	0.976608	-0.143012	-0.979421	-0.175607	-0.099479
45380	9.737369	-1.836605	-0.221216	-0.327355	-0.629353	-0.220683	-0.128124	0.120878	0.984364	-0.157689	0.977435	-0.140552	-0.979142	-0.173232	-0.106171
45381	9.432446	-2.326729	-0.599200	-0.328427	-0.598594	-0.203102	-0.133708	0.117893	0.983983	-0.154774	0.978231	-0.138236	-0.978860	-0.170779	-0.112550
45382	9.469683	-2.192944	0.148133	-0.231435	-0.535178	-0.201241	-0.138681	0.115052	0.983631	-0.152825	0.978845	-0.136039	-0.978474	-0.169189	-0.118165
45383	9.956764	-2.216274	0.709754	-0.179671	-0.500175	-0.174761	-0.143349	0.112531	0.983254	-0.151355	0.979334	-0.134149	-0.978030	-0.168050	-0.123354
45384	9.996078	-2.332748	0.801992	-0.189534	-0.426322	-0.160264	-0.147321	0.110285	0.982921	-0.149775	0.979817	-0.132386	-0.977683	-0.166720	-0.127830
45385	9.845653	-2.366480	0.926939	-0.186256	-0.367066	-0.138795	-0.150741	0.108353	0.982617	-0.148211	0.980264	-0.130831	-0.977400	-0.165357	-0.131707
45386	9.845533	-2.447110	0.972979	-0.240500	-0.316881	-0.110424	-0.153720	0.106788	0.982327	-0.146069	0.980765	-0.129476	-0.977258	-0.163391	-0.135165
45387	9.712414	-2.543897	0.842496	-0.347447	-0.287052	-0.092551	-0.156428	0.105457	0.982043	-0.142879	0.981409	-0.128148	-0.977300	-0.160359	-0.138452
45388	9.657061	-2.604907	0.546235	-0.440992	-0.267160	-0.067183	-0.158989	0.104412	0.981744	-0.138715	0.982166	-0.126921	-0.977487	-0.156361	-0.141670
45389	9.573444	-2.728582	0.178931	-0.496123	-0.257723	-0.049976	-0.161474	0.103571	0.981427	-0.134018	0.982964	-0.125783	-0.977735	-0.151840	-0.144843
45390	9.530300	-2.505044	-0.204692	-0.505597	-0.245913	-0.048125	-0.163859	0.102768	0.981116	-0.129192	0.983757	-0.124622	-0.977987	-0.147173	-0.147921
45391	9.529337	-2.257100	-0.452178	-0.542377	-0.247308	-0.048501	-0.166249	0.101984	0.980796	-0.124051	0.984572	-0.123404	-0.978250	-0.142185	-0.151033
45392	9.588734	-1.834474	-0.935417	-0.537997	-0.251946	-0.080140	-0.168660	0.100882	0.980498	-0.118961	0.985394	-0.121848	-0.978469	-0.137192	-0.154195
45393	9.565356	-1.232475	-1.296678	-0.572895	-0.253094	-0.124978	-0.171022	0.099363	0.980244	-0.113657	0.986270	-0.119803	-0.978690	-0.131900	-0.157380
45394	9.537015	-1.043609	-1.591677	-0.631050	-0.249223	-0.189643	-0.173294	0.097210	0.980061	-0.107846	0.987260	-0.116993	-0.978948	-0.125970	-0.160603
45395	9.490510	-1.049924	-1.905688	-0.692251	-0.261085	-0.249318	-0.175619	0.094480	0.979914	-0.101592	0.988330	-0.113499	-0.979202	-0.119484	-0.163971
45396	9.571433	-1.224378	-2.123377	-0.680025	-0.296322	-0.293663	-0.178274	0.091272	0.979739	-0.095492	0.989384	-0.109546	-0.979336	-0.113086	-0.167666
45397	9.628153	-1.028869	-2.305348	-0.576874	-0.298544	-0.350030	-0.180901	0.087531	0.979598	-0.090558	0.990318	-0.105213	-0.979323	-0.107744	-0.171223
45398	9.951893	-0.667478	-2.094521	-0.472156	-0.323786	-0.394212	-0.183765	0.083325	0.979432	-0.086693	0.991144	-0.100586	-0.979140	-0.103394	-0.174914
45399	10.327488	-0.449601	-1.719173	-0.403715	-0.311387	-0.419602	-0.186485	0.078901	0.979284	-0.083601	0.991880	-0.095836	-0.978894	-0.099742	-0.178375
45400	10.369736	-0.587061	-1.389559	-0.377666	-0.291280	-0.424083	-0.189029	0.074449	0.979145	-0.080740	0.992567	-0.091057	-0.978647	-0.096268	-0.181613
45401	10.541883	-0.839830	-0.917976	-0.364523	-0.282741	-0.427031	-0.191485	0.069994	0.978997	-0.078068	0.993208	-0.086279	-0.978386	-0.092949	-0.184720
45402	10.711739	-0.841122	-0.257691	-0.339148	-0.254109	-0.409966	-0.193698	0.065730	0.978857	-0.075578	0.993788	-0.081688	-0.978146	-0.089803	-0.187527
45403	10.240127	-1.048190	-0.301790	-0.352988	-0.203791	-0.401305	-0.195419	0.061613	0.978783	-0.072990	0.994343	-0.077165	-0.978000	-0.086521	-0.189816
45404	10.166666	-0.944098	-0.253464	-0.404198	-0.239402	-0.373689	-0.197534	0.057735	0.978594	-0.069810	0.994901	-0.072789	-0.977807	-0.082694	-0.192496
45405	10.055653	-1.038765	-0.165965	-0.419595	-0.192649	-0.361118	-0.199195	0.054039	0.978469	-0.066512	0.995430	-0.068516	-0.977700	-0.078728	-0.194690
45406	9.618385	-1.098697	-0.115464	-0.445898	-0.152212	-0.347935	-0.200499	0.050500	0.978392	-0.062886	0.995948	-0.064293	-0.977674	-0.074418	-0.196511
45407	9.412778	-1.292928	-0.076484	-0.476793	-0.144461	-0.334761	-0.201728	0.047115	0.978308	-0.058992	0.996444	-0.060153	-0.977664	-0.069846	-0.198231
45408	9.251772	-1.812221	-0.221451	-0.551847	-0.119042	-0.332209	-0.202744	0.043767	0.978253	-0.054306	0.996961	-0.055859	-0.977725	-0.064450	-0.199751
45409	9.057079	-2.557573	-0.698838	-0.650979	-0.148393	-0.311312	-0.204052	0.040628	0.978117	-0.048676	0.997482	-0.051587	-0.977749	-0.058137	-0.201560
45410	9.551225	-3.244570	-1.442296	-0.680876	-0.230998	-0.269712	-0.206227	0.037854	0.977772	-0.042611	0.997956	-0.047622	-0.977576	-0.051485	-0.204192
45411	10.339311	-3.454975	-1.923764	-0.548452	-0.232311	-0.237607	-0.208417	0.035432	0.977398	-0.037857	0.998302	-0.044262	-0.977307	-0.046227	-0.206721
45412	10.839469	-2.934875	-2.114296	-0.315348	-0.178070	-0.218733	-0.210116	0.033212	0.977112	-0.035272	0.998515	-0.041524	-0.977040	-0.043189	-0.208633
45413	10.993898	-2.257299	-2.350645	-0.075541	-0.100741	-0.213889	-0.211038	0.031102	0.976983	-0.035112	0.998607	-0.039375	-0.976847	-0.042614	-0.209652
45414	11.077249	-1.206311	-2.229327	0.116670	-0.035587	-0.215231	-0.211348	0.028981	0.976981	-0.036744	0.998618	-0.037572	-0.976720	-0.043839	-0.209991
45415	11.007249	-0.163031	-1.945560	0.276579	0.097228	-0.253711	-0.210312	0.026564	0.977273	-0.040115	0.998554	-0.035775	-0.976811	-0.046727	-0.208943
45416	10.438385	0.743367	-1.599767	0.349368	0.214748	-0.307857	-0.208124	0.023637	0.977817	-0.044210	0.998459	-0.033546	-0.977103	-0.050211	-0.206759
45417	10.080174	1.327782	-1.207756	0.351660	0.272614	-0.375999	-0.205297	0.020096	0.978493	-0.048555	0.998349	-0.030691	-0.977494	-0.053812	-0.203982
45418	10.183635	1.474866	-0.605163	0.278208	0.295681	-0.424794	-0.202232	0.016061	0.979206	-0.052179	0.998269	-0.027150	-0.977947	-0.056585	-0.201044
45419	9.865188	1.371049	-0.105326	0.147070	0.394521	-0.454690	-0.198140	0.011815	0.980102	-0.054652	0.998239	-0.023082	-0.978649	-0.058139	-0.197145
45420	9.174613	0.940992	0.260848	0.017868	0.430354	-0.461805	-0.193712	0.007499	0.981030	-0.055771	0.998270	-0.018643	-0.979472	-0.058324	-0.192959
45421	9.222384	0.469691	0.642756	-0.065457	0.422432	-0.434127	-0.189338	0.003474	0.981906	-0.056082	0.998323	-0.014346	-0.980309	-0.057783	-0.188826
45422	9.198035	-0.104626	1.092474	-0.101826	0.458610	-0.392796	-0.184661	-0.000142	0.982802	-0.055857	0.998385	-0.010351	-0.981214	-0.056808	-0.184370
45423	9.611794	-0.689459	1.605562	-0.109816	0.444786	-0.325141	-0.180117	-0.003073	0.983640	-0.055496	0.998434	-0.007042	-0.982078	-0.055856	-0.180006
45424	9.441108	-1.185143	2.034016	-0.077034	0.553199	-0.285825	-0.174564	-0.005577	0.984630	-0.055285	0.998462	-0.004146	-0.983093	-0.055159	-0.174604
45425	9.340571	-1.619122	2.398721	0.024722	0.628566	-0.229233	-0.168252	-0.007450	0.985716	-0.056057	0.998426	-0.002022	-0.984149	-0.055596	-0.168405
45426	10.355827	-1.859318	3.004970	0.108227	0.633176	-0.148087	-0.161974	-0.008530	0.986758	-0.057407	0.998351	-0.000793	-0.985124	-0.056776	-0.162197
45427	10.750540	-2.443233	3.180697	0.196110	0.840695	-0.076339	-0.153634	-0.008731	0.988089	-0.059614	0.998221	-0.000449	-0.986328	-0.058972	-0.153881
45428	10.381115	-2.281429	3.383048	0.379222	0.981670	0.008990	-0.143992	-0.008000	0.989547	-0.063384	0.997989	-0.001155	-0.987547	-0.062888	-0.144209
45429	11.531604	-2.224958	3.204404	0.452596	1.039448	0.109325	-0.133777	-0.006147	0.990992	-0.067879	0.997689	-0.002975	-0.988684	-0.067666	-0.133885
45430	11.462022	-2.095618	2.851167	0.577052	1.325419	0.178614	-0.120831	-0.003387	0.992667	-0.073403	0.997287	-0.005532	-0.989955	-0.073534	-0.120752
45431	12.054247	-1.810193	2.463680	0.569216	1.438478	0.273277	-0.106768	0.000532	0.994284	-0.078926	0.996840	-0.009009	-0.991146	-0.079437	-0.106389
45432	12.088054	-1.384218	2.102894	0.636619	1.624247	0.340905	-0.090982	0.005313	0.995838	-0.084946	0.996300	-0.013076	-0.992223	-0.085783	-0.090194
45433	11.848234	-1.077138	1.580374	0.637380	1.704975	0.388107	-0.074373	0.010800	0.997172	-0.091163	0.995681	-0.017583	-0.993055	-0.092213	-0.073068
45434	12.245954	-0.775296	0.992509	0.642110	1.595548	0.418111	-0.058961	0.016524	0.998124	-0.097308	0.995006	-0.022221	-0.993506	-0.098436	-0.057059
45435	12.437226	-0.496179	0.010918	0.694447	1.577886	0.395115	-0.043656	0.022173	0.998801	-0.104225	0.994197	-0.026626	-0.993595	-0.105263	-0.041091
45436	12.626638	0.380526	-0.385925	0.668309	1.512867	0.361883	-0.029057	0.027450	0.999201	-0.110781	0.993376	-0.030512	-0.993420	-0.111579	-0.025823
45437	12.653862	-0.048036	-1.000466	0.616906	1.485883	0.329036	-0.014649	0.032534	0.999363	-0.117056	0.992542	-0.034028	-0.993017	-0.117479	-0.010732
45438	12.476750	-0.145883	-1.385070	0.512748	1.452763	0.340261	-0.000677	0.037691	0.999289	-0.122169	0.991801	-0.037491	-0.992509	-0.122107	0.003933
45439	12.255438	-0.923034	-1.972534	0.401983	1.426636	0.344361	0.013071	0.042989	0.998990	-0.126394	0.991133	-0.040997	-0.991894	-0.125730	0.018388
45440	11.409703	-1.527683	-2.323134	0.378257	1.368367	0.359607	0.026133	0.048335	0.998489	-0.130265	0.990478	-0.044537	-0.991135	-0.128904	0.032181
45441	10.521538	-1.654498	-2.809995	0.433462	1.295507	0.367514	0.038495	0.053788	0.997810	-0.134891	0.989690	-0.048146	-0.990112	-0.132742	0.045353
45442	10.034381	-1.918048	-2.474010	0.523780	1.207902	0.370296	0.049893	0.059122	0.997003	-0.140288	0.988765	-0.051613	-0.988853	-0.137293	0.057627
45443	9.899125	-2.003274	-1.683614	0.725757	1.220666	0.360264	0.061443	0.064522	0.996023	-0.147870	0.987485	-0.054847	-0.987096	-0.143912	0.070215
45444	10.188474	-2.160501	-1.469998	0.946336	1.261743	0.368727	0.073275	0.070069	0.994847	-0.157501	0.985824	-0.057833	-0.984796	-0.152452	0.083273
45445	10.444295	-2.484803	-2.008966	1.085401	1.298319	0.389887	0.085410	0.076082	0.993437	-0.168697	0.983789	-0.060840	-0.981961	-0.162393	0.096860
45446	10.668907	-3.336363	-2.029808	1.157158	1.335570	0.434392	0.097700	0.082628	0.991780	-0.180492	0.981493	-0.063990	-0.978712	-0.172756	0.110805
45447	11.265177	-3.500285	-1.852966	1.404251	1.379036	0.490836	0.110243	0.090045	0.989817	-0.194931	0.978505	-0.067305	-0.974602	-0.185526	0.125426
45448	11.469398	-3.572023	-1.558710	1.651943	1.448343	0.549960	0.123158	0.098248	0.987512	-0.211685	0.974786	-0.070581	-0.969547	-0.200349	0.140851
45449	11.259259	-3.365189	-1.063856	1.889115	1.490706	0.576063	0.136279	0.107108	0.984863	-0.230907	0.970191	-0.073561	-0.963385	-0.217387	0.156949
45450	10.786011	-2.529979	-1.140623	2.107950	1.467319	0.595018	0.148879	0.116229	0.982001	-0.252043	0.964729	-0.075973	-0.956195	-0.236196	0.172922
45451	10.514875	-1.962377	-1.166124	2.242598	1.438859	0.609993	0.160952	0.125786	0.978914	-0.274556	0.958402	-0.078008	-0.948005	-0.256211	0.188792
45452	10.470260	-1.268278	-0.934577	2.298121	1.431419	0.616717	0.172646	0.135521	0.975616	-0.297324	0.951457	-0.079550	-0.939038	-0.276340	0.204559
45453	10.317410	-0.941953	-0.708318	2.257019	1.473424	0.603989	0.184519	0.145608	0.971983	-0.319695	0.944075	-0.080737	-0.929380	-0.295840	0.220750
45454	9.780770	-0.747716	-0.717061	2.171742	1.465763	0.572769	0.196128	0.155496	0.968171	-0.340916	0.936566	-0.081359	-0.919407	-0.314109	0.236698
45455	9.190857	-0.492409	-0.903812	2.099633	1.462211	0.500960	0.207701	0.165030	0.964171	-0.361317	0.928904	-0.081159	-0.909016	-0.331514	0.252562
45456	9.143264	0.065475	-0.858806	2.009200	1.454320	0.445730	0.219140	0.174122	0.960031	-0.380482	0.921300	-0.080248	-0.898449	-0.347689	0.268144
45457	8.888626	0.426463	-0.561192	1.947435	1.458056	0.397022	0.230571	0.183078	0.955677	-0.398943	0.913587	-0.078764	-0.887514	-0.363100	0.283684
45458	8.589916	0.735377	-0.190789	1.866265	1.417454	0.366342	0.241528	0.191688	0.951273	-0.416325	0.905962	-0.076852	-0.876549	-0.377476	0.298620
45459	8.392230	1.209252	-0.023073	1.753802	1.365812	0.345756	0.251912	0.200173	0.946822	-0.432616	0.898466	-0.074847	-0.865670	-0.390755	0.312932
45460	8.016093	1.445922	0.222140	1.676011	1.313877	0.308394	0.261805	0.208174	0.942402	-0.447882	0.891154	-0.072429	-0.854903	-0.403123	0.326546
45461	7.966491	1.802591	0.432374	1.618760	1.229491	0.249215	0.271066	0.215519	0.938123	-0.462441	0.883926	-0.069448	-0.844199	-0.415001	0.339268
45462	7.965068	2.277281	0.784377	1.544850	1.134891	0.162178	0.279774	0.221745	0.934107	-0.475904	0.877043	-0.065660	-0.833811	-0.426175	0.350904
45463	8.093895	2.789097	1.188981	1.368584	1.028319	0.100120	0.287767	0.227140	0.930375	-0.487659	0.870846	-0.061773	-0.824244	-0.435929	0.361368
45464	7.876424	2.790301	1.634891	1.196647	0.917837	0.043692	0.295024	0.231582	0.927001	-0.497653	0.865447	-0.057823	-0.815661	-0.444266	0.370575
45465	7.896223	2.766722	1.855498	1.051759	0.787670	-0.000599	0.301373	0.235174	0.924049	-0.506297	0.860672	-0.053919	-0.807984	-0.451594	0.378451
45466	7.788503	2.669367	1.942055	0.915585	0.683141	-0.042129	0.307031	0.237942	0.921475	-0.513590	0.856574	-0.050057	-0.801222	-0.457891	0.385199
45467	7.789760	2.376346	1.835494	0.795773	0.576075	-0.107603	0.312138	0.239729	0.919293	-0.519702	0.853108	-0.046009	-0.795286	-0.463397	0.390875
45468	7.975956	1.956865	1.570285	0.656939	0.482504	-0.153038	0.316709	0.240694	0.917476	-0.524484	0.850382	-0.042043	-0.790324	-0.467886	0.395563
45469	7.674235	1.348277	1.338727	0.558140	0.438251	-0.200858	0.321175	0.241086	0.915819	-0.528321	0.848194	-0.038003	-0.785954	-0.471641	0.399789
45470	7.266069	0.895054	1.381386	0.506535	0.332414	-0.214640	0.324865	0.240862	0.914576	-0.531654	0.846278	-0.034027	-0.782181	-0.475184	0.402981
45471	7.273146	0.686126	1.313387	0.496155	0.208023	-0.187903	0.327446	0.240294	0.913804	-0.534983	0.844319	-0.030320	-0.778828	-0.478941	0.405022
45472	7.496027	0.390085	1.283971	0.441999	0.130699	-0.141457	0.329167	0.239750	0.913329	-0.538009	0.842498	-0.027256	-0.776013	-0.482407	0.406310
45473	7.797445	0.188328	1.461746	0.322812	0.087260	-0.081262	0.330236	0.239507	0.913006	-0.540303	0.841093	-0.025213	-0.773962	-0.484974	0.407166
45474	8.201457	-0.018540	1.834363	0.180247	0.082780	-0.013685	0.330897	0.239814	0.912686	-0.541706	0.840214	-0.024375	-0.772698	-0.486342	0.407933
45475	8.478655	-0.432453	2.386203	0.021026	0.116720	0.057161	0.331443	0.240874	0.912209	-0.542111	0.839940	-0.024820	-0.772179	-0.486292	0.408973
45476	8.521003	-0.859137	2.961009	-0.167661	0.149639	0.123905	0.331874	0.242662	0.911578	-0.541281	0.840419	-0.026657	-0.772576	-0.484573	0.410261
45477	8.236007	-1.531604	3.389920	-0.352732	0.148042	0.225794	0.331753	0.245286	0.910920	-0.539354	0.841539	-0.030173	-0.773975	-0.481298	0.411478
45478	7.917093	-2.031638	3.752876	-0.434642	0.097626	0.312549	0.330773	0.248407	0.910430	-0.537075	0.842815	-0.034831	-0.775977	-0.477448	0.412194
45479	7.817826	-2.092609	3.996376	-0.493300	0.033609	0.377026	0.328967	0.251763	0.910163	-0.534539	0.844182	-0.040309	-0.778491	-0.473258	0.412285
45480	7.853731	-1.948871	4.434809	-0.556634	-0.006520	0.413100	0.326660	0.255244	0.910024	-0.531607	0.845720	-0.046384	-0.781465	-0.468623	0.411952
45481	8.106824	-1.815130	5.017086	-0.601542	-0.025353	0.426456	0.324152	0.258760	0.909928	-0.528345	0.847389	-0.052758	-0.784715	-0.463654	0.411397
45482	8.440217	-1.760969	5.474783	-0.589379	-0.008428	0.436800	0.321731	0.262447	0.909731	-0.525176	0.848933	-0.059177	-0.787832	-0.458730	0.410959
45483	8.719927	-1.715851	5.550970	-0.519264	0.029445	0.452022	0.319545	0.266455	0.909336	-0.522598	0.850064	-0.065443	-0.790432	-0.454305	0.410883
45484	8.902017	-1.708873	5.699659	-0.444086	0.099443	0.431507	0.318028	0.270597	0.908645	-0.520514	0.850879	-0.071213	-0.792416	-0.450314	0.411452
45485	8.898681	-1.456010	5.358864	-0.370480	0.145513	0.424162	0.316927	0.274901	0.907737	-0.519000	0.851334	-0.076617	-0.793849	-0.446834	0.412484
45486	8.614871	-1.087828	4.681851	-0.279755	0.183125	0.385541	0.316328	0.279022	0.906688	-0.518053	0.851477	-0.081291	-0.794706	-0.443998	0.413894
45487	7.931912	-0.692139	4.205263	-0.169059	0.129755	0.348009	0.315506	0.282606	0.905864	-0.517892	0.851195	-0.085173	-0.795138	-0.442267	0.414917
45488	6.836533	-0.307321	3.776532	-0.118695	-0.103513	0.321147	0.312965	0.284904	0.906026	-0.518011	0.850773	-0.088595	-0.796063	-0.441605	0.413846
45489	6.872746	-0.171615	3.710159	-0.227427	-0.433606	0.308424	0.307860	0.285662	0.907535	-0.517240	0.850843	-0.092356	-0.798552	-0.440980	0.409697
45490	7.441918	-0.843190	2.659695	-0.526403	-0.768996	0.342810	0.299879	0.285221	0.910342	-0.514119	0.852144	-0.097630	-0.803588	-0.438747	0.402177
45491	8.149512	-1.696599	1.288457	-0.736974	-1.032146	0.423317	0.289332	0.284367	0.914015	-0.509502	0.854107	-0.104445	-0.810367	-0.435473	0.392006
45492	9.969389	-1.351932	0.482575	-0.719077	-1.217369	0.443815	0.277118	0.282899	0.918245	-0.504961	0.855935	-0.111310	-0.817447	-0.432831	0.380048
45493	12.059672	-0.755369	0.892465	-0.577288	-1.128829	0.411329	0.265735	0.281586	0.922006	-0.501415	0.857221	-0.117285	-0.823388	-0.431141	0.368985
45494	11.917623	-0.400547	2.446467	-0.316978	-0.900600	0.331754	0.256587	0.280571	0.924902	-0.499719	0.857620	-0.121528	-0.827311	-0.431009	0.360261
45495	11.005509	-0.398599	3.926894	-0.023526	-0.866227	0.263222	0.248042	0.279112	0.927670	-0.500250	0.856946	-0.124075	-0.829593	-0.433291	0.352185
45496	10.056800	-0.160729	5.240371	0.204140	-0.926980	0.212267	0.239228	0.276916	0.930638	-0.502515	0.855432	-0.125362	-0.830812	-0.437669	0.343797
45497	9.988566	0.169684	5.899614	0.313073	-0.989298	0.182421	0.230034	0.274143	0.933772	-0.505604	0.853512	-0.126024	-0.831534	-0.443129	0.334945
45498	9.718282	1.150165	5.658545	0.294572	-1.033321	0.161528	0.220564	0.270936	0.936987	-0.508472	0.851723	-0.126588	-0.832351	-0.448511	0.325623
45499	9.734505	1.992976	5.236028	0.136343	-1.080317	0.125104	0.210878	0.267157	0.940297	-0.509938	0.850733	-0.127347	-0.833963	-0.452638	0.315634
45500	10.403827	2.362663	5.353857	-0.160451	-1.066651	0.073474	0.201537	0.262968	0.943520	-0.508801	0.851230	-0.128565	-0.836961	-0.454153	0.305353
45501	11.233045	2.164832	5.799520	-0.555333	-0.965878	0.046755	0.193150	0.259007	0.946366	-0.504289	0.853588	-0.130691	-0.841656	-0.451999	0.295485
45502	10.911716	0.491826	4.688221	-1.118487	-0.905214	0.074413	0.185071	0.255607	0.948901	-0.495027	0.858377	-0.134674	-0.848939	-0.444807	0.285394
45503	9.884507	-1.129646	1.772685	-1.653182	-1.014420	0.134148	0.175715	0.252323	0.951555	-0.481208	0.865261	-0.140580	-0.858815	-0.433194	0.273459
45504	9.738199	-2.026570	-0.091588	-1.957375	-1.097164	0.162727	0.165407	0.249087	0.954252	-0.464618	0.873160	-0.147384	-0.869926	-0.418984	0.260157
45505	9.538342	-1.770143	-0.132804	-1.910233	-1.072928	0.158047	0.155256	0.246063	0.956738	-0.448203	0.880610	-0.153751	-0.880346	-0.404943	0.247006
45506	9.286572	-1.450666	0.024134	-1.758641	-1.015518	0.154787	0.145533	0.243411	0.958943	-0.432924	0.887207	-0.159500	-0.889605	-0.391937	0.234496
45507	9.016368	-1.378509	0.038347	-1.680887	-1.002833	0.127263	0.135986	0.240684	0.961030	-0.418119	0.893360	-0.164572	-0.898156	-0.379446	0.222119
45508	9.280780	-2.091515	-0.013043	-1.703562	-1.010548	0.097752	0.126413	0.237817	0.963049	-0.402927	0.899452	-0.169223	-0.906460	-0.366647	0.209526
45509	9.599372	-2.690794	0.209258	-1.530192	-0.930918	0.051558	0.117695	0.234929	0.964861	-0.389100	0.904834	-0.172851	-0.913646	-0.355084	0.197905
45510	9.904976	-2.733393	0.493856	-1.215182	-0.872078	0.009854	0.109613	0.231989	0.966523	-0.378026	0.909043	-0.175321	-0.919283	-0.346153	0.187340
45511	10.075491	-2.575915	0.707369	-0.859874	-0.809296	-0.014571	0.102167	0.229087	0.968029	-0.370121	0.912011	-0.176767	-0.923348	-0.340228	0.177968
45512	10.088556	-2.354261	0.719091	-0.544285	-0.771724	-0.014716	0.095033	0.226368	0.969395	-0.365125	0.913860	-0.177606	-0.926095	-0.337072	0.169500
45513	10.224135	-1.969282	0.511194	-0.337659	-0.728762	0.000625	0.088230	0.223932	0.970603	-0.362026	0.914978	-0.178189	-0.927983	-0.335662	0.161798
45514	9.915258	-1.420446	0.669001	-0.304003	-0.675562	-0.001264	0.081908	0.221686	0.971672	-0.359253	0.915973	-0.178695	-0.929639	-0.334439	0.154667
45515	9.729412	-1.374671	0.615562	-0.356470	-0.674580	-0.011388	0.075626	0.219339	0.972713	-0.355953	0.917173	-0.179140	-0.931439	-0.332693	0.147436
45516	9.870647	-1.611870	0.497901	-0.409703	-0.659577	-0.014877	0.069478	0.217045	0.973686	-0.352173	0.918537	-0.179622	-0.933353	-0.330426	0.140255
45517	9.661517	-1.882067	0.415139	-0.438682	-0.643950	-0.016034	0.063471	0.214784	0.974597	-0.348086	0.920003	-0.180083	-0.935312	-0.327814	0.133156
45518	9.726960	-1.787123	0.330145	-0.460198	-0.656895	-0.020479	0.057340	0.212481	0.975481	-0.343815	0.921523	-0.180518	-0.937285	-0.325034	0.125894
45519	9.742399	-1.737878	0.390499	-0.555408	-0.656659	-0.031906	0.051240	0.210070	0.976343	-0.338605	0.923375	-0.180903	-0.939532	-0.321325	0.118444
45520	9.502469	-1.490181	0.656018	-0.663901	-0.656060	-0.063943	0.045231	0.207416	0.977207	-0.332378	0.925600	-0.181078	-0.942061	-0.316611	0.110806
45521	9.522951	-1.468936	0.786517	-0.767093	-0.703491	-0.085101	0.038826	0.204425	0.978112	-0.325121	0.928173	-0.181082	-0.944875	-0.310974	0.102500
45522	9.749254	-1.436791	0.965361	-0.899307	-0.700005	-0.105248	0.032488	0.201325	0.978986	-0.316622	0.931128	-0.180975	-0.947995	-0.304088	0.093994
45523	9.592921	-1.642919	1.052250	-0.972058	-0.699441	-0.121616	0.026179	0.198095	0.979833	-0.307370	0.934281	-0.180674	-0.951230	-0.296441	0.085347
45524	9.515876	-2.150060	0.784849	-1.001418	-0.666019	-0.126112	0.020164	0.194999	0.980596	-0.297848	0.937434	-0.180291	-0.954400	-0.288433	0.076983
45525	9.360661	-2.406525	0.661193	-0.985414	-0.659559	-0.116825	0.014155	0.192033	0.981286	-0.288424	0.940454	-0.179882	-0.957398	-0.280480	0.068700
45526	9.374139	-2.378480	0.366940	-0.939494	-0.641676	-0.139960	0.008352	0.188972	0.981947	-0.279449	0.943298	-0.179158	-0.960124	-0.272908	0.060686
45527	9.191452	-2.444334	0.013902	-0.916586	-0.627759	-0.155978	0.002698	0.185819	0.982580	-0.270646	0.946048	-0.178167	-0.962675	-0.265451	0.052844
45528	9.131817	-2.301106	-0.114241	-0.855576	-0.648633	-0.175388	-0.003134	0.182492	0.983202	-0.262449	0.948591	-0.176904	-0.964941	-0.258595	0.044922
45529	9.490727	-2.262558	-0.344025	-0.817792	-0.680655	-0.174075	-0.009307	0.179114	0.983784	-0.254578	0.950985	-0.175550	-0.967007	-0.252084	0.036748
45530	9.481304	-2.204893	-0.355174	-0.763052	-0.669312	-0.177767	-0.015387	0.175788	0.984308	-0.247263	0.953180	-0.174095	-0.968826	-0.246061	0.028799
45531	9.431047	-2.230143	-0.409518	-0.681077	-0.666309	-0.191208	-0.021429	0.172357	0.984801	-0.240712	0.955161	-0.172408	-0.970360	-0.240748	0.021020
45532	9.493385	-2.109313	-0.320910	-0.602346	-0.668693	-0.198808	-0.027497	0.168897	0.985250	-0.234960	0.956917	-0.170597	-0.971616	-0.236185	0.013372
45533	9.505118	-2.071293	-0.343859	-0.510995	-0.643483	-0.207657	-0.033318	0.165418	0.985661	-0.230073	0.958452	-0.168629	-0.972603	-0.232392	0.006124
45534	9.516254	-2.015803	-0.380924	-0.445986	-0.642329	-0.208796	-0.039139	0.161968	0.986020	-0.225857	0.959804	-0.166627	-0.973374	-0.229221	-0.000985
45535	9.561185	-1.859912	-0.279377	-0.357622	-0.626790	-0.205589	-0.044831	0.158583	0.986327	-0.222479	0.960940	-0.164613	-0.973906	-0.226817	-0.007798
45536	9.596500	-1.808306	-0.314964	-0.320431	-0.610624	-0.200905	-0.050382	0.155308	0.986580	-0.219500	0.961960	-0.162642	-0.974311	-0.224749	-0.014375
45537	9.708497	-1.661459	-0.254674	-0.271029	-0.591397	-0.194211	-0.055771	0.152135	0.986785	-0.216980	0.962856	-0.160709	-0.974582	-0.223076	-0.020689
45538	9.686907	-1.553167	-0.221581	-0.273958	-0.576347	-0.194110	-0.061016	0.149020	0.986950	-0.214470	0.963739	-0.158775	-0.974823	-0.221359	-0.026843
45539	9.608459	-1.404494	-0.244885	-0.293755	-0.565894	-0.191361	-0.066175	0.145949	0.987076	-0.211745	0.964660	-0.156830	-0.975082	-0.219387	-0.032933
45540	9.666865	-1.392627	-0.139320	-0.312003	-0.572890	-0.191060	-0.071407	0.142890	0.987159	-0.208880	0.965599	-0.154878	-0.975331	-0.217257	-0.039104
45541	9.766109	-1.403808	0.045205	-0.317887	-0.558115	-0.185748	-0.076515	0.139910	0.987203	-0.205934	0.966540	-0.152943	-0.975570	-0.215001	-0.045143
45542	9.825091	-1.498599	0.182986	-0.341524	-0.539707	-0.177355	-0.081465	0.137078	0.987205	-0.202787	0.967499	-0.151075	-0.975828	-0.212500	-0.051020
45543	9.851887	-1.625759	0.291940	-0.368659	-0.516125	-0.176359	-0.086196	0.134303	0.987184	-0.199355	0.968507	-0.149169	-0.976129	-0.209658	-0.056708
45544	9.752086	-1.847775	0.426099	-0.413344	-0.484593	-0.155162	-0.090667	0.131828	0.987117	-0.195502	0.969557	-0.147440	-0.976503	-0.206351	-0.062134
45545	9.654955	-2.071208	0.455453	-0.425853	-0.454746	-0.129119	-0.094906	0.129669	0.987005	-0.191485	0.970587	-0.145925	-0.976896	-0.202846	-0.067285
45546	9.587420	-2.378456	0.209393	-0.423406	-0.432353	-0.116046	-0.098956	0.127710	0.986863	-0.187505	0.971572	-0.144533	-0.977266	-0.199344	-0.072197
45547	9.432720	-2.397759	-0.070731	-0.378567	-0.397562	-0.128559	-0.102649	0.125701	0.986743	-0.183962	0.972473	-0.143021	-0.977559	-0.196205	-0.076699
45548	9.294411	-2.152167	-0.461691	-0.383450	-0.405218	-0.129611	-0.106420	0.123689	0.986598	-0.180393	0.973365	-0.141488	-0.977821	-0.193033	-0.081273
45549	9.444011	-1.703463	-0.856251	-0.376371	-0.423812	-0.135066	-0.110369	0.121593	0.986425	-0.176892	0.974239	-0.139883	-0.978022	-0.189929	-0.086017
45550	9.559642	-1.638420	-1.053239	-0.405752	-0.417150	-0.140593	-0.114248	0.119475	0.986242	-0.173125	0.975157	-0.138187	-0.978251	-0.186531	-0.090726
45551	9.415806	-1.841720	-1.293762	-0.404014	-0.428347	-0.154053	-0.118220	0.117212	0.986045	-0.169385	0.976075	-0.136335	-0.978434	-0.183139	-0.095538
45552	9.488210	-1.566278	-1.701439	-0.354076	-0.469000	-0.179445	-0.122553	0.114645	0.985818	-0.166180	0.976912	-0.134268	-0.978450	-0.180278	-0.100672
45553	9.647501	-1.419646	-2.019071	-0.337872	-0.489352	-0.205524	-0.127048	0.111794	0.985576	-0.163164	0.977737	-0.131938	-0.978384	-0.177573	-0.105979
45554	9.603040	-1.116961	-2.272028	-0.303598	-0.482969	-0.242018	-0.131426	0.108613	0.985358	-0.160550	0.978525	-0.129274	-0.978239	-0.175189	-0.111166
45555	9.464899	-0.927371	-2.184494	-0.281771	-0.500981	-0.278066	-0.135930	0.105051	0.985133	-0.158195	0.979302	-0.126258	-0.978007	-0.173006	-0.116498
45556	9.628321	-0.863713	-2.083444	-0.251839	-0.526581	-0.310227	-0.140636	0.101144	0.984881	-0.156205	0.980042	-0.122953	-0.977661	-0.171134	-0.122030
45557	10.157175	-0.849219	-1.860474	-0.165657	-0.554560	-0.337287	-0.145580	0.096924	0.984587	-0.155093	0.980650	-0.119468	-0.977114	-0.170095	-0.127730
45558	10.189994	-0.833461	-1.605645	-0.112690	-0.532143	-0.367747	-0.150252	0.092451	0.984316	-0.154579	0.981176	-0.115752	-0.976488	-0.169546	-0.133133
45559	9.930690	-0.862886	-1.137239	-0.074191	-0.500617	-0.385492	-0.154592	0.087851	0.984065	-0.154464	0.981641	-0.111900	-0.975829	-0.169302	-0.138184
45560	9.871437	-1.224279	-0.570944	-0.086641	-0.512527	-0.387333	-0.159038	0.083219	0.983759	-0.154269	0.982106	-0.108019	-0.975145	-0.168942	-0.143354
45561	9.971766	-1.537506	-0.102018	-0.076300	-0.507309	-0.382839	-0.163441	0.078634	0.983414	-0.154165	0.982537	-0.104186	-0.974433	-0.168636	-0.148464
45562	9.897045	-1.777373	0.431332	-0.076782	-0.470749	-0.355650	-0.167523	0.074384	0.983058	-0.154047	0.982926	-0.100625	-0.973759	-0.168294	-0.153204
45563	10.233079	-2.158659	0.880094	-0.097195	-0.467783	-0.306908	-0.171650	0.070615	0.982624	-0.153651	0.983303	-0.097504	-0.973102	-0.167718	-0.157934
45564	10.376255	-2.450745	1.109975	-0.098931	-0.389919	-0.247006	-0.175108	0.067571	0.982228	-0.153158	0.983627	-0.094972	-0.972564	-0.167066	-0.161892
45565	9.938035	-2.228365	1.491237	-0.080391	-0.312574	-0.200697	-0.177883	0.065114	0.981895	-0.152772	0.983883	-0.092922	-0.972121	-0.166536	-0.165068
45566	9.772097	-1.966592	1.539137	-0.091537	-0.269189	-0.163647	-0.180293	0.063095	0.981587	-0.152216	0.984129	-0.091216	-0.971764	-0.165859	-0.167828
45567	9.761794	-1.542172	1.589077	-0.159895	-0.238009	-0.148589	-0.182418	0.061281	0.981310	-0.150987	0.984472	-0.089545	-0.971559	-0.164500	-0.170333
45568	9.735901	-1.185807	1.605116	-0.261553	-0.197761	-0.154503	-0.184151	0.059475	0.981097	-0.148769	0.984981	-0.087635	-0.971574	-0.162095	-0.172537
45569	9.639039	-0.730392	1.492882	-0.382030	-0.172827	-0.182964	-0.185594	0.057439	0.980946	-0.145460	0.985685	-0.085238	-0.971801	-0.158508	-0.174582
45570	9.581093	-0.562487	1.289989	-0.623693	-0.141330	-0.222338	-0.186694	0.055066	0.980874	-0.139852	0.986770	-0.082016	-0.972413	-0.152489	-0.176523
45571	9.744199	-0.784717	0.918471	-0.825638	-0.138113	-0.238321	-0.187740	0.052553	0.980812	-0.132338	0.988109	-0.078275	-0.973263	-0.144494	-0.178553
45572	9.946652	-1.220527	0.284712	-1.036312	-0.108905	-0.240123	-0.188537	0.050066	0.980789	-0.122738	0.989668	-0.074113	-0.974366	-0.134353	-0.180444
45573	9.967538	-1.421455	-0.579614	-1.200202	-0.059632	-0.249955	-0.188848	0.047561	0.980854	-0.111586	0.991318	-0.069552	-0.975646	-0.122585	-0.181901
45574	10.368583	-1.584800	-1.098597	-1.263770	-0.034362	-0.248522	-0.188963	0.045096	0.980948	-0.099758	0.992895	-0.064862	-0.976904	-0.110114	-0.183122
45575	10.417355	-1.779173	-1.078939	-1.136151	-0.055997	-0.247962	-0.189296	0.042624	0.980995	-0.089207	0.994179	-0.060410	-0.977860	-0.098947	-0.184392
45576	10.758993	-2.267158	-0.548430	-1.073015	-0.109707	-0.231759	-0.190214	0.040258	0.980917	-0.079191	0.995274	-0.056203	-0.978543	-0.088370	-0.186127
45577	10.951611	-2.533531	-0.957832	-1.033572	-0.092332	-0.205232	-0.190982	0.038191	0.980850	-0.069558	0.996204	-0.052332	-0.979126	-0.078220	-0.187601
45578	10.635331	-2.288794	-2.027679	-0.812605	-0.074381	-0.228305	-0.191600	0.035903	0.980816	-0.062077	0.996887	-0.048618	-0.979508	-0.070201	-0.188775
45579	10.733048	-2.068826	-2.499179	-0.579617	-0.068536	-0.254974	-0.192135	0.033373	0.980801	-0.056989	0.997356	-0.045101	-0.979712	-0.064560	-0.189725
45580	10.914151	-1.514304	-2.164605	-0.308191	0.017632	-0.278615	-0.191846	0.030649	0.980946	-0.054545	0.997634	-0.041837	-0.979908	-0.061532	-0.189720
45581	10.734144	-0.853103	-1.715081	-0.040088	0.170942	-0.308636	-0.190016	0.027736	0.981389	-0.054846	0.997740	-0.038817	-0.980248	-0.061201	-0.188065
45582	10.234452	-0.272829	-1.276364	0.206449	0.352199	-0.358509	-0.186400	0.024421	0.982170	-0.057586	0.997701	-0.035737	-0.980785	-0.063221	-0.184566
45583	9.515910	0.235882	-0.711814	0.325178	0.401866	-0.408222	-0.182228	0.020672	0.983039	-0.061635	0.997573	-0.032403	-0.981323	-0.066494	-0.180511
45584	9.657284	0.471350	-0.077927	0.355768	0.414873	-0.467868	-0.177897	0.016331	0.983914	-0.066011	0.997412	-0.028490	-0.981833	-0.070017	-0.176358
45585	9.404428	0.411787	0.273964	0.258507	0.493748	-0.493152	-0.172724	0.011826	0.984899	-0.069521	0.997288	-0.024166	-0.982514	-0.072645	-0.171433
45586	8.970382	0.252483	0.692327	0.084861	0.516642	-0.500783	-0.167334	0.007252	0.985874	-0.071248	0.997269	-0.019429	-0.983323	-0.073493	-0.166360
45587	9.006106	-0.343705	1.119173	-0.077825	0.494901	-0.474411	-0.162134	0.002943	0.986764	-0.071373	0.997341	-0.014702	-0.984184	-0.072812	-0.161493
45588	9.347298	-0.910823	1.372338	-0.161894	0.420506	-0.403929	-0.157748	-0.000740	0.987479	-0.070467	0.997459	-0.010510	-0.984962	-0.071243	-0.157399
45589	9.570080	-1.346235	1.520782	-0.155490	0.457046	-0.330680	-0.153016	-0.003653	0.988217	-0.069565	0.997552	-0.007084	-0.985772	-0.069829	-0.152895
45590	9.539612	-1.460771	1.771606	-0.047308	0.498790	-0.251484	-0.147962	-0.005772	0.988976	-0.069520	0.997570	-0.004579	-0.986547	-0.069431	-0.148004
45591	10.136078	-1.729623	2.207174	0.080952	0.541606	-0.185408	-0.142484	-0.007175	0.989771	-0.070716	0.997492	-0.002949	-0.987268	-0.070413	-0.142634
45592	10.620677	-1.896310	2.763413	0.230753	0.649136	-0.145076	-0.136009	-0.008114	0.990674	-0.073241	0.997313	-0.001886	-0.987997	-0.072814	-0.136237
45593	11.263047	-2.069050	3.216611	0.399773	0.766757	-0.067830	-0.128369	-0.008143	0.991693	-0.077426	0.996996	-0.001836	-0.988699	-0.077018	-0.128614
45594	11.400829	-1.909049	3.582477	0.544401	0.888971	-0.015139	-0.119605	-0.007542	0.992793	-0.082873	0.996557	-0.002413	-0.989357	-0.082564	-0.119819
45595	11.130315	-2.200798	3.404354	0.749849	1.094668	0.049684	-0.108796	-0.006020	0.994046	-0.090400	0.995898	-0.003863	-0.989945	-0.090282	-0.108894
45596	11.650004	-1.717906	3.510226	0.852224	1.153358	0.134394	-0.097545	-0.003549	0.995225	-0.098745	0.995094	-0.006130	-0.990320	-0.098872	-0.097417
45597	11.703628	-1.550571	2.802295	0.871958	1.355240	0.183440	-0.084285	-0.000235	0.996442	-0.107397	0.994177	-0.008850	-0.990637	-0.107760	-0.083819
45598	11.831661	-1.298413	2.397115	0.808521	1.489513	0.261323	-0.069860	0.004069	0.997549	-0.115253	0.993262	-0.012122	-0.990877	-0.115817	-0.068920
45599	11.667321	-1.389672	2.004112	0.771551	1.595875	0.321118	-0.054398	0.009265	0.998476	-0.122894	0.992292	-0.015903	-0.990928	-0.123572	-0.052840
45600	12.081426	-1.426889	1.341942	0.732849	1.559679	0.380125	-0.039468	0.015058	0.999107	-0.130025	0.991307	-0.020077	-0.990725	-0.130702	-0.037167
45601	11.865224	-1.358693	0.419035	0.820890	1.506962	0.391618	-0.025036	0.021075	0.999464	-0.138235	0.990100	-0.024340	-0.990083	-0.138771	-0.021875
45602	12.543009	-0.882603	-0.280920	0.902298	1.437048	0.408462	-0.011441	0.027213	0.999564	-0.147140	0.988702	-0.028601	-0.989050	-0.147403	-0.007308
45603	12.696438	-0.380336	-0.689506	0.915037	1.430546	0.404502	0.002114	0.033492	0.999437	-0.156375	0.987155	-0.032750	-0.987695	-0.156218	0.007324
45604	12.950792	-0.592191	-1.408766	0.820081	1.403184	0.420313	0.015244	0.039923	0.999086	-0.164557	0.985678	-0.036877	-0.986250	-0.163844	0.021596
45605	12.478699	-0.771692	-1.791563	0.655580	1.432901	0.431216	0.028667	0.046675	0.998499	-0.171320	0.984358	-0.041096	-0.984798	-0.169885	0.036215
45606	11.971319	-1.860329	-2.389369	0.593939	1.359712	0.459638	0.041201	0.053581	0.997713	-0.177377	0.983092	-0.045471	-0.983280	-0.175098	0.050008
45607	11.214564	-2.267039	-2.709292	0.677493	1.323147	0.500460	0.053311	0.060971	0.996715	-0.184473	0.981556	-0.050177	-0.981391	-0.181192	0.063575
45608	10.511171	-2.317373	-2.986182	0.773041	1.243867	0.532532	0.064456	0.068528	0.995565	-0.192417	0.979772	-0.054983	-0.979194	-0.188020	0.076338
45609	10.084180	-2.110143	-2.273732	0.965412	1.200028	0.535134	0.075143	0.076194	0.994258	-0.202431	0.977481	-0.059609	-0.976409	-0.196790	0.088875
45610	10.458333	-1.872855	-1.468203	1.185151	1.245022	0.520104	0.086148	0.083824	0.992750	-0.214456	0.974655	-0.063687	-0.972927	-0.207415	0.101941
45611	10.631442	-2.041723	-1.907917	1.338667	1.303080	0.499040	0.097696	0.091584	0.990993	-0.228108	0.971309	-0.067277	-0.968722	-0.219481	0.115784
45612	10.858742	-2.624516	-2.454963	1.375616	1.317255	0.502723	0.109198	0.099465	0.989031	-0.241977	0.967710	-0.070605	-0.964118	-0.231613	0.129740
45613	11.279589	-3.276073	-2.478078	1.462372	1.374319	0.541572	0.121054	0.108091	0.986743	-0.256853	0.963610	-0.074046	-0.958839	-0.244485	0.144412
45614	11.657392	-3.556316	-2.229395	1.746089	1.435077	0.590929	0.133151	0.117424	0.984115	-0.274346	0.958523	-0.077251	-0.952368	-0.259702	0.159843
45615	11.629173	-3.087669	-1.502840	1.995263	1.491943	0.635513	0.145477	0.127628	0.981095	-0.294344	0.952325	-0.080240	-0.944562	-0.277106	0.176108
45616	11.214009	-2.553277	-1.473757	2.218058	1.488429	0.664986	0.157390	0.138237	0.977813	-0.316258	0.945062	-0.082702	-0.935526	-0.296225	0.192462
45617	10.898156	-1.498325	-1.389407	2.371495	1.446405	0.697129	0.168535	0.149357	0.974314	-0.339641	0.936721	-0.084844	-0.925333	-0.316618	0.208598
45618	10.696651	-0.795794	-1.197598	2.412916	1.455300	0.719799	0.179342	0.160854	0.970547	-0.363144	0.927695	-0.086649	-0.914310	-0.336909	0.224788
45619	10.329303	-0.519089	-0.960034	2.363218	1.456716	0.722175	0.189835	0.172691	0.966509	-0.386115	0.918222	-0.088226	-0.902706	-0.356435	0.240989
45620	9.686536	-0.326399	-1.034517	2.269578	1.444522	0.690316	0.199998	0.184307	0.962305	-0.407871	0.908666	-0.089265	-0.890866	-0.374643	0.256905
45621	9.193904	0.157247	-1.165888	2.197321	1.412712	0.617672	0.209870	0.195416	0.958002	-0.428730	0.898993	-0.089457	-0.878718	-0.391950	0.272453
45622	8.765333	0.915091	-1.212188	2.113930	1.398209	0.528741	0.219700	0.205765	0.953621	-0.448367	0.889445	-0.088620	-0.866429	-0.408103	0.287669
45623	8.225490	1.548653	-1.001072	1.979090	1.379537	0.453777	0.229443	0.215609	0.949141	-0.466547	0.880191	-0.087165	-0.854219	-0.422819	0.302546
45624	7.655732	1.866342	-0.603683	1.818343	1.365905	0.393357	0.239110	0.224944	0.944578	-0.482949	0.871486	-0.085284	-0.842370	-0.435790	0.317017
45625	7.432644	1.754398	-0.166467	1.647238	1.295943	0.339607	0.248236	0.233693	0.940089	-0.497674	0.863364	-0.083206	-0.831083	-0.447203	0.330621
45626	7.785146	1.707940	-0.096168	1.560742	1.215017	0.279098	0.256806	0.241613	0.935775	-0.511319	0.855604	-0.080591	-0.820124	-0.457783	0.343265
45627	7.980357	2.100737	0.034625	1.509380	1.122358	0.211284	0.264802	0.248674	0.931687	-0.524266	0.848035	-0.077341	-0.809336	-0.467972	0.354933
45628	7.946100	2.643958	0.340003	1.434165	1.022059	0.141132	0.272219	0.254719	0.927909	-0.536233	0.840863	-0.073511	-0.798969	-0.477564	0.365487
45629	7.679157	2.875476	0.768873	1.295753	0.915738	0.069296	0.279062	0.259761	0.924472	-0.546797	0.834385	-0.069391	-0.789391	-0.486134	0.374882
45630	7.412607	3.067588	1.240143	1.164849	0.775582	-0.003128	0.285114	0.263556	0.921547	-0.555987	0.828648	-0.064973	-0.780762	-0.493843	0.382793
45631	7.230385	3.086075	1.354704	0.997276	0.640725	-0.073631	0.290453	0.266165	0.919126	-0.563593	0.823837	-0.060470	-0.773305	-0.500449	0.389295
45632	7.236551	2.833291	1.441004	0.793099	0.530149	-0.143061	0.295293	0.267676	0.917143	-0.569336	0.820190	-0.056070	-0.767241	-0.505606	0.394594
45633	7.267640	2.093034	1.312356	0.576698	0.420850	-0.207496	0.299648	0.268130	0.915597	-0.573187	0.817779	-0.051897	-0.762671	-0.509258	0.398735
45634	7.311437	1.399424	1.267739	0.406927	0.324380	-0.261880	0.303566	0.267665	0.914441	-0.575548	0.816365	-0.047893	-0.759337	-0.511766	0.401875
45635	7.216828	0.695847	1.291328	0.314749	0.234000	-0.280055	0.306906	0.266586	0.913641	-0.577126	0.815465	-0.044074	-0.756792	-0.513760	0.404125
45636	7.476456	0.342496	1.288177	0.292599	0.127893	-0.253279	0.309282	0.265199	0.913244	-0.578611	0.814593	-0.040598	-0.754688	-0.515856	0.405386
45637	7.688550	-0.026379	1.180079	0.259707	0.074162	-0.191708	0.310904	0.264020	0.913035	-0.580014	0.813729	-0.037800	-0.752943	-0.517821	0.406127
45638	7.970395	-0.159396	1.140019	0.239043	0.034059	-0.127276	0.311844	0.263180	0.912956	-0.581469	0.812785	-0.035688	-0.751430	-0.519727	0.406494
45639	8.121564	-0.168566	1.338585	0.176702	0.001111	-0.068240	0.312201	0.262623	0.912995	-0.582616	0.812021	-0.034351	-0.750392	-0.521201	0.406523
45640	8.418713	-0.382813	2.227050	0.072822	-0.022926	-0.015803	0.312067	0.262394	0.913107	-0.583166	0.811644	-0.033932	-0.750021	-0.521904	0.406306
45641	8.983427	-0.687556	3.040749	-0.080287	-0.000980	0.063326	0.311640	0.262889	0.913110	-0.582789	0.811876	-0.034840	-0.750491	-0.521293	0.406222
45642	8.800463	-1.118561	3.497481	-0.259131	0.061826	0.156968	0.311136	0.264504	0.912815	-0.581385	0.812771	-0.037348	-0.751788	-0.519077	0.406661
45643	8.605104	-1.346975	4.321950	-0.355266	0.080919	0.206676	0.310495	0.266591	0.912426	-0.579380	0.814041	-0.040684	-0.753599	-0.516009	0.407213
45644	8.552157	-1.382197	4.806316	-0.469266	0.054376	0.249289	0.309410	0.268921	0.912111	-0.576664	0.815747	-0.044891	-0.756124	-0.512092	0.407477
45645	8.613157	-1.087281	5.003322	-0.618372	0.026268	0.269639	0.308008	0.271250	0.911896	-0.572841	0.818148	-0.049877	-0.759595	-0.507009	0.407379
45646	8.903737	-0.885902	5.478385	-0.759715	0.061984	0.287186	0.306788	0.273935	0.911505	-0.567991	0.821154	-0.055612	-0.763720	-0.500665	0.407513
45647	9.022122	-0.707065	6.131953	-0.846663	0.121426	0.284005	0.306062	0.276874	0.910861	-0.562413	0.824554	-0.061661	-0.768127	-0.493407	0.408082
45648	9.092484	-0.834450	6.894072	-0.873414	0.183836	0.289581	0.305803	0.280187	0.909934	-0.556625	0.827986	-0.067888	-0.772433	-0.485731	0.409159
45649	8.827254	-1.373055	7.258843	-0.879717	0.237284	0.307143	0.305891	0.283884	0.908758	-0.550795	0.831327	-0.074297	-0.776567	-0.477812	0.410657
45650	8.703756	-2.092623	6.698711	-0.940877	0.251250	0.319512	0.306043	0.287757	0.907487	-0.544500	0.834832	-0.081090	-0.780934	-0.469309	0.412178
45651	8.487570	-2.605397	5.660449	-0.980570	0.261995	0.311914	0.306358	0.291602	0.906153	-0.537830	0.838449	-0.087982	-0.785419	-0.460403	0.413699
45652	8.091782	-2.786051	4.634238	-0.926506	0.283494	0.302446	0.306920	0.295458	0.904712	-0.531517	0.841751	-0.094582	-0.789487	-0.451841	0.415391
45653	6.439979	-2.617909	3.981551	-0.752437	0.153543	0.309374	0.306448	0.298782	0.903780	-0.526576	0.844164	-0.100526	-0.792974	-0.445103	0.416024
45654	4.669141	-2.488712	3.320156	-0.603543	-0.437933	0.294496	0.301366	0.299352	0.905299	-0.522726	0.845921	-0.105707	-0.797456	-0.441367	0.411412
45655	6.317283	-2.410343	1.877382	-0.594241	-1.008835	0.312617	0.291611	0.297592	0.909066	-0.518967	0.847559	-0.110983	-0.803515	-0.439412	0.401598
45656	7.991327	-2.923025	0.354562	-0.586208	-1.223027	0.359451	0.279831	0.295298	0.913506	-0.515320	0.849029	-0.116600	-0.810025	-0.438119	0.389758
45657	9.788393	-2.251181	-0.377073	-0.385055	-1.327081	0.362161	0.267127	0.292591	0.918169	-0.513248	0.849608	-0.121422	-0.815610	-0.438813	0.377125
45658	12.087738	-0.943594	0.072645	-0.112701	-1.220666	0.307539	0.255516	0.289854	0.922332	-0.513184	0.849172	-0.124694	-0.819362	-0.441465	0.365725
45659	12.815228	-0.051516	2.051126	0.148874	-0.939932	0.231666	0.246558	0.287676	0.925447	-0.515040	0.847806	-0.126324	-0.820940	-0.445496	0.357198
45660	11.672901	0.141441	4.414757	0.382661	-0.728543	0.177784	0.239605	0.285939	0.927808	-0.518667	0.845545	-0.126642	-0.820716	-0.450880	0.350904
45661	10.482708	0.255774	5.843094	0.586094	-0.735281	0.160451	0.232682	0.283969	0.930173	-0.523897	0.842393	-0.126118	-0.819385	-0.457969	0.344780
45662	9.667456	0.796564	6.164086	0.662725	-0.841224	0.151614	0.224942	0.281379	0.932860	-0.529722	0.838866	-0.125295	-0.817799	-0.465972	0.337749
45663	9.378662	1.480506	5.775520	0.535774	-0.932616	0.171581	0.216352	0.278452	0.935765	-0.534527	0.835837	-0.125133	-0.816990	-0.473119	0.329675
45664	9.305417	1.862843	5.229026	0.209822	-0.978383	0.179354	0.207338	0.275320	0.938728	-0.536674	0.834305	-0.126158	-0.817919	-0.477634	0.320741
45665	9.953167	1.919437	5.216805	-0.160895	-0.997914	0.173551	0.198181	0.272007	0.941667	-0.535756	0.834566	-0.128317	-0.820786	-0.479074	0.311125
45666	11.124332	2.157163	5.354452	-0.493925	-0.955071	0.109169	0.189683	0.268372	0.944456	-0.531954	0.836596	-0.130887	-0.825255	-0.477580	0.301450
45667	11.305435	1.271742	4.436161	-0.975260	-0.874418	0.056100	0.182096	0.264700	0.946982	-0.524024	0.841044	-0.134324	-0.832009	-0.471782	0.291860
45668	10.358145	-0.164625	1.679139	-1.515659	-0.924960	0.051961	0.174032	0.260845	0.949565	-0.511486	0.847944	-0.139187	-0.841484	-0.461466	0.280988
45669	9.869528	-1.149328	-0.350448	-1.954598	-1.000891	0.072015	0.165146	0.256914	0.952220	-0.495090	0.856614	-0.145254	-0.853002	-0.447446	0.268662
45670	9.449859	-1.712542	-0.530811	-2.121901	-1.003474	0.119783	0.155890	0.253557	0.954676	-0.477107	0.865602	-0.151992	-0.864909	-0.431789	0.255913
45671	9.283537	-2.012800	-0.438550	-2.058453	-1.016215	0.142358	0.146332	0.250485	0.956998	-0.459436	0.873955	-0.158498	-0.876074	-0.416486	0.242969
45672	9.094535	-1.629763	-0.062534	-1.874400	-1.010956	0.120928	0.136826	0.247431	0.959196	-0.443145	0.881298	-0.164123	-0.885946	-0.402607	0.230232
45673	9.372768	-2.367638	0.023608	-1.765988	-0.995873	0.079750	0.127564	0.244190	0.961300	-0.427550	0.888081	-0.168855	-0.894946	-0.389464	0.217691
45674	9.691475	-2.919422	0.369316	-1.565660	-0.920268	0.020926	0.119152	0.240873	0.963215	-0.413556	0.894006	-0.172408	-0.902648	-0.377800	0.206137
45675	9.811885	-3.030295	0.665283	-1.251027	-0.829549	-0.022633	0.111682	0.237574	0.964928	-0.402221	0.898717	-0.174718	-0.908705	-0.368601	0.195928
45676	10.190763	-3.121137	0.903268	-0.869409	-0.748176	-0.056682	0.105041	0.234356	0.966459	-0.394292	0.901999	-0.175871	-0.912962	-0.362594	0.187152
45677	10.078340	-2.905866	0.951867	-0.514863	-0.674810	-0.066829	0.099082	0.231318	0.967819	-0.389537	0.904002	-0.176185	-0.915666	-0.359545	0.179678
45678	9.945144	-2.129553	1.095007	-0.262231	-0.628503	-0.038753	0.093421	0.228739	0.968995	-0.387148	0.905004	-0.176308	-0.917272	-0.358674	0.173102
45679	9.924589	-1.622806	0.975319	-0.184884	-0.583543	-0.010282	0.088052	0.226557	0.970010	-0.385461	0.905678	-0.176542	-0.918513	-0.358356	0.167076
45680	9.729682	-1.117708	1.058043	-0.237443	-0.541675	-0.008772	0.083055	0.224568	0.970913	-0.383323	0.906519	-0.176883	-0.919873	-0.357482	0.161373
45681	9.647933	-1.210901	0.895607	-0.345014	-0.525983	-0.008930	0.078193	0.222613	0.971766	-0.380155	0.907758	-0.177361	-0.921612	-0.355553	0.155608
45682	9.653911	-1.370379	0.721964	-0.453213	-0.518948	-0.016502	0.073416	0.220655	0.972585	-0.376012	0.909371	-0.177930	-0.923702	-0.352641	0.149731
45683	9.611165	-1.200131	0.853217	-0.575370	-0.521135	-0.017379	0.068607	0.218670	0.973384	-0.370690	0.911418	-0.178622	-0.926219	-0.348569	0.143589
45684	9.656740	-1.086110	0.796158	-0.725975	-0.531517	-0.021019	0.063702	0.216669	0.974165	-0.363992	0.913947	-0.179474	-0.929221	-0.343155	0.137086
45685	9.530159	-1.000617	0.888494	-0.900559	-0.531851	-0.043591	0.058854	0.214463	0.974957	-0.355590	0.917093	-0.180269	-0.932787	-0.336076	0.130236
45686	9.509608	-1.192453	0.830151	-1.047552	-0.563527	-0.069834	0.053781	0.211981	0.975793	-0.345809	0.920691	-0.180952	-0.936762	-0.327706	0.122820
45687	9.569135	-1.367096	0.845699	-1.160941	-0.567945	-0.097224	0.048726	0.209248	0.976648	-0.334866	0.924640	-0.181399	-0.941005	-0.318207	0.115124
45688	9.510206	-1.657326	0.749981	-1.252753	-0.577308	-0.119481	0.043624	0.206365	0.977502	-0.323045	0.928784	-0.181663	-0.945378	-0.307852	0.107182
45689	9.486848	-1.877523	0.673641	-1.299185	-0.581747	-0.133251	0.038481	0.203365	0.978347	-0.310684	0.932982	-0.181715	-0.949734	-0.296964	0.099084
45690	9.401176	-2.130499	0.459458	-1.285033	-0.579569	-0.159532	0.033401	0.200216	0.979182	-0.298446	0.937026	-0.181415	-0.953842	-0.286174	0.091052
45691	9.481911	-2.256564	0.290554	-1.253724	-0.591594	-0.160426	0.028163	0.197049	0.979989	-0.286418	0.940862	-0.180950	-0.957691	-0.275591	0.082936
45692	9.589365	-2.364000	0.132940	-1.181360	-0.584620	-0.167880	0.022977	0.193918	0.980749	-0.275091	0.944364	-0.180279	-0.961143	-0.265653	0.075044
45693	9.447308	-2.281445	-0.024873	-1.138422	-0.581377	-0.168349	0.017781	0.190813	0.981465	-0.264101	0.947653	-0.179455	-0.964331	-0.256015	0.067244
45694	9.288970	-2.265401	-0.246172	-1.067657	-0.602473	-0.179420	0.012379	0.187629	0.982162	-0.253813	0.950657	-0.178411	-0.967174	-0.247077	0.059391
45695	9.445631	-2.298870	-0.446408	-0.983365	-0.621904	-0.197225	0.006793	0.184246	0.982857	-0.244274	0.953409	-0.177038	-0.969682	-0.238884	0.051483
45696	9.449033	-1.997596	-0.350469	-0.897056	-0.627554	-0.196639	0.001126	0.180928	0.983496	-0.235608	0.955857	-0.175574	-0.971848	-0.231522	0.043704
45697	9.514925	-2.018206	-0.261535	-0.822137	-0.631718	-0.205420	-0.004599	0.177529	0.984105	-0.227615	0.958097	-0.173901	-0.973740	-0.224797	0.036002
45698	9.598033	-2.005051	-0.277906	-0.723912	-0.634827	-0.224986	-0.010328	0.173999	0.984692	-0.220627	0.960079	-0.171964	-0.975304	-0.219026	0.028473
45699	9.659944	-1.882411	-0.356385	-0.640971	-0.624641	-0.245368	-0.015946	0.170298	0.985264	-0.214404	0.961885	-0.169728	-0.976615	-0.213951	0.021174
45700	9.515142	-1.654937	-0.207602	-0.584736	-0.604668	-0.252334	-0.021367	0.166626	0.985789	-0.208787	0.963529	-0.167389	-0.977728	-0.209396	0.014201
45701	9.455924	-1.767128	-0.097708	-0.544118	-0.615992	-0.257293	-0.026919	0.162879	0.986279	-0.203526	0.965077	-0.164932	-0.978699	-0.205173	0.007171
45702	9.517022	-1.731922	-0.121766	-0.533704	-0.631242	-0.259205	-0.032625	0.159130	0.986718	-0.198426	0.966561	-0.162440	-0.979573	-0.201090	0.000042
45703	9.634385	-1.621152	0.005782	-0.527167	-0.633856	-0.258756	-0.038386	0.155378	0.987109	-0.193352	0.968013	-0.159891	-0.980378	-0.196997	-0.007116
45704	9.520828	-1.486510	0.066605	-0.525846	-0.640285	-0.256356	-0.044222	0.151684	0.987439	-0.188349	0.969415	-0.157350	-0.981106	-0.192941	-0.014300
45705	9.661845	-1.479213	0.078682	-0.557459	-0.639878	-0.252114	-0.050091	0.148031	0.987713	-0.182996	0.970852	-0.154785	-0.981837	-0.188501	-0.021541
45706	9.561303	-1.352629	0.210460	-0.600916	-0.621798	-0.244006	-0.055803	0.144541	0.987924	-0.177271	0.972311	-0.152270	-0.982579	-0.183627	-0.028635
45707	9.629814	-1.529013	0.168676	-0.649369	-0.621532	-0.236612	-0.061557	0.141130	0.988076	-0.171027	0.973820	-0.149748	-0.983341	-0.178206	-0.035808
45708	9.754519	-1.649453	0.259408	-0.636517	-0.603248	-0.239043	-0.067133	0.137779	0.988185	-0.164967	0.975255	-0.147184	-0.984012	-0.172899	-0.042743
45709	9.848111	-1.596151	0.371876	-0.616011	-0.564925	-0.231222	-0.072374	0.134578	0.988256	-0.159067	0.976615	-0.144641	-0.984611	-0.167668	-0.049275
45710	9.698788	-1.722474	0.573371	-0.615315	-0.526534	-0.219968	-0.077260	0.131598	0.988288	-0.153219	0.977908	-0.142194	-0.985167	-0.162410	-0.055390
45711	9.740197	-1.951909	0.515997	-0.629236	-0.510868	-0.200972	-0.082046	0.128835	0.988266	-0.147184	0.979170	-0.139868	-0.985700	-0.156932	-0.061375
45712	9.698941	-2.340765	0.351820	-0.648047	-0.475840	-0.179089	-0.086523	0.126386	0.988201	-0.140992	0.980383	-0.137731	-0.986223	-0.151245	-0.067006
45713	9.576631	-2.528306	0.332950	-0.615984	-0.448721	-0.170735	-0.090765	0.124067	0.988114	-0.135078	0.981506	-0.135645	-0.986669	-0.145784	-0.072328
45714	9.457827	-2.642816	0.092777	-0.568585	-0.427395	-0.159884	-0.094814	0.121925	0.988000	-0.129661	0.982504	-0.133689	-0.987015	-0.140781	-0.077346
45715	9.482078	-2.526699	-0.114225	-0.515986	-0.422705	-0.154241	-0.098840	0.119850	0.987860	-0.124735	0.983399	-0.131789	-0.987255	-0.136247	-0.082250
45716	9.507441	-2.523689	-0.386248	-0.449811	-0.396989	-0.151942	-0.102616	0.117862	0.987714	-0.120493	0.984171	-0.129958	-0.987396	-0.132348	-0.086790
45717	9.459476	-2.366737	-0.564337	-0.376583	-0.383769	-0.156622	-0.106268	0.115849	0.987566	-0.116961	0.984838	-0.128115	-0.987435	-0.129121	-0.091107
45718	9.483803	-2.231296	-0.741304	-0.317191	-0.376996	-0.159702	-0.109848	0.113835	0.987408	-0.114047	0.985415	-0.126293	-0.987384	-0.126484	-0.095264
45719	9.443609	-2.042462	-0.874907	-0.245121	-0.369103	-0.174084	-0.113344	0.111690	0.987258	-0.111848	0.985911	-0.124378	-0.987240	-0.124520	-0.099255
45720	9.535558	-2.008012	-0.952942	-0.203684	-0.368720	-0.181981	-0.116824	0.109479	0.987100	-0.110092	0.986353	-0.122426	-0.987032	-0.122974	-0.103177
45721	9.695727	-1.666755	-1.005626	-0.146522	-0.384401	-0.191169	-0.120456	0.107159	0.986918	-0.108903	0.986730	-0.120430	-0.986727	-0.121985	-0.107188
45722	9.759707	-1.173120	-0.959708	-0.131260	-0.403446	-0.204025	-0.124257	0.104696	0.986711	-0.107902	0.987095	-0.118325	-0.986366	-0.121171	-0.111357
45723	9.825830	-0.945220	-1.151217	-0.136626	-0.404930	-0.214312	-0.128068	0.102128	0.986493	-0.106856	0.987473	-0.116102	-0.985992	-0.120281	-0.115551
45724	9.774845	-1.007946	-1.174822	-0.170019	-0.423247	-0.231133	-0.132037	0.099380	0.986250	-0.105525	0.987898	-0.113673	-0.985612	-0.119083	-0.119952
45725	9.824974	-0.751246	-1.417046	-0.151692	-0.454742	-0.250691	-0.136303	0.096400	0.985966	-0.104396	0.988315	-0.111062	-0.985151	-0.118069	-0.124646
45726	9.754546	-0.799936	-1.509464	-0.135462	-0.444223	-0.285303	-0.140423	0.093098	0.985705	-0.103500	0.988734	-0.108129	-0.984667	-0.117204	-0.129205
45727	9.916197	-0.608758	-1.252691	-0.064095	-0.476993	-0.317889	-0.144837	0.089432	0.985405	-0.103350	0.989092	-0.104958	-0.984043	-0.117044	-0.134015
45728	10.248249	-0.731785	-1.184943	-0.085558	-0.483259	-0.326533	-0.149296	0.085678	0.985074	-0.103032	0.989468	-0.101676	-0.983410	-0.116674	-0.138896
45729	10.080480	-0.838267	-0.751733	-0.030291	-0.464650	-0.342116	-0.153559	0.081786	0.984749	-0.103279	0.989782	-0.098309	-0.982727	-0.116800	-0.143543
45730	9.873091	-0.671827	-0.390168	-0.029341	-0.469063	-0.351201	-0.157845	0.077802	0.984394	-0.103581	0.990087	-0.094861	-0.982016	-0.116938	-0.148221
45731	9.843325	-1.198418	-0.271505	-0.103205	-0.451714	-0.329882	-0.161985	0.074044	0.984011	-0.103123	0.990451	-0.091505	-0.981390	-0.116296	-0.152802
45732	9.718585	-1.408965	-0.147547	-0.082862	-0.431284	-0.326098	-0.165922	0.070355	0.983626	-0.102887	0.990773	-0.088221	-0.980757	-0.115840	-0.157152
45733	9.725653	-1.068912	-0.018814	-0.114398	-0.429423	-0.325403	-0.169842	0.066671	0.983213	-0.102343	0.991121	-0.084886	-0.980143	-0.115043	-0.161511
45734	10.065100	-0.801017	0.028039	-0.246270	-0.443650	-0.329021	-0.173897	0.062945	0.982750	-0.100538	0.991606	-0.081302	-0.979618	-0.112942	-0.166109
45735	10.095595	-0.450031	0.075364	-0.374637	-0.421552	-0.337090	-0.177734	0.059170	0.982298	-0.097497	0.992221	-0.077409	-0.979237	-0.109529	-0.170582
45736	10.274433	-0.495922	-0.059420	-0.541858	-0.432455	-0.353187	-0.181673	0.055243	0.981806	-0.092868	0.992995	-0.073057	-0.978964	-0.104451	-0.175270
45737	10.376330	-0.650167	0.106394	-0.625216	-0.414878	-0.363126	-0.185445	0.051253	0.981317	-0.087453	0.993815	-0.068432	-0.978755	-0.098509	-0.179815
45738	10.033182	-0.656034	-0.048730	-0.681006	-0.378610	-0.369667	-0.188878	0.047259	0.980863	-0.081521	0.994639	-0.063621	-0.978611	-0.091978	-0.184013
45739	9.419400	-1.126322	-0.424326	-0.753087	-0.353104	-0.373396	-0.192076	0.043270	0.980426	-0.074906	0.995467	-0.058608	-0.978517	-0.084697	-0.187964
45740	9.687190	-1.591116	-0.427040	-0.717333	-0.381763	-0.364608	-0.195589	0.039372	0.979895	-0.068635	0.996194	-0.053726	-0.978281	-0.077763	-0.192142
45741	9.601450	-1.798046	-0.167108	-0.670880	-0.302922	-0.349143	-0.198354	0.035707	0.979480	-0.062808	0.996819	-0.049059	-0.978116	-0.071250	-0.195481
45742	9.348944	-2.069493	-0.243544	-0.577358	-0.262680	-0.322229	-0.200768	0.032358	0.979104	-0.057845	0.997319	-0.044821	-0.977930	-0.065635	-0.198358
45743	9.870661	-2.466267	-0.570130	-0.495394	-0.271829	-0.286080	-0.203294	0.029376	0.978677	-0.053635	0.997715	-0.041089	-0.977648	-0.060845	-0.201254
45744	10.475130	-3.034855	-0.552586	-0.403945	-0.229582	-0.238672	-0.205453	0.026903	0.978297	-0.050215	0.998016	-0.037991	-0.977378	-0.056931	-0.203695
45745	10.972630	-3.353035	-0.647535	-0.223523	-0.162873	-0.214567	-0.206963	0.024720	0.978036	-0.048540	0.998190	-0.035501	-0.977144	-0.054821	-0.205388
45746	11.455156	-2.791785	-0.547651	-0.041202	-0.048641	-0.216625	-0.207372	0.022575	0.978002	-0.048627	0.998260	-0.033353	-0.977053	-0.054473	-0.205913
45747	11.572070	-2.366009	-0.524105	0.084012	0.113817	-0.229527	-0.206166	0.020400	0.978304	-0.050001	0.998257	-0.031353	-0.977239	-0.055381	-0.204787
45748	10.986536	-1.767628	-0.445221	0.191147	0.286323	-0.245959	-0.203280	0.018150	0.978952	-0.052414	0.998193	-0.029391	-0.977717	-0.057285	-0.201962
45749	10.752059	-1.133260	-0.083883	0.262650	0.427659	-0.279208	-0.198963	0.015672	0.979882	-0.055633	0.998079	-0.027259	-0.978427	-0.059938	-0.197709
45750	10.461107	-0.444775	0.668462	0.292048	0.528840	-0.315231	-0.193644	0.012894	0.980987	-0.059152	0.997941	-0.024793	-0.979287	-0.062828	-0.192483
45751	10.276181	-0.013880	0.960315	0.281869	0.611226	-0.348512	-0.187455	0.009868	0.982224	-0.062673	0.997792	-0.021985	-0.980272	-0.065681	-0.186423
45752	9.389806	0.525855	0.906167	0.217900	0.664040	-0.350731	-0.180757	0.006855	0.983504	-0.065498	0.997672	-0.018992	-0.981344	-0.067850	-0.179887
45753	9.119860	0.790383	0.928463	0.226299	0.595962	-0.345840	-0.174682	0.003875	0.984617	-0.068435	0.997526	-0.016067	-0.982244	-0.070189	-0.173984
45754	9.325337	0.817005	1.237373	0.187414	0.540765	-0.337844	-0.169172	0.000933	0.985586	-0.070900	0.997397	-0.013114	-0.983033	-0.072096	-0.168666
45755	9.466467	0.324991	1.702181	0.106708	0.581687	-0.343911	-0.163208	-0.002017	0.986590	-0.072623	0.997310	-0.009975	-0.983915	-0.073277	-0.162915
45756	9.683708	-0.179397	2.255847	0.023257	0.608113	-0.322392	-0.157026	-0.004743	0.987583	-0.073412	0.997278	-0.006883	-0.984862	-0.073581	-0.156947
45757	9.892364	-0.792414	3.019982	-0.016420	0.650577	-0.291688	-0.150397	-0.007115	0.988600	-0.073808	0.997264	-0.004051	-0.985867	-0.073576	-0.150511
45758	10.213479	-1.757018	3.404321	0.014084	0.721621	-0.220084	-0.143156	-0.008735	0.989662	-0.074314	0.997233	-0.001948	-0.986906	-0.073824	-0.143409
45759	10.065467	-2.000969	2.965839	0.151472	0.776612	-0.146903	-0.135364	-0.009558	0.990750	-0.076138	0.997097	-0.000784	-0.987866	-0.075540	-0.135699
45760	10.890547	-1.813561	2.587049	0.249971	0.798735	-0.057881	-0.127466	-0.009478	0.991798	-0.078729	0.996896	-0.000592	-0.988713	-0.078159	-0.127817
45761	10.738377	-2.371123	2.584640	0.276088	1.021808	0.021436	-0.117354	-0.008382	0.993055	-0.081574	0.996667	-0.001227	-0.989734	-0.081151	-0.117647
45762	11.287245	-3.191995	3.185289	0.372836	1.186217	0.120147	-0.105748	-0.006156	0.994374	-0.085177	0.996362	-0.002890	-0.990738	-0.085004	-0.105888
45763	13.021932	-3.645767	2.739479	0.443400	1.407460	0.250138	-0.091987	-0.002358	0.995757	-0.089483	0.995971	-0.005908	-0.991731	-0.089647	-0.091827
45764	12.390010	-3.172567	2.054772	0.606794	1.604884	0.344611	-0.076423	0.002604	0.997072	-0.095260	0.995403	-0.009901	-0.992514	-0.095738	-0.075824
45765	12.460493	-2.785735	0.998775	0.835865	1.534474	0.442841	-0.061597	0.008633	0.998064	-0.103430	0.994524	-0.014986	-0.992728	-0.104152	-0.060367
45766	12.952134	-1.801814	0.083576	1.177336	1.533816	0.505776	-0.046967	0.015388	0.998778	-0.114889	0.993163	-0.020704	-0.992267	-0.115721	-0.044878
45767	13.659807	-1.126678	-0.382931	1.298213	1.584922	0.543128	-0.031872	0.022812	0.999232	-0.127739	0.991448	-0.026708	-0.991296	-0.128492	-0.028686
45768	13.459315	-0.463573	-0.636585	1.232729	1.626997	0.551686	-0.016535	0.030504	0.999398	-0.139868	0.989636	-0.032520	-0.990032	-0.140321	-0.012097
45769	13.500533	-0.580265	-1.476057	1.053975	1.592325	0.582579	-0.001596	0.038681	0.999250	-0.150432	0.987871	-0.038481	-0.988619	-0.150381	0.004242
45770	12.943366	-0.469182	-1.787578	0.951515	1.569936	0.579156	0.012970	0.046867	0.998817	-0.159916	0.986141	-0.044196	-0.987045	-0.159153	0.020285
45771	12.354295	-0.748066	-2.008090	0.739730	1.532586	0.586095	0.027151	0.055236	0.998104	-0.167515	0.984604	-0.049933	-0.985496	-0.165842	0.035986
45772	11.626482	-1.474305	-3.016474	0.689987	1.424440	0.593793	0.040117	0.063523	0.997174	-0.174562	0.983075	-0.055602	-0.983829	-0.171838	0.050527
45773	10.821637	-1.266871	-3.073728	0.781058	1.385296	0.576179	0.052719	0.071715	0.996031	-0.182686	0.981278	-0.060983	-0.981757	-0.178746	0.064833
45774	10.622250	-0.967259	-2.094137	0.925016	1.353361	0.545170	0.064922	0.079571	0.994713	-0.192130	0.979162	-0.065788	-0.979220	-0.186843	0.078857
45775	10.600606	-1.012561	-1.863161	1.150464	1.410311	0.499977	0.077726	0.087272	0.993148	-0.203906	0.976495	-0.069851	-0.975900	-0.197080	0.093695
45776	10.555511	-1.595008	-2.492264	1.142093	1.418132	0.477190	0.090494	0.094828	0.991372	-0.215487	0.973739	-0.073471	-0.972304	-0.206979	0.108552
45777	10.825462	-2.335204	-2.917200	1.126293	1.417936	0.480965	0.103188	0.102612	0.989355	-0.227049	0.970834	-0.077011	-0.968401	-0.216685	0.123477
45778	11.209860	-3.202115	-2.902162	1.296595	1.477607	0.515555	0.116213	0.110929	0.987010	-0.240196	0.967386	-0.080442	-0.963743	-0.227727	0.139067
45779	11.648818	-3.378117	-2.654111	1.590211	1.547257	0.567805	0.129658	0.120145	0.984253	-0.256332	0.962951	-0.083777	-0.957853	-0.241434	0.155651
45780	11.426267	-3.308249	-2.174201	1.903085	1.610576	0.616211	0.143341	0.130117	0.981082	-0.275390	0.957411	-0.086742	-0.950586	-0.257747	0.173069
45781	10.947885	-2.672169	-2.051029	2.204949	1.617995	0.662627	0.156731	0.140870	0.977543	-0.297401	0.950567	-0.089300	-0.941800	-0.276727	0.190878
45782	10.459441	-1.885184	-1.996916	2.387377	1.582720	0.697610	0.169353	0.152048	0.973756	-0.320962	0.942674	-0.091374	-0.931828	-0.297064	0.208447
45783	10.385103	-1.075932	-1.718539	2.515028	1.566249	0.712171	0.181455	0.163654	0.969686	-0.345651	0.933752	-0.092909	-0.920652	-0.318314	0.226001
45784	10.323037	-0.674999	-1.471184	2.473110	1.575496	0.706075	0.193292	0.175421	0.965332	-0.369654	0.924406	-0.093967	-0.908842	-0.338676	0.243525
45785	9.662230	-0.545123	-1.538459	2.416460	1.584751	0.663267	0.205026	0.187139	0.960699	-0.392917	0.914723	-0.094329	-0.896426	-0.358136	0.261072
45786	8.925431	-0.025560	-1.587272	2.337372	1.538736	0.587671	0.216298	0.198167	0.956005	-0.415017	0.904977	-0.093691	-0.883728	-0.376493	0.277987
45787	8.789336	0.569984	-1.846297	2.247220	1.512102	0.499865	0.227387	0.208576	0.951205	-0.435955	0.895245	-0.092089	-0.870769	-0.393743	0.294497
45788	8.270503	1.031896	-1.646562	2.151601	1.499418	0.410828	0.238462	0.218285	0.946302	-0.455563	0.885692	-0.089505	-0.857670	-0.409757	0.310647
45789	7.879503	1.528903	-1.041720	2.042311	1.440749	0.356222	0.249016	0.227505	0.941399	-0.473912	0.876321	-0.086420	-0.844629	-0.424621	0.326035
