// General information: 
//  MT Manager version: 2022.2.0 
//  XDA version: 2022.2.0 build 7381 rev 124627 built on 2023-07-19
// Device information: 
//  DeviceId: 00B4CAF0
//  ProductCode: MTW2-3A7G6
//  Firmware Version: 4.6.0
//  Hardware Version: 2.0.0
// Device settings: 
//  Filter Profile: human(46.1)
//  Option Flags: Orientation Smoother Disabled, Position/Velocity Smoother Disabled, Continuous Zero Rotation Update Disabled, AHS Disabled, ICC Disabled
// Coordinate system: ENU
PacketCounter	Acc_X	Acc_Y	Acc_Z	Gyr_X	Gyr_Y	Gyr_Z	Mat[1][1]	Mat[2][1]	Mat[3][1]	Mat[1][2]	Mat[2][2]	Mat[3][2]	Mat[1][3]	Mat[2][3]	Mat[3][3]
08224	5.391057	-1.135149	8.655765	0.001551	0.008939	0.002295	-0.847385	-0.082853	0.524476	0.034087	-0.994202	-0.101983	0.529884	-0.068541	0.845296
08225	5.397451	-1.137414	8.632963	0.008226	0.005280	0.004550	-0.847408	-0.082871	0.524436	0.034149	-0.994206	-0.101924	0.529844	-0.068462	0.845328
08226	5.427919	-1.124329	8.641462	0.005705	0.007981	0.002976	-0.847475	-0.082783	0.524341	0.034077	-0.994212	-0.101889	0.529740	-0.068480	0.845391
08227	5.424587	-1.148697	8.617969	0.007014	0.002252	0.001070	-0.847483	-0.082768	0.524330	0.034103	-0.994218	-0.101821	0.529726	-0.068411	0.845406
08228	5.400149	-1.165225	8.664207	0.011508	0.007205	0.000565	-0.847542	-0.082532	0.524272	0.033926	-0.994240	-0.101670	0.529643	-0.068383	0.845460
08229	5.398391	-1.110255	8.658313	0.006179	0.002631	-0.000188	-0.847553	-0.082504	0.524259	0.033937	-0.994246	-0.101602	0.529625	-0.068322	0.845476
08230	5.464655	-1.111435	8.627518	0.012019	-0.000648	0.000812	-0.847519	-0.082643	0.524291	0.034098	-0.994241	-0.101601	0.529668	-0.068231	0.845456
08231	5.446144	-1.075969	8.644152	0.011522	0.005640	-0.001634	-0.847546	-0.082598	0.524255	0.034124	-0.994252	-0.101481	0.529623	-0.068120	0.845493
08232	5.431548	-1.068102	8.613852	0.008225	0.005279	0.004551	-0.847450	-0.082570	0.524415	0.034108	-0.994258	-0.101430	0.529779	-0.068070	0.845400
08233	5.414031	-1.087581	8.636873	0.004071	0.006236	0.003868	-0.847478	-0.082580	0.524368	0.034142	-0.994260	-0.101402	0.529732	-0.068033	0.845432
08234	5.309014	-1.095810	8.683302	0.001196	0.004591	0.005679	-0.847465	-0.082835	0.524349	0.034343	-0.994236	-0.101561	0.529740	-0.068062	0.845425
08235	5.307433	-1.175307	8.665720	-0.006977	-0.004753	0.002339	-0.847435	-0.082838	0.524397	0.034305	-0.994232	-0.101619	0.529790	-0.068126	0.845388
08236	5.418501	-1.117965	8.666681	-0.002297	-0.015127	0.001071	-0.847363	-0.082899	0.524503	0.034307	-0.994222	-0.101714	0.529905	-0.068195	0.845311
08237	5.464810	-1.110624	8.627524	-0.003591	-0.010962	0.000777	-0.847301	-0.082890	0.524605	0.034274	-0.994221	-0.101735	0.530006	-0.068220	0.845245
08238	5.424682	-1.146430	8.618211	-0.011042	-0.010366	0.006279	-0.847219	-0.082889	0.524738	0.034181	-0.994211	-0.101861	0.530143	-0.068363	0.845148
08239	5.442461	-1.127453	8.594950	-0.002365	-0.009499	0.002058	-0.847164	-0.082891	0.524826	0.034165	-0.994210	-0.101878	0.530232	-0.068377	0.845091
08240	5.455950	-1.080874	8.618874	-0.005698	-0.007357	0.004833	-0.847110	-0.082860	0.524918	0.034069	-0.994205	-0.101959	0.530325	-0.068487	0.845024
08241	5.443584	-1.128627	8.594085	-0.002838	-0.004149	0.005221	-0.847082	-0.082891	0.524958	0.034077	-0.994201	-0.101997	0.530368	-0.068511	0.844994
08242	5.456604	-1.082108	8.618306	-0.003688	-0.002206	0.006162	-0.847019	-0.082755	0.525081	0.033893	-0.994205	-0.102017	0.530481	-0.068614	0.844915
08243	5.418622	-1.092839	8.633329	-0.000775	-0.003065	0.007760	-0.846996	-0.082810	0.525110	0.033934	-0.994200	-0.102051	0.530515	-0.068618	0.844894
08244	5.441371	-1.157517	8.646759	-0.008197	-0.005597	0.008867	-0.847003	-0.082938	0.525078	0.033976	-0.994180	-0.102229	0.530502	-0.068748	0.844892
08245	5.406345	-1.141698	8.608329	-0.002852	-0.002587	0.007420	-0.846983	-0.082990	0.525103	0.034002	-0.994174	-0.102279	0.530532	-0.068774	0.844871
08246	5.379736	-1.184451	8.630100	-0.003637	-0.006275	0.007373	-0.846966	-0.082914	0.525142	0.033871	-0.994173	-0.102340	0.530567	-0.068891	0.844839
08247	5.418167	-1.174751	8.614656	-0.001634	-0.001745	0.000894	-0.846952	-0.082899	0.525166	0.033849	-0.994173	-0.102345	0.530590	-0.068905	0.844823
08248	5.428209	-1.152468	8.615185	0.003748	-0.001240	0.002856	-0.846945	-0.082950	0.525170	0.033882	-0.994168	-0.102386	0.530599	-0.068922	0.844816
08249	5.429723	-1.073322	8.632843	0.003291	0.002547	0.003821	-0.846954	-0.082961	0.525154	0.033910	-0.994169	-0.102365	0.530584	-0.068891	0.844828
08250	5.461988	-1.114990	8.647206	0.000023	-0.000942	0.005609	-0.846904	-0.083007	0.525228	0.033928	-0.994163	-0.102410	0.530663	-0.068912	0.844777
08251	5.416695	-1.120975	8.608457	-0.001233	0.000720	0.008725	-0.846901	-0.083069	0.525223	0.033974	-0.994157	-0.102453	0.530665	-0.068924	0.844775
08252	5.427783	-1.153245	8.615349	0.002492	0.000422	0.005973	-0.846859	-0.083035	0.525295	0.033931	-0.994160	-0.102448	0.530733	-0.068935	0.844731
08253	5.414672	-1.200497	8.591062	0.002871	0.003828	0.008195	-0.846873	-0.083089	0.525264	0.033994	-0.994157	-0.102453	0.530708	-0.068909	0.844749
08254	5.449565	-1.216982	8.629487	0.008650	0.003992	0.000174	-0.846913	-0.083082	0.525201	0.034003	-0.994158	-0.102434	0.530643	-0.068895	0.844791
08255	5.433785	-1.154585	8.592919	0.014009	0.005437	-0.003472	-0.846939	-0.083019	0.525169	0.034026	-0.994173	-0.102285	0.530600	-0.068759	0.844829
08256	5.424846	-1.096734	8.610428	0.009827	0.009522	0.000244	-0.846968	-0.082838	0.525150	0.033881	-0.994189	-0.102181	0.530563	-0.068752	0.844853
08257	5.398724	-1.059001	8.650651	0.009420	0.009241	0.002420	-0.847012	-0.082831	0.525080	0.033930	-0.994195	-0.102101	0.530489	-0.068665	0.844906
08258	5.429279	-1.045963	8.659086	0.003290	0.002546	0.003821	-0.846979	-0.082955	0.525114	0.034026	-0.994184	-0.102175	0.530536	-0.068673	0.844876
08259	5.434255	-1.127649	8.618566	0.001185	0.006152	0.007878	-0.847005	-0.083005	0.525064	0.034077	-0.994181	-0.102194	0.530491	-0.068666	0.844905
08260	5.424049	-1.150658	8.618046	-0.005745	-0.002666	0.011430	-0.846891	-0.083430	0.525180	0.034380	-0.994140	-0.102489	0.530654	-0.068742	0.844797
08261	5.466253	-1.170690	8.632933	0.000400	0.002464	0.007831	-0.846898	-0.083482	0.525162	0.034427	-0.994136	-0.102515	0.530641	-0.068740	0.844805
08262	5.444759	-1.161603	8.625612	-0.003754	0.003425	0.007149	-0.846888	-0.083561	0.525166	0.034447	-0.994123	-0.102628	0.530655	-0.068824	0.844789
08263	5.433041	-1.130198	8.618997	-0.000484	0.006912	0.005362	-0.846918	-0.083585	0.525112	0.034468	-0.994120	-0.102648	0.530605	-0.068835	0.844820
08264	5.449315	-1.110834	8.596759	0.000336	0.008093	0.008819	-0.846960	-0.083631	0.525038	0.034467	-0.994110	-0.102747	0.530538	-0.068926	0.844854
08265	5.424359	-1.128575	8.643143	-0.002183	0.010797	0.007243	-0.847011	-0.083671	0.524950	0.034495	-0.994105	-0.102791	0.530455	-0.068957	0.844903
08266	5.375342	-1.161403	8.658233	0.000743	0.008373	0.006644	-0.847070	-0.083724	0.524846	0.034517	-0.994096	-0.102870	0.530360	-0.069022	0.844958
08267	5.419840	-1.153986	8.620249	0.001999	0.006711	0.003528	-0.847100	-0.083730	0.524796	0.034536	-0.994096	-0.102860	0.530310	-0.069008	0.844991
08268	5.332966	-1.196411	8.650376	0.004076	0.006230	0.003869	-0.847103	-0.083904	0.524763	0.034678	-0.994080	-0.102963	0.530295	-0.069022	0.844999
08269	5.353885	-1.205590	8.658053	0.007879	-0.001262	-0.002068	-0.847093	-0.083861	0.524786	0.034681	-0.994090	-0.102874	0.530311	-0.068944	0.844995
08270	5.440273	-1.162471	8.628326	0.005395	-0.001062	-0.000234	-0.847064	-0.083903	0.524827	0.034721	-0.994087	-0.102883	0.530356	-0.068926	0.844968
08271	5.420984	-1.073250	8.638341	0.006244	-0.003005	-0.001174	-0.847044	-0.083870	0.524864	0.034723	-0.994094	-0.102813	0.530387	-0.068862	0.844954
08272	5.426629	-1.154298	8.597479	0.005002	-0.002905	-0.000257	-0.847042	-0.084003	0.524845	0.034833	-0.994083	-0.102890	0.530383	-0.068871	0.844956
08273	5.446815	-1.109207	8.598553	0.007078	-0.003386	0.000084	-0.847020	-0.083983	0.524884	0.034850	-0.994089	-0.102820	0.530417	-0.068798	0.844941
08274	5.442779	-1.081362	8.645598	0.005381	0.000500	0.001965	-0.846976	-0.083911	0.524967	0.034798	-0.994098	-0.102754	0.530491	-0.068763	0.844897
08275	5.458040	-1.140456	8.605506	0.003731	0.000320	0.005057	-0.846972	-0.083938	0.524970	0.034839	-0.994098	-0.102738	0.530495	-0.068727	0.844897
08276	5.453780	-1.113278	8.652606	0.000005	0.000621	0.007808	-0.846993	-0.083787	0.524959	0.034650	-0.994103	-0.102759	0.530473	-0.068846	0.844901
08277	5.426363	-1.153410	8.597766	0.002800	0.008834	0.001374	-0.847035	-0.083771	0.524894	0.034655	-0.994105	-0.102731	0.530406	-0.068826	0.844945
08278	5.429889	-1.182812	8.628268	0.002868	0.003825	0.008196	-0.847054	-0.083762	0.524865	0.034632	-0.994104	-0.102756	0.530377	-0.068863	0.844960
08279	5.428028	-1.128438	8.622386	0.007346	0.009713	0.002081	-0.847101	-0.083752	0.524791	0.034667	-0.994109	-0.102694	0.530300	-0.068799	0.845014
08280	5.400350	-1.169962	8.644951	0.007394	0.005647	0.003293	-0.847099	-0.083943	0.524763	0.034856	-0.994096	-0.102753	0.530290	-0.068751	0.845024
08281	5.397009	-1.194193	8.621491	0.008651	0.003983	0.000178	-0.847116	-0.083918	0.524740	0.034881	-0.994104	-0.102669	0.530261	-0.068669	0.845049
08282	5.422469	-1.099325	8.670537	0.007015	0.002241	0.001072	-0.847115	-0.084006	0.524727	0.034953	-0.994096	-0.102721	0.530258	-0.068676	0.845050
08283	5.428164	-1.047293	8.641124	0.003304	0.000980	0.001624	-0.847116	-0.083998	0.524728	0.034963	-0.994099	-0.102691	0.530257	-0.068645	0.845054
08284	5.439281	-1.079587	8.648022	-0.003281	-0.001299	0.011795	-0.847087	-0.084135	0.524752	0.035036	-0.994082	-0.102826	0.530298	-0.068718	0.845022
08285	5.426567	-1.127423	8.623438	-0.001176	-0.004907	0.007740	-0.847054	-0.084192	0.524796	0.035074	-0.994077	-0.102866	0.530348	-0.068727	0.844990
08286	5.465912	-1.172180	8.614527	-0.003755	0.003427	0.007147	-0.846975	-0.084308	0.524905	0.035130	-0.994063	-0.102978	0.530471	-0.068780	0.844908
08287	5.434374	-1.185341	8.606661	-0.000043	0.004687	0.006596	-0.846993	-0.084348	0.524869	0.035164	-0.994059	-0.103002	0.530439	-0.068785	0.844928
08288	5.319554	-1.215777	8.652316	0.000820	0.001181	0.003457	-0.846993	-0.084282	0.524880	0.035073	-0.994060	-0.103023	0.530445	-0.068851	0.844919
08289	5.335008	-1.276547	8.689321	0.010818	-0.005254	-0.004862	-0.846963	-0.084214	0.524940	0.035067	-0.994074	-0.102896	0.530494	-0.068741	0.844897
08290	5.448982	-1.190409	8.637322	0.019118	-0.007804	-0.011302	-0.846876	-0.084124	0.525094	0.035055	-0.994092	-0.102724	0.530634	-0.068588	0.844822
08291	5.427493	-1.124951	8.623178	0.005058	-0.009159	-0.009048	-0.846826	-0.084017	0.525192	0.034983	-0.994105	-0.102624	0.530718	-0.068532	0.844773
08292	5.429766	-1.044648	8.640438	0.014922	-0.002154	-0.005391	-0.846817	-0.083905	0.525225	0.034933	-0.994120	-0.102490	0.530736	-0.068442	0.844769
08293	5.469502	-1.087474	8.631541	0.009575	-0.005155	-0.003945	-0.846786	-0.083846	0.525283	0.034928	-0.994132	-0.102378	0.530785	-0.068345	0.844746
08294	5.449806	-1.131593	8.630317	-0.001242	0.000101	0.000917	-0.846788	-0.084024	0.525253	0.035049	-0.994113	-0.102522	0.530775	-0.068405	0.844748
08295	5.479651	-1.064653	8.632057	0.004546	0.000879	0.000706	-0.846788	-0.084007	0.525255	0.035058	-0.994117	-0.102477	0.530774	-0.068362	0.844752
08296	5.421366	-1.119223	8.646236	0.000806	0.002746	0.005655	-0.846771	-0.084264	0.525242	0.035269	-0.994095	-0.102623	0.530787	-0.068373	0.844743
08297	5.438070	-1.099905	8.623720	-0.001678	0.002948	0.007488	-0.846779	-0.084314	0.525220	0.035302	-0.994089	-0.102666	0.530771	-0.068394	0.844751
08298	5.431888	-1.152018	8.653453	-0.000436	0.002847	0.006572	-0.846742	-0.084451	0.525259	0.035399	-0.994076	-0.102762	0.530825	-0.068420	0.844715
08299	5.445590	-1.157534	8.607200	-0.000877	0.005070	0.005335	-0.846762	-0.084478	0.525221	0.035418	-0.994073	-0.102788	0.530791	-0.068435	0.844735
08300	5.438152	-1.155111	8.630651	0.003289	0.002543	0.003822	-0.846745	-0.084359	0.525268	0.035282	-0.994079	-0.102775	0.530827	-0.068492	0.844708
08301	5.434716	-1.179990	8.607180	0.001986	0.008273	0.005722	-0.846783	-0.084387	0.525203	0.035320	-0.994077	-0.102779	0.530765	-0.068481	0.844748
08302	5.434056	-1.179756	8.607629	0.006968	0.006304	-0.000143	-0.846792	-0.084448	0.525178	0.035389	-0.994074	-0.102786	0.530746	-0.068453	0.844762
08303	5.421242	-1.093106	8.594697	0.006167	0.004182	0.002011	-0.846809	-0.084442	0.525152	0.035417	-0.994078	-0.102735	0.530717	-0.068398	0.844785
08304	5.427641	-1.097215	8.649084	0.007773	0.009048	0.005513	-0.846822	-0.084450	0.525129	0.035437	-0.994079	-0.102719	0.530694	-0.068376	0.844801
08305	5.425719	-1.043064	8.643171	-0.000058	0.006252	0.008792	-0.846847	-0.084510	0.525078	0.035489	-0.994073	-0.102757	0.530650	-0.068385	0.844828
08306	5.447415	-1.107404	8.657368	0.001609	0.005490	0.011310	-0.846800	-0.084682	0.525127	0.035642	-0.994060	-0.102828	0.530715	-0.068358	0.844789
08307	5.425585	-1.098286	8.650238	-0.000073	0.007814	0.010990	-0.846833	-0.084764	0.525061	0.035713	-0.994053	-0.102877	0.530658	-0.068368	0.844824
08308	5.454299	-1.165522	8.641190	-0.002511	0.003951	0.014038	-0.846784	-0.084830	0.525129	0.035750	-0.994046	-0.102932	0.530734	-0.068388	0.844775
08309	5.430627	-1.235441	8.616690	0.004442	0.011191	0.008286	-0.846836	-0.084882	0.525038	0.035822	-0.994044	-0.102928	0.530647	-0.068356	0.844832
08310	5.435581	-1.183666	8.587721	0.006941	0.009425	0.004255	-0.846822	-0.085087	0.525027	0.036013	-0.994028	-0.103008	0.530656	-0.068321	0.844829
08311	5.409525	-1.146215	8.627761	0.007380	0.007201	0.005493	-0.846853	-0.085114	0.524972	0.036077	-0.994031	-0.102965	0.530602	-0.068257	0.844868
08312	5.401738	-1.143373	8.651465	0.004471	0.008065	0.003890	-0.846909	-0.084953	0.524908	0.035930	-0.994042	-0.102909	0.530522	-0.068295	0.844915
08313	5.466101	-1.091113	8.614817	0.007334	0.011265	0.004278	-0.846962	-0.084965	0.524820	0.035983	-0.994045	-0.102860	0.530434	-0.068234	0.844976
08314	5.455004	-1.113123	8.614987	0.006077	0.012928	0.007392	-0.846953	-0.085122	0.524809	0.036134	-0.994034	-0.102914	0.530438	-0.068200	0.844976
08315	5.425479	-1.101044	8.631501	0.000668	0.015559	0.009819	-0.847027	-0.085186	0.524680	0.036198	-0.994028	-0.102951	0.530316	-0.068209	0.845052
08316	5.394002	-1.168067	8.630715	0.005622	0.016711	0.008354	-0.847092	-0.085039	0.524599	0.036074	-0.994039	-0.102886	0.530221	-0.068229	0.845110
08317	5.382447	-1.190380	8.631116	0.003546	0.017193	0.008010	-0.847175	-0.085084	0.524458	0.036138	-0.994036	-0.102889	0.530084	-0.068211	0.845197
08318	5.383971	-1.165364	8.655781	0.007728	0.013101	0.004303	-0.847248	-0.085013	0.524351	0.036085	-0.994041	-0.102858	0.529971	-0.068225	0.845267
08319	5.276777	-1.251800	8.684851	0.005756	0.003895	0.004191	-0.847262	-0.085029	0.524326	0.036129	-0.994043	-0.102822	0.529946	-0.068174	0.845287
08320	5.414139	-1.151626	8.664621	0.013667	-0.000505	-0.002262	-0.847283	-0.084770	0.524333	0.035924	-0.994067	-0.102662	0.529925	-0.068148	0.845302
08321	5.437282	-1.079055	8.612467	0.013667	-0.000505	-0.002262	-0.847276	-0.084724	0.524352	0.035954	-0.994080	-0.102526	0.529934	-0.068015	0.845307
08322	5.431324	-1.129744	8.642203	0.007453	0.000007	0.002316	-0.847268	-0.084819	0.524349	0.036043	-0.994073	-0.102562	0.529941	-0.067999	0.845304
08323	5.381897	-1.107189	8.650486	0.008257	0.002127	0.000162	-0.847275	-0.084796	0.524343	0.036065	-0.994081	-0.102484	0.529929	-0.067921	0.845317
08324	5.407236	-1.143916	8.611075	0.004179	-0.003469	0.004103	-0.847281	-0.084838	0.524326	0.036085	-0.994075	-0.102534	0.529918	-0.067954	0.845322
08325	5.389221	-1.108908	8.627244	0.007879	-0.001277	-0.002057	-0.847270	-0.084795	0.524351	0.036087	-0.994084	-0.102447	0.529935	-0.067878	0.845317
08326	5.379456	-1.130886	8.626581	-0.000366	-0.004342	0.003392	-0.847243	-0.084905	0.524376	0.036151	-0.994071	-0.102546	0.529973	-0.067925	0.845290
08327	5.438971	-1.130517	8.618880	0.003318	-0.000587	-0.000571	-0.847235	-0.084876	0.524393	0.036141	-0.994076	-0.102506	0.529987	-0.067895	0.845284
08328	5.413799	-1.093215	8.658261	0.001271	-0.002604	0.002499	-0.847239	-0.084774	0.524403	0.036020	-0.994080	-0.102505	0.529989	-0.067957	0.845277
08329	5.419212	-1.174988	8.617633	0.001255	-0.001041	0.004696	-0.847227	-0.084798	0.524419	0.036044	-0.994079	-0.102510	0.530006	-0.067947	0.845267
08330	5.439250	-1.130683	8.618682	0.000845	-0.001320	0.006872	-0.847239	-0.084793	0.524400	0.036003	-0.994074	-0.102568	0.529990	-0.068020	0.845272
08331	5.419379	-1.175294	8.617487	0.003346	-0.003088	0.002843	-0.847217	-0.084800	0.524435	0.036022	-0.994076	-0.102546	0.530024	-0.067987	0.845253
08332	5.422394	-1.150090	8.641230	0.007453	0.000006	0.002316	-0.847186	-0.084732	0.524496	0.035974	-0.994084	-0.102486	0.530077	-0.067957	0.845222
08333	5.384080	-1.159531	8.656496	0.007847	0.001847	0.002337	-0.847190	-0.084730	0.524490	0.036012	-0.994089	-0.102423	0.530068	-0.067884	0.845234
08334	5.424251	-1.069833	8.658667	0.008754	-0.005724	0.000420	-0.847146	-0.084714	0.524564	0.036002	-0.994092	-0.102398	0.530139	-0.067861	0.845191
08335	5.401600	-1.138869	8.633697	0.002498	-0.001144	0.003781	-0.847134	-0.084729	0.524581	0.036024	-0.994092	-0.102388	0.530157	-0.067839	0.845181
08336	5.353514	-1.171110	8.648208	0.001271	-0.002604	0.002499	-0.847073	-0.084826	0.524663	0.036072	-0.994081	-0.102482	0.530251	-0.067884	0.845119
08337	5.315764	-1.180920	8.663083	0.002982	-0.008056	-0.001572	-0.847026	-0.084793	0.524745	0.036051	-0.994086	-0.102440	0.530327	-0.067851	0.845073
08338	5.376137	-1.180036	8.654909	0.004707	-0.015071	-0.007840	-0.846909	-0.084600	0.524965	0.035861	-0.994102	-0.102349	0.530527	-0.067855	0.844948
08339	5.463920	-1.136999	8.624410	0.003042	-0.014310	-0.010360	-0.846832	-0.084483	0.525108	0.035766	-0.994114	-0.102261	0.530657	-0.067816	0.844869
08340	5.425730	-1.092054	8.632485	0.004239	-0.009724	-0.004685	-0.846766	-0.084374	0.525232	0.035645	-0.994122	-0.102232	0.530771	-0.067845	0.844796
08341	5.462071	-1.106452	8.592971	0.004707	-0.014447	-0.000031	-0.846684	-0.084360	0.525366	0.035646	-0.994127	-0.102183	0.530901	-0.067790	0.844718
08342	5.445765	-1.126002	8.615181	-0.002031	-0.003579	0.000874	-0.846675	-0.084277	0.525394	0.035515	-0.994126	-0.102232	0.530924	-0.067898	0.844695
08343	5.453195	-1.128531	8.591749	0.004604	-0.004756	-0.000270	-0.846645	-0.084254	0.525447	0.035513	-0.994131	-0.102183	0.530972	-0.067853	0.844668
08344	5.446425	-1.125715	8.614801	0.001272	-0.002604	0.002499	-0.846572	-0.084266	0.525561	0.035507	-0.994130	-0.102199	0.531088	-0.067857	0.844595
08345	5.426458	-1.170239	8.613719	0.002061	0.001079	0.002541	-0.846572	-0.084267	0.525562	0.035516	-0.994131	-0.102186	0.531088	-0.067842	0.844596
08346	5.418258	-1.113312	8.630493	0.004575	-0.001629	0.004124	-0.846538	-0.084356	0.525603	0.035588	-0.994124	-0.102232	0.531138	-0.067838	0.844565
08347	5.442142	-1.098024	8.661878	0.003274	0.004103	0.006019	-0.846552	-0.084389	0.525574	0.035633	-0.994123	-0.102227	0.531112	-0.067813	0.844584
08348	5.445924	-1.125685	8.615121	0.000804	0.002746	0.005654	-0.846587	-0.084416	0.525513	0.035619	-0.994115	-0.102309	0.531057	-0.067895	0.844612
08349	5.435734	-1.148196	8.614677	0.003741	-0.000621	0.010674	-0.846575	-0.084499	0.525519	0.035705	-0.994110	-0.102325	0.531070	-0.067862	0.844606
08350	5.463360	-1.160507	8.599343	0.005263	0.011745	0.003926	-0.846646	-0.084389	0.525423	0.035610	-0.994117	-0.102286	0.530964	-0.067890	0.844671
08351	5.441467	-1.150487	8.592353	0.008228	0.005250	0.004552	-0.846667	-0.084407	0.525386	0.035668	-0.994121	-0.102232	0.530926	-0.067817	0.844700
08352	5.426818	-1.144603	8.639181	0.009880	0.005423	0.001461	-0.846654	-0.084343	0.525417	0.035643	-0.994131	-0.102147	0.530949	-0.067756	0.844691
08353	5.415301	-1.111991	8.632519	0.008243	0.003685	0.002356	-0.846668	-0.084340	0.525396	0.035683	-0.994136	-0.102082	0.530924	-0.067681	0.844712
08354	5.435909	-1.121122	8.640443	0.008623	0.007090	0.004573	-0.846704	-0.084344	0.525337	0.035706	-0.994137	-0.102063	0.530865	-0.067659	0.844751
08355	5.413119	-1.056857	8.626830	0.006985	0.005353	0.005469	-0.846725	-0.084371	0.525298	0.035765	-0.994139	-0.102024	0.530827	-0.067599	0.844780
08356	5.406590	-1.108024	8.656925	0.006562	0.006011	0.002032	-0.846791	-0.084231	0.525214	0.035644	-0.994149	-0.101968	0.530730	-0.067625	0.844839
08357	5.354978	-1.165256	8.648092	-0.003757	0.003440	0.007140	-0.846802	-0.084276	0.525189	0.035661	-0.994142	-0.102029	0.530712	-0.067670	0.844847
08358	5.372913	-1.200164	8.632007	0.002893	0.000696	0.003802	-0.846800	-0.084252	0.525196	0.035617	-0.994141	-0.102053	0.530717	-0.067712	0.844840
08359	5.445159	-1.152061	8.648756	0.013664	-0.000520	-0.002262	-0.846793	-0.084206	0.525215	0.035647	-0.994154	-0.101917	0.530727	-0.067581	0.844844
08360	5.427139	-1.114767	8.587879	0.007030	0.000660	-0.001121	-0.846759	-0.084015	0.525301	0.035461	-0.994168	-0.101844	0.530794	-0.067609	0.844800
08361	5.493425	-1.116470	8.557221	0.008257	0.002119	0.000160	-0.846765	-0.083991	0.525295	0.035482	-0.994175	-0.101767	0.530783	-0.067534	0.844813
08362	5.501439	-1.041236	8.628961	0.006053	0.015423	0.003964	-0.846850	-0.083794	0.525189	0.035289	-0.994187	-0.101720	0.530660	-0.067608	0.844884
08363	5.386606	-1.125272	8.681718	-0.001372	0.012922	0.005064	-0.846912	-0.083811	0.525087	0.035300	-0.994184	-0.101750	0.530561	-0.067637	0.844944
08364	5.429684	-1.064116	8.637527	0.000702	0.012435	0.005410	-0.846972	-0.083774	0.524996	0.035248	-0.994183	-0.101777	0.530468	-0.067697	0.844997
08365	5.370617	-1.119088	8.652073	-0.002109	0.004242	0.011857	-0.846985	-0.083864	0.524961	0.035313	-0.994173	-0.101849	0.530443	-0.067727	0.845011
08366	5.441284	-1.203819	8.581410	0.001083	0.015838	0.007627	-0.847025	-0.083647	0.524930	0.035085	-0.994185	-0.101810	0.530394	-0.067818	0.845035
08367	5.409086	-1.216391	8.574012	0.006547	0.007570	0.004231	-0.847059	-0.083660	0.524874	0.035131	-0.994188	-0.101768	0.530337	-0.067764	0.845074
08368	5.389827	-1.182729	8.668021	0.014778	0.012185	0.000978	-0.847137	-0.083555	0.524764	0.035074	-0.994199	-0.101679	0.530215	-0.067730	0.845153
08369	5.394901	-1.129912	8.639061	0.015625	0.010239	0.000043	-0.847186	-0.083524	0.524690	0.035132	-0.994211	-0.101539	0.530133	-0.067589	0.845216
08370	5.432243	-1.118573	8.624680	0.016036	0.010514	-0.002133	-0.847267	-0.083445	0.524572	0.035113	-0.994222	-0.101440	0.530005	-0.067528	0.845301
08371	5.402155	-1.050797	8.634440	0.011912	0.008988	0.000592	-0.847309	-0.083420	0.524507	0.035156	-0.994231	-0.101334	0.529935	-0.067422	0.845354
08372	5.439542	-1.039870	8.619975	0.013970	0.010064	0.003134	-0.847323	-0.083420	0.524485	0.035189	-0.994235	-0.101286	0.529910	-0.067366	0.845374
08373	5.445496	-1.043809	8.674584	0.001969	0.009830	0.007910	-0.847368	-0.083467	0.524406	0.035241	-0.994231	-0.101303	0.529836	-0.067360	0.845421
08374	5.435694	-1.120441	8.681133	0.005311	0.006740	0.010759	-0.847415	-0.083429	0.524335	0.035197	-0.994232	-0.101313	0.529763	-0.067399	0.845463
08375	5.416957	-1.084376	8.620554	0.002800	0.009447	0.009171	-0.847457	-0.083489	0.524258	0.035264	-0.994228	-0.101329	0.529692	-0.067384	0.845509
08376	5.371875	-1.146141	8.665857	0.001598	0.005491	0.011307	-0.847475	-0.083707	0.524194	0.035432	-0.994207	-0.101479	0.529652	-0.067428	0.845531
08377	5.357402	-1.139882	8.635283	-0.005416	0.003273	0.010226	-0.847483	-0.083782	0.524168	0.035464	-0.994196	-0.101570	0.529636	-0.067490	0.845536
08378	5.351238	-1.192390	8.664956	-0.004924	-0.004573	0.010493	-0.847477	-0.083888	0.524162	0.035492	-0.994179	-0.101727	0.529645	-0.067608	0.845521
08379	5.351579	-1.192906	8.664675	0.003365	-0.005588	0.006267	-0.847440	-0.083929	0.524215	0.035537	-0.994178	-0.101724	0.529701	-0.067575	0.845488
08380	5.362109	-1.170489	8.664903	0.004204	-0.006599	-0.000281	-0.847388	-0.083993	0.524289	0.035570	-0.994171	-0.101779	0.529782	-0.067597	0.845436
08381	5.360708	-1.249204	8.647504	0.006263	-0.005524	0.002262	-0.847353	-0.083994	0.524346	0.035597	-0.994175	-0.101730	0.529836	-0.067536	0.845407
08382	5.422602	-1.169040	8.656821	0.011266	-0.009074	-0.005788	-0.847297	-0.083727	0.524478	0.035377	-0.994200	-0.101561	0.529940	-0.067498	0.845345
08383	5.414394	-1.056792	8.666435	0.010458	-0.011191	-0.003632	-0.847234	-0.083673	0.524589	0.035376	-0.994212	-0.101446	0.530041	-0.067390	0.845290
08384	5.410462	-1.159888	8.625174	0.008368	-0.009140	-0.001782	-0.847178	-0.083578	0.524695	0.035298	-0.994222	-0.101375	0.530136	-0.067361	0.845233
08385	5.470655	-1.158968	8.617179	0.005898	-0.010493	-0.002149	-0.847118	-0.083538	0.524798	0.035286	-0.994229	-0.101306	0.530233	-0.067300	0.845177
08386	5.412221	-1.158288	8.624285	0.010853	-0.009353	-0.003612	-0.847027	-0.083528	0.524946	0.035291	-0.994234	-0.101254	0.530377	-0.067239	0.845091
08387	5.434182	-1.166755	8.631482	0.012927	-0.009842	-0.003265	-0.846971	-0.083477	0.525045	0.035307	-0.994248	-0.101120	0.530466	-0.067108	0.845046
08388	5.433903	-1.111015	8.624611	0.016614	-0.006100	-0.007232	-0.846897	-0.083263	0.525198	0.035152	-0.994271	-0.100945	0.530594	-0.067028	0.844972
08389	5.319955	-1.139097	8.669789	0.011264	-0.009081	-0.005787	-0.846845	-0.083186	0.525293	0.035137	-0.994285	-0.100812	0.530677	-0.066915	0.844929
08390	5.360446	-1.182275	8.660650	0.007211	-0.017794	-0.006227	-0.846771	-0.083038	0.525436	0.034993	-0.994297	-0.100741	0.530805	-0.066918	0.844848
08391	5.488497	-1.050095	8.631949	0.009655	-0.013947	-0.009281	-0.846695	-0.082929	0.525576	0.034940	-0.994313	-0.100603	0.530930	-0.066817	0.844777
08392	5.458652	-1.061651	8.623217	0.006350	-0.014285	-0.003098	-0.846636	-0.082921	0.525673	0.034913	-0.994313	-0.100617	0.531026	-0.066833	0.844716
08393	5.499079	-1.105447	8.614003	0.003850	-0.012506	0.000928	-0.846564	-0.082914	0.525790	0.034915	-0.994316	-0.100582	0.531141	-0.066791	0.844647
08394	5.495871	-1.077464	8.660332	0.006306	-0.009588	0.003487	-0.846466	-0.082718	0.525979	0.034721	-0.994331	-0.100498	0.531310	-0.066806	0.844539
08395	5.451619	-1.083161	8.620947	-0.000696	-0.012736	0.008027	-0.846390	-0.082781	0.526091	0.034759	-0.994326	-0.100538	0.531428	-0.066808	0.844465
08396	5.417282	-1.066897	8.582066	0.002565	-0.007703	0.008428	-0.846359	-0.082812	0.526136	0.034754	-0.994320	-0.100596	0.531478	-0.066855	0.844429
08397	5.420854	-1.042502	8.605280	-0.002799	-0.009117	0.012071	-0.846301	-0.082912	0.526214	0.034815	-0.994310	-0.100675	0.531567	-0.066882	0.844372
08398	5.381468	-1.132597	8.602821	-0.009404	-0.011060	0.008821	-0.846302	-0.082793	0.526230	0.034618	-0.994308	-0.100764	0.531577	-0.067060	0.844351
08399	5.325118	-1.242109	8.623025	-0.002772	-0.012251	0.007682	-0.846229	-0.082852	0.526338	0.034642	-0.994301	-0.100820	0.531691	-0.067084	0.844277
08400	5.312293	-1.236951	8.668606	-0.000235	-0.018729	-0.002929	-0.846092	-0.082795	0.526567	0.034531	-0.994302	-0.100855	0.531917	-0.067150	0.844130
08401	5.308229	-1.288208	8.697275	-0.002666	-0.024781	-0.009876	-0.845959	-0.082688	0.526798	0.034406	-0.994310	-0.100818	0.532137	-0.067163	0.843990
08402	5.298083	-1.334443	8.671541	0.007374	-0.036899	-0.019143	-0.845749	-0.082435	0.527175	0.034161	-0.994332	-0.100680	0.532487	-0.067141	0.843771
08403	5.383177	-1.208615	8.679749	0.009497	-0.043662	-0.027574	-0.845520	-0.082164	0.527584	0.033952	-0.994363	-0.100447	0.532863	-0.067017	0.843544
08404	5.400476	-1.157419	8.624335	0.011186	-0.047570	-0.029439	-0.845285	-0.081841	0.528011	0.033663	-0.994394	-0.100238	0.533254	-0.066955	0.843301
08405	5.443365	-1.144701	8.606480	0.014960	-0.053537	-0.033153	-0.845005	-0.081521	0.528508	0.033436	-0.994433	-0.099929	0.533712	-0.066769	0.843026
08406	5.427275	-1.133645	8.673422	0.010807	-0.052576	-0.033836	-0.844740	-0.081201	0.528981	0.033145	-0.994463	-0.099725	0.534150	-0.066709	0.842754
08407	5.370337	-1.155721	8.654664	0.019170	-0.061748	-0.035620	-0.844417	-0.080862	0.529549	0.032919	-0.994506	-0.099367	0.534675	-0.066475	0.842439
08408	5.365779	-1.121725	8.721280	0.017652	-0.076353	-0.038838	-0.843989	-0.080566	0.530276	0.032676	-0.994541	-0.099096	0.535365	-0.066309	0.842014
08409	5.355142	-1.216886	8.722611	0.013323	-0.099813	-0.043388	-0.843463	-0.080175	0.531171	0.032354	-0.994587	-0.098747	0.536213	-0.066103	0.841490
08410	5.409318	-1.153287	8.748796	0.016393	-0.117654	-0.044667	-0.842850	-0.079609	0.532228	0.031847	-0.994643	-0.098341	0.537206	-0.065937	0.840870
08411	5.389101	-1.160702	8.657279	0.014858	-0.130745	-0.045670	-0.842156	-0.079214	0.533384	0.031515	-0.994691	-0.097965	0.538313	-0.065692	0.840181
08412	5.428035	-1.062328	8.697679	0.017180	-0.154824	-0.043543	-0.841313	-0.078930	0.534754	0.031244	-0.994729	-0.097667	0.539644	-0.065461	0.839345
08413	4.750048	-0.810074	9.147514	0.001168	-0.173369	-0.052227	-0.840387	-0.078498	0.536271	0.030785	-0.994772	-0.097370	0.541111	-0.065320	0.838410
08414	5.203920	-1.106200	8.962926	-0.039370	-0.321974	-0.038923	-0.838638	-0.078371	0.539022	0.030239	-0.994768	-0.097587	0.543849	-0.065541	0.836620
08415	4.909919	-0.992484	9.145054	-0.049301	-0.346154	-0.058660	-0.836762	-0.077989	0.541984	0.029452	-0.994783	-0.097674	0.546773	-0.065768	0.834694
08416	4.943473	-0.967437	9.171829	-0.071931	-0.448347	-0.060335	-0.834342	-0.077506	0.545771	0.028344	-0.994789	-0.097941	0.550518	-0.066247	0.832191
08417	4.867059	-0.972890	9.264845	-0.111618	-0.553156	-0.063207	-0.831296	-0.077219	0.550440	0.027173	-0.994765	-0.098514	0.555165	-0.066937	0.829042
08418	4.780327	-1.237966	9.325022	-0.130833	-0.672139	-0.081403	-0.827553	-0.076706	0.556123	0.025580	-0.994745	-0.099141	0.560805	-0.067819	0.825166
08419	4.910212	-1.299280	9.284685	-0.136848	-0.789089	-0.110883	-0.823123	-0.076115	0.562739	0.023865	-0.994737	-0.099638	0.567361	-0.068585	0.820608
08420	5.042715	-1.434283	9.521183	-0.098405	-0.926999	-0.147843	-0.817805	-0.075173	0.570564	0.021931	-0.994783	-0.099631	0.575077	-0.068966	0.815187
08421	4.934462	-1.528574	9.555827	-0.032161	-1.070219	-0.185215	-0.811637	-0.074040	0.579451	0.020208	-0.994900	-0.098819	0.583813	-0.068495	0.808994
08422	5.455649	-1.192832	9.231309	0.005774	-1.224312	-0.228005	-0.804394	-0.072518	0.589653	0.018257	-0.995071	-0.097471	0.593815	-0.067640	0.801753
08423	5.552142	-0.878979	9.123506	-0.066103	-1.332816	-0.276306	-0.796449	-0.070641	0.600566	0.015623	-0.995225	-0.096345	0.604504	-0.067352	0.793749
08424	5.681495	-1.614794	8.971294	-0.102557	-1.441397	-0.333988	-0.787654	-0.068173	0.612334	0.012190	-0.995389	-0.095141	0.615997	-0.067474	0.784854
08425	6.082097	-1.498605	8.997479	-0.097795	-1.556577	-0.407293	-0.778005	-0.065142	0.624871	0.008366	-0.995596	-0.093374	0.628202	-0.067418	0.775124
08426	6.189798	-1.221811	8.964110	-0.094716	-1.650427	-0.489766	-0.767520	-0.061258	0.638091	0.003793	-0.995840	-0.091039	0.641014	-0.067454	0.764559
08427	6.547704	-2.302262	8.422389	-0.225819	-1.725808	-0.591235	-0.756340	-0.056518	0.651733	-0.002201	-0.996036	-0.088929	0.654175	-0.068695	0.753217
08428	7.900740	-4.590358	8.686887	-0.200370	-1.664594	-0.708125	-0.745238	-0.050501	0.664883	-0.009029	-0.996272	-0.085791	0.666737	-0.069938	0.742004
08429	7.965124	-7.242363	8.284296	0.449984	-1.538139	-0.883394	-0.734790	-0.042706	0.676948	-0.012567	-0.996988	-0.076536	0.678178	-0.064745	0.732040
08430	8.146782	-6.397666	8.101284	1.114462	-1.417053	-1.026757	-0.724840	-0.032847	0.688134	-0.013001	-0.998033	-0.061334	0.688795	-0.053404	0.722986
08431	7.317149	-4.193645	7.879350	1.712064	-1.279076	-1.136657	-0.715833	-0.022040	0.697924	-0.009342	-0.999110	-0.041134	0.698210	-0.035965	0.714990
08432	7.515724	-2.384413	7.218329	1.910034	-1.167104	-1.140301	-0.707440	-0.010695	0.706693	-0.004433	-0.999799	-0.019569	0.706760	-0.016977	0.707250
08433	5.626547	-0.571790	7.805118	1.882215	-0.944084	-1.163712	-0.700704	0.000898	0.713451	0.000713	-0.999998	0.001959	0.713451	0.001881	0.700702
08434	4.425102	0.918967	8.379927	1.734926	-0.732777	-1.167665	-0.695314	0.012907	0.718590	0.004605	-0.999738	0.022413	0.718691	0.018893	0.695073
08435	5.025955	2.294077	10.025880	1.208534	-0.465973	-1.101728	-0.692005	0.024064	0.721492	0.005640	-0.999234	0.038737	0.721871	0.030876	0.691339
08436	8.668371	3.477918	11.360713	0.461556	-0.072148	-0.790359	-0.691391	0.032274	0.721760	0.003101	-0.998860	0.047635	0.722474	0.035172	0.690503
08437	3.788990	0.621301	9.859879	-0.178575	0.274692	-0.605536	-0.693365	0.038257	0.719570	-0.002408	-0.998707	0.050777	0.720582	0.033475	0.692561
08438	2.452094	-0.388153	8.716638	-0.613104	0.427680	-0.499474	-0.696223	0.043679	0.716496	-0.010971	-0.998678	0.050221	0.717742	0.027104	0.695781
08439	2.865454	-2.337503	8.551268	-0.688146	0.511833	-0.445183	-0.699810	0.048033	0.712713	-0.019033	-0.998636	0.048614	0.714076	0.020456	0.699770
08440	3.207653	-2.880956	8.519859	-0.662247	0.632290	-0.390484	-0.704141	0.052295	0.708132	-0.027089	-0.998537	0.046804	0.709543	0.013774	0.704527
08441	3.537128	-2.509785	8.591680	-0.602141	0.785198	-0.308468	-0.709585	0.055319	0.702445	-0.033554	-0.998435	0.044734	0.703820	0.008173	0.710331
08442	3.765743	-1.789886	8.641505	-0.635291	0.946739	-0.190195	-0.715981	0.057784	0.695725	-0.040139	-0.998327	0.041610	0.696965	0.001866	0.717102
08443	3.669613	-0.921949	8.477889	-0.771927	1.096548	-0.040909	-0.723549	0.058242	0.687811	-0.045811	-0.998289	0.036340	0.688751	-0.005216	0.724979
08444	3.844683	-0.702139	8.405042	-0.947801	1.220517	0.112098	-0.731785	0.057931	0.679069	-0.052341	-0.998215	0.028753	0.679523	-0.014502	0.733511
08445	4.310406	-1.063248	8.113011	-1.049519	1.327971	0.244382	-0.740863	0.055780	0.669336	-0.057651	-0.998149	0.019371	0.669178	-0.024236	0.742707
08446	4.509329	-1.204200	7.789264	-1.047627	1.406509	0.365000	-0.750345	0.053318	0.658892	-0.062838	-0.997981	0.009197	0.658052	-0.034503	0.752181
08447	4.850467	-1.064455	7.689616	-0.979800	1.441659	0.507185	-0.760063	0.048851	0.648010	-0.065432	-0.997856	-0.001521	0.646546	-0.043557	0.761630
08448	5.422506	-0.994357	7.655838	-0.893545	1.479358	0.658421	-0.769944	0.043765	0.636608	-0.067068	-0.997670	-0.012528	0.634577	-0.052342	0.771085
08449	5.912075	-1.164412	7.578124	-0.760742	1.523842	0.806351	-0.780044	0.036605	0.624652	-0.065634	-0.997567	-0.023503	0.622272	-0.059332	0.780549
08450	6.672686	-1.320728	7.600765	-0.569766	1.568577	0.937791	-0.790313	0.028695	0.612030	-0.062395	-0.997479	-0.033803	0.609517	-0.064903	0.790111
08451	7.694690	-0.986908	7.342461	-0.348954	1.612263	1.052615	-0.800649	0.019301	0.598823	-0.056161	-0.997498	-0.042940	0.596496	-0.068010	0.799730
08452	8.155034	-0.293918	6.576528	-0.195168	1.643078	1.137632	-0.811006	0.009656	0.584958	-0.048843	-0.997491	-0.051252	0.582995	-0.070137	0.809443
08453	8.447114	0.105374	5.651999	-0.096106	1.615293	1.192101	-0.820835	-0.001060	0.571165	-0.039708	-0.997473	-0.058917	0.569784	-0.071040	0.818718
08454	8.765774	0.166840	4.837009	-0.046915	1.517206	1.226705	-0.829905	-0.011838	0.557779	-0.030321	-0.997340	-0.066281	0.557080	-0.071919	0.827339
08455	8.969841	0.247266	4.513466	0.021290	1.384365	1.218505	-0.837836	-0.022959	0.545438	-0.020081	-0.997143	-0.072817	0.545552	-0.071962	0.834982
08456	9.553674	0.859115	4.569773	0.044858	1.236708	1.196156	-0.844780	-0.033615	0.534056	-0.010244	-0.996826	-0.078946	0.535015	-0.072163	0.841755
08457	10.227112	1.566576	4.484564	-0.003496	1.127535	1.136796	-0.850814	-0.044092	0.523614	-0.000663	-0.996382	-0.084980	0.525467	-0.072650	0.847707
08458	9.661662	2.009201	4.105110	-0.145886	1.033192	1.027383	-0.856245	-0.053334	0.513810	0.007047	-0.995769	-0.091618	0.516523	-0.074827	0.852998
08459	8.718860	2.071524	4.135981	-0.306352	0.865937	0.854630	-0.860594	-0.061141	0.505608	0.012772	-0.995046	-0.098588	0.509131	-0.078386	0.857112
08460	8.992092	2.355274	4.554257	-0.417826	0.688053	0.674377	-0.864053	-0.067144	0.498902	0.016273	-0.994272	-0.105630	0.503137	-0.083151	0.860197
08461	9.331439	1.450902	4.625651	-0.512573	0.566441	0.517227	-0.866795	-0.071762	0.493474	0.018142	-0.993474	-0.112606	0.498335	-0.088654	0.862440
08462	-3.165418	-12.436129	6.102570	-1.021995	-0.826455	0.896125	-0.862488	-0.081237	0.499515	0.020504	-0.991831	-0.125898	0.505662	-0.098344	0.857108
08463	16.309625	0.564654	7.748375	3.975264	-1.099222	-1.123106	-0.857166	-0.070896	0.510137	0.031078	-0.995795	-0.086171	0.514101	-0.058009	0.855766
08464	28.748812	29.340080	24.024081	2.511504	-0.437316	-2.005946	-0.855499	-0.050899	0.515296	0.026574	-0.998161	-0.054477	0.517122	-0.032912	0.855279
08465	-1.883622	7.641701	4.603980	-1.388088	1.389349	0.924020	-0.862349	-0.059522	0.502803	0.027372	-0.997094	-0.071091	0.505574	-0.047543	0.861472
08466	1.023271	-5.170693	12.581353	-2.683070	-1.161302	0.441081	-0.856312	-0.064548	0.512410	0.017371	-0.995197	-0.096335	0.516167	-0.073591	0.853321
08467	10.321984	-14.805331	4.608876	0.201819	0.442124	0.374743	-0.858507	-0.067919	0.508285	0.021581	-0.995097	-0.096517	0.512348	-0.071891	0.855763
08468	0.697392	6.438883	12.842908	1.904198	-0.294256	-0.658571	-0.857148	-0.061444	0.511392	0.025565	-0.996711	-0.076906	0.514435	-0.052846	0.855899
08469	7.903613	4.038328	7.722915	-0.609553	-0.131775	0.340703	-0.856377	-0.064875	0.512259	0.025303	-0.996156	-0.083858	0.515731	-0.058852	0.854727
08470	4.340625	-6.019953	8.150190	-1.292405	-0.134990	0.338412	-0.855595	-0.068264	0.513125	0.021433	-0.995088	-0.096644	0.517202	-0.071690	0.852856
08471	6.434951	-1.565725	8.301117	0.581830	-0.099411	-0.032561	-0.855082	-0.067971	0.514018	0.024125	-0.995512	-0.091509	0.517931	-0.065847	0.852884
08472	5.821377	-1.572192	8.411230	-0.273991	-0.036398	0.031548	-0.854882	-0.068225	0.514317	0.022858	-0.995306	-0.094035	0.518319	-0.068633	0.852429
08473	5.530442	-1.396939	8.499131	0.103444	0.019164	-0.037747	-0.854984	-0.067799	0.514203	0.023030	-0.995404	-0.092954	0.518142	-0.067632	0.852616
08474	5.126235	0.329005	9.009012	-0.028656	0.015142	-0.009757	-0.855060	-0.067605	0.514103	0.022677	-0.995391	-0.093178	0.518032	-0.068014	0.852653
08475	5.199873	0.072824	9.115204	-0.109652	-0.022658	0.043490	-0.854927	-0.068016	0.514269	0.022440	-0.995288	-0.094331	0.518262	-0.069106	0.852425
08476	5.783028	-1.294483	8.873092	-0.152444	-0.028852	0.076690	-0.854756	-0.068720	0.514461	0.022195	-0.995129	-0.096049	0.518556	-0.070680	0.852117
08477	5.451711	-1.957279	8.585074	-0.093054	0.028038	0.062972	-0.854881	-0.069289	0.514176	0.022209	-0.995021	-0.097161	0.518348	-0.071641	0.852163
08478	5.259243	-1.670391	8.694377	-0.067183	0.019837	0.045192	-0.854970	-0.069641	0.513982	0.022131	-0.994941	-0.097994	0.518206	-0.072407	0.852186
08479	5.160280	-1.631076	8.631342	-0.031663	0.002453	0.024788	-0.854971	-0.069848	0.513951	0.022137	-0.994902	-0.098385	0.518203	-0.072739	0.852159
08480	5.225134	-1.262429	8.684922	-0.008677	-0.002358	0.001942	-0.854954	-0.069782	0.513988	0.021987	-0.994894	-0.098500	0.518237	-0.072912	0.852124
08481	5.195558	-1.329813	8.682829	-0.009362	-0.008219	-0.008106	-0.854908	-0.069670	0.514080	0.021828	-0.994894	-0.098533	0.518320	-0.073015	0.852064
08482	5.200900	-1.489653	8.625586	0.017732	-0.012441	-0.028032	-0.854846	-0.069312	0.514232	0.021557	-0.994926	-0.098268	0.518435	-0.072919	0.852003
08483	5.389191	-1.220059	8.602656	0.055001	-0.003875	-0.045420	-0.854829	-0.068825	0.514325	0.021412	-0.994999	-0.097560	0.518467	-0.072385	0.852028
08484	5.487356	-1.125668	8.676207	0.041499	0.012810	-0.036924	-0.854900	-0.068359	0.514270	0.021186	-0.995054	-0.097049	0.518360	-0.072072	0.852120
08485	5.470984	-1.191396	8.630142	0.064913	0.027246	-0.037778	-0.855043	-0.067926	0.514089	0.021157	-0.995128	-0.096296	0.518125	-0.071461	0.852314
08486	5.333049	-0.992923	8.771894	0.054052	0.032515	-0.033034	-0.855214	-0.067484	0.513863	0.021027	-0.995188	-0.095699	0.517848	-0.071038	0.852518
08487	5.298239	-1.078525	8.748910	0.051590	0.028685	-0.029994	-0.855363	-0.067127	0.513661	0.020996	-0.995246	-0.095099	0.517603	-0.070560	0.852706
08488	5.253777	-0.788017	8.831192	0.045457	0.019594	-0.025208	-0.855466	-0.066773	0.513537	0.020890	-0.995295	-0.094614	0.517438	-0.070211	0.852835
08489	5.136797	-1.080844	8.856537	0.011238	0.003938	-0.014973	-0.855483	-0.066583	0.513532	0.020778	-0.995314	-0.094436	0.517414	-0.070118	0.852858
08490	5.361629	-1.070578	8.799111	0.021399	-0.013080	-0.017279	-0.855415	-0.066330	0.513678	0.020614	-0.995340	-0.094197	0.517532	-0.069988	0.852797
08491	5.487462	-0.695668	8.767677	0.011287	-0.005032	-0.006899	-0.855385	-0.066227	0.513742	0.020571	-0.995354	-0.094060	0.517584	-0.069889	0.852773
08492	5.426681	-0.775987	8.757599	-0.024956	0.003122	0.012451	-0.855394	-0.066259	0.513722	0.020424	-0.995328	-0.094369	0.517574	-0.070230	0.852751
08493	5.300965	-0.908819	8.707094	-0.018816	0.004792	0.017933	-0.855410	-0.066396	0.513678	0.020437	-0.995304	-0.094616	0.517548	-0.070437	0.852750
08494	5.274753	-0.874636	8.745527	-0.034444	-0.003798	0.019966	-0.855382	-0.066509	0.513711	0.020305	-0.995266	-0.095044	0.517600	-0.070868	0.852683
08495	5.166565	-1.177944	8.746097	-0.033542	-0.012245	0.023695	-0.855308	-0.066715	0.513807	0.020292	-0.995228	-0.095447	0.517723	-0.071210	0.852580
08496	4.999760	-1.480647	8.752668	-0.022111	-0.023531	0.008022	-0.855179	-0.066726	0.514020	0.020127	-0.995206	-0.095704	0.517942	-0.071499	0.852422
08497	5.270031	-1.490413	8.632485	0.026200	-0.035510	-0.014788	-0.854992	-0.066566	0.514352	0.020093	-0.995236	-0.095400	0.518252	-0.071231	0.852257
08498	5.449988	-1.110598	8.616897	0.040213	-0.025271	-0.024973	-0.854862	-0.066245	0.514609	0.019961	-0.995281	-0.094961	0.518471	-0.070906	0.852150
08499	5.408460	-1.165600	8.583820	0.044621	-0.012321	-0.027910	-0.854798	-0.065937	0.514755	0.019911	-0.995332	-0.094432	0.518578	-0.070471	0.852121
08500	5.360493	-0.926985	8.694224	0.041617	-0.006773	-0.022965	-0.854763	-0.065624	0.514853	0.019805	-0.995376	-0.093990	0.518641	-0.070143	0.852110
08501	5.318573	-1.036892	8.668991	0.033612	0.001692	-0.017830	-0.854769	-0.065407	0.514870	0.019784	-0.995413	-0.093607	0.518631	-0.069826	0.852142
08502	5.357609	-0.812033	8.757724	0.024557	-0.004961	-0.012480	-0.854742	-0.065195	0.514943	0.019677	-0.995437	-0.093366	0.518680	-0.069671	0.852125
08503	5.330969	-0.718915	8.789175	0.000469	-0.003771	-0.000940	-0.854717	-0.065150	0.514990	0.019629	-0.995440	-0.093353	0.518724	-0.069681	0.852098
08504	5.296328	-0.970186	8.730883	-0.012366	-0.008517	0.009312	-0.854667	-0.065158	0.515072	0.019517	-0.995424	-0.093539	0.518810	-0.069892	0.852028
08505	5.309062	-1.191571	8.735166	-0.021816	-0.014531	0.011221	-0.854583	-0.065241	0.515200	0.019456	-0.995403	-0.093778	0.518950	-0.070117	0.851924
08506	5.335362	-1.043192	8.698092	-0.005654	-0.012848	0.003852	-0.854511	-0.065199	0.515325	0.019335	-0.995396	-0.093876	0.519073	-0.070254	0.851838
08507	5.284435	-1.047219	8.680952	-0.008975	-0.012252	0.004392	-0.854441	-0.065213	0.515439	0.019283	-0.995388	-0.093970	0.519190	-0.070353	0.851758
08508	5.261251	-0.931365	8.735223	-0.009686	-0.019047	-0.000027	-0.854338	-0.065134	0.515620	0.019102	-0.995381	-0.094087	0.519366	-0.070533	0.851636
08509	4.693389	-1.186600	8.735973	-0.032272	-0.031412	-0.001297	-0.854170	-0.065105	0.515903	0.018880	-0.995360	-0.094351	0.519652	-0.070851	0.851435
08510	4.667107	-1.446249	8.882992	-0.047178	-0.089543	-0.013497	-0.853702	-0.064943	0.516696	0.018392	-0.995334	-0.094716	0.520436	-0.071356	0.850914
08511	5.037996	-1.552471	8.696188	-0.034601	-0.121874	-0.042970	-0.853069	-0.064564	0.517788	0.017801	-0.995339	-0.094783	0.521494	-0.071639	0.850242
08512	5.074496	-1.248081	8.917901	-0.038090	-0.136626	-0.054343	-0.852362	-0.064029	0.519018	0.017010	-0.995346	-0.094857	0.522676	-0.072024	0.849484
08513	5.494846	-1.209824	8.622948	-0.028600	-0.133810	-0.060631	-0.851666	-0.063484	0.520226	0.016300	-0.995365	-0.094780	0.523832	-0.072241	0.848753
08514	5.663322	-0.799138	8.693075	-0.024607	-0.126103	-0.054548	-0.851010	-0.062938	0.521364	0.015574	-0.995380	-0.094739	0.524918	-0.072504	0.848059
08515	5.643241	-0.811430	8.677761	-0.026866	-0.116264	-0.041738	-0.850400	-0.062568	0.522404	0.015034	-0.995388	-0.094744	0.525923	-0.072716	0.847418
08516	5.735889	-0.796626	8.695608	-0.046618	-0.097462	-0.026465	-0.849887	-0.062283	0.523272	0.014433	-0.995369	-0.095034	0.526768	-0.073216	0.846850
08517	5.603149	-0.870656	8.679695	-0.052932	-0.093157	-0.009717	-0.849391	-0.062216	0.524084	0.014028	-0.995338	-0.095426	0.527578	-0.073702	0.846303
08518	5.549801	-0.823492	8.751751	-0.069585	-0.088017	0.003077	-0.848922	-0.062220	0.524843	0.013555	-0.995283	-0.096066	0.528345	-0.074438	0.845761
08519	5.479141	-0.874225	8.675239	-0.076122	-0.096810	0.017887	-0.848401	-0.062431	0.525659	0.013260	-0.995216	-0.096798	0.529187	-0.075153	0.845170
08520	5.538809	-0.957262	8.590657	-0.095091	-0.103394	0.022794	-0.847846	-0.062647	0.526528	0.012824	-0.995128	-0.097751	0.530087	-0.076126	0.844519
08521	5.465374	-1.170447	8.556478	-0.101745	-0.102294	0.023942	-0.847294	-0.062924	0.527383	0.012443	-0.995036	-0.098731	0.530978	-0.077092	0.843872
08522	5.385972	-1.299589	8.485492	-0.086156	-0.092747	0.016203	-0.846795	-0.063067	0.528167	0.011996	-0.994958	-0.099573	0.531784	-0.077983	0.843282
08523	5.362263	-1.188155	8.559369	-0.074272	-0.084430	0.009002	-0.846338	-0.063184	0.528885	0.011633	-0.994895	-0.100242	0.532518	-0.078686	0.842753
08524	5.055215	-1.620355	8.736912	-0.079214	-0.088484	-0.007326	-0.845863	-0.063091	0.529655	0.011018	-0.994835	-0.100905	0.533286	-0.079516	0.842190
08525	4.834294	-2.032588	8.860006	-0.050275	-0.125047	-0.055448	-0.845195	-0.062600	0.530779	0.010237	-0.994831	-0.101029	0.534359	-0.079956	0.841467
08526	5.356337	-1.532920	8.770504	0.005793	-0.179453	-0.087664	-0.844239	-0.061777	0.532394	0.009393	-0.994888	-0.100548	0.535884	-0.079886	0.840504
08527	5.065712	-1.450162	9.018018	0.007235	-0.197547	-0.085856	-0.843181	-0.061041	0.534154	0.008663	-0.994947	-0.100024	0.537561	-0.079711	0.839449
08528	4.563148	-1.830808	9.299536	0.018269	-0.354315	-0.098250	-0.841274	-0.060250	0.537242	0.007798	-0.995019	-0.099377	0.540553	-0.079414	0.837553
08529	4.181319	-0.813952	9.610507	0.097825	-0.420358	-0.139906	-0.838998	-0.059150	0.540910	0.007109	-0.995181	-0.097799	0.544088	-0.078208	0.835375
08530	4.336201	-0.403293	9.825935	-0.125950	-0.708312	-0.153555	-0.835127	-0.058083	0.546981	0.004998	-0.995169	-0.098045	0.550034	-0.079146	0.831384
08531	4.975911	-0.598919	9.590635	-0.089657	-0.761134	-0.149558	-0.830916	-0.057160	0.553454	0.003212	-0.995185	-0.097960	0.556388	-0.079619	0.827099
08532	4.823061	-0.472204	9.517308	-0.133641	-1.025038	-0.104064	-0.825169	-0.056854	0.562018	0.001467	-0.995135	-0.098515	0.564884	-0.080467	0.821237
08533	4.731529	-0.770571	9.517333	-0.202220	-1.198800	-0.094704	-0.818331	-0.056846	0.571929	-0.000508	-0.995025	-0.099625	0.574747	-0.081816	0.814231
08534	4.668655	-1.448434	9.676856	-0.189933	-1.423761	-0.118926	-0.810060	-0.056751	0.583595	-0.002705	-0.994933	-0.100505	0.586341	-0.082994	0.805802
08535	4.746832	-1.952828	9.785675	-0.061476	-1.678053	-0.195767	-0.800092	-0.056154	0.597243	-0.004690	-0.994993	-0.099834	0.599859	-0.082677	0.795823
08536	5.398299	-1.638647	8.867829	0.244945	-1.915638	-0.269506	-0.788437	-0.054935	0.612657	-0.005475	-0.995338	-0.096295	0.615091	-0.079277	0.784461
08537	5.437400	-1.430857	8.867072	0.253387	-2.105144	-0.339547	-0.775286	-0.053146	0.629370	-0.006594	-0.995718	-0.092205	0.631576	-0.075635	0.771616
08538	5.422579	-1.846806	8.735743	0.396763	-2.348670	-0.430504	-0.760205	-0.050480	0.647719	-0.007504	-0.996228	-0.086447	0.649640	-0.070578	0.756959
08539	4.953874	-1.530094	9.001623	0.474316	-2.615873	-0.532152	-0.742901	-0.046905	0.667756	-0.008418	-0.996809	-0.079384	0.669348	-0.064596	0.740136
08540	5.237362	-1.773088	8.562480	0.588976	-2.894727	-0.688158	-0.723151	-0.041718	0.689429	-0.009610	-0.997470	-0.070438	0.690623	-0.057563	0.720920
08541	5.155526	-1.544425	8.685116	0.633409	-3.169486	-0.861110	-0.700802	-0.034790	0.712507	-0.011338	-0.998141	-0.059889	0.713266	-0.050049	0.699104
08542	5.324710	-2.237469	8.977887	0.586936	-3.458248	-1.034607	-0.675570	-0.026000	0.736837	-0.014337	-0.998726	-0.048385	0.737156	-0.043251	0.674337
08543	7.645759	-2.910539	10.431620	0.515709	-3.681799	-1.205219	-0.647768	-0.015403	0.761682	-0.018489	-0.999183	-0.035929	0.761613	-0.037356	0.646954
08544	8.422074	-3.972495	10.116773	0.602433	-3.693400	-1.422674	-0.618898	-0.002370	0.785468	-0.023006	-0.999512	-0.021143	0.785134	-0.031156	0.618541
08545	10.344488	-3.865569	10.194119	0.608782	-3.819919	-1.584354	-0.588046	0.012432	0.808732	-0.027758	-0.999603	-0.004818	0.808351	-0.025282	0.588157
08546	10.114147	-4.616924	10.095185	0.595860	-3.763126	-1.805971	-0.556622	0.029733	0.830233	-0.033440	-0.999351	0.013370	0.830092	-0.020321	0.557256
08547	10.994905	-4.912654	9.992430	0.647447	-3.760360	-1.991364	-0.524285	0.049000	0.850132	-0.038802	-0.998681	0.033633	0.850658	-0.015353	0.525495
08548	11.360345	-5.796626	9.922606	0.817579	-3.724733	-2.203409	-0.491262	0.070641	0.868142	-0.043231	-0.997455	0.056700	0.869938	-0.009676	0.493066
08549	10.637006	-6.278149	9.837187	1.029626	-3.484727	-2.325484	-0.459604	0.093651	0.883172	-0.045280	-0.995602	0.082009	0.886969	-0.002299	0.461823
08550	8.826327	-5.299250	9.186366	1.328997	-3.386061	-2.482544	-0.428084	0.118531	0.895932	-0.044753	-0.992926	0.109980	0.902630	0.006985	0.430361
08551	6.860515	-4.561974	9.151479	1.653877	-3.328661	-2.667042	-0.396640	0.145441	0.906379	-0.040739	-0.989185	0.140901	0.917070	0.018962	0.398275
08552	4.438464	-3.621565	8.716766	1.943614	-3.291900	-2.841249	-0.365067	0.174400	0.914500	-0.033969	-0.984138	0.174120	0.930361	0.032500	0.365201
08553	0.639354	-2.408160	9.375216	2.204013	-3.321141	-3.084225	-0.333050	0.206030	0.920125	-0.024127	-0.977379	0.210117	0.942600	0.047779	0.330487
08554	9.897408	2.536808	11.157987	2.230622	-2.580428	-2.547733	-0.308081	0.232322	0.922558	-0.011573	-0.970568	0.240548	0.951290	0.063432	0.301702
08555	16.454053	8.240791	21.732435	0.206590	0.017875	-1.244031	-0.308083	0.244407	0.919429	-0.013474	-0.967461	0.252660	0.951264	0.065452	0.301351
08556	7.612728	-3.460892	17.056319	-1.500019	1.458397	-0.184703	-0.321849	0.245334	0.914453	-0.028653	-0.967926	0.249595	0.946357	0.054130	0.318556
08557	-2.312370	-4.313935	10.676563	-1.043269	1.970478	0.028804	-0.340427	0.244082	0.908038	-0.038431	-0.968525	0.245933	0.939485	0.048826	0.339092
08558	-5.588392	-3.887963	7.834078	-1.327249	2.001784	0.307734	-0.359267	0.240225	0.901786	-0.050174	-0.969876	0.238374	0.931885	0.040394	0.360498
08559	-2.824263	-4.479606	7.570386	-1.278113	1.880998	0.458549	-0.376965	0.235131	0.895885	-0.060385	-0.971422	0.229548	0.924257	0.032434	0.380391
08560	-0.181520	-3.573178	8.407968	-1.095701	1.825364	0.489741	-0.394063	0.229873	0.889873	-0.069009	-0.972884	0.220757	0.916489	0.025583	0.399241
08561	2.611489	-1.692679	9.504406	-1.102750	1.978475	0.590429	-0.412525	0.223721	0.883047	-0.076725	-0.974462	0.211039	0.907709	0.019307	0.419155
08562	4.744110	-0.384202	10.068991	-1.271388	2.359358	0.793925	-0.434443	0.215663	0.874499	-0.085287	-0.976399	0.198422	0.896652	0.011620	0.442583
08563	5.081033	0.178346	9.694953	-1.497233	2.800439	1.020894	-0.460263	0.205522	0.863666	-0.094082	-0.978648	0.182745	0.882783	0.002855	0.469771
08564	4.625397	-0.241885	8.600290	-1.667709	3.110818	1.199450	-0.488656	0.193920	0.850653	-0.103440	-0.980987	0.164211	0.866323	-0.007749	0.499424
08565	4.368549	-0.973725	7.732324	-1.658807	3.247316	1.304493	-0.517883	0.181567	0.835961	-0.111139	-0.983214	0.144699	0.848202	-0.017971	0.529369
08566	5.151819	-1.251429	7.516593	-1.513890	3.213681	1.370201	-0.546414	0.168921	0.820303	-0.117017	-0.985240	0.124939	0.829300	-0.027721	0.558115
08567	6.749686	-1.303485	7.832431	-1.316765	3.147927	1.445384	-0.573917	0.155705	0.803975	-0.119759	-0.987161	0.105692	0.810109	-0.035625	0.585196
08568	8.100063	-1.418651	7.851594	-1.063000	3.153028	1.482021	-0.600945	0.142423	0.786499	-0.120044	-0.988918	0.087355	0.790224	-0.041919	0.611382
08569	8.136733	-1.160920	7.758415	-0.798210	3.201468	1.448180	-0.627622	0.129531	0.767667	-0.117420	-0.990531	0.071137	0.769612	-0.045492	0.636889
08570	7.843517	-0.545237	7.613333	-0.614585	3.203624	1.428772	-0.653613	0.117043	0.747724	-0.113430	-0.991960	0.056120	0.748280	-0.048133	0.661634
08571	8.059830	-0.288592	7.781443	-0.568182	3.164232	1.467073	-0.678560	0.104080	0.727134	-0.107896	-0.993296	0.041489	0.726578	-0.050302	0.685241
08572	8.612686	-0.642993	7.844867	-0.564310	3.133866	1.559786	-0.702649	0.090410	0.705769	-0.101664	-0.994474	0.026179	0.704236	-0.053357	0.707958
08573	9.372201	-0.427678	8.250439	-0.597873	3.142767	1.694015	-0.726065	0.075326	0.683487	-0.093754	-0.995544	0.010124	0.681204	-0.056729	0.729892
08574	10.719628	-0.056887	8.705090	-0.676249	3.176339	1.892644	-0.749053	0.058600	0.659913	-0.084825	-0.996365	-0.007806	0.657057	-0.061824	0.751301
08575	12.477673	1.061786	8.701978	-0.768995	3.211851	2.152325	-0.771450	0.039275	0.635076	-0.073469	-0.996916	-0.027592	0.632034	-0.067944	0.771957
08576	14.703364	2.530380	7.427998	-0.824970	3.211047	2.343640	-0.792958	0.018485	0.608996	-0.060740	-0.996959	-0.048827	0.606241	-0.075708	0.791669
08577	16.429175	4.118451	4.945053	-0.833085	3.172016	2.397425	-0.813056	-0.002839	0.582178	-0.046482	-0.996479	-0.069775	0.580327	-0.083792	0.810062
08578	15.692905	5.179011	2.404431	-0.950064	2.973222	2.319536	-0.830925	-0.023016	0.555909	-0.033270	-0.995301	-0.090938	0.555389	-0.094058	0.826254
08579	14.260996	4.596275	1.104338	-1.166298	2.546914	2.096220	-0.845369	-0.041264	0.532587	-0.022105	-0.993456	-0.112057	0.533726	-0.106503	0.838924
08580	14.539413	3.842820	1.023374	-0.946639	2.008332	1.607649	-0.856260	-0.054701	0.513640	-0.013807	-0.991598	-0.128620	0.516360	-0.117224	0.848311
08581	16.927870	3.592730	1.484722	-0.739853	1.563472	0.914935	-0.864330	-0.061826	0.499111	-0.009760	-0.990166	-0.139556	0.502831	-0.125494	0.855227
08582	19.520602	4.229178	0.575301	-0.512027	1.326897	0.191264	-0.870993	-0.061755	0.487398	-0.011015	-0.989364	-0.145040	0.491171	-0.131698	0.861050
08583	15.535190	2.220321	0.808543	-0.844862	1.257837	-0.241415	-0.877062	-0.057609	0.476911	-0.017283	-0.988356	-0.151174	0.480066	-0.140831	0.865854
08584	13.342471	-8.752761	-10.734663	1.300874	-0.749425	-1.103284	-0.873260	-0.047461	0.484937	-0.020984	-0.990658	-0.134744	0.486802	-0.127843	0.864106
08585	18.167958	8.340104	-7.336238	3.345964	-0.988421	-1.639381	-0.868069	-0.032235	0.495395	-0.018869	-0.995026	-0.097810	0.496084	-0.094253	0.863143
08586	21.476864	13.905129	-4.121870	0.901545	-1.830683	0.382472	-0.858916	-0.037445	0.510746	-0.011370	-0.995683	-0.092118	0.511990	-0.084929	0.854782
08587	13.744975	-16.942049	3.161488	-1.832873	-1.275351	2.102669	-0.852461	-0.059504	0.519393	-0.002916	-0.992945	-0.118541	0.522782	-0.102566	0.846274
08588	57.620490	45.870837	20.198623	9.941293	-1.599707	-3.647690	-0.844280	-0.023735	0.535376	0.018407	-0.999714	-0.015292	0.535586	-0.003056	0.844475
08589	-27.618627	27.409699	9.961917	-5.485263	4.506308	-0.778251	-0.867559	-0.014517	0.497123	-0.016646	-0.998166	-0.058198	0.497056	-0.058765	0.865726
08590	8.730075	-3.516534	17.002171	-3.107595	-2.766953	2.340813	-0.853806	-0.039873	0.519062	-0.012329	-0.995234	-0.096731	0.520445	-0.088989	0.849245
08591	11.681848	-21.277347	-3.704823	0.136993	0.862455	0.718491	-0.858321	-0.046214	0.511028	-0.005526	-0.995046	-0.099266	0.513083	-0.088026	0.853813
08592	-2.489768	8.619910	16.348891	2.552759	-0.513339	-0.416052	-0.855662	-0.042365	0.515798	0.003939	-0.997148	-0.075366	0.517520	-0.062456	0.853389
08593	12.004386	-0.658500	4.957467	-1.678780	-0.186378	0.777029	-0.854668	-0.050193	0.516742	0.001827	-0.995600	-0.093686	0.519171	-0.079127	0.851000
08594	5.163390	-10.374642	8.534539	-1.103635	0.191887	0.134378	-0.855652	-0.051307	0.515002	-0.002825	-0.994596	-0.103779	0.517544	-0.090254	0.850884
08595	5.347808	1.125101	9.221924	1.390153	0.067313	-0.310146	-0.855993	-0.048118	0.514743	0.001656	-0.995909	-0.090343	0.516985	-0.076481	0.852571
08596	5.346672	-1.460632	8.428665	-0.706129	0.016926	0.023472	-0.856071	-0.048256	0.514601	-0.001904	-0.995331	-0.096504	0.516855	-0.083595	0.851982
08597	5.485529	-1.120759	8.921876	0.338125	0.035148	-0.096460	-0.856246	-0.047221	0.514406	-0.001039	-0.995654	-0.093128	0.516568	-0.080275	0.852475
08598	5.280595	0.530022	8.920557	-0.053697	0.029644	-0.022213	-0.856389	-0.046893	0.514198	-0.001620	-0.995618	-0.093495	0.516329	-0.080901	0.852560
08599	5.289177	-1.045122	8.831061	0.042238	0.025045	-0.006832	-0.856512	-0.046759	0.514004	-0.001516	-0.995656	-0.093101	0.516124	-0.080521	0.852720
08600	5.372051	-0.521621	8.849054	-0.013273	0.024992	0.003813	-0.856631	-0.046697	0.513811	-0.001659	-0.995641	-0.093254	0.515926	-0.080737	0.852820
08601	5.469344	-0.856363	8.716871	-0.001067	0.038239	0.001097	-0.856823	-0.046631	0.513497	-0.001711	-0.995639	-0.093270	0.515607	-0.080795	0.853007
08602	5.205435	-1.221382	8.677877	-0.008113	0.045824	-0.013719	-0.857049	-0.046380	0.513143	-0.001975	-0.995637	-0.093289	0.515231	-0.080966	0.853218
08603	5.231451	-1.153433	8.681523	0.002504	0.036469	-0.028439	-0.857231	-0.046021	0.512872	-0.002262	-0.995652	-0.093123	0.514928	-0.080988	0.853399
08604	5.437937	-1.293855	8.562455	-0.001263	0.039241	-0.029152	-0.857422	-0.045621	0.512588	-0.002624	-0.995662	-0.093004	0.514607	-0.081089	0.853583
08605	5.401006	-1.464997	8.600151	0.002364	0.041166	-0.021864	-0.857628	-0.045324	0.512270	-0.002855	-0.995674	-0.092874	0.514263	-0.081114	0.853788
08606	5.205345	-1.063106	8.828105	0.046968	0.051387	-0.034570	-0.857881	-0.044857	0.511887	-0.003020	-0.995725	-0.092317	0.513840	-0.080743	0.854078
08607	5.138218	-0.952187	8.899784	0.017704	0.020608	-0.032133	-0.857980	-0.044474	0.511754	-0.003261	-0.995753	-0.092003	0.513673	-0.080606	0.854191
08608	5.352298	-0.613585	8.801786	0.032828	0.005473	-0.028026	-0.857997	-0.044110	0.511757	-0.003443	-0.995790	-0.091601	0.513643	-0.080355	0.854233
08609	5.256533	-0.889902	8.803834	-0.020103	-0.003742	-0.011204	-0.857972	-0.043955	0.511813	-0.003698	-0.995778	-0.091717	0.513683	-0.080583	0.854187
08610	5.227461	-1.329079	8.742838	-0.012522	-0.010867	-0.011955	-0.857906	-0.043765	0.511940	-0.003973	-0.995771	-0.091784	0.513792	-0.080776	0.854104
08611	5.236159	-1.118701	8.744859	0.007154	-0.021784	-0.016118	-0.857787	-0.043576	0.512154	-0.004130	-0.995783	-0.091642	0.513988	-0.080725	0.853990
08612	5.361864	-1.010403	8.693614	-0.002648	-0.029658	-0.014255	-0.857624	-0.043377	0.512444	-0.004376	-0.995785	-0.091613	0.514258	-0.080812	0.853820
08613	5.377271	-0.803881	8.749178	-0.002362	-0.024687	-0.009855	-0.857491	-0.043252	0.512677	-0.004529	-0.995787	-0.091585	0.514479	-0.080855	0.853683
08614	5.300280	-0.929560	8.736521	-0.020536	-0.029976	-0.001667	-0.857327	-0.043179	0.512959	-0.004758	-0.995769	-0.091773	0.514751	-0.081120	0.853494
08615	5.129142	-1.176321	8.758418	-0.032458	-0.035812	0.002023	-0.857137	-0.043182	0.513276	-0.004964	-0.995741	-0.092062	0.515065	-0.081458	0.853272
08616	4.767422	-1.577244	8.657860	-0.035507	-0.044675	-0.010579	-0.856896	-0.043032	0.513690	-0.005348	-0.995714	-0.092332	0.515462	-0.081866	0.852993
08617	5.023667	-1.423300	8.770096	-0.007083	-0.073217	-0.035189	-0.856511	-0.042695	0.514360	-0.005742	-0.995723	-0.092213	0.516097	-0.081935	0.852602
08618	5.687816	-0.902179	8.532010	0.016836	-0.064708	-0.046953	-0.856164	-0.042197	0.514978	-0.006172	-0.995754	-0.091852	0.516667	-0.081819	0.852268
08619	5.362195	-0.548801	8.766925	-0.008887	-0.045152	-0.029464	-0.855923	-0.041894	0.515403	-0.006527	-0.995758	-0.091777	0.517062	-0.081918	0.852019
08620	4.898625	-1.303101	8.675056	-0.050856	-0.057956	-0.028472	-0.855611	-0.041576	0.515947	-0.007146	-0.995725	-0.092086	0.517570	-0.082477	0.851657
08621	5.159307	-0.966145	8.842665	-0.022554	-0.087579	-0.034101	-0.855149	-0.041262	0.516737	-0.007611	-0.995720	-0.092104	0.518326	-0.082695	0.851175
08622	5.436764	-0.950664	8.818817	-0.055306	-0.109172	-0.025705	-0.854571	-0.041013	0.517713	-0.008231	-0.995682	-0.092465	0.519269	-0.083279	0.850543
08623	5.484482	-0.887928	8.713535	-0.040383	-0.113143	-0.019718	-0.853975	-0.040865	0.518706	-0.008666	-0.995656	-0.092707	0.520241	-0.083665	0.849911
08624	5.505599	-0.922078	8.714593	-0.038089	-0.104645	-0.016171	-0.853419	-0.040709	0.519633	-0.009115	-0.995627	-0.092970	0.521146	-0.084079	0.849316
08625	5.521676	-1.006374	8.668709	-0.034854	-0.102113	-0.012324	-0.852879	-0.040626	0.520525	-0.009459	-0.995602	-0.093203	0.522022	-0.084414	0.848744
08626	5.560311	-0.782567	8.697965	-0.021755	-0.095688	-0.009159	-0.852368	-0.040533	0.521369	-0.009763	-0.995584	-0.093362	0.522851	-0.084669	0.848209
08627	5.611896	-0.802394	8.630837	-0.041251	-0.095363	0.000997	-0.851863	-0.040577	0.522190	-0.010028	-0.995548	-0.093718	0.523668	-0.085071	0.847664
08628	5.535014	-0.983207	8.644539	-0.049709	-0.087217	0.008343	-0.851397	-0.040654	0.522945	-0.010328	-0.995499	-0.094205	0.524421	-0.085606	0.847145
08629	5.478031	-1.039376	8.599266	-0.052767	-0.079223	0.009891	-0.850976	-0.040774	0.523620	-0.010577	-0.995449	-0.094704	0.525098	-0.086130	0.846672
08630	5.481017	-1.150168	8.631061	-0.054471	-0.076948	0.009566	-0.850562	-0.040854	0.524286	-0.010893	-0.995395	-0.095237	0.525762	-0.086716	0.846200
08631	5.377662	-1.213877	8.624436	-0.048816	-0.068777	-0.000852	-0.850194	-0.040859	0.524882	-0.011214	-0.995352	-0.095647	0.526350	-0.087204	0.845784
08632	5.312699	-1.187021	8.620265	-0.042218	-0.067476	-0.005374	-0.849827	-0.040782	0.525481	-0.011595	-0.995314	-0.095997	0.526934	-0.087674	0.845372
08633	5.339859	-0.909244	8.745017	-0.034467	-0.084301	-0.005941	-0.849376	-0.040751	0.526213	-0.011884	-0.995285	-0.096258	0.527654	-0.088013	0.844887
08634	5.458566	-0.695421	8.775738	-0.046666	-0.097034	0.004648	-0.848853	-0.040800	0.527051	-0.012204	-0.995239	-0.096699	0.528487	-0.088515	0.844314
08635	5.532931	-0.858910	8.627969	-0.059405	-0.102851	0.020580	-0.848306	-0.041050	0.527913	-0.012400	-0.995177	-0.097310	0.529361	-0.089095	0.843705
08636	5.450008	-1.038403	8.586787	-0.070180	-0.102629	0.032237	-0.847755	-0.041382	0.528771	-0.012609	-0.995097	-0.098093	0.530238	-0.089826	0.843077
08637	5.313071	-1.171206	8.677258	-0.066196	-0.118306	0.028786	-0.847125	-0.041729	0.529753	-0.012773	-0.995025	-0.098804	0.531240	-0.090466	0.842377
08638	5.204153	-1.552899	8.699499	-0.072493	-0.139528	0.012640	-0.846374	-0.041900	0.530939	-0.013163	-0.994950	-0.099502	0.532427	-0.091205	0.841548
08639	5.084118	-1.634516	8.735002	-0.049666	-0.171164	-0.010876	-0.845453	-0.041902	0.532403	-0.013577	-0.994909	-0.099863	0.533877	-0.091658	0.840580
08640	5.155260	-1.478938	8.929012	-0.053821	-0.205957	-0.065410	-0.844333	-0.041357	0.534221	-0.014533	-0.994882	-0.099989	0.535622	-0.092188	0.839411
08641	4.137129	-1.463046	9.191313	-0.074843	-0.248912	-0.109010	-0.842974	-0.040456	0.536431	-0.015912	-0.994857	-0.100033	0.537719	-0.092861	0.837994
08642	5.505066	-0.760383	9.036689	-0.066541	-0.445665	-0.109996	-0.840541	-0.039692	0.540292	-0.017316	-0.994835	-0.100022	0.541471	-0.093428	0.835512
08643	4.846746	-1.179514	9.055475	-0.090384	-0.443452	-0.111275	-0.838105	-0.038954	0.544117	-0.018798	-0.994792	-0.100173	0.545185	-0.094184	0.833008
08644	5.019250	-0.762612	9.201354	-0.111318	-0.555601	-0.103961	-0.835033	-0.038362	0.548861	-0.020395	-0.994723	-0.100553	0.549822	-0.095159	0.829843
08645	5.192498	-0.763860	9.074316	-0.137345	-0.665592	-0.096160	-0.831327	-0.037996	0.554483	-0.022012	-0.994627	-0.101159	0.555347	-0.096302	0.826024
08646	5.362388	-0.657253	8.951074	-0.166245	-0.763797	-0.066549	-0.827037	-0.037994	0.560862	-0.023607	-0.994486	-0.102179	0.561652	-0.097746	0.821579
08647	5.410594	-0.870916	8.792896	-0.200343	-0.842325	-0.048984	-0.822258	-0.038290	0.567826	-0.025201	-0.994306	-0.103542	0.568557	-0.099448	0.816611
08648	5.589414	-0.849229	8.738627	-0.207549	-0.955783	-0.035589	-0.816767	-0.038817	0.575660	-0.026791	-0.994106	-0.105046	0.576345	-0.101221	0.810913
08649	5.632037	-1.059368	8.738250	-0.202643	-1.039103	-0.024354	-0.810720	-0.039589	0.584093	-0.028223	-0.993908	-0.106539	0.584753	-0.102858	0.804664
08650	5.584656	-1.411464	8.872331	-0.148234	-1.165491	-0.034625	-0.803831	-0.040374	0.593487	-0.029485	-0.993763	-0.107540	0.594127	-0.103943	0.797627
08651	5.723950	-1.613444	8.574272	-0.026795	-1.313436	-0.067370	-0.795930	-0.041021	0.603997	-0.030242	-0.993762	-0.107345	0.604633	-0.103705	0.789724
08652	5.775708	-1.550612	8.425205	0.091432	-1.473903	-0.095958	-0.786893	-0.041509	0.615691	-0.030555	-0.993890	-0.106058	0.616332	-0.102269	0.780817
08653	5.042780	-1.455388	8.839120	0.125550	-1.636435	-0.161157	-0.776644	-0.041518	0.628570	-0.031091	-0.994083	-0.104076	0.629172	-0.100373	0.770758
08654	5.169424	-1.553432	8.657530	0.170829	-1.878644	-0.235562	-0.764605	-0.040963	0.643197	-0.031933	-0.994345	-0.101288	0.643708	-0.097984	0.758972
08655	5.335798	-1.528015	8.159301	0.256666	-2.088787	-0.335942	-0.750875	-0.039587	0.659257	-0.032863	-0.994726	-0.097161	0.659626	-0.094621	0.745614
08656	5.043957	-1.149725	8.198003	0.317745	-2.337818	-0.434975	-0.735095	-0.037349	0.676934	-0.034089	-0.995182	-0.091926	0.677106	-0.090651	0.730280
08657	4.394105	-1.520200	8.468543	0.346082	-2.666830	-0.542617	-0.716579	-0.034260	0.696664	-0.035708	-0.995682	-0.085692	0.696592	-0.086282	0.712261
08658	4.217676	-1.963680	8.534703	0.364285	-3.048627	-0.745839	-0.694727	-0.029319	0.718676	-0.038514	-0.996219	-0.077872	0.718242	-0.081779	0.690971
08659	4.768690	-1.880901	8.484275	0.423060	-3.453602	-0.929175	-0.669126	-0.022748	0.742800	-0.041818	-0.996795	-0.068197	0.741971	-0.076695	0.666031
08660	6.481587	-2.125849	8.803334	0.434569	-3.773690	-1.061581	-0.640184	-0.014892	0.768077	-0.045618	-0.997311	-0.057358	0.766866	-0.071758	0.637783
08661	7.185961	-3.145591	9.165986	0.566777	-3.940733	-1.259018	-0.608862	-0.004993	0.793260	-0.049119	-0.997824	-0.043981	0.791754	-0.065743	0.607292
08662	8.714840	-3.401920	9.671388	0.702566	-4.196774	-1.457610	-0.574358	0.007012	0.818574	-0.052236	-0.998239	-0.028101	0.816936	-0.058899	0.573713
08663	8.903839	-4.063061	9.532875	0.773816	-4.235270	-1.581398	-0.538388	0.020506	0.842448	-0.054673	-0.998448	-0.010638	0.840922	-0.051787	0.538673
08664	10.506017	-0.390323	9.735867	0.914032	-4.509361	-1.718049	-0.498968	0.035567	0.865890	-0.055960	-0.998395	0.008763	0.864812	-0.044083	0.500157
08665	11.139064	-0.631403	9.613471	0.008386	-4.457295	-1.700392	-0.458904	0.050582	0.887045	-0.064083	-0.997662	0.023736	0.886172	-0.045952	0.461073
08666	11.172515	-1.831534	9.608543	-0.201708	-4.624346	-1.740193	-0.416249	0.065753	0.906870	-0.073680	-0.996541	0.038436	0.906260	-0.050819	0.419654
08667	12.568225	-2.888252	10.102587	-0.327415	-4.734038	-1.833379	-0.371443	0.081495	0.924872	-0.083948	-0.995008	0.053959	0.924653	-0.057599	0.376430
08668	14.272322	-4.944355	10.626665	-0.478685	-4.639287	-1.952264	-0.326416	0.098060	0.940126	-0.095419	-0.992942	0.070439	0.940398	-0.066714	0.333469
08669	15.371240	-6.277337	11.427820	0.017329	-4.418457	-2.244494	-0.282327	0.117321	0.952117	-0.102133	-0.990529	0.091769	0.953866	-0.071334	0.291635
08670	15.191300	-6.019454	13.111192	0.442467	-4.014269	-2.502950	-0.241213	0.139216	0.960435	-0.104688	-0.987615	0.116863	0.964809	-0.072358	0.252800
08671	11.316105	-7.516360	13.211505	0.639519	-3.426721	-2.732965	-0.205128	0.163747	0.964940	-0.104633	-0.983924	0.144725	0.973126	-0.071278	0.218963
08672	0.481342	-10.132224	11.974711	1.244462	-2.699275	-3.059768	-0.175646	0.191946	0.965559	-0.098622	-0.979305	0.176738	0.979501	-0.064182	0.190941
08673	-11.253135	-7.414262	5.250455	3.464419	-4.307034	-3.417083	-0.130347	0.223148	0.966030	-0.069781	-0.973991	0.215572	0.989010	-0.039311	0.142528
08674	38.888855	4.370578	14.213539	2.147492	-3.499674	-1.377703	-0.094785	0.235344	0.967279	-0.050409	-0.971542	0.231442	0.994221	-0.026822	0.103951
08675	12.365688	-3.745602	23.276717	-0.338870	0.881934	-0.153283	-0.103456	0.237122	0.965955	-0.053966	-0.971074	0.232599	0.993169	-0.028065	0.113260
08676	10.564415	-2.653731	17.729967	1.050644	1.983170	0.548097	-0.123390	0.232146	0.964823	-0.043341	-0.972586	0.228470	0.991411	-0.013626	0.130068
08677	-4.025657	-3.833217	10.403857	-0.112713	2.650017	1.013605	-0.150041	0.222619	0.963290	-0.043111	-0.974866	0.218580	0.987739	-0.008732	0.155867
08678	-6.570409	-1.136491	7.384223	0.244930	2.460697	1.274537	-0.174831	0.210249	0.961888	-0.039084	-0.977647	0.206590	0.983822	-0.001476	0.179140
08679	-4.111302	-0.899212	6.802372	-0.416527	2.358131	1.457656	-0.198547	0.196052	0.960283	-0.040494	-0.980593	0.191826	0.979255	-0.000799	0.202632
08680	-2.107374	-0.273790	7.780908	-0.296371	2.310277	1.452379	-0.221734	0.181765	0.958017	-0.040793	-0.983342	0.177128	0.974254	0.000195	0.225455
08681	1.408926	0.976266	9.285910	-0.454287	2.465191	1.462228	-0.246272	0.167413	0.954632	-0.041829	-0.985887	0.162104	0.968298	-0.000010	0.249799
08682	4.622870	2.022798	10.203713	-0.571117	2.940590	1.482664	-0.275320	0.152789	0.949134	-0.043921	-0.988258	0.146347	0.960349	-0.001395	0.278797
08683	5.620493	3.100004	9.700304	-0.714250	3.568469	1.454703	-0.310048	0.138529	0.940574	-0.046532	-0.990353	0.130522	0.949581	-0.003299	0.313503
08684	5.569616	3.730372	8.424433	-0.926938	4.114769	1.326996	-0.349561	0.125617	0.928454	-0.051325	-0.992051	0.114898	0.935507	-0.007489	0.353230
08685	5.158158	3.809955	6.946183	-1.122556	4.464478	1.098315	-0.391539	0.115227	0.912919	-0.057713	-0.993250	0.100614	0.918350	-0.013294	0.395546
08686	5.392399	3.450041	6.052661	-1.322542	4.616982	0.810968	-0.434077	0.108030	0.894375	-0.066781	-0.993911	0.087642	0.898397	-0.021684	0.438649
08687	5.433985	2.847651	5.481968	-1.446063	4.652703	0.542485	-0.475747	0.103917	0.873422	-0.077201	-0.994098	0.076224	0.876188	-0.031165	0.480962
08688	5.186478	2.156733	5.390113	-1.502755	4.539712	0.374576	-0.515388	0.101934	0.850873	-0.088706	-0.993913	0.065339	0.852353	-0.041802	0.521293
08689	5.780142	2.169445	5.409817	-1.476007	4.407588	0.239266	-0.552627	0.101674	0.827204	-0.099884	-0.993457	0.055379	0.827422	-0.052021	0.559167
08690	6.517731	1.972636	5.607938	-1.573135	4.330960	0.153915	-0.588141	0.102758	0.802204	-0.112168	-0.992674	0.044919	0.800942	-0.063562	0.595358
08691	7.439678	1.265759	6.246459	-1.685253	4.250387	0.199188	-0.621823	0.103796	0.776249	-0.124289	-0.991696	0.033042	0.773232	-0.075933	0.629560
08692	8.547167	-0.225611	7.049075	-1.778379	4.158416	0.382328	-0.653953	0.103578	0.749411	-0.135679	-0.990580	0.018514	0.744269	-0.089572	0.661846
08693	10.794511	-2.214449	7.924477	-1.750268	4.098878	0.680319	-0.684790	0.100834	0.721731	-0.143953	-0.989583	0.001670	0.714381	-0.102752	0.692172
08694	13.744941	-4.147621	8.899055	-1.564844	4.157121	1.138255	-0.715561	0.094247	0.692163	-0.147258	-0.988942	-0.017579	0.682852	-0.114505	0.721527
08695	16.192991	-6.317752	9.097432	-1.141870	4.298747	1.675022	-0.746625	0.082813	0.660071	-0.142682	-0.989065	-0.037303	0.649764	-0.122032	0.750277
08696	16.972792	-4.608083	8.269092	-0.514002	4.357849	2.339459	-0.777434	0.065236	0.625572	-0.128491	-0.990104	-0.056433	0.615699	-0.124254	0.778123
08697	16.610008	-0.861201	6.692020	-0.231781	4.247628	3.039869	-0.806424	0.040443	0.589953	-0.105864	-0.991415	-0.076744	0.581785	-0.124343	0.803782
08698	18.748263	2.890643	4.381934	-0.118060	3.914558	3.504027	-0.831856	0.010819	0.554886	-0.078231	-0.992113	-0.097936	0.549450	-0.124878	0.826142
08699	22.304489	6.681284	1.419148	-0.080963	3.587910	3.647303	-0.853325	-0.020818	0.520964	-0.047990	-0.991825	-0.118240	0.519166	-0.125898	0.845350
08700	23.038255	10.718554	-1.127463	-0.229732	3.294897	3.361515	-0.871175	-0.049676	0.488452	-0.020519	-0.990315	-0.137313	0.490543	-0.129646	0.861719
08701	21.043369	10.580983	-2.556635	-0.945933	2.953557	2.680205	-0.885572	-0.072137	0.458866	-0.001556	-0.987401	-0.158230	0.464499	-0.140838	0.874303
08702	10.239097	-11.893405	-8.821667	-1.481210	0.765126	1.482119	-0.889126	-0.085419	0.449620	0.004514	-0.984017	-0.178017	0.457640	-0.156250	0.875301
08703	26.919743	13.875559	-16.268781	7.725738	-1.290393	-2.419839	-0.883428	-0.062929	0.464323	0.018774	-0.994899	-0.099116	0.468191	-0.078844	0.880103
08704	23.110196	27.751131	-16.262145	1.036440	-1.184413	-2.346851	-0.878102	-0.040238	0.476779	0.002751	-0.996866	-0.079064	0.478466	-0.068115	0.875460
08705	31.520628	6.063085	-20.209499	-2.127968	-2.901023	1.196620	-0.863816	-0.054367	0.500866	0.002657	-0.994638	-0.103382	0.503801	-0.087972	0.859328
08706	15.991738	-30.022611	16.501574	-4.834024	-1.236176	0.125304	-0.857528	-0.056911	0.511279	-0.020977	-0.989167	-0.145289	0.514009	-0.135315	0.847045
08707	46.761832	-0.915334	19.965040	8.162143	-0.165711	-2.970100	-0.856291	-0.027486	0.515761	-0.004428	-0.998156	-0.060545	0.516474	-0.054128	0.854590
08708	-13.935919	30.191679	15.098571	1.764154	1.460424	-2.074334	-0.863541	-0.005944	0.504244	-0.013488	-0.999301	-0.034878	0.504099	-0.036920	0.862856
08709	2.045468	16.456475	15.730259	-2.747171	-1.987164	1.145397	-0.853531	-0.018334	0.520720	-0.017797	-0.997772	-0.064303	0.520738	-0.064152	0.851303
08710	13.921592	-13.567719	0.866169	-3.626567	0.171331	2.875170	-0.854834	-0.046824	0.516785	-0.012080	-0.993855	-0.110033	0.518761	-0.100303	0.849015
08711	4.028418	-7.565272	10.073763	1.007067	-0.590326	-0.350854	-0.851713	-0.043846	0.522172	-0.009889	-0.994971	-0.099676	0.523916	-0.090059	0.846996
08712	10.840886	0.261004	4.849693	0.637935	0.154981	-0.201394	-0.852489	-0.041640	0.521083	-0.008355	-0.995610	-0.093228	0.522678	-0.083829	0.848399
08713	4.406424	-2.555007	9.833455	-0.908676	0.200855	0.046459	-0.853537	-0.041873	0.519347	-0.012765	-0.994786	-0.101185	0.520875	-0.092994	0.848552
08714	5.147645	-1.137498	9.099889	0.375156	0.087043	-0.065822	-0.853964	-0.041071	0.518708	-0.011464	-0.995153	-0.097669	0.520205	-0.089352	0.849354
08715	5.417355	-1.933936	8.827661	-0.105770	0.061219	-0.031651	-0.854274	-0.040649	0.518231	-0.012350	-0.995069	-0.098409	0.519676	-0.090468	0.849560
08716	5.569911	0.270108	8.869570	0.146441	0.012355	-0.037221	-0.854316	-0.040197	0.518197	-0.012001	-0.995214	-0.096985	0.519615	-0.089074	0.849744
08717	5.455350	-0.263000	8.901046	-0.040826	0.044544	0.013206	-0.854544	-0.040237	0.517818	-0.012166	-0.995170	-0.097406	0.519237	-0.089537	0.849927
08718	5.151596	-1.119902	8.756004	-0.044030	0.034586	0.019642	-0.854708	-0.040337	0.517540	-0.012311	-0.995121	-0.097891	0.518963	-0.090039	0.850041
08719	5.216858	-1.044709	8.744008	0.015353	0.025442	0.000807	-0.854835	-0.040270	0.517335	-0.012290	-0.995133	-0.097770	0.518755	-0.089935	0.850179
08720	5.430898	-0.843922	8.635655	-0.004097	0.028581	-0.005908	-0.854964	-0.040121	0.517133	-0.012447	-0.995130	-0.097783	0.518537	-0.090038	0.850301
08721	5.424033	-1.215469	8.578672	-0.011484	0.052815	-0.004428	-0.855232	-0.039977	0.516701	-0.012609	-0.995120	-0.097864	0.518091	-0.090212	0.850555
08722	5.319856	-1.518263	8.560103	-0.009286	0.048508	-0.016245	-0.855464	-0.039707	0.516339	-0.012882	-0.995116	-0.097868	0.517703	-0.090374	0.850774
08723	5.349735	-1.612785	8.584947	0.000368	0.045111	-0.031299	-0.855688	-0.039303	0.515998	-0.013213	-0.995127	-0.097709	0.517324	-0.090427	0.850999
08724	5.461160	-1.234332	8.656259	0.030318	0.039102	-0.043961	-0.855866	-0.038762	0.515743	-0.013523	-0.995169	-0.097236	0.517020	-0.090195	0.851208
08725	5.455343	-1.177203	8.728965	0.015681	0.043810	-0.030903	-0.856083	-0.038363	0.515412	-0.013772	-0.995194	-0.096949	0.516654	-0.090095	0.851441
08726	5.366276	-1.004502	8.786042	0.009940	0.035659	-0.020481	-0.856247	-0.038058	0.515163	-0.013988	-0.995208	-0.096771	0.516378	-0.090066	0.851612
08727	5.337720	-1.043644	8.732874	0.006245	0.031953	-0.016538	-0.856404	-0.037813	0.514920	-0.014163	-0.995219	-0.096639	0.516112	-0.090054	0.851774
08728	5.309048	-0.816525	8.698200	0.005939	0.021170	-0.008482	-0.856494	-0.037640	0.514782	-0.014298	-0.995225	-0.096557	0.515958	-0.090060	0.851866
08729	5.233828	-0.654330	8.861899	-0.014670	0.009640	0.006200	-0.856540	-0.037641	0.514707	-0.014386	-0.995208	-0.096719	0.515881	-0.090248	0.851893
08730	5.185396	-0.980238	8.756103	-0.031787	-0.011223	0.015004	-0.856466	-0.037732	0.514822	-0.014511	-0.995171	-0.097079	0.515999	-0.090615	0.851783
08731	5.304821	-1.006353	8.640886	-0.024122	-0.026438	0.016700	-0.856327	-0.037871	0.515044	-0.014558	-0.995141	-0.097376	0.516229	-0.090883	0.851615
08732	5.261193	-1.150440	8.667402	-0.035351	-0.022104	0.015799	-0.856197	-0.037980	0.515251	-0.014695	-0.995101	-0.097769	0.516440	-0.091281	0.851444
08733	5.348717	-1.189772	8.620568	-0.010000	-0.025821	0.006783	-0.856059	-0.038020	0.515477	-0.014754	-0.995087	-0.097895	0.516667	-0.091410	0.851293
08734	5.472416	-0.818640	8.665250	-0.010877	-0.021421	0.004287	-0.855931	-0.038013	0.515690	-0.014865	-0.995073	-0.098022	0.516876	-0.091565	0.851149
08735	5.486470	-0.905779	8.678602	-0.014265	-0.014338	0.000177	-0.855852	-0.037976	0.515825	-0.015002	-0.995059	-0.098150	0.517003	-0.091740	0.851053
08736	5.483326	-1.223477	8.611411	-0.003141	-0.010614	-0.001384	-0.855779	-0.037905	0.515951	-0.015120	-0.995054	-0.098181	0.517121	-0.091822	0.850973
08737	5.387191	-1.021640	8.658403	0.000143	-0.009635	0.000267	-0.855724	-0.037864	0.516046	-0.015182	-0.995052	-0.098187	0.517210	-0.091856	0.850915
08738	5.300342	-1.143295	8.670077	-0.001083	-0.008631	-0.004440	-0.855660	-0.037760	0.516159	-0.015317	-0.995050	-0.098184	0.517311	-0.091918	0.850847
08739	5.249214	-1.013315	8.662657	-0.003051	-0.016218	-0.002345	-0.855571	-0.037699	0.516312	-0.015418	-0.995047	-0.098204	0.517456	-0.091981	0.850752
08740	4.997379	-1.090004	8.717859	-0.014486	-0.024916	-0.005182	-0.855423	-0.037602	0.516564	-0.015629	-0.995033	-0.098312	0.517695	-0.092172	0.850586
08741	4.619600	-1.458197	8.765425	-0.034963	-0.063645	-0.012145	-0.855086	-0.037488	0.517130	-0.015979	-0.995004	-0.098553	0.518240	-0.092534	0.850214
08742	5.208300	-1.233690	8.688869	-0.012809	-0.099777	-0.029855	-0.854546	-0.037213	0.518041	-0.016395	-0.995000	-0.098519	0.519117	-0.092682	0.849663
08743	5.486710	-0.792537	8.717704	-0.013015	-0.086134	-0.031340	-0.854088	-0.036929	0.518817	-0.016795	-0.994998	-0.098473	0.519858	-0.092819	0.849195
08744	5.501773	-1.008969	8.662771	-0.043888	-0.100964	-0.019371	-0.853541	-0.036761	0.519727	-0.017283	-0.994961	-0.098758	0.520739	-0.093276	0.848605
08745	5.389490	-1.093022	8.731451	-0.032865	-0.091652	-0.019982	-0.853054	-0.036596	0.520537	-0.017690	-0.994936	-0.098938	0.521522	-0.093608	0.848088
08746	5.208299	-1.200335	8.806719	-0.047580	-0.103870	-0.021004	-0.852491	-0.036414	0.521473	-0.018211	-0.994896	-0.099244	0.522425	-0.094102	0.847477
08747	5.364483	-1.369865	8.660208	-0.026586	-0.120378	-0.040562	-0.851848	-0.036072	0.522546	-0.018762	-0.994884	-0.099263	0.523453	-0.094361	0.846813
08748	5.741526	-0.861648	8.580809	-0.004777	-0.113187	-0.041579	-0.851229	-0.035694	0.523579	-0.019237	-0.994892	-0.099099	0.524442	-0.094428	0.846194
08749	5.714484	-0.712908	8.623273	-0.029540	-0.093082	-0.028272	-0.850729	-0.035449	0.524407	-0.019698	-0.994872	-0.099206	0.525235	-0.094727	0.845669
08750	5.771173	-0.602834	8.620355	-0.034723	-0.081676	-0.009285	-0.850280	-0.035364	0.525141	-0.020053	-0.994839	-0.099463	0.525949	-0.095102	0.845183
08751	5.696626	-0.598198	8.615674	-0.059140	-0.056568	0.008444	-0.849978	-0.035450	0.525624	-0.020358	-0.994778	-0.100012	0.526424	-0.095709	0.844818
08752	5.574042	-0.894134	8.528898	-0.074181	-0.049037	0.028149	-0.849707	-0.035710	0.526045	-0.020599	-0.994694	-0.100797	0.526853	-0.096484	0.844462
08753	5.195962	-1.215468	8.571257	-0.075844	-0.049231	0.031243	-0.849448	-0.036016	0.526442	-0.020799	-0.994607	-0.101607	0.527262	-0.097259	0.844118
08754	4.977881	-1.503823	8.760775	-0.095215	-0.082673	0.024421	-0.848998	-0.036273	0.527150	-0.021184	-0.994502	-0.102549	0.527971	-0.098231	0.843562
08755	5.150043	-1.713326	8.596592	-0.073615	-0.116419	-0.008124	-0.848375	-0.036255	0.528153	-0.021708	-0.994431	-0.103132	0.528950	-0.098959	0.842863
08756	5.065723	-1.707011	8.789890	-0.055254	-0.128387	-0.040596	-0.847668	-0.035908	0.529311	-0.022439	-0.994387	-0.103395	0.530052	-0.099522	0.842104
08757	5.439228	-1.594422	8.622978	-0.004781	-0.158222	-0.074187	-0.846805	-0.035276	0.530732	-0.023159	-0.994407	-0.103046	0.531399	-0.099552	0.841252
08758	5.433161	-1.369870	8.712013	0.000006	-0.150366	-0.093665	-0.845965	-0.034421	0.532126	-0.024052	-0.994436	-0.102563	0.532696	-0.099563	0.840430
08759	5.462616	-1.370244	8.734214	0.023818	-0.168679	-0.106149	-0.845033	-0.033481	0.533665	-0.024888	-0.994493	-0.101802	0.534134	-0.099308	0.839547
08760	4.998523	-1.239200	9.053354	0.021994	-0.188438	-0.113745	-0.843978	-0.032461	0.535395	-0.025834	-0.994549	-0.101024	0.535755	-0.099093	0.838538
08761	5.066019	-0.695549	9.275691	0.025547	-0.332238	-0.100793	-0.842161	-0.031736	0.538292	-0.026612	-0.994604	-0.100273	0.538569	-0.098771	0.836772
08762	3.841797	0.029044	9.856198	-0.053018	-0.391769	-0.091411	-0.840001	-0.031140	0.541690	-0.027769	-0.994576	-0.100237	0.541873	-0.099241	0.834581
08763	5.059719	-0.078310	9.567002	-0.161650	-0.747648	-0.033460	-0.835911	-0.031503	0.547960	-0.028996	-0.994423	-0.101404	0.548099	-0.100653	0.830335
08764	4.699642	-0.302884	9.378712	-0.168733	-0.763079	-0.014592	-0.831682	-0.032064	0.554325	-0.030139	-0.994253	-0.102730	0.554433	-0.102145	0.825936
08765	5.524052	-0.185387	9.015600	-0.183819	-0.976602	0.044792	-0.826236	-0.033463	0.562330	-0.030860	-0.994046	-0.104495	0.562479	-0.103691	0.820284
08766	5.469704	-0.727110	8.694536	-0.225323	-1.076522	0.098122	-0.820146	-0.035503	0.571052	-0.031412	-0.993774	-0.106897	0.571292	-0.105609	0.813924
08767	5.457157	-1.315528	8.634718	-0.193186	-1.192217	0.111082	-0.813305	-0.037823	0.580607	-0.031683	-0.993525	-0.109104	0.580974	-0.107130	0.806841
08768	5.425217	-1.860788	8.532462	-0.143513	-1.318378	0.083338	-0.805584	-0.040009	0.591129	-0.031931	-0.993336	-0.110747	0.591620	-0.108092	0.798938
08769	5.219288	-1.810372	8.954732	-0.062699	-1.466056	0.025640	-0.796826	-0.041797	0.602762	-0.032166	-0.993255	-0.111398	0.603353	-0.108153	0.790107
08770	5.391613	-2.492429	8.868906	0.008102	-1.668021	-0.047151	-0.786619	-0.043063	0.615936	-0.032577	-0.993281	-0.111050	0.616579	-0.107420	0.779930
08771	5.282803	-2.118107	8.964010	0.205639	-1.889545	-0.145263	-0.774773	-0.043571	0.630736	-0.032494	-0.993560	-0.108550	0.631404	-0.104597	0.768368
08772	4.897222	-1.912333	9.244766	0.182078	-2.178151	-0.248323	-0.760739	-0.043285	0.647613	-0.033333	-0.993852	-0.105582	0.648201	-0.101907	0.754619
08773	4.238676	-2.134069	9.254821	0.191272	-2.551716	-0.410363	-0.743804	-0.041716	0.667095	-0.035228	-0.994217	-0.101451	0.667469	-0.098960	0.738032
08774	3.943979	-2.020475	8.971001	0.324816	-2.973286	-0.630819	-0.723386	-0.038250	0.689383	-0.037756	-0.994779	-0.094813	0.689410	-0.094615	0.718165
08775	3.893802	-1.678837	8.518597	0.404607	-3.445435	-0.836032	-0.698868	-0.033048	0.714486	-0.040927	-0.995448	-0.086076	0.714078	-0.089398	0.694334
08776	4.600795	-2.572132	8.719739	0.378609	-3.834291	-1.052944	-0.670512	-0.025827	0.741449	-0.045495	-0.996082	-0.075839	0.740502	-0.084583	0.666710
08777	5.960270	-2.829085	9.199985	0.554610	-4.177962	-1.288297	-0.638369	-0.016337	0.769557	-0.049807	-0.996803	-0.062478	0.768117	-0.078213	0.635514
08778	7.595144	-3.070965	9.521447	0.669974	-4.400872	-1.512256	-0.603156	-0.004471	0.797611	-0.054083	-0.997454	-0.046489	0.795788	-0.071177	0.601378
08779	9.722162	-3.640253	10.270983	0.705476	-4.501730	-1.630748	-0.565799	0.008805	0.824496	-0.057969	-0.997893	-0.029125	0.822503	-0.064274	0.565118
08780	9.764630	-2.499696	9.953485	0.892510	-4.619871	-1.752593	-0.526155	0.023586	0.850061	-0.060231	-0.998138	-0.009587	0.848253	-0.056244	0.526596
08781	11.220632	-1.720142	10.365974	0.402792	-4.645127	-1.761418	-0.485072	0.038666	0.873619	-0.065735	-0.997808	0.007664	0.872000	-0.053710	0.486551
08782	11.603630	-2.788709	9.983915	0.097436	-4.694973	-1.841632	-0.442322	0.054547	0.895196	-0.073578	-0.996991	0.024395	0.893833	-0.055076	0.445005
08783	12.896164	-3.835736	10.218642	-0.001634	-4.767646	-1.994615	-0.397656	0.071778	0.914723	-0.082030	-0.995724	0.042474	0.913860	-0.058145	0.401844
08784	14.198996	-5.339525	10.727459	-0.070237	-4.587594	-2.162865	-0.353452	0.090578	0.931057	-0.090994	-0.993910	0.062149	0.931016	-0.062754	0.359542
08785	14.700340	-6.558677	11.499822	0.273047	-4.283363	-2.389878	-0.311002	0.111638	0.943830	-0.096428	-0.991659	0.085521	0.945505	-0.064415	0.319173
08786	13.530692	-6.844821	12.185959	0.587767	-3.839732	-2.659297	-0.271860	0.135550	0.952743	-0.098838	-0.988728	0.112467	0.957248	-0.063592	0.282193
08787	5.601347	-8.834716	11.128912	0.931211	-3.196029	-2.967406	-0.238189	0.162927	0.957456	-0.097501	-0.984860	0.143334	0.966312	-0.059212	0.250468
08788	-5.996832	-8.423200	8.265486	2.099890	-3.315178	-3.423101	-0.202855	0.194840	0.959629	-0.084986	-0.979809	0.180973	0.975514	-0.044844	0.215318
08789	-0.808153	-1.131618	7.493962	3.134998	-4.581756	-3.383792	-0.155431	0.226381	0.961558	-0.060342	-0.973745	0.219496	0.986002	-0.023906	0.165010
08790	26.225602	8.568620	19.414224	1.313210	-1.663115	-1.718782	-0.138034	0.242735	0.960222	-0.050255	-0.969970	0.237975	0.989152	-0.015407	0.146087
08791	13.692041	-2.295119	22.187944	-1.328483	0.641404	-0.227089	-0.144232	0.245124	0.958703	-0.063753	-0.969122	0.238197	0.987488	-0.026765	0.155405
08792	4.681914	-3.833097	15.412235	-0.717406	2.067828	0.338851	-0.164844	0.242391	0.956072	-0.070677	-0.969744	0.233671	0.983784	-0.029053	0.176987
08793	-3.302992	-4.343854	10.597486	-1.188340	2.527345	0.888341	-0.190301	0.234624	0.953277	-0.080808	-0.971470	0.222970	0.978394	-0.034601	0.203831
08794	-1.921381	-3.540607	8.394902	-1.170402	2.635611	1.242286	-0.217087	0.223512	0.950219	-0.090107	-0.973865	0.208488	0.971985	-0.040361	0.231553
08795	-0.446190	-3.857420	7.912502	-1.000289	2.759843	1.318959	-0.245033	0.211869	0.946082	-0.096798	-0.976300	0.193565	0.964670	-0.044149	0.259734
08796	1.005576	-1.591774	8.429638	-0.800329	2.824651	1.284471	-0.273478	0.200596	0.940729	-0.101599	-0.978566	0.179128	0.956497	-0.046590	0.287997
08797	3.919804	1.251104	9.029834	-0.820311	3.049348	1.301679	-0.303836	0.189349	0.933719	-0.105704	-0.980700	0.164480	0.946842	-0.048723	0.317987
08798	6.102396	3.030911	8.873802	-1.142240	3.496590	1.315359	-0.338218	0.178258	0.924031	-0.112670	-0.982504	0.148298	0.934299	-0.053954	0.352385
08799	6.492227	3.619784	7.911900	-1.510674	3.981468	1.220468	-0.376525	0.168618	0.910932	-0.122362	-0.983733	0.131517	0.918290	-0.061944	0.391032
08800	5.446951	2.676930	6.230022	-1.830753	4.258623	0.979440	-0.416558	0.161918	0.894574	-0.135531	-0.984076	0.115008	0.898950	-0.073335	0.431870
08801	4.914800	0.968432	5.269025	-1.918778	4.229797	0.668512	-0.455079	0.158752	0.876185	-0.149727	-0.983612	0.100450	0.877772	-0.085476	0.471391
08802	6.357410	0.499874	5.600153	-1.796743	4.060668	0.421905	-0.491010	0.158397	0.856632	-0.163704	-0.982590	0.087855	0.855634	-0.097097	0.508392
08803	8.443868	0.159315	6.152639	-1.793979	3.898403	0.422992	-0.524630	0.158306	0.836482	-0.176767	-0.981401	0.074867	0.832777	-0.108585	0.542856
08804	8.899133	-1.079475	5.685304	-1.526574	3.840726	0.417998	-0.556990	0.158669	0.815222	-0.187435	-0.980272	0.062730	0.809092	-0.117861	0.575741
08805	7.896445	-0.041701	5.824790	-1.375061	3.823435	0.390753	-0.588192	0.159542	0.792828	-0.196222	-0.979208	0.051472	0.784555	-0.125294	0.607268
08806	7.628091	-0.530868	5.630550	-1.325388	3.725521	0.437876	-0.617886	0.160206	0.769773	-0.204215	-0.978123	0.039648	0.759285	-0.132701	0.637085
08807	7.664759	-1.341712	5.771508	-1.263855	3.555365	0.557651	-0.645577	0.159645	0.746823	-0.210198	-0.977280	0.027207	0.734199	-0.139416	0.664466
08808	8.238583	-2.147327	6.459839	-1.192709	3.397265	0.779828	-0.671796	0.157047	0.723896	-0.214077	-0.976727	0.013229	0.709127	-0.146082	0.689782
08809	9.667738	-2.797635	7.535888	-1.100709	3.311885	1.109198	-0.697228	0.151198	0.700723	-0.214220	-0.976782	-0.002387	0.684093	-0.151773	0.713430
08810	11.524297	-2.846645	8.007601	-1.006409	3.339544	1.557969	-0.722988	0.141340	0.676247	-0.210338	-0.977412	-0.020590	0.658062	-0.157127	0.736387
08811	12.656493	-2.614441	7.617574	-0.939748	3.417664	2.128476	-0.749378	0.126023	0.650039	-0.200793	-0.978744	-0.041729	0.630963	-0.161794	0.758755
08812	13.179572	-1.731520	6.796756	-0.842765	3.400536	2.765888	-0.775745	0.104758	0.622291	-0.185349	-0.980454	-0.066003	0.603213	-0.166542	0.779999
08813	13.387770	-1.216482	5.862360	-0.738161	3.239936	3.350697	-0.800686	0.077391	0.594064	-0.163358	-0.982248	-0.092215	0.576382	-0.170881	0.799115
08814	13.976330	-1.001149	5.686542	-0.462925	2.976400	3.710531	-0.823078	0.046333	0.566035	-0.136296	-0.983655	-0.117673	0.551331	-0.174003	0.815940
08815	16.576602	0.015094	5.988837	-0.042069	2.737191	3.800371	-0.842433	0.013736	0.538626	-0.104941	-0.984714	-0.139020	0.528483	-0.173639	0.830997
08816	19.905552	2.441233	5.098553	0.450942	2.664402	3.661970	-0.859514	-0.017454	0.510813	-0.071894	-0.985351	-0.154642	0.506030	-0.169641	0.845669
08817	19.992247	6.088935	2.705649	0.859057	2.589044	3.239477	-0.874133	-0.045037	0.483594	-0.039628	-0.985758	-0.163434	0.484067	-0.162027	0.859899
08818	18.101960	11.283847	-0.100801	1.140262	2.253650	2.459642	-0.885530	-0.065449	0.459949	-0.012982	-0.986155	-0.165320	0.464401	-0.152366	0.872420
08819	18.221826	13.712982	-2.771544	0.284185	1.777327	1.683210	-0.893722	-0.079292	0.441558	0.003219	-0.985365	-0.170430	0.448609	-0.150895	0.880898
08820	10.349766	-6.265273	-8.619622	-1.420651	0.464783	1.258841	-0.895772	-0.090725	0.435157	0.007859	-0.982029	-0.188565	0.444445	-0.165491	0.880387
08821	21.772942	2.148090	-12.099017	4.589908	-1.261262	-1.948567	-0.890278	-0.073247	0.449489	0.011035	-0.990161	-0.139496	0.455284	-0.119230	0.882327
08822	18.474270	8.401439	-12.944991	2.561226	-1.055050	-2.320508	-0.885602	-0.051113	0.461625	0.001897	-0.994316	-0.106455	0.464442	-0.093401	0.880665
08823	20.300110	15.815981	-9.272797	2.079099	-2.607181	-1.002725	-0.873214	-0.043224	0.485417	0.002901	-0.996502	-0.083515	0.487329	-0.071519	0.870285
08824	5.124246	11.284796	8.548601	-0.709696	-1.276256	1.266901	-0.866836	-0.056653	0.495364	0.010225	-0.995335	-0.095940	0.498489	-0.078099	0.863371
08825	30.584325	-10.006260	24.597657	-2.664094	-2.762332	1.037788	-0.852648	-0.069411	0.517854	0.005474	-0.992269	-0.123987	0.522456	-0.102882	0.846436
08826	40.792230	22.425879	18.839884	7.201439	1.009289	-3.857567	-0.858156	-0.030181	0.512501	0.009603	-0.999040	-0.042753	0.513299	-0.031767	0.857622
08827	-29.622573	15.709689	4.979691	-1.707734	1.224528	-0.419723	-0.864389	-0.025436	0.502180	-0.002762	-0.998464	-0.055326	0.502817	-0.049211	0.862991
08828	26.314252	-13.044135	13.935396	-6.228574	-2.758904	3.856478	-0.850246	-0.066036	0.522227	-0.001726	-0.991745	-0.128218	0.526383	-0.109918	0.843113
08829	-0.396271	-17.621028	3.782451	3.555580	1.488422	-1.142139	-0.858013	-0.053248	0.510861	0.006935	-0.995722	-0.092139	0.513582	-0.075513	0.854711
08830	8.431432	14.728345	10.882177	2.666597	-1.453632	-1.112554	-0.850537	-0.042976	0.524157	0.011179	-0.997908	-0.063679	0.525797	-0.048302	0.849238
08831	5.749021	-1.605780	6.050690	-3.802160	0.957023	1.448210	-0.855421	-0.056703	0.514820	0.003616	-0.994619	-0.103541	0.517920	-0.086710	0.851023
08832	6.385867	-11.341164	7.798263	-0.190436	-0.206733	-0.165307	-0.854324	-0.055206	0.516801	0.001175	-0.994545	-0.104299	0.519740	-0.088498	0.849729
08833	5.335458	2.836033	9.023283	1.812780	0.107187	-0.494590	-0.854895	-0.050141	0.516372	0.006288	-0.996247	-0.086329	0.518762	-0.070555	0.852002
08834	5.775840	0.867191	9.162403	-0.943051	0.123611	0.035585	-0.855508	-0.050348	0.515336	0.001634	-0.995519	-0.094549	0.517787	-0.080045	0.851757
08835	5.236090	-1.046871	9.153870	0.214014	0.055164	-0.045126	-0.855791	-0.049799	0.514920	0.002283	-0.995710	-0.092503	0.517317	-0.077988	0.852233
08836	5.173105	1.961686	9.383364	0.078349	0.010069	0.007430	-0.855815	-0.049816	0.514877	0.002689	-0.995767	-0.091873	0.517274	-0.077242	0.852327
08837	5.201009	-0.942350	8.768761	-0.157683	-0.028599	0.064940	-0.855662	-0.050428	0.515072	0.002356	-0.995611	-0.093561	0.517530	-0.078843	0.852025
08838	5.357417	-0.866475	8.698145	-0.077529	-0.036017	0.058780	-0.855446	-0.051002	0.515374	0.002410	-0.995520	-0.094519	0.517886	-0.079614	0.851737
08839	5.651222	-1.660285	8.466720	-0.061028	-0.013544	0.050657	-0.855371	-0.051461	0.515453	0.002454	-0.995445	-0.095309	0.518010	-0.080260	0.851601
08840	5.510304	-1.654734	8.471882	-0.034950	0.028674	0.025471	-0.855491	-0.051650	0.515235	0.002439	-0.995404	-0.095734	0.517812	-0.080642	0.851685
08841	5.407089	-1.502081	8.625103	-0.003827	0.030907	0.003787	-0.855647	-0.051606	0.514980	0.002379	-0.995398	-0.095795	0.517554	-0.080742	0.851833
08842	5.326061	-1.303709	8.701367	-0.003786	0.027756	-0.000573	-0.855763	-0.051532	0.514795	0.002297	-0.995396	-0.095823	0.517362	-0.080819	0.851942
08843	5.233522	-1.315241	8.701118	-0.002925	0.016153	-0.001110	-0.855843	-0.051452	0.514670	0.002200	-0.995393	-0.095851	0.517231	-0.080901	0.852014
08844	5.376456	-1.247709	8.634142	0.005800	0.007143	-0.004884	-0.855853	-0.051349	0.514664	0.002128	-0.995401	-0.095776	0.517215	-0.080875	0.852026
08845	5.293050	-0.910982	8.739245	0.010356	0.006353	-0.006318	-0.855882	-0.051225	0.514628	0.002054	-0.995411	-0.095665	0.517167	-0.080821	0.852060
08846	5.330105	-0.793228	8.785612	-0.005351	-0.000400	-0.002023	-0.855853	-0.051157	0.514684	0.001948	-0.995408	-0.095700	0.517216	-0.080902	0.852023
08847	5.407676	-0.668324	8.739385	-0.009108	-0.010522	0.006689	-0.855794	-0.051175	0.514779	0.001885	-0.995397	-0.095821	0.517313	-0.081033	0.851951
08848	5.391979	-0.851464	8.708723	-0.024451	-0.008272	0.014072	-0.855724	-0.051275	0.514886	0.001819	-0.995370	-0.096101	0.517430	-0.081299	0.851855
08849	5.401180	-1.020533	8.631949	-0.028620	-0.008123	0.018963	-0.855678	-0.051414	0.514949	0.001761	-0.995336	-0.096452	0.517506	-0.081625	0.851777
08850	5.336054	-1.182098	8.607959	-0.031910	-0.005012	0.016042	-0.855624	-0.051531	0.515027	0.001674	-0.995302	-0.096805	0.517596	-0.081966	0.851690
08851	5.336448	-1.185327	8.607271	-0.024454	-0.008283	0.014075	-0.855577	-0.051622	0.515096	0.001595	-0.995274	-0.097095	0.517673	-0.082251	0.851616
08852	5.265704	-1.154660	8.682656	-0.024822	-0.001150	0.005895	-0.855543	-0.051633	0.515151	0.001456	-0.995251	-0.097336	0.517730	-0.082525	0.851555
08853	5.175877	-1.330463	8.704377	-0.026846	-0.019917	0.006246	-0.855436	-0.051656	0.515326	0.001297	-0.995224	-0.097606	0.517907	-0.082827	0.851418
08854	5.151393	-1.589268	8.680221	-0.014285	-0.037186	-0.011159	-0.855216	-0.051526	0.515704	0.001064	-0.995218	-0.097671	0.518270	-0.082981	0.851181
08855	5.025911	-1.392238	8.659911	0.013145	-0.041700	-0.033230	-0.854996	-0.051173	0.516103	0.000776	-0.995245	-0.097397	0.518633	-0.082873	0.850971
08856	4.817297	-1.369442	8.716089	0.012091	-0.061345	-0.052866	-0.854651	-0.050645	0.516726	0.000318	-0.995282	-0.097023	0.519202	-0.082757	0.850635
08857	5.091773	-0.977890	8.714582	0.029569	-0.086577	-0.063525	-0.854198	-0.050028	0.517536	-0.000144	-0.995338	-0.096452	0.519948	-0.082464	0.850208
08858	5.290948	-0.766530	8.765290	-0.009226	-0.103209	-0.061623	-0.853634	-0.049445	0.518522	-0.000789	-0.995360	-0.096214	0.520873	-0.082541	0.849634
08859	5.662464	-0.611109	8.747863	-0.017193	-0.100446	-0.043999	-0.853106	-0.049034	0.519429	-0.001326	-0.995367	-0.096141	0.521737	-0.082707	0.849088
08860	5.608711	-1.040457	8.604343	-0.044108	-0.098001	-0.034041	-0.852566	-0.048724	0.520343	-0.001915	-0.995347	-0.096340	0.522616	-0.083133	0.848506
08861	5.648576	-1.028980	8.606591	-0.018945	-0.094336	-0.032178	-0.852068	-0.048426	0.521186	-0.002361	-0.995345	-0.096342	0.523426	-0.083320	0.847988
08862	5.562368	-0.661643	8.699801	-0.016573	-0.070571	-0.028171	-0.851670	-0.048152	0.521861	-0.002756	-0.995345	-0.096337	0.524071	-0.083485	0.847573
08863	5.524605	-0.777350	8.672253	-0.049644	-0.081177	-0.012006	-0.851240	-0.048044	0.522573	-0.003191	-0.995308	-0.096704	0.524767	-0.083986	0.847093
08864	5.468681	-0.805840	8.728695	-0.056272	-0.082383	-0.007453	-0.850779	-0.047988	0.523327	-0.003615	-0.995264	-0.097142	0.525511	-0.084538	0.846577
08865	5.594647	-0.705271	8.692871	-0.080643	-0.096426	0.005833	-0.850268	-0.048072	0.524150	-0.004062	-0.995192	-0.097863	0.526334	-0.085339	0.845985
08866	5.503594	-0.964410	8.640204	-0.114148	-0.099280	0.021696	-0.849718	-0.048324	0.525018	-0.004543	-0.995083	-0.098942	0.527218	-0.086458	0.845320
08867	5.402225	-1.247291	8.586820	-0.114148	-0.102517	0.017358	-0.849174	-0.048529	0.525879	-0.005070	-0.994974	-0.100006	0.528089	-0.087589	0.844660
08868	5.387019	-1.380688	8.564443	-0.098048	-0.098638	0.006448	-0.848624	-0.048630	0.526756	-0.005598	-0.994884	-0.100867	0.528966	-0.088547	0.844011
08869	5.328558	-1.275797	8.650500	-0.067872	-0.103322	-0.006349	-0.848073	-0.048603	0.527646	-0.006084	-0.994826	-0.101414	0.529845	-0.089217	0.843389
08870	5.370896	-1.484057	8.604824	-0.049652	-0.119298	-0.016240	-0.847411	-0.048496	0.528718	-0.006553	-0.994789	-0.101748	0.530897	-0.089687	0.842677
08871	5.312694	-1.615347	8.620586	-0.028173	-0.121921	-0.041755	-0.846756	-0.048134	0.529800	-0.007129	-0.994782	-0.101772	0.531934	-0.089953	0.841994
08872	4.884259	-1.812900	8.867594	-0.011986	-0.158140	-0.066962	-0.845880	-0.047555	0.531248	-0.007832	-0.994803	-0.101520	0.533315	-0.090034	0.841112
08873	5.243730	-1.751265	8.695240	0.026992	-0.227402	-0.098525	-0.844653	-0.046723	0.533272	-0.008593	-0.994872	-0.100776	0.535246	-0.089704	0.839920
08874	4.958609	-1.329864	8.971081	0.033993	-0.269330	-0.137254	-0.843168	-0.045538	0.535718	-0.009649	-0.994965	-0.099762	0.537563	-0.089285	0.838483
08875	4.311661	-0.525870	9.420400	-0.042722	-0.280827	-0.191394	-0.841630	-0.043829	0.538273	-0.011564	-0.995010	-0.099100	0.539930	-0.089630	0.836924
08876	5.529443	-0.637377	9.116064	-0.086635	-0.573901	-0.128400	-0.838475	-0.043009	0.543240	-0.013190	-0.994987	-0.099133	0.544780	-0.090286	0.833704
08877	4.830077	-0.591987	9.121906	-0.140443	-0.521237	-0.124779	-0.835602	-0.042185	0.547714	-0.015076	-0.994911	-0.099628	0.549129	-0.091506	0.830713
08878	5.327267	-0.237101	9.268797	-0.143806	-0.670258	-0.095044	-0.831860	-0.041800	0.553409	-0.016736	-0.994817	-0.100298	0.554733	-0.092695	0.826849
08879	5.163861	-0.305406	9.174242	-0.211713	-0.792139	-0.055509	-0.827425	-0.041934	0.560008	-0.018451	-0.994640	-0.101740	0.561273	-0.094515	0.822216
08880	5.206546	-0.711855	9.041591	-0.267597	-0.922926	-0.033550	-0.822176	-0.042431	0.567649	-0.020306	-0.994397	-0.103741	0.568871	-0.096820	0.816708
08881	5.388584	-0.964783	8.887738	-0.253448	-1.047793	-0.031735	-0.816158	-0.043085	0.576220	-0.022091	-0.994161	-0.105626	0.577406	-0.098937	0.810441
08882	5.634076	-1.265251	8.742205	-0.208660	-1.181881	-0.048747	-0.809239	-0.043729	0.585850	-0.023767	-0.993973	-0.107021	0.586999	-0.100529	0.803322
08883	5.616606	-1.726319	8.694694	-0.104418	-1.308792	-0.092917	-0.801459	-0.044068	0.596424	-0.025206	-0.993906	-0.107309	0.597519	-0.101037	0.795464
08884	5.781746	-1.851270	8.439376	0.069718	-1.461000	-0.164683	-0.792574	-0.043845	0.608198	-0.026166	-0.994047	-0.105759	0.609215	-0.099736	0.786708
08885	5.471468	-1.777324	8.808325	0.151102	-1.660790	-0.216560	-0.782283	-0.043275	0.621419	-0.027013	-0.994289	-0.103247	0.622338	-0.097555	0.776646
08886	4.162467	-1.941281	10.147616	0.211229	-1.973684	-0.294197	-0.769739	-0.042189	0.636963	-0.028040	-0.994616	-0.099763	0.637743	-0.094652	0.764412
08887	3.087603	-2.489714	10.178960	0.352484	-2.456063	-0.513153	-0.753689	-0.039298	0.656055	-0.029740	-0.995149	-0.093776	0.656558	-0.090189	0.748864
08888	3.502088	-2.159192	9.290477	0.558195	-3.029065	-0.752139	-0.733201	-0.034380	0.679142	-0.031687	-0.995909	-0.084625	0.679273	-0.083567	0.729112
08889	3.283847	-2.113427	9.137095	0.659294	-3.577638	-1.034842	-0.708081	-0.026866	0.705620	-0.034653	-0.996750	-0.072724	0.705281	-0.075947	0.704848
08890	3.106650	-2.941002	9.333921	0.743704	-4.180781	-1.342650	-0.677466	-0.016413	0.735371	-0.038695	-0.997571	-0.057913	0.734535	-0.067689	0.675186
08891	6.264492	-3.873996	10.485734	0.867314	-4.645865	-1.628660	-0.641939	-0.003035	0.766749	-0.043007	-0.998275	-0.039957	0.765548	-0.058625	0.640702
08892	8.021945	-3.307907	10.421771	1.182810	-4.826216	-1.875890	-0.603400	0.013219	0.797329	-0.045568	-0.998800	-0.017926	0.796136	-0.047149	0.603278
08893	9.720225	-3.043144	10.460706	0.917931	-4.915483	-1.953449	-0.562602	0.030671	0.826158	-0.049587	-0.998764	0.003311	0.825239	-0.039104	0.563428
08894	11.569229	-2.494878	10.759940	0.873938	-5.021751	-2.007423	-0.519412	0.048993	0.853118	-0.053256	-0.998270	0.024905	0.852863	-0.032497	0.521123
08895	11.662795	-1.923773	10.093746	0.543976	-4.917261	-2.055589	-0.475693	0.068028	0.876977	-0.058845	-0.997233	0.045437	0.877641	-0.029992	0.478379
08896	12.140972	-2.608333	9.590951	0.333868	-4.933784	-2.103673	-0.430504	0.087564	0.898331	-0.065571	-0.995687	0.065631	0.900204	-0.030651	0.434389
08897	14.279791	-3.768319	10.718111	0.176432	-4.861856	-2.191893	-0.384712	0.107863	0.916713	-0.072966	-0.993595	0.086288	0.920148	-0.033693	0.390118
08898	14.170977	-6.920121	10.669875	0.319674	-4.497949	-2.386255	-0.341118	0.130031	0.930984	-0.078855	-0.990854	0.109500	0.936707	-0.036060	0.348252
08899	11.780335	-7.723943	11.337905	0.888702	-4.190974	-2.715242	-0.299398	0.155495	0.941373	-0.079225	-0.987275	0.137880	0.950833	-0.033299	0.307907
08900	10.741219	-8.170184	12.071262	1.339605	-3.623221	-3.007868	-0.262397	0.184075	0.947240	-0.075134	-0.982554	0.170125	0.962030	-0.026530	0.271650
08901	0.928630	-10.175830	10.791203	1.956269	-3.106032	-3.317002	-0.230043	0.216001	0.948906	-0.064449	-0.976298	0.206612	0.971044	-0.013626	0.238512
08902	-10.721638	-7.972053	6.396002	3.856120	-4.000692	-3.907129	-0.188994	0.253992	0.948562	-0.035344	-0.967104	0.251915	0.981342	0.014085	0.191754
08903	31.691926	5.089329	12.972882	4.127140	-4.217762	-2.858124	-0.146917	0.282765	0.947871	0.000476	-0.958249	0.285934	0.989149	0.042460	0.140648
08904	18.174598	14.339064	22.189359	1.386495	0.673139	-1.673416	-0.153632	0.298392	0.941998	0.011265	-0.952724	0.303628	0.988064	0.057259	0.143007
08905	13.138548	1.390332	18.213801	-1.623512	1.932445	0.314427	-0.172678	0.294437	0.939941	-0.004294	-0.954492	0.298207	0.984969	0.047458	0.166084
08906	-2.858944	-2.947547	9.684112	-0.894225	2.529991	0.280605	-0.197562	0.290564	0.936238	-0.012957	-0.955753	0.293886	0.980205	0.045930	0.192586
08907	-6.423167	-1.424943	6.940207	-1.349626	2.311806	0.560652	-0.220264	0.284266	0.933101	-0.025039	-0.957927	0.285918	0.975119	0.039614	0.218114
08908	-2.807589	-2.475675	6.056765	-1.440165	2.041986	0.753465	-0.240377	0.276317	0.930520	-0.037720	-0.960562	0.275494	0.969946	0.031123	0.241320
08909	-0.590548	-3.599563	7.005429	-1.236814	1.942337	0.694227	-0.259453	0.269157	0.927491	-0.048009	-0.962785	0.265969	0.964562	0.024479	0.262719
08910	2.246481	-2.332285	8.235775	-0.849198	2.005779	0.549981	-0.279053	0.263412	0.923441	-0.055131	-0.964450	0.258449	0.958692	0.021211	0.283655
08911	4.870240	-0.680344	8.981972	-0.764012	2.358212	0.535075	-0.301876	0.257818	0.917824	-0.060936	-0.965988	0.251305	0.951398	0.019935	0.307319
08912	5.964233	0.593248	8.904358	-0.829659	2.884230	0.578304	-0.329589	0.251697	0.909956	-0.067425	-0.967623	0.243227	0.941714	0.018811	0.335888
08913	5.408006	1.214708	7.892747	-1.032265	3.364899	0.638430	-0.361515	0.244966	0.899610	-0.074942	-0.969381	0.233848	0.929349	0.017121	0.368804
08914	4.189190	1.132196	6.502831	-1.283363	3.636499	0.704624	-0.395657	0.237637	0.887121	-0.084576	-0.971267	0.222456	0.914496	0.012987	0.404387
08915	3.811918	0.473827	5.529622	-1.469786	3.697261	0.758294	-0.429835	0.229945	0.873136	-0.094835	-0.973176	0.209605	0.897913	0.007292	0.440112
08916	4.661223	-0.198107	5.326269	-1.540205	3.634780	0.817535	-0.463027	0.221933	0.858109	-0.105348	-0.975062	0.195336	0.880061	0.000046	0.474860
08917	5.901972	-0.466559	5.443962	-1.537580	3.565196	0.909180	-0.495059	0.213244	0.842285	-0.114451	-0.976972	0.180074	0.861288	-0.007253	0.508065
08918	7.001133	-0.818764	5.573582	-1.485852	3.514168	1.015157	-0.526243	0.203823	0.825545	-0.122397	-0.978894	0.163662	0.841479	-0.014918	0.540084
08919	7.494284	-1.050928	5.741369	-1.369489	3.493519	1.047309	-0.556583	0.194253	0.807763	-0.128183	-0.980717	0.147522	0.820844	-0.021433	0.570750
08920	7.795241	-1.066458	6.183223	-1.277676	3.486655	1.078527	-0.586294	0.184676	0.788768	-0.132863	-0.982405	0.131255	0.799129	-0.027844	0.600515
08921	8.531096	-1.290786	6.984350	-1.230241	3.492521	1.183576	-0.615387	0.174170	0.768742	-0.135518	-0.984138	0.114487	0.776488	-0.033725	0.629229
08922	9.734743	-1.295111	7.759039	-1.182014	3.530193	1.375437	-0.644306	0.162109	0.747389	-0.136402	-0.985965	0.096267	0.752505	-0.039920	0.657375
08923	11.389936	-0.797019	8.147997	-1.225247	3.604145	1.666423	-0.673218	0.147275	0.724629	-0.134564	-0.988003	0.075786	0.727097	-0.046489	0.684959
08924	12.503319	-0.838195	7.767053	-1.296425	3.717875	2.073933	-0.702548	0.128869	0.699871	-0.130069	-0.990153	0.051753	0.699649	-0.054673	0.712392
08925	12.426047	-1.000633	7.170964	-1.292903	3.770104	2.584738	-0.731617	0.105522	0.673500	-0.120470	-0.992412	0.024622	0.670987	-0.063123	0.738777
08926	12.114987	-0.631413	6.908985	-1.141770	3.702676	3.084012	-0.759478	0.077646	0.645883	-0.105502	-0.994409	-0.004512	0.641921	-0.071569	0.763423
08927	12.809316	0.162342	7.536114	-0.926323	3.577856	3.468816	-0.785228	0.045866	0.617506	-0.084598	-0.995848	-0.033607	0.613401	-0.078629	0.785848
08928	13.977404	1.093966	8.523447	-0.645215	3.502465	3.613727	-0.808912	0.013029	0.587785	-0.060180	-0.996338	-0.060735	0.584842	-0.084502	0.806734
08929	14.918693	2.565309	8.951341	-0.340531	3.480464	3.468219	-0.830395	-0.018464	0.556869	-0.033768	-0.995946	-0.083377	0.556151	-0.088040	0.826405
08930	15.734756	4.896335	8.733976	-0.144915	3.471120	3.048489	-0.849943	-0.045381	0.524917	-0.009429	-0.994814	-0.101272	0.526790	-0.091025	0.845107
08931	16.666668	7.508703	7.489594	-0.143051	3.362649	2.460420	-0.867153	-0.066665	0.493560	0.010887	-0.993301	-0.115037	0.497923	-0.094382	0.862070
08932	17.560568	9.334311	5.183055	-0.472866	3.163278	1.781286	-0.882244	-0.080944	0.463783	0.023767	-0.991510	-0.127837	0.470193	-0.101761	0.876678
08933	17.133242	9.129094	2.579330	-1.193029	2.858501	1.149554	-0.895025	-0.089156	0.437013	0.028445	-0.989233	-0.143560	0.445107	-0.116059	0.887924
08934	17.640146	7.349426	0.097255	-1.623683	2.327201	0.591918	-0.905044	-0.091852	0.415281	0.026405	-0.986653	-0.160682	0.424497	-0.134459	0.895390
08935	16.355267	2.373335	-1.212588	-1.972792	1.885222	0.167837	-0.912851	-0.090711	0.398090	0.019643	-0.983636	-0.179094	0.407821	-0.155666	0.899694
08936	16.239840	-9.350040	-11.060183	-0.316275	-0.063878	-0.744320	-0.912743	-0.083292	0.399953	0.011309	-0.983772	-0.179066	0.408377	-0.158918	0.898873
08937	22.547900	2.400185	-8.486023	2.136682	-0.118365	-1.776802	-0.912391	-0.065887	0.403982	0.003752	-0.988265	-0.152705	0.409302	-0.137811	0.901931
08938	19.482923	6.723651	-7.522868	1.550844	-0.810863	-1.414794	-0.909063	-0.052719	0.413310	-0.003016	-0.991105	-0.133051	0.416648	-0.122199	0.900817
08939	16.329374	3.205498	-10.177557	1.606156	-1.484211	-0.249975	-0.902774	-0.051869	0.426976	0.001442	-0.993062	-0.117587	0.430112	-0.105539	0.896585
08940	1.396640	9.028994	0.103642	2.579625	-1.419669	-0.313732	-0.896587	-0.049879	0.440049	0.009632	-0.995598	-0.093225	0.442762	-0.079346	0.893121
08941	8.701302	23.015048	15.157747	1.510285	-2.080556	-0.019087	-0.887184	-0.051112	0.458576	0.016210	-0.996685	-0.079730	0.461131	-0.063302	0.885071
08942	6.109795	20.621628	15.818592	-0.743969	-1.416314	0.648912	-0.880431	-0.058453	0.470558	0.018376	-0.995833	-0.089322	0.473818	-0.069994	0.877837
08943	3.869653	6.938027	15.219837	-1.885918	-2.347774	0.778538	-0.868925	-0.067986	0.490252	0.015974	-0.993857	-0.109510	0.494686	-0.087325	0.864674
08944	37.550585	-34.467899	2.840274	-2.561693	-1.818163	-1.275662	-0.859807	-0.057152	0.507410	-0.007883	-0.992112	-0.125103	0.510558	-0.111564	0.852575
08945	8.109608	14.894236	30.998197	5.561325	0.841586	-1.478637	-0.864069	-0.041669	0.501646	0.007490	-0.997522	-0.069958	0.503318	-0.056691	0.862239
08946	-1.265762	-5.482989	-6.576266	-2.520743	-0.883442	0.997126	-0.859497	-0.052197	0.508468	0.003280	-0.995315	-0.096631	0.511130	-0.081386	0.855642
08947	18.883610	0.678164	15.134363	-1.199891	0.239104	0.073991	-0.860713	-0.052664	0.506359	-0.002284	-0.994226	-0.107286	0.509085	-0.093499	0.855623
08948	-2.868224	-3.328475	8.587563	0.854238	-0.144451	-0.196749	-0.859933	-0.050808	0.507872	0.000345	-0.995091	-0.098967	0.510407	-0.084930	0.855729
08949	8.448949	-4.429432	7.458483	-0.578072	0.045839	-0.020850	-0.860163	-0.050500	0.507513	-0.002863	-0.994592	-0.103820	0.510011	-0.090755	0.855367
08950	4.859260	0.851464	8.971450	0.794198	-0.109548	-0.257920	-0.859561	-0.047982	0.508776	-0.001088	-0.995408	-0.095714	0.511033	-0.082826	0.855561
08951	6.456369	0.905678	8.886032	-0.170355	0.055205	-0.078163	-0.859838	-0.047098	0.508390	-0.002709	-0.995301	-0.096787	0.510560	-0.084599	0.855670
08952	6.640606	-0.374654	8.895566	0.125669	0.053930	-0.050961	-0.860072	-0.046510	0.508048	-0.002550	-0.995431	-0.095445	0.510166	-0.083385	0.856024
08953	5.214179	1.155939	9.231968	0.033356	0.063785	0.007713	-0.860394	-0.046474	0.507506	-0.002392	-0.995454	-0.095212	0.509624	-0.083134	0.856372
08954	5.091663	0.399140	9.133527	-0.028752	0.007024	0.057570	-0.860390	-0.047014	0.507463	-0.002074	-0.995404	-0.095737	0.509632	-0.083424	0.856339
08955	5.168185	-0.488130	8.830405	-0.118657	-0.016831	0.084331	-0.860303	-0.047808	0.507537	-0.002032	-0.995263	-0.097194	0.509779	-0.084648	0.856131
08956	5.074121	-0.780308	8.660239	-0.074448	-0.024232	0.078935	-0.860139	-0.048593	0.507739	-0.001756	-0.995164	-0.098216	0.510056	-0.085371	0.855894
08957	5.677907	-1.192394	8.761153	-0.132692	-0.032213	0.080298	-0.859973	-0.049359	0.507947	-0.001821	-0.995009	-0.099772	0.510336	-0.086727	0.855591
08958	5.440925	-2.501509	8.288992	-0.085254	0.029469	0.056940	-0.860083	-0.049879	0.507710	-0.001790	-0.994908	-0.100774	0.510151	-0.087583	0.855614
08959	5.168295	-1.944168	8.633245	-0.013411	0.043174	0.024036	-0.860300	-0.050020	0.507328	-0.001730	-0.994882	-0.101024	0.509784	-0.087789	0.855811
08960	5.212732	-1.507666	8.685761	0.000327	0.024848	0.011438	-0.860386	-0.050083	0.507175	-0.001665	-0.994878	-0.101068	0.509639	-0.087802	0.855896
08961	5.127138	-1.196456	8.767169	0.005765	0.030125	0.006565	-0.860537	-0.050062	0.506922	-0.001658	-0.994878	-0.101065	0.509386	-0.087811	0.856046
08962	5.210396	-1.183222	8.716094	0.002869	0.010254	0.003471	-0.860549	-0.050056	0.506903	-0.001652	-0.994880	-0.101048	0.509366	-0.087794	0.856060
08963	5.388961	-0.916966	8.733985	0.014901	0.015748	-0.000252	-0.860625	-0.049980	0.506780	-0.001657	-0.994892	-0.100932	0.509236	-0.087705	0.856146
08964	5.298448	-0.655636	8.768633	0.011518	0.009936	0.005004	-0.860636	-0.049989	0.506762	-0.001594	-0.994900	-0.100849	0.509219	-0.087602	0.856167
08965	5.200657	-0.853071	8.845509	-0.010539	-0.009633	0.015389	-0.860584	-0.050091	0.506840	-0.001594	-0.994882	-0.101030	0.509307	-0.087753	0.856099
08966	5.217085	-1.377292	8.749889	-0.007185	-0.019027	0.009607	-0.860446	-0.050173	0.507065	-0.001585	-0.994872	-0.101130	0.509539	-0.087820	0.855954
08967	5.298626	-1.199229	8.694677	0.003200	-0.027956	0.002794	-0.860300	-0.050165	0.507313	-0.001623	-0.994872	-0.101129	0.509785	-0.087825	0.855807
08968	5.348625	-1.086773	8.639115	-0.004642	-0.028033	0.002545	-0.860117	-0.050183	0.507622	-0.001665	-0.994868	-0.101172	0.510094	-0.087865	0.855619
08969	5.272302	-1.049181	8.735776	-0.005011	-0.027391	-0.000916	-0.859974	-0.050138	0.507869	-0.001776	-0.994862	-0.101223	0.510335	-0.087952	0.855467
08970	5.205306	-1.178998	8.679695	-0.014545	-0.033171	0.001015	-0.859764	-0.050145	0.508223	-0.001882	-0.994850	-0.101343	0.510687	-0.088088	0.855242
08971	5.287463	-0.892711	8.684424	-0.009136	-0.037514	-0.003483	-0.859569	-0.050084	0.508559	-0.002037	-0.994842	-0.101417	0.511015	-0.088211	0.855033
08972	5.300875	-0.763624	8.743095	-0.024124	-0.035831	0.007317	-0.859346	-0.050155	0.508929	-0.002138	-0.994818	-0.101651	0.511390	-0.088441	0.854785
08973	5.356163	-1.035924	8.644140	-0.030395	-0.039164	0.013099	-0.859142	-0.050260	0.509263	-0.002260	-0.994783	-0.101990	0.511732	-0.088775	0.854546
08974	5.306575	-1.094660	8.633554	-0.023711	-0.034027	0.007322	-0.858928	-0.050331	0.509617	-0.002358	-0.994759	-0.102220	0.512091	-0.089001	0.854307
08975	5.160338	-1.404872	8.630899	-0.031952	-0.037493	0.004901	-0.858732	-0.050354	0.509944	-0.002558	-0.994727	-0.102530	0.512418	-0.089351	0.854075
08976	5.033670	-1.371080	8.710221	-0.019920	-0.050346	-0.003735	-0.858434	-0.050328	0.510450	-0.002735	-0.994711	-0.102672	0.512917	-0.089533	0.853756
08977	5.110313	-1.243871	8.684203	-0.010831	-0.068773	-0.009294	-0.858077	-0.050237	0.511058	-0.002948	-0.994705	-0.102730	0.513513	-0.089657	0.853385
08978	5.391150	-0.781231	8.774399	-0.022890	-0.078337	-0.004261	-0.857634	-0.050229	0.511801	-0.003147	-0.994687	-0.102895	0.514251	-0.089857	0.852920
08979	5.200266	-1.175929	8.715335	-0.032422	-0.078555	-0.001399	-0.857226	-0.050227	0.512485	-0.003404	-0.994657	-0.103177	0.514929	-0.090191	0.852475
08980	5.390521	-1.050244	8.697292	-0.034906	-0.092637	-0.005760	-0.856708	-0.050218	0.513351	-0.003678	-0.994629	-0.103436	0.515788	-0.090503	0.851923
08981	5.535263	-0.983485	8.647932	-0.027801	-0.074479	-0.009731	-0.856320	-0.050129	0.514007	-0.003983	-0.994607	-0.103636	0.516430	-0.090793	0.851502
08982	5.342953	-0.971119	8.655556	-0.041108	-0.076759	-0.000685	-0.855883	-0.050156	0.514732	-0.004247	-0.994571	-0.103973	0.517152	-0.091175	0.851023
08983	5.367648	-1.146662	8.760301	-0.055134	-0.082443	-0.005100	-0.855452	-0.050121	0.515451	-0.004654	-0.994522	-0.104428	0.517861	-0.091732	0.850532
08984	5.255730	-1.309917	8.715788	-0.051762	-0.085370	-0.015631	-0.854969	-0.050009	0.516263	-0.005101	-0.994482	-0.104779	0.518655	-0.092216	0.849996
08985	5.296708	-1.193079	8.702277	-0.043085	-0.103196	-0.024684	-0.854428	-0.049799	0.517178	-0.005613	-0.994453	-0.105029	0.519540	-0.092643	0.849409
08986	5.559584	-0.938056	8.659667	-0.033157	-0.101206	-0.027554	-0.853859	-0.049582	0.518137	-0.006068	-0.994437	-0.105160	0.520468	-0.092936	0.848808
08987	5.498920	-0.852245	8.645209	-0.039774	-0.085552	-0.020278	-0.853409	-0.049400	0.518896	-0.006527	-0.994408	-0.105404	0.521202	-0.093340	0.848314
08988	5.327847	-0.850590	8.738340	-0.058867	-0.092549	-0.009745	-0.852884	-0.049354	0.519762	-0.006963	-0.994358	-0.105844	0.522053	-0.093892	0.847729
08989	5.384633	-1.041880	8.671788	-0.074231	-0.107158	-0.005019	-0.852320	-0.049345	0.520687	-0.007471	-0.994289	-0.106459	0.522967	-0.094627	0.847084
08990	5.474180	-1.060035	8.665862	-0.083330	-0.108750	-0.006461	-0.851709	-0.049349	0.521686	-0.008008	-0.994214	-0.107121	0.523953	-0.095413	0.846386
08991	5.451973	-1.133698	8.658670	-0.099091	-0.113997	0.000110	-0.851108	-0.049400	0.522662	-0.008604	-0.994117	-0.107971	0.524921	-0.096392	0.845675
08992	5.408069	-1.359756	8.666488	-0.094948	-0.118913	-0.011336	-0.850440	-0.049366	0.523750	-0.009245	-0.994031	-0.108705	0.525990	-0.097289	0.844908
08993	5.340633	-1.599015	8.565919	-0.070926	-0.117193	-0.032088	-0.849816	-0.049102	0.524787	-0.009969	-0.993976	-0.109147	0.526985	-0.097986	0.844207
08994	5.298793	-1.603541	8.620283	-0.046493	-0.116748	-0.057227	-0.849153	-0.048610	0.525905	-0.010750	-0.993958	-0.109230	0.528037	-0.098406	0.843501
08995	5.237699	-1.486427	8.728954	-0.013045	-0.130994	-0.075879	-0.848448	-0.047925	0.527104	-0.011541	-0.993980	-0.108951	0.529153	-0.098523	0.842788
08996	5.010728	-1.503568	8.959993	-0.021817	-0.163664	-0.088425	-0.847530	-0.047167	0.528648	-0.012460	-0.994001	-0.108661	0.530602	-0.098680	0.841857
08997	5.100476	-1.641022	8.887068	0.005575	-0.266883	-0.098102	-0.846093	-0.046395	0.531012	-0.013339	-0.994050	-0.108105	0.532868	-0.098550	0.840440
08998	4.899678	-1.200818	9.128808	0.013676	-0.301302	-0.113366	-0.844428	-0.045521	0.533731	-0.014281	-0.994115	-0.107381	0.535478	-0.098298	0.838809
08999	4.321896	-0.063276	9.696555	-0.008131	-0.388032	-0.134777	-0.842319	-0.044503	0.537138	-0.015539	-0.994166	-0.106738	0.538755	-0.098254	0.836714
09000	5.241872	-0.725652	9.143749	-0.174715	-0.680583	-0.085936	-0.838580	-0.044281	0.542976	-0.017261	-0.994031	-0.107724	0.544505	-0.099708	0.832810
09001	4.672705	-0.491045	9.305490	-0.182922	-0.661432	-0.083997	-0.834940	-0.044052	0.548575	-0.019043	-0.993882	-0.108795	0.550012	-0.101283	0.828993
09002	5.595575	-0.344965	8.969675	-0.200184	-0.821786	-0.044250	-0.830343	-0.044412	0.555479	-0.020568	-0.993697	-0.110194	0.556872	-0.102924	0.824197
09003	5.437379	-0.630585	8.740583	-0.223521	-0.926538	0.001790	-0.825144	-0.045333	0.563101	-0.021884	-0.993462	-0.112048	0.564499	-0.104779	0.818757
09004	5.397731	-1.024723	8.702944	-0.250435	-1.024267	0.014978	-0.819281	-0.046529	0.571501	-0.023229	-0.993191	-0.114161	0.572921	-0.106805	0.812622
09005	5.404976	-1.409553	8.641650	-0.215330	-1.151873	0.007896	-0.812625	-0.047788	0.580825	-0.024486	-0.992953	-0.115955	0.582273	-0.108450	0.805728
09006	5.492614	-1.767125	8.661133	-0.184659	-1.298468	-0.032356	-0.804947	-0.048845	0.591333	-0.025877	-0.992768	-0.117229	0.592783	-0.109665	0.797861
09007	5.705934	-2.173790	8.475079	-0.104028	-1.458440	-0.087949	-0.796187	-0.049515	0.603021	-0.027282	-0.992694	-0.117533	0.604435	-0.110030	0.789019
09008	5.788147	-1.923525	8.596159	0.055437	-1.624832	-0.137442	-0.786182	-0.049885	0.615979	-0.028082	-0.992823	-0.116245	0.617357	-0.108688	0.779139
09009	5.209716	-1.295420	9.165025	0.155100	-1.841973	-0.171464	-0.774622	-0.050103	0.630436	-0.028530	-0.993074	-0.113978	0.631780	-0.106276	0.767827
09010	4.234455	-1.579833	9.362157	0.127694	-2.173259	-0.239902	-0.760599	-0.049959	0.647297	-0.029608	-0.993328	-0.111457	0.648547	-0.103939	0.754045
09011	3.785939	-1.800465	9.796670	0.185384	-2.586021	-0.377288	-0.743453	-0.048800	0.667006	-0.031303	-0.993702	-0.107593	0.668056	-0.100870	0.737243
09012	3.076100	-1.489089	9.401338	0.369284	-3.106345	-0.556184	-0.722127	-0.046276	0.690211	-0.032927	-0.994330	-0.101116	0.690977	-0.095745	0.716508
09013	3.527410	-1.785596	9.030154	0.309497	-3.661770	-0.720616	-0.696089	-0.042469	0.716698	-0.035937	-0.994937	-0.093860	0.717055	-0.091091	0.691038
09014	4.353602	-3.250232	9.673910	0.271406	-4.114268	-0.975047	-0.665598	-0.036370	0.745424	-0.040653	-0.995562	-0.084875	0.745202	-0.086796	0.661165
09015	5.695954	-3.713413	9.854589	0.541985	-4.520482	-1.281589	-0.630681	-0.027315	0.775561	-0.044919	-0.996420	-0.071621	0.774741	-0.080007	0.627196
09016	7.936685	-3.339486	10.095971	0.673385	-4.811059	-1.535286	-0.591936	-0.015611	0.805834	-0.049069	-0.997260	-0.055364	0.804490	-0.072313	0.589548
09017	9.494168	-3.053598	10.348351	0.609002	-4.922674	-1.662537	-0.550761	-0.002365	0.834660	-0.053658	-0.997827	-0.038234	0.832936	-0.065844	0.549437
09018	11.519430	-1.913130	10.569449	0.608297	-5.033860	-1.719119	-0.507164	0.011690	0.861770	-0.057703	-0.998125	-0.020420	0.859916	-0.060083	0.506888
09019	10.553720	-1.241177	9.505012	0.235242	-4.931523	-1.750301	-0.463077	0.026292	0.885928	-0.064218	-0.997928	-0.003951	0.883989	-0.058722	0.463806
09020	11.007393	-2.058501	8.744766	-0.156559	-4.965153	-1.724583	-0.417432	0.040563	0.907803	-0.073319	-0.997250	0.010846	0.905746	-0.062032	0.419257
09021	12.390799	-2.652421	8.874119	-0.244439	-4.991844	-1.775888	-0.370325	0.055109	0.927266	-0.082623	-0.996236	0.026210	0.925220	-0.066908	0.373485
09022	14.153279	-4.039340	9.466115	-0.172733	-4.795754	-1.937838	-0.323852	0.071136	0.943430	-0.091086	-0.994882	0.043749	0.941713	-0.071765	0.328674
09023	15.995835	-5.664879	11.329302	-0.120317	-4.446250	-2.041773	-0.279729	0.088197	0.956019	-0.098456	-0.993157	0.062815	0.955017	-0.076555	0.286498
09024	12.879274	-6.751289	12.027523	0.301231	-3.892129	-2.336759	-0.240003	0.108429	0.964698	-0.101802	-0.991075	0.086067	0.965419	-0.077552	0.248899
