// General information: 
//  MT Manager version: 2022.2.0 
//  XDA version: 2022.2.0 build 7381 rev 124627 built on 2023-07-19
// Device information: 
//  DeviceId: 00B4CAF0
//  ProductCode: MTW2-3A7G6
//  Firmware Version: 4.6.0
//  Hardware Version: 2.0.0
// Device settings: 
//  Filter Profile: human(46.1)
//  Option Flags: Orientation Smoother Disabled, Position/Velocity Smoother Disabled, Continuous Zero Rotation Update Disabled, AHS Disabled, ICC Disabled
// Coordinate system: ENU
PacketCounter	Acc_X	Acc_Y	Acc_Z	Gyr_X	Gyr_Y	Gyr_Z	Mat[1][1]	Mat[2][1]	Mat[3][1]	Mat[1][2]	Mat[2][2]	Mat[3][2]	Mat[1][3]	Mat[2][3]	Mat[3][3]
41094	15.572517	2.973957	1.058289	-0.403402	-0.705328	-0.240884	-0.866677	-0.262639	0.424136	0.361391	-0.916626	0.170860	0.343900	0.301359	0.889334
41095	14.059748	2.762170	1.167346	-0.553220	-0.788221	-0.434629	-0.865513	-0.256220	0.430393	0.355612	-0.919454	0.167764	0.352741	0.298255	0.886914
41096	12.619049	2.405355	0.950681	-0.624903	-0.935699	-0.626707	-0.864377	-0.247633	0.437641	0.347908	-0.922907	0.164932	0.363060	0.294822	0.883894
41097	10.702707	1.915373	0.799470	-0.634152	-1.205557	-0.807792	-0.862708	-0.236582	0.446950	0.338528	-0.926752	0.162878	0.375678	0.291821	0.879606
41098	8.513526	1.521870	1.817371	-0.640984	-1.432662	-0.955163	-0.860411	-0.223509	0.457970	0.327796	-0.930832	0.161560	0.390183	0.289129	0.874164
41099	3.312190	1.221614	8.534118	-0.825048	-1.333151	-1.048172	-0.858489	-0.209875	0.467921	0.315466	-0.935489	0.159189	0.404325	0.284275	0.869315
41100	8.422257	-0.926475	10.886047	-0.893784	-1.889152	-0.979465	-0.853707	-0.195323	0.482735	0.303332	-0.940014	0.156091	0.423289	0.279685	0.861744
41101	12.833964	4.630916	13.364171	-0.657532	-1.656525	-0.128846	-0.846950	-0.189473	0.496764	0.299356	-0.942110	0.151047	0.439387	0.276639	0.854640
41102	19.271879	-12.848623	10.922082	-1.832154	-0.756168	0.969708	-0.840685	-0.196553	0.504595	0.299329	-0.945180	0.130528	0.451277	0.260772	0.853432
41103	4.256095	-10.535335	11.742639	0.584269	0.451223	-0.028134	-0.842786	-0.197459	0.500721	0.301682	-0.943713	0.135621	0.445758	0.265358	0.854918
41104	8.488052	5.949349	7.687168	0.482613	-0.545355	-0.062279	-0.840540	-0.195370	0.505295	0.303267	-0.942560	0.140036	0.448912	0.270945	0.851508
41105	4.064977	6.282043	8.636564	-0.045194	0.212209	-0.025000	-0.841558	-0.195695	0.503471	0.302823	-0.942747	0.139734	0.447300	0.270057	0.852638
41106	4.109511	4.612591	8.583605	-0.264945	-0.401366	0.121001	-0.839394	-0.195716	0.507064	0.302599	-0.943242	0.136850	0.451500	0.268308	0.850975
41107	5.283621	-0.100070	9.301737	-0.376794	-0.369430	0.194160	-0.837123	-0.196547	0.510484	0.302486	-0.943882	0.132621	0.455771	0.265434	0.849598
41108	6.507113	-0.996839	9.088732	-0.222051	-0.365981	0.148438	-0.835004	-0.196940	0.513793	0.302660	-0.944196	0.129960	0.459527	0.264022	0.848014
41109	5.407888	-0.596218	8.778386	-0.112742	-0.229574	0.091895	-0.833660	-0.197188	0.515875	0.302876	-0.944328	0.128492	0.461819	0.263365	0.846973
41110	5.313190	0.649560	8.692614	-0.042845	-0.322236	0.064147	-0.831978	-0.196905	0.518691	0.303161	-0.944333	0.127782	0.464656	0.263559	0.845359
41111	5.539021	1.274988	8.572400	-0.058830	-0.339799	0.055771	-0.830217	-0.196522	0.521650	0.303318	-0.944394	0.126954	0.467694	0.263625	0.843661
41112	5.884127	0.896552	8.630223	-0.073871	-0.342633	0.045743	-0.828475	-0.196011	0.524603	0.303300	-0.944518	0.126077	0.470784	0.263564	0.841960
41113	6.080906	0.287434	8.810795	-0.049118	-0.297036	0.020007	-0.827004	-0.195403	0.527145	0.303202	-0.944624	0.125518	0.473427	0.263635	0.840454
41114	5.865727	0.683701	8.726171	0.032893	-0.256290	-0.004884	-0.825807	-0.194641	0.529299	0.303267	-0.944565	0.125805	0.475470	0.264410	0.839057
41115	5.545329	1.633191	8.539027	0.041708	-0.258150	-0.003956	-0.824580	-0.193907	0.531477	0.303401	-0.944478	0.126134	0.477509	0.265259	0.837629
41116	5.647431	1.872869	8.507482	-0.017819	-0.257714	0.013479	-0.823311	-0.193311	0.533658	0.303376	-0.944517	0.125899	0.479711	0.265553	0.836277
41117	5.714737	1.447092	8.449644	-0.035941	-0.256128	0.024503	-0.821995	-0.192849	0.535848	0.303374	-0.944581	0.125427	0.481963	0.265663	0.834946
41118	5.731969	1.231082	8.458515	-0.033516	-0.237674	0.026914	-0.820770	-0.192433	0.537871	0.303382	-0.944636	0.124989	0.484041	0.265768	0.833710
41119	5.567041	1.422755	8.404720	-0.036202	-0.233121	0.033285	-0.819529	-0.192115	0.539874	0.303448	-0.944683	0.124468	0.486098	0.265829	0.832492
41120	5.678640	1.534456	8.399375	-0.047432	-0.252449	0.044285	-0.818169	-0.191823	0.542036	0.303529	-0.944743	0.123820	0.488333	0.265829	0.831183
41121	5.644349	1.435189	8.419680	-0.075354	-0.237047	0.058586	-0.816821	-0.191734	0.544096	0.303608	-0.944846	0.122836	0.490535	0.265528	0.829982
41122	6.023215	0.953923	8.927145	-0.104201	-0.290499	0.044453	-0.815262	-0.191344	0.546567	0.303407	-0.945055	0.121716	0.493246	0.265063	0.828523
41123	6.858315	0.827111	7.856480	-0.009949	-0.131698	0.009418	-0.814573	-0.191071	0.547688	0.303404	-0.945078	0.121543	0.494385	0.265177	0.827807
41124	5.141532	1.374935	8.941790	-0.083716	-0.185461	0.016979	-0.813608	-0.190701	0.549250	0.303077	-0.945286	0.120744	0.496172	0.264703	0.826889
41125	6.028386	1.116657	8.230046	-0.020979	-0.148907	0.019113	-0.812799	-0.190476	0.550524	0.303098	-0.945320	0.120426	0.497482	0.264745	0.826088
41126	5.833117	1.074116	8.413665	-0.052081	-0.152144	0.026032	-0.811967	-0.190280	0.551818	0.302999	-0.945426	0.119840	0.498900	0.264506	0.825309
41127	5.898598	0.932246	8.461127	-0.051670	-0.131809	0.018796	-0.811241	-0.190098	0.552948	0.302864	-0.945541	0.119270	0.500162	0.264225	0.824635
41128	5.826708	0.941763	8.459446	-0.020751	-0.134256	0.012207	-0.810536	-0.189819	0.554076	0.302807	-0.945591	0.119019	0.501337	0.264247	0.823914
41129	5.943193	0.917782	8.372569	-0.029431	-0.126770	0.003872	-0.809877	-0.189509	0.555145	0.302662	-0.945676	0.118716	0.502489	0.264166	0.823238
41130	5.917689	0.826013	8.469819	-0.011543	-0.116085	-0.005524	-0.809314	-0.189111	0.556101	0.302508	-0.945735	0.118638	0.503488	0.264240	0.822604
41131	5.931145	0.980311	8.375199	-0.003229	-0.105234	-0.015723	-0.808820	-0.188673	0.556968	0.302335	-0.945787	0.118660	0.504385	0.264365	0.822014
41132	5.846882	1.108250	8.384614	-0.003558	-0.102502	-0.018454	-0.808362	-0.188188	0.557795	0.302116	-0.945849	0.118721	0.505248	0.264488	0.821444
41133	5.858257	1.149497	8.335003	-0.003190	-0.096265	-0.014974	-0.807909	-0.187781	0.558588	0.301950	-0.945900	0.118739	0.506072	0.264596	0.820902
41134	5.749459	1.187516	8.395097	0.004798	-0.123221	-0.015540	-0.807336	-0.187269	0.559588	0.301797	-0.945935	0.118852	0.507076	0.264836	0.820205
41135	6.023058	1.180107	8.305320	-0.017880	-0.101169	-0.010908	-0.806844	-0.186887	0.560425	0.301590	-0.946017	0.118727	0.507982	0.264813	0.819651
41136	5.797629	1.244199	8.288832	-0.016165	-0.102318	-0.002810	-0.806337	-0.186550	0.561267	0.301433	-0.946083	0.118598	0.508880	0.264814	0.819093
41137	6.059877	1.178503	8.363996	-0.023903	-0.097720	0.004226	-0.805814	-0.186321	0.562092	0.301317	-0.946152	0.118339	0.509776	0.264728	0.818565
41138	5.881318	1.136101	8.269245	-0.036691	-0.068029	0.008006	-0.805447	-0.186177	0.562666	0.301143	-0.946252	0.117982	0.510458	0.264471	0.818222
41139	5.945362	1.208340	8.298319	-0.030360	-0.079469	0.007141	-0.805008	-0.186024	0.563345	0.301017	-0.946333	0.117654	0.511225	0.264289	0.817802
41140	5.997327	0.993826	8.225212	-0.054857	-0.056489	0.011138	-0.804689	-0.185941	0.563827	0.300774	-0.946475	0.117130	0.511869	0.263838	0.817545
41141	5.878420	1.123871	8.366256	-0.043881	-0.060385	0.010113	-0.804337	-0.185868	0.564353	0.300603	-0.946586	0.116676	0.512522	0.263493	0.817247
41142	5.995314	1.057666	8.272208	-0.050557	-0.069220	0.010920	-0.803954	-0.185749	0.564939	0.300380	-0.946717	0.116189	0.513255	0.263106	0.816912
41143	5.916319	1.066899	8.276738	-0.034594	-0.029403	0.012551	-0.803753	-0.185781	0.565214	0.300275	-0.946798	0.115796	0.513631	0.262791	0.816777
41144	5.979162	1.130205	8.341495	-0.044072	-0.046680	0.014179	-0.803474	-0.185753	0.565619	0.300111	-0.946905	0.115344	0.514162	0.262424	0.816560
41145	5.937858	1.091333	8.208698	-0.042228	-0.047588	0.014858	-0.803172	-0.185760	0.566046	0.299985	-0.947002	0.114876	0.514707	0.262071	0.816331
41146	5.931901	1.021257	8.227519	-0.049539	-0.019050	0.015625	-0.803031	-0.185818	0.566226	0.299804	-0.947120	0.114371	0.515032	0.261600	0.816276
41147	5.953916	1.082168	8.330187	-0.049270	-0.034310	0.016659	-0.802792	-0.185877	0.566547	0.299656	-0.947232	0.113835	0.515492	0.261155	0.816129
41148	5.908159	1.067155	8.275044	-0.051384	-0.044638	0.016600	-0.802516	-0.185878	0.566937	0.299473	-0.947353	0.113310	0.516028	0.260715	0.815931
41149	5.974221	0.925762	8.273740	-0.045836	-0.004956	0.019730	-0.802418	-0.186043	0.567021	0.299367	-0.947449	0.112785	0.516241	0.260248	0.815945
41150	5.820072	1.005422	8.300931	-0.043890	-0.032082	0.014617	-0.802213	-0.186059	0.567307	0.299206	-0.947553	0.112332	0.516653	0.259856	0.815809
41151	6.050105	1.033112	8.206772	-0.036719	-0.050340	0.016873	-0.801889	-0.186079	0.567758	0.299124	-0.947630	0.111898	0.517203	0.259560	0.815555
41152	5.857463	0.932964	8.280445	-0.040822	-0.012422	0.013219	-0.801789	-0.186132	0.567881	0.298967	-0.947730	0.111477	0.517448	0.259159	0.815527
41153	5.994248	1.030975	8.315256	-0.038110	-0.039498	0.013290	-0.801532	-0.186147	0.568240	0.298850	-0.947817	0.111052	0.517915	0.258830	0.815335
41154	5.767602	1.012485	8.338727	-0.009735	-0.030291	0.014689	-0.801335	-0.186168	0.568510	0.298865	-0.947832	0.110877	0.518211	0.258757	0.815170
41155	6.202064	0.966609	8.269555	-0.045485	-0.039346	0.009627	-0.801089	-0.186149	0.568864	0.298679	-0.947945	0.110412	0.518698	0.258358	0.814987
41156	5.818544	0.974623	8.254528	-0.034475	-0.027311	0.011300	-0.800917	-0.186146	0.569106	0.298539	-0.948031	0.110055	0.519044	0.258045	0.814866
41157	5.942383	1.040799	8.352215	-0.014593	-0.048830	0.008030	-0.800626	-0.186087	0.569535	0.298501	-0.948067	0.109851	0.519515	0.257956	0.814594
41158	6.035841	0.976537	8.188011	-0.031898	-0.033522	0.010066	-0.800426	-0.186057	0.569826	0.298363	-0.948148	0.109522	0.519902	0.257680	0.814434
41159	5.859766	1.024971	8.332164	-0.013633	-0.039480	0.006550	-0.800187	-0.186009	0.570177	0.298318	-0.948184	0.109335	0.520295	0.257582	0.814214
41160	6.078347	0.940827	8.155991	-0.021005	-0.057037	0.012608	-0.799856	-0.185942	0.570662	0.298258	-0.948232	0.109080	0.520838	0.257453	0.813908
41161	5.869813	0.947329	8.327019	-0.023162	-0.026855	0.007612	-0.799680	-0.185936	0.570911	0.298171	-0.948290	0.108809	0.521158	0.257241	0.813770
41162	5.897729	0.987431	8.350811	0.000755	-0.075772	0.003591	-0.799278	-0.185736	0.571539	0.298152	-0.948299	0.108782	0.521785	0.257353	0.813332
41163	6.172631	1.052152	8.207201	-0.025323	-0.033758	0.008573	-0.799062	-0.185722	0.571845	0.298062	-0.948362	0.108488	0.522167	0.257134	0.813157
41164	5.836717	0.966192	8.255940	-0.005905	-0.038752	0.006589	-0.798844	-0.185645	0.572175	0.298032	-0.948382	0.108390	0.522518	0.257113	0.812938
41165	6.056752	0.996066	8.214180	-0.021564	-0.042445	0.007870	-0.798585	-0.185603	0.572551	0.297955	-0.948436	0.108131	0.522958	0.256946	0.812708
41166	5.872451	1.037559	8.267523	0.002801	-0.058596	0.005702	-0.798265	-0.185466	0.573040	0.297963	-0.948436	0.108109	0.523441	0.257045	0.812365
41167	6.109708	0.970262	8.271782	-0.021714	-0.025261	0.012970	-0.798080	-0.185516	0.573282	0.297927	-0.948480	0.107819	0.523744	0.256844	0.812233
41168	5.885859	0.994153	8.252819	-0.004672	-0.048123	0.005102	-0.797816	-0.185401	0.573686	0.297891	-0.948500	0.107740	0.524166	0.256853	0.811959
41169	5.965023	1.028682	8.218436	0.004103	-0.062622	0.011322	-0.797440	-0.185340	0.574229	0.297976	-0.948482	0.107669	0.524690	0.256966	0.811584
41170	6.064647	0.883331	8.264130	-0.024896	-0.027515	0.012091	-0.797263	-0.185344	0.574472	0.297890	-0.948541	0.107386	0.525007	0.256745	0.811449
41171	5.923386	1.023015	8.304937	-0.011112	-0.052902	0.010720	-0.796939	-0.185302	0.574936	0.297891	-0.948562	0.107195	0.525499	0.256696	0.811146
41172	5.997345	1.082601	8.169601	0.018662	-0.070245	0.005418	-0.796557	-0.185134	0.575519	0.297980	-0.948522	0.107304	0.526027	0.256967	0.810718
41173	5.981036	0.860911	8.326797	-0.017271	-0.035835	0.011400	-0.796320	-0.185142	0.575844	0.297954	-0.948558	0.107059	0.526400	0.256828	0.810520
41174	5.917617	1.070638	8.147354	0.013010	-0.090665	0.006079	-0.795829	-0.184927	0.576593	0.298019	-0.948531	0.107118	0.527107	0.257083	0.809980
41175	6.026928	0.894958	8.325049	0.023567	-0.044570	0.006681	-0.795559	-0.184868	0.576983	0.298170	-0.948470	0.107231	0.527428	0.257348	0.809686
41176	5.980990	0.943469	8.157796	-0.000694	-0.086219	0.008807	-0.795082	-0.184690	0.577698	0.298184	-0.948474	0.107163	0.528140	0.257464	0.809185
41177	5.934394	0.975298	8.288125	0.048102	-0.072634	0.006492	-0.794664	-0.184556	0.578315	0.298464	-0.948350	0.107475	0.528610	0.258013	0.808703
41178	6.034979	1.021324	8.287980	0.023040	-0.088053	0.009242	-0.794174	-0.184377	0.579045	0.298607	-0.948292	0.107596	0.529265	0.258357	0.808165
41179	6.028018	0.916278	8.168067	0.007597	-0.099913	0.006253	-0.793612	-0.184170	0.579881	0.298671	-0.948273	0.107583	0.530072	0.258572	0.807567
41180	5.966615	1.030124	8.139993	0.048027	-0.106172	0.006132	-0.793034	-0.183914	0.580752	0.298922	-0.948155	0.107923	0.530795	0.259186	0.806895
41181	6.001271	1.034629	8.380588	0.070589	-0.108985	0.004970	-0.792425	-0.183670	0.581659	0.299310	-0.947975	0.108425	0.531484	0.260015	0.806174
41182	6.223196	0.939453	8.085856	0.019945	-0.128606	0.004788	-0.791731	-0.183341	0.582708	0.299402	-0.947933	0.108546	0.532467	0.260403	0.805400
41183	6.018693	1.081706	8.144351	0.050625	-0.103692	0.013059	-0.791124	-0.183187	0.583580	0.299749	-0.947789	0.108839	0.533173	0.261033	0.804729
41184	6.057647	1.038888	8.230658	0.094372	-0.094944	0.008042	-0.790597	-0.182975	0.584360	0.300264	-0.947546	0.109540	0.533665	0.262064	0.804068
41185	6.249488	0.966837	8.175193	0.014409	-0.110263	0.013084	-0.789954	-0.182802	0.585283	0.300418	-0.947497	0.109540	0.534529	0.262361	0.803396
41186	6.035096	1.028923	8.144468	0.089776	-0.093522	0.008967	-0.789431	-0.182601	0.586051	0.300917	-0.947262	0.110198	0.535022	0.263346	0.802746
41187	6.265759	0.974020	8.161875	0.017703	-0.095520	0.015714	-0.788857	-0.182491	0.586858	0.301110	-0.947200	0.110209	0.535759	0.263648	0.802155
41188	6.040931	1.067159	7.998374	0.061266	-0.085520	0.012927	-0.788363	-0.182348	0.587565	0.301488	-0.947032	0.110613	0.536273	0.264347	0.801581
41189	6.217205	1.002229	8.195629	0.044067	-0.080729	0.019476	-0.787856	-0.182311	0.588256	0.301852	-0.946893	0.110813	0.536813	0.264871	0.801046
41190	6.018362	1.082880	8.169576	0.107325	-0.074905	0.010881	-0.787425	-0.182176	0.588876	0.302462	-0.946606	0.111598	0.537103	0.265987	0.800482
41191	6.169490	0.831449	8.163017	0.035318	-0.097838	0.019173	-0.786825	-0.182090	0.589703	0.302777	-0.946490	0.111729	0.537803	0.266460	0.799855
41192	5.880195	0.786528	8.398546	0.084418	-0.087151	0.019263	-0.786302	-0.181999	0.590428	0.303330	-0.946247	0.112279	0.538256	0.267380	0.799242
41193	6.067680	1.093374	8.252501	0.150720	-0.136979	0.004390	-0.785536	-0.181666	0.591550	0.304151	-0.945848	0.113419	0.538912	0.269015	0.798251
41194	6.094348	0.835984	8.267257	0.126292	-0.137259	0.018933	-0.784742	-0.181435	0.592674	0.304928	-0.945491	0.114303	0.539629	0.270421	0.797291
41195	6.066050	1.097124	8.283550	0.137856	-0.160762	0.019436	-0.783799	-0.181175	0.593999	0.305799	-0.945095	0.115248	0.540506	0.271975	0.796168
41196	6.170613	1.093444	8.208153	0.149407	-0.166968	0.024871	-0.782823	-0.180915	0.595363	0.306750	-0.944661	0.116278	0.541380	0.273652	0.794998
41197	6.091073	1.129028	8.226381	0.214536	-0.163881	0.021911	-0.781853	-0.180664	0.596713	0.308057	-0.944045	0.117813	0.542040	0.275934	0.793759
41198	6.223520	1.005730	8.065485	0.151425	-0.202429	0.027262	-0.780674	-0.180321	0.598358	0.309039	-0.943595	0.118841	0.543178	0.277692	0.792367
41199	6.182316	1.111727	8.043359	0.143164	-0.174899	0.033771	-0.779604	-0.180144	0.599805	0.310054	-0.943149	0.119733	0.544136	0.279317	0.791137
41200	6.199403	1.101095	8.184241	0.196623	-0.211660	0.035069	-0.778346	-0.179842	0.601527	0.311346	-0.942553	0.121067	0.545198	0.281515	0.789625
41201	6.291379	1.162318	8.014020	0.180163	-0.191393	0.045719	-0.777144	-0.179724	0.603114	0.312658	-0.941976	0.122174	0.546161	0.283516	0.788243
41202	6.157799	1.139377	8.111733	0.182054	-0.207926	0.047807	-0.775861	-0.179542	0.604817	0.313973	-0.941390	0.123309	0.547230	0.285567	0.786760
41203	6.379908	1.135995	7.914952	0.174127	-0.211202	0.056852	-0.774510	-0.179464	0.606569	0.315341	-0.940803	0.124296	0.548356	0.287544	0.785254
41204	6.242178	1.217693	8.054803	0.148605	-0.194490	0.059988	-0.773257	-0.179428	0.608176	0.316568	-0.940286	0.125087	0.549416	0.289254	0.783884
41205	6.253708	1.126520	8.019571	0.129418	-0.211986	0.069195	-0.771857	-0.179455	0.609945	0.317788	-0.939800	0.125642	0.550680	0.290811	0.782420
41206	6.278649	1.256233	8.101616	0.105738	-0.232529	0.068710	-0.770360	-0.179383	0.611855	0.318849	-0.939388	0.126039	0.552160	0.292185	0.780863
41207	6.249995	1.242527	8.068618	0.108690	-0.243325	0.075639	-0.768758	-0.179373	0.613870	0.320005	-0.938948	0.126386	0.553722	0.293602	0.779224
41208	6.355066	1.309582	7.950551	0.071228	-0.257672	0.072948	-0.767099	-0.179260	0.615975	0.320908	-0.938627	0.126482	0.555497	0.294696	0.777546
41209	6.297951	1.124028	8.114875	0.025450	-0.273307	0.087561	-0.765282	-0.179267	0.618229	0.321694	-0.938409	0.126102	0.557546	0.295384	0.775816
41210	6.328450	1.317695	8.191547	0.008639	-0.300708	0.094944	-0.763300	-0.179229	0.620685	0.322415	-0.938232	0.125572	0.559841	0.295968	0.773939
41211	6.191468	1.189891	8.287686	0.017558	-0.329235	0.109080	-0.761085	-0.179268	0.623388	0.323318	-0.937999	0.124993	0.562330	0.296682	0.771858
41212	6.161945	1.280677	8.310084	-0.016803	-0.424800	0.115228	-0.758321	-0.179047	0.626811	0.324046	-0.937862	0.124134	0.565636	0.297249	0.769220
41213	6.219435	1.174435	8.331126	-0.039029	-0.465685	0.137418	-0.755217	-0.178942	0.630576	0.324836	-0.937747	0.122934	0.569323	0.297676	0.766329
41214	6.113602	1.307886	8.457171	-0.089184	-0.557151	0.157565	-0.751525	-0.178720	0.635035	0.325460	-0.937750	0.121247	0.573835	0.297799	0.762908
41215	6.107126	1.279840	8.427685	-0.114467	-0.631356	0.186285	-0.747264	-0.178577	0.640083	0.326167	-0.937773	0.119153	0.578975	0.297812	0.759010
41216	6.127356	1.197048	8.308521	-0.147142	-0.735027	0.221049	-0.742269	-0.178422	0.645913	0.326904	-0.937836	0.116611	0.584954	0.297708	0.754453
41217	6.104066	1.194161	8.298426	-0.152612	-0.825677	0.254328	-0.736565	-0.178338	0.652433	0.327855	-0.937852	0.113777	0.591594	0.297707	0.749257
41218	6.064917	1.034080	8.305716	-0.172048	-0.954684	0.285615	-0.729946	-0.178134	0.659884	0.328872	-0.937874	0.110613	0.599184	0.297759	0.743181
41219	6.023772	0.967859	8.150122	-0.134505	-1.095528	0.322420	-0.722260	-0.177880	0.668356	0.330367	-0.937717	0.107442	0.607617	0.298404	0.736041
41220	6.028679	0.932077	8.130217	-0.057504	-1.249068	0.351146	-0.713453	-0.177394	0.677877	0.332483	-0.937285	0.104653	0.616799	0.300047	0.727689
41221	6.536792	0.943998	7.822318	-0.019876	-1.407121	0.359869	-0.703489	-0.176515	0.688437	0.334873	-0.936724	0.102018	0.626869	0.302307	0.718085
41222	6.616924	0.846602	7.772798	-0.001974	-1.438622	0.372692	-0.693149	-0.175598	0.699078	0.337410	-0.936094	0.099415	0.636946	0.304785	0.708101
41223	6.679929	0.961220	7.734383	0.014480	-1.597149	0.397606	-0.681528	-0.174414	0.710703	0.340197	-0.935371	0.096682	0.647909	0.307671	0.696816
41224	7.051350	1.102113	7.607507	0.010882	-1.670024	0.429881	-0.669148	-0.173230	0.722656	0.343119	-0.934609	0.093675	0.659174	0.310639	0.684831
41225	7.035613	0.983476	7.558117	-0.037873	-1.724202	0.458936	-0.656089	-0.172125	0.734793	0.345868	-0.933953	0.090043	0.670763	0.313218	0.672289
41226	7.545138	0.985403	7.196107	-0.023456	-1.813380	0.473489	-0.642176	-0.170800	0.747286	0.348730	-0.933234	0.086379	0.682640	0.316072	0.658864
41227	7.623754	1.001860	7.344328	-0.048224	-1.851415	0.474014	-0.627755	-0.169331	0.759770	0.351367	-0.932599	0.082465	0.694597	0.318726	0.644941
41228	7.845342	0.945115	6.873975	-0.073473	-1.963211	0.474419	-0.612326	-0.167431	0.772673	0.353741	-0.932055	0.078364	0.707053	0.321310	0.629949
41229	8.418454	0.981559	6.915835	-0.032919	-1.919397	0.488854	-0.596894	-0.165776	0.785007	0.356420	-0.931365	0.074326	0.718807	0.324157	0.615012
41230	8.213013	1.177086	6.650053	-0.029304	-1.902851	0.492397	-0.581349	-0.164125	0.796929	0.359056	-0.930668	0.070258	0.730145	0.326986	0.599973
41231	8.760203	0.953181	6.578853	-0.052311	-1.903927	0.520511	-0.565453	-0.162702	0.808573	0.361613	-0.930007	0.065747	0.741282	0.329568	0.584710
41232	8.607824	1.128835	6.046362	-0.082257	-1.883204	0.543240	-0.549423	-0.161485	0.819791	0.363975	-0.929419	0.060856	0.752102	0.331819	0.569420
41233	9.336268	0.766779	6.264723	-0.052619	-1.861161	0.545733	-0.533323	-0.160341	0.830577	0.366489	-0.928733	0.056037	0.762400	0.334283	0.554077
41234	9.278440	0.778854	5.974551	-0.009792	-1.729741	0.536416	-0.518085	-0.159475	0.840331	0.369181	-0.927929	0.051511	0.771552	0.336921	0.539621
41235	9.191696	0.397528	5.319967	0.029319	-1.748522	0.534113	-0.502524	-0.158495	0.849911	0.372093	-0.926998	0.047135	0.780395	0.339932	0.524813
41236	10.100364	1.321257	5.287555	0.244080	-1.671870	0.554865	-0.487340	-0.157870	0.858823	0.376701	-0.925305	0.043669	0.787779	0.344801	0.510408
41237	10.056319	2.547103	6.534761	0.117902	-1.518181	0.664703	-0.472796	-0.158739	0.866756	0.380785	-0.923861	0.038512	0.794649	0.348256	0.497243
41238	9.265634	1.639228	5.896426	-0.039672	-1.455345	0.759481	-0.458279	-0.160629	0.874173	0.383953	-0.922808	0.031719	0.801599	0.350177	0.484577
41239	9.932837	0.827691	5.555823	-0.096319	-1.451353	0.812999	-0.443448	-0.163017	0.881351	0.386802	-0.921847	0.024111	0.808540	0.351600	0.471847
41240	9.700115	0.972081	5.670441	0.127793	-1.352768	0.838042	-0.429216	-0.165916	0.887832	0.391445	-0.920039	0.017307	0.813968	0.354966	0.459842
41241	9.922436	1.251563	5.633394	0.145463	-1.309121	0.905357	-0.414948	-0.169548	0.893908	0.396413	-0.918019	0.009892	0.818947	0.358462	0.448141
41242	9.440745	1.127363	5.806949	0.170115	-1.184437	0.952113	-0.401427	-0.173971	0.899217	0.401646	-0.915792	0.002125	0.823126	0.362020	0.437499
41243	9.454035	1.079792	5.576725	0.149637	-1.192188	1.016672	-0.387468	-0.178913	0.904355	0.406850	-0.913473	-0.006403	0.827249	0.365455	0.426733
41244	8.781712	0.625016	5.344415	0.172783	-1.155077	1.055773	-0.373571	-0.184261	0.909116	0.412250	-0.910943	-0.015231	0.830960	0.369094	0.416264
41245	8.387889	0.375602	5.187757	0.246413	-1.182432	1.079316	-0.359235	-0.189666	0.913771	0.418213	-0.908030	-0.024060	0.834295	0.373508	0.405517
41246	7.922090	-0.061168	4.991727	0.327005	-1.255330	1.108321	-0.344074	-0.194949	0.918481	0.424796	-0.904692	-0.032888	0.837354	0.378851	0.394095
41247	7.660829	-0.355051	4.780690	0.488822	-1.330497	1.127380	-0.328077	-0.200016	0.923233	0.432639	-0.900617	-0.041375	0.839755	0.385852	0.382007
41248	7.565461	-0.256416	4.555088	0.644635	-1.378678	1.170295	-0.311376	-0.205109	0.927888	0.441752	-0.895756	-0.049766	0.841368	0.394400	0.369524
41249	6.804946	-0.860481	4.509817	0.771285	-1.573950	1.185718	-0.292820	-0.209388	0.932959	0.451782	-0.890241	-0.058004	0.842704	0.404510	0.355278
41250	7.607689	-0.759859	4.611615	0.895302	-1.713702	1.210326	-0.272842	-0.213055	0.938171	0.462708	-0.884036	-0.066195	0.843480	0.416038	0.339785
41251	6.867186	-0.664469	5.241509	1.013181	-1.745094	1.204317	-0.252479	-0.216269	0.943124	0.474368	-0.877197	-0.074160	0.843344	0.428664	0.324065
41252	6.329090	0.707636	7.301826	1.086785	-1.582806	1.059069	-0.234060	-0.218595	0.947329	0.486059	-0.870192	-0.080703	0.841999	0.441568	0.309927
41253	13.365245	3.182119	9.065566	1.028324	-1.257465	0.387903	-0.221587	-0.216313	0.950846	0.495536	-0.864778	-0.081252	0.839847	0.453174	0.298815
41254	15.491905	5.882596	9.326017	0.856452	0.646824	-0.116787	-0.227590	-0.218216	0.948991	0.502399	-0.861153	-0.077531	0.834145	0.459127	0.305622
41255	7.679546	4.987780	10.072974	0.390563	1.346296	-0.470301	-0.241169	-0.220324	0.945143	0.504484	-0.860426	-0.071848	0.829056	0.459482	0.318658
41256	4.875140	4.433819	8.769621	-0.047959	1.684887	-0.700008	-0.258636	-0.221962	0.940128	0.502294	-0.862222	-0.065384	0.825111	0.455310	0.334491
41257	3.143818	2.880548	7.474260	-0.388275	1.526002	-0.762889	-0.275050	-0.222234	0.935393	0.496985	-0.865714	-0.059542	0.823015	0.448499	0.348562
41258	2.580980	1.006858	6.792888	-0.559209	1.295109	-0.755301	-0.289439	-0.221398	0.931240	0.490207	-0.869903	-0.054454	0.822145	0.440740	0.360315
41259	3.156135	-0.693270	6.737099	-0.463137	1.037867	-0.735584	-0.301586	-0.219490	0.927831	0.484143	-0.873599	-0.049293	0.821372	0.434337	0.369730
41260	4.360729	-1.471182	7.254550	-0.177503	0.904891	-0.716806	-0.312474	-0.217094	0.924787	0.480440	-0.875958	-0.043297	0.819474	0.430775	0.378015
41261	5.736836	-1.225600	7.966410	0.124035	0.968760	-0.704715	-0.323817	-0.215048	0.921356	0.479117	-0.877000	-0.036306	0.815837	0.429681	0.387021
41262	6.295659	-0.522388	8.541778	0.321237	1.161325	-0.662902	-0.336445	-0.214186	0.917022	0.479494	-0.877068	-0.028933	0.810488	0.429972	0.397786
41263	6.371237	0.029292	8.837126	0.387492	1.388497	-0.596926	-0.350565	-0.214885	0.911553	0.480466	-0.876740	-0.021900	0.803900	0.430293	0.410600
41264	6.422098	0.249262	8.868787	0.366322	1.602586	-0.504986	-0.365825	-0.217313	0.904957	0.481541	-0.876282	-0.015766	0.796423	0.430007	0.425211
41265	6.260869	0.042844	8.668961	0.311160	1.780932	-0.412695	-0.381980	-0.221302	0.897283	0.482349	-0.875914	-0.010692	0.788309	0.428719	0.441327
41266	6.117539	-0.363250	8.458901	0.292595	1.928738	-0.326005	-0.398680	-0.226659	0.888639	0.483322	-0.875419	-0.006449	0.779393	0.426928	0.458562
41267	5.976904	-0.653836	8.306242	0.326285	2.028992	-0.252518	-0.415679	-0.233046	0.879147	0.484697	-0.874678	-0.002687	0.769597	0.425003	0.476542
41268	5.820009	-0.626575	8.166286	0.387728	2.115704	-0.192226	-0.432789	-0.240301	0.868878	0.486796	-0.873515	0.000890	0.758764	0.423351	0.495025
41269	5.695767	-0.418068	8.210949	0.443159	2.179843	-0.140366	-0.449955	-0.248237	0.857857	0.489381	-0.872059	0.004338	0.747025	0.421771	0.513870
41270	5.698484	-0.107710	8.319353	0.484137	2.245623	-0.106491	-0.467119	-0.256725	0.846104	0.492430	-0.870317	0.007790	0.734379	0.420286	0.532961
41271	5.751587	0.263718	8.460807	0.494685	2.310584	-0.099024	-0.484497	-0.265499	0.833530	0.495420	-0.868580	0.011304	0.720987	0.418424	0.552358
41272	5.845025	0.665714	8.653612	0.478578	2.385486	-0.118094	-0.502124	-0.274389	0.820111	0.498205	-0.866930	0.014979	0.706868	0.416105	0.572008
41273	5.934317	1.088656	8.819953	0.452034	2.461770	-0.171000	-0.520279	-0.283052	0.805724	0.500347	-0.865617	0.018996	0.692071	0.413025	0.591986
41274	5.928011	1.488801	8.943903	0.390122	2.536065	-0.264581	-0.538971	-0.291149	0.790407	0.501567	-0.864801	0.023462	0.676713	0.409087	0.612133
41275	5.952876	1.851737	9.018900	0.330651	2.592220	-0.386479	-0.558334	-0.298278	0.774141	0.501505	-0.864684	0.028537	0.660875	0.404169	0.632370
41276	6.025579	2.231217	9.163390	0.253760	2.637457	-0.546526	-0.578298	-0.304095	0.757032	0.500007	-0.865340	0.034354	0.644644	0.398388	0.652474
41277	6.124995	2.589346	9.287931	0.176923	2.670833	-0.741140	-0.599079	-0.308146	0.739020	0.496611	-0.867001	0.041063	0.628078	0.391605	0.672431
41278	6.256400	2.976158	9.457008	0.085305	2.694563	-0.968052	-0.620569	-0.310151	0.720209	0.491186	-0.869692	0.048707	0.611253	0.383983	0.692046
41279	6.383266	3.208533	9.594638	-0.022083	2.695583	-1.207691	-0.642798	-0.309767	0.700611	0.483259	-0.873612	0.057124	0.594367	0.375295	0.711254
41280	6.621315	3.349584	9.731078	-0.128750	2.669837	-1.456798	-0.665418	-0.306859	0.680482	0.472925	-0.878608	0.066253	0.577547	0.365903	0.729764
41281	6.881293	3.327247	9.767271	-0.230990	2.639758	-1.702980	-0.688481	-0.301267	0.659721	0.459910	-0.884712	0.075949	0.560782	0.355702	0.747663
41282	7.123173	3.311904	9.737525	-0.332251	2.593532	-1.926176	-0.711532	-0.293206	0.638555	0.444540	-0.891628	0.085934	0.544157	0.345007	0.764763
41283	7.412901	3.174074	9.822839	-0.420111	2.536445	-2.118626	-0.734447	-0.282731	0.616969	0.426793	-0.899242	0.095975	0.527669	0.333806	0.781114
41284	7.749518	3.053669	9.889649	-0.508141	2.474718	-2.270632	-0.756783	-0.270301	0.595162	0.407171	-0.907213	0.105718	0.511363	0.322338	0.796622
41285	7.767007	2.863952	9.639623	-0.601734	2.421232	-2.358374	-0.778404	-0.256346	0.573039	0.385859	-0.915407	0.114640	0.495176	0.310348	0.811470
41286	7.487979	2.390853	9.379055	-0.706849	2.316564	-2.373705	-0.798600	-0.241527	0.551274	0.363644	-0.923490	0.122187	0.479585	0.298046	0.825328
41287	7.135348	1.507397	9.055210	-0.783116	2.129236	-2.304994	-0.816856	-0.226238	0.530625	0.341145	-0.931238	0.128123	0.465152	0.285678	0.837867
41288	7.305709	0.332950	8.980346	-0.763136	1.886909	-2.157856	-0.832648	-0.211312	0.511903	0.319796	-0.938117	0.132920	0.452137	0.274380	0.848698
41289	8.203892	-0.800573	8.802377	-0.618065	1.660786	-1.944184	-0.846153	-0.197367	0.495046	0.300539	-0.943820	0.137408	0.440115	0.265048	0.857933
41290	9.366937	-1.073555	8.599540	-0.380286	1.446450	-1.653863	-0.857284	-0.185470	0.480276	0.284748	-0.948000	0.142178	0.428932	0.258645	0.865517
41291	10.892930	-1.143142	8.403622	-0.120755	1.375663	-1.363405	-0.866959	-0.175930	0.466295	0.272309	-0.950830	0.147548	0.417409	0.254894	0.872238
41292	12.313982	0.312082	7.861389	0.036457	1.364810	-1.010870	-0.875287	-0.169734	0.452838	0.263602	-0.952502	0.152493	0.405446	0.252844	0.878455
41293	12.539449	1.065708	7.047426	0.061923	1.402851	-0.603686	-0.882510	-0.167396	0.439495	0.258381	-0.953414	0.155693	0.392958	0.250958	0.884649
41294	12.585043	1.231928	6.409544	0.081426	1.430718	-0.227430	-0.888630	-0.168766	0.426445	0.256632	-0.953610	0.157379	0.380102	0.249291	0.890717
41295	13.066485	0.911935	6.042978	0.166394	1.459538	0.062879	-0.893957	-0.172889	0.413462	0.257669	-0.953134	0.158561	0.366672	0.248283	0.896609
41296	13.028039	0.491970	5.512993	0.340651	1.545696	0.245818	-0.898878	-0.179032	0.399958	0.261047	-0.951872	0.160603	0.351956	0.248770	0.902353
41297	12.399443	0.275503	4.742587	0.560887	1.595133	0.284473	-0.903649	-0.185630	0.385954	0.265417	-0.949993	0.164518	0.336114	0.251106	0.907730
41298	11.358616	0.375298	3.864358	0.738878	1.557133	0.255456	-0.908079	-0.191955	0.372217	0.270107	-0.947659	0.170250	0.320055	0.255139	0.912398
41299	10.271609	0.619019	3.117691	0.817618	1.396699	0.209230	-0.911900	-0.197454	0.359791	0.274463	-0.945183	0.176915	0.305136	0.260078	0.916107
41300	9.558158	0.683149	2.738154	0.807875	1.133197	0.169742	-0.914824	-0.201994	0.349707	0.278380	-0.942740	0.183699	0.292577	0.265404	0.918673
41301	9.352665	0.528313	2.584238	0.744802	0.823118	0.140719	-0.916818	-0.205458	0.342391	0.281726	-0.940492	0.190014	0.282976	0.270669	0.920143
41302	9.395759	0.238819	2.676203	0.667017	0.535027	0.111708	-0.918004	-0.207930	0.337688	0.284568	-0.938458	0.195748	0.276204	0.275793	0.920679
41303	8.974125	1.131604	3.792405	0.574166	0.253060	0.056289	-0.918551	-0.209107	0.335466	0.286590	-0.936774	0.200798	0.272268	0.280585	0.920403
41304	8.626021	1.029836	1.537416	0.095538	-0.365484	0.156395	-0.917108	-0.209504	0.339148	0.288240	-0.936198	0.201123	0.275373	0.282207	0.918982
41305	9.881881	1.037775	2.599214	-0.127096	-0.622158	0.072129	-0.915176	-0.208381	0.345009	0.288492	-0.936433	0.199665	0.281471	0.282260	0.917117
41306	10.554825	0.811245	2.770853	-0.432515	-0.981186	0.012848	-0.912334	-0.205702	0.354026	0.287323	-0.937642	0.195633	0.291707	0.280202	0.914546
41307	10.691294	-0.021836	2.538103	-0.660389	-1.220419	-0.082222	-0.908929	-0.201506	0.365024	0.284566	-0.939668	0.189856	0.304745	0.276439	0.911434
41308	10.303833	-0.604230	2.542817	-0.770232	-1.447265	-0.216889	-0.905027	-0.195456	0.377788	0.280145	-0.942230	0.183632	0.320071	0.272027	0.907500
41309	6.107342	-0.497936	5.611023	-0.816314	-1.380872	-0.368115	-0.901517	-0.188248	0.389653	0.274125	-0.945151	0.177608	0.334846	0.266931	0.903674
41310	4.921985	-0.595391	11.253407	-0.992343	-1.682562	-0.445415	-0.896943	-0.179552	0.404048	0.266659	-0.948606	0.170410	0.352685	0.260591	0.898725
41311	7.692722	-1.583669	11.568944	-0.480346	-1.397844	-0.573818	-0.893416	-0.170464	0.415631	0.259774	-0.950871	0.168412	0.366503	0.258432	0.893806
41312	2.276338	-1.443948	9.165763	-0.099336	-1.156166	-0.565106	-0.890575	-0.162054	0.424988	0.254314	-0.952085	0.169880	0.377095	0.259371	0.889115
41313	1.584991	0.077856	7.127060	0.097304	-1.542019	-0.255279	-0.885291	-0.155588	0.438238	0.252399	-0.952251	0.171796	0.390583	0.262700	0.882289
41314	3.699313	-0.249775	8.515186	0.025852	-1.834320	0.117794	-0.877684	-0.151823	0.454555	0.253489	-0.952018	0.171477	0.406711	0.265727	0.874057
41315	8.671567	1.345534	10.646853	0.111997	-1.951594	0.356265	-0.868662	-0.149978	0.472159	0.257039	-0.951197	0.170752	0.423507	0.269688	0.864818
41316	19.210094	8.319623	14.488653	-0.005002	-2.214500	0.894925	-0.856740	-0.152435	0.492707	0.264687	-0.949874	0.166373	0.442649	0.272951	0.854143
41317	19.439714	-0.594579	12.293766	-0.671702	0.302764	0.321413	-0.857211	-0.156304	0.490672	0.264456	-0.951200	0.159003	0.441874	0.266060	0.856714
41318	-0.743065	0.653795	7.337334	-0.240638	0.249546	0.124515	-0.857986	-0.158109	0.488734	0.264411	-0.951658	0.156312	0.440394	0.263340	0.858315
41319	4.306595	0.523245	9.412093	-0.331723	-0.557741	0.328728	-0.854622	-0.159779	0.494057	0.265747	-0.952015	0.151807	0.446094	0.261032	0.856074
41320	7.598382	2.147519	9.648574	-0.256275	-0.480209	0.250238	-0.851806	-0.160872	0.498545	0.266681	-0.952298	0.148356	0.450897	0.259323	0.854074
41321	5.456312	0.313886	8.451706	-0.303768	-0.119735	0.198279	-0.850714	-0.162455	0.499894	0.266987	-0.952771	0.144726	0.452773	0.256586	0.853909
41322	5.658683	-0.587722	9.097440	-0.171417	-0.361147	0.172677	-0.848615	-0.163135	0.503230	0.267623	-0.952946	0.142381	0.456323	0.255502	0.852342
41323	6.299724	0.439385	9.112114	-0.071980	-0.204026	0.100813	-0.847389	-0.163579	0.505147	0.268140	-0.952975	0.141211	0.458293	0.255111	0.851403
41324	5.425624	1.304818	8.524141	-0.038403	-0.174209	0.068521	-0.846409	-0.163747	0.506733	0.268492	-0.952978	0.140521	0.459895	0.254992	0.850574
41325	5.410961	1.362760	8.652613	-0.052715	-0.208091	0.071122	-0.845237	-0.163899	0.508638	0.268841	-0.953005	0.139663	0.461844	0.254791	0.849578
41326	5.572259	1.121763	8.768134	-0.044803	-0.196185	0.063648	-0.844161	-0.163966	0.510399	0.269119	-0.953032	0.138942	0.463645	0.254647	0.848639
41327	5.381011	1.164609	8.661270	-0.041031	-0.188928	0.058573	-0.843103	-0.164048	0.512119	0.269414	-0.953050	0.138245	0.465397	0.254527	0.847716
41328	5.359663	1.415878	8.585163	-0.033887	-0.206868	0.048508	-0.842011	-0.163943	0.513946	0.269613	-0.953074	0.137693	0.467255	0.254505	0.846700
41329	5.310694	1.551186	8.535556	-0.052400	-0.213765	0.057056	-0.840833	-0.163948	0.515870	0.269838	-0.953123	0.136907	0.469242	0.254318	0.845656
41330	5.364160	1.577399	8.532513	-0.071849	-0.237554	0.068616	-0.839534	-0.163958	0.517978	0.270025	-0.953210	0.135929	0.471455	0.253984	0.844525
41331	5.402561	1.591748	8.491095	-0.092744	-0.247190	0.070324	-0.838152	-0.164006	0.520196	0.270167	-0.953340	0.134734	0.473826	0.253467	0.843352
41332	5.496415	1.567683	8.529491	-0.111257	-0.255606	0.084046	-0.836714	-0.164120	0.522470	0.270290	-0.953501	0.133342	0.476291	0.252787	0.842167
41333	5.566357	1.465859	8.550154	-0.134428	-0.261198	0.093516	-0.835190	-0.164357	0.524828	0.270420	-0.953695	0.131674	0.478885	0.251897	0.840962
41334	5.715878	1.424267	8.566398	-0.136221	-0.259869	0.096730	-0.833684	-0.164586	0.527146	0.270521	-0.953896	0.130005	0.481446	0.250987	0.839771
41335	5.625953	1.302188	8.584072	-0.149952	-0.237034	0.097083	-0.832253	-0.164923	0.529297	0.270597	-0.954120	0.128187	0.483873	0.249910	0.838697
41336	5.618244	1.290004	8.520805	-0.147536	-0.251053	0.097598	-0.830774	-0.165188	0.531533	0.270640	-0.954344	0.126417	0.486383	0.248878	0.837551
41337	5.593962	1.155013	8.463902	-0.146736	-0.245426	0.095327	-0.829295	-0.165492	0.533744	0.270706	-0.954560	0.124635	0.488864	0.247847	0.836411
41338	5.626080	1.072568	8.542569	-0.152447	-0.255631	0.098979	-0.827777	-0.165765	0.536010	0.270726	-0.954790	0.122816	0.491419	0.246776	0.835230
41339	5.597779	1.011202	8.484615	-0.137312	-0.256817	0.089701	-0.826244	-0.165993	0.538300	0.270782	-0.954988	0.121142	0.493961	0.245855	0.834001
41340	5.603541	0.879096	8.443726	-0.144201	-0.273592	0.092056	-0.824643	-0.166161	0.540698	0.270775	-0.955206	0.119429	0.496634	0.244894	0.832696
41341	5.662382	0.994540	8.460719	-0.134155	-0.279815	0.087420	-0.822987	-0.166316	0.543167	0.270817	-0.955397	0.117792	0.499349	0.244041	0.831321
41342	6.016274	0.702031	8.866986	-0.122439	-0.298498	0.072842	-0.821299	-0.166245	0.545739	0.270750	-0.955591	0.116364	0.502158	0.243329	0.829836
41343	7.769786	0.404483	8.234029	-0.009164	-0.198254	-0.003112	-0.820284	-0.165737	0.547417	0.270668	-0.955627	0.116259	0.503858	0.243534	0.828745
41344	4.815324	1.521323	8.872325	-0.082559	-0.077238	0.001592	-0.819893	-0.165524	0.548066	0.270212	-0.955842	0.115552	0.504738	0.242834	0.828415
41345	6.109103	1.016325	8.206489	-0.031218	-0.154248	0.005718	-0.819072	-0.165209	0.549387	0.270091	-0.955916	0.115216	0.506134	0.242754	0.827586
41346	5.796816	1.090970	8.512900	-0.067419	-0.134201	0.007256	-0.818376	-0.164913	0.550514	0.269756	-0.956085	0.114604	0.507438	0.242293	0.826922
41347	5.743275	1.163375	8.438629	-0.065530	-0.129545	0.007712	-0.817670	-0.164678	0.551631	0.269476	-0.956239	0.113973	0.508722	0.241844	0.826265
41348	5.726216	1.253568	8.438684	-0.063089	-0.141571	0.014129	-0.816914	-0.164431	0.552824	0.269217	-0.956385	0.113360	0.510073	0.241435	0.825551
41349	5.833583	1.015465	8.423594	-0.077534	-0.147919	0.015794	-0.816089	-0.164230	0.554100	0.268940	-0.956554	0.112587	0.511537	0.240901	0.824801
41350	5.857511	1.001380	8.395858	-0.063996	-0.138340	0.010061	-0.815356	-0.163953	0.555260	0.268641	-0.956708	0.111989	0.512860	0.240477	0.824103
41351	5.833733	0.911669	8.457901	-0.065619	-0.135104	0.000769	-0.814634	-0.163641	0.556411	0.268301	-0.956872	0.111399	0.514185	0.240035	0.823406
41352	5.829491	0.939726	8.370161	-0.044886	-0.138672	-0.006858	-0.813941	-0.163202	0.557553	0.267961	-0.957008	0.111054	0.515458	0.239793	0.822680
41353	5.669010	1.097923	8.409700	-0.050399	-0.166595	-0.012180	-0.813087	-0.162691	0.558947	0.267591	-0.957157	0.110661	0.516996	0.239547	0.821786
41354	5.914261	1.164809	8.300767	-0.040709	-0.186266	-0.007894	-0.812146	-0.162129	0.560476	0.267263	-0.957283	0.110358	0.518642	0.239421	0.820785
41355	5.870013	1.043931	8.299608	-0.057966	-0.166943	-0.008359	-0.811274	-0.161655	0.561874	0.266884	-0.957444	0.109883	0.520199	0.239101	0.819892
41356	5.938721	1.123529	8.291357	-0.063837	-0.166832	-0.001616	-0.810412	-0.161200	0.563247	0.266485	-0.957615	0.109356	0.521746	0.238720	0.819020
41357	6.012488	1.121718	8.315753	-0.043738	-0.155691	0.004518	-0.809559	-0.160877	0.564564	0.266283	-0.957720	0.108927	0.523171	0.238517	0.818170
41358	5.995744	1.107247	8.324616	-0.061468	-0.126689	0.003429	-0.808889	-0.160568	0.565612	0.265935	-0.957878	0.108392	0.524383	0.238093	0.817517
41359	5.966601	0.992800	8.363266	-0.067386	-0.132168	0.010426	-0.808140	-0.160358	0.566741	0.265655	-0.958029	0.107737	0.525678	0.237624	0.816821
41360	5.988658	1.029675	8.259837	-0.057138	-0.112577	0.012834	-0.807516	-0.160173	0.567682	0.265405	-0.958161	0.107185	0.526762	0.237219	0.816241
41361	5.983368	1.046847	8.385611	-0.038981	-0.086226	0.007620	-0.807013	-0.160047	0.568432	0.265250	-0.958249	0.106778	0.527609	0.236948	0.815772
41362	6.122243	0.937182	8.256948	-0.050923	-0.100941	0.009413	-0.806458	-0.159857	0.569273	0.265004	-0.958371	0.106296	0.528582	0.236583	0.815248
41363	6.003040	1.009492	8.153569	-0.042386	-0.083594	0.002730	-0.805980	-0.159691	0.569995	0.264791	-0.958474	0.105891	0.529416	0.236276	0.814796
41364	6.042964	0.883389	8.241353	-0.053763	-0.059000	0.002736	-0.805663	-0.159537	0.570487	0.264475	-0.958613	0.105424	0.530057	0.235816	0.814513
41365	6.031709	1.080412	8.361863	-0.034370	-0.078412	0.000174	-0.805218	-0.159359	0.571164	0.264284	-0.958701	0.105098	0.530827	0.235576	0.814080
41366	5.957382	1.017202	8.364945	-0.012076	-0.047486	-0.000297	-0.804970	-0.159204	0.571558	0.264163	-0.958747	0.104989	0.531264	0.235498	0.813818
41367	6.070802	0.909980	8.168097	-0.039982	-0.045207	0.001635	-0.804697	-0.159118	0.571966	0.263954	-0.958846	0.104610	0.531782	0.235152	0.813580
41368	5.928662	1.036803	8.243687	-0.023533	-0.041268	0.005530	-0.804465	-0.159034	0.572315	0.263819	-0.958908	0.104374	0.532199	0.234953	0.813364
41369	5.941665	0.986686	8.263841	-0.006564	-0.042979	-0.003654	-0.804217	-0.158902	0.572699	0.263745	-0.958937	0.104297	0.532610	0.234924	0.813104
41370	6.181848	0.965494	8.224406	-0.031448	-0.040603	0.000497	-0.804002	-0.158771	0.573038	0.263527	-0.959027	0.104025	0.533042	0.234648	0.812900
41371	5.900321	0.964619	8.240100	-0.021582	-0.023760	0.000380	-0.803846	-0.158724	0.573270	0.263405	-0.959084	0.103803	0.533338	0.234444	0.812765
41372	5.976855	1.000241	8.207722	-0.014833	-0.043248	-0.005072	-0.803631	-0.158534	0.573624	0.263231	-0.959143	0.103699	0.533748	0.234332	0.812528
41373	6.078836	1.068751	8.235470	-0.016153	-0.037645	0.002830	-0.803394	-0.158477	0.573971	0.263157	-0.959184	0.103507	0.534141	0.234202	0.812307
41374	5.948801	0.968717	8.341575	-0.019350	-0.014652	-0.001803	-0.803323	-0.158385	0.574096	0.262986	-0.959249	0.103348	0.534332	0.234001	0.812239
41375	6.005222	0.939872	8.204753	-0.022914	-0.035997	-0.000652	-0.803104	-0.158299	0.574427	0.262847	-0.959311	0.103121	0.534730	0.233803	0.812035
41376	5.921071	1.024114	8.212348	-0.000411	-0.036892	-0.006892	-0.802927	-0.158106	0.574727	0.262736	-0.959339	0.103145	0.535050	0.233819	0.811819
41377	6.107754	0.966349	8.273683	-0.024758	-0.026066	-0.000501	-0.802760	-0.158045	0.574977	0.262589	-0.959405	0.102902	0.535373	0.233588	0.811673
41378	5.833703	1.032830	8.270926	0.001452	-0.037775	-0.006250	-0.802576	-0.157857	0.575285	0.262492	-0.959428	0.102937	0.535695	0.233623	0.811450
41379	6.107400	0.991093	8.169431	-0.022298	-0.043495	-0.001288	-0.802318	-0.157747	0.575675	0.262352	-0.959490	0.102720	0.536151	0.233443	0.811201
41380	5.840446	1.031184	8.266371	-0.005291	-0.039856	-0.003389	-0.802115	-0.157581	0.576003	0.262242	-0.959523	0.102684	0.536507	0.233416	0.810973
41381	6.143985	1.004220	8.291496	-0.024484	-0.056071	-0.000117	-0.801786	-0.157453	0.576496	0.262099	-0.959588	0.102442	0.537069	0.233235	0.810653
41382	5.861438	1.013826	8.274026	0.015194	-0.033285	-0.000848	-0.801612	-0.157327	0.576773	0.262120	-0.959570	0.102557	0.537319	0.233395	0.810441
41383	6.152412	0.883126	8.183160	-0.030435	-0.054389	0.001602	-0.801286	-0.157219	0.577254	0.261958	-0.959646	0.102257	0.537883	0.233154	0.810137
41384	5.910015	1.106770	8.111900	-0.001374	-0.055685	0.001125	-0.800986	-0.157060	0.577714	0.261906	-0.959664	0.102227	0.538356	0.233189	0.809812
41385	6.095825	1.021923	8.325278	0.000751	-0.039681	0.001005	-0.800741	-0.156981	0.578075	0.261907	-0.959668	0.102184	0.538720	0.233225	0.809560
41386	6.059948	0.999197	8.104699	-0.015220	-0.057059	0.004162	-0.800425	-0.156847	0.578549	0.261804	-0.959713	0.102024	0.539239	0.233129	0.809241
41387	5.950512	1.027969	8.349836	0.001974	-0.033375	0.009676	-0.800190	-0.156866	0.578868	0.261881	-0.959701	0.101940	0.539549	0.233166	0.809024
41388	6.105432	0.958093	8.104465	-0.019444	-0.058445	0.007816	-0.799857	-0.156765	0.579357	0.261785	-0.959750	0.101725	0.540091	0.233032	0.808701
41389	5.925467	1.033916	8.295064	0.021696	-0.030279	0.005968	-0.799649	-0.156755	0.579646	0.261938	-0.959698	0.101823	0.540324	0.233254	0.808481
41390	6.162016	0.980168	8.262865	-0.039353	-0.060017	0.006504	-0.799309	-0.156637	0.580146	0.261724	-0.959796	0.101455	0.540930	0.232932	0.808169
41391	5.920960	1.034197	8.165524	0.034926	-0.046770	0.007312	-0.799008	-0.156602	0.580570	0.261960	-0.959711	0.101651	0.541261	0.233306	0.807840
41392	6.118044	0.886030	8.289357	-0.033206	-0.054197	0.010645	-0.798689	-0.156537	0.581027	0.261811	-0.959787	0.101309	0.541804	0.233033	0.807555
41393	5.984145	1.061070	8.091371	0.015204	-0.062413	0.009220	-0.798298	-0.156483	0.581579	0.261955	-0.959745	0.101334	0.542310	0.233243	0.807154
41394	6.058740	0.936468	8.372327	0.000151	-0.048496	0.006209	-0.798020	-0.156389	0.581984	0.261951	-0.959751	0.101287	0.542720	0.233281	0.806867
41395	6.020871	1.015608	7.998824	0.014306	-0.071849	0.010660	-0.797573	-0.156327	0.582614	0.262102	-0.959709	0.101298	0.543304	0.233497	0.806412
41396	6.000654	0.976233	8.343537	0.047471	-0.052371	0.010326	-0.797264	-0.156263	0.583054	0.262389	-0.959598	0.101608	0.543620	0.233995	0.806054
41397	6.120314	0.952522	8.235262	-0.010239	-0.081083	0.009564	-0.796769	-0.156169	0.583756	0.262397	-0.959615	0.101427	0.544341	0.233989	0.805569
41398	6.000856	1.006798	8.057054	0.027459	-0.072417	0.014873	-0.796337	-0.156101	0.584362	0.262611	-0.959543	0.101549	0.544869	0.234327	0.805114
41399	6.011871	1.020465	8.340707	0.065848	-0.077860	0.010085	-0.795858	-0.156018	0.585038	0.263038	-0.959381	0.101977	0.545364	0.235046	0.804569
41400	6.150228	0.894820	8.130921	0.004671	-0.100720	0.012926	-0.795276	-0.155865	0.585869	0.263113	-0.959366	0.101927	0.546176	0.235209	0.803971
41401	5.995550	1.059239	8.125710	0.049319	-0.094703	0.011932	-0.794698	-0.155759	0.586681	0.263465	-0.959239	0.102210	0.546847	0.235796	0.803342
41402	6.098052	1.058299	8.200175	0.065076	-0.101174	0.007436	-0.794127	-0.155551	0.587509	0.263826	-0.959090	0.102677	0.547502	0.236539	0.802677
41403	6.138185	0.877794	8.071581	0.030929	-0.110963	0.020601	-0.793436	-0.155488	0.588458	0.264146	-0.958993	0.102762	0.548349	0.236974	0.801970
41404	6.027970	1.002758	8.248219	0.089699	-0.102704	0.012812	-0.792840	-0.155327	0.589303	0.264686	-0.958776	0.103394	0.548949	0.237955	0.801269
41405	6.242997	0.921075	8.149085	0.035225	-0.107469	0.015713	-0.792179	-0.155224	0.590218	0.264992	-0.958676	0.103541	0.549756	0.238426	0.800576
41406	6.059164	1.022494	8.093142	0.086571	-0.099437	0.011696	-0.791604	-0.155058	0.591034	0.265506	-0.958467	0.104153	0.550337	0.239371	0.799895
41407	6.179177	0.934155	8.178412	0.070658	-0.095204	0.017569	-0.791004	-0.155000	0.591852	0.266022	-0.958278	0.104571	0.550950	0.240162	0.799235
41408	5.857726	0.846949	8.407055	0.104302	-0.101801	0.022321	-0.790385	-0.154928	0.592696	0.266719	-0.958009	0.105261	0.551500	0.241280	0.798518
41409	6.089946	0.837110	8.231956	0.153288	-0.160508	0.018943	-0.789420	-0.154723	0.594035	0.267701	-0.957617	0.106329	0.552406	0.242962	0.797381
41410	6.105889	0.946982	8.245483	0.164554	-0.154108	0.007469	-0.788550	-0.154378	0.595278	0.268616	-0.957220	0.107585	0.553204	0.244737	0.796285
41411	6.177899	1.075692	8.222977	0.141229	-0.162944	0.022930	-0.787557	-0.154199	0.596637	0.269565	-0.956847	0.108529	0.554155	0.246306	0.795139
41412	6.073750	1.131646	8.249702	0.208441	-0.170139	0.017335	-0.786569	-0.153904	0.598016	0.270803	-0.956321	0.110071	0.554955	0.248523	0.793890
41413	6.242678	1.006115	8.134839	0.137740	-0.200098	0.025686	-0.785359	-0.153652	0.599668	0.271757	-0.955947	0.110967	0.556201	0.250113	0.792518
41414	6.118061	1.206759	8.037850	0.177798	-0.187276	0.025102	-0.784251	-0.153381	0.601187	0.272889	-0.955479	0.112214	0.557210	0.252061	0.791191
41415	6.188869	1.009281	8.127567	0.176894	-0.216971	0.037928	-0.782908	-0.153195	0.602981	0.274159	-0.954982	0.113342	0.558473	0.254049	0.789663
41416	6.241437	1.203014	8.063943	0.193701	-0.206691	0.037680	-0.781651	-0.152987	0.604662	0.275483	-0.954447	0.114632	0.559581	0.256176	0.788190
41417	6.231500	1.018050	8.163636	0.177015	-0.238971	0.054529	-0.780133	-0.152893	0.606643	0.276886	-0.953917	0.115653	0.561005	0.258196	0.786517
41418	6.261612	1.233942	8.105904	0.196315	-0.221071	0.056929	-0.778736	-0.152822	0.608454	0.278378	-0.953338	0.116840	0.562207	0.260367	0.784941
41419	6.246780	1.079881	8.017675	0.162045	-0.252557	0.068502	-0.777094	-0.152816	0.610550	0.279809	-0.952820	0.117651	0.563765	0.262263	0.783190
41420	6.117125	1.106666	8.233564	0.158961	-0.272982	0.077821	-0.775337	-0.152798	0.612785	0.281256	-0.952300	0.118408	0.565462	0.264156	0.781329
41421	6.186923	1.191180	8.352170	0.168394	-0.289762	0.083375	-0.773432	-0.152824	0.615181	0.282841	-0.951735	0.119169	0.567277	0.266168	0.779328
41422	6.113988	1.274293	8.252756	0.115929	-0.343242	0.091450	-0.771225	-0.152737	0.617968	0.284152	-0.951303	0.119498	0.569623	0.267756	0.777069
41423	6.261789	1.232137	8.187987	0.081962	-0.381148	0.105294	-0.768720	-0.152715	0.621086	0.285415	-0.950932	0.119441	0.572370	0.269083	0.774588
41424	6.196742	1.291895	8.205752	0.046877	-0.417931	0.116438	-0.765991	-0.152654	0.624463	0.286523	-0.950646	0.119069	0.575467	0.270129	0.771925
41425	6.239072	1.238281	8.255521	0.005573	-0.464420	0.130370	-0.762908	-0.152636	0.628230	0.287535	-0.950442	0.118255	0.579046	0.270856	0.768988
41426	6.015281	1.195639	8.482440	-0.039479	-0.538871	0.140854	-0.759373	-0.152473	0.632538	0.288323	-0.950351	0.117055	0.583285	0.271264	0.765633
41427	6.038831	1.142389	8.475513	-0.016494	-0.697741	0.165056	-0.754780	-0.152144	0.638090	0.289458	-0.950155	0.115841	0.588660	0.272135	0.761198
41428	6.085302	1.241698	8.549655	-0.082157	-0.786251	0.184183	-0.749596	-0.151712	0.644274	0.290303	-0.950117	0.114029	0.594836	0.272510	0.756246
41429	6.091742	1.194389	8.395556	-0.104842	-0.889950	0.213818	-0.743622	-0.151314	0.651253	0.291252	-0.950089	0.111815	0.601829	0.272827	0.750578
41430	6.016918	1.149413	8.448256	-0.130608	-1.002153	0.255026	-0.736810	-0.150961	0.659031	0.292294	-0.950078	0.109161	0.609652	0.273062	0.744152
41431	5.867780	1.058939	8.391530	-0.107413	-1.154406	0.294531	-0.728831	-0.150598	0.667926	0.293771	-0.949939	0.106374	0.618469	0.273746	0.736586
41432	5.823751	1.045784	8.421124	-0.052166	-1.324324	0.350040	-0.719546	-0.150247	0.677997	0.295926	-0.949573	0.103631	0.628237	0.275204	0.727723
41433	6.267102	1.289755	8.304186	0.005837	-1.539914	0.375383	-0.708644	-0.149549	0.689535	0.298618	-0.949006	0.101070	0.639258	0.277531	0.717165
41434	6.542646	1.153046	7.966867	-0.018677	-1.603755	0.405492	-0.697087	-0.148887	0.701358	0.301293	-0.948471	0.098114	0.650610	0.279708	0.706024
41435	6.521597	1.082103	7.898689	0.028448	-1.774779	0.457799	-0.684018	-0.148230	0.714246	0.304614	-0.947723	0.095038	0.662819	0.282577	0.693412
41436	7.062015	1.202204	7.682049	0.030734	-1.925254	0.510118	-0.669571	-0.147551	0.727945	0.308217	-0.946899	0.091569	0.675779	0.285677	0.679494
41437	7.190351	1.205666	7.816951	-0.001553	-1.970647	0.559298	-0.654365	-0.147179	0.741718	0.311880	-0.946092	0.087417	0.688867	0.288529	0.664991
41438	7.365385	0.944045	7.296430	-0.028262	-2.102223	0.565422	-0.637967	-0.146390	0.756021	0.315282	-0.945362	0.082997	0.702563	0.291309	0.649264
41439	7.801848	1.083397	7.322763	-0.062527	-2.211102	0.564593	-0.620461	-0.145247	0.770669	0.318360	-0.944734	0.078257	0.716711	0.293906	0.632412
41440	8.370317	0.998419	7.249123	-0.013968	-2.246166	0.548874	-0.602452	-0.143753	0.785103	0.321560	-0.944001	0.073904	0.730514	0.296981	0.614941
41441	8.438240	1.132812	6.502889	0.002149	-2.168199	0.550655	-0.584667	-0.142466	0.798666	0.324813	-0.943219	0.069530	0.743411	0.300069	0.597744
41442	8.661285	1.097795	6.481816	-0.041359	-2.219878	0.578806	-0.566133	-0.141191	0.812132	0.327779	-0.942541	0.064630	0.756343	0.302789	0.579883
41443	8.929787	1.016429	6.290780	-0.027419	-2.196451	0.588122	-0.547421	-0.140040	0.825057	0.330812	-0.941810	0.059636	0.768696	0.305585	0.561894
41444	9.787906	0.905073	6.570380	0.020710	-2.112362	0.574603	-0.529154	-0.138920	0.837076	0.334011	-0.940964	0.054983	0.780021	0.308688	0.544316
41445	8.969688	0.751703	5.866763	0.023602	-2.003783	0.566410	-0.511492	-0.138020	0.848131	0.337112	-0.940119	0.050316	0.790399	0.311651	0.527392
41446	9.489589	0.660238	5.286946	0.146880	-2.043871	0.569903	-0.493305	-0.136921	0.859012	0.341090	-0.938894	0.046224	0.800192	0.315803	0.509864
41447	10.653902	2.088555	6.199254	0.284458	-1.954977	0.625182	-0.475402	-0.136547	0.869108	0.346374	-0.937145	0.042230	0.808714	0.321113	0.492817
41448	9.689960	2.091515	5.731493	0.102433	-1.733068	0.728839	-0.458780	-0.137738	0.877809	0.350558	-0.935834	0.036374	0.816474	0.324411	0.477627
41449	9.631127	1.122575	5.784905	0.037015	-1.761698	0.781877	-0.441544	-0.139296	0.886361	0.354350	-0.934643	0.029637	0.824303	0.327168	0.462046
41450	9.854681	0.982389	5.513533	0.143334	-1.629519	0.823487	-0.425122	-0.141584	0.893994	0.359052	-0.933035	0.022973	0.830875	0.330757	0.447490
41451	9.910313	0.866290	5.527295	0.245983	-1.555614	0.869880	-0.408979	-0.144495	0.901031	0.364698	-0.930984	0.016239	0.836500	0.335246	0.433450
41452	9.091685	0.929881	5.182409	0.317298	-1.460541	0.928184	-0.393314	-0.148151	0.907389	0.371032	-0.928574	0.009216	0.841213	0.340295	0.420190
41453	9.429945	0.899942	5.299907	0.396600	-1.521514	0.959617	-0.376862	-0.151807	0.913745	0.378039	-0.925787	0.002109	0.845613	0.346226	0.406283
41454	9.201143	0.799259	5.193363	0.424064	-1.442992	1.003006	-0.360806	-0.155997	0.919502	0.385282	-0.922783	-0.005372	0.849339	0.352329	0.393049
41455	9.025397	0.612763	5.075515	0.496117	-1.431153	1.039733	-0.344558	-0.160463	0.924949	0.393136	-0.919388	-0.013049	0.852481	0.359135	0.379867
41456	8.523499	0.297794	4.872856	0.600388	-1.418683	1.059058	-0.328240	-0.164989	0.930074	0.401775	-0.915507	-0.020611	0.854889	0.366915	0.366794
41457	8.102181	-0.117981	4.481431	0.740840	-1.478259	1.095427	-0.311114	-0.169480	0.935139	0.411581	-0.910938	-0.028163	0.856627	0.376123	0.353160
41458	6.954685	-0.490341	4.340298	0.932623	-1.492248	1.106070	-0.293714	-0.173790	0.939962	0.422870	-0.905503	-0.035283	0.857271	0.387119	0.339449
41459	7.279135	-0.733025	4.221487	1.147353	-1.677969	1.130552	-0.274457	-0.177362	0.945101	0.435880	-0.899018	-0.042135	0.857136	0.400387	0.324051
41460	7.229940	-0.836145	4.292773	1.293806	-1.804043	1.151102	-0.253908	-0.180272	0.950280	0.449958	-0.891708	-0.048935	0.856194	0.415162	0.307526
41461	7.182825	-0.704661	4.508045	1.450344	-1.911464	1.195752	-0.232073	-0.182773	0.955372	0.465230	-0.883417	-0.055997	0.854227	0.431473	0.290048
41462	5.396821	0.161203	6.807371	1.535271	-1.714367	1.117650	-0.212175	-0.185018	0.959557	0.480756	-0.874635	-0.062339	0.850797	0.448086	0.274525
41463	13.725846	2.358688	9.133772	1.595210	-1.420630	0.700360	-0.196695	-0.184611	0.962928	0.495680	-0.866085	-0.064793	0.845939	0.464560	0.261862
41464	16.974293	4.383426	9.418076	1.507804	0.647718	0.268113	-0.200806	-0.189930	0.961043	0.508858	-0.858517	-0.063344	0.837103	0.476315	0.269042
41465	8.639689	4.879022	10.350423	1.134902	1.528427	-0.063389	-0.213860	-0.196696	0.956857	0.518129	-0.853224	-0.059589	0.828134	0.483031	0.284384
41466	5.273390	4.751832	9.087622	0.685281	1.932435	-0.248451	-0.231089	-0.203892	0.951328	0.523180	-0.850434	-0.055181	0.820293	0.484964	0.303198
41467	2.849233	3.848511	7.641589	0.253666	1.789284	-0.308522	-0.247350	-0.209905	0.945916	0.524458	-0.849881	-0.051452	0.814716	0.483366	0.320305
41468	1.888492	2.393775	6.762022	-0.070722	1.488531	-0.321354	-0.261144	-0.214299	0.941212	0.523020	-0.850932	-0.048629	0.811328	0.479574	0.334299
41469	2.310868	0.690589	6.572717	-0.166949	1.140809	-0.332809	-0.272153	-0.216883	0.937494	0.520713	-0.852488	-0.046055	0.809191	0.475631	0.344941
41470	3.452556	-0.261326	6.892917	-0.052131	0.913600	-0.384354	-0.281542	-0.217898	0.934481	0.519182	-0.853600	-0.042619	0.806960	0.473167	0.353453
41471	4.885855	-0.422862	7.583233	0.125409	0.859557	-0.444143	-0.290805	-0.218139	0.931583	0.518847	-0.854022	-0.038013	0.803885	0.472294	0.361535
41472	5.976302	0.056571	8.285277	0.267695	0.966590	-0.495741	-0.301137	-0.218432	0.928226	0.519479	-0.853868	-0.032403	0.799661	0.472437	0.370602
41473	6.533739	0.575170	8.809230	0.324402	1.187966	-0.535015	-0.313430	-0.219447	0.923907	0.520338	-0.853558	-0.026216	0.794361	0.472528	0.381718
41474	6.598186	0.838865	8.953147	0.285035	1.433868	-0.552167	-0.327660	-0.221465	0.918473	0.520777	-0.853458	-0.020004	0.788308	0.471766	0.394978
41475	6.453454	0.816255	8.872088	0.208813	1.643665	-0.557183	-0.343516	-0.224415	0.911940	0.520456	-0.853773	-0.014052	0.781743	0.469798	0.410082
41476	6.392218	0.459742	8.718411	0.143930	1.821249	-0.560688	-0.360613	-0.228116	0.904390	0.519555	-0.854396	-0.008341	0.774610	0.466872	0.426625
41477	6.273373	0.188116	8.644684	0.116351	1.968854	-0.572269	-0.378816	-0.232347	0.895831	0.518237	-0.855233	-0.002673	0.766766	0.463240	0.444386
41478	6.125736	-0.054390	8.480051	0.118841	2.089665	-0.577957	-0.397748	-0.237001	0.886356	0.516850	-0.856070	0.003031	0.758065	0.459319	0.462994
41479	5.937486	-0.102489	8.437975	0.138059	2.188610	-0.572773	-0.417257	-0.242066	0.875957	0.515450	-0.856875	0.008738	0.748471	0.455158	0.482310
41480	5.856087	-0.067367	8.517885	0.161034	2.273147	-0.565307	-0.437071	-0.247479	0.864710	0.514183	-0.857559	0.014464	0.737960	0.450941	0.502064
41481	6.076756	0.009116	8.726371	0.192605	2.345199	-0.556799	-0.457175	-0.253188	0.852577	0.512990	-0.858156	0.020235	0.726520	0.446614	0.522211
41482	6.334079	0.199202	8.953737	0.214120	2.458288	-0.553055	-0.477725	-0.259324	0.839363	0.511897	-0.858651	0.026064	0.713960	0.442119	0.542947
41483	6.488975	0.434645	9.093204	0.223267	2.573691	-0.563323	-0.498882	-0.265757	0.824918	0.510605	-0.859220	0.031989	0.700285	0.437166	0.564346
41484	6.620947	0.809925	9.203971	0.213027	2.687430	-0.579285	-0.520468	-0.272414	0.809261	0.509079	-0.859883	0.037954	0.685531	0.431732	0.586221
41485	6.640432	1.124279	9.243992	0.184977	2.792406	-0.602078	-0.542532	-0.279153	0.792296	0.507006	-0.860825	0.043878	0.669779	0.425504	0.608557
41486	6.542504	1.423244	9.288827	0.148295	2.869414	-0.651578	-0.564818	-0.285612	0.774213	0.504329	-0.862068	0.049905	0.653171	0.418645	0.630955
41487	6.494524	1.631467	9.347365	0.111232	2.932576	-0.733718	-0.587491	-0.291390	0.754948	0.500686	-0.863801	0.056224	0.635742	0.411023	0.653370
41488	6.382203	1.881919	9.379192	0.078430	2.966326	-0.850926	-0.610333	-0.296063	0.734738	0.496031	-0.866010	0.063083	0.617614	0.402955	0.675411
41489	6.353954	2.185639	9.439897	0.038817	2.963680	-1.000324	-0.633381	-0.299136	0.713684	0.489909	-0.868911	0.070586	0.599013	0.394348	0.696902
41490	6.361100	2.379483	9.413698	-0.022790	2.942056	-1.172752	-0.656440	-0.300354	0.692007	0.482160	-0.872544	0.078665	0.580180	0.385297	0.717591
41491	6.463206	2.490115	9.423495	-0.080447	2.891427	-1.346053	-0.679457	-0.299509	0.669800	0.472568	-0.876966	0.087234	0.561265	0.375798	0.737399
41492	6.706823	2.543822	9.421116	-0.135830	2.815693	-1.528436	-0.702144	-0.296473	0.647378	0.461208	-0.882053	0.096280	0.542477	0.366178	0.756063
41493	7.031148	2.680147	9.492926	-0.194592	2.736546	-1.701477	-0.724555	-0.291219	0.624669	0.447886	-0.887833	0.105599	0.523849	0.356293	0.773717
41494	7.441955	2.602475	9.549660	-0.273326	2.653416	-1.840217	-0.746328	-0.284102	0.601897	0.432893	-0.894113	0.114738	0.505567	0.346190	0.790288
41495	7.686701	2.560964	9.377940	-0.362347	2.571638	-1.949199	-0.767457	-0.275285	0.578989	0.416191	-0.900874	0.123337	0.487643	0.335626	0.805953
41496	7.638876	2.342224	9.214158	-0.447037	2.475831	-1.997540	-0.787461	-0.265357	0.556319	0.398467	-0.907775	0.131028	0.470243	0.324854	0.820574
41497	7.416599	1.711096	8.894004	-0.540062	2.327131	-1.982732	-0.806006	-0.254624	0.534341	0.380025	-0.914722	0.137350	0.453801	0.313768	0.834035
41498	7.247268	0.711446	8.546658	-0.579700	2.116272	-1.867483	-0.822390	-0.243968	0.513960	0.362180	-0.921189	0.142253	0.438749	0.303134	0.845937
41499	7.876302	-0.356599	8.367555	-0.526273	1.844195	-1.670837	-0.836339	-0.233936	0.495793	0.345901	-0.926814	0.146181	0.425311	0.293752	0.856049
41500	8.364170	-1.156334	7.584352	-0.366853	1.629881	-1.385812	-0.847879	-0.225751	0.479727	0.332642	-0.931085	0.149766	0.412857	0.286561	0.864541
41501	9.774640	-1.084767	7.518950	-0.137523	1.382162	-1.127413	-0.857257	-0.219071	0.465960	0.322327	-0.934040	0.153867	0.401518	0.282095	0.871324
41502	10.790346	-0.672107	6.893083	0.077542	1.105693	-0.802443	-0.864209	-0.214639	0.455053	0.315676	-0.935583	0.158219	0.391780	0.280384	0.876295
41503	12.122962	-0.284007	6.310197	0.265344	0.944321	-0.526459	-0.869568	-0.212271	0.445862	0.312006	-0.936014	0.162879	0.382759	0.280746	0.880158
41504	13.631214	0.629397	5.750388	0.386817	0.759101	-0.268922	-0.873288	-0.211853	0.438733	0.311078	-0.935515	0.167457	0.374965	0.282718	0.882877
41505	14.829250	1.484894	5.584637	0.456528	0.633911	-0.060628	-0.875872	-0.213006	0.432985	0.312124	-0.934395	0.171711	0.368004	0.285542	0.884895
41506	17.235897	1.576909	4.757678	0.452852	0.708950	0.082641	-0.878202	-0.215771	0.426854	0.314448	-0.932939	0.175346	0.360394	0.288213	0.887158
41507	16.749442	2.198684	4.608525	0.437187	1.047823	0.099482	-0.881639	-0.219660	0.417687	0.316777	-0.931501	0.178767	0.349808	0.289922	0.890831
41508	14.866331	2.694134	3.907635	0.323904	1.186674	0.103801	-0.885399	-0.224029	0.407283	0.318759	-0.930353	0.181209	0.338321	0.290267	0.895144
41509	12.848756	2.001694	2.385536	0.175101	1.099354	0.104291	-0.888748	-0.228131	0.397597	0.320190	-0.929645	0.182315	0.328032	0.289339	0.899265
41510	10.446096	1.597688	1.297198	0.046639	0.903732	0.065160	-0.891474	-0.231303	0.389579	0.320873	-0.929382	0.182455	0.319866	0.287659	0.902739
41511	9.029936	0.948001	0.986434	-0.050492	0.492568	0.008047	-0.893025	-0.232748	0.385142	0.320724	-0.929538	0.181923	0.315662	0.285986	0.904748
41512	8.391152	0.472508	1.275073	-0.072345	0.063265	-0.088901	-0.893517	-0.232062	0.384415	0.319653	-0.929972	0.181586	0.315356	0.285130	0.905125
41513	8.599017	0.088907	1.789392	-0.055150	-0.283248	-0.217889	-0.893319	-0.229193	0.386590	0.317484	-0.930657	0.181883	0.318097	0.285216	0.904138
41514	8.655504	0.949205	2.469542	-0.123329	-0.641500	-0.357673	-0.892395	-0.223991	0.391739	0.313845	-0.931841	0.182137	0.324241	0.285484	0.901869
41515	9.011915	0.918262	3.136041	-0.224988	-0.910988	-0.449751	-0.890800	-0.217170	0.399140	0.309059	-0.933496	0.181847	0.333104	0.285347	0.898676
41516	9.191577	0.460161	2.952610	-0.409953	-1.177409	-0.543810	-0.888479	-0.208695	0.408719	0.302782	-0.935841	0.180344	0.344859	0.283985	0.894665
41517	9.711883	-0.296374	2.838543	-0.531546	-1.391105	-0.616578	-0.885420	-0.198962	0.420054	0.295416	-0.938619	0.178114	0.358832	0.281796	0.889848
41518	9.721362	-1.410327	2.702736	-0.506578	-1.573435	-0.653770	-0.881565	-0.188356	0.432857	0.287733	-0.941328	0.176387	0.374237	0.280043	0.884038
41519	6.067707	-0.442525	5.345390	-0.451940	-1.497144	-0.674585	-0.877752	-0.177807	0.444900	0.280059	-0.943838	0.175322	0.388740	0.278487	0.878252
41520	5.234167	0.852194	9.469516	-0.752203	-1.824308	-0.523959	-0.871947	-0.167769	0.459958	0.272431	-0.946841	0.171092	0.406803	0.274490	0.871302
41521	7.755177	0.884064	10.684834	-0.631912	-1.607211	-0.277308	-0.866012	-0.160749	0.473480	0.267386	-0.949033	0.166858	0.422526	0.271103	0.864855
41522	8.337216	6.979086	11.878734	-0.520805	-1.922697	0.790974	-0.855586	-0.163021	0.491322	0.271896	-0.949177	0.158541	0.440506	0.269233	0.856427
41523	23.510516	-5.932327	17.077319	-1.688608	-1.548818	1.034490	-0.845783	-0.168783	0.506126	0.273094	-0.951903	0.138924	0.458335	0.255720	0.851197
41524	6.542552	-3.292310	9.918165	0.758487	0.835679	-0.014955	-0.849620	-0.170761	0.498985	0.276356	-0.949985	0.145450	0.449191	0.261475	0.854317
41525	2.773005	3.035471	6.866850	-0.350618	-0.388259	0.195754	-0.847297	-0.171614	0.502629	0.276428	-0.950571	0.141427	0.453513	0.258772	0.852856
41526	6.297546	4.818800	9.901611	-0.222500	-0.608709	0.242538	-0.843852	-0.172307	0.508158	0.277411	-0.950747	0.138290	0.459301	0.257665	0.850089
41527	8.179736	0.800643	8.900019	-0.462132	-0.139315	0.203067	-0.842618	-0.173884	0.509666	0.276988	-0.951585	0.133283	0.461814	0.253478	0.849986
41528	4.945193	-4.057757	9.277708	-0.299210	-0.200597	0.159440	-0.841251	-0.174855	0.511587	0.276892	-0.952079	0.129909	0.464356	0.250941	0.849354
41529	7.042460	-2.439460	9.535256	0.017191	-0.166839	0.053994	-0.840295	-0.174954	0.513123	0.277419	-0.951950	0.129729	0.465771	0.251361	0.848455
41530	5.147314	0.391060	8.580336	0.176407	-0.087481	-0.038032	-0.839997	-0.174330	0.513823	0.277869	-0.951589	0.131404	0.466040	0.253154	0.847773
41531	5.142790	1.764840	8.462059	0.154154	-0.169370	-0.041753	-0.839292	-0.173508	0.515252	0.278231	-0.951280	0.132872	0.467094	0.254877	0.846676
41532	5.803658	1.790382	8.655721	0.122979	-0.174082	-0.030537	-0.838566	-0.172732	0.516692	0.278497	-0.951036	0.134053	0.468237	0.256309	0.845612
41533	5.517246	1.524207	8.564343	0.100403	-0.127473	-0.025273	-0.838008	-0.172168	0.517785	0.278749	-0.950831	0.134981	0.469086	0.257447	0.844795
41534	5.602959	1.547708	8.629957	0.094172	-0.133406	-0.022201	-0.837447	-0.171572	0.518888	0.278952	-0.950644	0.135874	0.469966	0.258532	0.843975
41535	5.536532	1.819692	8.553466	0.080894	-0.118570	-0.019204	-0.836911	-0.171087	0.519912	0.279165	-0.950477	0.136605	0.470793	0.259468	0.843226
41536	5.382187	2.181762	8.443765	0.050196	-0.114818	-0.005828	-0.836391	-0.170693	0.520879	0.279300	-0.950374	0.137042	0.471638	0.260102	0.842558
41537	5.289211	2.280001	8.297909	-0.008871	-0.127269	0.017958	-0.835708	-0.170536	0.522025	0.279402	-0.950376	0.136823	0.472786	0.260199	0.841884
41538	5.221864	1.817107	8.370233	-0.065508	-0.145986	0.048043	-0.834886	-0.170572	0.523326	0.279440	-0.950482	0.136005	0.474214	0.259787	0.841209
41539	5.353974	1.425831	8.476192	-0.080490	-0.170960	0.059030	-0.833877	-0.170693	0.524893	0.279544	-0.950599	0.134970	0.475924	0.259279	0.840399
41540	5.433216	1.451676	8.493302	-0.085107	-0.186878	0.069579	-0.832795	-0.170829	0.526563	0.279664	-0.950719	0.133873	0.477744	0.258750	0.839529
41541	5.526094	1.467650	8.490392	-0.106395	-0.192969	0.079698	-0.831617	-0.171092	0.528338	0.279811	-0.950866	0.132511	0.479707	0.258034	0.838630
41542	5.579070	1.196375	8.548965	-0.112203	-0.199561	0.084322	-0.830425	-0.171338	0.530129	0.279919	-0.951029	0.131109	0.481704	0.257269	0.837719
41543	5.586678	1.026379	8.505151	-0.105877	-0.200629	0.079347	-0.829203	-0.171580	0.531961	0.280059	-0.951173	0.129753	0.483724	0.256572	0.836768
41544	5.558048	1.271287	8.480702	-0.106457	-0.214691	0.077623	-0.827948	-0.171728	0.533864	0.280133	-0.951331	0.128433	0.485826	0.255889	0.835759
41545	5.599248	1.300056	8.496770	-0.110937	-0.220188	0.076482	-0.826630	-0.171895	0.535850	0.280218	-0.951492	0.127049	0.488018	0.255178	0.834699
41546	5.782259	1.221104	8.522454	-0.103473	-0.230694	0.077450	-0.825288	-0.172004	0.537880	0.280298	-0.951640	0.125755	0.490238	0.254551	0.833589
41547	5.859530	1.105815	8.558321	-0.096527	-0.205284	0.068607	-0.824054	-0.172137	0.539725	0.280382	-0.951776	0.124533	0.492260	0.253951	0.832579
41548	5.838390	1.155917	8.438237	-0.082095	-0.186770	0.061561	-0.822964	-0.172208	0.541363	0.280430	-0.951896	0.123502	0.494053	0.253452	0.831669
41549	5.738761	1.222159	8.447621	-0.086746	-0.176418	0.063114	-0.821881	-0.172365	0.542956	0.280512	-0.952015	0.122391	0.495807	0.252897	0.830794
41550	5.744750	1.153625	8.425782	-0.087752	-0.175351	0.060305	-0.820845	-0.172455	0.544494	0.280518	-0.952151	0.121320	0.497518	0.252325	0.829945
41551	5.718902	1.142132	8.452705	-0.076794	-0.170322	0.060225	-0.819794	-0.172602	0.546028	0.280621	-0.952249	0.120307	0.499190	0.251854	0.829083
41552	5.753768	1.083500	8.414464	-0.080246	-0.180363	0.060950	-0.818724	-0.172688	0.547604	0.280665	-0.952363	0.119294	0.500917	0.251362	0.828190
41553	6.856696	0.731887	8.833186	-0.072810	-0.215206	0.031013	-0.817523	-0.172445	0.549471	0.280545	-0.952501	0.118474	0.502941	0.251006	0.827071
41554	5.367592	1.017512	8.113374	-0.006992	0.038732	0.008869	-0.817697	-0.172586	0.549169	0.280528	-0.952521	0.118353	0.502669	0.250834	0.827289
41555	5.879830	1.209540	8.425989	-0.047865	-0.169959	0.013464	-0.816769	-0.172290	0.550639	0.280389	-0.952626	0.117835	0.504252	0.250637	0.826384
41556	5.686228	1.156235	8.466155	-0.057870	-0.092441	0.012784	-0.816270	-0.172140	0.551426	0.280147	-0.952767	0.117272	0.505193	0.250206	0.825940
41557	5.810143	1.195641	8.361683	-0.034713	-0.111640	0.010846	-0.815642	-0.171966	0.552410	0.280051	-0.952844	0.116878	0.506261	0.250034	0.825338
41558	5.689297	1.185901	8.340248	-0.056938	-0.115104	0.013314	-0.815024	-0.171764	0.553383	0.279817	-0.952981	0.116320	0.507383	0.249650	0.824765
41559	5.787335	1.250056	8.418463	-0.049681	-0.124280	0.016415	-0.814313	-0.171613	0.554476	0.279690	-0.953085	0.115773	0.508594	0.249357	0.824107
41560	5.770052	1.177315	8.361856	-0.067573	-0.127977	0.020432	-0.813607	-0.171448	0.555562	0.279458	-0.953236	0.115088	0.509849	0.248893	0.823472
41561	5.852297	1.051701	8.413945	-0.065628	-0.135771	0.019143	-0.812827	-0.171294	0.556750	0.279269	-0.953374	0.114395	0.511196	0.248467	0.822765
41562	5.843948	0.988388	8.446665	-0.054491	-0.151918	0.009127	-0.812027	-0.170963	0.558018	0.279010	-0.953512	0.113882	0.512607	0.248168	0.821977
41563	5.986570	0.938206	8.352834	-0.068593	-0.146718	0.002810	-0.811231	-0.170628	0.559276	0.278671	-0.953685	0.113256	0.514049	0.247731	0.821209
41564	5.793687	1.056569	8.416528	-0.047968	-0.127617	-0.007363	-0.810598	-0.170201	0.560323	0.278311	-0.953834	0.112889	0.515241	0.247452	0.820545
41565	5.921362	1.081325	8.376343	-0.052302	-0.137953	-0.004452	-0.809865	-0.169819	0.561499	0.277995	-0.953979	0.112439	0.516564	0.247154	0.819803
41566	5.813253	1.063852	8.335157	-0.065388	-0.124906	-0.007160	-0.809242	-0.169401	0.562522	0.277544	-0.954170	0.111929	0.517781	0.246703	0.819171
41567	5.877745	1.045167	8.304607	-0.049954	-0.148349	-0.010368	-0.808467	-0.168938	0.563775	0.277191	-0.954319	0.111533	0.519179	0.246444	0.818363
41568	5.905321	1.123866	8.333212	-0.049279	-0.137813	-0.009491	-0.807780	-0.168467	0.564899	0.276804	-0.954474	0.111169	0.520453	0.246167	0.817637
41569	5.956989	1.121275	8.288765	-0.057914	-0.138930	-0.007333	-0.807041	-0.168056	0.566076	0.276433	-0.954637	0.110691	0.521795	0.245814	0.816888
41570	5.978612	1.109358	8.261920	-0.050088	-0.107685	-0.004087	-0.806493	-0.167712	0.566958	0.276084	-0.954785	0.110292	0.522826	0.245478	0.816329
41571	6.019870	1.098327	8.305823	-0.056544	-0.124916	-0.000224	-0.805805	-0.167404	0.568027	0.275775	-0.954932	0.109786	0.524048	0.245114	0.815655
41572	5.991189	1.133385	8.293387	-0.042753	-0.082946	0.003108	-0.805364	-0.167190	0.568714	0.275522	-0.955049	0.109406	0.524858	0.244805	0.815226
41573	6.004374	1.096376	8.244953	-0.061787	-0.100130	0.004003	-0.804792	-0.166984	0.569584	0.275218	-0.955201	0.108834	0.525894	0.244349	0.814696
41574	6.065837	1.069335	8.250431	-0.046516	-0.065296	0.004532	-0.804439	-0.166827	0.570129	0.274956	-0.955325	0.108416	0.526571	0.243974	0.814370
41575	5.922423	1.165875	8.331397	-0.035790	-0.064462	0.006824	-0.804045	-0.166736	0.570710	0.274811	-0.955409	0.108041	0.527247	0.243707	0.814013
41576	6.126737	1.006668	8.263515	-0.050780	-0.059504	0.002798	-0.803727	-0.166577	0.571206	0.274511	-0.955545	0.107598	0.527889	0.243282	0.813724
41577	5.852052	1.089791	8.188738	-0.037355	-0.043337	0.006285	-0.803445	-0.166532	0.571614	0.274353	-0.955634	0.107213	0.528399	0.242964	0.813488
41578	6.165162	0.999668	8.275017	-0.056656	-0.048712	0.005167	-0.803176	-0.166422	0.572024	0.274041	-0.955780	0.106709	0.528970	0.242464	0.813266
41579	5.869655	1.024271	8.241674	-0.050591	-0.032404	0.004971	-0.802956	-0.166392	0.572342	0.273802	-0.955902	0.106224	0.529428	0.242002	0.813106
41580	5.983537	1.081965	8.249135	-0.031565	-0.043626	-0.000412	-0.802729	-0.166241	0.572705	0.273577	-0.955996	0.105957	0.529889	0.241733	0.812885
41581	6.046609	0.974788	8.289710	-0.053049	-0.052461	0.000441	-0.802414	-0.166119	0.573181	0.273287	-0.956132	0.105478	0.530514	0.241280	0.812612
41582	5.916776	1.039011	8.275278	-0.046566	-0.038671	-0.004405	-0.802224	-0.165943	0.573498	0.272950	-0.956269	0.105112	0.530976	0.240860	0.812435
41583	6.064926	1.017285	8.153953	-0.032385	-0.063325	-0.001964	-0.801857	-0.165771	0.574060	0.272751	-0.956358	0.104816	0.531631	0.240622	0.812077
41584	5.934700	0.976042	8.327530	-0.044660	-0.014606	-0.000245	-0.801783	-0.165693	0.574186	0.272457	-0.956483	0.104441	0.531894	0.240180	0.812036
41585	5.964491	1.105291	8.231674	-0.016009	-0.064914	-0.005122	-0.801416	-0.165488	0.574757	0.272319	-0.956538	0.104296	0.532517	0.240102	0.811650
41586	6.021860	1.031823	8.315879	-0.036182	-0.019141	-0.002108	-0.801322	-0.165381	0.574919	0.272054	-0.956645	0.104001	0.532793	0.239748	0.811574
41587	5.895277	1.074243	8.224492	-0.008804	-0.067241	-0.000148	-0.800929	-0.165218	0.575513	0.271994	-0.956675	0.103886	0.533415	0.239742	0.811167
41588	6.040688	1.020341	8.290593	-0.040997	-0.028905	-0.000621	-0.800779	-0.165102	0.575755	0.271716	-0.956791	0.103544	0.533782	0.239358	0.811039
41589	5.917061	1.103234	8.155476	-0.015520	-0.072685	0.001679	-0.800351	-0.164943	0.576395	0.271634	-0.956834	0.103365	0.534465	0.239296	0.810607
41590	5.919611	0.946675	8.238980	-0.015007	-0.037732	0.002257	-0.800146	-0.164834	0.576712	0.271517	-0.956883	0.103217	0.534832	0.239175	0.810401
41591	6.079433	1.047088	8.341711	-0.047860	-0.075542	0.002399	-0.799700	-0.164675	0.577375	0.271267	-0.957002	0.102771	0.535625	0.238809	0.809985
41592	6.003074	1.034376	8.090567	-0.012408	-0.067026	0.003612	-0.799333	-0.164509	0.577930	0.271175	-0.957042	0.102637	0.536219	0.238761	0.809606
41593	6.012170	1.024370	8.298385	-0.006162	-0.048500	0.002094	-0.799032	-0.164412	0.578374	0.271145	-0.957062	0.102531	0.536682	0.238749	0.809303
41594	6.048613	1.008080	8.200669	-0.029960	-0.066456	0.005281	-0.798664	-0.164263	0.578925	0.270972	-0.957142	0.102245	0.537318	0.238532	0.808945
41595	6.008401	1.028778	8.134174	-0.020745	-0.060354	0.004228	-0.798292	-0.164158	0.579466	0.270881	-0.957193	0.102010	0.537915	0.238400	0.808587
41596	5.984034	1.033460	8.258493	-0.011274	-0.066099	0.005188	-0.797925	-0.164009	0.580014	0.270807	-0.957228	0.101875	0.538497	0.238361	0.808211
41597	6.007440	0.984455	8.224031	-0.005429	-0.060989	0.005558	-0.797546	-0.163916	0.580562	0.270808	-0.957240	0.101756	0.539057	0.238376	0.807833
41598	5.982657	1.104115	8.305355	-0.005094	-0.063786	0.008307	-0.797182	-0.163802	0.581093	0.270792	-0.957255	0.101654	0.539604	0.238392	0.807463
41599	6.071344	1.017538	8.114805	-0.015417	-0.077775	0.005809	-0.796711	-0.163671	0.581776	0.270742	-0.957291	0.101453	0.540324	0.238339	0.806997
41600	6.111973	0.999989	8.193638	-0.017587	-0.069012	0.016922	-0.796295	-0.163627	0.582358	0.270727	-0.957322	0.101199	0.540945	0.238244	0.806609
41601	5.999139	1.091977	8.148880	-0.000741	-0.064037	0.009751	-0.795887	-0.163566	0.582933	0.270786	-0.957316	0.101094	0.541516	0.238309	0.806207
41602	6.121984	1.062957	8.219841	0.010457	-0.056905	0.015409	-0.795539	-0.163537	0.583415	0.270911	-0.957283	0.101075	0.541964	0.238463	0.805860
41603	6.054846	1.067176	8.204436	-0.013514	-0.057662	0.023757	-0.795127	-0.163625	0.583952	0.271012	-0.957285	0.100785	0.542518	0.238395	0.805507
41604	6.147535	1.019556	8.148749	-0.014679	-0.054929	0.015833	-0.794788	-0.163604	0.584419	0.271004	-0.957311	0.100562	0.543018	0.238305	0.805197
41605	6.052701	0.883470	8.083262	-0.017958	-0.050574	0.024381	-0.794412	-0.163715	0.584899	0.271085	-0.957322	0.100232	0.543527	0.238184	0.804889
41606	6.101543	1.053091	8.244503	0.006023	-0.057000	0.021392	-0.794046	-0.163743	0.585388	0.271233	-0.957290	0.100143	0.543988	0.238295	0.804545
41607	6.073633	0.946118	8.234806	0.027449	-0.037799	0.023418	-0.793742	-0.163874	0.585763	0.271554	-0.957195	0.100185	0.544272	0.238587	0.804266
41608	6.112413	1.029216	8.160926	0.006354	-0.059809	0.024155	-0.793353	-0.163922	0.586277	0.271725	-0.957157	0.100082	0.544753	0.238706	0.803905
41609	6.120304	0.888505	8.123180	-0.032963	-0.052759	0.025917	-0.792960	-0.164041	0.586775	0.271737	-0.957201	0.099622	0.545320	0.238445	0.803598
41610	6.051613	1.022396	8.176442	0.027172	-0.045377	0.017627	-0.792667	-0.164060	0.587166	0.271970	-0.957125	0.099725	0.545630	0.238740	0.803300
41611	6.031816	1.063072	8.291181	0.041883	-0.058216	0.023129	-0.792251	-0.164140	0.587704	0.272367	-0.956995	0.099883	0.546035	0.239204	0.802887
41612	6.130015	0.855953	8.122656	-0.008909	-0.069287	0.012509	-0.791841	-0.164053	0.588281	0.272362	-0.957013	0.099726	0.546632	0.239192	0.802484
41613	5.992820	1.038462	8.119658	0.037058	-0.067765	0.017254	-0.791388	-0.164052	0.588890	0.272686	-0.956905	0.099880	0.547126	0.239626	0.802018
41614	6.107868	1.077797	8.276581	0.081706	-0.069148	0.014363	-0.790973	-0.163983	0.589467	0.273192	-0.956702	0.100438	0.547474	0.240481	0.801524
41615	6.126067	0.878436	8.149314	0.018607	-0.086936	0.017546	-0.790414	-0.163938	0.590229	0.273417	-0.956637	0.100442	0.548169	0.240769	0.800963
41616	6.086716	1.033473	8.148948	0.057664	-0.085904	0.020089	-0.789890	-0.163882	0.590945	0.273837	-0.956482	0.100773	0.548714	0.241422	0.800393
41617	6.082901	1.176057	8.230835	0.089503	-0.089457	0.015697	-0.789321	-0.163812	0.591725	0.274437	-0.956249	0.101354	0.549233	0.242392	0.799743
41618	6.091783	0.805886	8.132942	0.045353	-0.092672	0.033914	-0.788721	-0.163870	0.592508	0.274898	-0.956100	0.101504	0.549864	0.242938	0.799144
41619	5.758966	0.780871	8.713879	0.111064	-0.105685	0.029800	-0.788023	-0.163893	0.593430	0.275728	-0.955790	0.102173	0.550449	0.244140	0.798374
41620	6.071429	0.955554	8.187728	0.140351	-0.201853	0.031934	-0.786825	-0.163663	0.595081	0.276698	-0.955411	0.103091	0.551675	0.245772	0.797026
41621	6.130843	0.884837	8.170311	0.128035	-0.170884	0.024863	-0.785778	-0.163475	0.596514	0.277584	-0.955064	0.103921	0.552721	0.247242	0.795846
41622	6.167126	1.074172	8.217743	0.146500	-0.173145	0.033417	-0.784729	-0.163323	0.597934	0.278602	-0.954663	0.104875	0.553697	0.248884	0.794655
41623	6.131512	1.075029	8.153108	0.164295	-0.190627	0.030514	-0.783553	-0.163134	0.599526	0.279735	-0.954213	0.105955	0.554791	0.250730	0.793311
41624	6.171093	1.152263	8.242121	0.159725	-0.200163	0.043424	-0.782322	-0.163003	0.601167	0.280907	-0.953757	0.106949	0.555934	0.252541	0.791934
41625	6.129479	1.154159	8.230015	0.193604	-0.207730	0.042460	-0.781013	-0.162876	0.602902	0.282299	-0.953207	0.108184	0.557070	0.254692	0.790446
41626	6.266311	1.183030	7.977181	0.145896	-0.244214	0.064803	-0.779469	-0.162828	0.604908	0.283563	-0.952746	0.108934	0.558587	0.256440	0.788809
41627	6.181531	1.090600	8.178151	0.132244	-0.226179	0.079053	-0.777946	-0.162994	0.606823	0.284901	-0.952287	0.109456	0.560029	0.258035	0.787265
41628	6.250207	1.181160	8.212859	0.166456	-0.226215	0.083733	-0.776441	-0.163164	0.608701	0.286430	-0.951737	0.110246	0.561336	0.259950	0.785703
41629	6.110726	1.084509	8.098299	0.133104	-0.249109	0.091318	-0.774744	-0.163377	0.610802	0.287869	-0.951251	0.110693	0.562941	0.261590	0.784007
41630	6.119814	1.137854	8.342602	0.056247	-0.296044	0.105845	-0.772772	-0.163567	0.613245	0.288950	-0.950949	0.110475	0.565094	0.262569	0.782129
41631	6.253510	1.275603	8.291391	0.033289	-0.326083	0.117385	-0.770551	-0.163819	0.615966	0.290026	-0.950679	0.109974	0.567570	0.263386	0.780059
41632	6.278282	1.210397	8.204026	-0.019898	-0.350444	0.131606	-0.768178	-0.164106	0.618847	0.290870	-0.950534	0.108996	0.570348	0.263732	0.777913
41633	6.312129	1.165602	8.138253	-0.063903	-0.376842	0.132983	-0.765602	-0.164369	0.621962	0.291505	-0.950494	0.107635	0.573479	0.263711	0.775615
41634	6.248747	1.099799	8.202191	-0.105849	-0.412983	0.145785	-0.762804	-0.164625	0.625323	0.291955	-0.950551	0.105897	0.576969	0.263345	0.773147
41635	6.225042	1.065285	8.267858	-0.100006	-0.465716	0.154851	-0.759621	-0.164864	0.629123	0.292535	-0.950570	0.104115	0.580860	0.263128	0.770302
41636	6.165155	1.052524	8.214676	-0.107391	-0.559718	0.167298	-0.755870	-0.164941	0.633605	0.293121	-0.950595	0.102224	0.585441	0.262991	0.766873
41637	6.282925	1.106223	8.152553	-0.131065	-0.631055	0.181965	-0.751592	-0.165003	0.638658	0.293700	-0.950650	0.100026	0.590635	0.262753	0.762962
41638	6.307637	1.049301	8.055280	-0.146147	-0.674617	0.205672	-0.746986	-0.165146	0.644002	0.294319	-0.950712	0.097586	0.596144	0.262438	0.758774
41639	6.285142	0.998261	8.070684	-0.150007	-0.738856	0.230982	-0.741845	-0.165395	0.649854	0.295117	-0.950734	0.094920	0.602139	0.262199	0.754109
41640	6.336092	0.987705	8.010992	-0.135992	-0.812475	0.247788	-0.736196	-0.165580	0.656200	0.296070	-0.950699	0.092273	0.608570	0.262212	0.748924
41641	6.362178	0.935670	7.976372	-0.127354	-0.901416	0.277058	-0.729823	-0.165839	0.663216	0.297297	-0.950585	0.089459	0.615607	0.262461	0.743063
41642	6.287667	0.850391	8.017295	-0.095654	-0.974653	0.301845	-0.722890	-0.166106	0.670701	0.298842	-0.950353	0.086731	0.622996	0.263131	0.736640
41643	6.206195	0.759977	7.856709	-0.018564	-1.076929	0.336925	-0.715094	-0.166454	0.678921	0.301123	-0.949853	0.084287	0.630845	0.264712	0.729357
41644	6.394959	0.886937	7.821847	0.075844	-1.205688	0.358733	-0.706354	-0.166612	0.687972	0.304099	-0.949072	0.082380	0.639209	0.267400	0.721047
41645	6.856884	1.014778	7.707375	0.079936	-1.282001	0.363804	-0.696957	-0.166606	0.697491	0.307139	-0.948262	0.080398	0.648009	0.270261	0.712070
41646	6.698256	0.956111	7.895995	0.060337	-1.343224	0.384082	-0.687008	-0.166556	0.707304	0.310135	-0.947477	0.078124	0.657142	0.273031	0.702580
41647	6.936370	0.940293	7.593144	0.062118	-1.467761	0.409907	-0.675979	-0.166397	0.717889	0.313312	-0.946636	0.075604	0.666999	0.276030	0.692041
41648	6.978028	0.891700	7.609226	0.043774	-1.524799	0.440554	-0.664346	-0.166293	0.728691	0.316503	-0.945800	0.072716	0.677104	0.278941	0.680971
41649	7.152523	0.869366	7.267039	0.036967	-1.625954	0.456710	-0.651764	-0.166038	0.740024	0.319732	-0.944950	0.069581	0.687732	0.281960	0.668972
41650	7.464223	0.941599	7.508460	0.031560	-1.724480	0.461968	-0.638326	-0.165471	0.751770	0.322875	-0.944114	0.066344	0.698779	0.285077	0.656079
41651	7.647360	0.757886	7.176979	-0.015196	-1.776987	0.475943	-0.624231	-0.164859	0.763647	0.325742	-0.943383	0.062612	0.710090	0.287836	0.642591
41652	8.039102	0.965985	7.245141	0.036534	-1.845836	0.495783	-0.609398	-0.164149	0.775686	0.329006	-0.942481	0.059030	0.721380	0.291178	0.628352
41653	7.934668	0.943500	6.748364	0.041133	-1.789592	0.498576	-0.594710	-0.163590	0.787120	0.332276	-0.941556	0.055364	0.732060	0.294466	0.614310
41654	8.270222	0.764491	6.588221	-0.016476	-1.874269	0.508141	-0.579192	-0.162786	0.798773	0.335081	-0.940795	0.051239	0.743140	0.297331	0.599447
41655	8.395431	0.769396	6.256444	0.029392	-1.852309	0.520229	-0.563543	-0.162124	0.810022	0.338242	-0.939874	0.047205	0.753665	0.300585	0.584497
41656	8.778252	0.652030	6.588790	0.030745	-1.849816	0.535917	-0.547687	-0.161527	0.820943	0.341398	-0.938934	0.043019	0.763863	0.303829	0.569387
41657	8.992281	0.535159	6.255194	0.058568	-1.818044	0.531648	-0.531854	-0.160945	0.831401	0.344686	-0.937910	0.038935	0.773514	0.307280	0.554306
41658	8.921645	0.387300	5.850118	0.122123	-1.772693	0.524747	-0.516246	-0.160340	0.841297	0.348331	-0.936710	0.035222	0.782404	0.311233	0.539424
41659	9.051271	0.525257	5.416355	0.288118	-1.779109	0.523144	-0.500384	-0.159632	0.850960	0.353224	-0.934981	0.032310	0.790474	0.316747	0.524235
41660	9.773600	1.501517	5.644609	0.414335	-1.706325	0.555256	-0.484860	-0.159316	0.859959	0.359195	-0.932790	0.029712	0.797427	0.323299	0.509498
41661	9.908518	2.191564	5.747880	0.248467	-1.544892	0.653559	-0.470091	-0.160356	0.867929	0.364273	-0.930949	0.025299	0.803940	0.328056	0.496044
41662	9.760497	1.323299	5.406847	0.135932	-1.419904	0.745566	-0.455901	-0.162567	0.875058	0.368768	-0.929317	0.019480	0.810040	0.331574	0.483626
41663	8.971670	0.314476	5.411870	0.168973	-1.469633	0.750999	-0.441131	-0.164616	0.882216	0.373478	-0.927538	0.013676	0.816038	0.335521	0.470646
41664	10.062255	0.609637	5.141230	0.345580	-1.372007	0.791951	-0.426922	-0.167270	0.888683	0.379691	-0.925076	0.008282	0.820715	0.340961	0.458446
41665	9.380307	0.844140	5.189804	0.469562	-1.299399	0.804541	-0.413115	-0.170206	0.894631	0.386900	-0.922116	0.003224	0.824405	0.347465	0.446793
41666	9.849520	1.086858	5.222200	0.493184	-1.222903	0.880231	-0.399578	-0.173978	0.900038	0.394498	-0.918893	-0.002483	0.827471	0.354072	0.435804
41667	9.593362	1.054892	5.130324	0.476843	-1.117851	0.966036	-0.386433	-0.178822	0.904816	0.402214	-0.915500	-0.009154	0.829996	0.360393	0.425704
41668	8.912385	0.621524	4.821025	0.508067	-1.129190	1.003694	-0.372974	-0.183844	0.909446	0.410197	-0.911855	-0.016105	0.832244	0.367045	0.415510
41669	8.765640	0.343590	4.691768	0.547757	-1.095264	1.055636	-0.359442	-0.189365	0.913752	0.418593	-0.907870	-0.023484	0.834015	0.374049	0.405594
41670	8.648449	0.427363	4.491635	0.654352	-1.106277	1.109576	-0.345517	-0.195190	0.917888	0.427915	-0.903287	-0.031007	0.835169	0.382065	0.395625
41671	8.410865	0.016144	4.254514	0.739028	-1.124613	1.152073	-0.331103	-0.201194	0.921896	0.437954	-0.898163	-0.038722	0.835803	0.390927	0.385498
41672	8.239590	0.084445	4.208173	0.834379	-1.151652	1.207798	-0.316126	-0.207408	0.925768	0.448787	-0.892418	-0.046687	0.835856	0.400714	0.375199
41673	8.140448	-0.163463	4.000621	0.949633	-1.179903	1.246946	-0.300570	-0.213676	0.929516	0.460533	-0.885953	-0.054744	0.835205	0.411619	0.364696
41674	8.526728	-0.221010	4.196427	1.030471	-1.249644	1.319020	-0.283988	-0.220057	0.933234	0.472941	-0.878817	-0.063307	0.834073	0.423386	0.353648
41675	7.847821	0.053564	3.819945	1.145230	-1.180491	1.388170	-0.267471	-0.227101	0.936421	0.486275	-0.870810	-0.072294	0.831863	0.436021	0.343350
41676	8.116542	-0.368750	3.767281	1.236360	-1.303998	1.447636	-0.249506	-0.233828	0.939719	0.500238	-0.862027	-0.081678	0.829161	0.449704	0.332051
41677	8.061406	-0.541855	3.487787	1.263180	-1.296640	1.513270	-0.231075	-0.240853	0.942653	0.514294	-0.852687	-0.091796	0.825897	0.463589	0.320904
41678	7.791256	-0.599604	3.174134	1.319316	-1.319648	1.565536	-0.212046	-0.247872	0.945302	0.528589	-0.842680	-0.102392	0.821967	0.477965	0.309709
41679	7.768972	0.143827	3.800317	1.309168	-1.130903	1.586691	-0.194257	-0.255649	0.947052	0.542509	-0.832359	-0.113410	0.817281	0.491754	0.300383
41680	7.108205	1.441254	7.648651	1.203034	-0.698233	1.324392	-0.181311	-0.263096	0.947579	0.554754	-0.822969	-0.122351	0.812019	0.503490	0.295167
41681	15.762554	2.697973	9.162701	1.340852	0.246628	0.667643	-0.179546	-0.269787	0.946033	0.566758	-0.814395	-0.124683	0.804083	0.513785	0.299125
41682	10.686210	3.797737	9.787196	1.243785	1.822271	0.177640	-0.193098	-0.280597	0.940201	0.576982	-0.807518	-0.122499	0.793602	0.518825	0.317829
41683	6.084945	3.710278	9.014274	1.111614	2.191577	-0.214891	-0.211619	-0.290236	0.933263	0.585270	-0.802379	-0.116821	0.782737	0.521489	0.339665
41684	2.288915	3.675992	7.525582	0.837247	2.190649	-0.475754	-0.231469	-0.297813	0.926137	0.590685	-0.799445	-0.109444	0.772990	0.521723	0.360961
41685	1.939223	3.640750	6.627006	0.464873	1.876510	-0.636333	-0.249684	-0.302466	0.919876	0.592686	-0.798970	-0.101836	0.765755	0.519770	0.378758
41686	1.726297	2.887658	6.153960	0.031891	1.527544	-0.700368	-0.265508	-0.304730	0.914683	0.591081	-0.800966	-0.095270	0.761662	0.515357	0.392783
41687	2.047974	1.631867	6.311769	-0.282867	1.226365	-0.718331	-0.279093	-0.305212	0.910469	0.586923	-0.804645	-0.089823	0.760019	0.509306	0.403706
41688	3.304902	0.565986	7.027342	-0.417530	1.010011	-0.761241	-0.291225	-0.304141	0.907020	0.581535	-0.809112	-0.084592	0.759609	0.502828	0.412503
41689	4.756524	-0.156047	7.932000	-0.420608	0.964127	-0.827647	-0.303368	-0.302208	0.903680	0.575824	-0.813764	-0.078833	0.759207	0.496446	0.420888
41690	5.890544	-0.502817	8.642270	-0.344124	1.068480	-0.899996	-0.316641	-0.300097	0.899822	0.570378	-0.818206	-0.072165	0.757897	0.490388	0.430246
41691	7.576863	-0.975306	9.201416	-0.249114	1.230349	-0.984775	-0.331580	-0.297983	0.895132	0.565240	-0.822409	-0.064395	0.755353	0.484612	0.441127
41692	35.707979	-16.320439	1.169284	0.334903	-0.011550	0.105401	-0.330906	-0.298754	0.895124	0.568070	-0.820500	-0.063845	0.753524	0.487366	0.441221
41693	-0.095456	-9.051758	4.649101	0.314382	3.186531	0.947031	-0.349337	-0.321891	0.879971	0.573584	-0.816080	-0.070814	0.740922	0.479999	0.469719
41694	19.863936	-4.351861	-2.213506	1.823605	-1.105235	1.330446	-0.333446	-0.327215	0.884163	0.591530	-0.802875	-0.074047	0.734102	0.498318	0.461273
41695	8.945853	-1.291583	-0.437884	-0.259964	1.387290	1.522278	-0.334597	-0.346254	0.876444	0.594659	-0.799074	-0.088667	0.731045	0.491517	0.473270
41696	5.702268	0.165705	8.904530	0.255555	0.836405	1.090446	-0.334191	-0.359009	0.871452	0.600123	-0.794009	-0.096965	0.726752	0.490573	0.480800
41697	12.425624	0.511803	10.340772	0.276907	1.129826	0.194325	-0.341220	-0.366060	0.865777	0.602732	-0.791988	-0.097313	0.721307	0.488626	0.490878
41698	12.054103	3.485293	9.098723	0.353634	2.640315	-0.425613	-0.362695	-0.375460	0.852925	0.603719	-0.791886	-0.091867	0.709912	0.481608	0.513886
41699	0.605987	3.499362	7.516513	0.191977	2.034264	-0.754698	-0.381624	-0.379186	0.842960	0.602211	-0.793856	-0.084466	0.701217	0.475405	0.531304
41700	0.490546	3.795033	5.763152	-0.287030	1.149298	-0.883167	-0.394974	-0.377541	0.837531	0.596726	-0.798589	-0.078574	0.698508	0.468742	0.540711
41701	2.808794	2.462830	6.309576	-0.556996	0.625617	-1.000846	-0.405314	-0.372400	0.834889	0.588769	-0.804978	-0.073228	0.699337	0.461876	0.545526
41702	5.110274	1.305162	8.162755	-0.667088	0.685811	-1.197658	-0.417120	-0.365815	0.831980	0.579128	-0.812488	-0.066894	0.700444	0.453920	0.550758
41703	5.685328	0.930052	9.785376	-0.632023	0.915945	-1.446408	-0.431875	-0.358093	0.827801	0.568497	-0.820611	-0.058390	0.700211	0.445385	0.557976
41704	5.896584	0.811570	10.229420	-0.536202	1.150778	-1.683756	-0.449410	-0.349242	0.822229	0.557280	-0.828964	-0.047508	0.698190	0.436861	0.567171
41705	5.566770	0.692054	10.114151	-0.494774	1.398802	-1.837740	-0.469330	-0.339945	0.814964	0.545321	-0.837484	-0.035293	0.694517	0.427853	0.578435
41706	5.578699	0.384174	9.912138	-0.487440	1.590412	-1.887592	-0.490523	-0.330747	0.806222	0.532839	-0.845908	-0.022837	0.689543	0.418384	0.591172
41707	5.857304	-0.110686	9.659234	-0.433897	1.689324	-1.863089	-0.511984	-0.321868	0.796413	0.520444	-0.853831	-0.010499	0.683381	0.409113	0.604662
41708	5.388045	-0.646044	9.716468	-0.474160	1.835493	-1.750149	-0.533473	-0.314237	0.785278	0.508021	-0.861345	0.000445	0.676255	0.399175	0.619143
41709	6.200895	-0.746587	10.106575	-0.420617	1.873467	-1.639373	-0.554354	-0.307413	0.773427	0.496193	-0.868148	0.010585	0.668195	0.389636	0.633797
41710	10.120074	0.658596	7.855271	-0.134137	1.721438	-1.784335	-0.574544	-0.298481	0.762108	0.485179	-0.874101	0.023427	0.659166	0.383219	0.647026
41711	5.119708	2.650841	8.694205	-0.968801	2.250584	-1.951779	-0.598634	-0.289743	0.746784	0.467297	-0.883528	0.031795	0.650592	0.368004	0.664306
41712	7.821245	0.668777	8.277249	-1.344676	1.784741	-2.166490	-0.620099	-0.276857	0.734049	0.445325	-0.894528	0.038811	0.645882	0.350956	0.677987
41713	7.960147	0.604117	8.124804	-1.443694	1.807460	-2.487382	-0.642547	-0.260599	0.720571	0.420240	-0.906195	0.047005	0.640728	0.333016	0.691786
41714	4.465842	-0.771803	8.275207	-1.807473	1.800484	-2.424586	-0.663908	-0.244246	0.706802	0.392804	-0.918169	0.051679	0.636342	0.311945	0.705521
41715	6.938562	-3.099235	8.616638	-1.323247	1.562828	-2.102897	-0.681884	-0.229547	0.694508	0.370173	-0.927214	0.056984	0.630877	0.295945	0.717224
41716	8.286681	-2.759237	8.951999	-0.740383	1.894006	-1.714014	-0.699944	-0.219061	0.679773	0.353642	-0.933230	0.063397	0.620497	0.284771	0.730677
41717	6.891429	0.024084	9.852075	-0.449235	2.103467	-1.341728	-0.717564	-0.212364	0.663328	0.341277	-0.937422	0.069067	0.607151	0.275938	0.745135
41718	7.230580	0.928595	9.522238	-0.413791	2.158784	-1.021725	-0.733958	-0.208594	0.646370	0.331324	-0.940717	0.072637	0.592900	0.267470	0.759559
41719	6.701340	1.327826	9.216850	-0.488306	2.249188	-0.774107	-0.749700	-0.207164	0.628516	0.322624	-0.943646	0.073796	0.577809	0.258099	0.774288
41720	6.843763	1.096625	9.091142	-0.503303	2.277121	-0.577307	-0.764526	-0.207437	0.610303	0.315329	-0.946137	0.073428	0.562199	0.248584	0.788757
41721	7.018231	0.667142	8.891376	-0.391305	2.297188	-0.428368	-0.778633	-0.208942	0.591670	0.309757	-0.948020	0.072855	0.545693	0.240001	0.802882
41722	6.979119	0.631952	8.628594	-0.196015	2.323378	-0.293832	-0.792017	-0.211611	0.572652	0.306343	-0.949121	0.072965	0.528075	0.233217	0.816545
41723	7.082222	0.719413	8.393891	0.033957	2.320563	-0.150678	-0.804557	-0.215487	0.553402	0.305218	-0.949398	0.074057	0.509440	0.228491	0.829616
41724	7.206911	0.833029	8.224117	0.276729	2.315266	-0.007329	-0.816153	-0.220638	0.534054	0.306488	-0.948804	0.076394	0.489857	0.226030	0.841992
41725	7.445575	1.019235	8.097550	0.519015	2.300669	0.126264	-0.826837	-0.226979	0.514608	0.309920	-0.947383	0.080093	0.469352	0.225711	0.853676
41726	7.600103	1.164584	7.876145	0.754401	2.287459	0.234768	-0.836600	-0.234344	0.495159	0.315280	-0.945151	0.085371	0.447994	0.227535	0.864598
41727	7.586005	1.373607	7.534556	0.973270	2.247351	0.303019	-0.845492	-0.242306	0.475847	0.321991	-0.942230	0.092324	0.425987	0.231278	0.874669
41728	7.353914	1.562957	7.050111	1.158950	2.157460	0.321746	-0.853403	-0.250342	0.457200	0.329482	-0.938745	0.100992	0.403912	0.236826	0.883611
41729	7.208506	1.679066	6.589232	1.300071	2.005200	0.296426	-0.860333	-0.257884	0.439685	0.337046	-0.934903	0.111160	0.382397	0.243829	0.891246
41730	7.033960	1.639986	6.105584	1.417306	1.774401	0.240138	-0.866129	-0.264487	0.424107	0.344347	-0.930780	0.122774	0.362278	0.252378	0.897251
41731	7.084442	1.420363	5.617529	1.488930	1.486580	0.165490	-0.870836	-0.269795	0.410920	0.350962	-0.926544	0.135435	0.344195	0.262159	0.901555
41732	7.426355	1.175574	5.211914	1.537949	1.158215	0.097054	-0.874398	-0.273753	0.400609	0.356934	-0.922186	0.148902	0.328674	0.273191	0.904069
41733	7.070016	2.009764	6.503682	1.535334	0.763194	0.016427	-0.876828	-0.275983	0.393707	0.361954	-0.917891	0.162683	0.316482	0.285149	0.904726
41734	7.564195	2.584004	0.884582	1.042225	-0.289936	0.024482	-0.875833	-0.275326	0.396374	0.365413	-0.914821	0.171976	0.315262	0.295462	0.901838
41735	10.690367	0.874429	3.832704	1.006975	-0.303050	-0.079548	-0.875195	-0.273640	0.398943	0.367816	-0.912049	0.181321	0.314239	0.305429	0.898870
41736	12.138195	1.388973	3.942525	0.773723	-0.730129	-0.153390	-0.873462	-0.269939	0.405213	0.368871	-0.910093	0.188852	0.317802	0.314426	0.894504
41737	13.318562	1.781336	4.210998	0.569613	-0.706052	-0.221077	-0.872035	-0.265641	0.411083	0.368704	-0.908906	0.194802	0.321888	0.321442	0.890541
41738	14.694229	2.583135	4.076662	0.299642	-0.725768	-0.292927	-0.870767	-0.260589	0.416963	0.367075	-0.908731	0.198654	0.327140	0.326038	0.886949
41739	14.022052	2.669157	3.557042	-0.144819	-0.673958	-0.297048	-0.869634	-0.255653	0.422349	0.363964	-0.909997	0.198583	0.333568	0.326415	0.884413
41740	13.298643	1.876016	2.827686	-0.559451	-0.672115	-0.290715	-0.868426	-0.250781	0.427722	0.359500	-0.912574	0.194853	0.341462	0.322982	0.882659
41741	12.343663	1.010168	1.442434	-0.896888	-0.883540	-0.285381	-0.866376	-0.245315	0.434987	0.353878	-0.916173	0.188144	0.352368	0.316936	0.880561
41742	10.715776	-0.330692	0.737079	-1.040298	-1.087736	-0.339402	-0.863670	-0.238748	0.443930	0.347158	-0.920278	0.180468	0.365453	0.309979	0.877700
41743	9.292743	-0.301985	1.000391	-1.085850	-1.435454	-0.460045	-0.859874	-0.230078	0.455720	0.339112	-0.924702	0.172999	0.381602	0.303297	0.873150
41744	3.639914	-0.151138	6.910850	-1.149283	-1.391743	-0.622207	-0.856539	-0.220100	0.466794	0.329244	-0.929567	0.165839	0.397415	0.295737	0.868678
41745	8.240539	0.195998	11.422814	-1.058367	-2.027448	-0.635474	-0.850314	-0.208217	0.483333	0.319481	-0.934043	0.159674	0.418207	0.290189	0.860752
41746	18.862294	4.991952	15.173589	-1.251655	-2.178842	0.559972	-0.839176	-0.207169	0.502856	0.318784	-0.936488	0.146175	0.440636	0.282969	0.851921
41747	13.897222	-21.121687	13.068889	-1.873870	0.731104	0.693356	-0.840171	-0.215656	0.497599	0.316331	-0.940156	0.126653	0.440507	0.263816	0.858111
41748	2.002288	-6.545614	9.942910	0.824494	-0.319781	0.061416	-0.838573	-0.215334	0.500427	0.320427	-0.937834	0.133392	0.440594	0.272209	0.855441
41749	7.824753	6.870134	7.413786	0.331580	-0.292623	0.102300	-0.836923	-0.215484	0.503116	0.322728	-0.936720	0.135657	0.442047	0.275904	0.853505
41750	3.994675	8.576137	8.177814	-0.130333	-0.231615	0.108015	-0.835554	-0.215816	0.505246	0.323001	-0.936866	0.133982	0.444432	0.275144	0.852511
41751	5.224430	2.834965	8.343751	-0.538582	-0.355618	0.266867	-0.833075	-0.217335	0.508677	0.322803	-0.937771	0.127996	0.449204	0.270833	0.851390
41752	5.644662	-2.359691	9.827478	-0.453605	-0.473203	0.272331	-0.830062	-0.218575	0.513051	0.322965	-0.938419	0.122729	0.454631	0.267571	0.849539
41753	7.124654	-1.216074	9.235582	-0.183426	-0.307841	0.168382	-0.828085	-0.219322	0.515920	0.323506	-0.938553	0.120260	0.457843	0.266488	0.848153
41754	5.435590	0.109465	8.727700	-0.109594	-0.244698	0.093767	-0.826663	-0.219510	0.518115	0.323726	-0.938659	0.118829	0.460249	0.265958	0.847016
41755	5.531549	0.941137	8.826153	-0.069486	-0.299009	0.067976	-0.825032	-0.219343	0.520778	0.323947	-0.938708	0.117839	0.463012	0.265926	0.845520
41756	5.727643	1.130157	8.730959	-0.070411	-0.293236	0.061086	-0.823478	-0.219096	0.523336	0.324071	-0.938781	0.116908	0.465684	0.265869	0.844069
41757	5.996378	0.911250	8.628633	-0.073145	-0.266680	0.048106	-0.822046	-0.218829	0.525694	0.324106	-0.938883	0.115990	0.468183	0.265730	0.842729
41758	5.941088	0.386689	8.687341	-0.041309	-0.217178	0.022451	-0.820960	-0.218422	0.527557	0.324044	-0.938964	0.115508	0.470128	0.265779	0.841630
41759	5.729371	0.598909	8.676680	0.020539	-0.191019	-0.001501	-0.820034	-0.217890	0.529215	0.324109	-0.938925	0.115639	0.471697	0.266351	0.840571
41760	5.477039	1.549982	8.511381	0.036158	-0.183130	-0.006228	-0.819194	-0.217302	0.530755	0.324175	-0.938863	0.115959	0.473108	0.267051	0.839555
41761	5.409473	1.921459	8.395376	-0.011921	-0.208812	0.015618	-0.818122	-0.216881	0.532578	0.324227	-0.938874	0.115728	0.474924	0.267356	0.838432
41762	5.706745	1.446359	8.473266	-0.058026	-0.206655	0.033570	-0.817035	-0.216603	0.534356	0.324173	-0.938976	0.115046	0.476829	0.267220	0.837393
41763	5.792374	1.132751	8.526141	-0.046748	-0.203279	0.031327	-0.815931	-0.216344	0.536146	0.324185	-0.939046	0.114439	0.478708	0.267185	0.836332
41764	5.655990	1.225686	8.497704	-0.036925	-0.177681	0.030544	-0.814985	-0.216115	0.537675	0.324204	-0.939099	0.113951	0.480303	0.267184	0.835417
41765	5.566473	1.342185	8.458000	-0.044274	-0.183708	0.035935	-0.813952	-0.215951	0.539302	0.324264	-0.939152	0.113340	0.482011	0.267130	0.834450
41766	5.617669	1.228271	8.427383	-0.065886	-0.193237	0.041374	-0.812890	-0.215783	0.540969	0.324229	-0.939259	0.112551	0.483823	0.266890	0.833478
41767	5.644424	1.051566	8.471871	-0.061483	-0.192992	0.046866	-0.811771	-0.215697	0.542681	0.324292	-0.939335	0.111739	0.485658	0.266693	0.832473
41768	5.632065	1.103112	8.508394	-0.058809	-0.193775	0.045495	-0.810685	-0.215567	0.544353	0.324321	-0.939414	0.110986	0.487447	0.266520	0.831482
41769	5.920739	0.957728	8.787788	-0.072101	-0.224407	0.035623	-0.809441	-0.215293	0.546309	0.324237	-0.939541	0.110147	0.489566	0.266291	0.830310
41770	6.903158	0.553693	8.382888	0.012650	-0.122255	-0.009471	-0.808878	-0.214837	0.547322	0.324169	-0.939548	0.110288	0.490541	0.266634	0.829624
41771	5.068016	1.398239	8.647715	-0.022719	-0.104180	-0.009966	-0.808366	-0.214455	0.548228	0.323956	-0.939643	0.110107	0.491525	0.266609	0.829049
41772	6.045021	1.056491	8.309524	-0.009831	-0.130590	-0.006880	-0.807751	-0.214001	0.549311	0.323799	-0.939704	0.110048	0.492639	0.266758	0.828340
41773	5.635063	1.016140	8.435631	-0.025481	-0.122085	-0.008189	-0.807142	-0.213588	0.550365	0.323586	-0.939802	0.109836	0.493775	0.266744	0.827668
41774	5.739996	0.975246	8.473386	-0.012338	-0.126394	-0.011837	-0.806561	-0.213098	0.551407	0.323376	-0.939880	0.109784	0.494861	0.266859	0.826981
41775	5.757276	1.014051	8.420717	-0.007357	-0.142325	-0.014984	-0.805871	-0.212566	0.552619	0.323198	-0.939945	0.109760	0.496100	0.267058	0.826175
41776	5.845793	1.038110	8.417355	-0.010547	-0.129380	-0.017147	-0.805289	-0.212019	0.553677	0.322954	-0.940029	0.109753	0.497203	0.267195	0.825467
41777	5.779470	1.014644	8.405429	-0.004670	-0.134806	-0.019570	-0.804648	-0.211463	0.554820	0.322752	-0.940096	0.109777	0.498370	0.267401	0.824696
41778	5.826196	1.054535	8.370101	-0.007421	-0.134166	-0.018056	-0.804042	-0.210893	0.555915	0.322516	-0.940174	0.109801	0.499500	0.267576	0.823955
41779	5.814387	1.059692	8.469362	-0.005610	-0.125395	-0.025621	-0.803464	-0.210305	0.556972	0.322261	-0.940256	0.109851	0.500593	0.267752	0.823235
41780	5.830452	1.099970	8.416988	0.003880	-0.125858	-0.024655	-0.802918	-0.209695	0.557988	0.322028	-0.940317	0.110006	0.501618	0.268014	0.822525
41781	5.846694	1.219646	8.327822	-0.012698	-0.127362	-0.015357	-0.802294	-0.209198	0.559071	0.321820	-0.940396	0.109942	0.502748	0.268126	0.821798
41782	5.832954	1.090452	8.365597	-0.027676	-0.125614	-0.013278	-0.801710	-0.208695	0.560096	0.321520	-0.940518	0.109774	0.503872	0.268089	0.821122
41783	5.915337	1.154284	8.370434	-0.020226	-0.130702	-0.012673	-0.801058	-0.208214	0.561207	0.321295	-0.940612	0.109634	0.505051	0.268136	0.820382
41784	5.859980	1.192861	8.337568	-0.034057	-0.109423	-0.009281	-0.800539	-0.207792	0.562103	0.320994	-0.940742	0.109392	0.506063	0.268005	0.819801
41785	5.905478	1.136137	8.408063	-0.032710	-0.107828	-0.003889	-0.799972	-0.207454	0.563034	0.320775	-0.940851	0.109101	0.507097	0.267886	0.819201
41786	5.889661	1.172109	8.340006	-0.029315	-0.101601	0.001839	-0.799455	-0.207159	0.563877	0.320587	-0.940945	0.108837	0.508031	0.267782	0.818656
41787	5.968447	1.094461	8.317888	-0.047699	-0.106106	-0.001746	-0.798888	-0.206846	0.564795	0.320309	-0.941089	0.108412	0.509098	0.267517	0.818079
41788	5.856276	1.089069	8.244366	-0.042017	-0.081348	0.000731	-0.798476	-0.206594	0.565469	0.320046	-0.941220	0.108050	0.509909	0.267251	0.817661
41789	5.919739	1.113060	8.349915	-0.055646	-0.098546	0.002400	-0.797932	-0.206341	0.566329	0.319759	-0.941377	0.107537	0.510940	0.266896	0.817134
41790	5.820397	1.077471	8.358922	-0.043842	-0.073590	0.001993	-0.797554	-0.206122	0.566941	0.319497	-0.941509	0.107153	0.511693	0.266596	0.816760
41791	5.840486	1.130782	8.365675	-0.048886	-0.105197	0.002870	-0.796972	-0.205856	0.567854	0.319246	-0.941647	0.106694	0.512754	0.266318	0.816185
41792	5.899036	1.049953	8.273093	-0.041604	-0.086941	0.006437	-0.796510	-0.205644	0.568579	0.319030	-0.941764	0.106304	0.513606	0.266066	0.815731
41793	5.794507	1.136521	8.254056	-0.025280	-0.095448	0.012871	-0.795945	-0.205498	0.569422	0.318979	-0.941818	0.105981	0.514513	0.265989	0.815185
41794	6.027536	0.952148	8.276274	-0.069107	-0.111774	0.008983	-0.795345	-0.205245	0.570351	0.318641	-0.942003	0.105353	0.515649	0.265529	0.814617
41795	5.907574	1.166363	8.248742	-0.059366	-0.106644	0.009483	-0.794731	-0.205038	0.571281	0.318386	-0.942153	0.104772	0.516752	0.265153	0.814040
41796	5.961469	1.118285	8.409756	-0.032083	-0.082067	0.014446	-0.794265	-0.204916	0.571972	0.318281	-0.942229	0.104414	0.517533	0.264980	0.813600
41797	6.050317	1.024762	8.190288	-0.053000	-0.087185	0.010139	-0.793748	-0.204767	0.572743	0.318063	-0.942361	0.103882	0.518459	0.264625	0.813126
41798	5.970119	0.997228	8.236470	-0.062976	-0.087672	0.013008	-0.793256	-0.204617	0.573478	0.317785	-0.942521	0.103282	0.519382	0.264172	0.812684
41799	6.002901	1.025793	8.291485	-0.055688	-0.076257	0.014606	-0.792780	-0.204539	0.574164	0.317588	-0.942651	0.102703	0.520229	0.263768	0.812274
41800	5.968592	1.023119	8.324533	-0.027119	-0.064240	0.009725	-0.792419	-0.204420	0.574704	0.317469	-0.942722	0.102413	0.520851	0.263605	0.811928
41801	6.086582	0.923494	8.156033	-0.056210	-0.074202	0.008045	-0.791973	-0.204287	0.575365	0.317216	-0.942866	0.101868	0.521682	0.263192	0.811528
41802	5.917627	1.027841	8.216288	-0.050727	-0.061828	0.008927	-0.791627	-0.204167	0.575885	0.316968	-0.943001	0.101391	0.522359	0.262801	0.811219
41803	5.976970	0.992657	8.257788	-0.023261	-0.052220	0.007578	-0.791296	-0.204088	0.576367	0.316882	-0.943060	0.101117	0.522912	0.262653	0.810911
41804	6.060881	0.933261	8.292191	-0.041402	-0.093193	0.000999	-0.790809	-0.203811	0.577132	0.316618	-0.943186	0.100762	0.523806	0.262414	0.810411
41805	6.016712	1.081832	8.162719	-0.021962	-0.059455	0.004891	-0.790449	-0.203687	0.577669	0.316517	-0.943246	0.100513	0.524411	0.262293	0.810059
41806	5.928828	0.945182	8.257859	-0.014403	-0.050777	0.009269	-0.790157	-0.203601	0.578099	0.316461	-0.943285	0.100330	0.524885	0.262222	0.809775
41807	6.078922	1.065047	8.311028	-0.040116	-0.059871	0.006238	-0.789790	-0.203488	0.578640	0.316274	-0.943390	0.099927	0.525550	0.261930	0.809438
41808	6.024425	0.968882	8.166435	-0.018273	-0.059432	0.012423	-0.789442	-0.203409	0.579142	0.316222	-0.943432	0.099693	0.526103	0.261840	0.809108
41809	5.953972	0.929038	8.228592	-0.009916	-0.047489	0.004295	-0.789145	-0.203310	0.579582	0.316179	-0.943463	0.099546	0.526575	0.261808	0.808811
41810	6.020546	0.994026	8.290576	-0.018083	-0.052354	0.006919	-0.788852	-0.203197	0.580020	0.316084	-0.943515	0.099347	0.527071	0.261705	0.808521
41811	6.012389	0.922787	8.131852	-0.013787	-0.056143	0.007454	-0.788499	-0.203106	0.580532	0.316044	-0.943549	0.099150	0.527623	0.261654	0.808178
41812	6.001021	1.057537	8.299493	0.009370	-0.046169	0.004516	-0.788245	-0.202987	0.580918	0.316075	-0.943535	0.099187	0.527983	0.261797	0.807896
41813	6.061910	0.924817	8.266432	-0.026008	-0.051634	0.009192	-0.787910	-0.202923	0.581395	0.315984	-0.943598	0.098881	0.528538	0.261621	0.807590
41814	5.948990	1.042269	8.116568	0.000482	-0.056034	0.006067	-0.787599	-0.202793	0.581862	0.315980	-0.943604	0.098837	0.529004	0.261701	0.807259
41815	6.016402	1.040544	8.358094	0.009885	-0.039918	0.007924	-0.787329	-0.202748	0.582242	0.316069	-0.943575	0.098829	0.529352	0.261840	0.806986
41816	6.052572	0.927763	8.153379	-0.021558	-0.060154	0.006449	-0.786994	-0.202610	0.582743	0.315951	-0.943638	0.098604	0.529920	0.261719	0.806652
41817	5.994302	1.106204	8.155491	0.000525	-0.057555	0.011223	-0.786621	-0.202550	0.583268	0.316016	-0.943627	0.098502	0.530436	0.261806	0.806285
41818	6.033905	1.004559	8.305750	0.020103	-0.047178	0.011993	-0.786336	-0.202499	0.583669	0.316163	-0.943569	0.098581	0.530769	0.262052	0.805985
41819	6.110948	0.975491	8.205348	-0.028926	-0.058102	0.016317	-0.785943	-0.202485	0.584203	0.316111	-0.943625	0.098212	0.531382	0.261862	0.805643
41820	6.027589	1.112205	8.182171	0.007409	-0.058821	0.018671	-0.785576	-0.202466	0.584704	0.316243	-0.943587	0.098149	0.531847	0.262012	0.805288
41821	6.100132	1.057336	8.270663	0.026217	-0.030007	0.021358	-0.785316	-0.202573	0.585016	0.316523	-0.943489	0.098195	0.532064	0.262285	0.805055
41822	6.089491	0.912964	8.114638	-0.035878	-0.055152	0.022512	-0.784955	-0.202600	0.585491	0.316455	-0.943557	0.097761	0.532637	0.262019	0.804763
41823	6.069399	1.108056	8.190722	0.001012	-0.032833	0.021836	-0.784678	-0.202704	0.585826	0.316605	-0.943523	0.097601	0.532956	0.262061	0.804538
41824	6.078405	0.985552	8.215309	0.006903	-0.039745	0.024407	-0.784393	-0.202789	0.586178	0.316778	-0.943475	0.097501	0.533272	0.262167	0.804294
41825	6.084731	0.937421	8.026243	-0.022165	-0.042823	0.024877	-0.784053	-0.202895	0.586596	0.316828	-0.943496	0.097136	0.533743	0.262010	0.804033
41826	6.030985	1.026667	8.310871	0.036479	-0.025468	0.023164	-0.783847	-0.203006	0.586832	0.317150	-0.943373	0.097281	0.533853	0.262367	0.803844
41827	6.085866	0.914989	8.176974	-0.040598	-0.043872	0.022534	-0.783509	-0.203087	0.587256	0.317083	-0.943447	0.096782	0.534390	0.262038	0.803594
41828	5.994039	0.966370	8.278498	0.037056	-0.034264	0.020349	-0.783265	-0.203148	0.587560	0.317386	-0.943328	0.096947	0.534567	0.262419	0.803352
41829	6.054915	0.907366	8.242995	-0.017779	-0.054795	0.021164	-0.782873	-0.203187	0.588069	0.317429	-0.943345	0.096640	0.535116	0.262327	0.803016
41830	6.008236	1.057826	8.115307	0.020849	-0.057122	0.025593	-0.782490	-0.203237	0.588561	0.317686	-0.943258	0.096644	0.535523	0.262601	0.802655
41831	6.009867	1.032622	8.300359	0.061240	-0.050514	0.022354	-0.782116	-0.203298	0.589037	0.318162	-0.943065	0.096964	0.535788	0.263246	0.802267
41832	6.075317	0.847870	8.112528	-0.016826	-0.084447	0.025336	-0.781586	-0.203274	0.589748	0.318215	-0.943077	0.096667	0.536528	0.263220	0.801781
41833	6.048194	1.054030	8.206247	0.038171	-0.073639	0.025353	-0.781078	-0.203302	0.590411	0.318590	-0.942939	0.096784	0.537045	0.263695	0.801279
41834	6.059142	1.035063	8.302650	0.062533	-0.067710	0.028013	-0.780629	-0.203346	0.590990	0.319090	-0.942736	0.097107	0.537401	0.264383	0.800813
41835	6.003195	0.850443	8.049102	-0.006772	-0.095430	0.009781	-0.780053	-0.203169	0.591811	0.319102	-0.942748	0.096955	0.538231	0.264478	0.800224
41836	5.934474	0.649551	8.446955	-0.015415	-0.091297	0.034020	-0.779456	-0.203207	0.592583	0.319229	-0.942739	0.096618	0.539018	0.264480	0.799694
41837	5.717498	0.968208	8.535254	0.142626	-0.151426	0.033308	-0.778501	-0.203102	0.593874	0.320230	-0.942307	0.097521	0.539805	0.266096	0.798626
41838	6.178194	0.962431	8.232872	0.121602	-0.181601	0.031586	-0.777423	-0.202873	0.595362	0.321078	-0.941938	0.098291	0.540854	0.267571	0.797422
41839	6.079367	0.813588	8.141462	0.101834	-0.172231	0.040513	-0.776328	-0.202775	0.596822	0.321915	-0.941597	0.098822	0.541927	0.268844	0.796265
41840	6.106809	1.160939	8.251824	0.183553	-0.185337	0.031468	-0.775226	-0.202530	0.598336	0.323100	-0.941058	0.100082	0.542799	0.270909	0.794970
41841	6.141989	0.905256	8.129691	0.097026	-0.202957	0.049521	-0.773931	-0.202427	0.600045	0.323982	-0.940708	0.100517	0.544120	0.272197	0.793626
41842	6.166123	1.247091	8.324840	0.180443	-0.208955	0.045316	-0.772650	-0.202241	0.601756	0.325260	-0.940144	0.101664	0.545176	0.274278	0.792183
41843	6.142291	1.116723	8.054170	0.119640	-0.232646	0.060135	-0.771153	-0.202148	0.603705	0.326348	-0.939707	0.102209	0.546644	0.275837	0.790629
41844	6.061029	1.051553	8.313195	0.087426	-0.246230	0.089683	-0.769516	-0.202269	0.605749	0.327463	-0.939305	0.102346	0.548282	0.277117	0.789046
41845	6.150825	1.169541	8.544352	0.122483	-0.274919	0.097891	-0.767654	-0.202405	0.608062	0.328858	-0.938781	0.102679	0.550054	0.278788	0.787221
41846	6.038527	1.067372	8.531995	0.060704	-0.302513	0.121842	-0.765590	-0.202663	0.610574	0.330072	-0.938385	0.102402	0.552200	0.279932	0.785311
41847	5.944394	1.196080	8.565419	-0.024969	-0.357853	0.133491	-0.763136	-0.202894	0.613561	0.330924	-0.938199	0.101352	0.555078	0.280387	0.783116
41848	6.068173	1.195750	8.520657	-0.100345	-0.445196	0.155755	-0.760145	-0.203066	0.617206	0.331497	-0.938185	0.099598	0.558828	0.280311	0.780472
41849	6.064616	1.178429	8.586699	-0.183135	-0.494011	0.172205	-0.756772	-0.203279	0.621267	0.331744	-0.938362	0.097068	0.563242	0.279560	0.777563
41850	5.993053	1.216299	8.527237	-0.229644	-0.581993	0.197136	-0.752829	-0.203464	0.625980	0.331878	-0.938623	0.094047	0.568423	0.278550	0.774148
41851	5.977042	1.043036	8.841868	-0.242817	-0.656262	0.227841	-0.748293	-0.203758	0.631300	0.332168	-0.938849	0.090703	0.574214	0.277570	0.770216
41852	5.924668	1.005290	8.688279	-0.270469	-0.798010	0.255266	-0.742839	-0.203903	0.637662	0.332454	-0.939098	0.086998	0.581089	0.276619	0.765388
41853	6.046095	1.079861	8.464206	-0.297704	-0.937274	0.289618	-0.736363	-0.204014	0.645096	0.332820	-0.939345	0.082835	0.589068	0.275698	0.759599
41854	6.163265	1.000908	8.378738	-0.304322	-1.026184	0.339374	-0.729147	-0.204336	0.653140	0.333446	-0.939510	0.078322	0.597627	0.274895	0.753176
41855	6.047499	1.033056	8.589552	-0.293446	-1.165478	0.392892	-0.720785	-0.204805	0.662212	0.334491	-0.939528	0.073506	0.607112	0.274486	0.745703
41856	5.930844	0.883798	8.382022	-0.256981	-1.334071	0.448012	-0.711117	-0.205309	0.672429	0.336070	-0.939335	0.068604	0.617551	0.274768	0.736976
41857	5.928400	0.874359	8.290365	-0.189117	-1.520338	0.512609	-0.699884	-0.205913	0.683932	0.338470	-0.938818	0.063712	0.628968	0.276082	0.726759
41858	5.611029	0.687657	8.399542	-0.032909	-1.659394	0.591902	-0.687338	-0.206819	0.696270	0.342311	-0.937708	0.059385	0.640616	0.279159	0.715319
41859	6.635349	1.131529	8.140288	0.012979	-1.982729	0.606229	-0.672386	-0.206901	0.710696	0.346478	-0.936434	0.055182	0.654102	0.283344	0.701332
41860	6.667778	0.748408	8.135509	-0.058950	-1.971217	0.635528	-0.657150	-0.207188	0.724725	0.350258	-0.935307	0.050209	0.667438	0.286836	0.687206
41861	6.415551	0.838255	7.814774	-0.040108	-2.176201	0.676518	-0.640058	-0.207201	0.739860	0.354335	-0.934037	0.044956	0.681742	0.290933	0.671257
41862	7.415256	0.825273	7.838939	-0.028754	-2.408229	0.701904	-0.620956	-0.206649	0.756115	0.358507	-0.932690	0.039515	0.697055	0.295609	0.653245
41863	7.888438	0.990618	7.875465	-0.010591	-2.413701	0.723142	-0.601316	-0.206171	0.771954	0.362810	-0.931246	0.033898	0.711890	0.300456	0.634774
41864	7.975136	1.044004	7.741592	-0.116584	-2.520648	0.764502	-0.580393	-0.205620	0.787950	0.366433	-0.930046	0.027209	0.727235	0.304523	0.615138
41865	8.536556	0.637586	6.961230	-0.042687	-2.606857	0.804220	-0.558247	-0.205066	0.803933	0.370656	-0.928543	0.020530	0.742277	0.309443	0.594365
41866	9.241464	1.079693	6.842615	-0.011757	-2.541651	0.844140	-0.536057	-0.204926	0.818931	0.375132	-0.926871	0.013617	0.756253	0.314507	0.573730
41867	9.156384	0.712981	6.534556	-0.041041	-2.513072	0.868224	-0.513580	-0.204977	0.833199	0.379332	-0.925240	0.006198	0.769638	0.319242	0.552939
41868	10.668104	1.398155	6.317141	0.210439	-2.498705	0.902967	-0.490751	-0.205215	0.846789	0.385445	-0.922731	-0.000237	0.781407	0.326274	0.531930
41869	10.994274	3.328509	6.768777	0.027961	-2.171005	1.057753	-0.469541	-0.207801	0.858109	0.390701	-0.920473	-0.009119	0.791760	0.330982	0.513387
41870	9.901906	1.677341	6.357417	-0.248155	-2.049062	1.171810	-0.448615	-0.211734	0.868282	0.394049	-0.918861	-0.020475	0.802166	0.332960	0.495648
41871	10.010784	0.230081	5.194891	-0.206123	-1.988148	1.208356	-0.427761	-0.216152	0.877667	0.397637	-0.916983	-0.032032	0.811730	0.335291	0.478200
41872	10.123703	0.531413	5.725556	0.040127	-1.811618	1.219578	-0.408108	-0.221164	0.885739	0.403009	-0.914205	-0.042584	0.819165	0.339582	0.462226
41873	8.919884	1.085346	5.637119	0.180281	-1.659862	1.274951	-0.389256	-0.227085	0.892699	0.409531	-0.910749	-0.053103	0.825084	0.344918	0.447513
41874	9.475372	0.884121	5.016701	0.156962	-1.760084	1.376006	-0.369003	-0.233432	0.899637	0.415996	-0.907060	-0.064729	0.831134	0.350360	0.431815
41875	8.595289	0.105527	5.102720	0.241326	-1.585990	1.384244	-0.349953	-0.240321	0.905416	0.422940	-0.902948	-0.076195	0.835855	0.356273	0.417631
41876	8.974917	0.090791	4.789550	0.361839	-1.589036	1.432243	-0.330529	-0.247461	0.910776	0.430795	-0.898179	-0.087698	0.839742	0.363371	0.403479
41877	8.934235	-0.046858	4.624149	0.510636	-1.463302	1.484119	-0.311740	-0.255336	0.915217	0.439812	-0.892593	-0.099216	0.842249	0.371594	0.390557
41878	7.791355	-0.493870	4.389547	0.649821	-1.457088	1.475482	-0.292898	-0.262936	0.919280	0.449701	-0.886350	-0.110235	0.843789	0.381114	0.377853
41879	8.252252	-0.380930	4.527404	0.814523	-1.476789	1.541236	-0.273395	-0.270794	0.922998	0.460898	-0.879111	-0.121399	0.844292	0.392218	0.365153
41880	7.329245	-0.149954	4.026638	0.950929	-1.307671	1.648210	-0.254667	-0.279968	0.925615	0.473226	-0.870814	-0.133193	0.843328	0.404105	0.354256
41881	6.145181	-1.494529	3.750800	0.993796	-1.537409	1.681357	-0.233631	-0.288186	0.928636	0.485665	-0.861982	-0.145316	0.842346	0.417056	0.341347
41882	5.680933	-0.917835	3.766829	1.076172	-1.576001	1.774601	-0.211640	-0.296676	0.931231	0.498626	-0.852260	-0.158194	0.840584	0.430855	0.328303
41883	4.678021	-0.221093	6.112580	1.146071	-1.549021	1.540619	-0.190846	-0.302911	0.933715	0.511303	-0.842648	-0.168860	0.837942	0.445185	0.315695
41884	12.697302	4.055743	7.194096	1.221844	-1.053526	0.682155	-0.178521	-0.303832	0.935851	0.522730	-0.835089	-0.171404	0.833597	0.458598	0.307903
41885	14.605391	5.681180	8.001979	1.184908	1.044880	-0.030597	-0.187345	-0.308366	0.932637	0.532461	-0.829740	-0.167384	0.825462	0.465234	0.319641
41886	6.008720	4.294259	9.280233	0.839464	1.802376	-0.639617	-0.205584	-0.311422	0.927767	0.538056	-0.827843	-0.158653	0.817454	0.466574	0.337754
41887	3.515936	4.387700	8.141425	0.597842	2.080604	-1.129288	-0.228611	-0.311716	0.922263	0.540424	-0.828611	-0.146102	0.809740	0.465013	0.357889
41888	1.731818	3.523254	7.067944	0.294493	1.823397	-1.441299	-0.251113	-0.308160	0.917594	0.539297	-0.831746	-0.131743	0.803804	0.461774	0.375052
41889	1.639998	2.768228	6.596146	-0.001082	1.530664	-1.611860	-0.272067	-0.301699	0.913760	0.535024	-0.836702	-0.116957	0.799831	0.457063	0.389055
41890	2.287939	1.469030	6.680082	-0.222965	1.191133	-1.683871	-0.290544	-0.292931	0.910920	0.528459	-0.842754	-0.102455	0.797694	0.451617	0.399659
41891	3.774550	0.590331	7.385684	-0.309302	0.995659	-1.722344	-0.307547	-0.282783	0.908542	0.520791	-0.849136	-0.088002	0.796362	0.446096	0.408420
41892	5.531249	0.090081	8.349643	-0.337913	0.960522	-1.722102	-0.324097	-0.272323	0.905981	0.512615	-0.855445	-0.073755	0.795102	0.440516	0.416844
41893	6.965939	-0.422484	9.198866	-0.321854	1.093593	-1.694054	-0.341433	-0.262521	0.902500	0.504365	-0.861420	-0.059760	0.793120	0.434786	0.426524
41894	7.660935	-0.753626	9.700880	-0.261375	1.324860	-1.633004	-0.360099	-0.254091	0.897645	0.496519	-0.866797	-0.046175	0.789808	0.429070	0.438294
41895	7.974045	-0.972499	9.887519	-0.193008	1.580753	-1.532286	-0.380143	-0.247467	0.891208	0.489267	-0.871498	-0.033298	0.784926	0.423380	0.452371
41896	7.957805	-1.157048	9.692047	-0.137157	1.807330	-1.375934	-0.400967	-0.243008	0.883274	0.482770	-0.875478	-0.021707	0.778562	0.417715	0.468355
41897	7.628379	-1.338339	9.406828	-0.085081	1.988045	-1.192491	-0.422141	-0.240756	0.873976	0.477138	-0.878752	-0.011608	0.770803	0.412106	0.485831
41898	8.529455	-2.051941	8.622985	-0.034890	2.021784	-0.977176	-0.442286	-0.240395	0.864056	0.472595	-0.881273	-0.003277	0.762257	0.406900	0.503385
41899	6.470506	-2.129873	8.799970	0.076391	2.312360	-0.687160	-0.463079	-0.243647	0.852170	0.469994	-0.882665	0.003034	0.751441	0.401919	0.523256
41900	7.025387	-1.570606	8.360842	0.213365	2.065308	-0.474093	-0.480722	-0.247689	0.841164	0.469296	-0.883003	0.008192	0.740721	0.398694	0.540718
41901	5.923887	-0.826854	8.657172	0.248627	2.250724	-0.317122	-0.498800	-0.253787	0.828728	0.469498	-0.882849	0.012224	0.728540	0.395183	0.559518
41902	6.570207	-0.060847	8.939102	0.307658	2.262048	-0.255418	-0.516342	-0.260396	0.815834	0.470371	-0.882322	0.016081	0.715641	0.392048	0.578063
41903	6.805685	0.416045	9.138274	0.359369	2.338685	-0.249439	-0.534149	-0.267294	0.802021	0.471534	-0.881616	0.020222	0.701670	0.388981	0.596953
41904	6.457629	0.950091	9.129548	0.351196	2.446826	-0.300182	-0.552561	-0.274082	0.787119	0.472288	-0.881097	0.024742	0.686746	0.385418	0.616305
41905	6.393141	1.475239	8.886899	0.325059	2.488962	-0.373606	-0.571287	-0.280297	0.771404	0.472319	-0.880927	0.029698	0.671226	0.381315	0.635652
41906	5.746926	1.763625	8.765793	0.252286	2.509359	-0.478211	-0.590199	-0.285550	0.755067	0.471163	-0.881352	0.034977	0.655493	0.376403	0.654714
41907	5.749840	2.039922	8.889823	0.190193	2.476724	-0.613758	-0.609188	-0.289353	0.738353	0.468635	-0.882448	0.040831	0.639743	0.370892	0.673177
41908	5.761430	2.150001	8.915476	0.134046	2.415514	-0.786943	-0.628134	-0.291249	0.721541	0.464561	-0.884267	0.047488	0.624203	0.365029	0.690742
41909	6.200989	2.292742	9.000871	0.090822	2.340846	-0.998932	-0.647245	-0.290835	0.704620	0.458669	-0.886887	0.055255	0.608849	0.358951	0.707430
41910	8.698616	1.901517	8.629672	0.159639	2.283940	-1.546705	-0.668003	-0.285185	0.687343	0.449404	-0.890801	0.067157	0.593134	0.353756	0.723221
