// General information: 
//  MT Manager version: 2022.2.0 
//  XDA version: 2022.2.0 build 7381 rev 124627 built on 2023-07-19
// Device information: 
//  DeviceId: 00B4CBA7
//  ProductCode: MTW2-3A7G6
//  Firmware Version: 4.6.0
//  Hardware Version: 2.0.0
// Device settings: 
//  Filter Profile: human(46.1)
//  Option Flags: Orientation Smoother Disabled, Position/Velocity Smoother Disabled, Continuous Zero Rotation Update Disabled, AHS Disabled, ICC Disabled
// Coordinate system: ENU
PacketCounter	Acc_X	Acc_Y	Acc_Z	Gyr_X	Gyr_Y	Gyr_Z	Mat[1][1]	Mat[2][1]	Mat[3][1]	Mat[1][2]	Mat[2][2]	Mat[3][2]	Mat[1][3]	Mat[2][3]	Mat[3][3]
46403	9.772399	-0.104647	-0.397868	0.037737	-0.013848	-0.003717	-0.039594	-0.008805	0.999177	-0.516550	0.856159	-0.012925	-0.855341	-0.516637	-0.038447
46404	9.782187	-0.105344	-0.458193	0.037336	-0.014538	-0.006658	-0.039658	-0.008960	0.999173	-0.516884	0.855959	-0.012840	-0.855137	-0.516965	-0.038577
46405	9.796708	-0.073535	-0.507900	0.041122	-0.007332	-0.002617	-0.039670	-0.009059	0.999172	-0.517278	0.855722	-0.012779	-0.854897	-0.517357	-0.038632
46406	9.784359	-0.095038	-0.550480	0.037854	-0.003528	-0.001189	-0.039667	-0.009110	0.999171	-0.517614	0.855519	-0.012749	-0.854694	-0.517691	-0.038652
46407	9.743346	-0.081342	-0.517386	0.032784	-0.002014	-0.002260	-0.039607	-0.009212	0.999173	-0.517962	0.855310	-0.012646	-0.854486	-0.518034	-0.038648
46408	9.782096	-0.104931	-0.460217	0.029865	-0.004230	-0.003308	-0.039600	-0.009285	0.999172	-0.518230	0.855149	-0.012592	-0.854324	-0.518300	-0.038676
46409	9.833994	-0.075230	-0.462156	0.041420	0.005618	-0.001049	-0.039601	-0.009260	0.999173	-0.518494	0.854988	-0.012627	-0.854164	-0.518565	-0.038660
46410	9.757571	0.016487	-0.486055	0.033194	0.009964	0.001249	-0.039496	-0.009220	0.999177	-0.518789	0.854809	-0.012619	-0.853990	-0.518860	-0.038545
46411	9.708567	-0.056890	-0.461791	0.011506	0.003129	-0.003159	-0.039404	-0.009271	0.999180	-0.518944	0.854717	-0.012535	-0.853900	-0.519012	-0.038490
46412	9.772348	-0.103607	-0.399382	0.008881	0.002570	-0.003218	-0.039339	-0.009308	0.999183	-0.519032	0.854664	-0.012473	-0.853849	-0.519098	-0.038453
46413	9.767647	-0.136024	-0.409030	0.012271	0.009078	-0.002133	-0.039327	-0.009298	0.999183	-0.519047	0.854655	-0.012476	-0.853841	-0.519113	-0.038437
46414	9.775710	-0.048715	-0.398471	0.019853	0.009097	-0.002946	-0.039207	-0.009299	0.999188	-0.519228	0.854545	-0.012421	-0.853736	-0.519294	-0.038333
46415	9.745610	0.008394	-0.333005	0.010439	0.009922	0.003699	-0.039295	-0.009218	0.999185	-0.519278	0.854513	-0.012539	-0.853701	-0.519348	-0.038365
46416	9.758349	-0.036880	-0.369488	0.010148	0.008260	0.002707	-0.039213	-0.009174	0.999189	-0.519375	0.854455	-0.012538	-0.853646	-0.519445	-0.038271
46417	9.742373	-0.046973	-0.330556	0.008501	0.011728	0.007578	-0.039089	-0.009089	0.999194	-0.519421	0.854427	-0.012548	-0.853624	-0.519493	-0.038119
46418	9.712684	-0.057437	-0.344011	0.015123	0.017579	0.015576	-0.038994	-0.008887	0.999200	-0.519555	0.854343	-0.012677	-0.853547	-0.519633	-0.037931
46419	9.766056	-0.051054	-0.333408	0.009951	0.020046	0.012544	-0.038964	-0.008662	0.999203	-0.519482	0.854385	-0.012850	-0.853593	-0.519568	-0.037791
46420	9.771273	-0.086271	-0.400713	0.012389	0.017985	0.013567	-0.038856	-0.008476	0.999209	-0.519593	0.854316	-0.012959	-0.853530	-0.519685	-0.037599
46421	9.731700	-0.095837	-0.354899	0.014003	0.017659	0.017026	-0.038817	-0.008313	0.999212	-0.519715	0.854239	-0.013083	-0.853457	-0.519813	-0.037480
46422	9.765241	-0.100166	-0.418432	0.011912	0.013703	0.013539	-0.038746	-0.008149	0.999216	-0.519822	0.854173	-0.013191	-0.853395	-0.519926	-0.037331
46423	9.741684	-0.100023	-0.411246	-0.001394	0.008279	0.014191	-0.038666	-0.008087	0.999219	-0.519865	0.854146	-0.013204	-0.853373	-0.519970	-0.037230
46424	9.737916	-0.089146	-0.330585	-0.009661	0.005895	0.011059	-0.038647	-0.007984	0.999221	-0.519789	0.854191	-0.013279	-0.853420	-0.519898	-0.037163
46425	9.756758	-0.124312	-0.346544	-0.016605	0.001521	0.010391	-0.038623	-0.007906	0.999223	-0.519546	0.854338	-0.013322	-0.853569	-0.519657	-0.037105
46426	9.740685	-0.134485	-0.308677	-0.016465	-0.002581	0.004017	-0.038640	-0.007908	0.999222	-0.519415	0.854418	-0.013324	-0.853648	-0.519526	-0.037122
46427	9.790624	-0.181236	-0.299669	-0.014921	-0.005091	-0.002807	-0.038648	-0.008006	0.999221	-0.519340	0.854465	-0.013241	-0.853693	-0.519447	-0.037181
46428	9.763276	-0.180531	-0.405804	-0.009278	-0.003269	0.000264	-0.038652	-0.008043	0.999220	-0.519272	0.854507	-0.013208	-0.853735	-0.519378	-0.037205
46429	9.775538	-0.158952	-0.364273	-0.007130	-0.006998	0.000292	-0.038658	-0.008033	0.999220	-0.519109	0.854606	-0.013213	-0.853833	-0.519215	-0.037208
46430	9.753898	-0.080946	-0.370304	-0.010149	-0.008259	-0.002716	-0.038689	-0.008122	0.999218	-0.519034	0.854652	-0.013150	-0.853877	-0.519137	-0.037281
46431	9.772698	-0.114699	-0.387619	-0.010731	-0.011585	-0.004702	-0.038807	-0.008315	0.999212	-0.519086	0.854622	-0.013048	-0.853841	-0.519183	-0.037482
46432	9.725485	-0.111010	-0.376592	-0.013751	-0.012845	-0.007709	-0.038852	-0.008471	0.999209	-0.518982	0.854687	-0.012934	-0.853902	-0.519074	-0.037602
46433	9.732986	-0.121331	-0.346164	-0.013938	-0.015467	-0.006748	-0.038919	-0.008680	0.999205	-0.518942	0.854714	-0.012788	-0.853923	-0.519027	-0.037769
46434	9.747579	-0.089310	-0.396228	-0.010733	-0.011581	-0.004699	-0.038968	-0.008803	0.999202	-0.518863	0.854763	-0.012704	-0.853969	-0.518943	-0.037876
46435	9.750338	-0.132456	-0.375928	-0.016274	-0.014359	-0.005812	-0.038994	-0.008982	0.999199	-0.518753	0.854832	-0.012560	-0.854035	-0.518827	-0.037993
46436	9.815418	-0.049003	-0.438897	-0.005960	-0.014748	-0.004612	-0.039071	-0.009121	0.999195	-0.518715	0.854856	-0.012479	-0.854054	-0.518784	-0.038132
46437	9.748327	-0.056047	-0.501551	-0.016332	-0.006674	-0.002345	-0.039152	-0.009299	0.999190	-0.518761	0.854830	-0.012371	-0.854022	-0.518825	-0.038292
46438	9.732273	-0.065181	-0.464435	-0.023385	-0.010080	-0.004959	-0.039187	-0.009417	0.999188	-0.518574	0.854944	-0.012280	-0.854134	-0.518634	-0.038386
46439	9.756709	-0.186165	-0.438695	-0.032192	-0.009056	-0.004649	-0.039142	-0.009507	0.999188	-0.518264	0.855134	-0.012166	-0.854324	-0.518320	-0.038398
46440	9.803854	-0.188512	-0.451657	-0.006336	-0.004176	-0.007004	-0.039116	-0.009612	0.999188	-0.518224	0.855160	-0.012061	-0.854350	-0.518275	-0.038431
46441	9.825122	-0.047442	-0.501352	0.007558	0.004560	-0.005680	-0.038985	-0.009598	0.999194	-0.518156	0.855202	-0.012002	-0.854397	-0.518206	-0.038314
46442	9.734144	0.013494	-0.476927	-0.009018	0.002946	-0.003596	-0.038916	-0.009637	0.999196	-0.518091	0.855242	-0.011930	-0.854440	-0.518139	-0.038275
46443	9.751092	-0.096467	-0.481674	-0.029362	0.005395	-0.004989	-0.038803	-0.009699	0.999200	-0.517827	0.855404	-0.011806	-0.854605	-0.517870	-0.038215
46444	9.758207	-0.205218	-0.427300	-0.021487	0.007070	-0.004810	-0.038692	-0.009727	0.999204	-0.517656	0.855509	-0.011717	-0.854714	-0.517697	-0.038137
46445	9.771049	-0.084997	-0.406391	0.005699	0.009951	-0.004707	-0.038523	-0.009703	0.999211	-0.517607	0.855539	-0.011648	-0.854751	-0.517647	-0.037981
46446	9.734809	-0.038233	-0.361902	0.004294	0.008361	-0.004257	-0.038404	-0.009719	0.999215	-0.517656	0.855511	-0.011575	-0.854727	-0.517694	-0.037886
46447	9.764576	-0.028601	-0.346131	-0.012100	0.009372	-0.003131	-0.038263	-0.009766	0.999220	-0.517561	0.855570	-0.011457	-0.854790	-0.517595	-0.037791
46448	9.758463	-0.039032	-0.366236	-0.017061	0.009919	-0.002254	-0.038140	-0.009757	0.999225	-0.517426	0.855652	-0.011395	-0.854877	-0.517460	-0.037683
46449	9.734903	-0.037341	-0.359458	-0.022682	0.003556	-0.000457	-0.038047	-0.009885	0.999227	-0.517404	0.855668	-0.011236	-0.854895	-0.517431	-0.037670
46450	9.764161	-0.126131	-0.322301	-0.024195	0.002931	-0.001958	-0.037986	-0.009910	0.999229	-0.517208	0.855787	-0.011174	-0.855016	-0.517234	-0.037633
46451	9.751892	-0.147402	-0.363950	-0.013401	0.006822	-0.000726	-0.037851	-0.009889	0.999234	-0.517030	0.855895	-0.011115	-0.855130	-0.517055	-0.037509
46452	9.734466	-0.135187	-0.336295	-0.005892	0.003243	0.001364	-0.037804	-0.009884	0.999236	-0.516990	0.855920	-0.011093	-0.855156	-0.517015	-0.037467
46453	9.756655	-0.114608	-0.352738	-0.008836	0.005579	-0.004548	-0.037844	-0.009902	0.999235	-0.516843	0.856008	-0.011092	-0.855243	-0.516867	-0.037513
46454	9.756685	-0.114204	-0.352037	-0.000668	0.008911	-0.003375	-0.037725	-0.009908	0.999239	-0.516849	0.856006	-0.011025	-0.855245	-0.516872	-0.037414
46455	9.752480	-0.048339	-0.383320	-0.004119	0.010086	-0.000995	-0.037639	-0.009888	0.999242	-0.516812	0.856028	-0.010996	-0.855271	-0.516834	-0.037330
46456	9.736474	-0.057839	-0.344565	-0.009662	0.007311	-0.002109	-0.037540	-0.009891	0.999246	-0.516740	0.856072	-0.010939	-0.855319	-0.516761	-0.037248
46457	9.771427	-0.082036	-0.397840	-0.007493	0.014852	-0.001520	-0.037423	-0.009878	0.999251	-0.516742	0.856072	-0.010890	-0.855323	-0.516762	-0.037141
46458	9.806432	-0.106434	-0.450200	0.001728	0.025795	0.001688	-0.037185	-0.009754	0.999261	-0.516767	0.856057	-0.010875	-0.855318	-0.516789	-0.036873
46459	9.762652	-0.049358	-0.436261	0.019083	0.017529	0.004934	-0.037043	-0.009676	0.999267	-0.517019	0.855905	-0.010878	-0.855172	-0.517042	-0.036708
46460	9.766053	0.004595	-0.434650	0.009525	0.023880	0.004776	-0.036838	-0.009536	0.999276	-0.517109	0.855850	-0.010896	-0.855127	-0.517136	-0.036459
46461	9.774560	-0.126891	-0.367882	-0.011510	0.023981	-0.000565	-0.036530	-0.009485	0.999288	-0.517018	0.855907	-0.010776	-0.855195	-0.517043	-0.036170
46462	9.765219	-0.191988	-0.386381	-0.001770	0.020261	-0.001356	-0.036324	-0.009416	0.999296	-0.517014	0.855910	-0.010729	-0.855206	-0.517039	-0.035958
46463	9.689222	-0.153746	-0.297118	0.006566	0.014947	-0.001701	-0.036179	-0.009383	0.999301	-0.517074	0.855874	-0.010684	-0.855176	-0.517099	-0.035816
46464	9.743379	-0.101400	-0.196655	0.011055	0.010111	-0.002616	-0.036054	-0.009377	0.999306	-0.517180	0.855811	-0.010629	-0.855117	-0.517204	-0.035704
46465	9.699518	-0.043893	-0.183698	0.015767	0.014622	0.000944	-0.035892	-0.009366	0.999312	-0.517396	0.855681	-0.010564	-0.854993	-0.517419	-0.035558
46466	9.752847	-0.036234	-0.173042	0.034328	0.021157	0.000429	-0.035688	-0.009276	0.999320	-0.517700	0.855497	-0.010547	-0.854818	-0.517724	-0.035333
46467	9.727888	-0.013463	-0.175832	0.040097	0.017457	0.010314	-0.035564	-0.009151	0.999326	-0.518028	0.855298	-0.010603	-0.854624	-0.518055	-0.035158
46468	9.691500	0.032026	-0.131442	0.032745	0.001112	0.006127	-0.035560	-0.009117	0.999326	-0.518316	0.855123	-0.010643	-0.854450	-0.518345	-0.035134
46469	9.742087	-0.081772	-0.201519	0.023752	-0.000490	0.007381	-0.035598	-0.009134	0.999324	-0.518535	0.854990	-0.010657	-0.854315	-0.518564	-0.035172
46470	9.729885	-0.103891	-0.244004	0.012387	-0.007714	0.004141	-0.035660	-0.009163	0.999322	-0.518650	0.854920	-0.010669	-0.854243	-0.518679	-0.035239
46471	9.729060	-0.148751	-0.335464	0.003463	-0.017008	0.001920	-0.035884	-0.009242	0.999313	-0.518578	0.854963	-0.010715	-0.854277	-0.518606	-0.035472
46472	9.795635	-0.087805	-0.387707	-0.005633	-0.017649	0.001222	-0.036016	-0.009346	0.999308	-0.518540	0.854987	-0.010692	-0.854295	-0.518566	-0.035639
46473	9.801406	-0.023268	-0.480571	-0.014648	-0.014700	-0.002383	-0.036151	-0.009521	0.999301	-0.518484	0.855021	-0.010610	-0.854323	-0.518505	-0.035847
46474	9.715813	-0.049791	-0.415697	-0.058347	-0.026884	-0.003927	-0.036335	-0.009718	0.999292	-0.517998	0.855317	-0.010517	-0.854610	-0.518013	-0.036112
46475	9.743494	-0.116240	-0.391923	-0.040081	-0.022002	-0.005435	-0.036385	-0.009981	0.999288	-0.517793	0.855444	-0.010309	-0.854732	-0.517799	-0.036294
46476	9.784487	-0.128898	-0.427391	-0.048568	-0.022434	-0.012460	-0.036487	-0.010228	0.999282	-0.517393	0.855688	-0.010134	-0.854970	-0.517391	-0.036514
46477	9.733907	-0.179302	-0.416979	-0.036349	-0.021498	-0.006803	-0.036636	-0.010453	0.999274	-0.517168	0.855825	-0.010008	-0.855099	-0.517160	-0.036760
46478	9.749387	-0.102497	-0.377448	-0.026427	-0.022588	-0.008549	-0.036760	-0.010667	0.999267	-0.516956	0.855955	-0.009880	-0.855222	-0.516941	-0.036979
46479	9.787991	-0.125500	-0.321909	-0.038219	-0.016093	-0.005813	-0.036973	-0.010848	0.999257	-0.516633	0.856151	-0.009821	-0.855409	-0.516612	-0.037258
46480	9.717189	-0.120362	-0.304858	-0.026126	-0.009646	-0.006974	-0.036994	-0.010982	0.999255	-0.516423	0.856279	-0.009708	-0.855534	-0.516397	-0.037349
46481	9.696858	-0.063721	-0.300617	-0.023412	-0.021322	-0.005536	-0.037186	-0.011182	0.999246	-0.516282	0.856364	-0.009630	-0.855611	-0.516251	-0.037617
46482	9.718043	-0.074581	-0.218440	-0.033678	-0.028588	-0.010198	-0.037353	-0.011441	0.999237	-0.516009	0.856531	-0.009483	-0.855768	-0.515969	-0.037898
46483	9.714693	-0.127839	-0.221317	-0.022183	-0.036729	-0.013929	-0.037661	-0.011792	0.999221	-0.515792	0.856663	-0.009331	-0.855886	-0.515742	-0.038345
46484	9.677908	-0.178367	-0.160134	-0.016417	-0.050261	-0.017819	-0.037975	-0.012228	0.999204	-0.515669	0.856739	-0.009114	-0.855946	-0.515605	-0.038841
46485	9.669478	-0.197920	-0.095601	0.023291	-0.056083	-0.011688	-0.038427	-0.012647	0.999181	-0.515800	0.856662	-0.008994	-0.855847	-0.515724	-0.039442
46486	9.670899	-0.218574	-0.090672	0.027186	-0.064214	-0.014588	-0.038877	-0.013127	0.999158	-0.516050	0.856513	-0.008826	-0.855676	-0.515958	-0.040073
46487	9.795239	-0.115261	-0.128838	0.038667	-0.072327	-0.018311	-0.039363	-0.013726	0.999131	-0.516522	0.856231	-0.008587	-0.855369	-0.516411	-0.040793
46488	9.758270	-0.079508	-0.284008	0.044833	-0.073876	-0.018667	-0.039874	-0.014292	0.999103	-0.516924	0.855990	-0.008386	-0.855102	-0.516795	-0.041519
46489	9.662776	-0.018070	-0.378909	0.037388	-0.082485	-0.019322	-0.040458	-0.014939	0.999070	-0.517279	0.855778	-0.008151	-0.854860	-0.517127	-0.042351
46490	9.742583	0.044527	-0.385120	0.023124	-0.085170	-0.018110	-0.041068	-0.015559	0.999035	-0.517495	0.855649	-0.007947	-0.854700	-0.517322	-0.043192
46491	9.794170	0.010043	-0.475371	-0.000869	-0.087265	-0.024395	-0.041659	-0.016239	0.999000	-0.517462	0.855672	-0.007669	-0.854692	-0.517264	-0.044049
46492	9.749769	-0.094596	-0.529358	-0.008403	-0.083666	-0.026440	-0.042213	-0.016923	0.998965	-0.517412	0.855704	-0.007368	-0.854694	-0.517188	-0.044878
46493	9.757152	-0.169506	-0.585597	-0.008490	-0.087217	-0.023501	-0.042927	-0.017550	0.998924	-0.517207	0.855830	-0.007190	-0.854783	-0.516960	-0.045815
46494	9.802210	-0.147897	-0.617263	-0.016140	-0.082658	-0.027491	-0.043468	-0.018237	0.998888	-0.517093	0.855902	-0.006875	-0.854825	-0.516817	-0.046634
46495	9.913146	-0.162691	-0.677510	-0.021612	-0.070590	-0.030925	-0.043957	-0.018946	0.998854	-0.517007	0.855957	-0.006517	-0.854852	-0.516700	-0.047421
46496	9.852907	-0.146022	-0.814641	-0.016457	-0.057264	-0.032234	-0.044257	-0.019542	0.998829	-0.516891	0.856029	-0.006154	-0.854906	-0.516559	-0.047986
46497	9.753798	-0.103366	-0.725639	-0.003413	-0.061132	-0.037400	-0.044718	-0.020151	0.998796	-0.516752	0.856115	-0.005864	-0.854966	-0.516393	-0.048697
46498	9.796052	-0.002667	-0.595726	-0.015817	-0.069199	-0.037115	-0.045095	-0.020850	0.998765	-0.516645	0.856182	-0.005453	-0.855011	-0.516253	-0.049382
46499	9.816303	0.011587	-0.528635	-0.026101	-0.065211	-0.041138	-0.045369	-0.021588	0.998737	-0.516483	0.856283	-0.004954	-0.855095	-0.516056	-0.049999
46500	9.819469	0.038261	-0.434227	-0.037224	-0.070718	-0.043248	-0.045728	-0.022347	0.998704	-0.516196	0.856459	-0.004471	-0.855249	-0.515731	-0.050700
46501	9.916223	0.091505	-0.467132	-0.023563	-0.068175	-0.038142	-0.046183	-0.022997	0.998668	-0.515891	0.856644	-0.004130	-0.855408	-0.515395	-0.051427
46502	9.863445	0.261995	-0.514677	-0.027311	-0.068644	-0.036708	-0.046558	-0.023690	0.998635	-0.515686	0.856770	-0.003718	-0.855512	-0.515155	-0.052106
46503	9.810316	0.225410	-0.428452	-0.056294	-0.078334	-0.034169	-0.047066	-0.024381	0.998594	-0.515110	0.857117	-0.003352	-0.855831	-0.514544	-0.052900
46504	9.833853	0.129303	-0.421060	-0.066711	-0.081489	-0.032323	-0.047574	-0.025101	0.998552	-0.514565	0.857446	-0.002961	-0.856130	-0.513961	-0.053709
46505	9.812298	-0.028863	-0.199239	-0.064294	-0.102302	-0.035247	-0.048166	-0.026033	0.998500	-0.514152	0.857696	-0.002440	-0.856345	-0.513498	-0.054697
46506	9.780644	-0.164674	0.069047	-0.041702	-0.120509	-0.032562	-0.049008	-0.026956	0.998435	-0.513822	0.857894	-0.002060	-0.856496	-0.513119	-0.055894
46507	9.838375	-0.240075	0.276836	-0.009662	-0.151617	-0.035183	-0.050113	-0.028027	0.998350	-0.513624	0.858013	-0.001694	-0.856550	-0.512862	-0.057393
46508	10.007429	-0.059105	0.373977	0.051405	-0.177503	-0.035537	-0.051427	-0.029268	0.998248	-0.514094	0.857733	-0.001337	-0.856191	-0.513262	-0.059157
46509	9.984958	0.120411	0.329296	0.063376	-0.201381	-0.029981	-0.053126	-0.030623	0.998118	-0.514814	0.857301	-0.001099	-0.855654	-0.513903	-0.061310
46510	9.893702	0.106072	0.345133	0.065631	-0.229642	-0.015686	-0.054988	-0.031963	0.997975	-0.515395	0.856952	-0.000952	-0.855187	-0.514404	-0.063595
46511	9.921315	0.083104	0.154740	0.099675	-0.241384	-0.007918	-0.057053	-0.033319	0.997815	-0.516334	0.856387	-0.000926	-0.854484	-0.515259	-0.066064
46512	9.954215	-0.016579	0.085417	0.118077	-0.261384	-0.004602	-0.059240	-0.034731	0.997639	-0.517357	0.855769	-0.000928	-0.853717	-0.516191	-0.068664
46513	9.964482	-0.213728	0.042265	0.160583	-0.295213	-0.000054	-0.061710	-0.036266	0.997435	-0.518734	0.854935	-0.001009	-0.852706	-0.517466	-0.071571
46514	10.045395	-0.250603	0.034008	0.239701	-0.308905	0.003242	-0.064337	-0.037864	0.997210	-0.520786	0.853686	-0.001185	-0.851260	-0.519409	-0.074642
46515	10.249518	-0.253915	0.683557	0.232328	-0.303194	0.043637	-0.067124	-0.039056	0.996980	-0.522674	0.852531	-0.001793	-0.849886	-0.521216	-0.077639
46516	10.539858	-0.373844	0.532585	0.471241	-0.287554	0.081053	-0.069967	-0.039895	0.996751	-0.526629	0.850090	-0.002942	-0.847211	-0.525124	-0.080488
46517	10.479346	0.366765	0.906486	0.563704	-0.285374	0.061520	-0.072692	-0.040877	0.996516	-0.531318	0.847163	-0.004007	-0.844048	-0.529758	-0.083300
46518	10.110128	0.202983	0.943425	0.545814	-0.339002	0.032924	-0.075701	-0.042426	0.996228	-0.535903	0.844266	-0.004767	-0.840879	-0.534243	-0.086648
46519	10.042586	0.307667	0.902751	0.567741	-0.395536	0.020468	-0.079173	-0.044277	0.995877	-0.540463	0.841350	-0.005560	-0.837635	-0.538675	-0.090542
46520	10.200024	0.747030	0.764726	0.603141	-0.451875	0.025615	-0.083066	-0.046531	0.995457	-0.545495	0.838090	-0.006344	-0.833988	-0.543544	-0.094999
46521	10.183081	1.226467	0.624922	0.457739	-0.496689	0.036885	-0.087478	-0.048890	0.994966	-0.549249	0.835628	-0.007230	-0.831068	-0.547116	-0.099952
46522	10.172385	1.249323	0.203664	0.282629	-0.535285	0.072775	-0.092299	-0.051240	0.994412	-0.551541	0.834107	-0.008213	-0.829025	-0.549217	-0.105248
46523	10.085786	1.068350	-0.315128	0.084332	-0.577483	0.098794	-0.097655	-0.053628	0.993774	-0.552259	0.833621	-0.009283	-0.827933	-0.549727	-0.111024
46524	10.039701	0.989642	-0.644264	-0.057520	-0.574768	0.141171	-0.103170	-0.055632	0.993107	-0.551653	0.834006	-0.010590	-0.827668	-0.548943	-0.116734
46525	9.892518	0.843183	-0.865446	-0.195803	-0.568582	0.170233	-0.108879	-0.057328	0.992401	-0.549928	0.835124	-0.012091	-0.828085	-0.547066	-0.122453
46526	9.678040	0.660938	-1.186436	-0.268174	-0.543816	0.216166	-0.114549	-0.058512	0.991693	-0.547478	0.836705	-0.013870	-0.828943	-0.544519	-0.127878
46527	9.537881	0.559517	-1.522481	-0.340097	-0.534840	0.263160	-0.120481	-0.059265	0.990945	-0.544516	0.838597	-0.016050	-0.830053	-0.541519	-0.133306
46528	9.465371	0.621043	-1.768927	-0.371471	-0.511307	0.303958	-0.126357	-0.059496	0.990199	-0.541068	0.840775	-0.018527	-0.831432	-0.538106	-0.138430
46529	9.304148	0.744522	-1.979151	-0.440800	-0.473135	0.325086	-0.131992	-0.059314	0.989475	-0.537002	0.843317	-0.021082	-0.833191	-0.534133	-0.143163
46530	9.199248	0.679960	-1.921031	-0.521504	-0.416952	0.314282	-0.137130	-0.058900	0.988800	-0.532242	0.846268	-0.023404	-0.835412	-0.529491	-0.147397
46531	9.156818	0.596830	-1.691294	-0.571370	-0.319562	0.289090	-0.141321	-0.058185	0.988252	-0.527147	0.849395	-0.025373	-0.837940	-0.524540	-0.150710
46532	9.093927	0.578605	-1.593776	-0.580568	-0.175790	0.247267	-0.144073	-0.057022	0.987923	-0.521935	0.852560	-0.026907	-0.840730	-0.519509	-0.152593
46533	9.021275	0.750373	-1.487189	-0.548355	-0.010450	0.199377	-0.145358	-0.055394	0.987827	-0.517087	0.855471	-0.028117	-0.843500	-0.514880	-0.152993
46534	9.032384	0.851957	-1.477232	-0.530086	0.175998	0.138718	-0.144566	-0.053327	0.988057	-0.512421	0.858256	-0.028653	-0.846478	-0.510444	-0.151400
46535	9.221018	0.581343	-1.594647	-0.521239	0.364478	0.090371	-0.141925	-0.050747	0.988576	-0.507916	0.860928	-0.028724	-0.849635	-0.506190	-0.147963
46536	9.452421	0.125764	-1.412929	-0.422651	0.551334	0.064815	-0.137542	-0.047431	0.989360	-0.504242	0.863084	-0.028723	-0.852539	-0.502828	-0.142627
46537	9.606643	0.224189	-1.052784	-0.269284	0.739900	0.018284	-0.131429	-0.043578	0.990367	-0.501905	0.864451	-0.028569	-0.854879	-0.500825	-0.135485
46538	9.606074	0.545718	-0.924173	-0.173324	0.917445	-0.039606	-0.123359	-0.039355	0.991581	-0.500486	0.865294	-0.027921	-0.856911	-0.499717	-0.126438
46539	9.558164	0.776220	-0.742734	-0.147780	1.069275	-0.084203	-0.113803	-0.034754	0.992895	-0.499251	0.866040	-0.026910	-0.858951	-0.498766	-0.115909
46540	9.565095	0.787251	-0.634087	-0.149750	1.178959	-0.125036	-0.103023	-0.029986	0.994227	-0.498112	0.866738	-0.025474	-0.860971	-0.497861	-0.104230
46541	9.608838	0.688940	-0.532187	-0.143299	1.266222	-0.149856	-0.091381	-0.025098	0.995500	-0.497146	0.867342	-0.023768	-0.862842	-0.497080	-0.091736
46542	9.569996	0.634907	-0.612881	-0.135735	1.327573	-0.181936	-0.078993	-0.020108	0.996672	-0.496141	0.867968	-0.021811	-0.864641	-0.496213	-0.078539
46543	9.355126	0.649121	-1.225122	-0.113376	1.402334	-0.207139	-0.065763	-0.015050	0.997722	-0.495314	0.868494	-0.019547	-0.866221	-0.495471	-0.064569
46544	8.994150	1.101669	-1.625631	-0.153421	1.489246	-0.228386	-0.051702	-0.009689	0.998616	-0.494130	0.869219	-0.017150	-0.867849	-0.494333	-0.049728
46545	8.611875	1.458589	-1.942779	-0.264307	1.570701	-0.230877	-0.036936	-0.004028	0.999310	-0.491875	0.870542	-0.014672	-0.869882	-0.492077	-0.034136
46546	8.241950	1.859241	-2.169617	-0.405661	1.654468	-0.216222	-0.021446	0.002175	0.999768	-0.488416	0.872523	-0.012375	-0.872347	-0.488568	-0.017650
46547	9.682413	1.447991	0.934731	-0.800142	1.705567	-0.129601	-0.005716	0.009222	0.999941	-0.481332	0.876471	-0.010835	-0.876520	-0.481366	-0.000571
46548	7.618546	0.242262	-0.915617	-0.751955	1.425154	0.099762	0.006342	0.016885	0.999837	-0.474738	0.880047	-0.011851	-0.880104	-0.474586	0.013597
46549	7.155159	1.395987	-2.613005	-1.135594	0.756298	0.366054	0.011342	0.023561	0.999658	-0.464641	0.885362	-0.015596	-0.885426	-0.464306	0.020989
46550	7.161922	1.600799	-2.916566	-1.903758	-0.040442	0.581787	0.008345	0.028527	0.999558	-0.447769	0.893884	-0.021773	-0.894110	-0.447390	0.020233
46551	8.660524	0.441108	-0.386335	-2.629995	-0.716363	0.773534	-0.001327	0.032198	0.999481	-0.424035	0.905158	-0.029723	-0.905645	-0.423854	0.012452
46552	11.170203	-2.567086	2.394600	-2.891830	-0.860595	0.766841	-0.012307	0.035622	0.999290	-0.397630	0.916776	-0.037577	-0.917463	-0.397810	0.002882
46553	12.234536	-6.029097	2.311738	-2.390776	-0.729189	0.610647	-0.021424	0.038346	0.999035	-0.375339	0.925862	-0.043587	-0.926640	-0.375911	-0.005443
46554	12.201021	-7.172791	0.202374	-0.986239	-0.427109	0.394723	-0.026838	0.040394	0.998823	-0.366099	0.929367	-0.047422	-0.930189	-0.366941	-0.010154
46555	9.365554	-3.138323	-0.243319	0.176221	-0.411824	0.372142	-0.032027	0.042256	0.998593	-0.367581	0.928588	-0.051083	-0.929440	-0.368700	-0.014207
46556	8.415116	-1.999893	-0.437211	0.327998	-0.511349	0.373616	-0.038141	0.043802	0.998312	-0.370508	0.927209	-0.054837	-0.928046	-0.371974	-0.019136
46557	9.276208	-3.298093	-1.464567	0.210364	-0.630248	0.310313	-0.045244	0.044132	0.998001	-0.372623	0.926178	-0.057849	-0.926879	-0.374495	-0.025460
46558	9.905692	-2.302227	-1.667800	0.282142	-0.655853	0.253687	-0.052253	0.043986	0.997665	-0.375125	0.925003	-0.060430	-0.925500	-0.377406	-0.031834
46559	10.290720	-1.965069	-1.370495	0.190284	-0.619248	0.225120	-0.058832	0.043660	0.997313	-0.376764	0.924186	-0.062684	-0.924439	-0.379439	-0.037923
46560	10.081622	-1.336801	-1.702903	0.311854	-0.519953	0.225562	-0.064474	0.043734	0.996961	-0.379518	0.922896	-0.065029	-0.922935	-0.382557	-0.042905
46561	9.623382	-0.080583	-1.567571	0.385765	-0.494876	0.269230	-0.070124	0.044221	0.996558	-0.382949	0.921276	-0.067827	-0.921104	-0.386387	-0.047670
46562	9.646327	1.705110	-0.738136	0.395455	-0.546467	0.295663	-0.076276	0.044792	0.996080	-0.386384	0.919606	-0.070941	-0.919179	-0.390281	-0.052837
46563	9.709093	2.206775	0.134836	0.155951	-0.620085	0.294268	-0.083110	0.044914	0.995528	-0.387781	0.918791	-0.073826	-0.917997	-0.392182	-0.058944
46564	10.037551	1.440323	-0.063219	-0.010368	-0.651698	0.289248	-0.090198	0.044987	0.994907	-0.387449	0.918698	-0.076667	-0.917468	-0.392391	-0.065435
46565	9.868194	0.618600	-0.434728	-0.109063	-0.648353	0.325713	-0.097523	0.045325	0.994201	-0.386129	0.918989	-0.079772	-0.917275	-0.391669	-0.072121
46566	9.797790	-0.364097	-0.898564	-0.181405	-0.644718	0.369228	-0.104845	0.046170	0.993416	-0.384105	0.919526	-0.083275	-0.917317	-0.390307	-0.078674
46567	9.765430	-0.934316	-1.592833	-0.218727	-0.619884	0.393401	-0.112116	0.047269	0.992570	-0.381634	0.920217	-0.086931	-0.917489	-0.388545	-0.085131
46568	9.807295	-1.402399	-2.213313	-0.277814	-0.584500	0.388625	-0.118944	0.048554	0.991713	-0.378650	0.921104	-0.090512	-0.917865	-0.386278	-0.091175
46569	9.799453	-1.721125	-2.376378	-0.292542	-0.542174	0.356744	-0.125385	0.049673	0.990864	-0.375324	0.922143	-0.093722	-0.918374	-0.383647	-0.096979
46570	9.833442	-1.862984	-2.389303	-0.250854	-0.502035	0.319257	-0.131177	0.050669	0.990063	-0.372626	0.922940	-0.096605	-0.918663	-0.381595	-0.102188
46571	9.967304	-1.852545	-2.237026	-0.178913	-0.463292	0.282396	-0.136572	0.051375	0.989297	-0.370585	0.923495	-0.099116	-0.918703	-0.380155	-0.107085
46572	9.916062	-1.639290	-2.096393	-0.129195	-0.410020	0.261538	-0.141293	0.052205	0.988590	-0.369050	0.923847	-0.101532	-0.918607	-0.379185	-0.111267
46573	9.766443	-1.536225	-1.903995	-0.121901	-0.370133	0.234495	-0.145671	0.052891	0.987918	-0.367434	0.924255	-0.103661	-0.918571	-0.378095	-0.115204
46574	9.676978	-1.408284	-1.627608	-0.124986	-0.348356	0.226657	-0.149691	0.053641	0.987277	-0.365966	0.924603	-0.105724	-0.918510	-0.377136	-0.118774
46575	9.736876	-1.281530	-1.596562	-0.123388	-0.336077	0.215259	-0.153700	0.054266	0.986626	-0.364365	0.925015	-0.107639	-0.918485	-0.376036	-0.122402
46576	9.615307	-0.903725	-1.509663	-0.134010	-0.314804	0.201142	-0.157312	0.054916	0.986021	-0.362837	0.925405	-0.109427	-0.918478	-0.374979	-0.125652
46577	9.728820	-0.936832	-1.421999	-0.281108	-0.323529	0.183438	-0.160949	0.055436	0.985405	-0.359628	0.926487	-0.110860	-0.919110	-0.372222	-0.129181
46578	9.804183	-1.707522	-1.598815	-0.290765	-0.308999	0.166967	-0.164377	0.055808	0.984818	-0.356699	0.927470	-0.112095	-0.919644	-0.369710	-0.132548
46579	9.815635	-1.923342	-1.718715	-0.224510	-0.284222	0.157894	-0.167642	0.056194	0.984245	-0.354172	0.928289	-0.113324	-0.920032	-0.367590	-0.135717
46580	9.716282	-2.005974	-1.827290	-0.143061	-0.259067	0.135998	-0.170495	0.056477	0.983739	-0.352642	0.928735	-0.114437	-0.920095	-0.366419	-0.138429
46581	9.637770	-1.714993	-1.527143	-0.145920	-0.260189	0.119120	-0.173348	0.056485	0.983239	-0.351222	0.929166	-0.115301	-0.920105	-0.365322	-0.141230
46582	9.793774	-1.948915	-1.533617	-0.216699	-0.267646	0.088628	-0.176111	0.056304	0.982759	-0.349089	0.929903	-0.115833	-0.920392	-0.363470	-0.144111
46583	9.781507	-2.379401	-1.633880	-0.184772	-0.247685	0.052653	-0.178607	0.055781	0.982338	-0.347377	0.930523	-0.115998	-0.920559	-0.361960	-0.146821
46584	9.717984	-2.209776	-1.600168	-0.084790	-0.230556	0.023102	-0.180800	0.055132	0.981973	-0.346572	0.930815	-0.116070	-0.920434	-0.361310	-0.149184
46585	9.731148	-2.043707	-1.840214	-0.026934	-0.214744	-0.000424	-0.182828	0.054319	0.981643	-0.346209	0.930959	-0.115995	-0.920170	-0.361060	-0.151399
46586	9.720573	-1.585156	-2.037111	0.004144	-0.187986	-0.014773	-0.184496	0.053473	0.981378	-0.346290	0.930950	-0.115827	-0.919807	-0.361211	-0.153239
46587	9.771998	-1.310340	-2.344707	-0.052511	-0.163548	-0.040772	-0.185853	0.052560	0.981171	-0.345671	0.931237	-0.115362	-0.919766	-0.360603	-0.154905
46588	9.686483	-1.477088	-2.442192	-0.111628	-0.144361	-0.056540	-0.186976	0.051483	0.981014	-0.344766	0.931666	-0.114604	-0.919879	-0.359648	-0.156450
46589	9.655891	-1.446296	-2.203792	-0.136459	-0.131756	-0.073812	-0.187954	0.050241	0.980892	-0.343690	0.932186	-0.113603	-0.920082	-0.358475	-0.157941
46590	9.715952	-1.449591	-1.993474	-0.156811	-0.110892	-0.090947	-0.188653	0.048967	0.980822	-0.342435	0.932790	-0.112433	-0.920407	-0.357078	-0.159206
46591	9.761068	-1.501626	-1.870866	-0.159239	-0.092079	-0.105283	-0.189190	0.047593	0.980787	-0.341140	0.933424	-0.111099	-0.920777	-0.355604	-0.160358
46592	9.660453	-1.455795	-1.681931	-0.166134	-0.091204	-0.114642	-0.189630	0.046169	0.980770	-0.339843	0.934065	-0.109678	-0.921166	-0.354106	-0.161436
46593	9.617075	-1.398535	-1.356298	-0.167581	-0.097623	-0.123437	-0.190154	0.044613	0.980740	-0.338503	0.934729	-0.108152	-0.921552	-0.352549	-0.162641
46594	9.579832	-1.441204	-1.116780	-0.148830	-0.106389	-0.132859	-0.190676	0.042966	0.980712	-0.337400	0.935309	-0.106577	-0.921848	-0.351214	-0.163845
46595	9.454378	-1.402496	-0.860533	-0.115880	-0.118305	-0.135748	-0.191308	0.041258	0.980663	-0.336579	0.935780	-0.105029	-0.922017	-0.350163	-0.165136
46596	9.404895	-1.484678	-0.579809	-0.089700	-0.156679	-0.146844	-0.192250	0.039305	0.980559	-0.336049	0.936150	-0.103412	-0.922015	-0.349397	-0.166766
46597	9.333222	-1.314396	-0.303831	-0.045925	-0.189796	-0.149679	-0.193486	0.037219	0.980397	-0.335929	0.936365	-0.101844	-0.921800	-0.349049	-0.168670
46598	9.241077	-1.367926	-0.017063	-0.081787	-0.235207	-0.156720	-0.195118	0.034901	0.980159	-0.335496	0.936704	-0.100140	-0.921613	-0.348378	-0.171059
46599	9.257534	-1.611269	-0.062126	-0.063000	-0.281643	-0.167391	-0.197180	0.032303	0.979835	-0.335226	0.936990	-0.098351	-0.921273	-0.347859	-0.173927
46600	9.339339	-1.172183	-0.019259	0.024638	-0.330101	-0.169625	-0.199642	0.029535	0.979424	-0.335806	0.936954	-0.096703	-0.920531	-0.348203	-0.177137
46601	9.159134	-0.611249	0.187153	-0.025003	-0.397604	-0.170224	-0.202691	0.026515	0.978884	-0.336019	0.937056	-0.094959	-0.919787	-0.348171	-0.181023
46602	9.166490	-0.797080	0.337073	-0.122116	-0.470272	-0.180736	-0.206399	0.023156	0.978194	-0.335282	0.937522	-0.092938	-0.919231	-0.347153	-0.185740
46603	9.315984	-1.422589	-0.130841	-0.131182	-0.509600	-0.195187	-0.210422	0.019533	0.977415	-0.334503	0.938014	-0.090759	-0.918602	-0.346047	-0.190845
46604	9.310238	-1.867839	-0.691548	-0.082016	-0.541416	-0.202536	-0.214707	0.015731	0.976552	-0.334198	0.938330	-0.088593	-0.917721	-0.345383	-0.196209
46605	9.361477	-1.677005	-1.149597	-0.006583	-0.576404	-0.214210	-0.219271	0.011705	0.975594	-0.334635	0.938372	-0.086470	-0.916482	-0.345428	-0.201840
46606	9.410965	-1.319418	-1.461643	-0.003266	-0.595743	-0.226425	-0.223959	0.007492	0.974570	-0.335124	0.938402	-0.084227	-0.915169	-0.345465	-0.207653
46607	9.509781	-1.336891	-1.866787	-0.005449	-0.603239	-0.243865	-0.228644	0.003063	0.973505	-0.335696	0.938412	-0.081796	-0.913800	-0.345504	-0.213534
46608	9.576635	-1.233487	-2.012472	0.023793	-0.621531	-0.258617	-0.233440	-0.001542	0.972370	-0.336528	0.938328	-0.079303	-0.912280	-0.345742	-0.219563
46609	9.676045	-0.822723	-2.150365	0.083293	-0.631221	-0.269780	-0.238296	-0.006260	0.971172	-0.337906	0.938036	-0.076866	-0.910513	-0.346482	-0.225645
46610	9.521740	-0.422922	-2.018321	0.061954	-0.648610	-0.271439	-0.243268	-0.011085	0.969896	-0.339141	0.937793	-0.074345	-0.908738	-0.347017	-0.231894
46611	9.429517	-0.261814	-1.936378	0.039488	-0.670356	-0.266301	-0.248439	-0.015951	0.968516	-0.340200	0.937606	-0.071824	-0.906941	-0.347333	-0.238365
46612	9.485568	-0.550639	-1.860980	-0.018760	-0.692955	-0.271178	-0.253786	-0.020930	0.967034	-0.340729	0.937617	-0.069127	-0.905261	-0.347040	-0.245085
46613	9.660998	-0.999233	-1.747899	-0.010120	-0.722991	-0.267270	-0.259422	-0.025962	0.965415	-0.341313	0.937594	-0.066502	-0.903441	-0.346761	-0.252094
46614	9.697268	-1.101564	-1.548533	0.031508	-0.752943	-0.271600	-0.265279	-0.031150	0.963668	-0.342328	0.937403	-0.063935	-0.901354	-0.346851	-0.259337
46615	9.516215	-0.911138	-1.345736	0.091304	-0.792774	-0.270685	-0.271476	-0.036493	0.961753	-0.343921	0.936981	-0.061526	-0.898899	-0.347469	-0.266918
46616	9.230284	-0.538626	-0.907418	0.093683	-0.849700	-0.270185	-0.278162	-0.042009	0.959615	-0.345522	0.936544	-0.059157	-0.896237	-0.348024	-0.275026
46617	9.153912	-0.869047	-0.404766	0.042540	-0.945721	-0.278533	-0.285673	-0.047968	0.957126	-0.346689	0.936274	-0.056553	-0.893419	-0.347980	-0.284098
46618	9.279973	-1.637151	0.289725	0.063035	-1.050636	-0.308106	-0.293962	-0.054539	0.954260	-0.348163	0.935891	-0.053764	-0.890151	-0.348042	-0.294105
46619	9.615005	-2.280751	0.793773	0.184568	-1.167465	-0.353546	-0.303106	-0.061940	0.950942	-0.350866	0.935040	-0.050932	-0.886014	-0.349090	-0.305149
46620	10.265161	-1.940474	1.322834	0.359054	-1.311486	-0.387666	-0.313313	-0.070187	0.947053	-0.355252	0.933520	-0.048344	-0.880699	-0.351589	-0.317418
46621	10.663247	-0.791247	1.757345	0.471673	-1.454625	-0.391651	-0.324667	-0.078996	0.942524	-0.360683	0.931545	-0.046168	-0.874356	-0.354942	-0.330935
46622	10.616812	0.067856	1.885382	0.462244	-1.634646	-0.379570	-0.337514	-0.088384	0.937162	-0.365985	0.929573	-0.044139	-0.867260	-0.357885	-0.346091
46623	10.787734	0.863674	2.140999	0.347037	-1.834144	-0.352988	-0.352013	-0.098244	0.930825	-0.370287	0.927963	-0.042090	-0.859636	-0.359488	-0.363033
46624	11.775153	1.384534	2.140989	0.263331	-2.023506	-0.322027	-0.368116	-0.108539	0.923423	-0.373720	0.926676	-0.040060	-0.851366	-0.359848	-0.381688
46625	12.872818	2.752286	2.222893	0.239206	-2.201481	-0.277671	-0.385655	-0.119007	0.914936	-0.376906	0.925451	-0.038495	-0.842147	-0.359690	-0.401760
46626	13.056133	3.403500	1.769254	0.101838	-2.365209	-0.219989	-0.404618	-0.129556	0.905262	-0.378649	0.924805	-0.036889	-0.832411	-0.357703	-0.423249
46627	13.014993	3.397890	0.534748	-0.053118	-2.477298	-0.195973	-0.424318	-0.140207	0.894593	-0.379096	0.924699	-0.034885	-0.822339	-0.353939	-0.445518
46628	12.514095	2.940605	-0.809608	-0.339137	-2.565293	-0.186687	-0.444571	-0.150956	0.882932	-0.377158	0.925608	-0.031654	-0.812470	-0.347077	-0.468433
46629	11.961801	2.284615	-2.331699	-0.521716	-2.630791	-0.161852	-0.465114	-0.161476	0.870399	-0.373789	0.927099	-0.027746	-0.802466	-0.338251	-0.491564
46630	11.357411	2.230415	-3.528306	-0.680173	-2.629772	-0.127954	-0.485601	-0.171449	0.857203	-0.368997	0.929141	-0.023198	-0.792485	-0.327570	-0.514456
46631	11.088710	2.017658	-4.107126	-0.936589	-2.622119	-0.080234	-0.505860	-0.180631	0.843492	-0.362114	0.931968	-0.017590	-0.782930	-0.314338	-0.536854
46632	10.849715	0.788765	-4.884516	-1.174004	-2.571274	-0.039477	-0.525725	-0.188910	0.829413	-0.353204	0.935484	-0.010809	-0.773861	-0.298635	-0.558531
46633	10.855942	-1.214602	-6.093508	-1.315266	-2.456668	-0.013357	-0.544479	-0.196179	0.815510	-0.343261	0.939234	-0.003238	-0.765319	-0.281696	-0.578735
46634	10.868529	-2.944941	-7.042718	-1.273906	-2.340918	-0.024165	-0.562204	-0.202836	0.801738	-0.333726	0.942659	0.004469	-0.756673	-0.265049	-0.597658
46635	10.580830	-4.185393	-7.423836	-1.066190	-2.245913	-0.040070	-0.578845	-0.209022	0.788193	-0.326067	0.945280	0.011218	-0.747408	-0.250510	-0.615326
46636	10.091307	-4.825156	-7.800598	-0.702500	-2.147350	-0.074112	-0.594535	-0.215012	0.774789	-0.321314	0.946834	0.016196	-0.737079	-0.239322	-0.632013
46637	9.677220	-4.708538	-7.735089	-0.307843	-2.036990	-0.111416	-0.608956	-0.220891	0.761827	-0.319901	0.947261	0.018949	-0.725835	-0.232170	-0.647504
46638	9.027373	-4.079179	-7.715858	0.017810	-1.843072	-0.182009	-0.621636	-0.226887	0.749727	-0.321177	0.946803	0.020224	-0.714432	-0.228223	-0.661438
46639	7.898246	-3.229743	-7.698642	0.264702	-1.611443	-0.252752	-0.632117	-0.232977	0.739020	-0.324838	0.945553	0.020238	-0.703497	-0.227269	-0.673380
46640	7.234229	-2.196627	-7.078862	0.408017	-1.392692	-0.277544	-0.640926	-0.238797	0.729513	-0.329482	0.943960	0.019521	-0.693293	-0.227850	-0.683688
46641	6.675352	-1.200738	-7.115721	0.553460	-1.145547	-0.250750	-0.647851	-0.243822	0.721693	-0.335129	0.942011	0.017416	-0.684089	-0.230577	-0.691995
46642	6.071260	-0.288600	-7.376368	0.561323	-0.880754	-0.215091	-0.653106	-0.247919	0.715533	-0.340375	0.940169	0.015072	-0.676459	-0.233706	-0.698416
46643	4.936750	-0.377953	-7.536524	0.470223	-0.623561	-0.242049	-0.656346	-0.251698	0.711237	-0.345349	0.938379	0.013384	-0.670778	-0.236840	-0.702825
46644	6.399984	-0.761707	-4.776280	0.354500	-0.433679	-0.283575	-0.658251	-0.255417	0.708144	-0.349612	0.936805	0.012912	-0.666691	-0.239077	-0.705950
46645	8.909666	-1.807947	-3.934298	0.604235	0.000933	-0.307131	-0.657031	-0.258327	0.708221	-0.355877	0.934472	0.010699	-0.664577	-0.245010	-0.705909
46646	9.334038	-1.377999	-4.014589	1.115301	0.552143	-0.332554	-0.652153	-0.260071	0.712081	-0.365492	0.930800	0.005221	-0.664163	-0.256855	-0.702078
46647	8.705310	-0.171421	-4.845555	1.498330	1.105867	-0.370249	-0.643279	-0.260609	0.719913	-0.378097	0.925762	-0.002723	-0.665759	-0.273949	-0.694059
46648	7.472769	0.895114	-5.400182	1.551177	1.515695	-0.361289	-0.631760	-0.259681	0.730374	-0.390785	0.920419	-0.010772	-0.669452	-0.292225	-0.682963
46649	7.172007	1.075620	-5.537453	1.430603	1.871392	-0.336471	-0.617691	-0.257154	0.743189	-0.402751	0.915131	-0.018093	-0.675462	-0.310496	-0.668837
46650	7.521332	1.094091	-5.474942	1.286650	2.199607	-0.329753	-0.601386	-0.253170	0.757787	-0.413533	0.910170	-0.024104	-0.683612	-0.327865	-0.652057
46651	7.966005	1.270453	-5.478183	1.155246	2.560123	-0.358869	-0.582099	-0.247825	0.774431	-0.423847	0.905273	-0.028889	-0.693912	-0.345057	-0.631999
46652	8.032766	1.445419	-5.506949	0.995824	2.902779	-0.389894	-0.560093	-0.241121	0.792563	-0.433073	0.900790	-0.032000	-0.706217	-0.361161	-0.608950
46653	8.000821	1.845870	-5.569657	0.767696	3.214630	-0.430079	-0.535131	-0.233134	0.811963	-0.441127	0.896829	-0.033227	-0.720446	-0.375960	-0.582763
46654	8.003369	1.940486	-5.644135	0.479697	3.474509	-0.469526	-0.507720	-0.224087	0.831868	-0.447096	0.893910	-0.032079	-0.736427	-0.388213	-0.554045
46655	8.036125	1.632465	-5.621678	0.186185	3.677998	-0.511360	-0.477871	-0.214171	0.851922	-0.451207	0.891952	-0.028862	-0.753692	-0.398185	-0.522873
46656	8.140001	1.122953	-5.401683	-0.028023	3.844849	-0.550283	-0.446042	-0.203641	0.871537	-0.453561	0.890903	-0.023961	-0.771576	-0.405983	-0.489744
46657	8.200532	0.681696	-5.044359	-0.135738	3.986887	-0.576525	-0.412160	-0.192416	0.890562	-0.455163	0.890220	-0.018311	-0.789273	-0.412898	-0.454493
46658	8.332839	0.247420	-5.017810	-0.120150	4.108885	-0.593912	-0.376659	-0.180623	0.908572	-0.456571	0.889600	-0.012425	-0.806022	-0.419508	-0.417544
46659	8.290225	0.349632	-4.837982	-0.011571	4.215076	-0.590419	-0.339520	-0.167983	0.925477	-0.458767	0.888529	-0.007026	-0.821133	-0.426964	-0.378738
46660	8.361875	0.513135	-4.677948	0.086704	4.279405	-0.579944	-0.301408	-0.154719	0.940859	-0.461366	0.887208	-0.001904	-0.834443	-0.434654	-0.338793
46661	8.493012	0.551744	-4.649176	0.170695	4.333985	-0.560154	-0.262264	-0.140608	0.954697	-0.464542	0.885546	0.002810	-0.845824	-0.442761	-0.297565
46662	8.622392	0.658406	-4.548339	0.300813	4.383155	-0.534981	-0.222472	-0.125769	0.966793	-0.468419	0.883478	0.007141	-0.855038	-0.451275	-0.255462
46663	8.590345	1.026008	-4.365052	0.404412	4.419408	-0.494899	-0.182067	-0.109923	0.977123	-0.473041	0.880972	0.010965	-0.862023	-0.460223	-0.212394
46664	8.645241	1.409195	-4.361449	0.434827	4.441153	-0.437950	-0.141567	-0.093173	0.985534	-0.477529	0.878497	0.014459	-0.867136	-0.468574	-0.168859
46665	8.708070	1.646727	-4.437684	0.382774	4.442566	-0.374889	-0.101046	-0.075413	0.992019	-0.481438	0.876304	0.017577	-0.870636	-0.475820	-0.124854
46666	8.994624	1.942295	-4.614124	0.243475	4.437243	-0.316724	-0.060811	-0.056981	0.996522	-0.483835	0.874919	0.020503	-0.873044	-0.480905	-0.080774
46667	9.220891	2.115375	-4.546406	-0.004228	4.420913	-0.244750	-0.020879	-0.037752	0.999069	-0.483998	0.874768	0.022941	-0.874820	-0.483069	-0.036536
46668	9.140450	1.693416	-3.946824	-0.246976	4.353711	-0.182425	0.018137	-0.018359	0.999667	-0.481853	0.875900	0.024828	-0.876064	-0.482143	0.007040
46669	9.013163	1.092612	-3.286541	-0.408873	4.253714	-0.107403	0.056026	0.001182	0.998429	-0.478304	0.877815	0.025801	-0.876405	-0.478998	0.049746
46670	8.745779	-0.082578	-1.936167	-0.542619	4.057551	-0.049771	0.091834	0.020053	0.995572	-0.473526	0.880398	0.025946	-0.875979	-0.473812	0.090346
46671	7.753461	-0.710506	1.136962	-0.530342	3.768727	-0.061410	0.125195	0.037290	0.991431	-0.468874	0.882882	0.026001	-0.874347	-0.468112	0.128017
46672	9.845301	-1.237910	1.272400	-0.627456	3.344882	-0.104411	0.154915	0.051884	0.986564	-0.463258	0.885837	0.026156	-0.872578	-0.461086	0.161265
46673	8.755682	-0.916700	-0.127198	-0.443566	2.850280	-0.079812	0.180199	0.064280	0.981528	-0.459325	0.887882	0.026181	-0.869798	-0.455558	0.189520
46674	6.709785	-0.761374	0.234534	-0.352655	2.191183	-0.020856	0.199340	0.074002	0.977132	-0.456232	0.889489	0.025709	-0.867246	-0.450924	0.211072
46675	5.257676	-1.231326	-0.130512	-0.209943	1.490105	0.005486	0.212293	0.080787	0.973861	-0.454486	0.890397	0.025210	-0.865086	-0.447958	0.225742
46676	5.033208	-0.713862	-1.074568	-0.007135	0.819059	0.026684	0.219264	0.084667	0.971985	-0.454491	0.890401	0.024965	-0.863343	-0.447232	0.233714
46677	5.138468	-0.089220	-2.092693	0.076512	0.255161	0.036015	0.221371	0.086173	0.971375	-0.455298	0.889994	0.024807	-0.862380	-0.447756	0.236253
46678	4.545108	-0.194018	-3.139414	0.116437	-0.214060	0.113882	0.219019	0.086202	0.971905	-0.456562	0.889368	0.024005	-0.862312	-0.448992	0.234145
46679	4.229772	-0.336880	-4.585610	0.184500	-0.672365	0.224359	0.212254	0.085197	0.973494	-0.458690	0.888317	0.022267	-0.862874	-0.451258	0.227628
46680	5.556762	-0.330783	-4.875938	0.167492	-1.110492	0.325582	0.201180	0.083039	0.976028	-0.460819	0.887280	0.019497	-0.864391	-0.453695	0.216769
46681	11.567885	1.385544	1.596556	-0.083849	-1.019678	0.354961	0.190770	0.081565	0.978240	-0.460821	0.887351	0.015880	-0.866747	-0.453823	0.206867
46682	16.780084	2.476757	7.787199	-0.602443	-0.488057	0.156460	0.185828	0.080728	0.979260	-0.455893	0.889937	0.013147	-0.870419	-0.448881	0.202178
46683	17.381722	2.166236	5.569920	-0.642508	-0.433711	0.036992	0.181933	0.079122	0.980123	-0.450389	0.892758	0.011533	-0.874099	-0.443535	0.198058
46684	13.771376	-1.541854	4.346779	-0.733549	-0.692258	0.286984	0.174596	0.078614	0.981497	-0.444483	0.895757	0.007321	-0.878607	-0.437537	0.191338
46685	12.128199	-5.002319	1.831737	-0.008920	-1.218517	0.508621	0.161674	0.077836	0.983770	-0.445297	0.895380	0.002337	-0.880666	-0.438447	0.179420
46686	12.481094	-0.592951	-0.421346	1.040192	-1.650132	0.555298	0.144672	0.075448	0.986599	-0.455309	0.890333	-0.001321	-0.878501	-0.449016	0.163158
46687	10.863185	3.926022	-1.971765	1.193821	-1.700203	0.529151	0.127377	0.072426	0.989206	-0.466548	0.884484	-0.004683	-0.875276	-0.460916	0.146453
46688	8.829787	4.449947	-2.872136	0.414800	-1.809775	0.365951	0.109834	0.067249	0.991672	-0.470626	0.882299	-0.007707	-0.875470	-0.465860	0.128556
46689	9.204539	1.930004	-3.025582	-0.349196	-1.822446	0.295135	0.092514	0.061354	0.993819	-0.467871	0.883728	-0.011003	-0.878942	-0.463961	0.110463
46690	9.002475	-0.890615	-2.366258	-0.498527	-1.714768	0.278663	0.076126	0.055869	0.995532	-0.463728	0.885863	-0.014254	-0.882701	-0.460571	0.093345
46691	9.607248	-1.969988	-2.212479	-0.212607	-1.628557	0.303655	0.060373	0.051021	0.996871	-0.462050	0.886683	-0.017398	-0.884796	-0.459554	0.077106
46692	10.079569	-1.471669	-1.789271	0.107556	-1.509924	0.338729	0.045458	0.047048	0.997858	-0.463196	0.886015	-0.020673	-0.885089	-0.461264	0.062069
46693	9.834904	-1.124116	-1.568903	0.253533	-1.397868	0.376150	0.031383	0.043865	0.998544	-0.465577	0.884676	-0.024230	-0.884451	-0.464139	0.048186
46694	10.098083	-0.456766	-1.463903	0.252178	-1.337561	0.378353	0.017807	0.040959	0.999002	-0.467915	0.883334	-0.027876	-0.883594	-0.466952	0.034894
46695	9.913558	0.144989	-1.259149	0.110396	-1.265181	0.351364	0.005019	0.038096	0.999261	-0.468921	0.882686	-0.031296	-0.883226	-0.468417	0.022294
46696	9.883770	0.407810	-1.557412	-0.056310	-1.207290	0.328922	-0.007173	0.035321	0.999350	-0.468436	0.882821	-0.034565	-0.883468	-0.468380	0.010213
46697	9.896864	0.080578	-1.882055	-0.227363	-1.146611	0.306842	-0.018710	0.032614	0.999293	-0.466368	0.883792	-0.037576	-0.884393	-0.466742	-0.001326
46698	9.902321	-0.604875	-2.186161	-0.294462	-1.073164	0.287869	-0.029532	0.030139	0.999109	-0.463710	0.885065	-0.040405	-0.885495	-0.464490	-0.012162
46699	10.111274	-1.025015	-2.435206	-0.251614	-0.991904	0.265859	-0.039520	0.027834	0.998831	-0.461363	0.886171	-0.042949	-0.886331	-0.462521	-0.022180
46700	10.107844	-1.002891	-2.557496	-0.166728	-0.904596	0.254186	-0.048697	0.025885	0.998478	-0.459790	0.886866	-0.045416	-0.886692	-0.461302	-0.031286
46701	10.127203	-0.893234	-2.521276	-0.166307	-0.819243	0.242511	-0.057052	0.024197	0.998078	-0.458157	0.887590	-0.047707	-0.887039	-0.459998	-0.039553
46702	10.109948	-0.899058	-2.307243	-0.188893	-0.742879	0.228381	-0.064674	0.022789	0.997646	-0.456359	0.888397	-0.049878	-0.887442	-0.458511	-0.047056
46703	10.021024	-1.013716	-1.961703	-0.164950	-0.672114	0.208269	-0.071569	0.021495	0.997204	-0.454719	0.889127	-0.051800	-0.887755	-0.457155	-0.053860
46704	10.004869	-0.859708	-1.464244	-0.047436	-0.620353	0.196729	-0.077956	0.020385	0.996748	-0.454169	0.889295	-0.053708	-0.887499	-0.456879	-0.060067
46705	9.927170	-0.660778	-1.039446	0.016113	-0.579476	0.195268	-0.083968	0.019405	0.996280	-0.454118	0.889205	-0.055593	-0.886976	-0.457096	-0.065853
46706	9.812686	-0.868203	-0.707189	0.024888	-0.568139	0.175865	-0.089790	0.018346	0.995792	-0.454204	0.889051	-0.057335	-0.886361	-0.457441	-0.071495
46707	9.731017	-1.303663	-0.622035	0.016288	-0.574199	0.165114	-0.095612	0.017120	0.995271	-0.454161	0.888969	-0.058921	-0.885774	-0.457647	-0.077221
46708	9.764571	-1.697304	-0.510230	0.060746	-0.594264	0.130826	-0.101454	0.015537	0.994719	-0.454588	0.888662	-0.060245	-0.884905	-0.458300	-0.083096
46709	9.590020	-1.666989	-0.385117	0.100042	-0.610102	0.115744	-0.107361	0.013706	0.994126	-0.455325	0.888204	-0.061419	-0.883828	-0.459245	-0.089118
46710	9.429858	-1.275151	-0.021394	0.094924	-0.640783	0.092053	-0.113427	0.011553	0.993479	-0.456081	0.887748	-0.062395	-0.882680	-0.460184	-0.095425
46711	9.378575	-0.868391	0.100469	0.055757	-0.687759	0.072273	-0.119808	0.008975	0.992756	-0.456471	0.887497	-0.063111	-0.881635	-0.460726	-0.102233
46712	9.381903	-0.780923	-0.061125	-0.027393	-0.717275	0.050273	-0.126345	0.006093	0.991968	-0.456186	0.887612	-0.063555	-0.880870	-0.460552	-0.109365
46713	9.489591	-1.173291	-0.518131	-0.106691	-0.743714	0.026202	-0.132997	0.002856	0.991112	-0.455201	0.888111	-0.063642	-0.880400	-0.459620	-0.116816
46714	9.644956	-1.452449	-1.299016	-0.080874	-0.729251	0.007803	-0.139436	-0.000448	0.990231	-0.454498	0.888475	-0.063596	-0.879767	-0.458925	-0.124089
46715	9.611037	-1.229607	-1.931572	-0.034356	-0.713701	-0.006263	-0.145667	-0.003822	0.989326	-0.454199	0.888638	-0.063443	-0.878911	-0.458592	-0.131181
46716	9.678200	-0.991180	-2.273044	-0.070730	-0.692467	-0.015446	-0.151667	-0.007157	0.988406	-0.453620	0.888954	-0.063170	-0.878195	-0.457941	-0.138071
46717	9.699461	-0.787133	-2.437850	-0.112656	-0.667128	-0.040809	-0.157324	-0.010613	0.987490	-0.452689	0.889471	-0.062561	-0.877680	-0.456868	-0.144740
46718	9.751236	-0.477335	-2.344197	-0.152799	-0.652167	-0.050793	-0.162804	-0.014065	0.986558	-0.451449	0.890154	-0.061809	-0.877319	-0.455443	-0.151270
46719	9.811848	-0.444029	-2.023365	-0.238937	-0.642619	-0.059856	-0.168160	-0.017562	0.985603	-0.449443	0.891237	-0.060801	-0.877339	-0.453197	-0.157764
46720	9.869625	-0.583445	-1.741536	-0.239784	-0.621962	-0.070567	-0.173286	-0.021028	0.984647	-0.447480	0.892299	-0.059695	-0.877345	-0.450954	-0.164033
46721	9.521146	-0.661024	-1.442551	-0.192874	-0.620005	-0.077747	-0.178367	-0.024557	0.983658	-0.445915	0.893158	-0.058560	-0.877123	-0.449073	-0.170260
46722	9.519429	-1.056450	-1.197725	-0.165666	-0.654711	-0.082764	-0.183726	-0.028256	0.982571	-0.444632	0.893870	-0.057434	-0.876668	-0.447435	-0.176791
46723	9.614868	-1.052887	-1.019443	-0.057281	-0.660283	-0.088468	-0.189106	-0.032042	0.981434	-0.444289	0.894105	-0.056416	-0.875698	-0.446709	-0.183317
46724	9.474090	-0.802923	-0.772969	-0.023178	-0.675951	-0.096584	-0.194579	-0.035948	0.980228	-0.444292	0.894167	-0.055401	-0.874496	-0.446287	-0.189957
46725	9.243473	-0.930056	-0.470803	-0.046109	-0.720209	-0.108793	-0.200376	-0.040171	0.978895	-0.444104	0.894334	-0.054205	-0.873282	-0.445593	-0.197043
46726	9.241857	-1.279404	-0.043206	-0.044304	-0.788427	-0.133547	-0.206649	-0.044901	0.977384	-0.444010	0.894466	-0.052786	-0.871867	-0.444877	-0.204777
46727	9.270795	-1.629063	0.368053	-0.001876	-0.853394	-0.155478	-0.213375	-0.050118	0.975684	-0.444331	0.894397	-0.051230	-0.870081	-0.444458	-0.213111
46728	9.293755	-1.397289	0.509239	0.120433	-0.916205	-0.171125	-0.220560	-0.055747	0.973779	-0.445770	0.893761	-0.049800	-0.867550	-0.445065	-0.221979
46729	9.001077	-0.608834	0.662919	0.088548	-0.999730	-0.164346	-0.228466	-0.061688	0.971596	-0.446932	0.893259	-0.048379	-0.864902	-0.445291	-0.231649
46730	9.052641	-0.372010	0.450453	0.009273	-1.092503	-0.173867	-0.237110	-0.068127	0.969091	-0.447439	0.893095	-0.046691	-0.862310	-0.444680	-0.242244
46731	9.019675	-0.639335	0.163026	-0.069056	-1.176803	-0.175715	-0.246430	-0.074936	0.966259	-0.447307	0.893257	-0.044804	-0.859761	-0.443256	-0.253645
46732	9.288723	-1.262031	-0.748652	-0.013797	-1.242386	-0.206126	-0.256156	-0.082303	0.963125	-0.447729	0.893147	-0.042757	-0.856693	-0.442171	-0.265634
46733	9.408989	-0.941001	-1.707301	0.112670	-1.281271	-0.215636	-0.266110	-0.089902	0.959741	-0.449304	0.892438	-0.040982	-0.852825	-0.442122	-0.277880
46734	9.124084	-0.433916	-2.679185	0.091202	-1.287184	-0.214224	-0.276084	-0.097527	0.956173	-0.450684	0.891824	-0.039167	-0.848918	-0.441745	-0.290172
46735	8.831387	-0.498919	-3.428620	-0.055537	-1.295142	-0.234210	-0.285969	-0.105334	0.952432	-0.450925	0.891805	-0.036762	-0.845511	-0.439988	-0.302526
46736	8.788656	-0.706566	-3.747593	-0.134602	-1.299992	-0.264767	-0.295733	-0.113423	0.948513	-0.450581	0.892095	-0.033809	-0.842329	-0.437381	-0.314928
46737	8.956693	-1.178856	-3.958402	-0.186372	-1.297092	-0.299069	-0.305261	-0.121754	0.944453	-0.449965	0.892529	-0.030375	-0.839254	-0.434243	-0.327239
46738	9.285113	-1.522168	-4.118917	-0.173122	-1.278121	-0.340456	-0.314422	-0.130348	0.940291	-0.449593	0.892838	-0.026568	-0.836065	-0.431102	-0.339332
46739	9.680940	-1.816975	-4.415153	-0.115562	-1.249303	-0.391384	-0.323055	-0.139221	0.936084	-0.449933	0.892779	-0.022498	-0.832584	-0.428443	-0.351057
46740	9.780302	-1.200169	-4.463077	0.027714	-1.215586	-0.430727	-0.331196	-0.148288	0.931837	-0.451595	0.892030	-0.018554	-0.828475	-0.426958	-0.362403
46741	9.676531	-0.385962	-4.302260	0.066457	-1.208547	-0.462203	-0.339060	-0.157569	0.927475	-0.453755	0.891009	-0.014507	-0.824103	-0.425765	-0.373603
46742	9.793126	-0.590984	-4.028561	0.001448	-1.218171	-0.522422	-0.346685	-0.167420	0.922919	-0.455582	0.890142	-0.009660	-0.819912	-0.423814	-0.384872
46743	10.787989	-1.450318	-3.879442	0.070896	-1.235592	-0.601673	-0.354007	-0.178007	0.918146	-0.458332	0.888770	-0.004406	-0.815236	-0.422376	-0.396217
46744	11.899378	-1.041599	-3.542322	0.350164	-1.239065	-0.644034	-0.361089	-0.188986	0.913181	-0.463503	0.886095	0.000102	-0.809185	-0.423225	-0.407554
46745	12.427702	0.924664	-2.619339	0.561873	-1.282483	-0.633373	-0.368427	-0.200034	0.907881	-0.470413	0.882439	0.003530	-0.801856	-0.425778	-0.419214
46746	12.431050	2.506250	-1.033862	0.440363	-1.387294	-0.606599	-0.376616	-0.211316	0.901946	-0.476212	0.879301	0.007164	-0.794596	-0.426820	-0.431790
46747	12.500553	2.915207	0.608333	0.121940	-1.521598	-0.595855	-0.385767	-0.223032	0.895232	-0.479524	0.877447	0.011968	-0.788188	-0.424669	-0.445440
46748	12.841291	1.688631	1.589350	-0.181151	-1.678071	-0.622550	-0.395943	-0.235597	0.887538	-0.480560	0.876770	0.018355	-0.782490	-0.419248	-0.460370
46749	13.170062	0.933812	2.180151	-0.227799	-1.830751	-0.629269	-0.407125	-0.248732	0.878852	-0.481399	0.876146	0.024960	-0.776212	-0.412916	-0.476441
46750	13.031933	0.785007	2.112162	-0.266722	-1.985607	-0.617997	-0.419478	-0.262295	0.869045	-0.481917	0.875644	0.031671	-0.769282	-0.405522	-0.493718
46751	12.353664	1.020947	1.684394	-0.371122	-2.107526	-0.578175	-0.432748	-0.275808	0.858289	-0.481653	0.875516	0.038495	-0.762063	-0.396738	-0.511721
46752	11.736974	1.085284	0.965889	-0.484286	-2.206641	-0.514876	-0.446992	-0.288981	0.846575	-0.480271	0.875943	0.045422	-0.754677	-0.386282	-0.530329
46753	11.389403	0.981560	0.486800	-0.628809	-2.306233	-0.455728	-0.462026	-0.301739	0.833958	-0.477755	0.876917	0.052599	-0.747183	-0.374126	-0.549316
46754	11.391227	0.272727	-0.521377	-0.721493	-2.324844	-0.431326	-0.477242	-0.314090	0.820724	-0.474444	0.878224	0.060211	-0.739691	-0.360652	-0.568144
46755	11.319631	-0.010245	-1.533646	-0.725550	-2.353348	-0.408628	-0.492504	-0.326005	0.806945	-0.471244	0.879403	0.067663	-0.731689	-0.346944	-0.586738
46756	11.511990	0.301183	-2.239154	-0.675385	-2.425986	-0.320255	-0.508628	-0.337095	0.792253	-0.467963	0.880622	0.074262	-0.722709	-0.332973	-0.605658
46757	11.890596	0.136489	-3.020627	-0.579545	-2.461252	-0.197129	-0.525237	-0.346868	0.777052	-0.465001	0.881752	0.079294	-0.712671	-0.319681	-0.624422
46758	11.765671	0.503982	-4.290427	-0.303396	-2.432461	-0.098034	-0.541963	-0.355396	0.761557	-0.463407	0.882345	0.081980	-0.701092	-0.308481	-0.642892
46759	11.244643	1.261387	-5.692968	-0.248851	-2.405310	-0.014451	-0.558465	-0.362829	0.745971	-0.461954	0.882953	0.083617	-0.688996	-0.297907	-0.660709
46760	10.537122	1.852945	-5.996391	-0.366134	-2.323699	0.032630	-0.574479	-0.369350	0.730448	-0.459296	0.884127	0.085834	-0.677511	-0.286182	-0.677553
46761	9.678340	1.701737	-6.776503	-0.452664	-2.169245	0.045552	-0.589115	-0.375050	0.715738	-0.456190	0.885470	0.088507	-0.666960	-0.274372	-0.692738
46762	8.811387	1.786211	-6.876802	-0.507088	-1.938027	0.074678	-0.602277	-0.379615	0.702250	-0.452415	0.887098	0.091530	-0.657711	-0.262582	-0.706022
46763	7.642234	1.723048	-7.675187	-0.557086	-1.656059	0.120239	-0.613492	-0.382837	0.690697	-0.448242	0.888897	0.094556	-0.650159	-0.251590	-0.716935
46764	6.197617	1.249164	-9.887816	-0.641997	-1.412891	0.138011	-0.623238	-0.385109	0.680636	-0.443263	0.890991	0.098246	-0.644276	-0.240470	-0.726004
46765	4.781785	-0.216847	-9.797049	-0.746125	-1.211971	0.089627	-0.631267	-0.387195	0.671999	-0.438103	0.893006	0.102988	-0.639975	-0.229392	-0.733356
46766	5.603799	-2.183247	-6.956471	-0.698929	-1.057274	0.035443	-0.638155	-0.389272	0.664248	-0.433448	0.894696	0.107902	-0.636303	-0.219059	-0.739683
46767	7.051881	-3.908322	-6.127933	-0.138012	-0.702088	0.031106	-0.642596	-0.390563	0.659190	-0.432572	0.895033	0.108614	-0.632417	-0.215352	-0.744091
46768	7.844258	-4.024556	-6.488173	0.687019	-0.194454	0.044723	-0.644003	-0.390610	0.657788	-0.436645	0.893695	0.103203	-0.628174	-0.220757	-0.746100
46769	7.447745	-2.423166	-7.158918	1.344180	0.328180	0.052244	-0.642016	-0.389444	0.660415	-0.444961	0.890739	0.092701	-0.624360	-0.234344	-0.745156
46770	6.564469	-0.841142	-7.361405	1.557128	0.779217	0.073794	-0.637477	-0.386919	0.666271	-0.454225	0.887230	0.080640	-0.622336	-0.251231	-0.741337
46771	6.094790	-0.120675	-7.220731	1.513423	1.140721	0.092658	-0.630634	-0.383173	0.674892	-0.463308	0.883530	0.068703	-0.622613	-0.269356	-0.734711
46772	6.383048	0.046097	-7.074960	1.319228	1.433064	0.074184	-0.622024	-0.378558	0.685405	-0.471105	0.880131	0.058567	-0.625417	-0.286468	-0.725803
46773	6.941515	-0.014685	-6.759480	1.172760	1.727305	0.012427	-0.611069	-0.373386	0.697981	-0.478642	0.876591	0.049891	-0.630473	-0.303596	-0.714377
46774	7.394013	0.172795	-6.507643	1.018453	2.041193	-0.100607	-0.597624	-0.367922	0.712375	-0.485739	0.873026	0.043399	-0.637890	-0.320092	-0.700456
46775	7.464949	0.096807	-6.654326	0.914646	2.379745	-0.205604	-0.581157	-0.361913	0.728886	-0.493079	0.869136	0.038408	-0.647402	-0.337077	-0.683556
46776	7.286776	0.144935	-6.556732	0.891128	2.697637	-0.287492	-0.562100	-0.355098	0.746960	-0.500570	0.865007	0.034530	-0.658387	-0.354496	-0.663972
46777	7.000982	0.069834	-6.543375	0.906093	2.981079	-0.346190	-0.540382	-0.347240	0.766428	-0.508746	0.860355	0.031096	-0.670198	-0.373113	-0.641577
46778	6.820448	-0.045142	-6.653139	0.974918	3.246456	-0.375361	-0.516484	-0.338050	0.786745	-0.517351	0.855319	0.027883	-0.682343	-0.392622	-0.616649
46779	6.632909	0.041627	-6.577996	1.070019	3.495954	-0.397635	-0.490179	-0.327324	0.807826	-0.526961	0.849537	0.024471	-0.694289	-0.413698	-0.588912
46780	6.472699	0.254494	-6.375150	1.170180	3.724921	-0.405839	-0.461924	-0.314959	0.829112	-0.537114	0.843246	0.021086	-0.705787	-0.435587	-0.558685
46781	6.400947	0.696872	-6.288195	1.248249	3.938123	-0.421758	-0.431471	-0.300852	0.850483	-0.548108	0.836220	0.017738	-0.716527	-0.458503	-0.525704
46782	6.452686	1.138641	-6.095742	1.279837	4.118773	-0.434677	-0.399324	-0.285134	0.871343	-0.559176	0.828913	0.014987	-0.726541	-0.481250	-0.490445
46783	6.560185	1.637766	-5.887866	1.240812	4.278329	-0.444939	-0.365381	-0.267674	0.891542	-0.570165	0.821428	0.012952	-0.735804	-0.503594	-0.452753
46784	6.760100	2.027667	-5.749928	1.133083	4.422162	-0.447043	-0.330052	-0.248617	0.910634	-0.580135	0.814431	0.012087	-0.744654	-0.524301	-0.413037
46785	6.922682	2.217521	-5.597431	1.006602	4.549293	-0.437261	-0.293297	-0.227796	0.928486	-0.589226	0.807878	0.012077	-0.752854	-0.543546	-0.371172
46786	7.212053	2.351394	-5.507624	0.857445	4.668939	-0.414534	-0.255483	-0.205371	0.944749	-0.596878	0.802227	0.012979	-0.760569	-0.560584	-0.327537
46787	7.522527	2.396080	-5.363394	0.699380	4.786449	-0.378414	-0.216518	-0.181121	0.959331	-0.603279	0.797400	0.014391	-0.767577	-0.575628	-0.281918
46788	7.855771	2.353007	-5.360814	0.519017	4.887729	-0.345759	-0.176723	-0.155446	0.971908	-0.607984	0.793780	0.016406	-0.774031	-0.588005	-0.234788
46789	8.323874	2.038573	-5.154351	0.297830	4.967659	-0.315467	-0.136094	-0.128416	0.982338	-0.610928	0.791462	0.018825	-0.779901	-0.597576	-0.186166
46790	8.868495	1.627801	-4.766348	0.120198	5.023374	-0.296998	-0.094947	-0.100588	0.990387	-0.612233	0.790383	0.021581	-0.784956	-0.604299	-0.136628
46791	9.452491	1.020265	-4.209291	-0.075020	5.050152	-0.292414	-0.053315	-0.072208	0.995964	-0.611971	0.790499	0.024552	-0.789081	-0.608192	-0.086335
46792	10.184523	1.194135	-4.019343	-0.149773	5.052388	-0.274427	-0.011678	-0.043616	0.998980	-0.610896	0.791236	0.027404	-0.791625	-0.609953	-0.035885
46793	10.985720	1.689873	-3.543295	-0.215238	5.010422	-0.234748	0.029521	-0.014851	0.999454	-0.609261	0.792411	0.029770	-0.792420	-0.609807	0.014345
46794	11.275346	1.538816	-1.636136	-0.365420	4.896810	-0.195219	0.069532	0.013381	0.997490	-0.606287	0.794618	0.031603	-0.792201	-0.606962	0.063364
46795	12.384363	1.529766	4.577624	-0.574619	4.569781	-0.222025	0.107134	0.039269	0.993469	-0.601611	0.798094	0.033330	-0.791573	-0.601252	0.109128
46796	11.812530	-0.775108	0.557739	-0.701509	4.029383	-0.332585	0.141027	0.060668	0.988145	-0.595663	0.802438	0.035746	-0.790757	-0.593643	0.149303
46797	9.358530	-0.768414	1.853480	-0.605045	3.194672	-0.318418	0.168222	0.077017	0.982736	-0.590465	0.806173	0.037894	-0.789337	-0.586646	0.181091
46798	7.024458	-1.531084	2.865738	-0.424328	2.323749	-0.299803	0.188328	0.088150	0.978142	-0.586600	0.808886	0.040045	-0.787676	-0.581320	0.204045
46799	6.236887	-1.596609	2.686018	-0.141149	1.475936	-0.244899	0.201433	0.094800	0.974904	-0.585097	0.809868	0.042140	-0.785549	-0.578901	0.218602
46800	6.293571	0.408529	2.342918	0.125023	0.788978	-0.112331	0.208297	0.098443	0.973099	-0.585862	0.809241	0.043541	-0.783185	-0.579171	0.226237
46801	5.838356	2.516420	1.583639	0.088549	0.209332	0.036144	0.209783	0.100030	0.972618	-0.586722	0.808625	0.043386	-0.782143	-0.579758	0.228326
46802	5.255532	2.153812	0.801790	-0.295996	-0.350766	0.181904	0.205988	0.099456	0.973487	-0.584796	0.810145	0.040973	-0.784591	-0.577732	0.225041
46803	5.859102	0.378884	-1.366064	-0.491226	-0.823911	0.279167	0.197939	0.097040	0.975399	-0.581576	0.812642	0.037172	-0.789043	-0.574626	0.217290
46804	6.710098	-0.588094	-3.653700	-0.405507	-1.142469	0.296250	0.187197	0.092881	0.977921	-0.578953	0.814675	0.033449	-0.793581	-0.572432	0.206279
46805	6.823367	-0.835711	-5.410801	-0.123578	-1.313007	0.298057	0.175091	0.087839	0.980626	-0.578578	0.815064	0.030296	-0.796612	-0.572673	0.193532
46806	6.230873	-0.818383	-6.484459	0.122928	-1.397440	0.286932	0.162302	0.082142	0.983316	-0.580059	0.814102	0.027736	-0.798242	-0.574883	0.179778
46807	6.517840	-0.901974	-6.116708	0.314132	-1.524090	0.260416	0.148667	0.075486	0.986002	-0.583017	0.812052	0.025738	-0.798742	-0.578682	0.164735
46808	11.005273	0.430771	-0.116493	0.371097	-1.521504	0.204353	0.135338	0.068290	0.988443	-0.586288	0.809737	0.024331	-0.798718	-0.582805	0.149626
46809	14.900223	2.581519	3.034451	0.339205	-1.319372	0.046134	0.124574	0.060948	0.990337	-0.589087	0.807702	0.024393	-0.798410	-0.586433	0.136523
46810	16.162211	1.552195	1.649403	0.030589	-1.366979	-0.059495	0.114019	0.052428	0.992094	-0.589277	0.807542	0.025049	-0.799845	-0.587475	0.122969
46811	14.240882	-0.531804	-1.038189	0.169579	-1.482608	0.134156	0.101411	0.044773	0.993837	-0.590802	0.806461	0.023953	-0.800418	-0.589589	0.108236
46812	11.621157	-0.253707	-2.815546	0.806614	-1.526320	0.400228	0.086859	0.038922	0.995460	-0.597639	0.801495	0.020809	-0.797046	-0.596733	0.092878
46813	9.523173	3.436388	-3.727360	1.031873	-1.515662	0.471263	0.072021	0.033550	0.996839	-0.606226	0.795110	0.017039	-0.792025	-0.605536	0.077604
46814	8.368811	4.170056	-4.370926	0.183446	-1.725350	0.391469	0.055997	0.026179	0.998088	-0.607948	0.793866	0.013286	-0.792000	-0.607529	0.060370
46815	9.707075	1.954685	-5.068574	-0.406436	-1.787216	0.363880	0.039644	0.018178	0.999048	-0.604873	0.796265	0.009514	-0.795334	-0.604675	0.042563
46816	9.756375	0.635651	-4.150058	-0.603286	-1.696041	0.326443	0.024171	0.010550	0.999652	-0.600186	0.799837	0.006071	-0.799495	-0.600124	0.025665
46817	10.494755	-0.031098	-3.537993	-0.629214	-1.598337	0.217971	0.010088	0.002657	0.999946	-0.595132	0.803618	0.003868	-0.803564	-0.595139	0.009688
46818	10.521851	-1.589417	-3.267939	-0.591980	-1.428517	0.177361	-0.002450	-0.004398	0.999987	-0.590392	0.807114	0.002103	-0.807113	-0.590379	-0.004574
46819	10.376405	-2.773956	-2.707453	-0.157825	-1.285305	0.190325	-0.013929	-0.010535	0.999847	-0.589045	0.808101	0.000309	-0.807981	-0.588950	-0.017461
46820	10.183107	-1.877110	-2.403014	0.346243	-1.138623	0.223267	-0.024416	-0.015471	0.999582	-0.591816	0.806071	-0.001980	-0.805703	-0.591617	-0.028837
46821	10.083402	-0.616775	-2.184087	0.508780	-1.037497	0.229786	-0.034106	-0.019870	0.999221	-0.595786	0.803131	-0.004365	-0.802419	-0.595471	-0.039230
46822	9.902332	0.314882	-1.553554	0.463724	-0.993073	0.229079	-0.043409	-0.023980	0.998770	-0.599432	0.800397	-0.006836	-0.799248	-0.598991	-0.049119
46823	9.712035	0.938207	-0.925755	0.317848	-0.973789	0.217883	-0.052476	-0.028175	0.998225	-0.601806	0.798590	-0.009097	-0.796916	-0.601215	-0.058863
46824	9.640174	0.776332	-0.582166	0.121072	-0.994650	0.204342	-0.061609	-0.032543	0.997570	-0.602675	0.797909	-0.011191	-0.795605	-0.601899	-0.068771
46825	9.764011	0.256246	-0.436803	-0.004520	-1.000835	0.197670	-0.070746	-0.037082	0.996805	-0.602446	0.798053	-0.013069	-0.795018	-0.601446	-0.078799
46826	9.814021	-0.424287	-0.738731	-0.099700	-0.986460	0.194283	-0.079739	-0.041475	0.995953	-0.601529	0.798712	-0.014899	-0.794862	-0.600282	-0.088637
46827	9.736600	-1.052965	-1.270430	-0.136442	-0.953374	0.188038	-0.088435	-0.045779	0.995029	-0.600226	0.799659	-0.016556	-0.794926	-0.598707	-0.098195
46828	9.885466	-1.088004	-1.567497	-0.137043	-0.933967	0.164519	-0.096827	-0.050064	0.994041	-0.599006	0.800542	-0.018029	-0.794869	-0.597182	-0.107503
46829	9.901618	-0.845357	-1.713868	-0.123145	-0.907536	0.156702	-0.104967	-0.054308	0.992992	-0.597812	0.801402	-0.019364	-0.794734	-0.595655	-0.116587
46830	9.826966	-1.018124	-1.922325	-0.185954	-0.884094	0.122781	-0.112709	-0.058598	0.991899	-0.596223	0.802562	-0.020336	-0.794868	-0.593685	-0.125393
46831	9.872617	-1.014863	-2.196449	-0.099490	-0.850705	0.085546	-0.119971	-0.063039	0.990774	-0.595278	0.803246	-0.020974	-0.794513	-0.592302	-0.133892
46832	9.856694	-1.086833	-2.393098	-0.046852	-0.818787	0.065934	-0.126847	-0.067372	0.989632	-0.594846	0.803551	-0.021541	-0.793768	-0.591411	-0.142004
46833	9.749937	-1.013195	-2.514198	0.019285	-0.775998	0.040008	-0.133235	-0.071719	0.988486	-0.594894	0.803506	-0.021886	-0.792685	-0.590960	-0.149721
46834	9.719140	-0.791951	-2.540486	0.042610	-0.737142	0.024571	-0.139202	-0.075894	0.987351	-0.595220	0.803257	-0.022174	-0.791414	-0.590778	-0.156989
46835	9.796584	-0.719110	-2.453954	0.029846	-0.707027	0.003586	-0.144812	-0.080121	0.986210	-0.595398	0.803125	-0.022180	-0.790273	-0.590399	-0.164006
46836	9.861698	-0.458295	-2.385053	0.028131	-0.677251	-0.011858	-0.150072	-0.084230	0.985081	-0.595660	0.802933	-0.022090	-0.789093	-0.590088	-0.170670
46837	9.781250	-0.083567	-2.379270	0.029500	-0.646226	-0.018340	-0.155058	-0.088269	0.983954	-0.595866	0.802785	-0.021884	-0.787972	-0.589698	-0.177075
46838	9.682417	-0.041391	-2.206826	-0.032544	-0.634569	-0.031150	-0.159852	-0.092275	0.982819	-0.595681	0.802933	-0.021499	-0.787154	-0.588884	-0.183317
46839	9.623548	-0.335683	-1.987942	-0.052211	-0.630840	-0.046768	-0.164538	-0.096442	0.981645	-0.595291	0.803239	-0.020865	-0.786483	-0.587797	-0.189575
46840	9.552729	-0.449229	-1.846955	-0.022796	-0.636260	-0.054705	-0.169196	-0.100636	0.980431	-0.595225	0.803303	-0.020265	-0.785544	-0.587006	-0.195817
46841	9.604729	-0.342474	-1.847995	0.022422	-0.638925	-0.061537	-0.173847	-0.104956	0.979164	-0.595453	0.803150	-0.019631	-0.784355	-0.586458	-0.202122
46842	9.463840	0.049307	-1.746680	0.027422	-0.637961	-0.056518	-0.178492	-0.109167	0.977867	-0.595790	0.802913	-0.019115	-0.783055	-0.586015	-0.208354
46843	9.303061	-0.013680	-1.588333	-0.031762	-0.654309	-0.054136	-0.183292	-0.113508	0.976483	-0.595586	0.803079	-0.018444	-0.782100	-0.584961	-0.214802
46844	9.252852	-0.405271	-1.589623	-0.032536	-0.682348	-0.079385	-0.188134	-0.118151	0.975011	-0.595502	0.803161	-0.017579	-0.781014	-0.583928	-0.221461
46845	9.229573	-0.704852	-1.442572	-0.008282	-0.710504	-0.085483	-0.193172	-0.123055	0.973418	-0.595551	0.803145	-0.016655	-0.779746	-0.582937	-0.228430
46846	9.247557	-0.557761	-1.423886	0.068382	-0.737265	-0.096235	-0.198322	-0.128142	0.971724	-0.596295	0.802609	-0.015859	-0.777882	-0.582579	-0.235585
46847	9.157999	-0.318364	-1.312906	0.068662	-0.775056	-0.097795	-0.203761	-0.133507	0.969875	-0.596981	0.802115	-0.015006	-0.775948	-0.582054	-0.243141
46848	9.252201	-0.029751	-1.178713	0.041326	-0.816747	-0.099490	-0.209478	-0.139073	0.967873	-0.597530	0.801722	-0.014125	-0.774001	-0.581292	-0.251044
46849	9.146338	-0.271042	-0.964597	-0.022776	-0.872052	-0.105784	-0.215588	-0.145046	0.965652	-0.597540	0.801734	-0.012980	-0.772313	-0.579814	-0.259515
46850	9.155256	-0.747198	-0.657785	-0.030055	-0.944557	-0.132251	-0.222066	-0.151593	0.963175	-0.597621	0.801695	-0.011607	-0.770413	-0.578191	-0.268624
46851	9.285984	-0.810710	-0.479359	0.025952	-1.022954	-0.146585	-0.229055	-0.158730	0.960385	-0.598122	0.801340	-0.010210	-0.767974	-0.576766	-0.278491
46852	9.181823	-0.726352	-0.365000	0.048427	-1.104271	-0.157486	-0.236559	-0.166371	0.957267	-0.598883	0.800788	-0.008820	-0.765101	-0.575377	-0.289070
46853	9.369280	-0.601003	-0.400164	0.061840	-1.199152	-0.171039	-0.244682	-0.174675	0.953740	-0.599750	0.800154	-0.007319	-0.761860	-0.573796	-0.300544
46854	9.330261	-0.125829	-0.650760	0.064196	-1.279541	-0.180029	-0.253308	-0.183464	0.949829	-0.600709	0.799447	-0.005785	-0.758276	-0.572037	-0.312715
46855	9.392855	-0.129119	-0.842288	0.030182	-1.382367	-0.195820	-0.262576	-0.192957	0.945421	-0.601437	0.798910	-0.003985	-0.754538	-0.569658	-0.325826
46856	9.561045	0.328367	-0.936813	0.045993	-1.471200	-0.203169	-0.272404	-0.202960	0.940533	-0.602351	0.798229	-0.002206	-0.750313	-0.567132	-0.339694
46857	9.572903	0.129536	-0.870703	-0.007373	-1.577528	-0.221987	-0.282852	-0.213683	0.935058	-0.602915	0.797805	-0.000062	-0.745981	-0.563778	-0.354493
46858	9.566388	-0.218290	-0.297860	0.086554	-1.705310	-0.239118	-0.294066	-0.225196	0.928877	-0.604272	0.796776	0.001868	-0.740527	-0.560745	-0.370384
46859	9.738553	-0.093773	0.251231	0.233822	-1.882018	-0.265847	-0.306303	-0.237865	0.921737	-0.606809	0.794840	0.003469	-0.733459	-0.558255	-0.387801
46860	10.113695	0.155933	1.052277	0.314768	-2.064539	-0.294357	-0.319550	-0.251719	0.913524	-0.610050	0.792348	0.004934	-0.725070	-0.555718	-0.406756
46861	10.363039	0.349630	1.894593	0.387631	-2.240451	-0.318597	-0.333702	-0.266674	0.904173	-0.613916	0.789347	0.006230	-0.715367	-0.553007	-0.427122
46862	10.957558	0.275960	2.484431	0.421877	-2.469337	-0.334584	-0.349152	-0.282941	0.893329	-0.618077	0.786082	0.007401	-0.704325	-0.549563	-0.449341
46863	12.226703	0.952377	2.472847	0.505304	-2.680573	-0.311061	-0.365880	-0.300065	0.880961	-0.622774	0.782362	0.007832	-0.691581	-0.545774	-0.473123
46864	13.074627	1.807843	1.412145	0.493921	-2.833616	-0.253682	-0.383679	-0.317460	0.867185	-0.627132	0.778875	0.007662	-0.677861	-0.540900	-0.497928
46865	13.439489	2.352490	-0.290970	0.328215	-2.936375	-0.190295	-0.402114	-0.334719	0.852213	-0.630164	0.776425	0.007611	-0.664227	-0.533973	-0.523140
46866	13.423111	2.686331	-2.504242	0.043287	-2.965754	-0.142134	-0.420715	-0.351532	0.836316	-0.631059	0.775687	0.008588	-0.651739	-0.524151	-0.548180
46867	12.719458	2.759620	-4.408661	-0.415358	-2.933131	-0.125396	-0.438806	-0.367678	0.819916	-0.629005	0.777310	0.011938	-0.641718	-0.510493	-0.572359
46868	12.288479	1.925101	-6.062658	-0.920478	-2.878519	-0.144683	-0.456252	-0.383260	0.803085	-0.623804	0.781362	0.018495	-0.634589	-0.492529	-0.595577
46869	12.244365	1.007080	-7.059460	-1.319014	-2.764547	-0.163513	-0.472622	-0.397873	0.786337	-0.616318	0.787007	0.027778	-0.629905	-0.471505	-0.617173
46870	11.848010	-0.082438	-7.364196	-1.619108	-2.599127	-0.193925	-0.487758	-0.411376	0.769975	-0.607097	0.793648	0.039445	-0.627316	-0.448210	-0.636853
46871	11.424552	-1.390656	-7.656614	-1.742134	-2.411088	-0.239059	-0.501326	-0.423810	0.754359	-0.597464	0.800176	0.052493	-0.625867	-0.424387	-0.654360
46872	11.193631	-3.073905	-8.305549	-1.680972	-2.269772	-0.243617	-0.514053	-0.435154	0.739182	-0.588220	0.806048	0.065450	-0.624297	-0.401157	-0.670318
46873	10.904934	-4.035665	-8.368898	-1.310367	-2.144030	-0.203172	-0.526103	-0.445195	0.724580	-0.581238	0.810198	0.075775	-0.620788	-0.381288	-0.685012
46874	10.372420	-3.912272	-8.113818	-0.726853	-2.038119	-0.158696	-0.537752	-0.454119	0.710351	-0.577621	0.812181	0.081946	-0.614147	-0.366247	-0.699061
46875	9.644286	-2.905010	-7.701607	-0.176294	-1.879753	-0.129881	-0.548338	-0.461981	0.697065	-0.577399	0.812126	0.084034	-0.604927	-0.356405	-0.712067
46876	9.050247	-1.603729	-7.134513	0.229312	-1.716350	-0.089596	-0.558092	-0.468792	0.684666	-0.579297	0.810879	0.083007	-0.594094	-0.350300	-0.724115
46877	8.704239	-0.378701	-6.887610	0.467699	-1.489217	-0.045160	-0.566461	-0.474371	0.673865	-0.582469	0.808925	0.079815	-0.582968	-0.347293	-0.734531
46878	8.080059	0.903958	-5.838307	0.602171	-1.235280	0.011023	-0.573645	-0.478585	0.664747	-0.585913	0.806869	0.075291	-0.572397	-0.346294	-0.743265
46879	7.214918	1.998236	-6.073646	0.608015	-0.974611	0.090369	-0.579570	-0.481258	0.657639	-0.589017	0.805078	0.070060	-0.563168	-0.346756	-0.750068
46880	5.901321	2.663080	-8.371330	0.407961	-0.833789	0.146931	-0.585084	-0.482982	0.651463	-0.590471	0.804353	0.066025	-0.555895	-0.346041	-0.755802
46881	4.417282	1.263281	-7.923099	0.018574	-0.729581	0.116303	-0.589675	-0.484587	0.646110	-0.590055	0.804739	0.065044	-0.551469	-0.342886	-0.760467
46882	5.945320	-1.091770	-4.887047	-0.092951	-0.614342	0.056397	-0.593369	-0.486246	0.641465	-0.589238	0.805309	0.065386	-0.548372	-0.339178	-0.764360
46883	8.489109	-3.006729	-3.962067	0.446855	-0.240208	0.052000	-0.594854	-0.486675	0.639762	-0.591534	0.803927	0.061547	-0.544276	-0.341830	-0.766105
46884	9.255092	-2.631086	-4.864457	1.277668	0.304688	0.054671	-0.593513	-0.485195	0.642128	-0.598154	0.799730	0.051413	-0.538474	-0.353577	-0.764872
46885	8.102777	-0.585194	-5.860939	1.922574	0.815665	0.058108	-0.589346	-0.481798	0.648492	-0.608289	0.792887	0.036267	-0.531654	-0.373096	-0.760357
46886	6.723332	1.467317	-6.395086	1.939031	1.163607	0.097057	-0.583767	-0.476586	0.657330	-0.618007	0.785894	0.020955	-0.526578	-0.394001	-0.753312
46887	6.141539	2.397309	-6.310039	1.642772	1.421111	0.145009	-0.577044	-0.469734	0.668109	-0.625992	0.779792	0.007588	-0.524551	-0.413853	-0.744024
46888	6.339643	2.770345	-6.149607	1.149718	1.635366	0.147432	-0.569357	-0.461700	0.680195	-0.631217	0.775604	-0.001900	-0.526685	-0.430433	-0.733028
46889	7.135287	2.533551	-6.060015	0.687664	1.870319	0.092630	-0.559886	-0.452815	0.693892	-0.634518	0.772870	-0.007625	-0.532836	-0.444556	-0.720039
46890	7.522378	1.862373	-6.154277	0.307407	2.131188	0.021905	-0.548546	-0.443060	0.709080	-0.636077	0.771561	-0.009971	-0.542682	-0.456499	-0.705057
46891	7.392464	1.095267	-6.460418	0.097370	2.401048	-0.028397	-0.535042	-0.432185	0.725911	-0.636939	0.770843	-0.010527	-0.555013	-0.467993	-0.687708
46892	7.176266	0.447182	-6.581568	0.035826	2.619480	-0.054790	-0.519957	-0.420213	0.743684	-0.637456	0.770417	-0.010367	-0.568590	-0.479456	-0.668451
46893	7.463920	-0.338664	-6.788122	0.141974	2.841402	-0.080438	-0.502953	-0.407018	0.762480	-0.638853	0.769254	-0.010771	-0.582156	-0.492530	-0.646923
46894	7.751973	-0.866719	-6.865936	0.371085	3.062199	-0.107885	-0.484220	-0.392547	0.781945	-0.641596	0.766944	-0.012293	-0.594882	-0.507645	-0.623227
46895	7.843946	-0.991348	-6.927595	0.681988	3.287192	-0.130868	-0.463501	-0.376543	0.802111	-0.646479	0.762775	-0.015491	-0.605997	-0.525728	-0.596974
46896	7.819419	-0.631532	-6.905985	0.959555	3.497815	-0.170862	-0.441006	-0.359113	0.822528	-0.653139	0.756982	-0.019691	-0.615567	-0.545909	-0.568384
46897	7.716392	-0.224268	-6.647483	1.149519	3.677535	-0.227140	-0.416592	-0.340313	0.842994	-0.661400	0.749642	-0.024224	-0.623700	-0.567647	-0.537378
46898	7.726889	0.196117	-6.500862	1.240295	3.827918	-0.288829	-0.390634	-0.320329	0.863015	-0.670373	0.741488	-0.028215	-0.630877	-0.589564	-0.504390
46899	7.742458	0.512861	-6.382235	1.233463	3.970199	-0.340118	-0.363036	-0.298952	0.882515	-0.679629	0.732887	-0.031310	-0.637424	-0.611149	-0.469241
46900	7.716387	0.718718	-6.230170	1.174145	4.094033	-0.374762	-0.334224	-0.276256	0.901098	-0.688483	0.724490	-0.033252	-0.643650	-0.631504	-0.432339
46901	7.697316	0.769770	-6.006549	1.066942	4.207505	-0.395715	-0.304162	-0.252080	0.918663	-0.696782	0.716472	-0.034100	-0.649600	-0.650480	-0.393568
46902	7.820530	0.837180	-5.754571	0.950895	4.292000	-0.412681	-0.273243	-0.226744	0.934840	-0.704203	0.709193	-0.033816	-0.655314	-0.667557	-0.353456
46903	7.984969	0.961608	-5.577313	0.806003	4.371820	-0.419913	-0.241400	-0.200132	0.949565	-0.710707	0.702734	-0.032568	-0.660774	-0.682724	-0.311875
46904	8.236735	1.058929	-5.224097	0.631482	4.443959	-0.423855	-0.208864	-0.172484	0.962614	-0.715875	0.697569	-0.030335	-0.666257	-0.695447	-0.269174
46905	8.408296	1.360564	-4.992159	0.411223	4.509531	-0.422097	-0.175569	-0.143772	0.973912	-0.719539	0.693917	-0.027275	-0.671893	-0.705556	-0.225280
46906	8.462195	1.461302	-4.629568	0.133164	4.557117	-0.405197	-0.141863	-0.114278	0.983268	-0.721103	0.692427	-0.023562	-0.678149	-0.712380	-0.180636
46907	8.541967	1.337956	-4.211136	-0.162535	4.579971	-0.388067	-0.107766	-0.084208	0.990604	-0.720561	0.693118	-0.019469	-0.684966	-0.715888	-0.135371
46908	8.759081	1.190084	-3.933568	-0.413018	4.588996	-0.357462	-0.073571	-0.053837	0.995836	-0.718061	0.695809	-0.015433	-0.692080	-0.716207	-0.089850
46909	9.186568	1.260659	-3.877206	-0.650217	4.559232	-0.326625	-0.039439	-0.023485	0.998946	-0.713786	0.700266	-0.011717	-0.699253	-0.713496	-0.044381
46910	9.684644	1.647075	-3.802828	-0.866324	4.537909	-0.254881	-0.005706	0.006965	0.999959	-0.707773	0.706383	-0.008959	-0.706417	-0.707795	0.000898
46911	9.792143	1.522021	-2.829905	-1.153194	4.469253	-0.183487	0.027397	0.037110	0.998936	-0.699606	0.714491	-0.007356	-0.714003	-0.698660	0.045538
46912	9.574576	1.036731	-1.316551	-1.362429	4.322279	-0.148868	0.059482	0.065971	0.996047	-0.689779	0.723989	-0.006760	-0.721573	-0.686650	0.088570
46913	10.227812	0.330950	-1.439563	-1.565971	4.101599	-0.149397	0.090324	0.092747	0.991584	-0.678335	0.734720	-0.006931	-0.729180	-0.672000	0.129276
46914	11.398059	0.243008	1.004069	-1.740634	3.869992	-0.135623	0.119626	0.117412	0.985852	-0.665449	0.746398	-0.008146	-0.736795	-0.655060	0.167420
46915	9.324761	-0.464676	-0.189876	-1.615442	3.419086	-0.136234	0.145884	0.138493	0.979560	-0.653336	0.757006	-0.009727	-0.742879	-0.638563	0.200918
46916	7.801880	-0.475113	0.880793	-1.538490	2.750586	-0.119500	0.167190	0.154918	0.973677	-0.641692	0.766871	-0.011829	-0.748517	-0.622824	0.227623
46917	6.534643	-0.845165	1.318715	-1.280764	2.086933	-0.112286	0.183632	0.166896	0.968723	-0.631896	0.774932	-0.013726	-0.752985	-0.609612	0.247763
46918	6.204055	-0.431330	0.932530	-0.829178	1.473702	-0.085549	0.195304	0.175135	0.964979	-0.625496	0.780083	-0.014983	-0.755388	-0.600664	0.261899
46919	5.784143	0.569462	1.270941	-0.502962	0.893605	-0.037051	0.202347	0.180171	0.962598	-0.621636	0.783144	-0.015908	-0.756719	-0.595167	0.270468
46920	5.476364	0.285984	0.935742	-0.421142	0.325734	0.019287	0.204715	0.182240	0.961707	-0.618501	0.785596	-0.017210	-0.758649	-0.591293	0.273539
46921	5.630329	-0.806552	-0.139894	-0.294607	-0.215458	0.030078	0.202949	0.181182	0.962281	-0.616336	0.787272	-0.018243	-0.760882	-0.589386	0.271445
46922	6.176473	-1.612432	-1.738070	-0.013275	-0.681513	0.030020	0.197592	0.177384	0.964102	-0.616311	0.787284	-0.018539	-0.762311	-0.590524	0.264885
46923	6.619493	-1.303316	-3.106163	0.280789	-1.053552	0.037881	0.189379	0.171411	0.966827	-0.618534	0.785550	-0.018116	-0.762596	-0.594584	0.254790
46924	6.679055	-0.508080	-4.460884	0.418732	-1.352633	0.085723	0.178552	0.163989	0.970169	-0.621901	0.782892	-0.017877	-0.762469	-0.600157	0.241771
46925	7.009303	-0.099129	-5.133247	0.308052	-1.610541	0.164734	0.165286	0.155522	0.973906	-0.624526	0.780780	-0.018691	-0.763314	-0.605140	0.226180
46926	9.735887	0.820537	-2.658013	0.016488	-1.614763	0.242194	0.151447	0.147606	0.977382	-0.625053	0.780300	-0.020990	-0.765750	-0.607737	0.210435
46927	12.803432	1.372926	1.838293	-0.547005	-1.202474	0.206362	0.140967	0.141851	0.979799	-0.621121	0.783346	-0.024047	-0.770933	-0.605184	0.198532
46928	14.385117	0.375691	4.514649	-0.976212	-1.030775	0.145175	0.132104	0.136772	0.981755	-0.613774	0.789008	-0.027330	-0.778350	-0.598965	0.188178
46929	15.362018	-0.897317	2.969704	-0.942224	-1.142651	0.087327	0.122683	0.130573	0.983819	-0.606484	0.794536	-0.029823	-0.785574	-0.593012	0.176667
46930	14.746682	-3.285341	0.121905	-0.411850	-1.116149	0.117925	0.113199	0.124888	0.985692	-0.603398	0.796811	-0.031661	-0.789365	-0.591181	0.165556
46931	11.861798	-1.466766	-2.261362	0.568754	-1.042835	0.174163	0.103966	0.120004	0.987315	-0.608041	0.793245	-0.032388	-0.787069	-0.596960	0.155438
46932	9.756606	1.867700	-2.216393	0.877695	-1.164686	0.192801	0.093663	0.114512	0.988997	-0.615140	0.787729	-0.032951	-0.782835	-0.605285	0.144222
46933	9.606947	2.983330	-2.780128	0.643706	-1.280249	0.193468	0.082503	0.108150	0.990705	-0.620295	0.783637	-0.033889	-0.780018	-0.611733	0.131737
46934	9.754532	1.670630	-3.374975	0.291212	-1.410939	0.214794	0.070186	0.101159	0.992391	-0.622748	0.781611	-0.035630	-0.779268	-0.615509	0.117855
46935	10.794049	0.619079	-4.715208	0.289069	-1.545237	0.270278	0.056502	0.093609	0.994004	-0.625099	0.779625	-0.037887	-0.778498	-0.619211	0.102565
46936	10.963433	2.151930	-3.080820	0.298752	-1.408557	0.321483	0.043551	0.087350	0.995225	-0.627604	0.777465	-0.040774	-0.777314	-0.622831	0.088680
46937	9.843340	1.776732	-1.932845	0.015712	-1.359644	0.257730	0.031395	0.080731	0.996241	-0.627726	0.777235	-0.043202	-0.777801	-0.624010	0.075078
46938	10.055946	-0.166591	-1.336197	-0.303990	-1.337456	0.242878	0.019475	0.074270	0.997048	-0.625440	0.778927	-0.045806	-0.780029	-0.622702	0.061621
46939	9.964733	-1.716208	-0.687560	-0.322410	-1.262121	0.263662	0.008001	0.068321	0.997631	-0.622848	0.780839	-0.048479	-0.782302	-0.620985	0.048801
46940	9.833958	-1.667147	0.026362	-0.082592	-1.213497	0.289650	-0.003279	0.063032	0.998006	-0.622229	0.781147	-0.051380	-0.782828	-0.621157	0.036659
46941	9.530846	-0.865643	0.384078	0.000973	-1.191485	0.284535	-0.014350	0.057701	0.998231	-0.622106	0.781062	-0.054090	-0.782801	-0.621782	0.024688
46942	9.455541	-0.684725	0.368510	-0.024800	-1.199299	0.291349	-0.025530	0.052501	0.998294	-0.621875	0.781041	-0.056980	-0.782700	-0.622269	0.012709
46943	9.324154	-0.454924	0.518986	-0.141705	-1.228383	0.275166	-0.036833	0.046869	0.998222	-0.620577	0.781876	-0.059610	-0.783280	-0.621669	0.000287
46944	9.631894	-0.780836	-0.069648	-0.229984	-1.193154	0.233412	-0.047611	0.041271	0.998013	-0.618697	0.783187	-0.061903	-0.784185	-0.620415	-0.011754
46945	9.512552	-0.944869	-0.685433	-0.247760	-1.152007	0.208691	-0.057917	0.035632	0.997685	-0.616543	0.784730	-0.063818	-0.785188	-0.618812	-0.023480
46946	9.463901	-1.069111	-1.287079	-0.245709	-1.125025	0.204484	-0.067994	0.030270	0.997226	-0.614506	0.786166	-0.065763	-0.785977	-0.617273	-0.034854
46947	9.710932	-1.120415	-1.918763	-0.251191	-1.080490	0.195648	-0.077672	0.025017	0.996665	-0.612288	0.787749	-0.067489	-0.786810	-0.615488	-0.045868
46948	10.105577	-1.412860	-2.396093	-0.343492	-1.010225	0.174041	-0.086671	0.020169	0.996033	-0.609463	0.789804	-0.069026	-0.788063	-0.613027	-0.056161
46949	10.111238	-1.492130	-2.707386	-0.348784	-0.901717	0.160749	-0.094745	0.015792	0.995376	-0.606463	0.791999	-0.070292	-0.789447	-0.610319	-0.065461
46950	9.933958	-1.362813	-2.945689	-0.291063	-0.834065	0.144590	-0.102190	0.011841	0.994694	-0.604044	0.793737	-0.071505	-0.790372	-0.608146	-0.073959
46951	9.986092	-0.618372	-2.735969	-0.215371	-0.783475	0.140519	-0.109222	0.008067	0.993985	-0.602086	0.795123	-0.072612	-0.790926	-0.606395	-0.081988
46952	10.098226	-0.233804	-2.501441	-0.223236	-0.730412	0.121473	-0.115712	0.004595	0.993272	-0.600205	0.796452	-0.073606	-0.791432	-0.604684	-0.089401
46953	10.122968	-0.646479	-2.402143	-0.293692	-0.689349	0.097671	-0.121750	0.001077	0.992560	-0.597650	0.798319	-0.074175	-0.792459	-0.602234	-0.096552
46954	10.070196	-1.320036	-2.259782	-0.254674	-0.656612	0.085657	-0.127448	-0.002203	0.991843	-0.595547	0.799836	-0.074749	-0.793147	-0.600215	-0.103249
46955	9.988370	-1.388684	-1.953443	-0.164938	-0.630250	0.072644	-0.132876	-0.005536	0.991117	-0.594027	0.800926	-0.075166	-0.793395	-0.598738	-0.109713
46956	9.964708	-1.104947	-1.576206	-0.112772	-0.604851	0.060832	-0.138017	-0.008684	0.990392	-0.593073	0.801590	-0.075620	-0.793232	-0.597811	-0.115783
46957	9.911334	-0.745687	-1.255927	-0.140723	-0.574220	0.055527	-0.142901	-0.011801	0.989667	-0.591762	0.802533	-0.075876	-0.793345	-0.596490	-0.121666
46958	9.762403	-0.957224	-1.030549	-0.198290	-0.579290	0.035099	-0.147686	-0.014987	0.988921	-0.590161	0.803704	-0.075955	-0.793662	-0.594840	-0.127541
46959	9.682954	-1.090913	-0.728893	-0.219992	-0.587674	0.014564	-0.152438	-0.018490	0.988140	-0.588279	0.805108	-0.075688	-0.794160	-0.592840	-0.133606
46960	9.508328	-1.250595	-0.611630	-0.241549	-0.606093	-0.009113	-0.157181	-0.022167	0.987321	-0.586397	0.806521	-0.075247	-0.794627	-0.590789	-0.139768
46961	9.321004	-1.372801	-0.479286	-0.238527	-0.628691	-0.022042	-0.162050	-0.026176	0.986435	-0.584428	0.808012	-0.074568	-0.795100	-0.588584	-0.146236
46962	9.326210	-1.213032	-0.516578	-0.214611	-0.653691	-0.035514	-0.167023	-0.030321	0.985487	-0.582803	0.809248	-0.073876	-0.795263	-0.586684	-0.152834
46963	9.379325	-1.033672	-0.775467	-0.219562	-0.669034	-0.040609	-0.172109	-0.034684	0.984467	-0.581025	0.810604	-0.073019	-0.795480	-0.584567	-0.159665
46964	9.356912	-1.024401	-1.082368	-0.223583	-0.687021	-0.052412	-0.177252	-0.039136	0.983387	-0.579361	0.811874	-0.072118	-0.795564	-0.582519	-0.166580
46965	9.326371	-1.061005	-1.575937	-0.221255	-0.690939	-0.072338	-0.182333	-0.043851	0.982258	-0.577635	0.813209	-0.070920	-0.795671	-0.580318	-0.173605
46966	9.363437	-1.189396	-2.050312	-0.193755	-0.696224	-0.091938	-0.187323	-0.048651	0.981093	-0.576287	0.814274	-0.069654	-0.795490	-0.578438	-0.180569
46967	9.418297	-1.077831	-2.554562	-0.138124	-0.677663	-0.107547	-0.192097	-0.053548	0.979914	-0.575299	0.815092	-0.068237	-0.795066	-0.576852	-0.187383
46968	9.332469	-0.775042	-2.693384	-0.141950	-0.667583	-0.118486	-0.196704	-0.058378	0.978723	-0.574424	0.815828	-0.066786	-0.794572	-0.575340	-0.194011
46969	9.485606	-0.558125	-2.623932	-0.156949	-0.660354	-0.131735	-0.201201	-0.063352	0.977499	-0.573346	0.816724	-0.065081	-0.794224	-0.573540	-0.200648
46970	9.650586	-0.446247	-2.496922	-0.171335	-0.652349	-0.142038	-0.205549	-0.068266	0.976263	-0.572298	0.817597	-0.063324	-0.793867	-0.571730	-0.207125
46971	9.578358	-0.196442	-2.227763	-0.172622	-0.654925	-0.153069	-0.209881	-0.073361	0.974971	-0.571151	0.818549	-0.061360	-0.793560	-0.569733	-0.213699
46972	9.320725	-0.437926	-1.745615	-0.236468	-0.674446	-0.165130	-0.214273	-0.078567	0.973609	-0.569648	0.819753	-0.059218	-0.793466	-0.567303	-0.220406
46973	9.308013	-0.979803	-1.250084	-0.224581	-0.723860	-0.177544	-0.219016	-0.084224	0.972079	-0.568156	0.820953	-0.056880	-0.793241	-0.564750	-0.227654
46974	9.285324	-1.418938	-0.717357	-0.148627	-0.765122	-0.190995	-0.223980	-0.090125	0.970418	-0.567424	0.821609	-0.054661	-0.792378	-0.562882	-0.235162
46975	9.429296	-1.637628	-0.542415	-0.025307	-0.826963	-0.202821	-0.229384	-0.096537	0.968537	-0.567598	0.821628	-0.052533	-0.790706	-0.561789	-0.243263
46976	9.389121	-0.429925	-0.364838	0.112744	-0.865360	-0.182547	-0.235160	-0.102916	0.966493	-0.568935	0.820798	-0.051027	-0.788043	-0.561871	-0.251571
46977	9.123294	-0.185695	-0.108983	0.010150	-0.953962	-0.174836	-0.241679	-0.109793	0.964125	-0.569357	0.820613	-0.049272	-0.785763	-0.560839	-0.260836
46978	9.116009	-0.740998	-0.067826	-0.058603	-1.042774	-0.186386	-0.248782	-0.117181	0.961445	-0.569378	0.820714	-0.047303	-0.783528	-0.559194	-0.270899
46979	9.369849	-1.229890	-0.040756	0.019736	-1.114684	-0.215374	-0.256277	-0.125253	0.958454	-0.570011	0.820393	-0.045203	-0.780647	-0.557914	-0.281643
46980	9.566039	-0.500421	0.131425	0.138423	-1.207933	-0.201383	-0.264516	-0.133659	0.955074	-0.571638	0.819344	-0.043656	-0.776699	-0.557504	-0.293134
46981	9.463395	0.600586	0.614404	0.117529	-1.324625	-0.191151	-0.273683	-0.142671	0.951180	-0.573011	0.818465	-0.042108	-0.772500	-0.556560	-0.305752
46982	9.106095	0.685590	1.055661	-0.026871	-1.468709	-0.175729	-0.283974	-0.152285	0.946662	-0.573318	0.818339	-0.040339	-0.768547	-0.554193	-0.319695
46983	8.917757	0.309319	1.416526	-0.116254	-1.640719	-0.177497	-0.295528	-0.162861	0.941350	-0.572900	0.818734	-0.038209	-0.764493	-0.550591	-0.335262
46984	9.033997	0.017484	1.877253	-0.161618	-1.829664	-0.164683	-0.308512	-0.174263	0.935122	-0.572190	0.819327	-0.036091	-0.759881	-0.546202	-0.352484
46985	9.409595	-0.171926	2.204926	-0.211654	-2.033271	-0.150887	-0.323033	-0.186599	0.927809	-0.571037	0.820226	-0.033855	-0.754696	-0.540750	-0.371515
46986	9.975050	-0.228765	2.413249	-0.231765	-2.249086	-0.133408	-0.339160	-0.199806	0.919265	-0.569762	0.821197	-0.031722	-0.748560	-0.534521	-0.392359
46987	10.822567	0.480063	2.758029	-0.205047	-2.487532	-0.111643	-0.357026	-0.213971	0.909257	-0.568619	0.822060	-0.029821	-0.741083	-0.527668	-0.415165
46988	11.538959	0.776499	2.623916	-0.300267	-2.710576	-0.099996	-0.376418	-0.229002	0.897701	-0.566799	0.823393	-0.027620	-0.732836	-0.519213	-0.439738
46989	12.483318	0.059801	1.048409	-0.297776	-2.851494	-0.144139	-0.396325	-0.244890	0.884848	-0.565205	0.824573	-0.024949	-0.723512	-0.510008	-0.465212
46990	12.624282	-0.749126	-2.000754	-0.130226	-2.879673	-0.208325	-0.415808	-0.261194	0.871138	-0.565142	0.824687	-0.022485	-0.712543	-0.501666	-0.490524
46991	11.836085	-0.203664	-5.019902	0.136904	-2.873251	-0.262092	-0.434558	-0.277692	0.856765	-0.567262	0.823273	-0.020883	-0.699552	-0.495085	-0.515284
46992	11.248478	1.033023	-6.940762	0.105673	-2.863177	-0.293406	-0.452713	-0.294197	0.841724	-0.569323	0.821896	-0.018938	-0.686238	-0.487786	-0.539576
46993	10.477814	1.876128	-7.728454	-0.264429	-2.797000	-0.327264	-0.469831	-0.310402	0.826384	-0.569071	0.822157	-0.014724	-0.674846	-0.477189	-0.562915
46994	10.061816	1.671259	-8.879391	-0.595293	-2.644445	-0.362078	-0.485481	-0.325845	0.811254	-0.566838	0.823787	-0.008335	-0.665585	-0.463896	-0.584635
46995	10.028426	1.796236	-9.788560	-0.899361	-2.433593	-0.377772	-0.499413	-0.340087	0.796824	-0.562768	0.826615	0.000085	-0.658695	-0.448384	-0.604212
46996	9.965364	1.509021	-9.630560	-1.205632	-2.260283	-0.358093	-0.512227	-0.353008	0.782949	-0.556693	0.830654	0.010313	-0.654000	-0.430580	-0.622001
46997	9.632783	0.152103	-9.255772	-1.466218	-2.088019	-0.334434	-0.523965	-0.364605	0.769756	-0.548866	0.835615	0.022192	-0.651311	-0.410865	-0.637953
46998	9.480137	-2.123111	-9.394663	-1.502579	-1.898001	-0.340058	-0.534440	-0.375087	0.757419	-0.540921	0.840366	0.034486	-0.649444	-0.391273	-0.652018
46999	9.121235	-3.736190	-9.500179	-1.260183	-1.683539	-0.350313	-0.543433	-0.384506	0.746214	-0.534652	0.843849	0.045452	-0.647169	-0.374265	-0.664152
47000	9.019861	-4.268998	-8.869872	-0.891244	-1.578604	-0.312541	-0.551938	-0.392967	0.735487	-0.530641	0.845891	0.053742	-0.643261	-0.360618	-0.675404
47001	9.303591	-4.058704	-8.048283	-0.389189	-1.518861	-0.265417	-0.560212	-0.400641	0.725017	-0.529659	0.846202	0.058347	-0.636887	-0.351325	-0.686255
47002	9.170769	-3.308723	-7.565845	0.056041	-1.412374	-0.239447	-0.567862	-0.407612	0.715112	-0.531392	0.845021	0.059687	-0.628614	-0.346111	-0.696457
47003	8.997727	-2.313931	-6.867029	0.327399	-1.284392	-0.221267	-0.574649	-0.413929	0.706004	-0.534756	0.842947	0.058957	-0.619528	-0.343660	-0.705750
47004	8.468988	-1.576879	-6.245981	0.522931	-1.195858	-0.193786	-0.580942	-0.419687	0.697401	-0.539118	0.840326	0.056606	-0.609801	-0.343097	-0.714442
47005	8.041266	-0.521635	-5.649432	0.736258	-1.079314	-0.176690	-0.586454	-0.424902	0.689587	-0.544675	0.837001	0.052519	-0.599501	-0.344801	-0.722296
47006	7.662010	0.680827	-5.260634	0.761754	-0.980646	-0.157868	-0.591403	-0.429633	0.682391	-0.550162	0.833673	0.048074	-0.589546	-0.346994	-0.729404
47007	7.447245	1.415663	-5.027039	0.651098	-0.862497	-0.118231	-0.595734	-0.433639	0.676061	-0.554755	0.830845	0.044080	-0.580817	-0.348788	-0.735526
47008	6.980571	2.047877	-6.088522	0.539457	-0.738027	-0.059228	-0.599646	-0.436729	0.670591	-0.558250	0.828684	0.040498	-0.573394	-0.350073	-0.740721
47009	6.136402	2.614838	-7.148452	0.317974	-0.667820	0.001170	-0.603397	-0.439080	0.665673	-0.560136	0.827524	0.038103	-0.567590	-0.349876	-0.745270
47010	5.003395	2.238544	-6.915051	0.037347	-0.603724	-0.023796	-0.606662	-0.441402	0.661155	-0.560520	0.827270	0.037982	-0.563719	-0.347548	-0.749287
47011	6.254054	0.913407	-4.854193	-0.168866	-0.517220	-0.097151	-0.608968	-0.444017	0.657273	-0.560227	0.827379	0.039877	-0.561519	-0.343938	-0.752597
47012	8.496846	-0.922432	-3.616996	0.062206	-0.193713	-0.077918	-0.609600	-0.445347	0.655785	-0.561079	0.826799	0.039920	-0.559981	-0.343612	-0.753892
47013	9.185446	-1.063858	-4.594518	0.695977	0.270741	-0.034938	-0.607822	-0.444719	0.657858	-0.565258	0.824176	0.034887	-0.557706	-0.350654	-0.752334
47014	8.194956	0.189707	-5.350998	1.161370	0.697722	-0.014221	-0.603841	-0.442365	0.663090	-0.571835	0.819948	0.026269	-0.555320	-0.363316	-0.748078
47015	6.968992	1.586808	-5.884774	1.195384	0.985104	0.012825	-0.598370	-0.438634	0.670487	-0.578481	0.815513	0.017250	-0.554358	-0.377543	-0.741720
47016	6.660413	1.861367	-5.894531	0.949398	1.157828	0.045773	-0.592192	-0.433835	0.679040	-0.583506	0.812048	0.009936	-0.555724	-0.390340	-0.734034
47017	7.247800	1.737709	-5.744219	0.659782	1.310573	0.046144	-0.585075	-0.428293	0.688660	-0.587000	0.809573	0.004785	-0.559570	-0.401444	-0.725068
47018	8.084536	1.119240	-5.798993	0.438494	1.508338	-0.003102	-0.576552	-0.422206	0.699521	-0.589513	0.807757	0.001652	-0.565741	-0.411425	-0.714610
47019	8.510289	0.740186	-5.891603	0.355680	1.759672	-0.035970	-0.566232	-0.415184	0.712042	-0.591830	0.806063	-0.000631	-0.573688	-0.421765	-0.702137
47020	8.273738	0.599182	-5.949694	0.350786	2.004424	-0.044243	-0.554361	-0.406993	0.725976	-0.594134	0.804362	-0.002748	-0.582829	-0.432850	-0.687715
47021	7.996706	0.570368	-6.081610	0.338820	2.201585	-0.063438	-0.540955	-0.397859	0.740997	-0.596560	0.802555	-0.004600	-0.592861	-0.444537	-0.671493
47022	8.046720	0.428590	-6.251762	0.373498	2.372462	-0.087656	-0.526223	-0.387886	0.756725	-0.599289	0.800507	-0.006414	-0.603276	-0.456872	-0.653701
47023	8.106792	0.310692	-6.266454	0.432017	2.547001	-0.112133	-0.509961	-0.376986	0.773189	-0.602585	0.798011	-0.008350	-0.613866	-0.470170	-0.634121
47024	8.157602	0.251326	-6.295160	0.516556	2.712808	-0.122018	-0.492409	-0.365028	0.790119	-0.606422	0.795072	-0.010611	-0.624328	-0.484370	-0.612861
47025	8.300606	0.308785	-6.294785	0.617513	2.894448	-0.138569	-0.473258	-0.351889	0.807590	-0.611062	0.791472	-0.013224	-0.634531	-0.499746	-0.589597
47026	8.289655	0.453714	-6.246341	0.686223	3.058490	-0.159910	-0.452697	-0.337639	0.825267	-0.616218	0.787416	-0.015871	-0.644469	-0.515729	-0.564520
47027	8.364806	0.611753	-6.159283	0.709787	3.218156	-0.186928	-0.430554	-0.322247	0.843078	-0.621733	0.783017	-0.018224	-0.654272	-0.532016	-0.537483
47028	8.270822	0.679972	-6.165828	0.696442	3.359972	-0.205004	-0.407106	-0.305719	0.860698	-0.627208	0.778592	-0.020112	-0.663984	-0.548024	-0.508719
47029	8.253965	0.897669	-6.206022	0.666151	3.487227	-0.225199	-0.382280	-0.288081	0.877993	-0.632625	0.774162	-0.021433	-0.673534	-0.563634	-0.478194
47030	8.175087	1.287169	-5.798484	0.601288	3.584727	-0.229520	-0.356487	-0.269401	0.894618	-0.637576	0.770068	-0.022167	-0.682945	-0.578289	-0.446283
47031	8.192796	1.511526	-5.505124	0.463352	3.679129	-0.236282	-0.329589	-0.249695	0.910507	-0.641634	0.766695	-0.022005	-0.692587	-0.591465	-0.412907
47032	8.356538	1.459168	-5.321230	0.291154	3.763281	-0.246877	-0.301726	-0.229129	0.925452	-0.644469	0.764345	-0.020876	-0.702581	-0.602724	-0.378289
47033	8.406339	1.495058	-5.135486	0.124438	3.845340	-0.250409	-0.272817	-0.207686	0.939382	-0.646116	0.763004	-0.018955	-0.712815	-0.612121	-0.342349
47034	8.446891	1.502193	-4.906860	-0.051346	3.903285	-0.254469	-0.243123	-0.185605	0.952073	-0.646427	0.762800	-0.016366	-0.723204	-0.619424	-0.305434
47035	8.497945	1.428086	-4.682690	-0.223910	3.947442	-0.266128	-0.212572	-0.163092	0.963439	-0.645434	0.763703	-0.013127	-0.733640	-0.624627	-0.267608
47036	8.487047	1.192071	-4.426989	-0.376301	3.972696	-0.280523	-0.181392	-0.140373	0.973341	-0.643229	0.765616	-0.009457	-0.743877	-0.627796	-0.229169
47037	8.547110	0.711313	-4.130737	-0.444882	3.992400	-0.299128	-0.149510	-0.117589	0.981743	-0.640410	0.768013	-0.005539	-0.753340	-0.629546	-0.190131
47038	8.546575	0.362664	-3.940371	-0.396043	4.009727	-0.324572	-0.117047	-0.094831	0.988589	-0.637864	0.770147	-0.001645	-0.761203	-0.630778	-0.150632
47039	8.570506	0.305702	-3.627472	-0.283567	4.019556	-0.346656	-0.084052	-0.072157	0.993845	-0.636051	0.771644	0.002232	-0.767056	-0.631948	-0.110754
47040	8.739335	0.440915	-3.451923	-0.174700	4.015390	-0.370764	-0.050795	-0.049636	0.997475	-0.634976	0.772507	0.006106	-0.770860	-0.633063	-0.070757
47041	8.912032	0.516237	-3.137584	-0.106386	4.005802	-0.399230	-0.017272	-0.027392	0.999476	-0.634284	0.773033	0.010226	-0.772907	-0.633774	-0.030726
47042	9.006656	0.611554	-2.781141	-0.065682	3.966870	-0.421858	0.016096	-0.005523	0.999855	-0.633796	0.773365	0.014476	-0.773333	-0.633937	0.008948
47043	9.535672	0.941143	-2.241559	-0.027652	3.893101	-0.444947	0.049068	0.015646	0.998673	-0.633417	0.773577	0.019002	-0.772253	-0.633509	0.047868
47044	9.750424	0.951133	-1.580096	-0.143633	3.770530	-0.479979	0.081218	0.035764	0.996055	-0.632012	0.774595	0.023721	-0.770691	-0.631445	0.085514
47045	10.707880	1.074560	-1.699292	-0.188860	3.623352	-0.511748	0.112396	0.054542	0.992165	-0.630029	0.776040	0.028711	-0.768395	-0.628320	0.121587
47046	11.302648	1.833297	0.827407	-0.410911	3.399547	-0.508016	0.141702	0.071847	0.987299	-0.626244	0.778920	0.033199	-0.766641	-0.622994	0.155368
47047	9.412034	1.263890	-0.589292	-0.429006	3.006487	-0.448415	0.167587	0.086896	0.982020	-0.622219	0.781969	0.036991	-0.764695	-0.617231	0.185116
47048	8.342924	1.109007	0.169532	-0.555628	2.468562	-0.363024	0.188723	0.099189	0.977008	-0.617339	0.785706	0.039480	-0.763725	-0.610596	0.209513
47049	7.677695	0.704647	0.589349	-0.582152	1.952760	-0.322318	0.205681	0.108397	0.972597	-0.612200	0.789615	0.041462	-0.763483	-0.603952	0.228769
47050	7.427248	0.723089	0.382031	-0.541586	1.511921	-0.244674	0.218737	0.115530	0.968921	-0.607557	0.793133	0.042588	-0.763563	-0.597990	0.243678
47051	6.868342	1.085106	0.578513	-0.591701	1.113888	-0.153928	0.228244	0.120813	0.966079	-0.602628	0.796878	0.042722	-0.764686	-0.591937	0.254688
47052	6.414770	1.108920	0.255176	-0.715810	0.688543	-0.054951	0.233868	0.124410	0.964276	-0.597029	0.801149	0.041435	-0.767374	-0.585391	0.261639
47053	6.202591	0.559699	0.159997	-0.846188	0.244962	0.013109	0.235740	0.125809	0.963638	-0.590474	0.806103	0.039209	-0.771859	-0.578247	0.264318
47054	6.254128	0.296409	-0.613279	-0.869278	-0.166168	0.079278	0.234006	0.125477	0.964104	-0.583938	0.810991	0.036184	-0.777340	-0.571445	0.263048
47055	6.440764	0.370526	-1.515670	-0.840033	-0.537713	0.131158	0.229111	0.123348	0.965553	-0.577607	0.815653	0.032859	-0.783504	-0.565239	0.258122
47056	6.394987	0.243124	-2.744650	-0.790616	-0.855150	0.182558	0.221353	0.120012	0.967781	-0.571810	0.819869	0.029115	-0.789960	-0.559831	0.250105
47057	6.366125	0.132559	-3.883877	-0.714920	-1.141347	0.219287	0.211109	0.115297	0.970639	-0.566521	0.823656	0.025378	-0.796547	-0.555245	0.239200
47058	7.531981	0.185275	-3.250534	-0.613984	-1.368218	0.246665	0.198794	0.109741	0.973878	-0.562129	0.826768	0.021581	-0.802802	-0.551735	0.226045
47059	11.244725	1.969415	1.779289	-0.705299	-1.191728	0.159599	0.188347	0.104344	0.976544	-0.556646	0.830541	0.018617	-0.809117	-0.547095	0.214512
47060	14.142668	0.864143	6.243348	-1.182097	-0.869471	0.010373	0.181237	0.099694	0.978373	-0.547065	0.836936	0.016059	-0.817235	-0.538145	0.206223
47061	14.983441	-1.695947	5.354980	-1.204373	-0.838673	0.035622	0.174208	0.095348	0.980082	-0.537129	0.843394	0.013423	-0.825315	-0.528768	0.198140
47062	13.938901	-3.979902	3.568970	-0.735175	-1.068308	0.224343	0.164180	0.091604	0.982168	-0.531433	0.847043	0.009834	-0.831038	-0.523571	0.187749
47063	12.454001	-5.014816	1.854076	0.127334	-1.261521	0.400876	0.151601	0.088236	0.984496	-0.533037	0.846069	0.006252	-0.832399	-0.525721	0.175298
47064	10.832683	-1.726403	-0.245325	0.896039	-1.402955	0.447235	0.137558	0.084551	0.986878	-0.541144	0.840923	0.003382	-0.829603	-0.534509	0.161430
47065	9.536876	1.736253	-0.943345	0.987801	-1.466578	0.386238	0.123348	0.079756	0.989153	-0.549753	0.835326	0.001201	-0.826170	-0.543939	0.146882
47066	8.645685	3.107462	-0.756933	0.533048	-1.455912	0.302858	0.109674	0.074302	0.991187	-0.554522	0.832169	-0.001024	-0.824910	-0.549522	0.132470
47067	8.778845	1.507467	-1.361060	-0.057017	-1.463556	0.234643	0.096325	0.068067	0.993020	-0.554203	0.832375	-0.003297	-0.826789	-0.550017	0.117902
47068	9.373720	-0.401189	-1.814879	-0.175847	-1.470695	0.219522	0.082952	0.061790	0.994636	-0.552960	0.833189	-0.005644	-0.829068	-0.549526	0.103282
47069	10.104504	-1.389806	-2.579474	-0.009843	-1.527957	0.259204	0.068875	0.055398	0.996086	-0.552976	0.833158	-0.008101	-0.830345	-0.550254	0.088018
47070	10.587401	-0.347330	-2.409856	0.307791	-1.428658	0.299927	0.055373	0.049990	0.997214	-0.555733	0.831290	-0.010813	-0.829515	-0.553586	0.073812
47071	9.993524	0.491873	-2.151215	0.313192	-1.351412	0.277584	0.042650	0.044640	0.998092	-0.558361	0.829492	-0.013240	-0.828501	-0.556732	0.060303
47072	9.963914	0.984191	-1.974996	0.171682	-1.331258	0.282036	0.030065	0.039533	0.998766	-0.559903	0.828405	-0.015936	-0.828013	-0.558732	0.047041
47073	9.876284	0.608774	-1.197758	-0.106108	-1.271504	0.280188	0.017984	0.034593	0.999240	-0.558976	0.828974	-0.018638	-0.828989	-0.558216	0.034245
47074	9.777942	-0.080744	-0.802450	-0.191266	-1.236638	0.239355	0.006408	0.029663	0.999539	-0.557436	0.829953	-0.021057	-0.830195	-0.557044	0.021853
47075	9.779188	-0.670277	-0.848742	-0.146357	-1.205706	0.214978	-0.004786	0.024575	0.999687	-0.556102	0.830793	-0.023086	-0.831100	-0.556038	0.009690
47076	9.838227	-0.992261	-0.966516	-0.040115	-1.181324	0.201858	-0.015709	0.019664	0.999683	-0.555766	0.830961	-0.025078	-0.831191	-0.555984	-0.002124
47077	9.911237	-0.782935	-0.913639	0.033727	-1.142188	0.185768	-0.026219	0.014698	0.999548	-0.555889	0.830825	-0.026798	-0.830843	-0.556340	-0.013613
47078	9.780360	-0.450882	-1.033323	0.028933	-1.095295	0.183424	-0.036318	0.010105	0.999289	-0.556090	0.830630	-0.028610	-0.830328	-0.556734	-0.024547
47079	9.663708	-0.415883	-0.875690	-0.079106	-1.062449	0.177217	-0.046114	0.005513	0.998921	-0.555243	0.831139	-0.030219	-0.830409	-0.556037	-0.035266
47080	9.657587	-0.808682	-1.381262	-0.117231	-1.031358	0.158457	-0.055540	0.001080	0.998456	-0.554207	0.831774	-0.031728	-0.830524	-0.555113	-0.045598
47081	9.686001	-0.790905	-1.425335	-0.106397	-1.009314	0.143320	-0.064709	-0.003475	0.997898	-0.553120	0.832449	-0.032968	-0.830584	-0.554091	-0.055789
47082	9.765154	-0.686661	-1.414911	-0.063628	-0.987985	0.116567	-0.073539	-0.007997	0.997260	-0.552530	0.832796	-0.034066	-0.830242	-0.553522	-0.065662
47083	9.861237	-0.790902	-1.702782	-0.066783	-0.955382	0.096450	-0.081998	-0.012624	0.996552	-0.551785	0.833258	-0.034846	-0.829946	-0.552740	-0.075292
47084	10.114990	-0.876068	-1.971789	-0.040873	-0.926948	0.088213	-0.090157	-0.017031	0.995782	-0.551389	0.833485	-0.035667	-0.829362	-0.552279	-0.084536
47085	10.010783	-0.969423	-2.218224	0.001874	-0.870336	0.076850	-0.097796	-0.021340	0.994978	-0.551217	0.833572	-0.036301	-0.828611	-0.551999	-0.093283
47086	9.934965	-0.855528	-2.434314	0.041742	-0.820651	0.057570	-0.104891	-0.025411	0.994159	-0.551523	0.833343	-0.036889	-0.827538	-0.552171	-0.101425
47087	9.828052	-0.567174	-2.256163	-0.010483	-0.797960	0.037650	-0.111703	-0.029643	0.993299	-0.551280	0.833494	-0.037122	-0.826809	-0.551733	-0.109446
47088	9.853365	-0.681210	-2.023916	-0.047793	-0.770520	0.008510	-0.118100	-0.033842	0.992425	-0.550895	0.833748	-0.037127	-0.826176	-0.551107	-0.117109
47089	9.952796	-0.681214	-1.850041	-0.038034	-0.744223	-0.012387	-0.124186	-0.038183	0.991524	-0.550480	0.834036	-0.036828	-0.825560	-0.550387	-0.124595
47090	9.868155	-0.808439	-1.790874	-0.057686	-0.703589	-0.032092	-0.129798	-0.042342	0.990636	-0.550064	0.834328	-0.036411	-0.824974	-0.549639	-0.131585
47091	9.645850	-1.230680	-1.801739	-0.057174	-0.674982	-0.050433	-0.135098	-0.046605	0.989736	-0.549545	0.834701	-0.035708	-0.824469	-0.548728	-0.138378
47092	9.604004	-1.235771	-1.666715	0.054289	-0.646203	-0.064813	-0.140048	-0.050714	0.988845	-0.550101	0.834359	-0.035119	-0.823271	-0.548883	-0.144748
47093	9.518986	-0.779531	-1.373242	0.102418	-0.644721	-0.078627	-0.144932	-0.055040	0.987910	-0.550945	0.833833	-0.034371	-0.821860	-0.549266	-0.151173
47094	9.568081	-0.690717	-1.444714	0.072462	-0.627012	-0.092457	-0.149553	-0.059277	0.986975	-0.551696	0.833370	-0.033545	-0.820527	-0.549528	-0.157336
47095	9.481899	-0.783213	-1.471832	0.050433	-0.623687	-0.105841	-0.154097	-0.063712	0.985999	-0.552165	0.833103	-0.032463	-0.819371	-0.549436	-0.163558
47096	9.519883	-0.718328	-1.432332	0.073498	-0.629162	-0.116384	-0.158587	-0.068160	0.984990	-0.552968	0.832610	-0.031415	-0.817971	-0.549650	-0.169731
47097	9.526078	-0.381319	-1.288823	0.086111	-0.640793	-0.121225	-0.163169	-0.072812	0.983908	-0.553765	0.832123	-0.030255	-0.816529	-0.549790	-0.176098
47098	9.428191	-0.372458	-1.121941	0.018663	-0.653531	-0.134929	-0.167736	-0.077548	0.982777	-0.554161	0.831907	-0.028938	-0.815335	-0.549470	-0.182515
47099	9.374133	-0.622506	-1.042031	0.003037	-0.682210	-0.143764	-0.172514	-0.082607	0.981537	-0.554332	0.831844	-0.027420	-0.814221	-0.548828	-0.189296
47100	9.443586	-0.595543	-0.938668	0.043402	-0.724574	-0.155169	-0.177529	-0.087895	0.980183	-0.554977	0.831461	-0.025957	-0.812702	-0.548587	-0.196388
47101	9.402927	-0.294843	-1.032357	0.054890	-0.742931	-0.149691	-0.182746	-0.093324	0.978721	-0.555600	0.831089	-0.024494	-0.811118	-0.548253	-0.203729
47102	9.240629	-0.264493	-1.032933	0.016295	-0.782286	-0.157626	-0.188191	-0.098942	0.977136	-0.556045	0.830835	-0.022962	-0.809567	-0.547652	-0.211372
47103	9.297386	-0.505377	-1.085201	-0.027349	-0.826462	-0.172337	-0.193933	-0.105001	0.975379	-0.556065	0.830870	-0.021117	-0.808196	-0.546470	-0.219520
47104	9.308807	-0.742827	-1.181023	-0.029390	-0.861147	-0.191828	-0.199801	-0.111317	0.973493	-0.556226	0.830810	-0.019159	-0.806655	-0.545310	-0.227914
47105	9.349854	-0.800311	-1.589809	0.001019	-0.883750	-0.213160	-0.205751	-0.118001	0.971464	-0.556586	0.830616	-0.016989	-0.804909	-0.544199	-0.236578
47106	9.258285	-0.612608	-1.918353	0.000161	-0.907629	-0.221177	-0.211798	-0.124794	0.969313	-0.557069	0.830334	-0.014820	-0.803004	-0.543114	-0.245382
47107	9.252706	-0.427510	-2.013163	-0.049697	-0.942005	-0.243032	-0.218016	-0.132013	0.966975	-0.557118	0.830343	-0.012249	-0.801304	-0.541390	-0.254575
47108	9.327887	-0.328104	-2.042048	-0.097092	-0.976281	-0.275321	-0.224279	-0.139597	0.964475	-0.556971	0.830480	-0.009316	-0.799677	-0.539273	-0.264011
47109	9.418156	-1.040279	-2.166568	-0.189620	-1.022187	-0.311804	-0.230728	-0.147772	0.961732	-0.556094	0.831100	-0.005712	-0.798451	-0.536131	-0.273933
47110	9.723576	-0.573429	-2.403499	-0.045187	-1.027873	-0.339389	-0.237018	-0.156115	0.958880	-0.556548	0.830812	-0.002304	-0.796289	-0.534209	-0.283803
47111	9.369940	-0.028876	-2.518718	-0.085287	-1.058369	-0.342898	-0.243543	-0.164687	0.955806	-0.556629	0.830760	0.001310	-0.794261	-0.531710	-0.293996
47112	9.423560	0.016274	-2.577712	-0.140480	-1.081370	-0.365202	-0.250071	-0.173477	0.952560	-0.556437	0.830873	0.005237	-0.792365	-0.528730	-0.304307
47113	9.603961	-0.161687	-2.874812	-0.114593	-1.090069	-0.389769	-0.256546	-0.182542	0.949138	-0.556456	0.830824	0.009381	-0.790279	-0.525746	-0.314721
47114	9.776833	0.211736	-2.731143	-0.069319	-1.120369	-0.397082	-0.263157	-0.191738	0.945508	-0.556962	0.830430	0.013386	-0.787745	-0.523089	-0.325325
47115	9.761327	0.891131	-2.330182	-0.048545	-1.146500	-0.400897	-0.269957	-0.201124	0.941633	-0.557590	0.829934	0.017410	-0.784995	-0.520345	-0.336191
47116	9.419775	0.705527	-1.952072	-0.118229	-1.195868	-0.412161	-0.277012	-0.210768	0.937465	-0.557812	0.829683	0.021708	-0.782374	-0.516916	-0.347401
47117	9.495849	-0.201403	-1.555097	-0.173832	-1.279986	-0.443135	-0.284555	-0.221106	0.932813	-0.557642	0.829657	0.026546	-0.779784	-0.512622	-0.359381
47118	10.398673	-1.332688	-1.222771	-0.080220	-1.367580	-0.494691	-0.292416	-0.232216	0.927668	-0.558467	0.828930	0.031462	-0.776278	-0.508872	-0.372078
47119	10.956150	-0.755794	-0.760556	0.180566	-1.444848	-0.520604	-0.300692	-0.243927	0.922000	-0.561365	0.826800	0.035663	-0.771009	-0.506855	-0.385544
47120	11.623627	0.526270	-0.148101	0.291791	-1.567473	-0.529124	-0.309728	-0.256250	0.915644	-0.565242	0.823984	0.039398	-0.764572	-0.505358	-0.400054
47121	12.272504	1.716190	0.514819	0.305201	-1.700335	-0.540501	-0.319605	-0.269323	0.908470	-0.569239	0.821040	0.043142	-0.757509	-0.503348	-0.415718
47122	12.574557	2.439167	1.371220	0.216736	-1.850586	-0.548982	-0.330404	-0.283130	0.900373	-0.572679	0.818419	0.047206	-0.750248	-0.500028	-0.432551
47123	12.679176	2.105171	2.001794	0.080885	-2.029164	-0.559627	-0.342331	-0.297840	0.891123	-0.575151	0.816398	0.051917	-0.742974	-0.494758	-0.450781
47124	12.786469	1.210170	2.321813	0.007580	-2.222348	-0.599961	-0.355280	-0.313676	0.880559	-0.577323	0.814509	0.057214	-0.735170	-0.488040	-0.470471
47125	13.005555	0.706920	2.281421	0.006823	-2.413352	-0.628267	-0.369251	-0.330504	0.868574	-0.579654	0.812445	0.062721	-0.726398	-0.480312	-0.491574
47126	13.299750	0.370869	1.944871	-0.013162	-2.579510	-0.653314	-0.384052	-0.348103	0.855177	-0.582043	0.810273	0.068435	-0.716749	-0.471468	-0.513798
47127	13.574130	0.013858	1.136960	-0.069144	-2.701484	-0.662536	-0.399360	-0.366084	0.840532	-0.584178	0.808204	0.074444	-0.706574	-0.461290	-0.536623
47128	14.005847	-0.328896	0.141694	-0.158904	-2.773447	-0.650204	-0.414992	-0.383988	0.824824	-0.585735	0.806470	0.080744	-0.696201	-0.449621	-0.559594
47129	13.978580	-0.096203	-0.638964	-0.189902	-2.791015	-0.639492	-0.430447	-0.401526	0.808389	-0.587187	0.804756	0.087059	-0.685513	-0.437201	-0.582175
47130	13.702267	1.498334	-2.336216	-0.219036	-2.744105	-0.570755	-0.445738	-0.417957	0.791599	-0.588222	0.803341	0.092937	-0.674768	-0.424211	-0.603931
47131	13.183546	1.386200	-4.838729	-0.408350	-2.632653	-0.458842	-0.460581	-0.432627	0.775047	-0.587647	0.803034	0.099033	-0.665234	-0.409842	-0.624095
47132	12.097588	1.119429	-6.171625	-0.457368	-2.570718	-0.313580	-0.475704	-0.445513	0.758435	-0.586119	0.803478	0.104347	-0.655874	-0.394895	-0.643341
47133	11.117671	1.399634	-6.887031	-0.492565	-2.473296	-0.213456	-0.490456	-0.456819	0.742139	-0.584034	0.804358	0.109147	-0.646805	-0.379902	-0.661300
47134	9.931593	1.195113	-7.570440	-0.459017	-2.319407	-0.135988	-0.504545	-0.466580	0.726456	-0.581787	0.805421	0.113229	-0.637933	-0.365514	-0.677821
47135	8.759067	1.119149	-7.873170	-0.332234	-2.136921	-0.089022	-0.517451	-0.474986	0.711782	-0.580234	0.806128	0.116127	-0.628946	-0.352910	-0.692735
47136	7.817735	1.119174	-7.821510	-0.251457	-1.878662	-0.059262	-0.528826	-0.482013	0.698575	-0.578999	0.806698	0.118311	-0.620566	-0.341908	-0.705688
47137	6.668407	1.462606	-7.531727	-0.173689	-1.540995	-0.010137	-0.538163	-0.487312	0.687683	-0.578079	0.807169	0.119594	-0.613356	-0.333174	-0.716093
47138	5.038992	1.072310	-10.463931	-0.140055	-1.283196	0.022944	-0.546108	-0.491377	0.678465	-0.577126	0.807723	0.120453	-0.607200	-0.325779	-0.724690
47139	3.476393	0.111975	-10.329954	-0.166713	-1.101023	0.031693	-0.552843	-0.494691	0.670556	-0.576034	0.808355	0.121435	-0.602120	-0.319128	-0.731853
47140	4.400371	-1.453354	-7.007821	-0.189761	-1.032664	0.055268	-0.559337	-0.497527	0.663030	-0.574615	0.809209	0.122468	-0.597461	-0.312486	-0.738507
47141	6.272301	-2.840776	-5.410277	0.280931	-0.723073	0.102831	-0.564131	-0.498972	0.657863	-0.575797	0.808785	0.119685	-0.591789	-0.311277	-0.743567
47142	7.546072	-2.614587	-5.668684	1.013695	-0.246519	0.149926	-0.566430	-0.498559	0.656198	-0.580938	0.806322	0.111153	-0.584524	-0.318250	-0.746357
47143	7.310150	-1.042734	-6.614432	1.601612	0.317149	0.192449	-0.565607	-0.496000	0.658842	-0.589259	0.801991	0.097897	-0.576942	-0.332858	-0.745884
47144	6.323158	0.615980	-7.089316	1.733053	0.793717	0.260247	-0.562577	-0.491228	0.664983	-0.597766	0.797333	0.083284	-0.571125	-0.350651	-0.742200
47145	5.335830	1.607314	-7.403751	1.611482	1.180677	0.351190	-0.557854	-0.484203	0.674052	-0.605092	0.793161	0.068982	-0.568034	-0.369382	-0.735456
47146	4.989309	2.633690	-7.086623	1.194107	1.473639	0.413263	-0.551967	-0.475386	0.685084	-0.609614	0.790614	0.057452	-0.568949	-0.385925	-0.726195
47147	5.827917	2.399084	-6.700911	0.696666	1.721411	0.420343	-0.544592	-0.465318	0.697781	-0.611395	0.789776	0.049494	-0.574122	-0.399666	-0.714599
47148	6.490731	1.952481	-6.506642	0.362419	2.031677	0.351265	-0.534968	-0.454320	0.712322	-0.611621	0.789901	0.044460	-0.582863	-0.411887	-0.700443
47149	6.719554	1.570025	-6.470336	0.155659	2.359295	0.269331	-0.522628	-0.442344	0.728829	-0.611209	0.790385	0.041419	-0.594377	-0.423820	-0.683442
47150	6.696799	1.218336	-6.533654	0.072041	2.680103	0.227421	-0.507888	-0.429043	0.746975	-0.610496	0.791046	0.039264	-0.607737	-0.436083	-0.663692
47151	6.533497	1.198253	-6.298313	0.072403	2.955511	0.226963	-0.491003	-0.414170	0.766407	-0.609897	0.791614	0.037058	-0.622046	-0.449233	-0.641286
47152	6.654385	1.106247	-6.117450	0.111870	3.190940	0.240213	-0.472363	-0.397732	0.786564	-0.609469	0.792059	0.034500	-0.636726	-0.463090	-0.616545
47153	6.922444	1.091750	-5.807564	0.193856	3.406169	0.248383	-0.451847	-0.379738	0.807238	-0.609654	0.792048	0.031342	-0.651273	-0.477974	-0.589393
47154	7.123992	1.126605	-5.669026	0.282765	3.620887	0.247882	-0.429498	-0.360204	0.828121	-0.610448	0.791572	0.027702	-0.665496	-0.493627	-0.559864
47155	7.298849	1.272958	-5.659124	0.336341	3.818610	0.218034	-0.405060	-0.339318	0.848993	-0.611878	0.790587	0.024043	-0.679361	-0.509742	-0.527856
47156	7.498606	1.358696	-5.584276	0.342583	3.976386	0.174836	-0.378826	-0.317371	0.869348	-0.613567	0.789368	0.020805	-0.692839	-0.525522	-0.493762
47157	7.709401	1.344690	-5.520300	0.326237	4.121626	0.136166	-0.350749	-0.294316	0.889018	-0.615422	0.787991	0.018065	-0.705855	-0.540785	-0.457515
47158	7.943717	1.203162	-5.527512	0.289507	4.245511	0.082075	-0.320998	-0.270424	0.907651	-0.617231	0.786618	0.016075	-0.718322	-0.555071	-0.419417
47159	8.184825	1.101824	-5.493822	0.249774	4.370895	0.039042	-0.289498	-0.245557	0.925145	-0.618980	0.785269	0.014738	-0.730106	-0.568379	-0.379329
47160	8.306055	0.888388	-5.319358	0.251592	4.485225	-0.005345	-0.256453	-0.219843	0.941223	-0.620867	0.783793	0.013905	-0.740781	-0.580808	-0.337499
47161	8.413893	0.738042	-5.271732	0.264467	4.574626	-0.045176	-0.221989	-0.193357	0.955685	-0.622994	0.782109	0.013528	-0.750066	-0.592383	-0.294080
47162	8.570161	0.656902	-5.117128	0.281142	4.646540	-0.087448	-0.186385	-0.166284	0.968303	-0.625313	0.780255	0.013627	-0.757789	-0.602952	-0.249407
47163	8.731645	0.650317	-4.740828	0.293306	4.704891	-0.130963	-0.149691	-0.138713	0.978954	-0.627801	0.778243	0.014277	-0.763845	-0.612451	-0.203580
47164	8.964218	0.600078	-4.458766	0.264916	4.741297	-0.178890	-0.112215	-0.110890	0.987477	-0.630083	0.776371	0.015582	-0.768377	-0.620444	-0.156990
47165	9.256326	0.901884	-4.274800	0.256171	4.768510	-0.219178	-0.074051	-0.082854	0.993807	-0.632283	0.774541	0.017460	-0.771191	-0.627074	-0.109743
47166	9.528335	1.627593	-3.918386	0.130667	4.792076	-0.230054	-0.035568	-0.054495	0.997880	-0.633434	0.773547	0.019666	-0.772979	-0.631392	-0.062033
47167	9.767759	1.889187	-3.369082	-0.076019	4.774835	-0.231575	0.002905	-0.026130	0.999654	-0.632891	0.773927	0.022069	-0.774236	-0.632736	-0.014289
47168	9.992097	2.061530	-2.685307	-0.306609	4.715775	-0.209261	0.040787	0.002030	0.999166	-0.630483	0.775827	0.024160	-0.775131	-0.630943	0.032924
47169	9.785563	1.778126	-1.107078	-0.544154	4.583467	-0.177844	0.077515	0.029409	0.996557	-0.626146	0.779282	0.025706	-0.775843	-0.625983	0.078820
47170	9.770364	1.194012	-0.112012	-0.766992	4.335742	-0.175760	0.112289	0.054991	0.992153	-0.620037	0.784117	0.026713	-0.776495	-0.618171	0.122144
47171	11.406479	1.073035	0.412346	-0.896025	4.079883	-0.161545	0.145036	0.078683	0.986293	-0.612847	0.789736	0.027118	-0.776777	-0.608380	0.162761
47172	10.602200	0.540259	1.285130	-1.120936	3.708280	-0.139670	0.174731	0.099892	0.979536	-0.603921	0.796604	0.026492	-0.777656	-0.596191	0.199518
47173	8.143436	0.349079	1.909341	-1.037264	3.109739	-0.087124	0.199507	0.117484	0.972828	-0.595660	0.802841	0.025202	-0.778066	-0.584502	0.230153
47174	6.801053	-0.132652	2.534365	-0.969283	2.446001	-0.020556	0.218688	0.131463	0.966899	-0.588080	0.808473	0.023086	-0.778676	-0.573663	0.254115
47175	6.158073	-0.427950	2.852632	-0.780404	1.789328	0.053935	0.232373	0.142018	0.962203	-0.582095	0.812860	0.020601	-0.779210	-0.564880	0.271555
47176	5.850357	0.011674	2.923460	-0.561511	1.167203	0.148852	0.240627	0.149766	0.958994	-0.578078	0.815791	0.017647	-0.779695	-0.558619	0.282877
47177	5.809426	0.073137	1.863020	-0.419928	0.576358	0.217700	0.243931	0.154688	0.957376	-0.575305	0.817811	0.014445	-0.780719	-0.554307	0.288482
47178	5.761310	-0.109653	0.964827	-0.335064	0.039089	0.234070	0.242911	0.156799	0.957292	-0.573264	0.819293	0.011269	-0.782536	-0.551518	0.288903
47179	5.892974	-0.042799	-0.815795	-0.238665	-0.443159	0.232665	0.238168	0.156203	0.958581	-0.571930	0.820259	0.008438	-0.784967	-0.550250	0.284696
47180	6.124912	0.067741	-2.889305	-0.068832	-0.789351	0.222416	0.230710	0.153660	0.960813	-0.571918	0.820288	0.006143	-0.787199	-0.550923	0.277129
47181	5.804437	0.228705	-4.522158	0.152750	-1.084049	0.223462	0.220945	0.149428	0.963771	-0.573593	0.819128	0.004495	-0.788780	-0.553806	0.266693
47182	5.433298	0.194113	-5.227788	0.340038	-1.325589	0.216059	0.209259	0.143801	0.967229	-0.576750	0.816914	0.003326	-0.789664	-0.558546	0.253884
47183	6.606646	0.265903	-4.153753	0.488691	-1.562743	0.209174	0.195754	0.136632	0.971088	-0.580984	0.813911	0.002599	-0.790024	-0.564695	0.238707
47184	11.678053	1.927688	2.432969	0.343510	-1.333723	0.156188	0.184324	0.130318	0.974188	-0.584004	0.811748	0.001910	-0.790546	-0.569282	0.225730
47185	15.656175	2.205931	7.690146	-0.112726	-0.955902	0.016918	0.176703	0.124898	0.976307	-0.583080	0.812413	0.001601	-0.792965	-0.569548	0.216382
47186	17.255309	2.080979	5.951135	-0.192534	-1.044495	-0.007636	0.168470	0.118868	0.978513	-0.581547	0.813512	0.001301	-0.795878	-0.569271	0.206179
47187	15.106781	-2.062209	3.269260	-0.260349	-1.208166	0.236034	0.157517	0.113805	0.980937	-0.579794	0.814762	-0.001424	-0.799392	-0.568517	0.194322
47188	11.965308	-4.006641	0.738801	0.548245	-1.442096	0.469458	0.143281	0.109358	0.983622	-0.584891	0.811097	-0.004977	-0.798357	-0.574598	0.180177
47189	10.285876	-0.462304	-0.605125	1.280845	-1.717152	0.511019	0.126647	0.103417	0.986542	-0.595725	0.803151	-0.007716	-0.793141	-0.586731	0.163324
47190	9.167490	2.713654	-1.765687	1.241510	-1.893990	0.499681	0.108691	0.096164	0.989413	-0.606139	0.795287	-0.010710	-0.787897	-0.598558	0.144729
47191	8.993331	2.580536	-3.374506	0.559708	-2.155606	0.414077	0.089244	0.086371	0.992258	-0.610897	0.791587	-0.013960	-0.786664	-0.604922	0.123408
47192	10.078931	2.512137	-4.366099	0.279757	-2.108304	0.364367	0.070448	0.076436	0.994583	-0.613401	0.789584	-0.017233	-0.786623	-0.608864	0.102510
47193	9.337321	2.171688	-4.030468	-0.085608	-2.004356	0.313916	0.052778	0.066570	0.996385	-0.612838	0.789947	-0.020316	-0.788444	-0.609550	0.082489
47194	9.597680	0.811616	-3.254676	-0.396314	-1.937333	0.299976	0.035658	0.057132	0.997730	-0.609852	0.792165	-0.023566	-0.791712	-0.607628	0.063089
47195	9.857045	-0.754307	-2.823471	-0.467630	-1.802728	0.308413	0.019513	0.048499	0.998633	-0.606127	0.794918	-0.026762	-0.795129	-0.604776	0.044908
