// General information: 
//  MT Manager version: 2022.2.0 
//  XDA version: 2022.2.0 build 7381 rev 124627 built on 2023-07-19
// Device information: 
//  DeviceId: 00B4CAF0
//  ProductCode: MTW2-3A7G6
//  Firmware Version: 4.6.0
//  Hardware Version: 2.0.0
// Device settings: 
//  Filter Profile: human(46.1)
//  Option Flags: Orientation Smoother Disabled, Position/Velocity Smoother Disabled, Continuous Zero Rotation Update Disabled, AHS Disabled, ICC Disabled
// Coordinate system: ENU
PacketCounter	Acc_X	Acc_Y	Acc_Z	Gyr_X	Gyr_Y	Gyr_Z	Mat[1][1]	Mat[2][1]	Mat[3][1]	Mat[1][2]	Mat[2][2]	Mat[3][2]	Mat[1][3]	Mat[2][3]	Mat[3][3]
61308	4.833950	2.154736	8.794083	-0.012138	-0.066185	0.020797	0.693383	0.542653	0.474075	-0.685209	0.700125	0.200785	-0.222955	-0.464061	0.857286
61309	4.805081	2.202075	8.723064	-0.015898	-0.066656	0.024580	0.693075	0.542496	0.474706	-0.685321	0.700095	0.200503	-0.223567	-0.464290	0.857002
61310	4.901880	2.092851	8.770887	-0.020795	-0.069147	0.025386	0.692799	0.542279	0.475355	-0.685379	0.700125	0.200201	-0.224243	-0.464497	0.856713
61311	4.947745	2.091259	8.783798	-0.021957	-0.071395	0.027849	0.692456	0.542122	0.476033	-0.685500	0.700106	0.199851	-0.224930	-0.464709	0.856418
61312	5.001294	2.060609	8.780088	-0.019625	-0.063586	0.022025	0.692141	0.541984	0.476648	-0.685622	0.700071	0.199560	-0.225529	-0.464924	0.856144
61313	5.040075	2.049581	8.771826	-0.019426	-0.056598	0.021832	0.691873	0.541854	0.477187	-0.685707	0.700073	0.199261	-0.226095	-0.465073	0.855914
61314	5.011943	2.055165	8.775290	-0.017364	-0.046059	0.018802	0.691673	0.541694	0.477657	-0.685728	0.700133	0.198974	-0.226641	-0.465167	0.855718
61315	5.050271	2.023733	8.804620	-0.017392	-0.039428	0.016921	0.691476	0.541609	0.478039	-0.685783	0.700153	0.198715	-0.227074	-0.465238	0.855565
61316	5.177354	2.018171	8.797342	-0.007661	-0.017875	0.010601	0.691375	0.541561	0.478239	-0.685807	0.700169	0.198574	-0.227308	-0.465269	0.855486
61317	5.042998	1.980734	8.796799	-0.002821	-0.002125	0.006023	0.691338	0.541573	0.478280	-0.685820	0.700180	0.198492	-0.227384	-0.465239	0.855482
61318	5.108369	1.982480	8.860499	0.006992	0.006396	-0.001955	0.691328	0.541608	0.478254	-0.685853	0.700134	0.198538	-0.227313	-0.465267	0.855486
61319	5.188443	1.909696	8.816259	0.028671	0.030431	-0.014576	0.691505	0.541627	0.477976	-0.685795	0.700110	0.198824	-0.226947	-0.465281	0.855575
61320	4.936945	2.032110	8.778988	0.038196	0.048310	-0.021629	0.691803	0.541635	0.477535	-0.685672	0.700112	0.199240	-0.226412	-0.465267	0.855724
61321	4.885201	2.064071	8.781434	0.035873	0.047358	-0.023091	0.692077	0.541674	0.477094	-0.685571	0.700101	0.199629	-0.225880	-0.465240	0.855879
61322	4.827578	2.085840	8.762252	0.032357	0.043933	-0.016678	0.692370	0.541666	0.476677	-0.685431	0.700132	0.199998	-0.225405	-0.465202	0.856026
61323	4.770383	2.106988	8.742920	0.023985	0.038471	-0.020329	0.692605	0.541683	0.476318	-0.685322	0.700161	0.200271	-0.225016	-0.465140	0.856162
61324	4.769457	2.199811	8.729892	0.018419	0.021195	-0.009938	0.692829	0.541576	0.476112	-0.685156	0.700265	0.200476	-0.224831	-0.465106	0.856228
61325	4.919987	2.159072	8.734428	0.011159	0.017528	-0.005190	0.692913	0.541601	0.475962	-0.685122	0.700271	0.200567	-0.224675	-0.465068	0.856290
61326	4.941296	2.090806	8.760259	0.008300	0.022036	-0.001061	0.693004	0.541651	0.475772	-0.685092	0.700276	0.200655	-0.224487	-0.465002	0.856375
61327	4.900076	2.089872	8.745351	0.006404	0.025116	-0.000118	0.693070	0.541747	0.475567	-0.685083	0.700277	0.200681	-0.224310	-0.464890	0.856483
61328	4.952166	2.051868	8.804110	0.004300	0.024523	0.000089	0.693155	0.541805	0.475378	-0.685042	0.700312	0.200699	-0.224173	-0.464770	0.856584
61329	4.918666	2.021568	8.772738	0.006391	0.028431	-0.001058	0.693234	0.541909	0.475143	-0.685027	0.700318	0.200730	-0.223974	-0.464639	0.856707
61330	4.810906	2.037136	8.769137	0.007135	0.026643	-0.005922	0.693362	0.541932	0.474931	-0.684949	0.700377	0.200789	-0.223817	-0.464523	0.856811
61331	4.629249	2.100799	8.681118	0.010866	0.020034	0.003053	0.693394	0.542026	0.474776	-0.684972	0.700340	0.200839	-0.223645	-0.464469	0.856885
61332	4.631989	2.168327	8.815941	0.001657	-0.006978	0.003750	0.693362	0.541978	0.474877	-0.684969	0.700356	0.200798	-0.223755	-0.464502	0.856838
61333	4.764758	2.155827	8.756125	-0.002262	-0.024377	0.010561	0.693244	0.541918	0.475118	-0.685014	0.700339	0.200699	-0.223981	-0.464596	0.856728
61334	4.850569	2.188711	8.771497	-0.004130	-0.027925	0.013394	0.693120	0.541822	0.475409	-0.685044	0.700347	0.200572	-0.224277	-0.464696	0.856596
61335	4.917532	2.080724	8.773131	-0.008591	-0.029694	0.017552	0.692942	0.541786	0.475709	-0.685123	0.700322	0.200386	-0.224583	-0.464775	0.856473
61336	4.947331	2.061121	8.744823	-0.008826	-0.026739	0.014928	0.692738	0.541793	0.475997	-0.685246	0.700249	0.200223	-0.224837	-0.464877	0.856351
61337	4.969878	2.050077	8.770178	-0.007919	-0.021763	0.015284	0.692593	0.541779	0.476225	-0.685311	0.700233	0.200054	-0.225084	-0.464918	0.856264
61338	4.985751	2.029457	8.774288	-0.008141	-0.015269	0.006284	0.692581	0.541665	0.476373	-0.685250	0.700323	0.199950	-0.225309	-0.464917	0.856206
61339	4.920864	2.044931	8.785038	-0.004460	-0.008623	0.011478	0.692492	0.541684	0.476481	-0.685297	0.700312	0.199829	-0.225441	-0.464910	0.856174
61340	4.882390	2.042545	8.768948	-0.005157	-0.003071	0.004542	0.692472	0.541657	0.476540	-0.685279	0.700355	0.199739	-0.225557	-0.464877	0.856162
61341	4.888007	2.072363	8.753439	-0.004209	-0.008039	0.007731	0.692409	0.541653	0.476635	-0.685300	0.700363	0.199638	-0.225683	-0.464869	0.856133
61342	4.895120	2.081243	8.774603	-0.007708	-0.011236	0.008705	0.692301	0.541670	0.476774	-0.685361	0.700338	0.199516	-0.225831	-0.464887	0.856084
61343	4.901209	2.110743	8.758913	-0.004459	-0.008623	0.011480	0.692211	0.541689	0.476881	-0.685408	0.700327	0.199395	-0.225963	-0.464881	0.856053
61344	4.897096	2.079121	8.774003	-0.008905	-0.006852	0.009265	0.692185	0.541646	0.476969	-0.685377	0.700395	0.199263	-0.226137	-0.464831	0.856034
61345	4.933842	2.009919	8.766891	-0.008905	-0.006852	0.009266	0.692115	0.541658	0.477057	-0.685398	0.700416	0.199114	-0.226287	-0.464784	0.856020
61346	4.973642	2.010588	8.782613	-0.002117	-0.004133	0.006582	0.692085	0.541655	0.477104	-0.685413	0.700411	0.199082	-0.226335	-0.464795	0.856001
61347	4.931775	2.068297	8.768073	-0.002144	0.002497	0.004692	0.692067	0.541678	0.477103	-0.685418	0.700426	0.199013	-0.226374	-0.464745	0.856018
61348	4.920469	2.027779	8.762032	0.001842	0.003322	0.002597	0.692100	0.541651	0.477086	-0.685381	0.700462	0.199014	-0.226385	-0.464723	0.856027
61349	4.912169	2.057023	8.778903	0.001829	0.006637	0.001652	0.692113	0.541673	0.477044	-0.685374	0.700474	0.198993	-0.226368	-0.464679	0.856056
61350	4.883562	2.095986	8.769483	0.003934	0.007229	0.001446	0.692138	0.541685	0.476993	-0.685366	0.700474	0.199022	-0.226314	-0.464665	0.856077
61351	4.897060	2.076761	8.774582	0.000908	0.004976	0.000354	0.692156	0.541689	0.476962	-0.685348	0.700498	0.198999	-0.226315	-0.464623	0.856100
61352	5.353930	1.944593	9.010266	0.010038	0.012186	-0.007229	0.692297	0.541615	0.476841	-0.685240	0.700567	0.199127	-0.226209	-0.464605	0.856137
61353	6.131094	1.593401	9.257932	0.077975	0.086139	-0.045586	0.692813	0.541675	0.476023	-0.685078	0.700482	0.199983	-0.225120	-0.464664	0.856393
61354	5.849991	1.830809	8.961324	0.151758	0.220492	-0.086826	0.693944	0.542026	0.473971	-0.684754	0.700310	0.201689	-0.222606	-0.464514	0.857131
61355	4.771810	2.301320	8.671283	0.156670	0.278786	-0.080040	0.695118	0.542740	0.471428	-0.684522	0.700047	0.203382	-0.219638	-0.464078	0.858132
61356	4.318751	2.404753	8.674894	0.118072	0.233303	-0.068084	0.696087	0.543324	0.469320	-0.684296	0.699888	0.204687	-0.217260	-0.463633	0.858977
61357	4.524647	2.088918	8.688085	0.097617	0.194964	-0.053156	0.696882	0.543835	0.467546	-0.684114	0.699754	0.205746	-0.215276	-0.463235	0.859691
61358	4.565786	2.241136	8.723610	0.080185	0.162410	-0.043568	0.697574	0.544211	0.466075	-0.683915	0.699690	0.206625	-0.213660	-0.462891	0.860280
61359	4.457528	2.563570	8.663712	0.045208	0.140302	-0.024338	0.698048	0.544669	0.464827	-0.683820	0.699644	0.207098	-0.212414	-0.462423	0.860840
61360	4.378235	2.383899	8.633001	0.010084	0.101480	-0.007559	0.698385	0.544992	0.463941	-0.683697	0.699727	0.207220	-0.211699	-0.461914	0.861289
61361	4.592611	2.114585	8.757794	-0.004264	0.071352	0.010104	0.698476	0.545372	0.463358	-0.683736	0.699722	0.207107	-0.211271	-0.461474	0.861630
61362	4.635051	2.065385	8.798060	-0.014711	0.055338	0.009391	0.698499	0.545699	0.462939	-0.683790	0.699730	0.206904	-0.211025	-0.461075	0.861904
61363	4.608828	2.112068	8.811684	-0.016093	0.039490	0.013919	0.698496	0.545958	0.462638	-0.683831	0.699759	0.206672	-0.210901	-0.460725	0.862121
61364	4.667310	2.063185	8.818996	-0.019026	0.027501	0.010200	0.698523	0.546102	0.462427	-0.683811	0.699840	0.206462	-0.210876	-0.460431	0.862285
61365	4.718333	2.043684	8.842179	-0.014095	0.020060	0.012283	0.698490	0.546259	0.462290	-0.683845	0.699868	0.206254	-0.210874	-0.460201	0.862408
61366	4.680196	2.130415	8.812164	-0.011905	0.014239	0.008558	0.698505	0.546323	0.462193	-0.683821	0.699934	0.206109	-0.210903	-0.460025	0.862495
61367	4.673686	2.118935	8.791408	-0.013515	0.007960	0.008565	0.698472	0.546399	0.462152	-0.683830	0.699980	0.205923	-0.210981	-0.459866	0.862561
61368	4.684872	2.137186	8.835032	-0.015126	0.001680	0.008572	0.698375	0.546491	0.462191	-0.683895	0.699974	0.205729	-0.211092	-0.459766	0.862586
61369	4.651010	2.184638	8.766299	-0.013714	-0.005650	0.010644	0.698299	0.546519	0.462272	-0.683918	0.700009	0.205533	-0.211267	-0.459680	0.862590
61370	4.636313	2.220485	8.835820	-0.021932	-0.017598	0.015884	0.698128	0.546558	0.462485	-0.684002	0.700010	0.205251	-0.211562	-0.459632	0.862543
61371	4.702126	2.131620	8.802865	-0.022001	-0.021119	0.022252	0.697940	0.546596	0.462723	-0.684089	0.700019	0.204929	-0.211902	-0.459572	0.862491
61372	4.746628	2.070472	8.817837	-0.026424	-0.025983	0.021881	0.697869	0.546472	0.462976	-0.684020	0.700180	0.204607	-0.212355	-0.459474	0.862432
61373	4.755140	2.076964	8.838704	-0.028741	-0.026940	0.020387	0.697682	0.546470	0.463261	-0.684079	0.700231	0.204236	-0.212781	-0.459399	0.862367
61374	4.696337	2.140989	8.795723	-0.025925	-0.028357	0.020772	0.697479	0.546466	0.463570	-0.684158	0.700252	0.203900	-0.213192	-0.459371	0.862280
61375	4.569850	2.131048	8.777021	-0.032239	-0.043385	0.025092	0.697224	0.546421	0.464006	-0.684242	0.700293	0.203477	-0.213757	-0.459361	0.862146
61376	4.717170	2.132604	8.872978	-0.032154	-0.059734	0.024372	0.697000	0.546225	0.464574	-0.684250	0.700400	0.203081	-0.214459	-0.459432	0.861934
61377	5.124754	2.038361	8.942949	-0.019291	-0.049188	0.023067	0.696746	0.546140	0.465055	-0.684347	0.700393	0.202779	-0.214976	-0.459544	0.861745
61378	5.263679	2.052832	8.980639	-0.000271	-0.010514	0.006561	0.696741	0.546041	0.465179	-0.684299	0.700457	0.202720	-0.215144	-0.459564	0.861692
61379	5.090211	2.126122	8.911095	0.020791	0.028538	-0.004709	0.696844	0.546118	0.464934	-0.684288	0.700417	0.202892	-0.214845	-0.459533	0.861784
61380	4.893228	2.079280	8.904164	0.029005	0.047108	-0.011834	0.697099	0.546150	0.464514	-0.684168	0.700451	0.203182	-0.214401	-0.459443	0.861942
61381	4.817403	2.091518	8.782835	0.039337	0.059646	-0.017259	0.697354	0.546283	0.463975	-0.684109	0.700395	0.203573	-0.213758	-0.459372	0.862140
61382	4.574384	2.143163	8.798676	0.035551	0.052562	-0.011627	0.697588	0.546376	0.463512	-0.684041	0.700361	0.203917	-0.213210	-0.459312	0.862308
61383	4.562015	2.175673	8.816408	0.026704	0.036215	-0.010487	0.697746	0.546448	0.463189	-0.684002	0.700326	0.204167	-0.212817	-0.459280	0.862422
61384	4.691880	2.144968	8.797132	0.015882	0.022740	-0.002998	0.697836	0.546503	0.462989	-0.683991	0.700290	0.204330	-0.212560	-0.459270	0.862490
61385	4.612956	2.122019	8.801716	0.006462	0.015180	0.002799	0.697858	0.546572	0.462875	-0.684002	0.700275	0.204344	-0.212451	-0.459211	0.862549
61386	4.662316	2.163975	8.824650	-0.002254	-0.001012	0.011038	0.697719	0.546676	0.462962	-0.684123	0.700193	0.204220	-0.212521	-0.459211	0.862531
61387	4.829787	2.080851	8.873315	-0.003732	-0.007137	0.018155	0.697588	0.546749	0.463072	-0.684219	0.700142	0.204075	-0.212638	-0.459203	0.862507
61388	5.066262	2.030900	8.971530	0.004638	0.008537	0.001120	0.697606	0.546756	0.463037	-0.684205	0.700158	0.204067	-0.212624	-0.459171	0.862527
61389	5.047315	1.982218	8.944758	0.026927	0.039885	-0.009731	0.697767	0.546850	0.462684	-0.684172	0.700117	0.204315	-0.212204	-0.459120	0.862658
61390	4.718363	2.100137	8.869103	0.036775	0.048171	-0.012146	0.697973	0.546938	0.462268	-0.684124	0.700062	0.204663	-0.211678	-0.459098	0.862799
61391	4.661275	2.121353	8.848720	0.031648	0.042008	-0.012141	0.698155	0.547025	0.461891	-0.684084	0.700014	0.204964	-0.211210	-0.459069	0.862929
61392	4.699217	2.086887	8.828539	0.026024	0.031597	-0.009141	0.698327	0.547044	0.461607	-0.684016	0.700003	0.205227	-0.210858	-0.459062	0.863018
61393	4.682186	2.129321	8.787053	0.025321	0.023673	-0.006883	0.698434	0.547084	0.461400	-0.683999	0.699955	0.205449	-0.210561	-0.459089	0.863077
61394	4.702251	2.191677	8.836939	0.015191	0.024748	-0.003544	0.698490	0.547170	0.461213	-0.684014	0.699905	0.205566	-0.210326	-0.459062	0.863148
61395	4.756344	2.115883	8.858542	0.016596	0.014108	-0.000528	0.698532	0.547210	0.461101	-0.684023	0.699862	0.205683	-0.210155	-0.459080	0.863180
61396	5.159693	2.056496	9.029758	0.026032	0.031595	-0.009128	0.698666	0.547262	0.460836	-0.683993	0.699821	0.205924	-0.209808	-0.459081	0.863264
61397	5.734881	2.020258	9.147658	0.068558	0.103622	-0.033388	0.699121	0.547483	0.459883	-0.683880	0.699719	0.206641	-0.208657	-0.458972	0.863601
61398	5.288221	2.001211	8.948948	0.110849	0.185008	-0.056637	0.699961	0.547840	0.458177	-0.683621	0.699615	0.207847	-0.206680	-0.458704	0.864219
61399	4.596397	2.200369	8.823250	0.117059	0.196351	-0.061530	0.700795	0.548289	0.456362	-0.683409	0.699446	0.209112	-0.204547	-0.458426	0.864874
61400	4.208363	2.223774	8.725473	0.098503	0.165263	-0.048941	0.701454	0.548695	0.454858	-0.683267	0.699270	0.210163	-0.202753	-0.458209	0.865411
61401	4.270389	2.038197	8.718797	0.081109	0.129809	-0.049489	0.702064	0.548923	0.453641	-0.683061	0.699200	0.211061	-0.201329	-0.458043	0.865831
61402	4.301714	2.009151	8.701234	0.071426	0.088803	-0.035982	0.702450	0.549091	0.452839	-0.682978	0.699056	0.211803	-0.200260	-0.458060	0.866070
61403	4.216015	2.162014	8.654491	0.057825	0.060401	-0.029667	0.702783	0.549139	0.452263	-0.682863	0.698985	0.212409	-0.199483	-0.458112	0.866222
61404	4.268465	2.330245	8.647307	0.043197	0.026830	-0.018323	0.702973	0.549096	0.452020	-0.682790	0.698927	0.212836	-0.199062	-0.458253	0.866244
61405	4.377749	2.309043	8.713731	0.015901	-0.000395	-0.008812	0.703042	0.549011	0.452016	-0.682738	0.698933	0.212984	-0.198998	-0.458345	0.866210
61406	4.536320	2.258253	8.780704	0.002794	-0.014640	0.004175	0.703045	0.548909	0.452137	-0.682706	0.698956	0.213010	-0.199100	-0.458432	0.866140
61407	4.610171	2.231244	8.829517	-0.009995	-0.021711	0.011542	0.702932	0.548868	0.452360	-0.682745	0.698969	0.212843	-0.199363	-0.458460	0.866065
61408	4.588243	2.168046	8.891501	-0.011012	-0.026878	0.016594	0.702692	0.548904	0.452690	-0.682900	0.698888	0.212609	-0.199678	-0.458541	0.865950
61409	4.586104	2.135663	8.905994	-0.017557	-0.035652	0.017303	0.702512	0.548840	0.453046	-0.682965	0.698904	0.212349	-0.200090	-0.458593	0.865827
61410	4.655978	2.157466	8.821112	-0.014546	-0.039999	0.020339	0.702278	0.548799	0.453458	-0.683086	0.698857	0.212113	-0.200495	-0.458713	0.865670
61411	4.640720	1.775079	8.837209	-0.010218	-0.041928	0.015528	0.702098	0.548694	0.453865	-0.683153	0.698849	0.211925	-0.200901	-0.458851	0.865503
61412	4.724629	1.439375	8.972817	0.021670	-0.042538	-0.007550	0.702064	0.548417	0.454252	-0.683123	0.698823	0.212108	-0.201118	-0.459223	0.865255
61413	4.798644	1.976264	8.922850	0.046117	-0.040368	-0.022475	0.702146	0.548053	0.454564	-0.683036	0.698764	0.212580	-0.201128	-0.459746	0.864975
61414	4.658700	2.513046	8.761251	0.031045	-0.031867	-0.021316	0.702236	0.547724	0.454822	-0.682922	0.698774	0.212914	-0.201200	-0.460124	0.864757
61415	4.516450	2.676871	8.719900	-0.001944	-0.039912	0.000676	0.702161	0.547524	0.455179	-0.682901	0.698809	0.212865	-0.201535	-0.460308	0.864581
61416	4.425135	2.549787	8.635320	-0.042979	-0.059520	0.029569	0.701875	0.547398	0.455771	-0.682967	0.698905	0.212340	-0.202307	-0.460313	0.864398
61417	4.382796	2.111549	8.655757	-0.061977	-0.078112	0.047450	0.701402	0.547348	0.456558	-0.683152	0.698961	0.211559	-0.203320	-0.460286	0.864174
61418	4.397185	1.814484	8.815716	-0.050133	-0.105789	0.035698	0.700940	0.547075	0.457593	-0.683276	0.699036	0.210909	-0.204491	-0.460497	0.863786
61419	4.373132	2.635484	8.764435	-0.044406	-0.151428	0.043422	0.700342	0.546660	0.459003	-0.683467	0.699034	0.210297	-0.205898	-0.460994	0.863186
61420	4.315736	3.084102	8.591688	-0.087762	-0.175486	0.064847	0.699581	0.546229	0.460674	-0.683669	0.699160	0.209216	-0.207805	-0.461312	0.862559
61421	4.664911	2.605888	9.049938	-0.110913	-0.211797	0.075478	0.698632	0.545758	0.462668	-0.683943	0.699291	0.207882	-0.210086	-0.461671	0.861814
61422	6.486041	1.792454	9.686542	-0.044774	-0.162303	0.048536	0.697943	0.545353	0.464183	-0.684198	0.699226	0.207259	-0.211539	-0.462248	0.861149
61423	6.015645	1.682868	9.084009	0.034740	0.040910	0.002375	0.698023	0.545537	0.463847	-0.684265	0.699083	0.207519	-0.211058	-0.462247	0.861268
61424	4.669454	2.310399	8.820126	0.049797	0.068788	-0.009274	0.698270	0.545727	0.463251	-0.684247	0.698966	0.207975	-0.210299	-0.462200	0.861479
61425	4.527782	2.189120	8.722872	0.041154	0.056121	-0.007367	0.698448	0.545913	0.462763	-0.684259	0.698846	0.208335	-0.209668	-0.462161	0.861654
61426	4.658214	1.969309	8.792950	0.036233	0.033782	-0.000927	0.698575	0.545987	0.462484	-0.684257	0.698759	0.208636	-0.209252	-0.462206	0.861731
61427	4.774376	1.959077	8.768450	0.038708	0.021895	-0.006477	0.698674	0.546022	0.462292	-0.684270	0.698646	0.208971	-0.208876	-0.462336	0.861752
61428	4.794877	1.873705	8.832483	0.038504	0.034759	-0.011951	0.698856	0.546061	0.461973	-0.684230	0.698569	0.209357	-0.208398	-0.462406	0.861830
61429	4.797414	1.997515	8.914367	0.045415	0.031042	-0.018070	0.699053	0.546057	0.461678	-0.684176	0.698488	0.209803	-0.207912	-0.462533	0.861879
61430	4.946255	2.131453	8.758926	0.046624	0.046505	-0.024295	0.699325	0.546057	0.461266	-0.684069	0.698452	0.210273	-0.207351	-0.462587	0.861985
61431	4.675485	2.222388	8.762317	0.039017	0.055538	-0.019684	0.699584	0.546155	0.460757	-0.683990	0.698409	0.210671	-0.206738	-0.462535	0.862160
61432	4.458284	2.274507	8.824649	0.027466	0.040790	-0.011814	0.699775	0.546224	0.460385	-0.683928	0.698382	0.210961	-0.206293	-0.462495	0.862288
61433	4.474486	2.437004	8.800155	0.007869	0.004566	0.005825	0.699754	0.546264	0.460369	-0.683963	0.698345	0.210973	-0.206249	-0.462504	0.862294
61434	4.429051	2.442968	8.836447	-0.025312	-0.026966	0.020368	0.699559	0.546248	0.460684	-0.684031	0.698386	0.210617	-0.206686	-0.462461	0.862213
61435	4.580039	2.365813	8.858891	-0.051317	-0.045310	0.038275	0.699213	0.546284	0.461166	-0.684170	0.698444	0.209970	-0.207396	-0.462330	0.862113
61436	4.573268	2.337807	8.926321	-0.058148	-0.074481	0.048493	0.698672	0.546326	0.461937	-0.684444	0.698400	0.209222	-0.208313	-0.462348	0.861882
61437	4.768975	2.259849	8.851820	-0.072496	-0.081196	0.054103	0.698141	0.546307	0.462761	-0.684648	0.698470	0.208319	-0.209419	-0.462264	0.861659
61438	4.938599	2.138583	8.914767	-0.071770	-0.076588	0.052816	0.697646	0.546249	0.463575	-0.684805	0.698589	0.207405	-0.210553	-0.462153	0.861442
61439	4.979286	1.992367	8.885009	-0.062316	-0.065742	0.046100	0.697201	0.546246	0.464248	-0.684972	0.698655	0.206625	-0.211481	-0.462056	0.861267
61440	5.045360	1.958668	8.851979	-0.050752	-0.041070	0.035391	0.696886	0.546263	0.464700	-0.685078	0.698737	0.205997	-0.212174	-0.461912	0.861173
61441	5.067950	1.814547	8.855481	-0.038207	-0.011222	0.019598	0.696738	0.546327	0.464848	-0.685111	0.698837	0.205548	-0.212556	-0.461686	0.861200
61442	5.088313	1.801797	8.882578	-0.021946	0.002328	0.010234	0.696685	0.546375	0.464870	-0.685107	0.698916	0.205291	-0.212739	-0.461509	0.861250
61443	5.130087	1.853311	8.847748	0.002562	0.041040	-0.008184	0.696838	0.546486	0.464510	-0.685033	0.698979	0.205323	-0.212477	-0.461282	0.861436
61444	5.014933	1.819227	8.896455	0.017926	0.069472	-0.023580	0.697169	0.546597	0.463882	-0.684868	0.699069	0.205568	-0.211923	-0.461013	0.861716
61445	4.828896	2.034537	8.793362	0.027096	0.086373	-0.028454	0.697556	0.546775	0.463090	-0.684704	0.699131	0.205904	-0.211177	-0.460710	0.862062
61446	4.651030	2.310029	8.770824	0.033725	0.085401	-0.031771	0.697934	0.546935	0.462332	-0.684554	0.699162	0.206296	-0.210415	-0.460472	0.862375
61447	4.472002	2.345067	8.776855	0.019364	0.072070	-0.024281	0.698261	0.547075	0.461672	-0.684403	0.699236	0.206546	-0.209821	-0.460192	0.862669
61448	4.579390	2.323465	8.732752	0.012720	0.046568	-0.013367	0.698450	0.547174	0.461268	-0.684322	0.699273	0.206691	-0.209457	-0.460019	0.862850
61449	4.584045	2.404354	8.778052	0.001864	0.033119	-0.005889	0.698569	0.547264	0.460982	-0.684262	0.699327	0.206705	-0.209255	-0.459830	0.863000
61450	4.483082	2.279106	8.808149	-0.007885	0.015088	0.006469	0.698616	0.547292	0.460876	-0.684207	0.699414	0.206594	-0.209276	-0.459664	0.863083
61451	4.646188	2.146321	8.799337	-0.013951	-0.002669	0.007985	0.698566	0.547314	0.460927	-0.684210	0.699465	0.206408	-0.209432	-0.459561	0.863100
61452	4.871807	1.925746	8.870113	-0.010226	-0.002417	0.009689	0.698465	0.547395	0.460983	-0.684286	0.699434	0.206263	-0.209520	-0.459512	0.863105
61453	4.855039	1.874733	8.842819	0.002329	0.007578	-0.000383	0.698493	0.547405	0.460928	-0.684266	0.699456	0.206256	-0.209493	-0.459466	0.863136
61454	4.832124	1.903907	8.891133	0.011569	0.014749	-0.007842	0.698585	0.547404	0.460791	-0.684223	0.699459	0.206388	-0.209327	-0.459464	0.863177
61455	4.866033	1.858225	8.849189	0.018989	0.021893	-0.018864	0.698769	0.547351	0.460575	-0.684109	0.699505	0.206610	-0.209086	-0.459456	0.863240
61456	4.808413	1.878316	8.939800	0.037470	0.032927	-0.032828	0.699087	0.547247	0.460216	-0.683931	0.699536	0.207094	-0.208606	-0.459532	0.863316
61457	4.687526	2.027322	8.876320	0.033589	0.038904	-0.025558	0.699352	0.547226	0.459838	-0.683800	0.699552	0.207472	-0.208147	-0.459533	0.863426
61458	4.610419	2.468286	8.858470	0.057461	0.020267	-0.032839	0.699628	0.547050	0.459628	-0.683659	0.699508	0.208083	-0.207682	-0.459809	0.863391
61459	4.632036	2.535418	8.795376	0.032130	0.019773	-0.032609	0.699901	0.546891	0.459400	-0.683475	0.699570	0.208481	-0.207366	-0.459905	0.863416
61460	4.836063	2.309964	8.876957	0.031832	0.012596	-0.026968	0.700094	0.546770	0.459250	-0.683367	0.699560	0.208866	-0.207071	-0.460063	0.863402
61461	4.728828	2.348721	8.832594	0.028727	0.013450	-0.023619	0.700292	0.546646	0.459096	-0.683239	0.699588	0.209194	-0.206823	-0.460169	0.863405
61462	4.744749	2.232421	8.911928	0.021105	0.015866	-0.017126	0.700457	0.546568	0.458938	-0.683136	0.699614	0.209441	-0.206605	-0.460221	0.863430
61463	4.889828	2.162931	8.935752	0.027152	0.020395	-0.014853	0.700610	0.546536	0.458742	-0.683065	0.699601	0.209715	-0.206319	-0.460279	0.863467
61464	4.692783	2.286155	8.874981	0.028481	0.029424	-0.012065	0.700790	0.546528	0.458476	-0.682984	0.699595	0.210001	-0.205976	-0.460298	0.863539
61465	4.725928	2.350732	8.892723	0.030907	0.023957	-0.001548	0.700860	0.546606	0.458277	-0.683014	0.699491	0.210246	-0.205639	-0.460363	0.863585
61466	4.558550	2.265110	8.894442	0.033427	0.021986	0.002597	0.700870	0.546731	0.458111	-0.683113	0.699317	0.210507	-0.205274	-0.460479	0.863609
61467	4.167225	2.526093	8.845484	0.017620	-0.017100	0.029944	0.700640	0.546840	0.458333	-0.683336	0.699102	0.210493	-0.205316	-0.460675	0.863495
61468	4.058835	2.978092	8.770163	-0.019345	-0.072038	0.049353	0.700243	0.546744	0.459054	-0.683532	0.699029	0.210102	-0.206020	-0.460900	0.863207
61469	3.718945	3.083342	8.750769	-0.074211	-0.153414	0.080039	0.699388	0.546575	0.460557	-0.683916	0.698964	0.209065	-0.207643	-0.461200	0.862658
61470	3.507945	3.360229	8.505113	-0.131928	-0.266628	0.125443	0.698036	0.546130	0.463128	-0.684429	0.698977	0.207336	-0.210483	-0.461706	0.861699
61471	3.615257	2.886538	8.442091	-0.186024	-0.376841	0.175697	0.696042	0.545595	0.466746	-0.685235	0.698909	0.204889	-0.214426	-0.462442	0.860331
61472	4.481986	1.858950	8.896114	-0.188757	-0.461838	0.199017	0.693678	0.544833	0.471136	-0.686199	0.698711	0.202321	-0.218956	-0.463638	0.858544
61473	5.058541	1.615432	9.053381	-0.179096	-0.474354	0.192552	0.691315	0.543954	0.475602	-0.687113	0.698525	0.199846	-0.223513	-0.464949	0.856659
61474	5.025658	1.907284	8.935971	-0.171868	-0.471684	0.190683	0.688945	0.543057	0.480046	-0.688017	0.698322	0.197433	-0.228010	-0.466300	0.854737
61475	4.610424	2.020075	9.069045	-0.177065	-0.492246	0.202910	0.686423	0.542153	0.484658	-0.688981	0.698079	0.194915	-0.232656	-0.467714	0.852710
61476	4.742555	2.275919	9.090503	-0.176742	-0.542339	0.216532	0.683723	0.541039	0.489693	-0.689962	0.697819	0.192355	-0.237645	-0.469387	0.850412
61477	4.386712	2.680318	9.163439	-0.185869	-0.584863	0.257110	0.680551	0.540060	0.495162	-0.691246	0.697335	0.189484	-0.242961	-0.471232	0.847886
61478	2.803187	3.783835	9.754395	-0.337920	-0.761775	0.177858	0.677481	0.537666	0.501930	-0.691577	0.698009	0.185752	-0.250479	-0.472967	0.844726
61479	3.635673	0.200411	11.768190	-0.064217	-1.136602	0.491221	0.671192	0.535660	0.512416	-0.694702	0.695710	0.182693	-0.258631	-0.478599	0.839079
61480	3.253492	2.335310	9.729004	0.223262	-1.043319	0.544696	0.664661	0.534407	0.522145	-0.698923	0.691726	0.181719	-0.264069	-0.485721	0.833272
61481	4.707598	2.189293	10.661896	0.269854	-1.464932	0.668764	0.656052	0.531809	0.535514	-0.704038	0.686868	0.180394	-0.271892	-0.495370	0.825035
61482	3.360380	2.351625	10.825197	0.277807	-1.763308	0.809818	0.645425	0.528524	0.551443	-0.710087	0.681183	0.178234	-0.281432	-0.506609	0.814950
61483	4.179127	2.290270	10.027020	0.406171	-2.078532	1.032836	0.632101	0.524826	0.570093	-0.717824	0.673690	0.175703	-0.291852	-0.520288	0.802572
61484	5.317752	2.470913	10.460537	0.526651	-2.387608	1.201371	0.616314	0.520261	0.591174	-0.726890	0.664634	0.172892	-0.302966	-0.536274	0.787796
61485	7.020673	9.118839	12.991210	0.374836	-2.546296	1.412284	0.598110	0.515705	0.613444	-0.736601	0.655313	0.167286	-0.315728	-0.551919	0.771817
61486	5.562779	10.286692	11.652671	-0.693153	-2.638187	1.483325	0.578578	0.510691	0.635958	-0.743024	0.651606	0.152727	-0.336398	-0.560896	0.756460
61487	4.945472	7.476730	11.785265	-1.143017	-2.611286	1.344943	0.559477	0.504707	0.657463	-0.746672	0.651256	0.135448	-0.359815	-0.566689	0.741213
61488	2.907555	6.410376	11.545394	-1.143974	-2.567216	0.833375	0.543791	0.495479	0.677342	-0.746949	0.653685	0.121500	-0.382568	-0.572011	0.725566
61489	7.274847	5.939521	14.373832	-0.342647	-2.182921	0.085604	0.534651	0.483437	0.693136	-0.746048	0.655275	0.118434	-0.396939	-0.580433	0.711011
61490	3.933272	6.957751	13.817457	-0.041506	-1.560100	-0.350819	0.531089	0.471988	0.703684	-0.743949	0.657258	0.120630	-0.405566	-0.587571	0.700198
61491	0.207245	6.110319	11.691847	-0.128994	-1.231452	-0.503523	0.529793	0.461382	0.711650	-0.740722	0.660403	0.123279	-0.413098	-0.592447	0.691633
61492	-0.983322	2.948520	10.971741	-0.220650	-1.047109	-0.484255	0.529019	0.451965	0.718239	-0.737222	0.663950	0.125199	-0.420289	-0.595734	0.684440
61493	-1.275772	0.703673	11.749143	-0.095427	-0.731728	-0.407755	0.528934	0.444860	0.722723	-0.734633	0.666382	0.127470	-0.424903	-0.598359	0.679282
61494	-1.516666	0.197558	12.857672	0.099630	-0.263486	-0.256518	0.529693	0.441645	0.724138	-0.733788	0.666811	0.130070	-0.425418	-0.600261	0.677279
61495	-1.621489	0.135246	13.313692	0.211971	0.303381	-0.060696	0.531431	0.443038	0.722010	-0.734336	0.665842	0.131931	-0.422294	-0.600310	0.679188
61496	-1.641885	-0.317395	13.140129	0.298062	0.895560	0.144873	0.534037	0.449510	0.716062	-0.736498	0.663251	0.132921	-0.415180	-0.598363	0.685264
61497	-1.526540	-0.719518	12.740755	0.417342	1.452820	0.350420	0.537411	0.460469	0.706511	-0.740058	0.659202	0.133292	-0.404357	-0.594492	0.695036
61498	-0.973685	-0.738349	12.412098	0.555108	1.954465	0.530185	0.541160	0.475691	0.693444	-0.745243	0.653307	0.133426	-0.389562	-0.588989	0.708049
61499	0.086091	-0.244802	12.053672	0.680689	2.405817	0.687604	0.545176	0.494219	0.677149	-0.751542	0.646022	0.133569	-0.371441	-0.581724	0.723622
61500	1.102985	0.543937	11.464408	0.736423	2.793391	0.799622	0.549167	0.515670	0.657647	-0.758663	0.637653	0.133527	-0.350495	-0.572261	0.741398
61501	1.713697	1.314731	10.619213	0.746861	3.076999	0.814606	0.553404	0.538242	0.635641	-0.765662	0.629163	0.133847	-0.327880	-0.560758	0.760293
61502	1.952997	1.786691	9.915834	0.739336	3.196590	0.707841	0.557941	0.560630	0.611880	-0.772078	0.621022	0.135010	-0.304300	-0.547746	0.779343
61503	2.809087	2.052218	9.859363	0.741147	3.171035	0.478789	0.563520	0.580723	0.587543	-0.776908	0.614314	0.137959	-0.280820	-0.534210	0.797346
61504	4.301257	2.436853	10.159156	0.749221	3.094995	0.159516	0.570492	0.598267	0.562687	-0.779961	0.609277	0.142977	-0.257293	-0.520441	0.814212
61505	5.278518	2.808963	10.255204	0.708862	2.991529	-0.202105	0.579437	0.612382	0.537812	-0.780521	0.606893	0.149891	-0.234604	-0.506626	0.829633
61506	5.702354	2.680562	9.748083	0.623034	2.840620	-0.549117	0.589904	0.623501	0.513088	-0.778873	0.606985	0.157876	-0.213001	-0.492763	0.843692
61507	5.638740	1.860908	8.901149	0.547243	2.598302	-0.832515	0.601662	0.631053	0.489668	-0.775005	0.609579	0.166673	-0.193312	-0.479776	0.855830
61508	5.605029	0.927121	8.152399	0.505730	2.314777	-1.037823	0.613797	0.635909	0.467839	-0.769764	0.613632	0.175840	-0.175263	-0.468056	0.866145
61509	5.405124	-0.307782	7.895615	0.495869	2.024801	-1.163938	0.626115	0.638095	0.448124	-0.763358	0.618781	0.185457	-0.158951	-0.458196	0.874523
61510	5.318626	-1.839061	8.152574	0.544672	1.747406	-1.243200	0.638108	0.638514	0.430254	-0.756417	0.624180	0.195532	-0.143706	-0.450222	0.881277
61511	5.678455	-2.616345	8.709008	0.646594	1.506673	-1.317626	0.650091	0.636976	0.414298	-0.748795	0.629720	0.206780	-0.129178	-0.444650	0.886340
61512	6.732888	-2.308491	9.298523	0.660941	1.315248	-1.374850	0.661789	0.634331	0.399573	-0.740730	0.635420	0.218083	-0.115560	-0.440301	0.890383
61513	8.138685	-1.577857	9.799819	0.512207	1.188756	-1.413367	0.673511	0.630494	0.385824	-0.731839	0.642144	0.228171	-0.103894	-0.436037	0.893911
61514	9.682367	-0.564749	9.878923	0.201245	1.117654	-1.418775	0.684802	0.626376	0.372422	-0.722533	0.650117	0.235149	-0.094826	-0.430118	0.897779
61515	11.212245	0.510963	9.509596	-0.222638	1.102818	-1.348538	0.695506	0.622225	0.359316	-0.713005	0.659513	0.238046	-0.088855	-0.421756	0.902345
61516	12.554202	1.036517	8.737206	-0.651161	1.123034	-1.213656	0.704962	0.619021	0.346180	-0.704061	0.669692	0.236245	-0.085594	-0.410275	0.907936
61517	13.020146	0.992206	6.132711	-0.995564	0.909431	-0.942773	0.712356	0.616318	0.335709	-0.696509	0.679566	0.230359	-0.086162	-0.397922	0.913364
61518	11.486892	-3.043649	-1.014384	-1.016099	0.335559	-0.440550	0.715602	0.614777	0.331607	-0.692573	0.686225	0.222346	-0.090864	-0.388773	0.916842
61519	15.352706	-3.749475	-1.820273	-0.809610	-0.236112	0.055946	0.715002	0.614231	0.333905	-0.692192	0.689039	0.214698	-0.098200	-0.384636	0.917830
61520	16.570854	-2.516245	-0.962615	-0.355096	-0.631912	0.261369	0.712475	0.613704	0.340215	-0.693767	0.688776	0.210417	-0.105198	-0.385947	0.916503
61521	17.194298	-1.302456	-0.354215	-0.051716	-0.898454	0.283207	0.709542	0.612144	0.349041	-0.695708	0.687268	0.208934	-0.111987	-0.391078	0.913519
61522	15.862814	-0.146574	-0.384097	0.118157	-1.138956	0.236263	0.706543	0.609323	0.359893	-0.697548	0.685360	0.209067	-0.119266	-0.398758	0.909268
61523	14.133227	-1.065716	-0.773360	0.262469	-1.399787	0.290550	0.702796	0.605639	0.373201	-0.699902	0.682562	0.210348	-0.127338	-0.409036	0.903590
61524	11.976680	-1.974047	-0.838380	0.581861	-1.713872	0.504910	0.696993	0.601942	0.389701	-0.704196	0.677120	0.213581	-0.135311	-0.423290	0.895833
61525	6.380773	5.064656	4.578230	0.773146	-1.838765	0.669104	0.689716	0.598498	0.407544	-0.709892	0.669797	0.217773	-0.142635	-0.439514	0.886838
61526	7.597404	9.377822	13.630396	0.247409	-1.609005	0.756207	0.681958	0.596365	0.423418	-0.715431	0.664204	0.216773	-0.151960	-0.450756	0.879618
61527	9.253167	9.309375	15.839641	0.131178	-1.099284	0.521782	0.676518	0.594808	0.434198	-0.719161	0.660530	0.215655	-0.158528	-0.458152	0.874623
61528	6.995767	8.889721	8.290913	-0.167655	-0.770690	0.388818	0.672497	0.593783	0.441780	-0.721474	0.659042	0.212460	-0.164997	-0.461611	0.871603
61529	3.979018	4.834545	4.997909	-0.299171	-1.016077	0.238844	0.669059	0.590629	0.451129	-0.722550	0.659045	0.208761	-0.174014	-0.465637	0.867699
61530	7.552901	4.357677	10.278697	-0.348590	-1.094895	0.032395	0.666906	0.585653	0.460702	-0.722089	0.660545	0.205589	-0.183910	-0.469777	0.863416
61531	18.220439	-0.871540	17.806335	-0.132692	-0.838019	-0.030761	0.665568	0.581478	0.467869	-0.721617	0.661381	0.204559	-0.190493	-0.473770	0.859799
61532	8.248750	-5.924569	9.822587	-0.182888	0.263608	0.022707	0.665953	0.582791	0.465683	-0.721357	0.662182	0.202876	-0.190132	-0.471030	0.861383
61533	3.528482	1.226760	8.456159	0.154653	-0.072791	-0.005620	0.665865	0.582392	0.466308	-0.721594	0.661516	0.204204	-0.189543	-0.472458	0.860731
61534	6.205905	4.719314	10.427874	-0.060804	0.017799	-0.027127	0.666130	0.582231	0.466132	-0.721247	0.662020	0.203796	-0.189932	-0.471951	0.860923
61535	3.854046	0.415783	8.756574	-0.046149	-0.042040	-0.016348	0.666177	0.581906	0.466470	-0.721031	0.662363	0.203446	-0.190586	-0.471870	0.860823
61536	5.684733	0.486654	9.824169	0.003042	-0.092481	-0.023055	0.666203	0.581249	0.467250	-0.720831	0.662543	0.203569	-0.191249	-0.472427	0.860370
61537	4.541412	2.804274	8.409588	-0.019136	-0.023628	-0.018300	0.666299	0.580997	0.467426	-0.720653	0.662770	0.203460	-0.191586	-0.472418	0.860300
61538	4.688031	3.298115	8.351184	-0.085568	-0.069528	0.010333	0.666126	0.580672	0.468077	-0.720507	0.663172	0.202665	-0.192734	-0.472252	0.860135
61539	4.707455	2.434188	8.480453	-0.095743	-0.052579	0.028953	0.665825	0.580598	0.468597	-0.720495	0.663486	0.201676	-0.193815	-0.471903	0.860083
61540	4.839227	2.293888	8.367006	-0.096513	-0.053989	0.034880	0.665507	0.580505	0.469164	-0.720486	0.663800	0.200673	-0.194940	-0.471575	0.860009
61541	4.774447	2.186338	8.601693	-0.110166	-0.030377	0.038792	0.665177	0.580601	0.469513	-0.720509	0.664125	0.199514	-0.195977	-0.471000	0.860088
61542	4.454689	2.067957	8.858679	-0.099191	-0.049213	0.033520	0.664876	0.580523	0.470035	-0.720483	0.664458	0.198494	-0.197088	-0.470626	0.860039
61543	4.371159	1.698536	8.859462	-0.104578	-0.096433	0.029582	0.664481	0.580247	0.470933	-0.720453	0.664809	0.197426	-0.198525	-0.470471	0.859794
61544	4.867991	1.682221	9.081893	-0.083678	-0.142074	0.008634	0.664172	0.579569	0.472202	-0.720291	0.665212	0.196655	-0.200139	-0.470736	0.859274
61545	5.026190	2.132916	8.872251	-0.058697	-0.136453	-0.009545	0.663976	0.578844	0.473366	-0.720090	0.665574	0.196167	-0.201510	-0.471116	0.858745
61546	5.038795	2.306933	8.753620	-0.058248	-0.129331	-0.015264	0.663860	0.578067	0.474477	-0.719819	0.665996	0.195729	-0.202856	-0.471475	0.858232
61547	5.315705	2.055437	8.844195	-0.038940	-0.105348	-0.013492	0.663752	0.577462	0.475365	-0.719631	0.666288	0.195429	-0.203877	-0.471804	0.857808
61548	5.028701	2.142639	8.884498	-0.028041	-0.067400	-0.017688	0.663777	0.576958	0.475940	-0.719403	0.666582	0.195263	-0.204594	-0.472004	0.857527
61549	4.859214	2.329484	8.787827	-0.022191	-0.079508	-0.010455	0.663699	0.576494	0.476612	-0.719268	0.666777	0.195094	-0.205323	-0.472295	0.857193
61550	5.140440	2.188562	8.825092	-0.035305	-0.086725	0.000968	0.663550	0.576023	0.477388	-0.719149	0.666999	0.194777	-0.206221	-0.472557	0.856833
61551	5.224750	1.827959	8.968623	-0.027195	-0.056818	0.001006	0.663434	0.575742	0.477887	-0.719079	0.667152	0.194510	-0.206836	-0.472683	0.856615
61552	5.092197	2.273771	8.850830	-0.013133	-0.048093	-0.003585	0.663397	0.575422	0.478324	-0.718974	0.667295	0.194405	-0.207318	-0.472870	0.856395
61553	5.220806	2.261586	8.732951	-0.029858	-0.036213	0.003959	0.663302	0.575259	0.478652	-0.718918	0.667444	0.194101	-0.207815	-0.472859	0.856281
61554	5.177277	1.910932	8.882746	-0.019835	-0.015669	0.006764	0.663259	0.575159	0.478832	-0.718867	0.667561	0.193891	-0.208131	-0.472816	0.856228
61555	5.068161	2.038280	8.742429	-0.004623	-0.008058	0.000658	0.663246	0.575107	0.478912	-0.718841	0.667609	0.193819	-0.208259	-0.472811	0.856199
61556	4.976664	1.938010	8.816933	-0.011660	0.005018	0.000453	0.663292	0.575062	0.478903	-0.718764	0.667724	0.193709	-0.208380	-0.472704	0.856230
61557	4.950694	1.996847	8.768706	-0.003825	-0.003476	-0.000728	0.663299	0.575022	0.478941	-0.718731	0.667776	0.193650	-0.208472	-0.472678	0.856221
61558	5.257773	1.986934	8.654029	-0.001861	0.012665	-0.003781	0.663389	0.574987	0.478858	-0.718648	0.667868	0.193644	-0.208471	-0.472591	0.856269
61559	5.098291	1.908010	8.739789	0.012569	0.041045	-0.008837	0.663547	0.575103	0.478499	-0.718595	0.667890	0.193765	-0.208150	-0.472419	0.856442
61560	4.852509	2.217886	8.695664	0.018996	0.045814	-0.004882	0.663715	0.575216	0.478130	-0.718547	0.667890	0.193942	-0.207780	-0.472281	0.856609
61561	4.861562	2.239346	8.739968	0.007735	0.035606	0.000136	0.663797	0.575366	0.477835	-0.718544	0.667883	0.193978	-0.207529	-0.472108	0.856765
61562	4.924913	2.060441	8.694890	0.009703	0.029391	0.007438	0.663845	0.575482	0.477631	-0.718556	0.667858	0.194018	-0.207336	-0.472003	0.856870
61563	4.883289	2.180388	8.679127	0.012966	0.028662	0.011261	0.663832	0.575673	0.477418	-0.718637	0.667763	0.194047	-0.207094	-0.471904	0.856982
61564	4.914147	2.071115	8.638624	0.009043	0.031411	0.006845	0.663885	0.575797	0.477194	-0.718647	0.667741	0.194083	-0.206890	-0.471783	0.857098
61565	4.943365	1.942947	8.747538	0.013562	0.033019	0.002679	0.663943	0.575952	0.476927	-0.718672	0.667692	0.194157	-0.206615	-0.471664	0.857230
61566	4.933461	1.835010	8.802803	0.017917	0.037551	-0.004179	0.664088	0.576030	0.476630	-0.718626	0.667694	0.194323	-0.206307	-0.471566	0.857358
61567	5.007411	1.559225	8.913463	0.026863	0.046990	-0.016192	0.664311	0.576124	0.476206	-0.718554	0.667691	0.194601	-0.205844	-0.471455	0.857530
61568	4.826090	1.832335	8.895705	0.047204	0.047884	-0.034841	0.664697	0.576047	0.475760	-0.718365	0.667730	0.195163	-0.205256	-0.471494	0.857650
61569	4.985561	1.967342	8.759558	0.043419	0.044555	-0.041065	0.665092	0.575964	0.475308	-0.718160	0.667792	0.195702	-0.204690	-0.471507	0.857778
61570	5.051221	1.666130	8.886916	0.055417	0.065564	-0.051097	0.665626	0.575868	0.474677	-0.717884	0.667881	0.196409	-0.203922	-0.471498	0.857966
61571	4.933117	2.101340	8.746247	0.064622	0.075377	-0.061364	0.666229	0.575794	0.473920	-0.717587	0.667961	0.197226	-0.202998	-0.471476	0.858197
61572	4.664550	2.366758	8.673567	0.059666	0.066503	-0.045896	0.666729	0.575733	0.473290	-0.717348	0.668004	0.197945	-0.202196	-0.471489	0.858379
61573	4.644859	2.413614	8.743474	0.045188	0.037973	-0.035377	0.667069	0.575657	0.472904	-0.717183	0.668025	0.198471	-0.201661	-0.471552	0.858470
61574	4.871466	2.229774	8.711587	0.032061	0.021238	-0.019335	0.667286	0.575560	0.472715	-0.717066	0.668044	0.198828	-0.201357	-0.471643	0.858492
61575	4.875088	1.866484	8.886104	0.034721	0.025840	-0.017094	0.667470	0.575549	0.472469	-0.717002	0.668010	0.199178	-0.200978	-0.471707	0.858546
61576	4.787564	2.019262	8.867736	0.035685	0.014826	-0.015601	0.667647	0.575447	0.472343	-0.716917	0.667990	0.199548	-0.200691	-0.471859	0.858529
61577	4.877785	1.963629	8.869643	0.029964	0.011179	-0.014463	0.667782	0.575384	0.472229	-0.716861	0.667962	0.199844	-0.200443	-0.471975	0.858523
61578	4.752534	2.194534	8.795982	0.026303	0.004776	-0.012510	0.667917	0.575257	0.472193	-0.716778	0.667968	0.200119	-0.200291	-0.472120	0.858479
61579	4.492663	2.650711	8.568108	0.009228	-0.018872	0.009264	0.667822	0.575210	0.472384	-0.716838	0.667902	0.200125	-0.200393	-0.472271	0.858372
61580	4.588040	2.153397	8.722519	-0.016383	-0.047852	0.027249	0.667564	0.575101	0.472881	-0.716937	0.667880	0.199845	-0.200896	-0.472435	0.858164
61581	4.861054	1.686098	8.894062	-0.007385	-0.060616	0.020136	0.667307	0.574930	0.473451	-0.717036	0.667830	0.199657	-0.201396	-0.472715	0.857893
61582	4.338970	2.207777	8.681231	-0.005154	-0.078964	0.023849	0.667013	0.574649	0.474207	-0.717132	0.667776	0.199490	-0.202027	-0.473131	0.857515
61583	4.230874	2.542802	8.661022	-0.034185	-0.155143	0.041635	0.666409	0.574173	0.475630	-0.717320	0.667730	0.198970	-0.203349	-0.473774	0.856847
61584	4.567862	2.428329	8.696125	-0.064928	-0.209189	0.069236	0.665519	0.573579	0.477588	-0.717598	0.667698	0.198073	-0.205274	-0.474538	0.855965
61585	4.785383	2.359176	8.657728	-0.082385	-0.239914	0.078868	0.664467	0.572947	0.479807	-0.717932	0.667668	0.196962	-0.207503	-0.475343	0.854980
61586	4.795459	2.526065	8.678434	-0.109770	-0.259814	0.105438	0.663203	0.572348	0.482264	-0.718350	0.667645	0.195508	-0.210083	-0.476096	0.853931
61587	4.150191	2.717724	8.745084	-0.153231	-0.301506	0.131681	0.661628	0.571771	0.485104	-0.718877	0.667653	0.193535	-0.213223	-0.476778	0.852771
61588	4.068245	2.816803	9.022321	-0.209374	-0.413108	0.161413	0.659616	0.570808	0.488964	-0.719437	0.667792	0.190958	-0.217526	-0.477737	0.851146
61589	4.430954	2.828198	9.284624	-0.270735	-0.540338	0.183804	0.657112	0.569431	0.493916	-0.720029	0.668070	0.187725	-0.223074	-0.478990	0.849003
61590	5.164234	0.815929	10.373220	-0.163640	-0.546287	0.133373	0.654952	0.567637	0.498825	-0.720486	0.668153	0.185667	-0.227900	-0.480999	0.846582
61591	4.188412	2.942575	9.622081	-0.125173	-0.688901	0.120557	0.652503	0.565098	0.504880	-0.720963	0.668105	0.183976	-0.233348	-0.484045	0.843356
61592	3.853457	2.725621	9.994049	-0.143135	-0.762402	0.174317	0.649474	0.562502	0.511639	-0.721712	0.667872	0.181874	-0.239405	-0.487379	0.839730
61593	-1.271925	2.514525	11.783365	0.087850	-1.111375	0.497252	0.643189	0.560341	0.521849	-0.725117	0.664681	0.180013	-0.245995	-0.494184	0.833828
61594	4.068688	0.826061	10.990843	0.166924	-1.673634	0.586395	0.634751	0.555825	0.536796	-0.729244	0.660620	0.178279	-0.255527	-0.504618	0.824661
61595	2.344545	2.606171	11.398240	0.221317	-2.113924	0.748283	0.623757	0.549922	0.555439	-0.734509	0.655384	0.175978	-0.267251	-0.517743	0.812723
61596	3.302734	1.416855	11.789361	0.050439	-2.620982	0.859435	0.610220	0.541747	0.578050	-0.739925	0.650461	0.171495	-0.283092	-0.532363	0.797777
61597	3.339685	2.146493	11.913600	0.126251	-3.102072	0.984032	0.593858	0.531312	0.604186	-0.746196	0.644531	0.166649	-0.300874	-0.549807	0.779222
61598	4.007276	2.229161	11.586751	0.279457	-3.443203	1.096483	0.574973	0.519062	0.632441	-0.753454	0.637233	0.161995	-0.318927	-0.569658	0.757480
61599	5.386954	2.742348	11.527189	0.396376	-3.891421	1.280689	0.552494	0.504540	0.663469	-0.761952	0.628409	0.156626	-0.337905	-0.592066	0.731627
61600	6.628066	4.182076	11.185673	0.533297	-4.100579	1.410722	0.527453	0.488566	0.695051	-0.771415	0.618189	0.150865	-0.355966	-0.615748	0.702953
61601	9.645587	8.009159	11.809962	0.475149	-4.306435	1.584663	0.499426	0.471231	0.726991	-0.781264	0.607637	0.142845	-0.374433	-0.639312	0.671625
61602	9.931532	13.726286	12.947304	-0.564040	-4.142099	1.811431	0.469175	0.455394	0.756631	-0.787856	0.602902	0.125668	-0.398946	-0.655076	0.641652
61603	7.338709	12.337200	12.745919	-1.622488	-3.894386	1.813865	0.438742	0.440670	0.783145	-0.789344	0.605503	0.101503	-0.429467	-0.662704	0.613500
61604	4.652584	11.616082	14.590672	-2.332890	-3.469649	1.235016	0.413547	0.425173	0.805113	-0.784189	0.615640	0.077685	-0.462631	-0.663487	0.588012
61605	13.672628	4.842435	18.482784	-1.604919	-2.623055	-0.141075	0.402212	0.406858	0.820178	-0.775973	0.626920	0.069544	-0.485892	-0.664408	0.567866
61606	4.320990	5.040626	15.848228	-0.545509	-1.497778	-1.039235	0.402908	0.390332	0.827833	-0.769098	0.634709	0.075049	-0.496139	-0.666922	0.555932
61607	-3.251447	6.919947	11.977071	-0.245260	-0.924983	-1.301803	0.408267	0.375825	0.831909	-0.762565	0.641370	0.084489	-0.501809	-0.668879	0.548442
61608	-6.369736	4.557051	10.162011	-0.581754	-0.866719	-0.965527	0.411225	0.363846	0.835769	-0.755674	0.648824	0.089355	-0.509756	-0.668314	0.541761
61609	-4.624280	-1.062498	12.171482	-0.606287	-0.614540	-0.532259	0.412084	0.356252	0.838613	-0.750341	0.654823	0.090532	-0.516890	-0.666552	0.537152
61610	-2.717544	-3.520634	14.446729	-0.103878	0.025580	-0.172054	0.413508	0.355381	0.838281	-0.749135	0.656082	0.091394	-0.517501	-0.665778	0.537523
61611	-1.599336	-1.962936	15.533188	0.373873	0.897341	0.195050	0.416663	0.362606	0.833612	-0.751838	0.652929	0.091778	-0.511010	-0.664981	0.544673
61612	-1.501725	-0.416989	15.002648	0.491484	1.755677	0.573654	0.421180	0.378150	0.824384	-0.756818	0.647445	0.089674	-0.499833	-0.661678	0.558882
61613	-1.247894	-0.498406	13.536354	0.487386	2.479857	0.888907	0.426651	0.400183	0.811063	-0.762960	0.640811	0.085167	-0.485656	-0.655145	0.578726
61614	-0.773089	-0.569469	11.957689	0.573610	3.044075	1.103554	0.432648	0.427241	0.793902	-0.770567	0.632366	0.079621	-0.468019	-0.646203	0.602810
61615	0.216951	0.228522	10.727947	0.711387	3.450387	1.185519	0.439264	0.456773	0.773567	-0.778966	0.622602	0.074698	-0.447504	-0.635394	0.629297
61616	1.259042	1.596173	9.815171	0.785678	3.725908	1.137568	0.446511	0.487500	0.750314	-0.787586	0.612102	0.070991	-0.424661	-0.622635	0.657258
61617	2.168934	2.642999	9.185923	0.760729	3.880506	0.967731	0.454884	0.517234	0.724947	-0.795064	0.602595	0.068942	-0.401190	-0.607740	0.685345
61618	3.016321	2.910812	8.797981	0.713527	3.933956	0.693786	0.464540	0.545251	0.697785	-0.801195	0.594424	0.068899	-0.377213	-0.591068	0.712986
61619	3.586725	2.108655	8.282382	0.745809	3.863608	0.319582	0.476090	0.569630	0.669970	-0.805398	0.588332	0.072108	-0.353090	-0.573922	0.738878
61620	4.407178	2.260932	7.652348	0.891936	3.668698	-0.085890	0.489137	0.590173	0.642215	-0.808186	0.583568	0.079268	-0.327995	-0.557802	0.762415
61621	5.249585	3.666505	7.452114	0.934635	3.386138	-0.529014	0.504117	0.605712	0.615612	-0.808489	0.581621	0.089794	-0.303664	-0.542983	0.782917
61622	6.784369	4.710317	8.204552	0.805865	3.125140	-1.000489	0.521180	0.616906	0.589744	-0.805876	0.583213	0.102110	-0.280954	-0.528478	0.801109
61623	8.179638	4.549345	9.061490	0.621073	3.000244	-1.493946	0.541299	0.623762	0.563841	-0.799599	0.589278	0.115729	-0.260071	-0.513490	0.817735
61624	8.264876	3.327403	9.327230	0.516786	2.950384	-1.928968	0.563861	0.627489	0.536953	-0.790382	0.598548	0.130520	-0.239493	-0.497993	0.833454
61625	8.319661	1.759704	9.445939	0.527111	2.854592	-2.263536	0.588172	0.627797	0.509827	-0.778532	0.610202	0.146771	-0.218955	-0.483243	0.847664
61626	9.150765	0.665257	9.573038	0.596809	2.711994	-2.519914	0.613134	0.625434	0.482596	-0.764787	0.622988	0.164277	-0.197907	-0.469807	0.860299
61627	10.726519	-0.394603	9.486400	0.615977	2.540159	-2.709688	0.638421	0.620127	0.455917	-0.748967	0.637037	0.182297	-0.177389	-0.457849	0.871153
61628	11.978282	-2.147745	9.141113	0.621029	2.355957	-2.840207	0.663261	0.612729	0.429706	-0.731666	0.651598	0.200212	-0.157320	-0.447194	0.880493
61629	13.667136	-1.705642	8.449257	0.537819	2.128090	-2.753954	0.686332	0.603985	0.405156	-0.713861	0.666003	0.216434	-0.139112	-0.437770	0.888260
61630	14.573031	-0.723290	7.709565	0.159733	1.932614	-2.489889	0.706322	0.595808	0.382260	-0.696873	0.680137	0.227556	-0.124409	-0.427114	0.895598
61631	14.581534	-0.986850	7.088713	-0.364240	1.752346	-2.086433	0.722804	0.588827	0.361715	-0.681512	0.694056	0.232009	-0.114438	-0.414210	0.902959
61632	14.327783	-2.053283	6.945152	-0.714599	1.600663	-1.636406	0.735528	0.584073	0.343303	-0.668911	0.706475	0.231195	-0.107500	-0.399690	0.910325
61633	14.601167	-2.374383	6.766461	-0.769764	1.498599	-1.158245	0.744797	0.581700	0.326960	-0.659518	0.716274	0.228009	-0.101560	-0.385456	0.917120
61634	15.566694	-1.685119	6.257258	-0.644019	1.478048	-0.665348	0.750529	0.582675	0.311762	-0.654021	0.722518	0.224108	-0.094672	-0.372098	0.923353
61635	16.884536	-1.188396	5.186284	-0.412129	1.509789	-0.225477	0.753374	0.586555	0.297288	-0.651938	0.725370	0.220942	-0.086049	-0.360265	0.928873
61636	17.196530	-0.603406	3.659928	-0.086972	1.519936	0.071959	0.754062	0.592600	0.283223	-0.652493	0.725206	0.219837	-0.075120	-0.350572	0.933518
61637	15.010165	2.302130	0.227546	-0.003137	1.172207	0.296307	0.752963	0.598799	0.272921	-0.654709	0.723476	0.218947	-0.066347	-0.343543	0.936790
61638	11.869420	1.796187	-4.673908	-0.291293	0.433284	0.576366	0.749427	0.604501	0.270069	-0.658889	0.720983	0.214588	-0.064997	-0.338764	0.938624
61639	11.718102	-0.691970	-5.835326	-0.528667	-0.526166	0.619253	0.744981	0.607164	0.276325	-0.663139	0.719045	0.207898	-0.072462	-0.338122	0.938308
61640	10.957060	-0.797199	-5.721707	-0.309731	-1.470305	0.334442	0.741596	0.604554	0.290775	-0.665380	0.718087	0.204010	-0.085467	-0.344769	0.934789
61641	11.421425	0.642059	-4.799830	-0.181156	-2.334510	0.039032	0.739133	0.596621	0.312611	-0.665483	0.718513	0.202169	-0.103997	-0.357467	0.928118
61642	8.217914	1.660348	-0.474629	-0.101421	-2.816099	-0.148687	0.736918	0.585217	0.338340	-0.664231	0.719802	0.201699	-0.125500	-0.373371	0.919154
61643	7.424016	3.444803	13.374291	-0.215122	-2.622627	-0.283859	0.735244	0.573183	0.361771	-0.661832	0.722289	0.200690	-0.146271	-0.386988	0.910409
61644	11.135866	2.115911	17.316636	-0.057122	-2.083196	-0.535177	0.735603	0.561059	0.379608	-0.657751	0.725602	0.202151	-0.162026	-0.398390	0.902792
61645	7.154462	2.324683	12.634003	0.010164	-1.554147	-0.492125	0.736231	0.551205	0.392602	-0.654128	0.728324	0.204109	-0.173435	-0.407083	0.896774
61646	2.796127	-0.762573	6.898358	-0.119729	-1.561602	-0.039509	0.733725	0.544425	0.406509	-0.653561	0.729089	0.203193	-0.185757	-0.414766	0.890765
61647	2.973622	-1.894703	7.478355	-0.098382	-1.845891	0.391714	0.727607	0.539519	0.423684	-0.656214	0.727405	0.200662	-0.199928	-0.424030	0.883305
61648	8.405722	-1.563083	12.405904	0.069846	-1.956624	0.527291	0.720120	0.534880	0.441961	-0.660124	0.724322	0.198984	-0.213690	-0.435042	0.874686
61649	14.138701	1.004758	14.470117	0.251784	-1.573845	0.349544	0.714375	0.530463	0.456374	-0.663161	0.721379	0.199576	-0.223351	-0.445222	0.867117
61650	15.605228	0.515318	14.823372	0.467144	-1.072904	-0.015814	0.712088	0.525461	0.465642	-0.664050	0.719412	0.203674	-0.227965	-0.454243	0.861217
61651	15.878840	8.129493	12.237640	0.007622	-0.237093	-0.114298	0.712311	0.523542	0.467458	-0.663233	0.720005	0.204243	-0.229642	-0.455518	0.860098
61652	2.590482	2.878668	7.113493	0.084655	0.102167	-0.097222	0.713232	0.523212	0.466422	-0.662660	0.720196	0.205426	-0.228434	-0.455595	0.860378
61653	6.427485	3.887989	10.530442	-0.048145	-0.186355	-0.019597	0.712942	0.522203	0.467993	-0.662389	0.720546	0.205074	-0.230120	-0.456199	0.859609
61654	5.786241	1.815217	8.811475	0.064710	0.043504	-0.071574	0.713561	0.521786	0.467514	-0.661950	0.720694	0.205968	-0.229463	-0.456442	0.859655
61655	5.431729	2.477987	8.737988	0.059253	0.012060	-0.035948	0.713833	0.521565	0.467346	-0.661808	0.720639	0.206615	-0.229024	-0.456782	0.859592
61656	4.316006	2.981285	8.495247	0.018508	0.086543	-0.017612	0.714194	0.521731	0.466608	-0.661646	0.720717	0.206861	-0.228367	-0.456469	0.859933
61657	4.279876	2.649487	8.411110	-0.032548	-0.008391	0.029308	0.713988	0.521887	0.466750	-0.661760	0.720740	0.206414	-0.228681	-0.456254	0.859964
61658	5.023442	1.909054	8.587378	-0.041213	0.012244	0.035976	0.713825	0.522098	0.466763	-0.661843	0.720812	0.205898	-0.228949	-0.455898	0.860081
61659	4.822196	1.609205	8.529997	-0.052419	0.038369	0.032242	0.713706	0.522488	0.466508	-0.661932	0.720910	0.205266	-0.229061	-0.455296	0.860370
61660	4.258525	1.649333	8.548150	-0.080692	0.059238	0.015960	0.713783	0.522770	0.466074	-0.661782	0.721265	0.204502	-0.229255	-0.454410	0.860787
61661	3.809391	1.052724	8.803005	-0.083704	-0.014154	0.008312	0.713702	0.522748	0.466222	-0.661628	0.721629	0.203712	-0.229949	-0.453856	0.860894
61662	4.178752	1.073261	8.914949	-0.029203	-0.109662	-0.014970	0.713592	0.522046	0.467177	-0.661379	0.721908	0.203533	-0.231005	-0.454221	0.860419
61663	5.010349	2.672958	8.919234	-0.043506	-0.153828	-0.021855	0.713387	0.521171	0.468465	-0.661102	0.722248	0.203231	-0.232429	-0.454685	0.859790
61664	4.670477	2.651717	8.545278	-0.034237	-0.109042	-0.022111	0.713321	0.520422	0.469397	-0.660791	0.722585	0.203041	-0.233512	-0.455007	0.859326
61665	5.164075	3.000762	8.718998	-0.073555	-0.143907	-0.004670	0.713022	0.519715	0.470633	-0.660564	0.722972	0.202401	-0.235064	-0.455200	0.858800
61666	4.918130	2.681563	8.872661	-0.062570	-0.119696	0.000845	0.712778	0.519079	0.471704	-0.660347	0.723321	0.201863	-0.236410	-0.455372	0.858340
61667	4.991513	2.632210	8.760605	-0.073850	-0.128344	0.024785	0.712317	0.518656	0.472864	-0.660327	0.723557	0.201082	-0.237851	-0.455479	0.857884
61668	4.830960	2.237780	8.869821	-0.083754	-0.140907	0.037408	0.711778	0.518186	0.474189	-0.660316	0.723813	0.200191	-0.239488	-0.455607	0.857361
61669	5.175097	1.833341	8.901022	-0.072824	-0.133536	0.033460	0.711243	0.517802	0.475410	-0.660358	0.724000	0.199378	-0.240959	-0.455747	0.856874
61670	5.243464	2.111686	8.860037	-0.049407	-0.115574	0.020977	0.710869	0.517328	0.476483	-0.660311	0.724186	0.198859	-0.242187	-0.455990	0.856399
61671	5.587211	2.098932	8.933195	-0.058745	-0.079096	0.019749	0.710554	0.517093	0.477209	-0.660287	0.724379	0.198232	-0.243176	-0.455949	0.856140
61672	5.380305	1.850053	8.852329	-0.040580	-0.010023	0.008848	0.710515	0.517012	0.477354	-0.660173	0.724588	0.197847	-0.243596	-0.455710	0.856148
61673	4.756021	2.320853	8.780363	-0.044451	-0.003915	0.010748	0.710442	0.517054	0.477419	-0.660120	0.724763	0.197385	-0.243957	-0.455384	0.856219
61674	4.980814	2.310648	8.832180	-0.059839	-0.023674	0.025463	0.710260	0.517031	0.477713	-0.660077	0.724973	0.196755	-0.244601	-0.455075	0.856199
61675	5.084194	2.173811	8.753268	-0.057177	-0.018908	0.034735	0.709991	0.517179	0.477953	-0.660162	0.725082	0.196070	-0.245152	-0.454734	0.856223
61676	4.937520	2.146116	8.749006	-0.055162	-0.015214	0.038996	0.709741	0.517292	0.478201	-0.660225	0.725200	0.195416	-0.245705	-0.454415	0.856234
61677	4.952763	2.141346	8.717180	-0.049466	-0.021548	0.046008	0.709391	0.517510	0.478485	-0.660408	0.725215	0.194742	-0.246224	-0.454144	0.856229
61678	4.993239	2.067779	8.709454	-0.047827	-0.021886	0.047861	0.709065	0.517658	0.478808	-0.660551	0.725254	0.194108	-0.246776	-0.453912	0.856192
61679	4.966896	2.009395	8.713475	-0.040233	-0.014088	0.045541	0.708737	0.517906	0.479026	-0.660753	0.725229	0.193516	-0.247181	-0.453670	0.856204
61680	4.978969	1.954156	8.733388	-0.037238	-0.007988	0.034907	0.708531	0.518023	0.479204	-0.660830	0.725287	0.193035	-0.247564	-0.453443	0.856213
61681	4.904683	1.830222	8.863952	-0.026735	-0.004649	0.028448	0.708338	0.518190	0.479308	-0.660943	0.725289	0.192640	-0.247813	-0.453250	0.856244
61682	4.568926	2.127451	8.711544	-0.023580	-0.008503	0.020594	0.708225	0.518202	0.479462	-0.660953	0.725358	0.192343	-0.248110	-0.453124	0.856224
61683	4.632291	2.370275	8.638111	-0.036447	-0.050380	0.030806	0.707903	0.518179	0.479963	-0.661059	0.725392	0.191854	-0.248746	-0.453097	0.856054
61684	4.921904	2.063125	8.693044	-0.052102	-0.067181	0.042942	0.707495	0.518088	0.480661	-0.661156	0.725475	0.191205	-0.249646	-0.453069	0.855807
61685	5.145451	1.860559	8.746045	-0.042627	-0.059124	0.038738	0.707098	0.518083	0.481251	-0.661301	0.725495	0.190625	-0.250386	-0.453042	0.855605
61686	5.023804	1.985392	8.776624	-0.032419	-0.039445	0.033030	0.706825	0.518046	0.481692	-0.661376	0.725540	0.190192	-0.250959	-0.453013	0.855453
61687	5.053161	1.985166	8.711087	-0.027252	-0.039613	0.029425	0.706537	0.518061	0.482097	-0.661494	0.725539	0.189788	-0.251458	-0.452996	0.855315
61688	5.234528	1.856183	8.661025	-0.017765	-0.017671	0.017759	0.706419	0.518012	0.482323	-0.661498	0.725596	0.189554	-0.251780	-0.452960	0.855239
61689	5.256653	1.660741	8.824873	0.000211	0.013727	0.005034	0.706427	0.518093	0.482225	-0.661511	0.725597	0.189502	-0.251721	-0.452867	0.855306
61690	5.245726	1.600512	8.856093	0.023933	0.039532	-0.016902	0.706681	0.518052	0.481896	-0.661376	0.725645	0.189792	-0.251364	-0.452837	0.855427
61691	5.163726	1.579473	8.863806	0.047761	0.072072	-0.033604	0.707091	0.518116	0.481225	-0.661236	0.725631	0.190333	-0.250578	-0.452786	0.855684
61692	5.156094	1.767779	8.840869	0.070990	0.086603	-0.052328	0.707696	0.518033	0.480425	-0.660968	0.725649	0.191195	-0.249575	-0.452853	0.855942
61693	4.895546	2.165409	8.656509	0.079748	0.096665	-0.057052	0.708321	0.518038	0.479498	-0.660740	0.725611	0.192122	-0.248403	-0.452908	0.856254
61694	4.212338	2.449409	8.556396	0.073481	0.077364	-0.042606	0.708836	0.517984	0.478794	-0.660546	0.725567	0.192957	-0.247449	-0.453041	0.856460
61695	3.784491	2.558941	8.765398	0.049868	-0.022711	-0.019425	0.708915	0.517721	0.478961	-0.660509	0.725469	0.193448	-0.247320	-0.453496	0.856256
61696	4.593658	1.956298	8.896118	0.021646	-0.111100	-0.001181	0.708690	0.517114	0.479950	-0.660480	0.725444	0.193641	-0.248042	-0.454229	0.855658
61697	5.169916	1.901449	8.813477	0.020901	-0.119158	-0.005968	0.708440	0.516511	0.480967	-0.660467	0.725408	0.193819	-0.248788	-0.454972	0.855047
61698	4.910340	2.275752	8.741453	0.015345	-0.109637	-0.001400	0.708217	0.515909	0.481941	-0.660423	0.725412	0.193959	-0.249541	-0.455650	0.854467
61699	4.590065	2.512853	8.693181	-0.011223	-0.144346	0.021391	0.707722	0.515387	0.483225	-0.660524	0.725381	0.193730	-0.250676	-0.456289	0.853793
61700	4.832579	2.354245	8.747635	-0.025411	-0.175707	0.041261	0.707049	0.514790	0.484844	-0.660678	0.725351	0.193316	-0.252164	-0.457009	0.852969
61701	4.945582	2.350270	8.572872	-0.053847	-0.193732	0.063064	0.706149	0.514343	0.486627	-0.660965	0.725301	0.192522	-0.253929	-0.457592	0.852133
61702	4.759500	2.123001	8.694670	-0.071543	-0.207823	0.074692	0.705167	0.513839	0.488579	-0.661235	0.725311	0.191551	-0.255946	-0.458141	0.851234
61703	4.599294	2.206979	8.750820	-0.098384	-0.256373	0.085714	0.703947	0.513266	0.490934	-0.661563	0.725351	0.190265	-0.258442	-0.458720	0.850167
61704	4.824995	2.092885	8.865605	-0.115391	-0.302907	0.090710	0.702601	0.512441	0.493718	-0.661827	0.725482	0.188841	-0.261413	-0.459436	0.848871
61705	5.109494	1.689261	9.589430	-0.108300	-0.347663	0.096418	0.701055	0.511522	0.496858	-0.662196	0.725515	0.187416	-0.264610	-0.460406	0.847353
61706	4.867296	2.387145	9.088447	-0.034106	-0.347722	0.076763	0.699661	0.510385	0.499982	-0.662571	0.725345	0.186747	-0.267347	-0.461933	0.845662
61707	4.338642	3.128481	9.074274	-0.106279	-0.434655	0.125610	0.697665	0.509266	0.503897	-0.663139	0.725225	0.185190	-0.271128	-0.463355	0.843678
61708	4.778273	2.338446	9.280254	-0.122756	-0.519855	0.158283	0.695233	0.507909	0.508605	-0.663833	0.725056	0.183358	-0.275638	-0.465105	0.841250
61709	4.307542	2.629040	9.675995	-0.133140	-0.582172	0.170301	0.692490	0.506411	0.513815	-0.664621	0.724841	0.181341	-0.280601	-0.467069	0.838516
61710	1.620714	3.221131	10.391438	-0.150807	-0.764746	0.233691	0.688803	0.504434	0.520669	-0.665736	0.724431	0.178873	-0.286960	-0.469836	0.834810
61711	1.669823	2.036624	11.426251	0.170322	-1.337002	0.618970	0.680784	0.502551	0.532893	-0.670446	0.720536	0.177000	-0.295017	-0.477775	0.827463
61712	1.874618	2.662762	11.508464	0.228490	-1.716116	0.729195	0.670756	0.499429	0.548321	-0.675999	0.715837	0.174935	-0.305141	-0.488004	0.817766
61713	3.235446	1.798323	12.218855	0.135790	-2.338094	1.020438	0.656522	0.495128	0.569058	-0.683171	0.710121	0.170310	-0.319775	-0.500576	0.804467
61714	3.409518	1.523272	11.337232	0.307766	-2.806152	1.325444	0.638227	0.490161	0.593640	-0.692713	0.702074	0.165047	-0.335880	-0.516559	0.787624
61715	4.226484	2.463465	11.919843	0.468795	-3.240521	1.480797	0.616731	0.483418	0.621249	-0.703595	0.692430	0.159672	-0.352983	-0.535582	0.767173
61716	4.536533	2.780807	10.872221	0.728686	-3.550443	1.677371	0.592014	0.475487	0.650716	-0.716328	0.680444	0.154497	-0.369314	-0.557591	0.743438
61717	6.782954	4.052590	11.259500	0.893797	-3.872631	1.815473	0.564275	0.465633	0.681748	-0.730173	0.666840	0.148904	-0.385282	-0.581817	0.716273
61718	9.099306	12.199864	13.426986	0.316365	-4.073992	2.036677	0.533181	0.454942	0.713264	-0.742568	0.655629	0.136907	-0.405352	-0.602644	0.687394
61719	8.379679	12.596425	13.586286	-0.777486	-4.013359	2.102794	0.500685	0.444211	0.742961	-0.750158	0.650944	0.116341	-0.431946	-0.615588	0.659146
61720	5.697842	10.378264	13.957298	-1.745452	-3.840309	1.989468	0.468569	0.433386	0.769818	-0.751936	0.653060	0.090030	-0.463720	-0.621039	0.631882
61721	2.392232	10.659637	15.677668	-2.189222	-3.482629	1.294331	0.442155	0.420232	0.792404	-0.747295	0.661172	0.066348	-0.496034	-0.621496	0.606378
61722	11.215153	5.374322	19.682698	-1.476833	-2.770097	-0.093420	0.428821	0.402327	0.808854	-0.739346	0.670795	0.058315	-0.519114	-0.623030	0.585111
61723	4.046076	5.554957	17.397442	-0.557893	-1.678200	-0.975531	0.427197	0.385247	0.817978	-0.732213	0.678154	0.063012	-0.530440	-0.625853	0.571788
61724	-2.137162	6.838146	13.569183	-0.279735	-1.050197	-1.279524	0.430944	0.369929	0.823068	-0.725203	0.684767	0.071935	-0.536999	-0.627891	0.563369
61725	-5.338133	4.720129	10.789199	-0.536252	-0.938501	-1.066252	0.433563	0.356676	0.827530	-0.717663	0.692040	0.077723	-0.544962	-0.627585	0.556016
61726	-4.171594	-0.100425	11.583452	-0.578474	-0.761922	-0.702735	0.434429	0.347030	0.831169	-0.711432	0.698145	0.080356	-0.552391	-0.626229	0.550183
61727	-2.559748	-2.591963	13.379911	-0.156384	-0.270996	-0.397642	0.435756	0.342531	0.832339	-0.708805	0.700529	0.082795	-0.554718	-0.626045	0.548047
61728	-1.479797	-1.789924	14.502751	0.298700	0.456707	-0.111250	0.439081	0.344686	0.829698	-0.710002	0.699009	0.085344	-0.550550	-0.626560	0.551650
61729	-1.174397	-0.619777	14.325871	0.472242	1.235156	0.185958	0.444507	0.353694	0.822991	-0.713371	0.695436	0.086425	-0.541770	-0.625515	0.561442
61730	-1.140619	-0.863446	13.403694	0.509127	1.921060	0.445189	0.451605	0.368895	0.812385	-0.718165	0.690583	0.085642	-0.529426	-0.622103	0.576798
61731	-0.793352	-1.583249	12.299731	0.614578	2.482891	0.653120	0.459849	0.388747	0.798383	-0.724317	0.684334	0.083974	-0.513716	-0.616898	0.596266
61732	0.156798	-1.087855	11.279363	0.776661	2.937445	0.799725	0.468802	0.412399	0.781122	-0.732051	0.676258	0.082316	-0.494293	-0.610411	0.618928
61733	1.176628	-0.307341	10.544475	0.864433	3.292326	0.864804	0.478354	0.438152	0.761052	-0.740297	0.667372	0.081090	-0.472374	-0.602194	0.643603
61734	2.163006	-0.008108	9.891413	0.922708	3.555573	0.853429	0.488313	0.465264	0.738295	-0.748797	0.657871	0.080677	-0.448167	-0.592229	0.669635
61735	3.065887	0.234768	9.413895	1.000791	3.735034	0.765851	0.498809	0.492158	0.713422	-0.756907	0.648366	0.081934	-0.422234	-0.580863	0.695928
61736	3.658137	0.452581	9.180609	1.065154	3.819546	0.610390	0.509690	0.518278	0.686735	-0.764476	0.639007	0.085131	-0.394706	-0.568382	0.721906
61737	4.570114	0.104515	9.295236	1.150903	3.800487	0.406471	0.521039	0.542199	0.659195	-0.770926	0.630416	0.090825	-0.366322	-0.555514	0.746466
61738	6.037178	-0.193151	9.407405	1.279464	3.758400	0.194939	0.532637	0.564310	0.630755	-0.776594	0.622145	0.099183	-0.336451	-0.542669	0.769618
61739	7.118920	-0.204319	9.441149	1.405477	3.709923	0.009595	0.544481	0.584253	0.601822	-0.781136	0.614583	0.110068	-0.305562	-0.530035	0.791009
61740	7.708133	0.190721	9.462723	1.446773	3.664635	-0.135249	0.556040	0.602866	0.572165	-0.784728	0.607642	0.122365	-0.273902	-0.517033	0.810959
61741	7.824979	0.717975	9.450808	1.370449	3.581019	-0.265942	0.567395	0.619513	0.542462	-0.786756	0.602307	0.135060	-0.243057	-0.503418	0.829152
61742	7.362645	0.914551	9.366413	1.205298	3.455421	-0.397907	0.578288	0.634514	0.512810	-0.787370	0.598657	0.147170	-0.213616	-0.488878	0.845793
61743	6.782581	0.644618	9.312417	1.044879	3.242910	-0.553894	0.589144	0.646805	0.484306	-0.786209	0.597204	0.158817	-0.186506	-0.474331	0.860364
61744	6.507062	0.553952	9.386917	0.931035	2.978407	-0.739288	0.599991	0.656544	0.457122	-0.783568	0.597517	0.170277	-0.161344	-0.460352	0.872952
61745	6.673673	0.694203	9.659340	0.832046	2.683528	-0.944178	0.611403	0.663058	0.431902	-0.779081	0.599999	0.181751	-0.138630	-0.447610	0.883418
61746	7.509977	1.070024	10.072948	0.740917	2.404121	-1.143834	0.623224	0.667020	0.408259	-0.773104	0.604189	0.193042	-0.117903	-0.435935	0.892221
61747	9.244428	1.466429	10.371882	0.619743	2.170712	-1.335818	0.635870	0.668238	0.386169	-0.765354	0.610468	0.203868	-0.099511	-0.425190	0.899617
61748	12.090673	0.909667	10.364092	0.503025	2.041146	-1.563903	0.649488	0.667406	0.364328	-0.755888	0.618674	0.214185	-0.082452	-0.414502	0.906305
61749	14.639076	1.230342	9.830120	0.434363	1.989419	-1.789927	0.664405	0.664367	0.342320	-0.744439	0.628844	0.224426	-0.066165	-0.403946	0.912387
61750	16.865774	1.607843	8.776675	0.273630	1.987630	-1.930991	0.679700	0.660211	0.319576	-0.731737	0.640439	0.233236	-0.050684	-0.392376	0.918407
61751	18.172897	1.919935	7.277005	0.014675	2.001387	-1.975744	0.694911	0.655136	0.296473	-0.718151	0.653404	0.239422	-0.036863	-0.379289	0.924544
61752	17.866542	1.508037	5.363462	-0.270102	1.969672	-1.902389	0.708969	0.650035	0.273527	-0.704800	0.666757	0.242265	-0.024895	-0.364540	0.930855
61753	16.098471	0.316779	3.335222	-0.454083	1.800460	-1.752836	0.721584	0.644650	0.252473	-0.692159	0.679751	0.242598	-0.015228	-0.349807	0.936698
61754	13.931774	-0.931795	1.531089	-0.454222	1.474923	-1.563527	0.732436	0.639072	0.234786	-0.680793	0.691315	0.242083	-0.007602	-0.337151	0.941420
61755	12.454836	-1.609908	0.310108	-0.302445	0.995330	-1.321618	0.741429	0.633171	0.222210	-0.671027	0.700753	0.242214	-0.002351	-0.328693	0.944434
61756	11.984706	-1.007923	-0.330195	-0.067048	0.429771	-1.096788	0.748724	0.626895	0.215443	-0.662882	0.707872	0.243934	0.000415	-0.325453	0.945558
61757	11.124234	0.181274	-3.508807	-0.201486	-0.379514	-0.756618	0.753721	0.620267	0.217196	-0.657184	0.713270	0.243628	-0.003805	-0.326365	0.945236
61758	11.973096	0.429656	-2.739350	-0.435465	-1.140197	-0.429815	0.756432	0.613450	0.226912	-0.653894	0.717365	0.240437	-0.015283	-0.330251	0.943769
61759	13.092358	-0.194775	-1.570164	-0.507024	-1.769665	-0.255585	0.757691	0.605690	0.242989	-0.651827	0.720639	0.236222	-0.032030	-0.337370	0.940827
61760	14.815495	0.545600	0.536203	-0.425391	-2.205525	-0.196187	0.758077	0.596677	0.263243	-0.650125	0.723314	0.232713	-0.051552	-0.347555	0.936241
61761	14.802455	1.232901	1.696213	-0.397418	-2.392996	-0.153262	0.757599	0.587099	0.285236	-0.648703	0.725648	0.229387	-0.072308	-0.358817	0.930603
61762	9.659526	4.505796	6.828013	-0.536104	-2.215293	-0.159057	0.756858	0.577799	0.305473	-0.646982	0.728587	0.224889	-0.092622	-0.367845	0.925263
61763	7.333761	5.937076	16.435204	-0.811685	-1.717576	-0.231642	0.756614	0.569739	0.320831	-0.644388	0.732942	0.218083	-0.110900	-0.371744	0.921687
61764	7.359544	2.220552	15.684943	-0.720046	-1.145573	-0.422165	0.758046	0.562249	0.330518	-0.640251	0.738088	0.212848	-0.124278	-0.372963	0.919485
61765	2.527177	-0.109916	8.976843	-0.475948	-0.970794	-0.521272	0.760122	0.554743	0.338341	-0.635661	0.742804	0.210186	-0.134721	-0.374837	0.917250
61766	0.089078	-0.735012	5.733470	-0.345749	-1.306165	-0.323691	0.760397	0.547293	0.349668	-0.632622	0.745964	0.208151	-0.146920	-0.379485	0.913458
61767	1.753153	-0.700408	8.227468	-0.248043	-1.608983	-0.038142	0.758170	0.540830	0.364254	-0.631933	0.747146	0.205993	-0.160744	-0.386362	0.908232
61768	5.284196	-1.074889	11.241466	-0.107460	-1.747078	0.136300	0.754429	0.534922	0.380388	-0.632703	0.746898	0.204523	-0.174707	-0.394971	0.901929
61769	8.204404	-1.248084	12.215664	0.050506	-1.666786	0.076859	0.750935	0.528819	0.395533	-0.633354	0.746313	0.204645	-0.186972	-0.404188	0.895362
61770	10.334386	-1.719969	12.092591	0.161651	-1.477214	0.069907	0.747699	0.523211	0.408896	-0.634115	0.745346	0.205809	-0.197087	-0.413171	0.889071
61771	10.619346	-2.922817	12.680631	0.274048	-1.075522	0.164517	0.744508	0.519934	0.418781	-0.635872	0.743371	0.207526	-0.203410	-0.420795	0.884057
61772	8.553954	-2.819375	12.317482	0.457678	-0.736059	0.165323	0.741985	0.517950	0.425659	-0.637970	0.740630	0.210861	-0.206040	-0.428013	0.879973
61773	5.928329	0.643634	10.187026	0.588132	-0.569894	0.133351	0.739964	0.516459	0.430956	-0.640151	0.737428	0.215422	-0.206543	-0.435282	0.876282
61774	4.420172	4.657968	8.808571	0.559305	-0.594561	0.092067	0.738174	0.514450	0.436394	-0.641929	0.734554	0.219903	-0.207426	-0.442461	0.872470
61775	8.792181	13.215989	10.823913	-0.108546	-0.677792	0.188933	0.735542	0.512812	0.442721	-0.643073	0.734092	0.218096	-0.213156	-0.445120	0.869731
61776	6.505471	6.480928	7.768996	-0.348722	-0.138312	0.105188	0.734615	0.512864	0.444198	-0.643016	0.735171	0.214602	-0.216500	-0.443276	0.869847
61777	3.583193	3.587579	7.569233	-0.407812	-0.394598	0.211793	0.732393	0.512657	0.448088	-0.643654	0.735918	0.210081	-0.222056	-0.442275	0.868955
61778	6.201700	0.920215	10.352939	-0.293690	-0.338228	0.186627	0.730487	0.512414	0.451466	-0.644268	0.736337	0.206705	-0.226512	-0.441860	0.868016
61779	4.390946	1.758330	8.368682	-0.194025	-0.278629	0.133524	0.728997	0.512149	0.454167	-0.644779	0.736537	0.204386	-0.229835	-0.441834	0.867156
61780	5.407459	2.248989	9.147322	-0.195736	-0.327012	0.127782	0.727466	0.511526	0.457311	-0.645165	0.736824	0.202119	-0.233568	-0.442076	0.866034
61781	5.602101	0.745095	9.276344	-0.187214	-0.203836	0.090676	0.726409	0.511276	0.459267	-0.645364	0.737214	0.200052	-0.236296	-0.441714	0.865478
61782	5.820910	0.871806	9.454160	-0.091733	-0.168613	0.031053	0.725859	0.510643	0.460839	-0.645282	0.737536	0.199127	-0.238203	-0.441909	0.864856
61783	5.276800	1.899543	9.007295	-0.028412	-0.079131	-0.013374	0.725763	0.510177	0.461506	-0.645096	0.737757	0.198913	-0.238999	-0.442079	0.864550
61784	5.327976	2.407096	8.871885	-0.026005	-0.039968	-0.020594	0.725848	0.509733	0.461861	-0.644796	0.738052	0.198792	-0.239546	-0.442099	0.864387
61785	5.280610	2.151063	8.889437	-0.011352	-0.001150	-0.019007	0.725975	0.509570	0.461843	-0.644609	0.738226	0.198752	-0.239666	-0.441997	0.864407
61786	5.126179	2.097271	8.898542	0.002357	0.039313	-0.019627	0.726245	0.509482	0.461515	-0.644383	0.738390	0.198873	-0.239456	-0.441823	0.864554
61787	4.930379	2.180040	8.939394	0.010040	0.050858	-0.021086	0.726509	0.509533	0.461043	-0.644232	0.738480	0.199027	-0.239060	-0.441613	0.864770
61788	4.781131	2.188915	8.919458	0.006589	0.044012	-0.013878	0.726753	0.509508	0.460686	-0.644058	0.738597	0.199158	-0.238789	-0.441447	0.864930
61789	4.662180	2.228534	8.932411	-0.002074	0.037279	-0.003133	0.726868	0.509632	0.460367	-0.644008	0.738649	0.199124	-0.238570	-0.441217	0.865108
61790	4.372368	2.457085	8.736317	-0.018496	0.008439	0.015488	0.726838	0.509667	0.460376	-0.643988	0.738727	0.198903	-0.238718	-0.441047	0.865154
61791	4.199392	2.424984	8.792915	-0.049872	-0.039213	0.034082	0.726531	0.509728	0.460793	-0.644095	0.738800	0.198284	-0.239363	-0.440854	0.865074
61792	4.410708	2.477962	8.768162	-0.064533	-0.095485	0.046093	0.726054	0.509531	0.461761	-0.644186	0.738924	0.197524	-0.240562	-0.440872	0.864732
61793	4.583138	2.425185	8.716801	-0.088750	-0.118928	0.063368	0.725366	0.509457	0.462923	-0.644409	0.739020	0.196433	-0.242035	-0.440798	0.864359
61794	4.793596	2.183007	8.684896	-0.093826	-0.128869	0.062675	0.724698	0.509236	0.464210	-0.644547	0.739189	0.195343	-0.243664	-0.440770	0.863916
61795	4.781046	2.076854	8.757486	-0.092181	-0.118889	0.063533	0.724005	0.509164	0.465370	-0.644760	0.739299	0.194221	-0.245157	-0.440669	0.863544
61796	4.615833	2.292192	8.697462	-0.094023	-0.125904	0.060245	0.723356	0.508938	0.466625	-0.644875	0.739482	0.193140	-0.246764	-0.440623	0.863110
61797	4.774078	2.346043	8.626794	-0.106040	-0.142653	0.066817	0.722578	0.508786	0.467994	-0.645074	0.739636	0.191882	-0.248518	-0.440540	0.862649
61798	5.000305	2.147852	8.732631	-0.105992	-0.135931	0.072137	0.721823	0.508603	0.469355	-0.645240	0.739811	0.190642	-0.250273	-0.440456	0.862184
61799	5.004425	1.930702	8.821718	-0.095707	-0.116073	0.073716	0.721062	0.508620	0.470505	-0.645509	0.739885	0.189440	-0.251767	-0.440314	0.861822
61800	5.013636	1.940461	8.781519	-0.085435	-0.102938	0.070041	0.720400	0.508567	0.471575	-0.645708	0.739981	0.188386	-0.253150	-0.440213	0.861468
61801	5.060943	1.720762	8.833523	-0.075656	-0.087178	0.062106	0.719784	0.508625	0.472453	-0.645941	0.740025	0.187411	-0.254305	-0.440072	0.861200
61802	5.198168	1.346099	8.985615	-0.059501	-0.062248	0.048011	0.719364	0.508590	0.473129	-0.646045	0.740118	0.186683	-0.255227	-0.439956	0.860987
61803	5.238553	1.380917	9.038775	-0.031127	-0.026942	0.023785	0.719148	0.508629	0.473415	-0.646114	0.740161	0.186273	-0.255660	-0.439838	0.860918
61804	5.095597	1.689091	8.967049	-0.018242	-0.001330	0.005991	0.719154	0.508554	0.473488	-0.646023	0.740285	0.186097	-0.255876	-0.439716	0.860916
61805	5.124252	1.882910	8.901206	-0.018262	0.012589	-0.001325	0.719201	0.508581	0.473387	-0.645944	0.740400	0.185916	-0.255942	-0.439493	0.861011
61806	5.059454	2.000773	8.812073	-0.006818	0.035005	-0.007621	0.719387	0.508565	0.473122	-0.645784	0.740542	0.185903	-0.255823	-0.439271	0.861160
61807	5.043254	1.838932	8.833966	0.001124	0.047159	-0.012826	0.719597	0.508659	0.472702	-0.645672	0.740630	0.185943	-0.255515	-0.439015	0.861382
61808	4.946940	1.759216	8.923972	0.021721	0.060067	-0.023751	0.719950	0.508634	0.472190	-0.645470	0.740729	0.186252	-0.255031	-0.438876	0.861596
61809	4.657859	2.092478	8.855842	0.038816	0.052398	-0.032549	0.720300	0.508604	0.471688	-0.645311	0.740751	0.186710	-0.254442	-0.438873	0.861771
61810	4.764226	2.026641	8.859092	0.033953	0.032784	-0.035961	0.720662	0.508370	0.471388	-0.645053	0.740858	0.187180	-0.254075	-0.438964	0.861834
61811	4.834696	2.010355	8.794822	0.036268	0.030163	-0.028215	0.720927	0.508275	0.471085	-0.644919	0.740870	0.187596	-0.253662	-0.439054	0.861909
61812	4.849127	2.117500	8.772922	0.035998	0.022823	-0.029741	0.721222	0.508044	0.470882	-0.644710	0.740935	0.188055	-0.253353	-0.439211	0.861920
61813	4.901960	2.088793	8.718476	0.031767	0.021279	-0.023950	0.721437	0.507941	0.470663	-0.644595	0.740945	0.188412	-0.253033	-0.439314	0.861961
61814	5.018171	1.777377	8.855223	0.038309	0.030521	-0.023028	0.721709	0.507793	0.470406	-0.644439	0.740966	0.188859	-0.252654	-0.439449	0.862004
61815	5.052305	1.949663	8.772347	0.053200	0.045899	-0.029197	0.722020	0.507760	0.469965	-0.644340	0.740908	0.189425	-0.252018	-0.439586	0.862120
61816	4.884543	2.094569	8.699670	0.050577	0.057929	-0.028883	0.722397	0.507690	0.469460	-0.644174	0.740904	0.190004	-0.251362	-0.439672	0.862268
61817	4.705687	2.284296	8.719377	0.044794	0.053400	-0.024018	0.722693	0.507728	0.468964	-0.644090	0.740856	0.190474	-0.250726	-0.439709	0.862434
61818	4.593617	2.247088	8.766939	0.031332	0.033745	-0.011400	0.722897	0.507681	0.468701	-0.644000	0.740849	0.190806	-0.250368	-0.439776	0.862504
61819	4.180634	2.386074	8.703037	0.023535	0.001044	0.002918	0.722887	0.507689	0.468707	-0.644058	0.740758	0.190965	-0.250248	-0.439921	0.862465
61820	4.245633	2.125903	8.856519	0.003751	-0.068757	0.020459	0.722629	0.507427	0.469388	-0.644130	0.740709	0.190910	-0.250807	-0.440304	0.862107
61821	4.158705	2.176326	8.854424	-0.004022	-0.128806	0.031679	0.722108	0.507075	0.470569	-0.644326	0.740594	0.190697	-0.251803	-0.440903	0.861510
61822	4.124741	2.367552	8.636818	-0.026049	-0.206313	0.042659	0.721357	0.506372	0.472474	-0.644483	0.740564	0.190279	-0.253545	-0.441761	0.860559
61823	4.053742	2.387588	8.778390	-0.059231	-0.288850	0.065944	0.720203	0.505564	0.475093	-0.644785	0.740520	0.189428	-0.256048	-0.442759	0.859304
61824	4.558908	2.122022	8.917963	-0.096578	-0.365743	0.082688	0.718771	0.504447	0.478436	-0.645048	0.740601	0.188213	-0.259387	-0.443896	0.857715
61825	4.685613	2.275195	8.913882	-0.125368	-0.399047	0.106972	0.717045	0.503447	0.482066	-0.645465	0.740647	0.186595	-0.263099	-0.444954	0.856034
61826	4.891295	2.239413	8.941799	-0.147825	-0.437178	0.125561	0.715119	0.502323	0.486083	-0.645889	0.740744	0.184731	-0.267269	-0.446061	0.854165
61827	5.011082	1.935869	9.357080	-0.149784	-0.459383	0.137645	0.712999	0.501271	0.490265	-0.646444	0.740750	0.182753	-0.271556	-0.447232	0.852198
61828	4.349186	1.668991	9.843630	-0.056855	-0.483884	0.107079	0.711026	0.499789	0.494624	-0.646969	0.740539	0.181750	-0.275452	-0.449235	0.849891
61829	3.963427	3.032937	9.816366	-0.091987	-0.674425	0.126478	0.708338	0.497668	0.500584	-0.647586	0.740351	0.180312	-0.280873	-0.451893	0.846701
61830	3.714281	3.298005	10.264024	-0.142398	-0.831376	0.111523	0.705293	0.494622	0.507850	-0.647890	0.740512	0.178554	-0.287752	-0.454963	0.842738
61831	-1.361726	2.605030	11.580328	-0.014983	-1.060543	0.374825	0.699774	0.492523	0.517434	-0.650455	0.738758	0.176478	-0.295339	-0.460062	0.837327
61832	3.953679	1.993821	10.797890	0.154307	-1.821802	0.611674	0.690329	0.488469	0.533707	-0.655100	0.735103	0.174552	-0.307067	-0.470130	0.827459
61833	2.873392	1.219743	10.736789	0.290335	-2.122034	0.723521	0.678924	0.483642	0.552407	-0.660938	0.730232	0.172981	-0.319724	-0.482548	0.815429
61834	3.110683	2.714671	11.708617	0.143853	-2.580396	0.862018	0.664767	0.477215	0.574761	-0.667138	0.725444	0.169285	-0.336171	-0.495980	0.800620
61835	3.809869	-0.018727	11.536871	0.090280	-3.078152	0.878191	0.648236	0.468045	0.600603	-0.673190	0.720868	0.164814	-0.355815	-0.511159	0.782376
61836	3.946692	0.784354	11.526361	0.297687	-3.343382	0.864530	0.630187	0.456811	0.627844	-0.679754	0.715372	0.161795	-0.375232	-0.528741	0.761337
61837	4.771680	2.794720	11.065769	0.186858	-3.803452	0.912967	0.609258	0.442836	0.657800	-0.686108	0.710290	0.157304	-0.397569	-0.547160	0.736583
61838	6.261957	2.738286	11.104926	0.203674	-4.062471	0.955891	0.586058	0.426939	0.688665	-0.692616	0.705038	0.152331	-0.420499	-0.566255	0.708898
61839	7.472184	3.564715	11.012696	0.235980	-4.313253	1.063863	0.560017	0.409537	0.720181	-0.699704	0.699260	0.146454	-0.443615	-0.585930	0.678152
61840	8.619908	4.621531	11.572984	0.172934	-4.329319	1.139290	0.532316	0.391663	0.750493	-0.706679	0.693703	0.139214	-0.466095	-0.604464	0.646049
61841	8.603292	6.064425	11.162756	0.050370	-4.299272	1.189565	0.503361	0.373514	0.779176	-0.713051	0.688875	0.130417	-0.488043	-0.621239	0.613087
61842	9.092320	10.149740	10.766473	-0.461925	-4.184890	1.267341	0.473406	0.355947	0.805722	-0.716886	0.687196	0.117625	-0.511821	-0.633295	0.580497
61843	4.336406	11.406790	13.195515	-1.392050	-3.726769	1.184814	0.445344	0.340430	0.828116	-0.714984	0.691944	0.100053	-0.538949	-0.636648	0.551555
61844	14.345692	6.638027	17.608392	-1.810899	-3.171745	0.507022	0.424249	0.323765	0.845688	-0.707136	0.701822	0.086056	-0.565661	-0.634526	0.526693
61845	6.329516	2.734808	17.307042	-1.124573	-1.717145	-0.400939	0.417227	0.310038	0.854282	-0.698970	0.710247	0.083609	-0.580829	-0.632002	0.513041
61846	-0.414827	2.591560	14.027707	-0.377086	-0.862028	-0.786999	0.417699	0.298948	0.857996	-0.693454	0.715051	0.088452	-0.587069	-0.631927	0.505983
61847	-4.922848	3.518199	10.968868	-0.261264	-0.522168	-0.658755	0.419179	0.290905	0.860037	-0.689126	0.718677	0.092788	-0.591096	-0.631568	0.501725
61848	-4.743261	1.399646	10.643878	-0.398141	-0.326412	-0.219565	0.418800	0.287280	0.861439	-0.685831	0.721832	0.092703	-0.595182	-0.629626	0.499329
61849	-2.407752	-1.101089	12.264850	-0.252501	0.097977	0.183615	0.418128	0.289201	0.861123	-0.685062	0.722922	0.089852	-0.596539	-0.627492	0.500394
61850	-0.600719	-1.267609	13.464029	0.113731	0.778946	0.475348	0.419528	0.297576	0.857581	-0.687749	0.720796	0.086334	-0.592450	-0.626020	0.507052
61851	0.188011	-0.042431	13.540655	0.388142	1.540033	0.720156	0.423613	0.312355	0.850286	-0.693035	0.716206	0.082169	-0.583314	-0.624086	0.519867
61852	0.410712	0.379209	12.565157	0.489956	2.238686	0.927254	0.430098	0.333020	0.839114	-0.699872	0.710116	0.076904	-0.570258	-0.620349	0.538491
61853	0.686649	-0.181153	11.352766	0.593520	2.788015	1.084794	0.438139	0.357883	0.824593	-0.707887	0.702735	0.071133	-0.554013	-0.614885	0.561236
61854	1.214031	-0.566134	10.350846	0.748326	3.180319	1.195887	0.446949	0.385856	0.807063	-0.717334	0.693631	0.065632	-0.534480	-0.608268	0.586806
61855	2.339640	-0.611056	9.837307	0.945604	3.468954	1.283657	0.455829	0.415646	0.787057	-0.728047	0.682802	0.061064	-0.512023	-0.600850	0.613850
61856	3.609435	-0.045162	9.449521	1.124136	3.719867	1.326185	0.464666	0.447016	0.764370	-0.739864	0.670270	0.057784	-0.486504	-0.592381	0.642183
61857	4.394373	0.936446	9.021066	1.229180	3.915411	1.295956	0.473518	0.478600	0.739407	-0.751728	0.657083	0.056094	-0.459005	-0.582394	0.670918
61858	4.693198	1.694104	8.886231	1.233079	4.008953	1.162317	0.482507	0.509468	0.712481	-0.762872	0.644115	0.056051	-0.430364	-0.570577	0.699449
61859	5.265438	1.454323	8.992376	1.216634	3.990401	0.929956	0.491976	0.537895	0.684565	-0.772440	0.632414	0.058211	-0.401617	-0.557423	0.726624
61860	6.199626	0.855553	9.136569	1.295355	3.923309	0.618183	0.502291	0.563565	0.655819	-0.780628	0.621753	0.063591	-0.371919	-0.543892	0.752235
61861	6.765358	0.526455	9.067206	1.406090	3.814468	0.288610	0.513646	0.585825	0.626879	-0.787087	0.612571	0.072461	-0.341559	-0.530628	0.775739
61862	7.326682	0.514588	9.096973	1.498723	3.647980	-0.031192	0.527458	0.603434	0.598042	-0.790164	0.607060	0.084371	-0.312135	-0.517054	0.797011
61863	8.110990	1.142604	9.138896	1.494070	3.474631	-0.315450	0.540284	0.619266	0.569739	-0.792896	0.601386	0.098238	-0.281798	-0.504821	0.815933
61864	8.138596	1.995337	9.094503	1.314890	3.305900	-0.581797	0.555842	0.630521	0.541741	-0.791254	0.601098	0.112244	-0.254867	-0.491044	0.833018
61865	7.698599	1.832949	9.037823	1.029729	3.120120	-0.829941	0.569962	0.640623	0.514534	-0.789055	0.601418	0.125257	-0.229208	-0.477387	0.848272
61866	7.186441	0.408678	9.069505	0.829706	2.931273	-1.106015	0.586891	0.646164	0.487884	-0.782751	0.606881	0.137828	-0.207028	-0.462781	0.861959
61867	7.124766	-0.886301	9.242132	0.795835	2.732120	-1.364498	0.602887	0.650299	0.462209	-0.776173	0.612125	0.151188	-0.184613	-0.449904	0.873788
61868	7.464453	-1.762935	9.394300	0.834198	2.530009	-1.598185	0.621967	0.649548	0.437314	-0.765623	0.621601	0.165632	-0.164249	-0.437835	0.883925
61869	8.168433	-2.293826	9.399925	0.863803	2.326202	-1.790663	0.639173	0.648402	0.413560	-0.755642	0.629511	0.180891	-0.143051	-0.428124	0.892326
61870	9.386313	-2.058380	9.285588	0.824973	2.123911	-1.919432	0.657999	0.643676	0.390792	-0.742720	0.640298	0.195922	-0.124113	-0.419166	0.899387
61871	10.675191	-0.747246	9.124895	0.623446	1.941504	-1.947833	0.674597	0.639147	0.369336	-0.730445	0.650233	0.208919	-0.106625	-0.410716	0.905507
61872	11.692040	0.756074	8.743362	0.219953	1.785428	-1.842518	0.691206	0.632757	0.349073	-0.716549	0.662776	0.217452	-0.093763	-0.400432	0.911517
61873	12.479452	1.386456	8.455747	-0.240659	1.653602	-1.614941	0.704165	0.628469	0.330420	-0.705052	0.673937	0.220703	-0.083977	-0.388375	0.917667
61874	12.182455	3.220214	5.359946	-0.844817	1.091919	-1.181990	0.714294	0.623585	0.317689	-0.694942	0.685643	0.216679	-0.082703	-0.375548	0.923106
61875	14.061995	-0.927290	-0.388136	-1.098723	0.489556	-0.581709	0.718746	0.621370	0.311934	-0.689827	0.693357	0.208311	-0.086843	-0.364904	0.926986
61876	18.549947	-2.640176	-0.222689	-0.870157	0.078997	-0.372943	0.722059	0.618307	0.310368	-0.685601	0.699584	0.201332	-0.092644	-0.358162	0.929052
61877	19.330909	0.390654	-0.029078	-0.293467	-0.191403	-0.454162	0.724993	0.614420	0.311245	-0.682022	0.703458	0.199981	-0.096075	-0.357261	0.929050
61878	19.816496	2.409184	-0.161451	-0.137840	-0.342737	-0.485872	0.728464	0.609185	0.313424	-0.677775	0.707497	0.200172	-0.099804	-0.358249	0.928276
61879	17.642016	2.429303	-1.182814	-0.119771	-0.545438	-0.546638	0.731609	0.603330	0.317397	-0.673646	0.711266	0.200750	-0.104635	-0.360684	0.926800
61880	14.436159	1.041170	-2.691048	-0.166143	-0.945025	-0.643260	0.735360	0.594738	0.324858	-0.668192	0.716251	0.201257	-0.112984	-0.365064	0.924101
61881	11.681784	-0.521438	-3.679507	-0.132862	-1.534064	-0.779481	0.738727	0.583456	0.337434	-0.662272	0.721358	0.202579	-0.125214	-0.373123	0.919293
61882	9.846636	-0.919839	-3.629761	-0.084733	-2.205699	-0.819380	0.741617	0.568571	0.355994	-0.655530	0.726913	0.204641	-0.142424	-0.385130	0.911806
61883	5.600300	1.446420	4.254499	-0.077952	-2.465996	-0.604760	0.741831	0.554485	0.377139	-0.650908	0.730640	0.206117	-0.161264	-0.398387	0.902930
61884	8.075425	2.660209	14.859543	-0.321811	-2.150302	-0.391987	0.741079	0.542413	0.395714	-0.646948	0.734532	0.204745	-0.179608	-0.407738	0.895260
61885	7.202205	1.788266	15.517192	-0.279028	-1.575362	-0.264159	0.739857	0.533978	0.409243	-0.644453	0.737127	0.203286	-0.193114	-0.414140	0.889492
61886	3.765316	-1.483134	8.460102	-0.317282	-1.439755	0.096628	0.736738	0.528130	0.422250	-0.643995	0.738404	0.200075	-0.206126	-0.419330	0.884124
61887	2.119361	-3.283362	5.926533	-0.218529	-1.729872	0.527868	0.729649	0.524687	0.438539	-0.647378	0.736577	0.195847	-0.220259	-0.426800	0.877113
61888	9.225687	-1.675049	11.882754	0.008068	-1.946356	0.649076	0.721349	0.520543	0.456827	-0.651608	0.733590	0.193008	-0.234655	-0.436898	0.868364
61889	24.809873	1.209217	23.545702	0.590506	-1.716086	-0.008630	0.717312	0.512851	0.471644	-0.652935	0.731044	0.198119	-0.243187	-0.450066	0.859244
61890	19.357091	7.314662	8.701875	-0.189130	0.608530	-0.124752	0.720067	0.513962	0.466205	-0.650890	0.733149	0.197067	-0.240512	-0.445350	0.862449
61891	-2.312257	3.723782	5.800989	0.114716	0.098342	-0.071713	0.720776	0.513856	0.465224	-0.650626	0.733034	0.198361	-0.239096	-0.445661	0.862682
61892	9.557504	0.897199	13.493172	-0.013730	0.031345	-0.028508	0.721579	0.512974	0.464954	-0.649592	0.733946	0.198379	-0.239488	-0.445176	0.862823
61893	2.473806	-0.154309	8.045830	0.224299	0.130485	-0.159907	0.722935	0.512363	0.463518	-0.648949	0.733794	0.201026	-0.237128	-0.446129	0.862983
61894	6.995635	2.416585	9.597540	0.217121	0.013423	-0.158256	0.724504	0.510489	0.463136	-0.647562	0.734301	0.203632	-0.236129	-0.447442	0.862577
61895	4.214954	2.375780	8.576615	0.202772	0.186895	-0.177479	0.726099	0.510003	0.461169	-0.646729	0.734326	0.206172	-0.233500	-0.447953	0.863027
61896	4.581848	3.032769	8.592569	0.169929	0.101510	-0.125850	0.727588	0.508856	0.460088	-0.645554	0.734782	0.208219	-0.232111	-0.448509	0.863113
61897	4.365698	3.056890	8.280371	0.111796	0.086000	-0.089098	0.728369	0.508569	0.459169	-0.645142	0.734762	0.209563	-0.230802	-0.448869	0.863277
61898	4.504415	2.656235	8.218375	0.039010	0.059834	-0.029758	0.729157	0.507912	0.458645	-0.644332	0.735337	0.210039	-0.230578	-0.448671	0.863440
61899	4.188427	1.957443	8.553899	0.001992	0.047288	0.000621	0.729269	0.508110	0.458248	-0.644319	0.735352	0.210023	-0.230259	-0.448421	0.863655
61900	3.758107	1.667563	8.775644	-0.007864	-0.011398	0.013990	0.729646	0.507403	0.458431	-0.643668	0.735960	0.209894	-0.230886	-0.448226	0.863589
61901	3.968640	1.718934	8.751156	-0.038254	-0.085200	0.017447	0.729344	0.507130	0.459213	-0.643685	0.736070	0.209453	-0.231793	-0.448352	0.863280
61902	4.388747	2.132259	8.802665	-0.034912	-0.159360	0.013926	0.729325	0.505833	0.460671	-0.643041	0.736736	0.209089	-0.233629	-0.448724	0.862592
61903	5.256479	2.882563	8.657744	-0.103502	-0.154262	0.028654	0.728786	0.505333	0.462070	-0.642985	0.737083	0.208034	-0.235458	-0.448717	0.862098
61904	5.083991	2.590481	8.808826	-0.076647	-0.134044	0.024626	0.728716	0.504280	0.463331	-0.642371	0.737836	0.207261	-0.237344	-0.448665	0.861608
61905	5.415542	2.153912	8.981792	-0.071391	-0.094027	0.018458	0.728381	0.503975	0.464188	-0.642314	0.738091	0.206531	-0.238527	-0.448588	0.861321
61906	5.445356	2.320038	8.862907	-0.044583	-0.063708	0.006070	0.728579	0.503120	0.464804	-0.641658	0.738775	0.206122	-0.239682	-0.448421	0.861087
61907	5.410211	2.093026	8.950635	-0.038340	-0.005094	0.010545	0.728506	0.503156	0.464879	-0.641621	0.738922	0.205713	-0.240004	-0.448139	0.861144
61908	5.118068	2.040257	8.996407	-0.018746	0.025032	0.008913	0.728919	0.502690	0.464736	-0.641016	0.739502	0.205512	-0.240365	-0.447705	0.861269
61909	4.931065	2.287064	8.816956	-0.013172	0.032168	0.006837	0.728960	0.502865	0.464483	-0.641012	0.739554	0.205337	-0.240254	-0.447422	0.861448
61910	4.748978	2.453982	8.674327	-0.020467	0.028477	0.011500	0.729301	0.502524	0.464317	-0.640515	0.740047	0.205111	-0.240543	-0.446989	0.861591
61911	4.591638	2.661494	8.505459	-0.032900	0.015088	0.022542	0.729200	0.502739	0.464242	-0.640577	0.740109	0.204693	-0.240683	-0.446646	0.861731
61912	4.583621	2.354964	8.680131	-0.055560	-0.004092	0.031725	0.729383	0.502329	0.464398	-0.640069	0.740720	0.204071	-0.241478	-0.446092	0.861795
61913	4.573053	2.216479	8.802272	-0.065086	-0.018687	0.037757	0.729104	0.502506	0.464645	-0.640164	0.740849	0.203305	-0.242070	-0.445680	0.861842
61914	4.348952	2.403496	8.769706	-0.078105	-0.053224	0.042404	0.729101	0.501955	0.465245	-0.639674	0.741509	0.202439	-0.243368	-0.445204	0.861722
61915	4.435635	2.400114	8.689297	-0.085697	-0.097730	0.053468	0.728528	0.501897	0.466205	-0.639832	0.741650	0.201422	-0.244668	-0.445034	0.861442
61916	4.701988	2.286782	8.639728	-0.096251	-0.120990	0.058479	0.728208	0.501231	0.467419	-0.639480	0.742250	0.200324	-0.246533	-0.444783	0.861040
61917	4.938091	2.029503	8.720021	-0.090354	-0.123416	0.060990	0.727520	0.501116	0.468613	-0.639678	0.742374	0.199232	-0.248048	-0.444706	0.860644
61918	5.145679	1.901356	8.774439	-0.075644	-0.102425	0.049573	0.727316	0.500443	0.469647	-0.639281	0.742951	0.198352	-0.249661	-0.444501	0.860284
61919	5.122084	1.770230	8.865204	-0.056795	-0.073601	0.035845	0.726910	0.500363	0.470361	-0.639377	0.743052	0.197666	-0.250598	-0.444423	0.860052
61920	5.019088	1.837691	8.857975	-0.039024	-0.053437	0.021011	0.727002	0.499706	0.470916	-0.638872	0.743600	0.197235	-0.251614	-0.444245	0.859847
61921	5.007874	1.982444	8.874207	-0.026864	-0.043918	0.014613	0.726806	0.499600	0.471332	-0.638888	0.743674	0.196905	-0.252144	-0.444240	0.859694
61922	5.038525	1.962176	8.846104	-0.017317	-0.025806	0.002205	0.727091	0.498919	0.471612	-0.638293	0.744226	0.196749	-0.252824	-0.444081	0.859576
61923	4.997686	1.907742	8.881712	-0.009032	-0.013658	0.003999	0.727038	0.498868	0.471747	-0.638276	0.744274	0.196623	-0.253020	-0.444058	0.859531
61924	4.950206	1.954778	8.844442	0.000135	-0.009727	-0.002569	0.727376	0.498250	0.471880	-0.637718	0.744747	0.196640	-0.253455	-0.443957	0.859455
61925	4.922512	1.993567	8.833713	0.005332	-0.009950	-0.006125	0.727397	0.498141	0.471963	-0.637663	0.744782	0.196685	-0.253533	-0.444022	0.859398
61926	4.952669	2.156716	8.777033	0.005758	-0.009217	-0.002771	0.727722	0.497545	0.472091	-0.637140	0.745213	0.196750	-0.253916	-0.443967	0.859314
61927	4.982731	2.098689	8.823773	0.007116	-0.003295	-0.004480	0.727750	0.497477	0.472120	-0.637101	0.745232	0.196804	-0.253934	-0.444012	0.859285
61928	4.944834	2.076995	8.844391	0.009406	0.000988	-0.003946	0.728067	0.496976	0.472157	-0.636639	0.745600	0.196906	-0.254183	-0.443955	0.859241
61929	4.891397	2.094615	8.823087	0.002797	0.001911	-0.000576	0.728083	0.496960	0.472150	-0.636618	0.745618	0.196904	-0.254190	-0.443941	0.859246
61930	4.980380	2.030974	8.801096	0.007247	0.000177	0.001660	0.728383	0.496468	0.472205	-0.636160	0.745994	0.196961	-0.254477	-0.443861	0.859203
61931	5.030179	1.854856	8.814725	0.011827	0.008743	0.002728	0.728395	0.496507	0.472145	-0.636186	0.745956	0.197020	-0.254377	-0.443881	0.859222
61932	5.118719	1.772194	8.830380	0.024672	0.026393	-0.011374	0.728880	0.495982	0.471949	-0.635624	0.746364	0.197288	-0.254395	-0.443781	0.859268
61933	4.997665	1.988487	8.791547	0.034160	0.044299	-0.018376	0.729116	0.496022	0.471542	-0.635553	0.746332	0.197639	-0.253894	-0.443791	0.859411
61934	4.800090	2.161501	8.682809	0.032218	0.050682	-0.018393	0.729672	0.495603	0.471123	-0.635010	0.746697	0.198004	-0.253655	-0.443646	0.859557
61935	4.459607	2.212710	8.752264	0.028410	0.026667	-0.009684	0.729808	0.495629	0.470885	-0.634988	0.746647	0.198265	-0.253319	-0.443701	0.859627
61936	4.431694	2.234137	8.667149	0.013194	-0.005359	-0.000364	0.730080	0.495135	0.470982	-0.634569	0.746972	0.198382	-0.253585	-0.443705	0.859547
61937	4.460906	2.105040	8.802770	0.006116	-0.045426	0.002273	0.729957	0.494930	0.471388	-0.634578	0.746961	0.198394	-0.253917	-0.443951	0.859322
61938	4.742693	2.083243	8.763378	0.007171	-0.080330	0.006938	0.730003	0.494142	0.472143	-0.634180	0.747291	0.198425	-0.254778	-0.444274	0.858899
61939	4.874335	2.191692	8.702537	0.004835	-0.084815	0.011835	0.729719	0.493833	0.472905	-0.634254	0.747239	0.198381	-0.255406	-0.444705	0.858490
61940	4.852343	2.249929	8.651082	-0.000564	-0.084958	0.013734	0.729722	0.493054	0.473713	-0.633864	0.747588	0.198313	-0.256363	-0.444983	0.858060
61941	4.866748	1.927198	8.823972	-0.009715	-0.088885	0.020332	0.729372	0.492790	0.474526	-0.633964	0.747559	0.198105	-0.257113	-0.445324	0.857659
61942	4.748812	1.856493	8.914476	-0.008367	-0.099683	0.016314	0.729301	0.491988	0.475465	-0.633598	0.747908	0.197957	-0.258211	-0.445624	0.857173
61943	4.709620	2.233138	8.717347	-0.022899	-0.123779	0.023458	0.728840	0.491592	0.476582	-0.633686	0.747923	0.197620	-0.259298	-0.446037	0.856630
61944	4.623763	2.232216	8.765226	-0.041222	-0.145039	0.033433	0.728528	0.490734	0.477941	-0.633376	0.748320	0.197109	-0.260925	-0.446316	0.855991
61945	4.752821	2.183246	8.747035	-0.056750	-0.184619	0.046924	0.727754	0.490240	0.479623	-0.633545	0.748371	0.196370	-0.262668	-0.446772	0.855219
61946	4.838883	2.247804	8.825124	-0.072692	-0.204907	0.058482	0.727128	0.489291	0.481539	-0.633321	0.748797	0.195469	-0.264934	-0.447099	0.854349
61947	4.910594	2.351158	8.748866	-0.095510	-0.218219	0.075325	0.726077	0.488858	0.483560	-0.633589	0.748884	0.194261	-0.267164	-0.447427	0.853483
61948	4.881117	2.553607	8.765418	-0.119575	-0.244285	0.101311	0.725067	0.488047	0.485889	-0.633538	0.749317	0.192752	-0.270013	-0.447588	0.852501
61949	4.284096	2.807924	8.838101	-0.156867	-0.275276	0.129085	0.723508	0.487761	0.488493	-0.634023	0.749417	0.190758	-0.273040	-0.447731	0.851461
61950	3.015203	3.520986	8.815814	-0.213263	-0.406414	0.170425	0.721588	0.486755	0.492322	-0.634213	0.749925	0.188111	-0.277641	-0.447976	0.849843
61951	3.341691	2.851712	9.939831	-0.292832	-0.649230	0.227507	0.718327	0.485529	0.498265	-0.635003	0.750161	0.184472	-0.284213	-0.448911	0.847173
61952	5.345325	0.828028	10.351396	-0.104839	-0.779626	0.149113	0.715357	0.482764	0.505176	-0.635409	0.750216	0.182842	-0.290721	-0.451791	0.843425
61953	4.468867	2.762399	9.693816	-0.132343	-0.907883	0.167919	0.711623	0.479886	0.513129	-0.636192	0.750036	0.180846	-0.298080	-0.455143	0.839043
61954	-1.493146	2.554952	11.686187	0.093167	-1.054493	0.457437	0.705811	0.478012	0.522814	-0.639243	0.747820	0.179258	-0.305283	-0.460728	0.833386
61955	4.596122	0.488806	10.542941	0.158357	-1.686399	0.522763	0.697225	0.474045	0.537735	-0.643377	0.744623	0.177772	-0.316138	-0.469913	0.824159
61956	2.902540	1.663645	10.528854	0.287406	-2.029344	0.635564	0.686790	0.468760	0.555503	-0.648347	0.740569	0.176647	-0.328583	-0.481478	0.812534
61957	3.401514	2.527310	11.531942	0.209215	-2.448524	0.754917	0.673646	0.462365	0.576559	-0.654158	0.736063	0.174034	-0.343916	-0.494398	0.798306
61958	3.501560	1.217825	11.477016	0.150276	-2.927634	0.843179	0.657991	0.453499	0.601155	-0.659913	0.731799	0.170251	-0.362716	-0.508733	0.780787
61959	3.895890	1.279556	11.933285	0.307725	-3.359239	0.907052	0.639461	0.442709	0.628569	-0.666917	0.726172	0.167021	-0.382508	-0.526007	0.759608
61960	4.450434	3.113127	11.521945	0.274246	-3.815116	1.034310	0.617721	0.429425	0.658798	-0.674113	0.720553	0.162403	-0.404959	-0.544424	0.734582
61961	6.551202	3.049225	12.031566	0.376854	-4.079847	1.127390	0.593102	0.414868	0.690011	-0.682479	0.713735	0.157496	-0.427145	-0.564329	0.706456
61962	7.648874	4.113209	11.129643	0.417449	-4.263436	1.279386	0.565830	0.399152	0.721467	-0.691350	0.706491	0.151343	-0.449301	-0.584421	0.675708
61963	8.795245	5.140413	11.723408	0.385533	-4.237833	1.380374	0.536742	0.383651	0.751478	-0.700704	0.698830	0.143704	-0.470023	-0.603696	0.643917
61964	8.792783	7.594968	10.608146	0.291660	-4.282006	1.467436	0.506030	0.367317	0.780392	-0.709362	0.691933	0.134291	-0.490652	-0.621536	0.610699
61965	7.371064	12.602842	13.126545	-0.473975	-4.022278	1.573111	0.474628	0.352931	0.806330	-0.714665	0.689273	0.118977	-0.513791	-0.632726	0.579376
61966	8.139227	10.831168	17.123954	-1.505060	-3.515752	1.392386	0.446394	0.339945	0.827750	-0.712639	0.694497	0.099096	-0.541183	-0.634123	0.552277
61967	10.888953	4.235382	20.140248	-1.237800	-2.121902	0.568223	0.430684	0.330445	0.839832	-0.708287	0.700466	0.087616	-0.559321	-0.632577	0.535730
61968	1.324375	2.338006	15.392400	-0.488726	-1.168600	0.046891	0.424215	0.322803	0.846073	-0.704783	0.704356	0.084639	-0.568615	-0.632203	0.526304
61969	-3.528335	4.551046	12.156313	-0.102064	-0.698700	-0.049506	0.420581	0.318008	0.849696	-0.703959	0.705194	0.084517	-0.572323	-0.633697	0.520456
61970	-4.250959	4.432730	10.898344	-0.274173	-0.505644	0.196376	0.416715	0.315685	0.852462	-0.702317	0.707191	0.081431	-0.577147	-0.632633	0.516408
61971	-2.329692	1.932301	12.156051	-0.347344	-0.122106	0.480339	0.412638	0.318289	0.853476	-0.702267	0.707895	0.075535	-0.580130	-0.630537	0.515628
61972	-1.120241	0.536436	13.070493	-0.080948	0.477822	0.665035	0.411261	0.325404	0.851456	-0.703451	0.707343	0.069446	-0.579673	-0.627518	0.519808
61973	-0.714467	1.279685	13.073844	0.241552	1.170150	0.793384	0.412410	0.338306	0.845853	-0.708079	0.703230	0.063973	-0.573186	-0.625313	0.529567
61974	-0.736635	2.283991	12.337431	0.382383	1.797409	0.908260	0.416928	0.355085	0.836711	-0.712588	0.699151	0.058371	-0.564261	-0.620567	0.544525
61975	-0.453697	2.385073	11.273116	0.425563	2.315824	0.998787	0.422702	0.376323	0.824442	-0.719123	0.692902	0.052423	-0.551529	-0.615035	0.563513
61976	0.196158	1.996040	10.398589	0.493898	2.731666	1.040445	0.431310	0.398950	0.809204	-0.724137	0.688071	0.046738	-0.538143	-0.606133	0.585666
61977	0.995810	1.524026	9.807079	0.638549	3.051655	1.019718	0.440040	0.424278	0.791425	-0.731928	0.680063	0.042383	-0.520236	-0.597916	0.609796
61978	1.988221	1.466056	9.274635	0.834680	3.287157	0.937090	0.451716	0.448429	0.771274	-0.737702	0.673927	0.040223	-0.501745	-0.587140	0.635230
61979	2.951876	2.028318	8.894772	0.984891	3.473491	0.819901	0.462665	0.474127	0.749096	-0.746250	0.664441	0.040360	-0.478594	-0.577686	0.661231
61980	3.436908	2.666192	8.540404	1.031809	3.575826	0.636643	0.477045	0.496554	0.725164	-0.750820	0.659132	0.042585	-0.456833	-0.564783	0.687258
61981	3.600398	2.748054	8.461194	1.004088	3.571706	0.385961	0.490017	0.519030	0.700351	-0.757122	0.651592	0.046843	-0.432030	-0.553205	0.712260
61982	4.250550	1.902998	8.760156	1.010085	3.486438	0.064663	0.507172	0.535808	0.675046	-0.758081	0.649949	0.053670	-0.409988	-0.538959	0.735821
61983	5.442033	1.426850	8.980577	1.109991	3.392763	-0.278191	0.522765	0.552081	0.649556	-0.761029	0.645575	0.063782	-0.384124	-0.527674	0.757634
61984	6.328958	2.031535	9.220609	1.167275	3.298911	-0.607551	0.539617	0.565525	0.623695	-0.762194	0.642801	0.076596	-0.357594	-0.516709	0.777906
61985	7.203860	2.801853	9.630848	1.062342	3.205217	-0.910763	0.557613	0.576030	0.597709	-0.760835	0.642604	0.090500	-0.331960	-0.505222	0.796589
61986	7.954911	2.750359	10.149043	0.859308	3.129152	-1.180482	0.576563	0.584168	0.571246	-0.756948	0.645097	0.104304	-0.307578	-0.492542	0.814124
61987	8.565512	2.038696	10.475661	0.686604	3.078653	-1.453632	0.596642	0.589688	0.544322	-0.750429	0.650326	0.118034	-0.284384	-0.478899	0.830531
61988	8.850447	1.416408	10.400540	0.600384	3.032103	-1.670383	0.617363	0.593194	0.516704	-0.741983	0.657313	0.131911	-0.261388	-0.464823	0.845941
61989	8.612452	1.288883	9.837087	0.508256	2.944896	-1.810290	0.638086	0.594679	0.489084	-0.731869	0.665770	0.145323	-0.239196	-0.450674	0.860046
61990	8.248097	0.869328	9.312901	0.412916	2.805695	-1.859876	0.657987	0.594773	0.461842	-0.720810	0.674949	0.157723	-0.217911	-0.436680	0.872826
61991	8.024508	0.209362	8.853957	0.371430	2.615602	-1.858345	0.676722	0.593374	0.435837	-0.709159	0.684421	0.169297	-0.197840	-0.423645	0.883960
61992	7.810907	-0.520647	8.565230	0.404497	2.418356	-1.840433	0.694191	0.590904	0.411012	-0.697352	0.693587	0.180658	-0.178321	-0.412031	0.893550
61993	7.737513	-0.994672	8.702976	0.503933	2.195895	-1.817254	0.710475	0.587146	0.387925	-0.685420	0.702267	0.192409	-0.159455	-0.402592	0.901384
61994	8.139477	-1.238158	8.890872	0.625328	1.957808	-1.782349	0.725501	0.582473	0.366570	-0.673610	0.710159	0.204754	-0.141059	-0.395474	0.907581
61995	9.130571	-0.684214	9.026609	0.707739	1.760824	-1.737725	0.739444	0.576967	0.346889	-0.661798	0.717480	0.217361	-0.123476	-0.390296	0.912372
61996	10.388988	0.218633	9.230880	0.672536	1.602049	-1.661484	0.752162	0.571302	0.328430	-0.650228	0.724380	0.229079	-0.107034	-0.385859	0.916328
61997	11.647184	0.989603	9.204309	0.535476	1.491061	-1.590562	0.763909	0.565425	0.311027	-0.638686	0.731393	0.239047	-0.092320	-0.381259	0.919847
61998	13.006816	4.175525	4.693835	-0.279274	0.821239	-1.238234	0.772473	0.559503	0.300404	-0.628961	0.739394	0.240217	-0.087715	-0.374503	0.923067
61999	16.097727	1.312977	3.733426	-0.782225	0.658985	-0.816782	0.778168	0.555850	0.292377	-0.621925	0.746868	0.235367	-0.087538	-0.364992	0.926886
62000	20.355771	-2.512865	3.227548	-0.877610	0.545248	-0.588796	0.782288	0.553440	0.285884	-0.616572	0.753292	0.228888	-0.088679	-0.355325	0.930527
62001	21.574285	-1.283456	2.748035	-0.540443	0.565157	-0.555322	0.786206	0.551212	0.279367	-0.611723	0.758285	0.225385	-0.087605	-0.348094	0.933357
62002	20.543967	-0.425802	0.443833	-0.436385	0.526218	-0.462331	0.789491	0.549512	0.273386	-0.607691	0.762350	0.222562	-0.086115	-0.341845	0.935802
62003	17.654517	-0.535709	-2.304641	-0.516043	0.206516	-0.381385	0.791991	0.547279	0.270621	-0.604209	0.766217	0.218730	-0.087648	-0.336744	0.937508
62004	14.930146	-1.720011	-5.404546	-0.592083	-0.464986	-0.339552	0.793641	0.543064	0.274254	-0.600934	0.770092	0.214096	-0.094933	-0.334725	0.937522
62005	12.403512	-1.806871	-7.861008	-0.568563	-1.414624	-0.391919	0.794551	0.535261	0.286678	-0.597222	0.774141	0.209837	-0.109612	-0.337937	0.934764
62006	9.159167	-1.336799	-8.155979	-0.531182	-2.449657	-0.494380	0.794572	0.522951	0.308509	-0.592582	0.778627	0.206364	-0.132295	-0.346788	0.928567
62007	1.979493	1.895060	4.233709	-0.504109	-2.846249	-0.481899	0.793295	0.509145	0.333849	-0.588004	0.782914	0.203216	-0.157909	-0.357515	0.920461
62008	7.447257	1.617986	14.896928	-0.531540	-2.844065	-0.691504	0.792527	0.493296	0.358553	-0.581530	0.788366	0.200753	-0.183640	-0.367612	0.911668
62009	9.253142	2.372271	17.732194	-0.163293	-2.464694	-1.075436	0.793961	0.475573	0.378755	-0.572660	0.794210	0.203204	-0.204173	-0.378234	0.902914
62010	11.134245	1.193437	15.531259	-0.086405	-1.869564	-0.965415	0.795530	0.460630	0.393639	-0.564720	0.799116	0.206167	-0.219596	-0.386308	0.895848
62011	12.431058	-3.667918	12.354805	0.041349	-1.218109	-0.609896	0.796234	0.450986	0.403266	-0.559935	0.801760	0.208935	-0.229096	-0.392164	0.890911
62012	11.618071	-6.268196	10.537556	0.249419	-0.583590	-0.245781	0.796294	0.446611	0.407988	-0.558473	0.801934	0.212156	-0.232428	-0.396789	0.887995
62013	7.727607	-5.263038	10.421839	0.373626	-0.091682	0.192844	0.795009	0.447769	0.409224	-0.560849	0.799608	0.214652	-0.231104	-0.400163	0.886826
62014	3.654996	-1.560136	10.716772	0.524661	-0.145615	0.383536	0.792536	0.450159	0.411393	-0.565038	0.795821	0.217715	-0.229388	-0.405000	0.885074
62015	2.566116	5.749910	9.151410	0.598192	-0.426647	0.153827	0.790692	0.449618	0.415511	-0.567604	0.792713	0.222334	-0.229415	-0.411643	0.881997
62016	3.097836	10.322197	7.441663	0.395118	-0.806266	0.061509	0.788495	0.446681	0.422789	-0.568945	0.790844	0.225539	-0.233616	-0.418380	0.877714
62017	5.112334	8.676616	8.293114	0.089327	-0.965620	0.027072	0.786057	0.442811	0.431315	-0.569346	0.790374	0.226175	-0.240747	-0.423354	0.873391
62018	8.582486	7.554800	11.129579	-0.299768	-0.929221	0.148557	0.782963	0.439938	0.439800	-0.569696	0.791046	0.222919	-0.249831	-0.425090	0.869990
62019	9.617383	-1.505163	10.946946	-0.566118	-0.473910	0.346704	0.779791	0.440652	0.444692	-0.570946	0.791945	0.216433	-0.256800	-0.422668	0.869141
62020	6.626184	-0.358694	9.803696	-0.232190	-0.325269	0.169737	0.778012	0.440509	0.447939	-0.571582	0.792238	0.213666	-0.260753	-0.422269	0.868157
62021	4.564917	1.707325	9.306516	-0.179368	-0.270271	0.134012	0.776542	0.440409	0.450580	-0.572128	0.792431	0.211478	-0.263917	-0.422010	0.867326
62022	4.511746	1.929620	9.035047	-0.227716	-0.279201	0.127908	0.775097	0.440137	0.453325	-0.572434	0.792886	0.208929	-0.267478	-0.421439	0.866513
62023	4.833879	0.919776	9.139361	-0.220425	-0.306968	0.123626	0.773569	0.439804	0.456250	-0.572771	0.793297	0.206428	-0.271154	-0.421013	0.865577
62024	4.960649	1.803683	8.874157	-0.199870	-0.301540	0.117183	0.772101	0.439360	0.459154	-0.573052	0.793680	0.204164	-0.274720	-0.420755	0.864577
62025	5.130828	3.464630	8.629490	-0.220232	-0.286478	0.115253	0.770654	0.439049	0.461874	-0.573306	0.794126	0.201701	-0.278230	-0.420237	0.863707
62026	4.980527	2.860247	8.547738	-0.264343	-0.217684	0.130444	0.769324	0.439066	0.464071	-0.573490	0.794721	0.198817	-0.281513	-0.419095	0.863198
62027	5.192527	1.785840	8.972799	-0.220421	-0.235455	0.121174	0.767969	0.439022	0.466352	-0.573771	0.795138	0.196322	-0.284624	-0.418349	0.862539
62028	5.277344	1.378607	9.260732	-0.160648	-0.193480	0.082886	0.766967	0.438764	0.468238	-0.573866	0.795504	0.194553	-0.287123	-0.417922	0.861917
62029	5.508382	1.520026	9.072406	-0.125869	-0.152177	0.053712	0.766226	0.438535	0.469664	-0.573888	0.795821	0.193188	-0.289049	-0.417561	0.861449
62030	5.460718	1.648178	9.184322	-0.086001	-0.104223	0.026084	0.765801	0.438201	0.470668	-0.573758	0.796123	0.192327	-0.290432	-0.417333	0.861093
62031	5.265343	2.037918	8.999766	-0.066095	-0.061235	0.014112	0.765548	0.438037	0.471233	-0.573647	0.796363	0.191662	-0.291318	-0.417048	0.860933
62032	5.138922	2.231425	8.942683	-0.057320	-0.040373	0.010075	0.765397	0.437844	0.471656	-0.573477	0.796616	0.191123	-0.292047	-0.416768	0.860821
62033	5.147264	2.239457	8.852239	-0.058952	-0.023204	0.024804	0.765193	0.437923	0.471914	-0.573467	0.796779	0.190469	-0.292600	-0.416373	0.860825
62034	4.903505	2.332539	8.761833	-0.057796	-0.010791	0.033745	0.764994	0.438042	0.472127	-0.573475	0.796930	0.189814	-0.293106	-0.415960	0.860852
62035	4.780491	2.201383	8.795249	-0.065371	-0.025962	0.041523	0.764685	0.438243	0.472440	-0.573574	0.797046	0.189027	-0.293717	-0.415525	0.860854
62036	4.861324	2.009461	8.829719	-0.059418	-0.038636	0.044892	0.764340	0.438334	0.472914	-0.573661	0.797154	0.188305	-0.294444	-0.415221	0.860752
62037	4.861406	2.045078	8.756115	-0.054891	-0.040043	0.041697	0.763989	0.438479	0.473347	-0.573791	0.797225	0.187607	-0.295103	-0.414932	0.860666
62038	4.626710	2.143520	8.798226	-0.053199	-0.050688	0.044576	0.763609	0.438518	0.473923	-0.573893	0.797308	0.186940	-0.295886	-0.414730	0.860494
62039	4.784527	2.196663	8.675363	-0.054059	-0.076660	0.044614	0.763131	0.438535	0.474677	-0.574046	0.797363	0.186234	-0.296819	-0.414608	0.860232
62040	5.033529	1.994172	8.641293	-0.048749	-0.073075	0.041813	0.762700	0.438459	0.475439	-0.574138	0.797440	0.185619	-0.297748	-0.414539	0.859944
62041	4.931508	1.893391	8.736847	-0.042492	-0.060545	0.034802	0.762325	0.438464	0.476035	-0.574250	0.797490	0.185059	-0.298491	-0.414438	0.859735
62042	4.991418	1.941557	8.779238	-0.035770	-0.057640	0.032144	0.761994	0.438376	0.476646	-0.574307	0.797555	0.184601	-0.299226	-0.414406	0.859495
62043	4.911355	1.938327	8.799385	-0.026683	-0.046467	0.025433	0.761715	0.438365	0.477103	-0.574393	0.797580	0.184222	-0.299771	-0.414369	0.859323
62044	4.957420	2.116620	8.623798	-0.032123	-0.060715	0.027650	0.761399	0.438228	0.477731	-0.574426	0.797650	0.183816	-0.300509	-0.414379	0.859060
62045	5.081253	1.765804	8.770375	-0.037725	-0.044010	0.026767	0.761119	0.438238	0.478169	-0.574489	0.797716	0.183336	-0.301098	-0.414243	0.858919
62046	5.101415	1.864865	8.746799	-0.019346	-0.031926	0.021371	0.760925	0.438171	0.478538	-0.574512	0.797760	0.183069	-0.301543	-0.414228	0.858770
62047	4.959371	1.938577	8.750826	-0.019816	-0.022298	0.017014	0.760766	0.438193	0.478772	-0.574555	0.797794	0.182789	-0.301864	-0.414140	0.858700
62048	4.969162	1.786155	8.759112	-0.015646	-0.021014	0.016584	0.760633	0.438133	0.479038	-0.574552	0.797844	0.182578	-0.302205	-0.414107	0.858596
62049	5.220782	1.571974	8.895241	0.006799	-0.007125	-0.007018	0.760657	0.438026	0.479097	-0.574492	0.797873	0.182641	-0.302257	-0.414165	0.858550
62050	5.312747	1.492672	8.906576	0.036612	0.024398	-0.023216	0.760889	0.437838	0.478901	-0.574346	0.797880	0.183068	-0.301952	-0.414349	0.858568
62051	5.127600	1.746587	8.819692	0.065348	0.053909	-0.042355	0.761300	0.437701	0.478372	-0.574193	0.797821	0.183803	-0.301204	-0.414607	0.858707
62052	4.977729	1.883958	8.775524	0.071761	0.070394	-0.053973	0.761846	0.437460	0.477723	-0.573919	0.797817	0.184678	-0.300346	-0.414871	0.858880
62053	4.902539	1.922740	8.864952	0.072237	0.071369	-0.055975	0.762387	0.437288	0.477017	-0.573682	0.797788	0.185537	-0.299425	-0.415107	0.859087
62054	4.947251	1.868393	8.826369	0.069932	0.063385	-0.057254	0.762929	0.436992	0.476422	-0.573375	0.797804	0.186411	-0.298631	-0.415387	0.859228
62055	4.928812	1.927337	8.809239	0.072064	0.071021	-0.057573	0.763476	0.436806	0.475715	-0.573123	0.797783	0.187276	-0.297714	-0.415624	0.859432
62056	4.875813	2.135435	8.734677	0.065366	0.068112	-0.054872	0.764017	0.436550	0.475081	-0.572821	0.797807	0.188098	-0.296909	-0.415847	0.859603
62057	4.911762	2.177365	8.737587	0.057576	0.059307	-0.043513	0.764448	0.436428	0.474500	-0.572631	0.797784	0.188771	-0.296164	-0.416020	0.859776
62058	4.770195	2.162553	8.701816	0.056409	0.056735	-0.035728	0.764844	0.436277	0.474000	-0.572447	0.797761	0.189426	-0.295497	-0.416221	0.859908
62059	4.667303	2.166730	8.756775	0.045219	0.037925	-0.028651	0.765126	0.436184	0.473630	-0.572334	0.797724	0.189922	-0.294985	-0.416389	0.860002
62060	4.346449	2.274423	8.656095	0.038498	0.006850	-0.013027	0.765244	0.436007	0.473602	-0.572270	0.797677	0.190315	-0.294802	-0.416665	0.859931
62061	4.142120	2.375944	8.691343	0.024149	-0.056504	-0.000807	0.765088	0.435743	0.474097	-0.572307	0.797606	0.190498	-0.295134	-0.417076	0.859618
62062	4.304533	2.203726	8.642158	0.010020	-0.119507	0.013111	0.764684	0.435248	0.475203	-0.572359	0.797563	0.190522	-0.296080	-0.417676	0.859002
62063	4.466046	2.227670	8.640827	-0.001711	-0.174251	0.023038	0.764041	0.434681	0.476753	-0.572503	0.797496	0.190369	-0.297459	-0.418392	0.858176
62064	4.836227	1.904437	8.765831	-0.012360	-0.198810	0.022988	0.763340	0.433931	0.478555	-0.572564	0.797504	0.190154	-0.299136	-0.419156	0.857220
62065	4.695793	2.048915	8.705123	-0.014259	-0.213366	0.030647	0.762531	0.433258	0.480452	-0.572727	0.797457	0.189857	-0.300883	-0.419940	0.856224
62066	4.543493	2.348844	8.687642	-0.039620	-0.264234	0.048787	0.761477	0.432436	0.482858	-0.572902	0.797468	0.189283	-0.303211	-0.420765	0.854997
62067	4.610733	2.339211	8.803407	-0.087469	-0.304188	0.071573	0.760145	0.431704	0.485603	-0.573152	0.797554	0.188161	-0.306065	-0.421354	0.853689
62068	4.570837	2.519898	8.778646	-0.126310	-0.361774	0.104511	0.758456	0.430912	0.488937	-0.573479	0.797691	0.186576	-0.309623	-0.421904	0.852133
62069	4.872245	2.060942	9.107367	-0.151048	-0.401648	0.125391	0.756491	0.430195	0.492599	-0.573930	0.797816	0.184647	-0.313569	-0.422401	0.850442
62070	5.116556	0.976703	10.113688	-0.034631	-0.441310	0.080787	0.754659	0.428872	0.496548	-0.574353	0.797671	0.183955	-0.317189	-0.424017	0.848293
62071	3.509991	3.284693	9.792130	-0.058987	-0.591293	0.086777	0.752276	0.427028	0.501725	-0.574790	0.797577	0.182995	-0.322021	-0.426049	0.845449
62072	3.827886	3.067939	10.119703	-0.108219	-0.774867	0.110789	0.749140	0.424505	0.508512	-0.575194	0.797622	0.181523	-0.328543	-0.428480	0.841703
62073	3.100096	4.017925	10.470022	-0.219548	-0.979407	0.061390	0.745533	0.420764	0.516855	-0.574893	0.798333	0.179339	-0.337163	-0.430839	0.837077
62074	-0.965485	1.455265	11.562822	0.171403	-1.445021	0.620990	0.737026	0.419337	0.530046	-0.580007	0.795034	0.177519	-0.346964	-0.438267	0.829179
62075	3.766344	1.371176	10.672894	0.213298	-1.868398	0.608549	0.726886	0.415865	0.546528	-0.585186	0.791575	0.175976	-0.359436	-0.447735	0.818743
62076	2.803073	1.833231	11.704981	0.346260	-2.442278	0.828080	0.713060	0.411228	0.567836	-0.592353	0.786627	0.174171	-0.375051	-0.460554	0.804504
62077	2.447601	2.260316	12.252098	0.093945	-2.982475	0.936266	0.695993	0.404621	0.593191	-0.599282	0.782397	0.169459	-0.395544	-0.473431	0.787025
62078	4.208494	0.565307	12.762651	0.166116	-3.573524	1.020303	0.675297	0.395316	0.622655	-0.606897	0.777562	0.164542	-0.419107	-0.489002	0.765001
62079	3.342140	2.804058	12.228633	0.293347	-3.963261	1.137365	0.651249	0.384370	0.654320	-0.615676	0.771696	0.159465	-0.443642	-0.506700	0.739213
62080	6.400445	3.479375	12.173776	0.236777	-4.450908	1.258381	0.623106	0.371024	0.688535	-0.624728	0.765761	0.152725	-0.470589	-0.525311	0.708939
62081	7.108229	4.418391	11.433938	0.280197	-4.614393	1.435952	0.591739	0.357269	0.722637	-0.634775	0.759062	0.144515	-0.496896	-0.544227	0.675952
62082	9.197615	5.281652	11.937237	0.292950	-4.660903	1.582629	0.557875	0.343379	0.755557	-0.645318	0.751936	0.134745	-0.521862	-0.562746	0.641075
62083	10.024284	8.571327	11.203413	0.198202	-4.668733	1.722011	0.521746	0.329567	0.786872	-0.655641	0.745039	0.122685	-0.545818	-0.579915	0.604799
62084	9.424836	12.685634	11.161187	-0.716334	-4.495522	1.931051	0.483891	0.317601	0.815463	-0.661289	0.743024	0.103017	-0.573190	-0.589106	0.569568
62085	4.781108	12.732957	13.391257	-1.854994	-4.019103	1.938617	0.447425	0.308375	0.839473	-0.659361	0.747905	0.076690	-0.604197	-0.587829	0.537962
62086	15.551897	6.594159	18.820191	-2.414948	-3.376883	1.205813	0.418648	0.297668	0.857979	-0.649555	0.758407	0.053826	-0.634675	-0.579838	0.510858
62087	10.785049	2.396465	19.838945	-1.389482	-1.577497	0.023777	0.408361	0.288725	0.865955	-0.640690	0.766384	0.046607	-0.650198	-0.573841	0.497945
62088	2.621374	2.260342	15.231326	-0.312349	-0.428333	-0.571887	0.409263	0.281823	0.867802	-0.636259	0.769850	0.050052	-0.653971	-0.572631	0.494384
62089	-3.562770	4.401959	10.790013	-0.008141	0.028316	-0.624262	0.413413	0.277149	0.867340	-0.633602	0.771672	0.055423	-0.653941	-0.572461	0.494621
62090	-5.166614	3.540746	8.545649	-0.215236	0.106848	-0.247190	0.415725	0.275820	0.866658	-0.631127	0.773616	0.056535	-0.654867	-0.570475	0.495689
62091	-3.877529	0.005209	8.983385	-0.284029	0.246910	0.181313	0.416200	0.278604	0.865539	-0.629984	0.774760	0.053549	-0.655666	-0.567563	0.497971
62092	-2.253584	-2.097062	10.040834	0.065986	0.585129	0.474688	0.417087	0.285587	0.862831	-0.632368	0.773065	0.049807	-0.652801	-0.566401	0.503032
62093	-0.984731	-1.343553	10.909000	0.514586	1.081056	0.682494	0.419767	0.296950	0.857681	-0.638527	0.768191	0.046542	-0.645042	-0.567189	0.512072
62094	-0.366107	0.200954	11.054444	0.746562	1.617147	0.847317	0.424712	0.312635	0.849635	-0.646875	0.761371	0.043200	-0.633382	-0.567955	0.525599
62095	0.222631	0.825181	10.636661	0.805867	2.112923	0.968803	0.431635	0.331944	0.838752	-0.656035	0.753706	0.039320	-0.619120	-0.567222	0.543092
62096	0.747798	0.751449	9.919732	0.847337	2.537679	1.023629	0.440421	0.354034	0.825039	-0.665690	0.745383	0.035505	-0.602400	-0.564858	0.563959
62097	1.362094	0.521917	9.172268	0.943181	2.874413	1.011549	0.450681	0.377692	0.808848	-0.675755	0.736402	0.032660	-0.583302	-0.561303	0.587110
62098	1.869832	0.231403	8.595465	1.082879	3.109731	0.931482	0.462188	0.401969	0.790445	-0.686236	0.726687	0.031709	-0.561660	-0.557087	0.611712
62099	2.360633	-0.172252	8.200469	1.274286	3.249771	0.795710	0.474553	0.425724	0.770428	-0.696936	0.716354	0.033441	-0.537662	-0.552808	0.636650
62100	3.094778	-0.270411	8.111716	1.465284	3.323152	0.612279	0.487721	0.448469	0.749002	-0.707606	0.705568	0.038303	-0.511294	-0.548680	0.661460
62101	3.709005	-0.121198	8.274181	1.606054	3.343647	0.410764	0.501429	0.469602	0.726665	-0.717595	0.694935	0.046074	-0.483349	-0.544554	0.685445
62102	4.489409	-0.566496	8.791321	1.692737	3.306469	0.182476	0.515640	0.488899	0.703629	-0.726503	0.684831	0.056566	-0.454212	-0.540356	0.708313
62103	5.797626	-1.003279	9.400242	1.781209	3.269523	-0.040220	0.530301	0.506204	0.680102	-0.734087	0.675475	0.069635	-0.424142	-0.536182	0.729803
62104	7.070439	-0.635681	9.892747	1.789671	3.258120	-0.226136	0.545301	0.522190	0.655717	-0.740235	0.667031	0.084387	-0.393318	-0.531401	0.750276
62105	7.561158	0.394245	10.080531	1.606234	3.252803	-0.362746	0.560311	0.536940	0.630671	-0.744281	0.660502	0.098908	-0.363452	-0.524816	0.769721
62106	7.363441	0.629733	9.949390	1.272260	3.170223	-0.517938	0.575260	0.550142	0.605326	-0.745837	0.656643	0.112012	-0.335860	-0.515910	0.788057
62107	7.240515	0.258519	9.839238	0.944870	3.029364	-0.691200	0.590223	0.561054	0.580392	-0.744841	0.655692	0.123613	-0.311205	-0.505259	0.804901
62108	7.249415	-0.296282	9.646053	0.712972	2.870991	-0.876337	0.605344	0.569758	0.555819	-0.741789	0.657033	0.134374	-0.288631	-0.493643	0.820371
62109	7.394235	-0.719586	9.702827	0.585124	2.713728	-1.050767	0.620672	0.576055	0.531909	-0.736952	0.660231	0.144904	-0.267710	-0.481929	0.834311
62110	7.617402	-1.211876	9.701134	0.543910	2.558757	-1.186934	0.635963	0.580498	0.508501	-0.730945	0.664454	0.155632	-0.247531	-0.470662	0.846880
62111	7.864312	-1.806209	9.716186	0.587599	2.394665	-1.298672	0.651113	0.582968	0.486004	-0.723961	0.669304	0.167071	-0.227887	-0.460630	0.857839
62112	8.376889	-2.062092	9.802478	0.700918	2.222837	-1.394721	0.665981	0.583866	0.464296	-0.716356	0.674193	0.179716	-0.208095	-0.452288	0.867255
62113	9.022176	-1.580598	9.921691	0.787172	2.054355	-1.463812	0.680493	0.583163	0.443679	-0.708041	0.679231	0.193191	-0.188699	-0.445608	0.875115
62114	9.638920	-0.708010	10.043685	0.770192	1.888372	-1.493569	0.694362	0.581458	0.423991	-0.699209	0.684475	0.206398	-0.170199	-0.439773	0.881834
62115	10.397887	0.039901	10.118097	0.632279	1.739646	-1.479946	0.707468	0.578865	0.405467	-0.689839	0.690329	0.218100	-0.153656	-0.434006	0.887710
62116	11.737218	0.751412	10.127640	0.418059	1.616591	-1.445479	0.719706	0.575915	0.387743	-0.680188	0.696838	0.227510	-0.139168	-0.427479	0.893249
62117	14.761222	0.656582	9.875097	0.165288	1.546179	-1.465432	0.731665	0.572176	0.370514	-0.669754	0.704580	0.234516	-0.126872	-0.419740	0.898733
62118	18.018097	1.167374	8.868805	-0.037700	1.583013	-1.516956	0.743630	0.568086	0.352551	-0.658561	0.713360	0.239612	-0.115376	-0.410359	0.904596
62119	20.388415	2.013817	7.140377	-0.284970	1.722306	-1.494287	0.755288	0.564301	0.333325	-0.647030	0.723002	0.242117	-0.104368	-0.398539	0.911194
62120	21.457600	2.465407	4.894623	-0.610979	1.900543	-1.389200	0.766067	0.561673	0.312515	-0.635881	0.733205	0.240968	-0.093793	-0.383320	0.918841
62121	20.862017	2.103105	2.261841	-0.898310	1.993233	-1.239314	0.775667	0.559965	0.291171	-0.625510	0.743546	0.236383	-0.084132	-0.365485	0.927007
62122	18.755228	0.630334	-0.257254	-0.994436	1.895044	-1.117665	0.784122	0.558361	0.270899	-0.615994	0.753354	0.230235	-0.075528	-0.347405	0.934669
62123	15.860087	-0.692450	-2.674586	-0.862206	1.527186	-1.025673	0.791507	0.555761	0.254256	-0.607274	0.762024	0.224808	-0.068809	-0.332340	0.940646
62124	12.557891	-1.628297	-4.604931	-0.579666	0.935771	-0.877731	0.797451	0.552074	0.243489	-0.599883	0.768814	0.221507	-0.064909	-0.322706	0.944271
