// General information: 
//  MT Manager version: 2022.2.0 
//  XDA version: 2022.2.0 build 7381 rev 124627 built on 2023-07-19
// Device information: 
//  DeviceId: 00B4CB9F
//  ProductCode: MTW2-3A7G6
//  Firmware Version: 4.6.0
//  Hardware Version: 2.0.0
// Device settings: 
//  Filter Profile: human(46.1)
//  Option Flags: Orientation Smoother Disabled, Position/Velocity Smoother Disabled, Continuous Zero Rotation Update Disabled, AHS Disabled, ICC Disabled
// Coordinate system: ENU
PacketCounter	Acc_X	Acc_Y	Acc_Z	Gyr_X	Gyr_Y	Gyr_Z	Mat[1][1]	Mat[2][1]	Mat[3][1]	Mat[1][2]	Mat[2][2]	Mat[3][2]	Mat[1][3]	Mat[2][3]	Mat[3][3]
12241	9.533442	0.076852	-2.403243	-0.147125	0.012831	0.003958	0.189613	0.193444	0.962614	0.755544	-0.654871	-0.017224	0.627057	0.730563	-0.270328
12242	9.551584	-0.050691	-2.379403	-0.167335	0.025710	0.008432	0.189580	0.193194	0.962671	0.754466	-0.656121	-0.016904	0.628363	0.729507	-0.270146
12243	9.547347	-0.139687	-2.434790	-0.179805	0.032326	0.008268	0.189453	0.192913	0.962753	0.753314	-0.657454	-0.016500	0.629783	0.728381	-0.269880
12244	9.468294	-0.257980	-2.498356	-0.168719	0.031214	0.005323	0.189357	0.192642	0.962826	0.752228	-0.658705	-0.016146	0.631108	0.727322	-0.269641
12245	9.364169	-0.387208	-2.583394	-0.148231	0.028220	-0.003510	0.189166	0.192468	0.962898	0.751293	-0.659782	-0.015715	0.632278	0.726391	-0.269408
12246	9.335019	-0.482322	-2.748911	-0.108875	0.020980	-0.014480	0.188986	0.192401	0.962947	0.750619	-0.660557	-0.015332	0.633132	0.725704	-0.269256
12247	9.332584	-0.532827	-2.744052	-0.068178	0.002109	-0.015896	0.188867	0.192499	0.962950	0.750212	-0.661028	-0.014999	0.633650	0.725249	-0.269261
12248	9.414184	-0.370167	-2.757268	-0.041592	-0.008788	-0.024170	0.188804	0.192711	0.962920	0.749981	-0.661296	-0.014706	0.633941	0.724948	-0.269385
12249	9.500395	-0.115404	-2.712125	-0.030541	-0.008824	-0.028996	0.188657	0.192975	0.962896	0.749836	-0.661468	-0.014347	0.634156	0.724721	-0.269490
12250	9.510615	0.088956	-2.662340	-0.039910	-0.003763	-0.028740	0.188529	0.193181	0.962880	0.749624	-0.661715	-0.014015	0.634445	0.724441	-0.269565
12251	9.495089	0.261150	-2.477363	-0.058467	0.013050	-0.026908	0.188258	0.193273	0.962915	0.749298	-0.662093	-0.013601	0.634910	0.724071	-0.269463
12252	9.577371	0.428297	-2.290695	-0.099169	0.028039	-0.016483	0.188016	0.193169	0.962983	0.748687	-0.662792	-0.013224	0.635703	0.723459	-0.269239
12253	9.619443	0.283118	-2.341813	-0.150904	0.041318	0.003997	0.187797	0.192852	0.963089	0.747713	-0.663897	-0.012859	0.636912	0.722529	-0.268876
12254	9.531012	-0.028168	-2.490009	-0.179302	0.034597	0.034547	0.187889	0.192364	0.963169	0.746493	-0.665271	-0.012753	0.638314	0.721395	-0.268595
12255	9.239221	-0.479615	-2.893184	-0.176693	0.006032	0.051847	0.188251	0.191984	0.963174	0.745261	-0.666650	-0.012781	0.639646	0.720222	-0.268576
12256	9.098839	-0.809806	-3.321038	-0.128576	-0.038047	0.074600	0.189105	0.191751	0.963053	0.744285	-0.667731	-0.013197	0.640530	0.719282	-0.268988
12257	9.040033	-0.942079	-3.646853	-0.058570	-0.086739	0.082577	0.190289	0.191831	0.962804	0.743748	-0.668317	-0.013838	0.640804	0.718716	-0.269847
12258	9.063342	-0.868189	-3.903457	0.008206	-0.135505	0.084219	0.191846	0.192235	0.962414	0.743627	-0.668432	-0.014719	0.640479	0.718501	-0.271188
12259	9.118800	-0.623730	-4.011534	0.048283	-0.177288	0.085734	0.193633	0.192944	0.961914	0.743765	-0.668257	-0.015678	0.639781	0.718474	-0.272902
12260	9.279314	-0.249715	-3.892196	0.055446	-0.205730	0.080755	0.195621	0.193883	0.961323	0.743952	-0.668026	-0.016658	0.638959	0.718437	-0.274920
12261	9.368866	0.140269	-3.612123	0.021764	-0.224474	0.078330	0.197652	0.194980	0.960685	0.743931	-0.668028	-0.017474	0.638358	0.718137	-0.277089
12262	9.451675	0.380711	-3.301324	-0.039846	-0.229164	0.089866	0.199858	0.196034	0.960014	0.743490	-0.668498	-0.018274	0.638185	0.717413	-0.279354
12263	9.468125	0.276974	-2.954845	-0.116682	-0.217998	0.111606	0.202093	0.196858	0.959377	0.742514	-0.669560	-0.019021	0.638616	0.716196	-0.281484
12264	9.525601	-0.020616	-2.496546	-0.169253	-0.197214	0.147877	0.204523	0.197295	0.958773	0.741126	-0.671068	-0.020003	0.639455	0.714662	-0.283469
12265	9.587982	-0.214774	-2.240080	-0.183276	-0.149703	0.170036	0.206754	0.197229	0.958308	0.739597	-0.672719	-0.021115	0.640507	0.713127	-0.284957
12266	9.659367	-0.290480	-1.965810	-0.150200	-0.104003	0.172959	0.208767	0.196819	0.957955	0.738268	-0.674136	-0.022385	0.641387	0.711901	-0.286042
12267	9.700278	-0.412306	-1.914280	-0.103659	-0.071003	0.153769	0.210372	0.196294	0.957712	0.737274	-0.675183	-0.023564	0.642005	0.711053	-0.286762
12268	9.595091	-0.496758	-1.957894	-0.051614	-0.059465	0.126005	0.211746	0.195871	0.957496	0.736667	-0.675806	-0.024664	0.642250	0.710578	-0.287391
12269	9.462930	-0.584368	-2.108971	0.008074	-0.057051	0.100524	0.212868	0.195605	0.957301	0.736500	-0.675951	-0.025653	0.642072	0.710513	-0.287951
12270	9.444999	-0.444625	-2.199457	0.080352	-0.059801	0.080903	0.213909	0.195479	0.957095	0.736830	-0.675550	-0.026704	0.641346	0.710929	-0.288541
12271	9.513971	-0.130953	-2.225995	0.152867	-0.053750	0.058883	0.214702	0.195472	0.956919	0.737678	-0.674584	-0.027712	0.640105	0.711847	-0.289030
12272	9.718476	0.297495	-2.043467	0.182007	-0.021755	0.040188	0.215196	0.195347	0.956833	0.738741	-0.673379	-0.028669	0.638711	0.713022	-0.289220
12273	9.880268	0.806565	-1.873991	0.178263	0.018443	0.024643	0.215275	0.195058	0.956875	0.739820	-0.672162	-0.029423	0.637435	0.714249	-0.289007
12274	9.951531	1.051273	-1.681044	0.122934	0.074603	0.015249	0.214960	0.194412	0.957077	0.740557	-0.671326	-0.029962	0.636685	0.715210	-0.288282
12275	9.771882	0.888142	-1.623959	0.040837	0.123917	0.024012	0.214364	0.193372	0.957421	0.740759	-0.671087	-0.030313	0.636651	0.715716	-0.287099
12276	9.476614	0.494966	-1.676090	0.005440	0.148314	0.033868	0.213704	0.192073	0.957830	0.740708	-0.671126	-0.030681	0.636932	0.716029	-0.285692
12277	9.542102	0.086168	-2.052255	-0.030521	0.142466	0.066194	0.213301	0.190616	0.958211	0.740366	-0.671478	-0.031231	0.637464	0.716089	-0.284353
12278	9.500173	-0.128175	-2.396136	0.024740	0.136494	0.068425	0.212963	0.189166	0.958573	0.740365	-0.671444	-0.031981	0.637578	0.716505	-0.283045
12279	9.422078	-0.182843	-2.664744	0.075863	0.098911	0.076206	0.212912	0.187953	0.958823	0.740680	-0.671050	-0.032929	0.637229	0.717193	-0.282088
12280	9.370170	-0.225239	-2.861116	0.100563	0.075253	0.085414	0.213089	0.186826	0.959004	0.741126	-0.670502	-0.034054	0.636652	0.717999	-0.281338
12281	9.399580	-0.162174	-3.014287	0.102815	0.043169	0.095731	0.213538	0.185882	0.959088	0.741570	-0.669948	-0.035265	0.635984	0.718761	-0.280904
12282	9.373891	-0.188955	-3.086231	0.084843	0.021479	0.106718	0.214217	0.185002	0.959107	0.741868	-0.669549	-0.036547	0.635408	0.719360	-0.280676
12283	9.370261	-0.247786	-3.114305	0.065568	0.005885	0.122398	0.215102	0.184148	0.959073	0.742016	-0.669310	-0.037908	0.634936	0.719801	-0.280611
12284	9.405055	-0.160379	-2.891794	0.043607	0.002334	0.141159	0.216158	0.183179	0.959021	0.741977	-0.669267	-0.039403	0.634623	0.720089	-0.280582
12285	9.590295	-0.061227	-2.486567	0.015828	0.012023	0.161136	0.217292	0.182022	0.958985	0.741722	-0.669453	-0.040996	0.634534	0.720208	-0.280477
12286	9.704063	0.067862	-2.179043	-0.008173	0.040324	0.174356	0.218350	0.180558	0.959021	0.741279	-0.669839	-0.042662	0.634687	0.720218	-0.280104
12287	9.690935	0.122752	-1.816157	-0.031434	0.093097	0.172921	0.219055	0.178737	0.959202	0.740696	-0.670383	-0.044236	0.635126	0.720166	-0.279241
12288	9.873667	0.460486	-1.427214	-0.071908	0.153419	0.161789	0.219293	0.176539	0.959554	0.739873	-0.671200	-0.045600	0.636002	0.719948	-0.277806
12289	9.975430	0.705643	-1.055736	-0.126427	0.220785	0.139459	0.218933	0.174021	0.960096	0.738756	-0.672361	-0.046592	0.637423	0.719478	-0.275761
12290	10.149218	0.942519	-0.730106	-0.202374	0.302787	0.115048	0.217851	0.171057	0.960875	0.737201	-0.674027	-0.047148	0.639590	0.718629	-0.272940
12291	10.162305	1.041536	-0.557187	-0.268139	0.399693	0.076952	0.215870	0.167675	0.961918	0.735309	-0.676089	-0.047164	0.642433	0.717488	-0.269240
12292	10.091331	1.311238	-0.439511	-0.347367	0.467511	0.051697	0.213223	0.163955	0.963148	0.732948	-0.678677	-0.046731	0.646005	0.715902	-0.264880
12293	10.063739	1.505747	-0.637070	-0.408121	0.520296	0.014472	0.209972	0.160145	0.964503	0.730267	-0.681625	-0.045803	0.650094	0.713961	-0.260070
12294	9.968568	1.469595	-0.858680	-0.448409	0.566564	-0.032228	0.206007	0.156304	0.965987	0.727397	-0.684784	-0.044322	0.654565	0.711786	-0.254765
12295	9.838593	1.303232	-1.026902	-0.492092	0.600278	-0.067651	0.201587	0.152511	0.967524	0.724296	-0.688183	-0.042431	0.659362	0.709327	-0.249191
12296	9.928316	1.087180	-1.254229	-0.559910	0.617923	-0.084625	0.196834	0.148700	0.969095	0.720747	-0.692031	-0.040205	0.664665	0.706386	-0.243391
12297	10.175488	0.714204	-1.338046	-0.585381	0.659772	-0.092132	0.191783	0.144697	0.970712	0.717013	-0.696028	-0.037908	0.670158	0.703284	-0.237236
12298	10.339107	0.447317	-1.501522	-0.606140	0.698894	-0.090970	0.186367	0.140408	0.972395	0.713096	-0.700163	-0.035571	0.675841	0.700041	-0.230612
12299	10.290216	0.234597	-1.661068	-0.589174	0.734561	-0.090140	0.180756	0.135917	0.974091	0.709257	-0.704160	-0.033359	0.681382	0.696911	-0.223682
12300	10.558498	-0.002057	-1.751090	-0.541180	0.760787	-0.089573	0.174850	0.131238	0.975809	0.705705	-0.707816	-0.031256	0.686591	0.694099	-0.216377
12301	10.882916	-0.065369	-1.651002	-0.493355	0.788478	-0.076528	0.168894	0.126325	0.977505	0.702431	-0.711142	-0.029464	0.691423	0.691607	-0.208842
12302	10.964211	-0.109464	-1.558412	-0.435247	0.825551	-0.087308	0.162483	0.121223	0.979236	0.699546	-0.714051	-0.027680	0.695869	0.689519	-0.200823
12303	10.996135	-0.071980	-1.367164	-0.361665	0.850702	-0.111815	0.155781	0.116171	0.980937	0.697194	-0.716415	-0.025876	0.699752	0.687934	-0.192598
12304	11.032302	0.108352	-1.106303	-0.303018	0.886276	-0.141976	0.148500	0.111071	0.982655	0.695272	-0.718350	-0.023874	0.703238	0.686758	-0.183900
12305	11.058524	0.552772	-0.532563	-0.284804	0.947155	-0.186910	0.140541	0.105922	0.984393	0.693528	-0.720108	-0.021529	0.706588	0.685730	-0.174665
12306	11.033911	0.926678	-0.104775	-0.349546	1.040633	-0.225046	0.131526	0.100387	0.986217	0.691344	-0.722284	-0.018679	0.710453	0.684272	-0.164401
12307	10.926309	1.188298	0.251314	-0.466411	1.148077	-0.262434	0.121547	0.094450	0.988082	0.688345	-0.725221	-0.015353	0.715127	0.682007	-0.153163
12308	10.717712	1.393108	0.531636	-0.612373	1.255613	-0.299978	0.110377	0.088055	0.989981	0.684282	-0.729128	-0.011440	0.720816	0.678689	-0.140733
12309	10.449833	1.255458	0.652969	-0.730876	1.331922	-0.338825	0.098438	0.081528	0.991798	0.679337	-0.733792	-0.007106	0.727194	0.674465	-0.127618
12310	10.150387	1.210429	1.022711	-0.807885	1.338551	-0.386739	0.085930	0.075344	0.993448	0.673775	-0.738933	-0.002238	0.733923	0.669553	-0.114262
12311	10.062388	0.622552	0.712421	-0.885930	1.298992	-0.447092	0.073368	0.070005	0.994845	0.667592	-0.744521	0.003157	0.740904	0.663919	-0.101359
12312	10.152060	-0.104161	-0.036060	-0.903936	1.264816	-0.484389	0.060610	0.065223	0.996028	0.661168	-0.750185	0.008891	0.747786	0.658003	-0.088592
12313	10.663406	-0.620262	-0.846992	-0.811484	1.233989	-0.510504	0.048000	0.060984	0.996984	0.655346	-0.755187	0.014642	0.753802	0.652667	-0.076214
12314	11.093462	-0.785967	-1.009247	-0.677523	1.207939	-0.527254	0.035299	0.057072	0.997746	0.650417	-0.759302	0.020422	0.758756	0.648230	-0.063923
12315	11.273662	-1.066019	-1.163328	-0.562154	1.159834	-0.542274	0.022974	0.053706	0.998292	0.646292	-0.762642	0.026155	0.762744	0.644588	-0.052231
12316	11.033016	-1.765629	-1.741738	-0.462583	1.119407	-0.522365	0.010937	0.050445	0.998667	0.642817	-0.765367	0.031620	0.765942	0.641614	-0.040798
12317	10.739467	-2.529263	-2.243138	-0.306302	1.101344	-0.470544	-0.000514	0.046999	0.998895	0.640485	-0.767106	0.036423	0.767970	0.639796	-0.029708
12318	10.437042	-2.986325	-2.483616	-0.120572	1.098494	-0.414311	-0.011699	0.043092	0.999003	0.639500	-0.767718	0.040605	0.768702	0.639337	-0.018576
12319	9.926576	-3.201809	-2.829008	0.064813	1.080629	-0.363594	-0.022314	0.038974	0.998991	0.639930	-0.767160	0.044223	0.768110	0.640271	-0.007822
12320	9.359902	-3.078870	-3.180820	0.299958	1.006460	-0.368560	-0.032421	0.035319	0.998850	0.641339	-0.765762	0.047893	0.766573	0.642154	0.002175
12321	9.143923	-2.309094	-3.074387	0.551583	0.918770	-0.417608	-0.042118	0.032593	0.998581	0.645394	-0.762071	0.052095	0.762688	0.646672	0.011061
12322	9.030366	-1.117545	-2.802190	0.733412	0.864777	-0.503103	-0.051985	0.030726	0.998175	0.650691	-0.757186	0.057196	0.757561	0.652476	0.019369
12323	9.116410	0.189130	-2.674458	0.765199	0.812142	-0.586985	-0.061936	0.029837	0.997634	0.656126	-0.751998	0.063225	0.752106	0.658489	0.026999
12324	8.999036	1.266311	-2.298836	0.629502	0.763451	-0.639221	-0.071883	0.029526	0.996976	0.660382	-0.747683	0.069757	0.747482	0.663399	0.034247
12325	8.863819	2.118830	-1.862480	0.361536	0.727234	-0.646769	-0.081572	0.029524	0.996230	0.662576	-0.745095	0.076333	0.744539	0.666305	0.041217
12326	8.700426	2.534662	-1.544307	0.022669	0.690461	-0.615936	-0.090797	0.029475	0.995433	0.662188	-0.744788	0.082454	0.743816	0.666650	0.048107
12327	8.412826	2.657175	-1.327696	-0.324718	0.651043	-0.563687	-0.099355	0.029351	0.994619	0.659228	-0.746789	0.087889	0.745350	0.664413	0.054848
12328	8.148027	2.483564	-1.169598	-0.656436	0.590526	-0.485545	-0.106962	0.029065	0.993838	0.653807	-0.751007	0.092330	0.749063	0.659654	0.061326
12329	7.899720	2.207790	-1.052313	-0.935942	0.534625	-0.407289	-0.113614	0.028633	0.993112	0.646315	-0.757037	0.095767	0.754565	0.652744	0.067504
12330	7.710537	1.785228	-0.948737	-1.152405	0.461251	-0.320880	-0.119176	0.028091	0.992476	0.637201	-0.764422	0.098151	0.761427	0.644104	0.073201
12331	7.703806	1.286832	-0.850561	-1.316858	0.394537	-0.241984	-0.123710	0.027434	0.991939	0.626822	-0.772777	0.099547	0.769279	0.634085	0.078404
12332	7.936442	0.827543	-0.562311	-1.422191	0.346317	-0.174293	-0.127474	0.026632	0.991484	0.615605	-0.781666	0.100143	0.777677	0.623128	0.083247
12333	8.269161	0.403782	-0.350975	-1.470604	0.321980	-0.123324	-0.130729	0.025617	0.991087	0.603939	-0.790719	0.100101	0.786236	0.611642	0.087898
12334	8.780185	-0.701541	-0.696173	-1.375073	0.367507	-0.159224	-0.134552	0.024820	0.990596	0.592105	-0.799575	0.100459	0.794549	0.600053	0.092889
12335	9.448575	-0.040185	1.043490	-1.293628	0.258683	-0.050628	-0.136899	0.023691	0.990302	0.581704	-0.807264	0.099727	0.801797	0.589715	0.096733
12336	9.569727	-1.057871	0.243333	-1.078517	0.305435	-0.066017	-0.139725	0.022456	0.989936	0.572935	-0.813560	0.099323	0.807603	0.581047	0.100809
12337	9.218288	-0.853304	1.339209	-0.883911	0.213046	-0.025343	-0.141580	0.021436	0.989695	0.565734	-0.818664	0.098662	0.812343	0.573872	0.103779
12338	9.377316	-1.586783	0.976512	-0.734318	0.135011	0.012723	-0.142587	0.020567	0.989569	0.559767	-0.822863	0.097759	0.816290	0.567867	0.105816
12339	8.976555	-1.526270	1.969144	-0.501274	0.059808	0.012071	-0.142993	0.020132	0.989519	0.555679	-0.825707	0.097099	0.819008	0.563739	0.106883
12340	8.743427	-1.589410	2.164616	-0.352822	0.017378	0.041589	-0.142878	0.019677	0.989545	0.552829	-0.827714	0.096281	0.820954	0.560806	0.107384
12341	8.665931	-1.617966	1.948373	-0.173733	-0.016066	0.040975	-0.142504	0.019431	0.989603	0.551454	-0.828700	0.095682	0.821943	0.559356	0.107378
12342	8.351388	-0.812891	2.320947	0.008113	-0.098599	0.025325	-0.141524	0.019738	0.989738	0.551528	-0.828685	0.095389	0.822063	0.559368	0.106393
12343	8.511190	-0.281911	1.352491	0.114944	-0.185572	-0.017472	-0.140080	0.020924	0.989919	0.552441	-0.828043	0.095676	0.821697	0.560274	0.104433
12344	8.518761	1.108767	1.502513	0.284820	-0.260931	-0.113041	-0.138533	0.023276	0.990084	0.554585	-0.826451	0.097026	0.820514	0.562527	0.101582
12345	8.985870	2.975009	1.944916	0.352092	-0.289122	-0.300541	-0.137818	0.027390	0.990079	0.557049	-0.824395	0.100347	0.818964	0.565352	0.098359
12346	9.086595	4.572324	1.976929	0.328233	-0.321011	-0.556898	-0.138268	0.033783	0.989819	0.558748	-0.822519	0.106124	0.817730	0.567733	0.094852
12347	9.678089	4.932971	2.312600	0.157132	-0.378242	-0.735600	-0.139271	0.041981	0.989364	0.559005	-0.821353	0.113543	0.817384	0.568873	0.090923
12348	10.119838	3.491768	2.828142	-0.080372	-0.395265	-0.726310	-0.140085	0.050182	0.988867	0.557244	-0.821539	0.120631	0.818447	0.567939	0.087121
12349	10.345157	1.150001	3.056362	-0.233940	-0.374324	-0.557281	-0.140100	0.056888	0.988502	0.554540	-0.822573	0.125934	0.820279	0.565807	0.083696
12350	10.310217	-0.185939	4.040770	-0.137378	-0.308554	-0.349536	-0.139513	0.061483	0.988310	0.552898	-0.823163	0.129258	0.821487	0.564467	0.080848
12351	9.632936	-1.068816	3.752625	-0.041616	-0.279097	-0.166952	-0.138127	0.064434	0.988316	0.552317	-0.823298	0.130867	0.822111	0.563940	0.078132
12352	9.234329	-0.889549	3.780589	0.122234	-0.212248	-0.098110	-0.136942	0.066387	0.988352	0.553143	-0.822579	0.131893	0.821754	0.564762	0.075924
12353	8.912426	-0.311371	3.324689	0.228907	-0.282766	-0.058386	-0.134928	0.068469	0.988487	0.554937	-0.821251	0.132633	0.820877	0.566444	0.072814
12354	8.574985	0.658749	2.718378	0.249934	-0.370944	-0.075898	-0.132329	0.071118	0.988651	0.556827	-0.819829	0.133504	0.820020	0.568174	0.068887
12355	8.129462	1.494308	1.111449	-0.018584	-0.589294	-0.045568	-0.127733	0.074841	0.988981	0.556608	-0.819908	0.133935	0.820897	0.567583	0.063072
12356	7.925698	1.394444	-0.425237	-0.139587	-0.836586	0.019506	-0.120777	0.079337	0.989504	0.555422	-0.820766	0.133602	0.822751	0.565728	0.055064
12357	9.047888	1.218730	-0.724560	-0.186288	-1.031972	0.123943	-0.111573	0.084147	0.990187	0.554024	-0.821925	0.132275	0.824990	0.563345	0.045085
12358	10.541987	1.985344	0.147655	-0.240525	-1.020172	0.168649	-0.102234	0.088414	0.990823	0.552157	-0.823471	0.130453	0.827448	0.560427	0.035368
12359	11.749900	2.562852	0.938280	-0.385582	-0.829032	0.142511	-0.094562	0.091871	0.991271	0.549094	-0.825759	0.128912	0.830394	0.556491	0.027640
12360	12.392307	2.213298	0.897581	-0.623177	-0.662334	0.175712	-0.088114	0.094009	0.991664	0.544011	-0.829417	0.126966	0.834439	0.550663	0.021941
12361	12.402087	1.392248	0.700979	-0.806676	-0.585084	0.253859	-0.081830	0.095100	0.992099	0.537468	-0.834076	0.124284	0.839305	0.543391	0.017139
12362	12.161493	0.950088	1.014902	-0.927895	-0.532807	0.310193	-0.075717	0.095303	0.992565	0.529842	-0.839418	0.121017	0.844710	0.535065	0.013062
12363	11.824651	0.959760	1.686747	-1.059213	-0.479935	0.317628	-0.069964	0.095174	0.992999	0.521086	-0.845344	0.117737	0.850632	0.525675	0.009550
12364	11.424581	1.187896	1.573184	-1.187924	-0.449144	0.305302	-0.064585	0.094837	0.993396	0.511085	-0.851862	0.114553	0.857100	0.515108	0.006548
12365	10.468687	1.195199	0.192968	-1.224592	-0.487278	0.280102	-0.058961	0.094925	0.993737	0.500714	-0.858375	0.111704	0.863603	0.504164	0.003080
12366	9.177015	0.277737	-1.655534	-1.191955	-0.602784	0.232608	-0.052618	0.095840	0.994005	0.490446	-0.864587	0.109323	0.869882	0.493258	-0.001511
12367	8.580820	-1.314249	-2.615668	-0.987328	-0.677391	0.144177	-0.045992	0.097900	0.994133	0.481894	-0.869557	0.107926	0.875022	0.484031	-0.007184
12368	8.714368	-2.545988	-2.800315	-0.612582	-0.701236	0.040772	-0.039668	0.100827	0.994113	0.476474	-0.872590	0.107514	0.878293	0.477934	-0.013427
12369	9.332720	-3.028709	-2.637494	-0.109227	-0.707018	-0.072561	-0.033786	0.104833	0.993916	0.475479	-0.873042	0.108247	0.879078	0.476243	-0.020349
12370	9.915071	-2.515917	-2.307795	0.345703	-0.733783	-0.175730	-0.028172	0.109760	0.993559	0.478383	-0.871258	0.109813	0.877699	0.478395	-0.027962
12371	9.843833	-1.797208	-2.160845	0.648263	-0.791436	-0.230763	-0.022333	0.115571	0.993048	0.483996	-0.867888	0.111889	0.874785	0.483130	-0.036554
12372	9.777974	-0.813190	-1.793304	0.795096	-0.825989	-0.235524	-0.016242	0.121501	0.992458	0.490804	-0.863808	0.113783	0.871118	0.488951	-0.045603
12373	9.466897	0.335568	-1.826340	0.805396	-0.844683	-0.211058	-0.009929	0.127474	0.991792	0.497768	-0.859590	0.115465	0.867254	0.494829	-0.054918
12374	9.264907	1.336863	-1.821686	0.703778	-0.848192	-0.172500	-0.003356	0.133053	0.991103	0.503420	-0.856133	0.116638	0.864035	0.499333	-0.064109
12375	9.276813	2.157487	-1.926445	0.484683	-0.860681	-0.112448	0.003517	0.138324	0.990381	0.507593	-0.853560	0.117412	0.861590	0.502297	-0.073214
12376	9.541942	2.588916	-1.932557	0.228288	-0.855256	-0.044253	0.010700	0.142883	0.989682	0.509480	-0.852415	0.117557	0.860416	0.502965	-0.081916
12377	9.660770	2.782325	-1.783324	-0.019981	-0.833172	0.023891	0.018005	0.146863	0.988993	0.509295	-0.852556	0.117331	0.860404	0.501576	-0.090147
12378	9.774785	2.663975	-1.560015	-0.264598	-0.777882	0.072870	0.025116	0.150028	0.988363	0.506930	-0.854043	0.116757	0.861621	0.498098	-0.097504
12379	9.926679	2.366989	-1.209400	-0.482193	-0.709689	0.115814	0.031838	0.152553	0.987782	0.502727	-0.856615	0.116092	0.863859	0.492888	-0.103965
12380	9.823607	1.697199	-1.114020	-0.640566	-0.635694	0.130962	0.038034	0.154453	0.987268	0.497074	-0.860001	0.115393	0.866874	0.486356	-0.109484
12381	9.951610	0.665918	-0.914467	-0.697538	-0.563120	0.126121	0.043562	0.156084	0.986783	0.490954	-0.863572	0.114922	0.870096	0.479459	-0.114249
12382	9.850696	-0.772124	-1.072385	-0.561303	-0.460136	0.058939	0.047899	0.157679	0.986328	0.485972	-0.866388	0.114904	0.872661	0.473824	-0.118127
12383	10.201824	-0.716641	-0.613826	-0.484167	-0.452409	0.082957	0.052268	0.159090	0.985880	0.481689	-0.868809	0.114661	0.874782	0.468895	-0.122043
12384	9.554546	-1.394858	-1.508128	-0.097200	-0.392904	-0.062196	0.055451	0.161364	0.985336	0.480798	-0.869219	0.115291	0.875076	0.467354	-0.125783
12385	9.444875	-0.577375	-1.209346	0.219277	-0.452925	-0.130712	0.058796	0.164617	0.984604	0.482779	-0.867987	0.116290	0.873766	0.468509	-0.130508
12386	9.148951	0.038642	-1.921586	0.496690	-0.493479	-0.211451	0.062129	0.168649	0.983716	0.487156	-0.865362	0.117591	0.871102	0.471918	-0.135922
12387	9.290306	1.039592	-1.971432	0.661784	-0.559117	-0.261017	0.065724	0.173553	0.982629	0.493065	-0.861784	0.119230	0.867506	0.476664	-0.142213
12388	9.182076	1.567599	-2.320017	0.736251	-0.586468	-0.271488	0.069511	0.178577	0.981468	0.499537	-0.857842	0.120705	0.863499	0.481890	-0.148835
12389	9.380434	2.125682	-2.355797	0.707895	-0.612989	-0.248644	0.073556	0.183672	0.980232	0.505803	-0.853970	0.122058	0.859507	0.486826	-0.155717
12390	9.537852	2.570610	-2.230114	0.600646	-0.608416	-0.209342	0.077770	0.188320	0.979024	0.511037	-0.850707	0.123042	0.856033	0.490748	-0.162398
12391	9.642801	2.883321	-2.033023	0.494555	-0.592127	-0.160195	0.082022	0.192593	0.977845	0.515380	-0.847975	0.123784	0.853028	0.493808	-0.168811
12392	9.528086	2.891715	-2.083288	0.283150	-0.562685	-0.088644	0.086415	0.196030	0.976783	0.517800	-0.846458	0.124066	0.851126	0.495057	-0.174651
12393	9.482023	2.628601	-1.984049	0.172590	-0.529937	-0.042482	0.090716	0.199012	0.975789	0.519294	-0.845527	0.124168	0.849767	0.495458	-0.180048
12394	9.329261	2.624261	-1.718484	0.037976	-0.505889	0.036376	0.095253	0.201128	0.974923	0.519525	-0.845460	0.123660	0.849130	0.494717	-0.185023
12395	9.336140	2.633768	-1.592028	-0.008692	-0.488017	0.059051	0.099717	0.203037	0.974080	0.519382	-0.845630	0.123094	0.848704	0.493645	-0.189778
12396	9.381802	1.985500	-2.038725	-0.103198	-0.475235	0.091813	0.104272	0.204532	0.973290	0.518360	-0.846368	0.122326	0.848781	0.491760	-0.194274
12397	9.342518	1.321057	-2.334747	-0.070727	-0.455690	0.087398	0.108607	0.206027	0.972501	0.517655	-0.846903	0.121608	0.848668	0.490213	-0.198630
12398	9.358225	1.259813	-1.838975	0.018559	-0.485003	0.085074	0.113206	0.207617	0.971638	0.517670	-0.847027	0.120677	0.848058	0.489326	-0.203365
12399	9.108347	1.074568	-2.557654	-0.023536	-0.526734	0.124152	0.118329	0.209136	0.970701	0.517315	-0.847409	0.119512	0.847575	0.488016	-0.208462
12400	9.059336	0.810762	-2.952220	0.093872	-0.557413	0.095929	0.123591	0.210979	0.969646	0.517946	-0.847191	0.118318	0.846438	0.487601	-0.213981
12401	8.935225	0.440259	-3.478294	0.198517	-0.592721	0.095346	0.129112	0.213060	0.968471	0.519492	-0.846433	0.116956	0.844664	0.488012	-0.219968
12402	9.394587	0.696517	-3.211349	0.173611	-0.659396	0.144008	0.135476	0.214999	0.967172	0.520720	-0.845932	0.115108	0.842910	0.488032	-0.226557
12403	9.326899	0.654424	-3.370149	0.169088	-0.656968	0.165192	0.141883	0.216805	0.965849	0.521903	-0.845472	0.113116	0.841122	0.488030	-0.233109
12404	9.424732	0.827967	-3.024876	0.133980	-0.644961	0.175907	0.148278	0.218405	0.964527	0.522728	-0.845238	0.111033	0.839505	0.487722	-0.239497
12405	9.577288	1.070537	-2.494870	0.095845	-0.622660	0.182468	0.154470	0.219894	0.963216	0.523244	-0.845179	0.109035	0.838066	0.487154	-0.245613
12406	9.834053	1.027554	-2.222344	0.004000	-0.570740	0.191910	0.160312	0.220990	0.962010	0.522930	-0.845619	0.107110	0.837164	0.485893	-0.251126
12407	9.777361	0.975913	-1.991765	0.010377	-0.519111	0.173633	0.165578	0.222037	0.960876	0.522722	-0.845962	0.105408	0.836269	0.484818	-0.256137
12408	9.697305	0.851050	-1.863973	0.044259	-0.485310	0.148002	0.170464	0.223075	0.959781	0.522796	-0.846114	0.103804	0.835240	0.484075	-0.260855
12409	9.618838	0.865413	-1.790165	0.125595	-0.457342	0.113308	0.174888	0.224327	0.958693	0.523636	-0.845768	0.102380	0.833798	0.484101	-0.265381
12410	9.492304	0.923991	-1.747742	0.225362	-0.430341	0.084450	0.178969	0.225632	0.957633	0.525314	-0.844905	0.100898	0.831875	0.485000	-0.269739
12411	9.440254	1.125844	-1.740071	0.343398	-0.419563	0.049317	0.182728	0.227251	0.956539	0.528064	-0.843357	0.099485	0.829312	0.486935	-0.274108
12412	9.256406	1.308307	-2.027201	0.455231	-0.439159	0.017632	0.186506	0.229177	0.955350	0.531748	-0.841215	0.097988	0.826111	0.489729	-0.278756
12413	9.102474	1.179594	-2.646567	0.605670	-0.491300	-0.001766	0.190560	0.231604	0.953964	0.536729	-0.838242	0.096294	0.821954	0.493670	-0.284044
12414	9.042699	0.992300	-3.161660	0.737002	-0.564827	0.017055	0.195327	0.234195	0.952365	0.542684	-0.834666	0.093949	0.816910	0.498483	-0.290127
12415	9.045990	1.093550	-3.308769	0.811934	-0.621699	0.044189	0.200644	0.236939	0.950580	0.549194	-0.830710	0.091140	0.811251	0.503766	-0.296803
12416	9.212112	1.465584	-3.192064	0.784492	-0.641957	0.089191	0.206375	0.239386	0.948738	0.555306	-0.826991	0.087873	0.805633	0.508705	-0.303602
12417	9.390512	1.830078	-2.929133	0.677253	-0.633410	0.138975	0.212251	0.241470	0.946912	0.560441	-0.823875	0.084471	0.800534	0.512759	-0.310198
12418	9.419289	1.971738	-2.746090	0.532788	-0.604190	0.179725	0.218131	0.243041	0.945172	0.564264	-0.821607	0.081045	0.796257	0.515648	-0.316357
12419	9.445846	1.854257	-2.584687	0.421699	-0.578457	0.206283	0.223908	0.244333	0.943486	0.567145	-0.819941	0.077744	0.792598	0.517686	-0.322163
12420	9.527945	1.658370	-2.348078	0.365229	-0.553138	0.209459	0.229512	0.245435	0.941853	0.569518	-0.818592	0.074534	0.789287	0.519296	-0.327656
12421	9.553787	1.407577	-2.212907	0.341017	-0.519267	0.208601	0.234807	0.246426	0.940287	0.571707	-0.817342	0.071439	0.786140	0.520795	-0.332801
12422	9.463528	1.026481	-2.253079	0.340059	-0.503339	0.212466	0.240005	0.247267	0.938753	0.573831	-0.816124	0.068259	0.783017	0.522303	-0.337763
12423	9.361965	0.829041	-2.190078	0.424786	-0.478554	0.197012	0.244891	0.248162	0.937253	0.576659	-0.814398	0.064960	0.779418	0.524567	-0.342544
12424	9.234043	0.648927	-2.151723	0.482107	-0.469185	0.191190	0.249671	0.249022	0.935763	0.579892	-0.812371	0.061464	0.775493	0.527296	-0.347232
12425	9.124723	0.753223	-2.023205	0.587221	-0.463943	0.181792	0.254331	0.249999	0.934246	0.583962	-0.809728	0.057706	0.770912	0.530888	-0.351929
12426	8.889928	0.988789	-2.208284	0.666320	-0.488136	0.151900	0.258994	0.251315	0.932611	0.588647	-0.806593	0.053884	0.765779	0.535022	-0.356839
12427	8.526266	0.559368	-3.302402	0.776720	-0.566488	0.135012	0.264129	0.253270	0.930640	0.594205	-0.802769	0.049827	0.759708	0.539830	-0.362528
12428	8.221364	-0.070715	-4.317149	0.963589	-0.693936	0.155696	0.270324	0.255732	0.928184	0.601028	-0.797971	0.044813	0.752124	0.545751	-0.369413
12429	8.221620	-0.232117	-4.661968	1.128227	-0.848262	0.210306	0.277952	0.258715	0.925099	0.608872	-0.792326	0.038644	0.742978	0.552526	-0.377753
12430	8.878864	0.174286	-4.281048	1.206206	-0.953996	0.271864	0.286684	0.261818	0.921555	0.616963	-0.786362	0.031480	0.732918	0.559541	-0.386970
12431	9.134353	1.004484	-3.839964	1.180114	-0.969057	0.354446	0.295952	0.264493	0.917854	0.624507	-0.780663	0.023593	0.722775	0.566224	-0.396217
12432	9.121717	1.573110	-3.562505	1.075596	-0.981167	0.444564	0.305812	0.266566	0.914014	0.630851	-0.775755	0.015172	0.713096	0.571967	-0.405399
12433	9.451361	1.687423	-3.066040	0.945146	-1.010466	0.505078	0.316186	0.268458	0.909922	0.635964	-0.771690	0.006686	0.703972	0.576564	-0.414727
12434	9.491925	1.333851	-2.694669	0.864875	-0.970491	0.554496	0.326531	0.269760	0.905874	0.640198	-0.768207	-0.002001	0.695359	0.580592	-0.423543
12435	9.724494	0.977888	-1.836365	0.821011	-0.930565	0.574203	0.336664	0.270775	0.901853	0.643955	-0.764988	-0.010708	0.687007	0.584358	-0.431911
12436	9.624954	0.873829	-1.460353	0.774240	-0.855508	0.572913	0.346213	0.271369	0.898051	0.647252	-0.762033	-0.019258	0.679118	0.587933	-0.439469
12437	10.086983	1.075497	-1.067131	0.778302	-0.813039	0.526054	0.355131	0.272161	0.894321	0.650649	-0.758884	-0.027425	0.671222	0.591629	-0.446584
12438	10.511623	1.400939	-0.719347	0.796045	-0.719060	0.450639	0.362863	0.272959	0.890968	0.654303	-0.755420	-0.035045	0.663489	0.595679	-0.452712
12439	10.401280	1.903807	-0.891807	0.843076	-0.641467	0.362360	0.369487	0.274062	0.887902	0.658523	-0.751381	-0.042111	0.655611	0.600264	-0.458102
12440	9.855160	1.740250	-1.575194	0.872500	-0.619148	0.300539	0.375483	0.275474	0.884944	0.663047	-0.746985	-0.048803	0.647597	0.605084	-0.463133
12441	9.410269	1.305646	-2.515779	0.927163	-0.654704	0.280165	0.381574	0.277364	0.881743	0.667937	-0.742138	-0.055600	0.638954	0.610164	-0.468442
12442	9.381989	1.333770	-3.358763	0.987479	-0.674924	0.287063	0.387742	0.279308	0.878432	0.673057	-0.736922	-0.062776	0.629802	0.615576	-0.473726
12443	9.809788	2.072728	-3.581006	0.991312	-0.670954	0.301700	0.393989	0.281238	0.875030	0.678062	-0.731650	-0.070147	0.620488	0.620961	-0.478959
12444	11.182045	3.344199	-3.362106	0.848170	-0.591151	0.299836	0.399622	0.282675	0.872008	0.682068	-0.727242	-0.076830	0.612443	0.625471	-0.483425
12445	12.650655	4.118491	-2.540531	0.544126	-0.372982	0.272770	0.403774	0.283030	0.869977	0.684277	-0.724615	-0.081847	0.607233	0.628353	-0.486251
12446	13.513169	4.339572	-1.415372	0.184274	-0.054549	0.221790	0.405546	0.281720	0.869578	0.684476	-0.724107	-0.084628	0.605826	0.629526	-0.486489
12447	13.879673	4.131633	-0.350205	-0.087668	0.308213	0.093291	0.404328	0.279101	0.870989	0.683553	-0.724933	-0.085018	0.607680	0.629742	-0.483891
12448	13.358162	3.101864	0.585813	-0.311691	0.702663	-0.072086	0.399437	0.275154	0.874495	0.681924	-0.726719	-0.082821	0.612723	0.629421	-0.477912
12449	12.030218	1.258702	0.291917	-0.491262	0.968592	-0.222282	0.391967	0.270677	0.879258	0.679763	-0.729214	-0.078547	0.619907	0.628475	-0.469824
12450	10.629494	-0.994821	-1.510163	-0.433091	1.047795	-0.325135	0.383088	0.266400	0.884463	0.678299	-0.731092	-0.073587	0.627020	0.628120	-0.460771
12451	10.281267	-2.449426	-3.756793	-0.198480	1.011203	-0.349459	0.374364	0.262595	0.889323	0.678359	-0.731428	-0.069585	0.632203	0.629330	-0.451954
12452	10.807037	-2.763481	-4.417151	0.145131	1.010461	-0.398775	0.365111	0.259039	0.894200	0.680716	-0.729513	-0.066612	0.635075	0.633016	-0.442685
12453	11.361544	-1.901670	-3.799908	0.538563	1.164918	-0.555903	0.353924	0.255664	0.899652	0.686122	-0.724667	-0.063985	0.635589	0.639917	-0.431894
12454	11.573269	-0.314136	-3.086274	0.624534	1.303523	-0.655610	0.340980	0.251894	0.905694	0.692323	-0.719033	-0.060669	0.635942	0.647720	-0.419568
12455	11.374724	0.739890	-2.948369	0.540014	1.476400	-0.729612	0.326523	0.247500	0.912210	0.698182	-0.713705	-0.056270	0.637122	0.655262	-0.405841
12456	11.362239	1.210714	-2.555996	0.295616	1.638628	-0.759371	0.310589	0.242002	0.919222	0.702438	-0.709956	-0.050432	0.640402	0.661360	-0.390496
12457	11.302413	1.204419	-2.634738	0.118377	1.801212	-0.808073	0.293337	0.235767	0.926481	0.705626	-0.707252	-0.043432	0.645016	0.666489	-0.373826
12458	11.253470	0.911464	-2.678514	0.013705	1.921352	-0.876502	0.274532	0.228993	0.933914	0.708150	-0.705181	-0.035259	0.650504	0.671031	-0.355756
12459	11.034502	0.432781	-2.669899	-0.056880	1.971193	-0.912761	0.255193	0.222152	0.941023	0.710184	-0.703517	-0.026510	0.656137	0.675065	-0.337301
12460	10.534178	-0.444892	-3.369238	-0.124045	1.966018	-0.923364	0.235499	0.215222	0.947745	0.711575	-0.702397	-0.017308	0.661968	0.678467	-0.318560
12461	10.347201	-1.082737	-3.467945	-0.171672	1.939501	-0.904870	0.216175	0.208384	0.953858	0.712465	-0.701660	-0.008179	0.667580	0.681358	-0.300148
12462	10.178697	-1.788228	-3.491513	-0.212804	1.910640	-0.864529	0.197033	0.201291	0.959510	0.712762	-0.701406	0.000781	0.673163	0.683748	-0.281673
12463	9.655489	-2.468822	-4.222782	-0.197486	1.921923	-0.860839	0.177923	0.194160	0.964700	0.713029	-0.701069	0.009594	0.678184	0.686151	-0.263178
12464	11.023374	-2.836705	-3.041192	-0.234244	1.837421	-0.773131	0.159743	0.186835	0.969317	0.712669	-0.701277	0.017723	0.683070	0.687971	-0.245175
12465	10.186407	-3.358518	-4.024878	-0.220176	1.829560	-0.740890	0.141940	0.179424	0.973478	0.712265	-0.701449	0.025432	0.687409	0.689765	-0.227361
12466	10.117997	-3.321344	-4.573735	-0.100525	1.774799	-0.707944	0.124521	0.171990	0.977197	0.712433	-0.700982	0.032593	0.690604	0.692129	-0.209819
12467	10.538008	-2.565451	-5.070334	-0.025796	1.700536	-0.674971	0.107960	0.164922	0.980380	0.713027	-0.700037	0.039243	0.692775	0.694801	-0.193170
12468	11.423321	-1.076872	-4.799700	-0.047427	1.693754	-0.661258	0.091365	0.157625	0.983263	0.713270	-0.699389	0.045841	0.694909	0.697144	-0.176329
12469	11.934700	0.614287	-4.433452	-0.247784	1.769563	-0.672697	0.074257	0.149983	0.985896	0.712089	-0.700096	0.052870	0.698151	0.698120	-0.158788
12470	11.808035	1.882796	-4.039920	-0.636846	1.865226	-0.669428	0.056309	0.141555	0.988328	0.707978	-0.703643	0.060444	0.703986	0.696311	-0.139839
12471	11.419029	2.175292	-3.759201	-1.159031	1.939459	-0.636883	0.038096	0.132604	0.990437	0.700055	-0.710821	0.068241	0.713072	0.690760	-0.119909
12472	10.764682	1.379978	-3.746527	-1.682318	2.007752	-0.590688	0.019437	0.122964	0.992221	0.688052	-0.721675	0.075957	0.725401	0.681223	-0.098632
12473	10.150927	0.277050	-3.873080	-2.054182	2.034453	-0.502186	0.001128	0.112884	0.993607	0.673043	-0.734961	0.082735	0.739602	0.668648	-0.076805
12474	9.729532	-0.436956	-3.960748	-2.271445	2.012139	-0.409457	-0.016736	0.102538	0.994588	0.655975	-0.749597	0.088318	0.754597	0.653904	-0.054717
12475	9.592226	-0.783830	-4.006353	-2.384323	1.957766	-0.322173	-0.033729	0.092327	0.995157	0.637710	-0.764695	0.092560	0.769538	0.637744	-0.033086
12476	9.564038	-1.091348	-4.100656	-2.419643	1.896062	-0.242028	-0.050071	0.082197	0.995357	0.618752	-0.779758	0.095519	0.783989	0.620662	-0.011816
12477	9.375497	-1.544535	-4.157944	-2.406901	1.843088	-0.158556	-0.065602	0.072160	0.995233	0.599613	-0.794375	0.097121	0.797597	0.603126	0.008844
12478	9.057568	-2.188138	-4.227281	-2.333170	1.781628	-0.067644	-0.080395	0.062052	0.994830	0.580751	-0.808240	0.097345	0.810102	0.585574	0.028942
12479	8.820532	-2.697299	-4.099534	-2.197182	1.712281	0.019196	-0.094241	0.052006	0.994190	0.562832	-0.820943	0.096296	0.821181	0.568637	0.048095
12480	8.667379	-3.081618	-3.727882	-2.031283	1.647635	0.111775	-0.107276	0.041786	0.993351	0.546108	-0.832425	0.093993	0.830817	0.552560	0.066480
12481	8.355714	-3.583737	-3.189267	-1.883666	1.608348	0.194117	-0.119651	0.031387	0.992320	0.530587	-0.842771	0.090633	0.839143	0.537356	0.084185
12482	7.994427	-4.194923	-2.829238	-1.736809	1.548948	0.278005	-0.131269	0.020752	0.991130	0.516233	-0.852098	0.086213	0.846328	0.522971	0.101141
12483	7.737619	-4.774005	-2.550150	-1.564641	1.460709	0.363878	-0.141809	0.010086	0.989843	0.503428	-0.860243	0.080889	0.852321	0.509785	0.116913
12484	7.652742	-5.230265	-2.228796	-1.304100	1.354646	0.449314	-0.151143	-0.000706	0.988512	0.492859	-0.866893	0.074738	0.856881	0.498493	0.131373
12485	7.237459	-5.490568	-1.893739	-0.932072	1.276827	0.513090	-0.159580	-0.011487	0.987118	0.485645	-0.871479	0.068369	0.859467	0.490299	0.144649
12486	7.170459	-5.342367	-1.289585	-0.515896	1.174463	0.564487	-0.166918	-0.022248	0.985720	0.482025	-0.873968	0.061899	0.860111	0.485473	0.156605
12487	7.122353	-5.465813	-1.167164	-0.097953	1.040447	0.588305	-0.173014	-0.032444	0.984385	0.482170	-0.874290	0.055930	0.858824	0.484318	0.166908
12488	6.223686	-4.766450	-1.464706	0.305909	0.864747	0.530538	-0.177814	-0.041404	0.983193	0.485592	-0.872692	0.051071	0.855910	0.486512	0.175282
12489	5.884899	-4.613784	-1.768334	0.764723	0.567061	0.342422	-0.180969	-0.047171	0.982357	0.492721	-0.868804	0.049050	0.851162	0.492905	0.180469
12490	4.785248	-2.525766	-1.433113	0.886068	0.227182	0.153841	-0.182069	-0.049778	0.982025	0.500372	-0.864426	0.048953	0.846451	0.500291	0.182292
12491	4.578755	-0.165825	-0.228292	0.614431	-0.068534	0.068643	-0.181134	-0.050034	0.982185	0.505676	-0.861309	0.049380	0.843494	0.505612	0.181313
12492	4.065160	1.353825	-0.705824	0.088430	-0.397263	0.106565	-0.177169	-0.049090	0.982955	0.506462	-0.860909	0.048291	0.843865	0.506385	0.177388
12493	5.734586	1.188837	-0.062350	0.046533	-0.868607	0.179663	-0.168912	-0.046243	0.984546	0.507153	-0.860596	0.046588	0.845142	0.507185	0.168818
12494	8.270509	2.480800	2.067518	0.306030	-1.033003	0.194522	-0.159113	-0.042800	0.986332	0.509919	-0.859046	0.044982	0.845379	0.510107	0.158510
12495	10.799451	4.902416	4.005449	0.510154	-1.068658	0.092349	-0.149600	-0.038125	0.988011	0.514359	-0.856402	0.044835	0.844426	0.514899	0.147728
12496	11.891082	5.409713	4.931469	0.587450	-1.030619	-0.128276	-0.141501	-0.031822	0.989427	0.519003	-0.853492	0.046774	0.842979	0.520134	0.137285
12497	11.796740	5.802538	5.827391	0.499194	-0.974185	-0.343705	-0.135074	-0.023813	0.990549	0.522720	-0.850989	0.050821	0.841736	0.524644	0.127394
12498	11.061209	5.589375	5.866069	0.198002	-0.874162	-0.526713	-0.130428	-0.014852	0.991347	0.523580	-0.850125	0.056149	0.841934	0.526372	0.118656
12499	8.805664	4.736194	3.702860	-0.076615	-1.042392	-0.604703	-0.124793	-0.004235	0.992174	0.522149	-0.850595	0.062043	0.843675	0.525805	0.108360
12500	7.434119	1.775097	0.298099	-0.342207	-1.490827	-0.471895	-0.114624	0.007500	0.993381	0.518597	-0.852447	0.066276	0.847301	0.522761	0.093821
12501	11.516748	-2.204093	-0.117449	0.269415	-1.798509	-0.412166	-0.101510	0.020421	0.994625	0.520421	-0.850988	0.070585	0.847855	0.524788	0.075756
12502	17.618826	-1.351572	4.824239	-1.077488	-0.996541	0.380352	-0.091039	0.022253	0.995599	0.511520	-0.856739	0.065923	0.854435	0.515270	0.066614
12503	19.039351	0.075476	5.320401	-1.409288	-0.095920	0.499680	-0.087678	0.018431	0.995978	0.499859	-0.864026	0.059993	0.861657	0.503109	0.066543
12504	13.392827	-2.480284	2.037004	-1.821564	0.148176	0.543764	-0.086271	0.012845	0.996189	0.484435	-0.873207	0.053212	0.870563	0.487180	0.069110
12505	9.309902	-5.019092	0.435952	-1.566515	0.021438	0.378331	-0.084641	0.009413	0.996367	0.471047	-0.880783	0.048336	0.878038	0.473427	0.070116
12506	6.523453	-6.645805	-1.486269	-0.776582	-0.303550	0.077852	-0.081585	0.009993	0.996616	0.464130	-0.884526	0.046864	0.882002	0.466383	0.067527
12507	6.298237	-5.891361	-2.858015	0.255202	-0.705239	-0.208808	-0.076328	0.015123	0.996968	0.466200	-0.883316	0.049092	0.881381	0.468534	0.060372
12508	6.576308	-3.710057	-3.191642	1.202361	-1.008579	-0.489489	-0.069724	0.024017	0.997277	0.476234	-0.877632	0.054431	0.876550	0.478732	0.049755
12509	7.816917	-0.340200	-4.164685	1.861934	-1.184482	-0.716255	-0.062847	0.036023	0.997373	0.491988	-0.868365	0.062365	0.868330	0.494615	0.036851
12510	8.144434	2.442449	-4.667164	2.154953	-1.320777	-0.837633	-0.055568	0.049707	0.997217	0.509926	-0.857271	0.071146	0.858422	0.512460	0.022290
12511	9.063285	3.920215	-4.612722	2.158791	-1.436571	-0.819865	-0.047554	0.064164	0.996806	0.527907	-0.845562	0.079613	0.847970	0.530007	0.006337
12512	9.764971	4.345209	-4.253496	1.831053	-1.461214	-0.663191	-0.038691	0.077427	0.996247	0.542928	-0.835363	0.086009	0.838887	0.544219	-0.009716
12513	10.291691	4.294758	-3.660039	1.332856	-1.417355	-0.451481	-0.029314	0.088954	0.995604	0.553895	-0.827680	0.090259	0.832070	0.554106	-0.025009
12514	10.656098	4.020762	-2.971623	0.752485	-1.334924	-0.217411	-0.019345	0.098056	0.994993	0.559987	-0.823374	0.092031	0.828276	0.558963	-0.038982
12515	10.591369	3.691137	-2.308089	0.151167	-1.240898	0.017603	-0.008961	0.104836	0.994449	0.561225	-0.822560	0.091772	0.827615	0.558932	-0.051466
12516	10.072395	3.201819	-2.075352	-0.398212	-1.172670	0.223090	0.002104	0.109431	0.993992	0.557853	-0.825083	0.089655	0.829937	0.554313	-0.062782
12517	9.557111	2.538523	-2.051279	-0.822741	-1.149793	0.363179	0.013697	0.112741	0.993530	0.550961	-0.830027	0.086591	0.834419	0.546210	-0.073485
12518	9.439082	1.926781	-2.014841	-1.111287	-1.140467	0.431382	0.025700	0.115239	0.993005	0.541505	-0.836583	0.083072	0.840305	0.535582	-0.083903
12519	9.499049	1.489214	-1.848763	-1.279078	-1.127113	0.451915	0.037642	0.117398	0.992371	0.530554	-0.843895	0.079709	0.846815	0.523507	-0.094052
12520	9.531229	0.521069	-2.422802	-1.373998	-1.013888	0.418766	0.048556	0.119025	0.991703	0.518634	-0.851539	0.076809	0.853617	0.510601	-0.103078
12521	10.854736	0.503703	0.800875	-1.219907	-0.967889	0.413526	0.058980	0.120363	0.990976	0.507945	-0.858205	0.074006	0.859368	0.498996	-0.111755
12522	9.424095	-0.650690	-0.904461	-1.377053	-0.867866	0.383473	0.068486	0.121263	0.990255	0.495760	-0.865495	0.071699	0.865755	0.486019	-0.119392
12523	10.130405	-0.821678	-0.655608	-1.100826	-0.818555	0.201149	0.076591	0.123439	0.989392	0.486039	-0.871045	0.071048	0.870575	0.475441	-0.126710
12524	9.551485	-0.857208	-0.697051	-0.788355	-0.795180	0.103906	0.084365	0.126042	0.988431	0.477405	-0.875815	0.070934	0.874624	0.465898	-0.134061
12525	9.250539	-0.781817	-0.746381	-0.433136	-0.823137	-0.004390	0.091560	0.129882	0.987293	0.473599	-0.877829	0.071561	0.875969	0.461028	-0.141886
12526	9.083639	-0.623167	-0.868449	-0.087002	-0.855566	-0.100406	0.098932	0.134419	0.985974	0.471235	-0.879018	0.072554	0.876442	0.457448	-0.150306
12527	9.229957	-0.032794	-0.996056	0.249050	-0.874938	-0.178040	0.105761	0.139975	0.984490	0.473578	-0.877646	0.073909	0.874379	0.458416	-0.159110
12528	9.434525	0.883929	-1.113667	0.512569	-0.868433	-0.233075	0.112654	0.145664	0.982899	0.476324	-0.876045	0.075235	0.872023	0.459703	-0.168073
12529	9.379694	1.230575	-2.190585	0.818186	-0.807053	-0.316144	0.118166	0.152147	0.981269	0.483783	-0.871801	0.076916	0.867174	0.465633	-0.176623
12530	9.589127	2.108028	-1.530032	0.804395	-0.959462	-0.250295	0.125341	0.158714	0.979336	0.490955	-0.867705	0.077787	0.862121	0.471061	-0.186680
12531	8.927195	1.746445	-3.258211	0.785715	-0.920560	-0.236280	0.132097	0.165106	0.977390	0.497993	-0.863613	0.078581	0.857061	0.476353	-0.196302
12532	9.095468	1.399373	-3.825111	0.856580	-0.990714	-0.193203	0.139688	0.171426	0.975244	0.505495	-0.859239	0.078631	0.851447	0.481997	-0.206680
12533	8.984451	1.219662	-4.193095	0.868144	-1.015118	-0.110209	0.147752	0.177278	0.973007	0.512999	-0.854852	0.077851	0.845578	0.487649	-0.217250
12534	9.285818	1.462407	-4.054424	0.836082	-1.003604	-0.018036	0.156219	0.182274	0.970758	0.520005	-0.850770	0.076062	0.839756	0.492916	-0.227690
12535	9.525965	1.971961	-3.764492	0.715668	-0.963225	0.070198	0.164662	0.186432	0.968571	0.525862	-0.847371	0.073704	0.834479	0.497198	-0.237567
12536	9.527230	2.307466	-3.507831	0.526439	-0.910749	0.146500	0.173121	0.189669	0.966465	0.529940	-0.845065	0.070918	0.830176	0.499891	-0.246812
12537	9.575498	2.305888	-3.383805	0.332613	-0.860814	0.200802	0.181332	0.192268	0.964444	0.532319	-0.843798	0.068131	0.826895	0.501037	-0.255355
12538	9.594150	1.948140	-3.180137	0.185042	-0.796765	0.225960	0.189217	0.194307	0.962519	0.533384	-0.843342	0.065393	0.824438	0.501018	-0.263214
12539	9.695715	1.577532	-2.736907	0.072833	-0.720609	0.229626	0.196389	0.195964	0.960744	0.533520	-0.843440	0.062979	0.822672	0.500208	-0.270192
12540	9.805918	1.274562	-2.328201	-0.025673	-0.641438	0.222284	0.202946	0.197255	0.959116	0.532827	-0.844034	0.060842	0.821528	0.498695	-0.276396
12541	9.536266	0.933815	-2.391320	-0.079129	-0.599934	0.191680	0.208905	0.198608	0.957556	0.531761	-0.844822	0.059215	0.820725	0.496821	-0.282099
12542	9.188239	0.238779	-2.755041	-0.033300	-0.608255	0.170240	0.215260	0.199777	0.955904	0.529569	-0.846308	0.057618	0.820500	0.493814	-0.287972
12543	8.530719	-0.307891	-3.441462	0.181890	-0.622102	0.154333	0.221188	0.201530	0.954181	0.530700	-0.845734	0.055604	0.818189	0.494086	-0.294018
12544	9.313451	-0.688070	-2.771211	0.273226	-0.728955	0.175195	0.228169	0.203615	0.952092	0.532498	-0.844767	0.053049	0.815098	0.494884	-0.301175
12545	8.549372	-0.438204	-3.567794	0.491897	-0.739513	0.163460	0.235067	0.205891	0.949922	0.536096	-0.842676	0.049984	0.810768	0.497500	-0.308463
12546	8.813533	0.271714	-3.481934	0.668382	-0.782339	0.147630	0.242285	0.208512	0.947534	0.541100	-0.839676	0.046418	0.805300	0.501465	-0.316267
12547	8.808490	0.440782	-3.717242	0.682750	-0.809709	0.154088	0.249633	0.211283	0.945009	0.546178	-0.836577	0.042762	0.799608	0.505468	-0.324235
12548	9.073601	0.956962	-3.269621	0.703235	-0.817401	0.148236	0.257061	0.214152	0.942369	0.551361	-0.833356	0.038977	0.793675	0.509566	-0.332298
12549	9.126119	1.153845	-2.915173	0.653839	-0.794246	0.153504	0.264205	0.216922	0.939755	0.556110	-0.830358	0.035324	0.787996	0.513274	-0.340017
12550	9.274656	1.347749	-2.414677	0.647488	-0.744878	0.174321	0.271126	0.219277	0.937234	0.560687	-0.827433	0.031391	0.782381	0.516984	-0.347284
12551	8.890602	0.744193	-2.622987	0.495113	-0.707575	0.215894	0.277873	0.221146	0.934816	0.563934	-0.825358	0.027623	0.777667	0.519499	-0.354056
12552	8.991446	0.842687	-2.591938	0.548390	-0.691323	0.210246	0.284514	0.222979	0.932380	0.567554	-0.822997	0.023632	0.772615	0.522452	-0.360707
12553	9.361256	1.170381	-2.313130	0.584217	-0.672193	0.220501	0.290959	0.224676	0.929980	0.571396	-0.820444	0.019443	0.767365	0.525730	-0.367095
12554	9.869094	1.351601	-2.087718	0.576972	-0.614011	0.197667	0.296875	0.226261	0.927724	0.575188	-0.817876	0.015407	0.762249	0.529042	-0.372949
12555	10.098778	1.680568	-1.843109	0.564837	-0.541339	0.167952	0.301971	0.227748	0.925713	0.578955	-0.815275	0.011720	0.757380	0.532407	-0.378046
12556	10.009384	1.919292	-1.746786	0.538497	-0.472961	0.138243	0.306421	0.229115	0.923911	0.582562	-0.812744	0.008336	0.752813	0.535681	-0.382515
12557	9.474048	2.300754	-2.092823	0.534782	-0.449295	0.095709	0.310367	0.230738	0.922189	0.586258	-0.810107	0.005387	0.748314	0.538969	-0.386703
12558	9.156058	1.948761	-3.081693	0.540864	-0.512933	0.089301	0.314781	0.232760	0.920182	0.589978	-0.807415	0.002412	0.743531	0.542128	-0.391483
12559	9.502877	1.051304	-3.074558	0.604547	-0.597853	0.147511	0.320098	0.234809	0.917825	0.593966	-0.804489	-0.001336	0.738066	0.545585	-0.396983
12560	8.262559	0.363624	-4.734712	0.707054	-0.725240	0.157368	0.326420	0.237495	0.914902	0.598623	-0.801011	-0.005647	0.731506	0.549525	-0.403636
12561	8.524326	-0.503024	-5.131172	0.789892	-0.805783	0.208739	0.333554	0.240259	0.911602	0.603660	-0.797169	-0.010779	0.724110	0.553893	-0.410933
12562	8.805665	-1.141898	-5.172548	0.844618	-0.855483	0.295939	0.341566	0.242648	0.907995	0.608717	-0.793205	-0.017012	0.716098	0.558523	-0.418636
12563	9.233742	-1.232178	-4.797698	0.861664	-0.843478	0.389027	0.349964	0.244288	0.904350	0.613485	-0.789336	-0.024185	0.707928	0.563269	-0.426106
12564	9.831911	-0.911644	-4.311836	0.886916	-0.806479	0.441978	0.358424	0.245352	0.900741	0.618131	-0.785422	-0.032027	0.699604	0.568256	-0.433174
12565	9.993315	-0.472517	-3.644835	0.903105	-0.758660	0.476294	0.366669	0.245938	0.897256	0.622663	-0.781454	-0.040258	0.691263	0.573449	-0.439672
12566	10.315185	0.218830	-2.907488	0.899134	-0.706798	0.480405	0.374590	0.246240	0.893895	0.627026	-0.777482	-0.048586	0.683024	0.578695	-0.445635
12567	10.724805	0.888726	-2.075105	0.876965	-0.643685	0.444743	0.381774	0.246519	0.890773	0.631277	-0.773497	-0.056493	0.675084	0.583892	-0.450923
12568	10.750888	1.607572	-1.267804	0.826423	-0.556753	0.375559	0.387942	0.246855	0.888011	0.635342	-0.769606	-0.063620	0.667714	0.588872	-0.455399
12569	10.847127	2.820310	-0.724272	0.829341	-0.464509	0.254375	0.392664	0.247637	0.885715	0.639835	-0.765347	-0.069675	0.660625	0.594070	-0.458971
12570	10.082286	4.471958	-0.393290	0.765589	-0.418447	0.148025	0.396397	0.248968	0.883677	0.644247	-0.761177	-0.074539	0.654076	0.598853	-0.462125
12571	10.729340	5.029536	-1.205082	0.609526	-0.351761	0.032523	0.398913	0.250821	0.882019	0.648066	-0.757615	-0.077658	0.648752	0.602585	-0.464771
12572	11.887792	4.176782	-1.194716	0.396970	-0.263001	0.029535	0.400809	0.252167	0.880775	0.650491	-0.755313	-0.079769	0.645146	0.604908	-0.466769
12573	12.208450	2.434138	-1.622087	0.184112	-0.053005	0.023558	0.401319	0.252297	0.880505	0.651561	-0.754276	-0.080843	0.643747	0.606147	-0.467093
12574	11.959600	1.354235	-1.490313	0.127859	0.192731	-0.017429	0.399943	0.251243	0.881432	0.652436	-0.753474	-0.081267	0.643719	0.607580	-0.465266
12575	11.701263	0.891490	-1.203258	0.190016	0.427823	-0.094916	0.396583	0.249340	0.883488	0.654015	-0.752098	-0.081317	0.644194	0.610064	-0.461342
12576	12.197652	0.173016	-1.424574	0.255790	0.664250	-0.198480	0.390961	0.246739	0.886718	0.656423	-0.750064	-0.080709	0.645181	0.613616	-0.455211
12577	12.834556	-0.303348	-1.251014	0.273415	0.928325	-0.272683	0.383185	0.243052	0.891120	0.659223	-0.747731	-0.079525	0.646989	0.617919	-0.446745
12578	12.923702	-0.334997	-1.568875	0.450568	1.272645	-0.455840	0.371871	0.238498	0.897123	0.663829	-0.743867	-0.077413	0.648878	0.624324	-0.434945
12579	12.671090	0.870600	-1.649151	0.566077	1.504434	-0.673899	0.357617	0.234030	0.904068	0.669944	-0.738737	-0.073774	0.650603	0.632058	-0.420972
12580	12.192528	2.305705	-1.979201	0.657228	1.682247	-0.951577	0.340182	0.230257	0.911733	0.677503	-0.732386	-0.067824	0.652124	0.640775	-0.405145
12581	11.690136	3.494870	-2.352535	0.659634	1.823054	-1.222551	0.319961	0.227392	0.919738	0.685825	-0.725351	-0.059253	0.653659	0.649738	-0.388035
12582	11.657371	5.125054	-1.769644	0.453102	1.873519	-1.444935	0.297637	0.225528	0.927658	0.693219	-0.719155	-0.047580	0.656399	0.657232	-0.370387
12583	11.779546	5.282670	-2.503209	0.202098	1.982056	-1.630825	0.273245	0.224118	0.935472	0.699185	-0.714173	-0.033127	0.660664	0.663120	-0.351844
12584	12.353010	4.822653	-2.324376	-0.343050	1.955531	-1.645691	0.248611	0.222841	0.942621	0.701177	-0.712798	-0.016423	0.668238	0.665027	-0.333461
12585	12.660542	2.452818	-3.041364	-0.832153	1.967841	-1.578701	0.224318	0.221027	0.949120	0.699286	-0.714841	0.001197	0.678734	0.663438	-0.314913
12586	12.660779	-0.236844	-3.645054	-1.159212	2.027488	-1.446738	0.200213	0.217970	0.955198	0.694399	-0.719350	0.018603	0.691176	0.659564	-0.295381
12587	12.662555	-2.436108	-4.219148	-1.384504	2.035770	-1.255094	0.177350	0.213656	0.960676	0.687086	-0.725753	0.034566	0.704599	0.653937	-0.275512
12588	12.680846	-4.064846	-4.805286	-1.346181	2.057807	-1.131927	0.154855	0.208477	0.965690	0.679367	-0.732153	0.049119	0.717273	0.648451	-0.255010
12589	12.558747	-5.013343	-4.669563	-1.104869	2.148134	-1.056552	0.132204	0.202337	0.970351	0.672881	-0.737146	0.062034	0.727842	0.644729	-0.233602
12590	12.219226	-4.868391	-3.692085	-0.858767	2.275810	-1.012765	0.108644	0.195116	0.974744	0.667765	-0.740701	0.073838	0.736401	0.642877	-0.210764
12591	11.417314	-4.394901	-3.924013	-0.573325	2.321771	-1.018557	0.084705	0.187728	0.978562	0.664491	-0.742456	0.084915	0.742480	0.643053	-0.187633
12592	10.720147	-3.576362	-4.014357	-0.279089	2.221071	-1.043590	0.061161	0.181094	0.981562	0.663107	-0.742388	0.095649	0.746022	0.645031	-0.165490
12593	10.500418	-2.791439	-3.856698	-0.057104	2.096582	-1.057629	0.038505	0.175367	0.983750	0.663190	-0.740891	0.106116	0.747460	0.648327	-0.144829
12594	10.647517	-1.795450	-3.756870	0.044603	2.010932	-1.077174	0.016259	0.170174	0.985280	0.663740	-0.738811	0.116652	0.747786	0.652073	-0.124964
12595	10.602489	-0.936891	-3.791242	0.021848	1.952422	-1.065257	-0.005399	0.165257	0.986236	0.663944	-0.736899	0.127112	0.747762	0.655492	-0.105743
12596	10.254110	-0.356237	-3.608306	-0.101265	1.915898	-0.985416	-0.026316	0.159848	0.986791	0.662952	-0.736037	0.136909	0.748199	0.657798	-0.086602
12597	9.700474	0.032033	-3.129286	-0.349282	1.953258	-0.920380	-0.047021	0.153760	0.986989	0.659982	-0.736910	0.146243	0.749809	0.658271	-0.066829
12598	9.019916	-0.108473	-3.123204	-0.612743	2.000211	-0.896136	-0.067976	0.147147	0.986776	0.654788	-0.739663	0.155404	0.752749	0.656693	-0.046071
12599	8.584978	-0.529922	-3.292256	-0.852565	2.006171	-0.852487	-0.088656	0.140318	0.986129	0.647670	-0.744040	0.164098	0.756746	0.653234	-0.024916
12600	8.356364	-1.039432	-3.699819	-1.045869	1.968336	-0.774691	-0.108607	0.133227	0.985117	0.638895	-0.749854	0.171847	0.761589	0.648050	-0.003679
12601	8.254077	-1.379929	-3.922510	-1.137326	1.884647	-0.671241	-0.127251	0.126112	0.983821	0.629398	-0.756337	0.178361	0.766594	0.641911	0.016870
12602	8.097093	-1.418344	-4.060527	-1.170128	1.800316	-0.560257	-0.144600	0.118809	0.982332	0.619572	-0.763188	0.183506	0.771506	0.635160	0.036747
12603	7.742676	-1.326552	-4.200822	-1.175251	1.710613	-0.444597	-0.160557	0.111398	0.980720	0.609784	-0.770117	0.187306	0.776135	0.628100	0.055719
12604	7.188240	-1.387055	-4.329684	-1.133015	1.592083	-0.325678	-0.174902	0.103916	0.979087	0.600361	-0.776903	0.189704	0.780369	0.620985	0.073494
12605	6.582574	-1.388614	-4.145417	-1.043727	1.457034	-0.239764	-0.187715	0.096773	0.977445	0.591748	-0.783126	0.191177	0.783963	0.614287	0.089739
12606	5.885179	-1.652121	-4.186675	-0.955420	1.302286	-0.161606	-0.198856	0.090034	0.975884	0.583880	-0.788868	0.191757	0.787109	0.607932	0.104302
12607	5.848783	-1.940340	-4.278139	-0.748635	1.103364	-0.086551	-0.208042	0.084024	0.974504	0.577789	-0.793341	0.191753	0.789226	0.602951	0.116501
12608	5.843350	-2.097883	-3.858057	-0.517806	0.876250	0.023557	-0.214766	0.078523	0.973504	0.573707	-0.796524	0.190814	0.790402	0.599487	0.126017
12609	5.753653	-2.190314	-3.505793	-0.239615	0.633704	0.136812	-0.218978	0.073623	0.972948	0.572096	-0.798078	0.189151	0.790414	0.598039	0.132642
12610	5.708561	-1.989631	-3.070410	0.033028	0.382940	0.235179	-0.220573	0.069412	0.972897	0.572835	-0.798098	0.186813	0.789435	0.598516	0.136277
12611	5.468251	-1.380940	-2.949341	0.263645	0.172107	0.286091	-0.220275	0.066084	0.973197	0.575531	-0.796727	0.184367	0.787555	0.600716	0.137465
12612	5.060231	-0.595177	-3.004335	0.473878	-0.040979	0.267374	-0.218305	0.064162	0.973769	0.579808	-0.794095	0.182308	0.784962	0.604398	0.136153
12613	4.777131	0.939982	-2.741502	0.580042	-0.220390	0.138462	-0.215759	0.064387	0.974321	0.584639	-0.790681	0.181717	0.782077	0.608834	0.132953
12614	4.641272	1.786526	-2.810368	0.518144	-0.413022	-0.077766	-0.212873	0.067491	0.974746	0.588496	-0.787506	0.183047	0.779972	0.612600	0.127921
12615	5.074798	2.350990	-1.893313	0.493682	-0.709392	-0.227395	-0.208674	0.073621	0.975210	0.591850	-0.784329	0.185854	0.778568	0.615961	0.120096
12616	6.282981	3.153005	0.737003	0.263538	-1.020601	-0.157826	-0.201537	0.081133	0.976115	0.593574	-0.782608	0.187603	0.779136	0.617205	0.109566
12617	8.770174	4.641005	5.383037	-0.245252	-1.273226	0.192420	-0.190437	0.087450	0.977797	0.592021	-0.784296	0.185447	0.783099	0.614192	0.097587
12618	11.479664	5.414936	8.387416	-1.096046	-1.233295	0.668905	-0.176681	0.089679	0.980174	0.584612	-0.791589	0.177804	0.791841	0.604437	0.087431
12619	13.306092	4.465545	0.320698	-2.152093	-0.828525	1.034237	-0.164083	0.086340	0.982661	0.569168	-0.805331	0.165798	0.805682	0.586504	0.082999
12620	15.649540	6.421902	8.069890	-1.854336	-0.460599	0.992375	-0.154530	0.081230	0.984643	0.554307	-0.817854	0.154464	0.817841	0.569664	0.081356
12621	14.570547	6.724707	8.840049	-1.937957	-0.143768	0.737981	-0.149298	0.075944	0.985872	0.539457	-0.829333	0.145579	0.828672	0.553570	0.082849
12622	14.703020	4.868880	8.471911	-2.058706	0.096480	0.398882	-0.147930	0.072065	0.986369	0.522857	-0.840870	0.139850	0.839486	0.536418	0.086710
12623	12.824091	1.227253	6.556204	-1.817461	0.412846	0.109034	-0.150840	0.068944	0.986151	0.507666	-0.850573	0.137117	0.848247	0.521318	0.093300
12624	13.082833	1.184733	6.334829	-1.812574	0.372314	0.217519	-0.152899	0.065133	0.986093	0.492505	-0.860060	0.133173	0.856774	0.506018	0.099424
12625	9.735317	-1.323573	3.252028	-1.317352	0.588766	0.047490	-0.157716	0.061759	0.985551	0.481238	-0.866697	0.131323	0.862285	0.494996	0.106971
12626	6.579353	-2.209821	1.395709	-0.924157	0.504953	0.035604	-0.161893	0.058913	0.985048	0.473248	-0.871301	0.129888	0.865926	0.487200	0.113177
12627	2.690101	-5.156461	-4.082258	-0.375248	-0.075257	0.056324	-0.160964	0.058770	0.985209	0.470069	-0.873169	0.128886	0.867828	0.483862	0.112922
12628	3.904564	-6.679002	-3.485628	0.543739	-0.762116	0.010673	-0.154272	0.062307	0.986062	0.474723	-0.870589	0.129282	0.866509	0.488051	0.104729
12629	7.895430	-5.150365	-1.068889	1.238346	-0.927060	-0.101581	-0.146736	0.067743	0.986853	0.485255	-0.864429	0.131492	0.861972	0.498170	0.093970
12630	11.626058	-1.361331	0.114427	1.475257	-0.779264	-0.198992	-0.140962	0.073285	0.987299	0.497538	-0.856929	0.134644	0.855912	0.510199	0.084333
12631	15.494715	2.140954	0.561328	1.324274	-0.659581	-0.196981	-0.136314	0.078350	0.987563	0.508545	-0.849965	0.137628	0.850177	0.520980	0.076018
12632	17.542408	4.892098	0.701111	0.898758	-0.611170	-0.187055	-0.132022	0.083036	0.987763	0.515814	-0.845185	0.139993	0.846467	0.527984	0.068752
12633	16.621197	5.999426	1.188589	0.290201	-0.540360	-0.300257	-0.128990	0.088413	0.987697	0.517860	-0.843407	0.143127	0.845685	0.529950	0.063005
12634	14.100544	2.539426	-0.832293	-0.488088	-0.602096	-0.169145	-0.124700	0.092930	0.987833	0.513422	-0.845901	0.144390	0.849027	0.525181	0.057772
12635	11.271089	1.922418	-1.865369	-0.503103	-0.587084	-0.190398	-0.120667	0.097595	0.987884	0.508891	-0.848365	0.145971	0.852332	0.520339	0.052704
12636	7.933195	0.299195	-4.026176	-0.476824	-0.670383	-0.123836	-0.115503	0.102040	0.988052	0.504596	-0.850775	0.146850	0.855595	0.515529	0.046778
12637	6.029660	-1.598818	-5.126745	-0.264435	-0.784618	-0.063477	-0.109088	0.106596	0.988300	0.502241	-0.852083	0.147341	0.857819	0.512438	0.039415
12638	5.570025	-2.591385	-4.550233	0.019291	-0.899354	-0.012308	-0.101343	0.111233	0.988614	0.502326	-0.852029	0.147359	0.858719	0.511540	0.030472
12639	6.371097	-2.050846	-3.989677	0.299787	-1.054752	0.032370	-0.092113	0.116343	0.988929	0.504912	-0.850546	0.147092	0.858242	0.512871	0.019603
12640	7.806909	-0.311026	-4.035564	0.510877	-1.265048	0.069476	-0.080800	0.122183	0.989213	0.509285	-0.848063	0.146348	0.856796	0.515616	0.006298
12641	9.198522	1.403413	-3.897643	0.556217	-1.470603	0.111601	-0.067629	0.128824	0.989359	0.514110	-0.845343	0.145215	0.855054	0.518460	-0.009060
12642	10.209191	2.700260	-3.175275	0.307348	-1.542291	0.176399	-0.053408	0.135268	0.989369	0.516787	-0.844037	0.143295	0.854447	0.518946	-0.024826
12643	10.544788	3.432506	-2.582392	-0.033850	-1.476699	0.219212	-0.039639	0.141046	0.989209	0.516580	-0.844530	0.141117	0.855321	0.516599	-0.039385
12644	10.395131	3.359024	-2.119668	-0.412149	-1.339059	0.261215	-0.026690	0.145668	0.988973	0.513095	-0.847065	0.138614	0.857917	0.511137	-0.052133
12645	10.060600	2.590620	-1.604474	-0.630937	-1.153375	0.269900	-0.015385	0.149214	0.988685	0.507708	-0.850681	0.136287	0.861392	0.504060	-0.062670
12646	9.966536	1.690418	-1.073339	-0.864216	-1.011079	0.291808	-0.005050	0.151740	0.988408	0.500245	-0.855470	0.133887	0.865869	0.495122	-0.071587
12647	9.630641	0.663977	-1.090158	-0.729005	-0.875616	0.264005	0.003873	0.153760	0.988101	0.493900	-0.859471	0.131808	0.869510	0.487512	-0.079271
12648	9.528481	0.050849	-0.801562	-0.551248	-0.805511	0.260539	0.012300	0.155383	0.987778	0.489048	-0.862575	0.129598	0.872170	0.481477	-0.086600
12649	9.538903	-0.678446	-1.052247	-0.345740	-0.767709	0.215946	0.020068	0.157180	0.987366	0.485974	-0.864585	0.127757	0.873743	0.477270	-0.093736
12650	9.328878	-1.192000	-1.379604	-0.003581	-0.755673	0.129746	0.027436	0.159614	0.986798	0.485873	-0.864844	0.126379	0.873599	0.475991	-0.101280
12651	9.067243	-1.206258	-1.963295	0.325557	-0.803853	0.027525	0.034598	0.163190	0.985988	0.488684	-0.863352	0.125745	0.871775	0.477486	-0.109619
12652	8.786126	-0.872165	-2.899245	0.638931	-0.910039	-0.070944	0.042312	0.168107	0.984860	0.494222	-0.860215	0.125598	0.868306	0.481425	-0.119479
12653	8.540306	-0.364695	-4.128541	0.905872	-1.034473	-0.139182	0.050588	0.174294	0.983393	0.502107	-0.855604	0.125815	0.863324	0.487404	-0.130798
12654	9.151743	-0.055550	-2.860717	1.118077	-1.149164	-0.134091	0.059951	0.181021	0.981650	0.511751	-0.849922	0.125476	0.857040	0.494838	-0.143591
12655	9.126492	0.667850	-4.032827	1.143895	-1.209671	-0.119554	0.069674	0.188047	0.979686	0.521572	-0.844014	0.124912	0.850358	0.502273	-0.156886
12656	9.894380	1.540622	-3.371247	1.023122	-1.174268	-0.041872	0.079568	0.194276	0.977715	0.530226	-0.838810	0.123524	0.844114	0.508581	-0.169753
12657	9.915169	2.207754	-3.249125	0.845646	-1.127557	0.031097	0.089236	0.199760	0.975773	0.537293	-0.834567	0.121716	0.838662	0.513414	-0.181803
12658	9.624029	2.588692	-2.971247	0.647368	-1.068654	0.081017	0.098779	0.204541	0.973861	0.542595	-0.831438	0.119592	0.834166	0.516599	-0.193112
12659	9.637225	2.604007	-2.486793	0.489940	-1.032021	0.111423	0.107991	0.208939	0.971948	0.546535	-0.829150	0.117518	0.830444	0.518512	-0.203733
12660	9.739920	2.352092	-1.888750	0.375492	-0.975277	0.139290	0.117002	0.212811	0.970063	0.549463	-0.827529	0.115270	0.827286	0.519526	-0.213754
12661	9.767846	1.908011	-1.433336	0.381759	-0.902133	0.132180	0.125194	0.216393	0.968246	0.552432	-0.825844	0.113138	0.824103	0.520726	-0.222934
12662	9.527501	2.032221	-1.192549	0.339744	-0.849737	0.167243	0.133269	0.219410	0.966488	0.554985	-0.824470	0.110642	0.821116	0.521641	-0.231645
12663	9.496788	1.949902	-1.234080	0.498857	-0.766573	0.112112	0.140189	0.222477	0.964806	0.558895	-0.822127	0.108367	0.817302	0.524034	-0.239594
12664	9.604530	2.216275	-1.144719	0.505415	-0.744902	0.112022	0.147042	0.225439	0.963097	0.562830	-0.819754	0.105955	0.813389	0.526480	-0.247422
12665	9.310906	1.872921	-1.687753	0.513243	-0.696744	0.103287	0.153295	0.228254	0.961458	0.566816	-0.817297	0.103656	0.809457	0.529080	-0.254665
12666	9.109777	1.380466	-2.279125	0.567884	-0.697407	0.115617	0.159727	0.230982	0.959758	0.571195	-0.814579	0.100982	0.805123	0.532079	-0.262046
12667	8.997342	0.926454	-2.804079	0.556909	-0.744269	0.163005	0.166653	0.233609	0.957942	0.575377	-0.812005	0.097922	0.800730	0.534859	-0.269737
12668	8.804191	0.155643	-3.478698	0.728515	-0.723888	0.114977	0.173237	0.236538	0.956054	0.580971	-0.808392	0.094733	0.795274	0.539028	-0.277465
12669	9.106585	0.015293	-3.261014	0.810098	-0.745454	0.120449	0.179863	0.239585	0.954069	0.587153	-0.804312	0.091287	0.789240	0.543766	-0.285339
12670	8.924471	0.306212	-3.488953	0.811280	-0.766125	0.117591	0.186726	0.242797	0.951936	0.593289	-0.800196	0.087718	0.783033	0.548394	-0.293466
12671	8.783188	0.438937	-3.874150	0.890149	-0.762642	0.061142	0.193054	0.246494	0.949721	0.600090	-0.795460	0.084473	0.776287	0.553610	-0.301486
12672	8.672172	0.231326	-4.115174	0.931428	-0.794360	0.037682	0.199569	0.250587	0.947301	0.607188	-0.790402	0.081167	0.769087	0.558991	-0.309893
12673	8.715560	0.184151	-4.136930	0.956023	-0.807819	0.031548	0.205961	0.254860	0.944789	0.614417	-0.785131	0.077850	0.761624	0.564461	-0.318297
12674	8.917159	0.262246	-3.983126	0.942574	-0.809347	0.050808	0.212562	0.259028	0.942190	0.621430	-0.779946	0.074226	0.754084	0.569728	-0.326754
12675	9.184802	0.686824	-3.632298	0.884257	-0.779083	0.084469	0.218954	0.262812	0.939675	0.627861	-0.775127	0.070492	0.746893	0.574551	-0.334727
12676	9.416321	1.353635	-3.222403	0.773915	-0.719383	0.111621	0.225162	0.266074	0.937287	0.633344	-0.770989	0.066719	0.740390	0.578603	-0.342114
12677	9.433014	1.945180	-2.869694	0.625705	-0.652937	0.134695	0.230852	0.268809	0.935120	0.637630	-0.767739	0.063283	0.734939	0.581651	-0.348635
12678	9.139876	2.326462	-3.005691	0.475402	-0.615306	0.145274	0.236437	0.271262	0.933013	0.640751	-0.765388	0.060153	0.730435	0.583607	-0.354778
12679	9.012074	2.060190	-3.438183	0.360669	-0.626569	0.173687	0.242135	0.273578	0.930874	0.642940	-0.763775	0.057230	0.726635	0.584638	-0.360831
12680	8.883116	1.548088	-3.817380	0.305570	-0.676356	0.200878	0.248471	0.275991	0.928489	0.644645	-0.762561	0.054158	0.722977	0.585089	-0.367391
12681	8.809844	1.035851	-4.071894	0.313396	-0.743534	0.231371	0.255344	0.278564	0.925852	0.646298	-0.761390	0.050836	0.719095	0.585396	-0.374452
12682	8.612294	0.484174	-4.271937	0.356572	-0.823959	0.271849	0.263147	0.281318	0.922829	0.648136	-0.760080	0.046887	0.714614	0.585781	-0.382345
12683	8.533317	-0.055621	-4.444140	0.410460	-0.894783	0.328312	0.271669	0.284053	0.919516	0.650158	-0.758623	0.042263	0.709571	0.586349	-0.390773
12684	8.517102	-0.282832	-4.500453	0.506670	-0.935961	0.383206	0.280916	0.286643	0.915927	0.652666	-0.756759	0.036657	0.703643	0.587496	-0.399668
12685	9.023623	0.040403	-3.787747	0.586084	-0.993415	0.414356	0.290603	0.289340	0.912049	0.655562	-0.754525	0.030488	0.696985	0.589045	-0.408947
12686	9.324819	-0.151161	-3.903573	0.641156	-0.968386	0.437241	0.300329	0.291758	0.908119	0.658700	-0.752030	0.023768	0.689867	0.591040	-0.418038
12687	9.819440	0.047441	-3.121546	0.736189	-0.921371	0.431061	0.309517	0.293966	0.904314	0.662413	-0.748952	0.016741	0.682209	0.593847	-0.426540
12688	10.516448	0.117203	-2.537639	0.723163	-0.826927	0.428404	0.318109	0.295679	0.900767	0.665953	-0.745931	0.009671	0.674770	0.596792	-0.434196
12689	10.555551	0.277576	-2.103706	0.801407	-0.706581	0.379241	0.325403	0.297072	0.897698	0.670086	-0.742279	0.002743	0.667157	0.600642	-0.440603
12690	10.523177	1.076482	-1.596584	0.868798	-0.625854	0.315920	0.331807	0.298486	0.894880	0.674778	-0.738010	-0.004034	0.659226	0.605183	-0.446289
12691	10.558803	1.735831	-1.028993	0.900779	-0.545243	0.246258	0.337068	0.299973	0.892413	0.679833	-0.733295	-0.010288	0.651316	0.610160	-0.451102
12692	10.311836	2.124022	-0.949946	0.905700	-0.479084	0.176163	0.341489	0.301589	0.890185	0.685059	-0.728310	-0.016053	0.643490	0.615312	-0.455316
12693	9.945172	2.106167	-1.443532	0.932066	-0.488853	0.145610	0.345636	0.303538	0.887919	0.690496	-0.723013	-0.021622	0.635414	0.620577	-0.459492
12694	9.760009	1.480792	-1.939018	0.974160	-0.511238	0.141676	0.349947	0.305666	0.885497	0.696108	-0.717411	-0.027457	0.626873	0.626011	-0.463833
12695	9.895777	0.732239	-2.155338	1.031869	-0.492638	0.119097	0.353866	0.307899	0.883163	0.702088	-0.711309	-0.033328	0.617941	0.631852	-0.467881
12696	9.986934	0.521861	-1.933277	1.104356	-0.453008	0.111207	0.357520	0.309943	0.880974	0.708418	-0.704683	-0.039573	0.608541	0.638246	-0.471507
12697	9.870476	0.931910	-1.397208	1.165842	-0.401502	0.088377	0.360594	0.311885	0.879033	0.715116	-0.697499	-0.045876	0.598817	0.645153	-0.474548
12698	10.081837	1.956643	-1.084444	1.224836	-0.330615	0.055323	0.363037	0.313589	0.877420	0.722136	-0.689774	-0.052263	0.588833	0.652590	-0.476868
12699	9.841447	3.569696	-0.784589	1.262221	-0.248280	0.000464	0.364511	0.315202	0.876230	0.729480	-0.681512	-0.058306	0.578783	0.660446	-0.478353
12700	9.100901	5.293537	-1.603763	1.246173	-0.256426	-0.030271	0.365825	0.317048	0.875016	0.736687	-0.673191	-0.064073	0.568739	0.668052	-0.479836
12701	9.895611	6.515071	-2.470137	1.053463	-0.253487	-0.049362	0.366912	0.319067	0.873826	0.742791	-0.665988	-0.068715	0.560033	0.674282	-0.481359
12702	11.553508	5.702862	-2.866353	0.605652	-0.078388	-0.079980	0.366789	0.320085	0.873505	0.746422	-0.661678	-0.070963	0.555265	0.678032	-0.481615
12703	12.216571	3.177053	-3.492477	0.178693	0.255944	-0.073638	0.364840	0.318821	0.874783	0.747661	-0.660254	-0.071188	0.554882	0.680014	-0.479257
12704	11.692379	0.865919	-4.115226	-0.246401	0.485855	-0.046382	0.361800	0.315792	0.877141	0.746427	-0.661816	-0.069614	0.558523	0.679908	-0.475160
12705	11.497812	-1.036655	-5.045975	-0.343273	0.691827	-0.131596	0.356958	0.311947	0.880494	0.744952	-0.663761	-0.066847	0.563585	0.679787	-0.469321
12706	11.994194	-2.513219	-5.399261	-0.245141	0.893066	-0.242636	0.350102	0.307446	0.884820	0.744388	-0.664714	-0.063570	0.568608	0.680905	-0.461577
12707	12.302102	-3.024854	-4.855192	-0.014571	1.153257	-0.371783	0.340772	0.302030	0.890310	0.745567	-0.663704	-0.060215	0.572716	0.684306	-0.451356
12708	11.593691	-1.883628	-3.760984	0.235599	1.388146	-0.524459	0.328895	0.295911	0.896808	0.748634	-0.660564	-0.056594	0.575652	0.689994	-0.438785
12709	10.758055	-0.269122	-3.106894	0.407885	1.504476	-0.682961	0.315114	0.289958	0.903674	0.753163	-0.655758	-0.052220	0.577450	0.697069	-0.425025
12710	10.601593	1.156025	-2.736772	0.486879	1.574366	-0.831637	0.299738	0.284288	0.910680	0.758485	-0.650013	-0.046730	0.578669	0.704744	-0.410462
12711	10.910618	2.392355	-2.451808	0.447242	1.640173	-0.968248	0.282887	0.278920	0.917703	0.763876	-0.644142	-0.039693	0.580059	0.712240	-0.395279
12712	11.463905	2.988689	-2.281026	0.268551	1.762326	-1.088041	0.264302	0.273227	0.924928	0.768367	-0.639272	-0.030720	0.582887	0.718803	-0.378899
12713	12.030788	3.363535	-1.963657	0.074557	1.923039	-1.179242	0.243991	0.266854	0.932340	0.771780	-0.635574	-0.020059	0.587217	0.724455	-0.361027
12714	11.861999	1.749261	-3.119482	-0.350818	1.960762	-1.116339	0.223766	0.259653	0.939420	0.772273	-0.635236	-0.008375	0.594578	0.727362	-0.342667
12715	11.955953	0.689402	-3.658138	-0.532550	2.016016	-1.106413	0.203176	0.251993	0.946160	0.771426	-0.636308	0.003815	0.603010	0.729117	-0.323676
12716	11.533961	0.176595	-2.886242	-0.752960	1.967576	-1.036946	0.183202	0.244202	0.952262	0.768808	-0.639279	0.016031	0.612676	0.729169	-0.304861
12717	11.398256	-1.094661	-3.684480	-0.896195	1.936855	-0.978829	0.163751	0.236354	0.957769	0.764949	-0.643481	0.028011	0.622927	0.728058	-0.286170
12718	11.636052	-1.682844	-3.757397	-0.828865	1.908302	-0.969701	0.144348	0.228666	0.962744	0.761192	-0.647315	0.039618	0.632258	0.727114	-0.267498
12719	12.172632	-1.801177	-3.975323	-0.762892	1.949014	-0.964363	0.124641	0.220745	0.967334	0.757615	-0.650716	0.050875	0.640691	0.726526	-0.248346
12720	12.122844	-1.366627	-4.335559	-0.614766	2.027170	-0.983804	0.104124	0.212360	0.971628	0.754726	-0.653117	0.061866	0.647724	0.726871	-0.228279
12721	11.823853	-0.671253	-4.582155	-0.486076	2.030454	-0.999507	0.083404	0.204113	0.975388	0.752483	-0.654594	0.072638	0.653310	0.727904	-0.208187
12722	11.987959	0.321979	-4.312988	-0.411349	2.004490	-1.043942	0.062407	0.196283	0.978559	0.750494	-0.655564	0.083633	0.657924	0.729183	-0.188221
12723	11.687602	0.991360	-4.092750	-0.493709	1.984035	-1.080829	0.041231	0.188890	0.981132	0.747776	-0.657107	0.095083	0.662669	0.729747	-0.168341
12724	11.243526	1.287941	-4.021946	-0.673071	1.983043	-1.085538	0.019934	0.181521	0.983185	0.743582	-0.660062	0.106789	0.668348	0.728950	-0.148133
12725	10.702041	1.148031	-4.072810	-0.856728	1.963741	-1.063882	-0.001115	0.174260	0.984699	0.737911	-0.664428	0.118418	0.674897	0.726752	-0.127847
12726	10.107991	0.729616	-4.034315	-1.028603	1.954871	-1.016209	-0.021844	0.166827	0.985744	0.730775	-0.670199	0.129618	0.682268	0.723189	-0.107273
12727	9.564256	0.393822	-4.016372	-1.149910	1.940867	-0.969293	-0.042185	0.159350	0.986320	0.722559	-0.676930	0.140268	0.690021	0.718592	-0.086583
12728	9.238009	0.149313	-3.603798	-1.273116	1.922989	-0.967490	-0.062470	0.152142	0.986382	0.713186	-0.684572	0.150758	0.698186	0.712892	-0.065740
12729	8.782457	0.013733	-3.767426	-1.409207	1.908705	-0.963326	-0.082678	0.145222	0.985939	0.702571	-0.693159	0.161013	0.706794	0.706004	-0.044720
12730	8.561857	-0.001430	-3.893037	-1.520103	1.873904	-0.963734	-0.102701	0.138769	0.984985	0.690844	-0.702490	0.171002	0.715672	0.698033	-0.023721
12731	8.377289	-0.105383	-3.893521	-1.620448	1.840322	-0.948710	-0.122429	0.132702	0.983566	0.678091	-0.712462	0.180530	0.724710	0.689049	-0.002758
12732	8.046397	-0.309715	-3.774946	-1.690686	1.814544	-0.905535	-0.141707	0.126773	0.981757	0.664555	-0.722873	0.189266	0.733680	0.679252	0.018189
12733	7.672482	-0.610642	-3.575311	-1.730606	1.769263	-0.833720	-0.160229	0.120903	0.979648	0.650508	-0.733526	0.196923	0.742405	0.668822	0.038884
12734	7.269791	-1.065502	-3.416298	-1.751761	1.698950	-0.724233	-0.177524	0.114976	0.977377	0.636205	-0.744304	0.203114	0.750819	0.657869	0.058984
12735	6.853846	-1.653576	-3.509610	-1.697733	1.571001	-0.581027	-0.193019	0.109066	0.975115	0.622301	-0.754748	0.207599	0.758608	0.646885	0.077809
12736	6.669142	-1.984866	-3.232382	-1.561491	1.410471	-0.418230	-0.206276	0.103186	0.973038	0.609572	-0.764333	0.210278	0.765423	0.636512	0.094764
12737	6.316885	-2.163007	-3.059708	-1.399423	1.242889	-0.261739	-0.217388	0.097329	0.971221	0.598252	-0.772930	0.211364	0.771257	0.626982	0.109799
12738	5.998479	-2.355180	-2.892124	-1.195996	1.045284	-0.119901	-0.226101	0.091743	0.969774	0.588742	-0.780275	0.211080	0.776055	0.618672	0.122408
12739	5.912202	-2.616108	-2.670252	-0.981568	0.832798	0.000069	-0.232561	0.086602	0.968719	0.581092	-0.786331	0.209800	0.779902	0.611706	0.132546
12740	6.113362	-2.720159	-2.409009	-0.778614	0.612725	0.115808	-0.236574	0.081948	0.968151	0.575288	-0.791182	0.207544	0.782992	0.606066	0.140030
12741	6.443850	-2.468781	-2.042062	-0.569507	0.413808	0.223017	-0.238522	0.077662	0.968027	0.571339	-0.794816	0.204544	0.785289	0.601860	0.145210
12742	6.605548	-2.143243	-1.640647	-0.349663	0.271291	0.282339	-0.238921	0.073771	0.968233	0.569270	-0.797149	0.201209	0.786669	0.599259	0.148460
12743	6.663949	-1.564007	-1.458632	-0.160262	0.182827	0.304384	-0.238610	0.070231	0.968573	0.568723	-0.798344	0.197993	0.787159	0.598093	0.150551
12744	6.759702	-0.950242	-1.556586	-0.006211	0.057357	0.282022	-0.237318	0.067617	0.969076	0.569347	-0.798599	0.195150	0.787099	0.598053	0.151024
12745	7.059272	-0.079686	-1.339875	-0.071934	-0.103354	0.226866	-0.235194	0.066405	0.969677	0.569304	-0.799197	0.192814	0.787767	0.597390	0.150162
12746	7.462252	0.179828	-1.197689	0.263836	-0.347095	0.188464	-0.231236	0.066959	0.970591	0.571824	-0.797768	0.191269	0.787113	0.599236	0.146184
12747	7.342592	0.530391	-0.197136	0.271124	-0.574960	0.153879	-0.225811	0.069165	0.971713	0.574296	-0.796262	0.190134	0.786888	0.600985	0.140083
12748	8.243580	1.433966	2.414242	0.326330	-0.820274	0.216311	-0.217953	0.072365	0.973273	0.577350	-0.794473	0.188362	0.786870	0.602973	0.131378
12749	8.937585	2.583335	3.474767	0.196802	-0.930598	0.347832	-0.208596	0.075201	0.975106	0.579627	-0.793559	0.185194	0.787731	0.603829	0.121944
12750	9.394019	4.987535	5.753330	0.013822	-0.924039	0.389979	-0.198895	0.077662	0.976939	0.580530	-0.793800	0.181293	0.789573	0.603200	0.112798
12751	10.148043	6.750148	6.580654	-0.353123	-0.797083	0.337393	-0.190613	0.079756	0.978420	0.578378	-0.796206	0.177581	0.793187	0.599746	0.105638
12752	11.496760	7.887885	7.394371	-0.754223	-0.619322	0.270151	-0.184003	0.081271	0.979560	0.572875	-0.800947	0.174062	0.798722	0.593193	0.100819
12753	12.332493	6.884968	8.023057	-1.217892	-0.372761	0.281110	-0.179396	0.081183	0.980422	0.563597	-0.808355	0.170061	0.806335	0.583071	0.099261
12754	12.907943	4.714622	7.779634	-1.573762	-0.103149	0.369130	-0.176410	0.078755	0.981161	0.551482	-0.817748	0.164793	0.815320	0.570163	0.100827
12755	12.456927	2.747819	6.700413	-1.670874	0.171402	0.415892	-0.175530	0.074349	0.981663	0.538501	-0.827495	0.158962	0.824139	0.556529	0.105213
12756	11.477904	1.994286	5.655874	-1.567948	0.315824	0.344631	-0.176244	0.069710	0.981875	0.526097	-0.836399	0.153815	0.831962	0.543670	0.110736
12757	9.574447	0.191733	2.187526	-1.511201	0.375661	0.349007	-0.177549	0.064738	0.981980	0.514071	-0.844770	0.148641	0.839170	0.531199	0.116708
12758	7.356820	-1.253468	-0.398212	-1.205324	0.354794	0.253175	-0.179189	0.060680	0.981942	0.504334	-0.851308	0.144641	0.844712	0.521145	0.121942
12759	4.551546	-3.577142	-3.832355	-0.835993	-0.155006	0.277088	-0.176470	0.059097	0.982530	0.497731	-0.855815	0.140872	0.849189	0.513895	0.121611
12760	5.975482	-4.438197	-2.980311	-0.068518	-0.685944	0.220598	-0.169468	0.060680	0.983666	0.497484	-0.856340	0.138533	0.850759	0.512835	0.114935
12761	9.439902	-2.735944	-0.487920	0.449463	-0.761295	0.049405	-0.162731	0.064154	0.984583	0.501372	-0.854072	0.138517	0.849791	0.516183	0.106819
12762	11.492767	-0.241677	-0.119435	0.691445	-0.558659	-0.135669	-0.158582	0.068146	0.984991	0.506963	-0.850447	0.140458	0.847254	0.521628	0.100318
12763	15.074390	2.567697	1.399162	0.462468	-0.598976	-0.109721	-0.154052	0.072193	0.985422	0.510690	-0.847964	0.141960	0.845851	0.525114	0.093762
12764	17.351781	3.782232	1.389354	0.200576	-0.525495	-0.093181	-0.149988	0.075681	0.985787	0.512187	-0.846894	0.142948	0.845676	0.526348	0.088261
12765	17.748040	3.446914	2.231824	-0.427974	-0.453505	-0.049371	-0.146380	0.078458	0.986112	0.508472	-0.849115	0.143036	0.848545	0.522348	0.084399
12766	15.427609	1.328276	1.426095	-1.031749	-0.439481	0.055447	-0.142265	0.080200	0.986574	0.499713	-0.854551	0.141527	0.854428	0.513139	0.081495
12767	11.621439	-0.607170	-0.378643	-1.164572	-0.456995	0.072244	-0.137970	0.081882	0.987046	0.489810	-0.860539	0.139854	0.860843	0.502760	0.078622
12768	8.048033	-2.255311	-2.902382	-1.013973	-0.618488	0.089945	-0.132094	0.084120	0.987661	0.481113	-0.865716	0.138080	0.866650	0.493416	0.073885
12769	5.564406	-3.613566	-5.115119	-0.383850	-0.781843	0.014232	-0.125221	0.087818	0.988235	0.477782	-0.867629	0.137641	0.869508	0.489396	0.066688
12770	4.975423	-3.587550	-5.137322	0.290827	-0.895967	-0.113271	-0.117853	0.093120	0.988655	0.480109	-0.866156	0.138814	0.869256	0.491022	0.057372
12771	6.042717	-2.189552	-4.803458	0.780121	-1.047593	-0.189381	-0.109658	0.099910	0.988935	0.486647	-0.862135	0.141061	0.866689	0.496731	0.045919
12772	7.143382	-0.543316	-5.292905	1.085382	-1.307070	-0.192164	-0.099152	0.108031	0.989191	0.495771	-0.856559	0.143240	0.862774	0.504615	0.031371
12773	8.681524	0.924889	-4.880730	1.241539	-1.528603	-0.165426	-0.086811	0.117203	0.989306	0.506281	-0.850068	0.145134	0.857988	0.513466	0.014457
12774	9.865691	2.070108	-4.399846	1.192563	-1.628393	-0.123400	-0.073341	0.126611	0.989237	0.516340	-0.843799	0.146278	0.853238	0.521511	-0.003489
12775	10.509511	2.761133	-3.568230	0.932138	-1.616292	-0.045275	-0.059797	0.135448	0.988978	0.524227	-0.838868	0.146586	0.849477	0.527214	-0.020843
12776	10.778717	3.446031	-2.275676	0.519163	-1.469762	0.052210	-0.046874	0.142727	0.988652	0.528630	-0.836239	0.145787	0.847557	0.529464	-0.036252
12777	10.398861	3.878669	-1.494094	0.052792	-1.273681	0.138422	-0.035325	0.148284	0.988314	0.529115	-0.836179	0.144370	0.847815	0.528031	-0.048921
12778	9.757513	3.513152	-1.113760	-0.374777	-1.102118	0.202367	-0.024725	0.152348	0.988018	0.525977	-0.838484	0.142453	0.850139	0.523196	-0.059400
12779	9.516489	2.593674	-0.884339	-0.649284	-0.951367	0.245215	-0.015317	0.155212	0.987762	0.520474	-0.842253	0.140418	0.853740	0.516256	-0.067883
12780	9.640481	1.337338	-0.771891	-0.740223	-0.821048	0.266596	-0.006741	0.157143	0.987553	0.514159	-0.846487	0.138205	0.857668	0.508691	-0.075090
12781	9.839340	0.230408	-0.868691	-0.668641	-0.719268	0.254559	0.000761	0.158597	0.987343	0.508400	-0.850284	0.136189	0.861121	0.501861	-0.081278
12782	9.892070	-0.648668	-1.078261	-0.495396	-0.657329	0.211417	0.007672	0.160049	0.987079	0.504105	-0.853119	0.134410	0.863608	0.496561	-0.087227
12783	9.638597	-1.088873	-1.366490	-0.230878	-0.636352	0.127812	0.013833	0.162087	0.986680	0.502075	-0.854484	0.133331	0.864713	0.493543	-0.093200
12784	9.155182	-1.100990	-1.886634	0.098624	-0.678819	0.023493	0.019997	0.165196	0.986058	0.502901	-0.854068	0.132885	0.864113	0.493232	-0.100156
12785	8.674725	-0.770154	-2.556551	0.431823	-0.771102	-0.086727	0.026233	0.169728	0.985142	0.506626	-0.851804	0.133265	0.861767	0.495602	-0.108333
12786	8.751724	-0.396429	-2.725755	0.892867	-0.906498	-0.211439	0.033129	0.175997	0.983833	0.514334	-0.847024	0.134204	0.856950	0.501573	-0.118583
12787	8.627561	-0.563692	-3.133862	0.677969	-0.959973	-0.087326	0.040906	0.181549	0.982531	0.520141	-0.843471	0.134199	0.853100	0.505565	-0.128934
12788	9.792515	0.258108	-3.254117	0.998678	-1.107621	-0.113409	0.049924	0.188089	0.980882	0.528656	-0.838221	0.133826	0.847367	0.511868	-0.141281
12789	9.728405	1.214940	-3.295349	0.945118	-1.061001	-0.108831	0.058325	0.194440	0.979179	0.536675	-0.833165	0.133478	0.841771	0.517716	-0.152946
12790	9.605645	1.968484	-2.893493	0.880203	-1.058002	-0.082002	0.066961	0.200581	0.977386	0.544087	-0.828462	0.132743	0.836353	0.522895	-0.164608
12791	9.247153	1.982963	-3.226726	0.875805	-0.963919	-0.129277	0.074309	0.206695	0.975580	0.551457	-0.823614	0.132494	0.830887	0.528145	-0.175185
12792	10.085356	3.261375	-1.084875	0.606757	-1.057440	0.062100	0.083619	0.211747	0.973741	0.556419	-0.820565	0.130656	0.826683	0.530883	-0.186435
12793	9.505380	2.734866	-1.833166	0.471515	-0.893037	0.063905	0.091365	0.215953	0.972120	0.560231	-0.818213	0.129110	0.823282	0.532816	-0.195740
12794	9.515163	2.363123	-1.588813	0.453061	-0.840515	0.097127	0.099011	0.219616	0.970549	0.563848	-0.816035	0.127132	0.819922	0.534655	-0.204627
12795	9.506370	1.789095	-1.659327	0.500406	-0.785247	0.097835	0.106011	0.223007	0.969035	0.567819	-0.813589	0.125115	0.816299	0.536973	-0.212877
12796	9.845756	2.311873	-0.715387	0.605270	-0.758111	0.108541	0.112991	0.226182	0.967510	0.572616	-0.810601	0.122627	0.812000	0.540156	-0.221106
12797	9.379913	2.047213	-1.282585	0.619159	-0.726357	0.111526	0.119537	0.229196	0.966013	0.577478	-0.807519	0.120133	0.807608	0.543490	-0.228884
12798	9.011004	1.305968	-2.271090	0.686985	-0.717016	0.063181	0.125858	0.232572	0.964401	0.582919	-0.803945	0.117804	0.802724	0.547341	-0.236754
12799	9.083167	1.433547	-2.217208	0.811801	-0.807231	0.080831	0.132811	0.236341	0.962551	0.589284	-0.799693	0.115045	0.796935	0.551937	-0.245481
12800	8.550410	0.547906	-3.751691	0.833237	-0.895052	0.107801	0.140735	0.240418	0.960413	0.595739	-0.795359	0.111803	0.790752	0.556420	-0.255161
12801	8.428155	0.221356	-4.332616	1.007142	-0.981860	0.065830	0.148881	0.245368	0.957930	0.603547	-0.789907	0.108527	0.783304	0.561998	-0.265693
12802	8.362367	0.032435	-4.579148	1.118250	-1.080864	0.061128	0.157857	0.250974	0.955036	0.612155	-0.783765	0.104783	0.774821	0.568089	-0.277358
12803	8.848688	0.097887	-4.488523	1.178976	-1.123235	0.068098	0.166953	0.256841	0.951924	0.621102	-0.777224	0.100773	0.765740	0.574418	-0.289285
12804	9.134680	0.431179	-4.304040	1.150458	-1.114789	0.092949	0.176210	0.262542	0.948695	0.629691	-0.770845	0.096366	0.756597	0.580404	-0.301152
12805	9.204373	0.868854	-4.112912	1.066948	-1.076579	0.125661	0.185129	0.267837	0.945511	0.637467	-0.764979	0.091882	0.747905	0.585722	-0.312357
12806	9.114997	1.155606	-3.962249	0.949154	-1.038240	0.162612	0.194087	0.272689	0.942322	0.644212	-0.759860	0.087202	0.739812	0.590130	-0.323148
12807	9.038634	1.306398	-3.457747	0.813790	-0.992762	0.197617	0.202699	0.277049	0.939232	0.649788	-0.755609	0.082652	0.732591	0.593548	-0.333184
12808	9.175422	1.568074	-2.871393	0.654369	-0.921290	0.239605	0.211171	0.280715	0.936272	0.654059	-0.752404	0.078067	0.726370	0.595892	-0.342490
12809	9.547013	1.877994	-2.288354	0.486835	-0.820116	0.259151	0.218832	0.283642	0.933627	0.657003	-0.750254	0.073938	0.721429	0.597215	-0.350533
12810	10.016819	2.095489	-1.878293	0.326914	-0.698063	0.257316	0.225731	0.285878	0.931300	0.658775	-0.749052	0.070258	0.717677	0.597658	-0.357413
12811	10.049233	2.201089	-1.771707	0.208517	-0.597596	0.236704	0.231597	0.287659	0.929309	0.659704	-0.748507	0.067286	0.714950	0.597486	-0.363122
12812	9.808693	2.146504	-1.741814	0.152241	-0.537874	0.193858	0.236888	0.289413	0.927429	0.660326	-0.748177	0.064812	0.712638	0.597052	-0.368341
12813	9.413592	1.796422	-2.465052	0.192370	-0.454753	0.154963	0.241173	0.290953	0.925841	0.661301	-0.747501	0.062645	0.710294	0.597151	-0.372684
12814	8.987270	1.690166	-2.106626	0.245062	-0.568899	0.150100	0.246362	0.293220	0.923757	0.662660	-0.746495	0.060226	0.707240	0.597299	-0.378213
12815	8.253386	0.507967	-3.951012	0.380724	-0.656127	0.153162	0.252031	0.295983	0.921344	0.664939	-0.744694	0.057342	0.703091	0.598185	-0.384496
12816	7.973317	-0.039328	-4.851232	0.668192	-0.755348	0.144252	0.258438	0.299432	0.918450	0.669234	-0.741137	0.053312	0.696660	0.600880	-0.391928
12817	8.281326	-0.075742	-4.889776	0.835925	-0.921528	0.185631	0.266094	0.303597	0.914890	0.674513	-0.736683	0.048279	0.688641	0.604258	-0.400807
12818	8.614107	-0.372182	-5.239019	0.923941	-1.007421	0.264544	0.274939	0.307756	0.910876	0.680106	-0.731909	0.042005	0.679606	0.607943	-0.410537
12819	9.011738	-0.044441	-4.964046	1.004858	-1.030119	0.338741	0.284230	0.311552	0.906724	0.685915	-0.726852	0.034735	0.669876	0.612063	-0.420291
12820	9.491135	0.466652	-4.286479	0.980757	-1.002291	0.422053	0.293964	0.314647	0.902542	0.691204	-0.722169	0.026635	0.660168	0.616011	-0.429777
12821	9.791810	1.029680	-3.499685	0.881863	-0.926436	0.486369	0.303438	0.316851	0.898627	0.695510	-0.718281	0.018410	0.651300	0.619418	-0.438326
12822	10.078383	1.591180	-2.790879	0.768233	-0.843765	0.512861	0.312633	0.318410	0.894916	0.698886	-0.715159	0.010302	0.643288	0.622224	-0.446115
12823	10.583074	1.816879	-1.936766	0.651835	-0.747506	0.484406	0.320835	0.319596	0.891585	0.701498	-0.712665	0.003029	0.636369	0.624473	-0.452843
12824	10.716287	2.052481	-1.388806	0.548507	-0.610223	0.409587	0.327724	0.320490	0.888754	0.703622	-0.710567	-0.003222	0.630486	0.626403	-0.458374
12825	10.388071	2.348900	-1.287905	0.530160	-0.448359	0.308190	0.332738	0.321102	0.886667	0.705909	-0.708253	-0.008415	0.625283	0.628706	-0.462331
12826	10.558731	2.477421	-0.358401	0.361535	-0.419253	0.257432	0.337302	0.321904	0.884650	0.707272	-0.706832	-0.012471	0.621284	0.629894	-0.466089
12827	9.593607	1.695232	-1.377805	0.400080	-0.350550	0.179575	0.340771	0.322832	0.882980	0.709116	-0.704911	-0.015945	0.617276	0.631569	-0.469139
12828	9.523637	1.154231	-1.737758	0.462139	-0.389160	0.146055	0.344319	0.324241	0.881086	0.711424	-0.702492	-0.019499	0.612634	0.633540	-0.472554
12829	9.237157	0.303552	-2.413294	0.561526	-0.445964	0.103370	0.347803	0.326332	0.878943	0.714466	-0.699289	-0.023088	0.607101	0.636005	-0.476368
12830	8.601775	-0.483317	-3.153385	0.762724	-0.528478	0.069556	0.351599	0.329184	0.876365	0.718786	-0.694689	-0.027436	0.599770	0.639566	-0.480865
12831	8.580988	-0.749109	-3.789759	0.949749	-0.619563	0.082519	0.355910	0.332574	0.873340	0.724123	-0.688892	-0.032765	0.590739	0.644067	-0.486009
12832	8.869250	-0.301922	-4.203010	1.147010	-0.656122	0.109166	0.360653	0.336030	0.870065	0.730403	-0.681878	-0.039412	0.580035	0.649712	-0.491359
12833	8.960612	1.544381	-4.113276	1.335099	-0.630967	0.146203	0.365376	0.339146	0.866880	0.737511	-0.673677	-0.047289	0.567959	0.656612	-0.496269
12834	9.657404	4.168175	-3.803573	1.387501	-0.602398	0.143599	0.369927	0.342122	0.863775	0.744734	-0.665047	-0.055534	0.555451	0.663826	-0.500809
12835	11.370539	5.592969	-3.196538	1.164634	-0.440900	0.145168	0.373466	0.344089	0.861467	0.750579	-0.657804	-0.062652	0.545119	0.669998	-0.503933
12836	12.832584	5.377725	-2.298388	0.673414	-0.075171	0.147436	0.375062	0.343602	0.860968	0.753645	-0.653819	-0.067378	0.539766	0.674135	-0.504177
12837	13.282980	4.033692	-1.609022	0.130185	0.357026	0.100190	0.373917	0.340523	0.862688	0.753949	-0.653309	-0.068910	0.540136	0.676189	-0.501021
12838	12.435532	2.442596	-1.181351	-0.258764	0.668732	0.019256	0.370488	0.335847	0.865994	0.752441	-0.655158	-0.067827	0.544584	0.676738	-0.495433
12839	11.983229	0.117608	-2.048349	-0.340574	0.858438	-0.089222	0.365146	0.330607	0.870269	0.750881	-0.657193	-0.065392	0.550315	0.677346	-0.488217
12840	12.403700	-1.625674	-2.265275	-0.205824	1.052886	-0.235572	0.357595	0.324970	0.875512	0.750553	-0.657860	-0.062374	0.555694	0.679423	-0.479154
12841	12.469216	-2.591014	-2.229405	0.084255	1.284525	-0.422941	0.347281	0.318977	0.881844	0.752490	-0.655949	-0.059073	0.559603	0.684094	-0.467826
12842	11.786585	-1.429744	-1.897639	0.417432	1.462615	-0.605094	0.334556	0.312801	0.888948	0.756837	-0.651227	-0.055684	0.561489	0.691418	-0.454612
12843	11.132706	0.134605	-2.220306	0.695717	1.579247	-0.801706	0.319624	0.306986	0.896437	0.763343	-0.643925	-0.051656	0.561381	0.700799	-0.440150
12844	11.296546	2.180445	-1.965541	0.798929	1.673656	-0.982937	0.302731	0.301371	0.904173	0.770820	-0.635368	-0.046307	0.560527	0.710973	-0.424648
12845	11.568355	3.380942	-2.255063	0.692845	1.792097	-1.128122	0.283979	0.295651	0.912111	0.777991	-0.627066	-0.038965	0.560434	0.720679	-0.408087
12846	12.066350	3.766271	-2.420088	0.431238	1.917827	-1.234329	0.263591	0.289361	0.920212	0.783730	-0.620405	-0.029410	0.562394	0.728950	-0.390314
12847	12.326076	3.566556	-2.825283	0.066513	2.025329	-1.276353	0.242157	0.282415	0.928225	0.787312	-0.616295	-0.017886	0.567009	0.735134	-0.371588
12848	12.237452	2.758056	-3.278196	-0.315860	2.070738	-1.263336	0.220384	0.274850	0.935889	0.788374	-0.615176	-0.004983	0.574367	0.738929	-0.352260
12849	12.004610	1.317494	-3.765936	-0.690942	2.054849	-1.189147	0.199144	0.266967	0.942905	0.786846	-0.617090	0.008534	0.584136	0.740222	-0.332952
12850	12.084709	-0.247136	-4.231268	-0.951536	2.042062	-1.084383	0.178574	0.258496	0.949364	0.783225	-0.621354	0.021861	0.595541	0.739662	-0.313418
12851	12.283424	-1.470000	-4.807924	-1.051923	2.032226	-1.004779	0.158535	0.249736	0.955248	0.778573	-0.626599	0.034601	0.607199	0.738245	-0.293775
12852	12.854886	-2.474415	-4.946636	-1.013365	2.109436	-0.968972	0.138080	0.240197	0.960854	0.773743	-0.631773	0.046741	0.618268	0.737000	-0.273086
12853	13.458641	-2.055317	-4.567610	-0.884854	2.279632	-0.955523	0.116530	0.229443	0.966321	0.769427	-0.636074	0.058243	0.628016	0.736726	-0.250661
12854	12.916512	-1.503348	-5.065735	-0.764183	2.322051	-0.954320	0.094528	0.218340	0.971284	0.765540	-0.639647	0.069285	0.636406	0.737008	-0.227612
12855	12.077355	-0.796002	-4.906497	-0.635670	2.230979	-0.954754	0.072989	0.207996	0.975403	0.762255	-0.642323	0.079930	0.643148	0.737672	-0.205428
12856	11.659176	-0.120889	-4.377266	-0.615678	2.158094	-0.976501	0.051629	0.198282	0.978784	0.758825	-0.644958	0.090629	0.649245	0.738047	-0.183760
12857	11.139499	0.236670	-4.122496	-0.705650	2.123753	-0.986786	0.030335	0.188979	0.981512	0.754609	-0.648277	0.101496	0.655473	0.737579	-0.162271
12858	10.641776	0.150783	-4.226738	-0.824076	2.084382	-0.995630	0.009135	0.180031	0.983619	0.749322	-0.652583	0.112483	0.662143	0.736020	-0.140862
12859	10.313327	0.351537	-4.125204	-0.944984	2.040492	-0.970040	-0.011658	0.171381	0.985136	0.743003	-0.657844	0.123235	0.669186	0.733396	-0.119667
12860	9.682894	0.184227	-3.922126	-1.125080	2.051466	-0.928531	-0.032304	0.162460	0.986186	0.735178	-0.664586	0.133562	0.677104	0.729337	-0.097969
12861	9.121395	-0.149072	-3.875206	-1.282320	2.054770	-0.907025	-0.052903	0.153578	0.986719	0.726039	-0.672493	0.143597	0.685615	0.723994	-0.075926
12862	8.746246	-0.565461	-4.058311	-1.413483	2.035480	-0.897572	-0.073384	0.144937	0.986716	0.715678	-0.681395	0.153315	0.694564	0.717422	-0.053725
12863	8.550525	-0.992053	-4.304116	-1.494947	1.996694	-0.873834	-0.093520	0.136666	0.986193	0.704484	-0.690856	0.162544	0.703531	0.709958	-0.031671
12864	8.271836	-1.246290	-4.468957	-1.532647	1.949589	-0.846456	-0.113183	0.128754	0.985196	0.692729	-0.700597	0.171143	0.712261	0.701844	-0.009896
12865	7.922810	-1.399596	-4.511811	-1.525801	1.886201	-0.788703	-0.132085	0.121143	0.983808	0.680818	-0.710278	0.178867	0.720445	0.693419	0.011341
12866	7.383205	-1.412509	-4.440346	-1.495674	1.802751	-0.730880	-0.150003	0.113914	0.982101	0.668934	-0.719763	0.185656	0.728029	0.684810	0.031766
12867	6.936014	-1.646241	-4.436970	-1.460657	1.691447	-0.647161	-0.166642	0.107075	0.980186	0.657211	-0.729007	0.191369	0.735054	0.676079	0.051112
12868	6.622406	-2.104323	-4.459765	-1.407176	1.539792	-0.507308	-0.181225	0.100428	0.978300	0.645929	-0.737963	0.195411	0.741574	0.667326	0.068868
12869	6.213630	-2.555858	-4.709569	-1.286192	1.349132	-0.316914	-0.193273	0.093815	0.976649	0.635749	-0.746204	0.197490	0.747308	0.659073	0.084579
12870	5.950822	-2.679462	-4.554510	-1.073324	1.129689	-0.142558	-0.202528	0.087457	0.975363	0.627421	-0.753136	0.197810	0.751881	0.652026	0.097659
12871	5.979699	-2.582809	-3.945621	-0.886545	0.968272	0.036001	-0.209574	0.080882	0.974442	0.620802	-0.758939	0.196511	0.755436	0.646119	0.108843
12872	5.577985	-2.364328	-3.505028	-0.731291	0.791833	0.168570	-0.214388	0.074482	0.973905	0.615631	-0.763798	0.193934	0.758311	0.641143	0.117896
12873	5.075891	-2.407656	-3.103918	-0.624348	0.594144	0.263481	-0.217259	0.068650	0.973697	0.611446	-0.767993	0.190577	0.760876	0.636768	0.124878
12874	4.786895	-2.608204	-2.953697	-0.514228	0.367154	0.350130	-0.217765	0.063604	0.973927	0.608299	-0.771510	0.186397	0.763250	0.633029	0.129317
12875	4.690179	-2.445702	-2.718049	-0.298203	0.190150	0.419674	-0.216641	0.059141	0.974458	0.606921	-0.773669	0.181886	0.764666	0.630823	0.131714
12876	4.806899	-1.927302	-2.608225	-0.064324	0.055058	0.434483	-0.214249	0.055411	0.975206	0.607376	-0.774345	0.177436	0.764978	0.630332	0.132248
12877	5.526921	-1.154352	-2.173998	0.116051	-0.098412	0.403173	-0.211018	0.052892	0.976050	0.609109	-0.773849	0.173622	0.764498	0.631158	0.131079
12878	5.990721	-0.152161	-1.706884	0.242952	-0.248204	0.323288	-0.206958	0.051941	0.976970	0.611654	-0.772503	0.170641	0.763576	0.632883	0.128106
12879	5.958532	1.068330	-0.948500	0.417416	-0.481965	0.213752	-0.201944	0.053331	0.977944	0.615263	-0.769985	0.169041	0.762017	0.635830	0.122681
12880	6.563690	3.068192	0.874242	0.531260	-0.778248	0.165328	-0.194802	0.057008	0.979184	0.619652	-0.766705	0.167913	0.760318	0.639464	0.114030
12881	8.659394	6.305473	5.141506	0.342606	-1.047446	0.199085	-0.185575	0.062174	0.980661	0.622624	-0.764646	0.166301	0.760198	0.641444	0.103188
12882	11.059808	8.949560	8.218938	-0.518727	-1.028701	0.256639	-0.175954	0.066771	0.982131	0.619150	-0.768138	0.163147	0.765306	0.636793	0.093815
12883	13.312742	9.247688	8.290793	-1.423346	-0.855000	0.353349	-0.167170	0.069417	0.983481	0.608777	-0.777378	0.158348	0.775528	0.625192	0.087694
12884	15.287975	8.507069	9.555241	-1.852976	-0.487934	0.351089	-0.161104	0.069673	0.984475	0.594885	-0.789077	0.153194	0.787500	0.610330	0.085676
12885	18.538877	8.297263	2.256999	-1.347182	-0.386875	0.066394	-0.157622	0.071467	0.984910	0.584311	-0.797289	0.151364	0.796075	0.599352	0.083911
12886	10.931842	5.239581	11.331645	-2.421342	0.685212	0.377623	-0.160840	0.064385	0.984878	0.565496	-0.811829	0.145423	0.808916	0.580334	0.094166
12887	13.123915	2.270548	7.749969	-1.491174	0.511237	0.243508	-0.163606	0.059440	0.984733	0.553758	-0.820561	0.141533	0.816447	0.568460	0.101334
12888	11.189093	0.975348	5.148863	-1.358807	0.725817	0.134465	-0.168742	0.054224	0.984168	0.542838	-0.828304	0.138709	0.822711	0.557649	0.110334
12889	7.437744	-0.846957	0.938987	-1.183842	0.764591	0.055864	-0.174725	0.049511	0.983372	0.533150	-0.834893	0.136765	0.827781	0.548181	0.119481
12890	4.194402	-4.212728	-2.164915	-0.782799	0.342715	0.108837	-0.176920	0.046701	0.983117	0.526828	-0.839235	0.134673	0.831355	0.541760	0.123875
12891	4.130996	-5.954572	-2.591771	-0.077638	-0.318044	0.204015	-0.173175	0.046688	0.983784	0.526526	-0.839765	0.132537	0.832335	0.540940	0.120844
12892	8.312683	-4.501101	-0.137994	0.490173	-0.637476	0.180314	-0.166827	0.048591	0.984788	0.530877	-0.837225	0.131243	0.830866	0.544696	0.113876
12893	13.176213	-1.099721	2.357922	0.633804	-0.443980	0.087838	-0.162650	0.050265	0.985403	0.536265	-0.833814	0.131048	0.828230	0.549752	0.108664
12894	17.035702	1.290752	1.774995	0.223369	-0.210380	0.087219	-0.160337	0.050636	0.985763	0.538208	-0.832677	0.130313	0.827420	0.551439	0.106256
12895	17.721377	2.542665	0.473771	0.185476	-0.089018	0.080393	-0.159142	0.050437	0.985967	0.539856	-0.831708	0.129682	0.826577	0.552917	0.105131
12896	15.646617	1.839019	-0.811621	-0.192151	-0.345637	0.038875	-0.155967	0.051961	0.986395	0.538281	-0.832837	0.128984	0.828208	0.551075	0.101925
12897	12.668234	0.750395	-1.912934	-0.411288	-0.570021	-0.111821	-0.151811	0.056003	0.986822	0.534682	-0.835050	0.129644	0.831306	0.547317	0.096826
12898	9.074414	0.195975	-3.934652	-0.209155	-0.792310	-0.288417	-0.146638	0.062685	0.987202	0.532471	-0.836064	0.132181	0.833650	0.545039	0.089220
12899	5.724846	-1.430537	-6.457653	0.033989	-0.949096	-0.451781	-0.141099	0.071611	0.987402	0.532090	-0.835590	0.136636	0.834848	0.544666	0.079797
12900	4.769143	-1.956234	-6.068353	0.541404	-1.061374	-0.502371	-0.134788	0.081556	0.987512	0.535889	-0.832282	0.141880	0.833460	0.548321	0.068477
12901	5.159140	-0.904650	-5.049486	0.793318	-1.166762	-0.399780	-0.127208	0.091282	0.987667	0.541951	-0.827580	0.146288	0.830727	0.553876	0.055804
12902	6.266691	0.939544	-5.419080	0.892895	-1.355391	-0.221122	-0.117011	0.100618	0.988020	0.549073	-0.822425	0.148781	0.827543	0.559904	0.040986
12903	8.128010	2.202634	-5.168664	0.856450	-1.537864	-0.038322	-0.104492	0.109564	0.988472	0.556089	-0.817583	0.149407	0.824528	0.565291	0.024504
12904	9.885836	2.751293	-4.335195	0.597257	-1.583804	0.129033	-0.090545	0.117470	0.988940	0.561144	-0.814359	0.148110	0.822751	0.568348	0.007819
12905	11.029983	2.551140	-3.190592	0.161355	-1.530048	0.297260	-0.076256	0.123722	0.989383	0.562703	-0.813819	0.145137	0.823135	0.567796	-0.007560
12906	11.659656	1.829874	-1.997275	-0.344726	-1.354284	0.437623	-0.062442	0.127813	0.989831	0.560188	-0.816321	0.140747	0.826009	0.563280	-0.020626
12907	11.399881	0.858762	-1.491053	-0.725957	-1.121511	0.518920	-0.050233	0.129819	0.990264	0.554449	-0.821069	0.135764	0.830700	0.555871	-0.030733
12908	10.365921	0.386937	-1.519803	-0.819019	-0.941897	0.495087	-0.039463	0.130941	0.990604	0.547872	-0.826235	0.131040	0.835631	0.547896	-0.039134
12909	9.429384	0.175056	-1.465427	-0.673997	-0.869868	0.383486	-0.030059	0.132480	0.990730	0.542342	-0.830427	0.127499	0.839620	0.541147	-0.046888
12910	8.990786	-0.128956	-1.120293	-0.445292	-0.845647	0.268949	-0.021296	0.134800	0.990644	0.538689	-0.833187	0.124954	0.842235	0.536310	-0.054872
12911	9.160925	-0.440148	-0.789669	-0.201427	-0.836100	0.194371	-0.013176	0.137629	0.990396	0.537006	-0.834546	0.123116	0.843476	0.533471	-0.062912
12912	9.359176	-0.465362	-0.897997	0.059108	-0.829354	0.133270	-0.005264	0.140934	0.990005	0.537534	-0.834422	0.121644	0.843226	0.532802	-0.071365
12913	9.228877	-0.085374	-1.212726	0.351942	-0.838466	0.056291	0.002129	0.144918	0.989441	0.540480	-0.832641	0.120789	0.841354	0.534516	-0.080098
12914	8.904548	0.318228	-1.727868	0.635793	-0.897843	-0.037445	0.009670	0.150037	0.988633	0.545833	-0.829184	0.120500	0.837838	0.538463	-0.089913
12915	8.676036	0.578596	-2.551884	0.896537	-1.006673	-0.108784	0.017508	0.156364	0.987544	0.553317	-0.824181	0.120688	0.832787	0.544312	-0.100949
12916	8.777522	0.631288	-3.346988	1.089182	-1.130143	-0.118044	0.026681	0.163489	0.986184	0.561164	-0.818876	0.120571	0.827275	0.550194	-0.113592
12917	9.115993	-0.151336	-4.606692	1.370256	-1.132083	-0.061899	0.035678	0.170254	0.984754	0.572443	-0.811189	0.119506	0.819168	0.559452	-0.126402
12918	9.079794	1.858857	-2.906767	1.182212	-1.392186	0.038207	0.047945	0.177685	0.982919	0.579922	-0.806162	0.117445	0.813260	0.564385	-0.141695
12919	9.391442	1.454637	-4.202812	1.063958	-1.286400	0.056213	0.058720	0.184514	0.981074	0.588487	-0.800246	0.115282	0.806372	0.570580	-0.155574
12920	9.813267	1.629440	-3.577633	0.966859	-1.272764	0.133211	0.070180	0.190694	0.979138	0.595244	-0.795659	0.112296	0.800474	0.574945	-0.169349
12921	10.072337	2.127483	-3.015617	0.770706	-1.180165	0.210492	0.080883	0.195811	0.977300	0.601212	-0.791641	0.108855	0.794986	0.578760	-0.181755
12922	9.952639	2.560868	-2.624043	0.558209	-1.096164	0.275512	0.091433	0.200018	0.975517	0.605527	-0.788868	0.104994	0.790555	0.581102	-0.193245
12923	9.637811	2.580117	-2.423287	0.344055	-1.039339	0.318497	0.101596	0.203531	0.973783	0.607912	-0.787532	0.101178	0.787478	0.581695	-0.203739
12924	9.455743	2.148751	-2.313343	0.188122	-0.997624	0.348768	0.111615	0.206685	0.972020	0.609666	-0.786668	0.097266	0.784761	0.581752	-0.213812
12925	9.453351	1.430980	-2.071161	0.118529	-0.963504	0.354309	0.121359	0.209478	0.970253	0.610160	-0.786737	0.093538	0.782928	0.580658	-0.223292
12926	9.685141	0.936593	-1.738215	0.100503	-0.918608	0.337750	0.130649	0.212267	0.968439	0.611158	-0.786385	0.089914	0.780651	0.580122	-0.232469
12927	9.583067	0.506190	-1.625770	0.141263	-0.872350	0.323724	0.139460	0.214759	0.966659	0.611799	-0.786278	0.086420	0.778622	0.579349	-0.241044
12928	9.325477	0.459599	-1.659155	0.245882	-0.841498	0.305533	0.148078	0.217264	0.964816	0.613303	-0.785500	0.082756	0.775843	0.579470	-0.249564
12929	8.925088	0.576140	-2.405552	0.435692	-0.781653	0.262132	0.155770	0.219724	0.963046	0.616254	-0.783566	0.079097	0.771989	0.581160	-0.257462
12930	9.115580	0.847325	-1.788145	0.499001	-0.914873	0.267419	0.164696	0.222968	0.960813	0.619598	-0.781317	0.075107	0.767446	0.582948	-0.266830
12931	8.782603	0.475999	-3.162316	0.508321	-0.944188	0.243442	0.173463	0.226562	0.958426	0.623052	-0.778918	0.071364	0.762703	0.584770	-0.276274
12932	8.771415	0.171350	-3.907341	0.655063	-1.020713	0.207921	0.182719	0.230957	0.955653	0.627684	-0.775544	0.067417	0.756721	0.587529	-0.286675
12933	8.830048	-0.086323	-4.073187	0.739956	-1.086939	0.206117	0.192239	0.235747	0.952611	0.632848	-0.771687	0.063263	0.750032	0.590696	-0.297540
12934	9.162200	-0.000045	-3.814786	0.807711	-1.121163	0.210326	0.202335	0.240660	0.949286	0.637888	-0.767888	0.058710	0.743075	0.593658	-0.308885
12935	9.481108	0.190676	-3.450452	0.801675	-1.098961	0.213563	0.211860	0.245549	0.945950	0.643348	-0.763657	0.054142	0.735675	0.597105	-0.319762
12936	9.795535	0.422750	-2.947282	0.748645	-1.024529	0.238261	0.221399	0.249660	0.942684	0.647436	-0.760519	0.049359	0.729252	0.599400	-0.330017
12937	10.030066	0.789751	-2.389419	0.666484	-0.908915	0.252047	0.229667	0.253190	0.939760	0.651682	-0.757172	0.044733	0.722885	0.602151	-0.338897
12938	10.103811	1.210819	-1.889686	0.581226	-0.782509	0.235548	0.237040	0.256159	0.937120	0.655334	-0.754257	0.040411	0.717181	0.604548	-0.346659
12939	10.022032	1.462986	-1.636795	0.521693	-0.660024	0.206359	0.243145	0.258585	0.934887	0.658542	-0.751652	0.036630	0.712182	0.606756	-0.353050
12940	9.838321	2.104306	-0.950153	0.547404	-0.574160	0.190795	0.248669	0.260670	0.932853	0.661969	-0.748814	0.032784	0.707079	0.609368	-0.358762
12941	9.214374	1.465163	-1.853459	0.493038	-0.506281	0.168687	0.253389	0.262482	0.931073	0.664996	-0.746268	0.029407	0.702549	0.611708	-0.363646
12942	9.031995	1.466661	-2.176448	0.610008	-0.535652	0.138103	0.258237	0.264761	0.929094	0.668919	-0.742889	0.025777	0.697038	0.614832	-0.368945
12943	8.493310	1.305448	-3.016984	0.747746	-0.631294	0.126121	0.263495	0.267703	0.926771	0.673752	-0.738636	0.021801	0.690383	0.618669	-0.374993
12944	8.214440	0.745393	-4.222600	0.879486	-0.800379	0.123718	0.269996	0.271786	0.923707	0.679464	-0.733507	0.017218	0.682225	0.622977	-0.382713
12945	7.655577	-0.138435	-6.844794	0.989501	-0.922864	0.147796	0.277292	0.276460	0.920152	0.685739	-0.727748	0.012002	0.672957	0.627656	-0.391378
12946	9.601835	-0.333020	-4.028122	1.056392	-1.096473	0.236083	0.286411	0.281692	0.915761	0.692139	-0.721743	0.005540	0.662504	0.632247	-0.401685
12947	8.538751	-0.146435	-5.037435	1.080038	-1.115678	0.300552	0.295866	0.286595	0.911223	0.698336	-0.715768	-0.001622	0.651759	0.636820	-0.411911
12948	9.416170	0.393286	-4.307292	1.020569	-1.095534	0.391535	0.305864	0.290840	0.906565	0.703765	-0.710369	-0.009544	0.641220	0.640928	-0.421959
12949	9.601393	0.954528	-3.738649	0.873874	-1.031439	0.481995	0.315865	0.294038	0.902093	0.707804	-0.706189	-0.017652	0.631857	0.644080	-0.431181
12950	10.172135	1.334424	-2.909084	0.724570	-0.949965	0.527633	0.325734	0.296488	0.897770	0.710665	-0.703062	-0.025661	0.623580	0.646373	-0.439715
12951	10.682044	1.194292	-2.157817	0.563724	-0.830572	0.540998	0.334769	0.298050	0.893922	0.712349	-0.701048	-0.033028	0.616838	0.647841	-0.447004
12952	10.621107	1.001872	-1.578258	0.478836	-0.661948	0.510001	0.342622	0.298806	0.890688	0.713562	-0.699459	-0.039833	0.611097	0.649209	-0.452867
12953	10.683321	1.210988	-1.009449	0.479019	-0.546676	0.427438	0.349035	0.299359	0.888008	0.714972	-0.697649	-0.045836	0.605796	0.650900	-0.457537
12954	11.114487	1.885145	-0.384023	0.465433	-0.432376	0.324027	0.354103	0.299943	0.885802	0.716632	-0.695588	-0.050942	0.600874	0.652833	-0.461259
12955	11.192554	2.648714	0.406554	0.456009	-0.295635	0.204027	0.357371	0.300445	0.884318	0.718611	-0.693244	-0.054877	0.596561	0.655092	-0.463648
12956	10.624214	3.225276	1.025920	0.453352	-0.179536	0.090297	0.359210	0.301007	0.883382	0.720965	-0.690551	-0.057865	0.592602	0.657673	-0.465068
12957	9.302569	2.594734	0.013511	0.538633	-0.160822	0.022600	0.360356	0.301898	0.882610	0.724038	-0.687094	-0.060593	0.588143	0.660878	-0.466184
12958	8.927409	2.179000	-1.295628	0.579245	-0.356927	0.069443	0.363051	0.303783	0.880858	0.727154	-0.683486	-0.063986	0.582616	0.663749	-0.469037
12959	8.056520	1.468294	-3.824349	0.828963	-0.431002	0.010593	0.365657	0.306567	0.878813	0.731888	-0.678024	-0.068001	0.575009	0.668057	-0.472297
12960	9.468925	1.391804	-4.417502	1.061678	-0.533645	-0.023711	0.368614	0.310307	0.876261	0.738005	-0.670846	-0.072890	0.565218	0.673554	-0.476291
12961	11.320458	1.347688	-4.517737	1.082326	-0.482923	-0.017405	0.371225	0.313676	0.873956	0.744109	-0.663497	-0.077932	0.555422	0.679248	-0.479716
12962	12.145910	1.532830	-4.054562	0.922118	-0.181519	0.096593	0.373026	0.314281	0.872971	0.748816	-0.657528	-0.083256	0.547837	0.684752	-0.480614
12963	11.982200	2.226316	-3.837119	0.734897	0.162204	0.088690	0.372842	0.312572	0.873663	0.752468	-0.652780	-0.087575	0.542937	0.690055	-0.478584
12964	12.931757	3.601661	-2.620960	0.486965	0.451732	0.023553	0.370636	0.309296	0.875765	0.755001	-0.649498	-0.090142	0.540927	0.694613	-0.474247
12965	13.766861	3.275499	-1.433180	0.227178	0.860400	-0.134137	0.364997	0.304159	0.879923	0.756699	-0.647531	-0.090054	0.542387	0.698706	-0.466504
12966	13.438353	2.004633	-0.728151	-0.032756	1.242241	-0.309037	0.355932	0.297458	0.885907	0.757616	-0.646850	-0.087198	0.547111	0.702214	-0.455594
12967	12.264422	0.957886	-0.904785	-0.139400	1.454128	-0.496747	0.344201	0.290422	0.892850	0.758563	-0.646397	-0.082175	0.553270	0.705567	-0.442794
12968	11.346708	0.803220	-1.351859	-0.069613	1.571335	-0.694086	0.330216	0.283767	0.900241	0.760489	-0.644927	-0.075665	0.559118	0.709609	-0.428767
12969	11.102320	1.321450	-1.390300	0.070590	1.661730	-0.903224	0.314036	0.277733	0.907880	0.763771	-0.641914	-0.067819	0.563945	0.714710	-0.413709
12970	11.102337	1.657340	-2.022754	0.254342	1.865467	-1.153951	0.294654	0.271687	0.916169	0.768691	-0.636955	-0.058336	0.567709	0.721440	-0.396524
12971	11.483333	3.316761	-1.126874	0.234412	1.879436	-1.250095	0.274346	0.265986	0.924114	0.773560	-0.631921	-0.047765	0.571262	0.727961	-0.379121
12972	11.400363	3.190107	-2.341783	-0.055350	1.906157	-1.319398	0.253176	0.260352	0.931729	0.776690	-0.628892	-0.035317	0.576762	0.732606	-0.361433
12973	11.855117	2.687321	-3.285169	-0.278459	1.918639	-1.366860	0.231451	0.254840	0.938875	0.778365	-0.627441	-0.021575	0.583591	0.735781	-0.343581
12974	11.759081	1.384489	-4.150168	-0.510334	1.896169	-1.341341	0.209851	0.249267	0.945425	0.778296	-0.627856	-0.007216	0.591792	0.737335	-0.325760
12975	12.354734	0.297765	-4.278690	-0.957211	1.777026	-1.195672	0.189986	0.243700	0.951060	0.774948	-0.631984	0.007134	0.602794	0.735667	-0.308923
12976	12.500269	-1.131364	-5.462420	-1.040710	1.809103	-1.128063	0.170240	0.237547	0.956342	0.770620	-0.636948	0.021033	0.614136	0.733395	-0.291493
12977	13.114172	-2.065163	-5.681131	-1.027253	1.913360	-1.069727	0.150201	0.230364	0.961443	0.765949	-0.641993	0.034163	0.625109	0.731285	-0.272875
12978	13.763454	-1.996331	-5.036615	-0.948050	2.140108	-1.053889	0.128654	0.221497	0.966637	0.761416	-0.646571	0.046816	0.635369	0.729990	-0.251835
12979	12.805546	-1.726003	-5.371802	-0.828679	2.255958	-1.088505	0.105988	0.212080	0.971488	0.757372	-0.650283	0.059331	0.644325	0.729489	-0.229545
12980	12.025863	-1.591654	-5.396065	-0.743089	2.129305	-1.070290	0.084102	0.203507	0.975455	0.753545	-0.653511	0.071371	0.651995	0.729047	-0.208313
12981	11.795931	-0.870413	-4.938521	-0.595252	2.045174	-1.072172	0.062678	0.195601	0.978679	0.750415	-0.655735	0.082997	0.657988	0.729213	-0.187882
12982	11.633909	-0.432634	-4.745131	-0.605336	2.000595	-1.065608	0.041495	0.187996	0.981293	0.746947	-0.658133	0.094500	0.663587	0.729053	-0.167732
12983	11.357624	-0.236199	-4.754097	-0.680829	1.958625	-1.037436	0.020749	0.180557	0.983346	0.742716	-0.661205	0.105735	0.669285	0.728153	-0.147822
12984	10.937871	-0.384686	-4.720841	-0.797391	1.918863	-0.979174	0.000626	0.173086	0.984907	0.737444	-0.665294	0.116449	0.675408	0.726240	-0.128058
12985	10.329431	-0.684811	-4.468793	-0.949149	1.932584	-0.946675	-0.019408	0.165391	0.986037	0.730896	-0.670593	0.126866	0.682212	0.723153	-0.107869
12986	9.328903	-1.113993	-4.193702	-1.058598	1.959102	-0.961199	-0.039794	0.157732	0.986680	0.723344	-0.676689	0.137350	0.689340	0.719175	-0.087167
12987	8.644511	-1.282117	-3.837112	-1.163727	1.957890	-0.986568	-0.060422	0.150396	0.986778	0.714771	-0.683532	0.147944	0.696744	0.714259	-0.066198
12988	8.300819	-1.210435	-3.980729	-1.321877	1.954454	-1.001737	-0.081175	0.143381	0.986333	0.704798	-0.691470	0.158522	0.704749	0.708033	-0.044925
12989	7.967182	-1.634672	-4.251302	-1.459975	1.939387	-1.005280	-0.101919	0.136704	0.985355	0.693513	-0.700366	0.168898	0.713199	0.700571	-0.023425
12990	7.523359	-1.696391	-4.177829	-1.545020	1.924177	-1.001246	-0.122535	0.130363	0.983865	0.681314	-0.709793	0.178902	0.721663	0.692242	-0.001844
12991	7.328936	-1.873439	-4.300639	-1.605233	1.888608	-0.948366	-0.142610	0.124138	0.981963	0.668392	-0.719646	0.188047	0.730010	0.683154	0.019655
12992	7.034444	-1.849714	-4.296410	-1.589605	1.813507	-0.860395	-0.161522	0.118070	0.979781	0.655437	-0.729388	0.195948	0.737776	0.673834	0.040425
12993	6.649905	-1.932953	-4.163179	-1.560063	1.694182	-0.741521	-0.178863	0.112163	0.977460	0.642597	-0.738992	0.202386	0.745035	0.664312	0.060103
12994	5.944049	-2.153157	-4.373725	-1.504007	1.522330	-0.592744	-0.193915	0.106534	0.975217	0.630266	-0.748257	0.207065	0.751772	0.654799	0.077954
12995	5.891197	-2.282532	-4.026438	-1.388773	1.303219	-0.439163	-0.206462	0.101348	0.973192	0.618894	-0.756849	0.210116	0.757854	0.645684	0.093537
12996	5.537814	-2.248330	-3.874374	-1.293361	1.110019	-0.276128	-0.216465	0.096334	0.971526	0.608513	-0.764861	0.211424	0.763450	0.636952	0.106945
12997	5.212685	-2.312837	-3.746495	-1.148789	0.848956	-0.137929	-0.223768	0.092004	0.970290	0.599400	-0.772020	0.211437	0.768536	0.628905	0.117606
12998	4.933687	-2.463723	-3.753159	-0.977954	0.578340	0.011808	-0.227999	0.088300	0.969649	0.591936	-0.778134	0.210045	0.773064	0.621861	0.125146
12999	4.516295	-3.139023	-4.165470	-0.742219	0.260299	0.164533	-0.229014	0.085386	0.969671	0.586551	-0.782889	0.207469	0.776859	0.616275	0.129209
13000	4.918418	-3.718693	-4.023353	-0.344135	-0.060277	0.352496	-0.226302	0.082996	0.970515	0.584729	-0.785289	0.203502	0.779024	0.613541	0.129182
13001	5.867057	-3.007941	-2.685386	0.013052	-0.222022	0.512579	-0.221539	0.080314	0.971839	0.585969	-0.785644	0.198503	0.779462	0.613444	0.126989
13002	6.453793	-2.118831	-1.941602	0.144116	-0.268058	0.553727	-0.215996	0.077611	0.973305	0.588356	-0.785187	0.193179	0.779219	0.614376	0.123934
13003	6.297626	-0.911709	-1.684234	0.274167	-0.374782	0.476815	-0.210231	0.076158	0.974681	0.591498	-0.783883	0.188832	0.778417	0.616220	0.119749
13004	6.314982	1.438943	-0.622762	0.437480	-0.620703	0.271671	-0.203574	0.077865	0.975958	0.595513	-0.781383	0.186559	0.777124	0.619175	0.112699
13005	7.813632	4.900335	1.649594	0.651426	-0.955763	0.010859	-0.196057	0.083701	0.977014	0.600581	-0.777361	0.187115	0.775154	0.623461	0.102138
13006	11.201795	8.255450	6.669491	0.503542	-1.194976	-0.116496	-0.187288	0.092079	0.977980	0.604316	-0.774098	0.188612	0.774420	0.626333	0.089335
13007	13.597973	8.208544	8.356859	-0.476052	-1.127702	-0.000211	-0.178495	0.099099	0.978938	0.600606	-0.777086	0.188177	0.779366	0.621544	0.079186
13008	14.120945	7.290680	7.863858	-1.216382	-0.795814	0.178977	-0.171016	0.102614	0.979910	0.591435	-0.784750	0.185396	0.788009	0.611259	0.073515
13009	13.770346	6.379953	8.428775	-1.266611	-0.362248	0.169917	-0.167117	0.103452	0.980495	0.581678	-0.792619	0.182771	0.796067	0.600876	0.072284
13010	13.247113	4.524876	9.177897	-1.191992	-0.026515	0.212986	-0.165534	0.101915	0.980924	0.572536	-0.799938	0.179728	0.802995	0.591365	0.074067
13011	12.071062	2.605075	7.621702	-1.403792	0.235334	0.163521	-0.166473	0.099202	0.981043	0.561470	-0.808343	0.177014	0.810579	0.580294	0.078868
13012	11.615567	4.509572	7.324964	-1.310190	0.188564	0.326286	-0.166079	0.095452	0.981482	0.551356	-0.816205	0.172674	0.817572	0.569823	0.082927
13013	10.971837	1.830345	4.877470	-1.474099	0.560887	0.166983	-0.169741	0.090898	0.981288	0.539519	-0.824691	0.169717	0.824686	0.558232	0.090943
13014	6.863686	-0.656751	0.285580	-1.273684	0.630746	0.276304	-0.173391	0.085094	0.981170	0.529447	-0.831999	0.165720	0.830435	0.548212	0.099209
13015	1.142133	-3.508027	-5.017640	-1.014208	-0.052667	0.387176	-0.170885	0.082127	0.981862	0.521651	-0.837855	0.160871	0.835870	0.539680	0.100336
13016	2.689490	-5.780194	-4.482122	-0.237100	-0.873028	0.430627	-0.161225	0.083185	0.983406	0.520374	-0.839508	0.156326	0.838581	0.536942	0.092062
13017	9.148009	-5.132897	-0.487564	0.451718	-1.041095	0.425231	-0.150243	0.085204	0.984971	0.524810	-0.837449	0.152495	0.837855	0.539834	0.081105
13018	15.234475	-1.437253	2.688562	0.718829	-0.560809	0.338877	-0.143630	0.085369	0.985942	0.531299	-0.833871	0.149600	0.834920	0.545317	0.074413
13019	19.230131	2.183653	3.177409	0.611801	-0.010809	0.193741	-0.142473	0.083795	0.986245	0.536661	-0.830699	0.148105	0.831683	0.550380	0.073383
13020	19.760609	4.034569	1.641555	0.304799	0.132502	0.052921	-0.143156	0.082567	0.986250	0.539233	-0.829106	0.147682	0.829900	0.552961	0.074169
13021	16.511438	4.409728	1.187125	-0.163847	-0.089067	-0.091790	-0.142878	0.083800	0.986186	0.537728	-0.829950	0.148430	0.830924	0.551508	0.073520
13022	12.164082	3.369937	0.169821	-0.599829	-0.478789	-0.202112	-0.139844	0.088056	0.986250	0.532417	-0.833108	0.149876	0.834851	0.546056	0.069623
13023	9.374168	1.167315	-9.151230	-0.734338	-0.761165	-0.368204	-0.135386	0.095240	0.986205	0.525748	-0.836771	0.152983	0.839797	0.539207	0.063215
13024	5.313889	-0.099612	-6.574563	-0.515281	-1.121900	-0.102326	-0.126333	0.102079	0.986722	0.521267	-0.839460	0.153584	0.843991	0.533748	0.052841
13025	4.596118	-1.727413	-4.706450	-0.097447	-0.986543	-0.278230	-0.119414	0.109650	0.986771	0.520088	-0.839700	0.156246	0.845724	0.531866	0.043244
13026	4.077440	-2.091954	-5.584336	0.211996	-1.031071	-0.244165	-0.111799	0.117158	0.986800	0.521604	-0.838312	0.158624	0.845831	0.532453	0.032613
13027	5.835481	-0.889674	-5.379971	0.479108	-1.222988	-0.146029	-0.102194	0.124886	0.986894	0.525483	-0.835595	0.160154	0.844645	0.534962	0.019767
13028	8.436267	0.392876	-4.941068	0.574463	-1.337686	-0.018498	-0.090815	0.132196	0.987055	0.530328	-0.832502	0.160290	0.842914	0.538020	0.005496
13029	10.412513	1.286408	-4.754559	0.558219	-1.379243	0.079450	-0.078745	0.138954	0.987163	0.535081	-0.829615	0.159460	0.841123	0.540769	-0.009024
13030	11.135505	1.633017	-3.969688	0.445713	-1.331749	0.130276	-0.066647	0.145078	0.987173	0.538951	-0.827390	0.157982	0.839696	0.542567	-0.023047
13031	11.100384	1.517928	-3.013130	0.224161	-1.226753	0.148628	-0.055513	0.150485	0.987053	0.540907	-0.826410	0.156414	0.839248	0.542587	-0.035522
13032	10.626584	1.151353	-2.636790	-0.023124	-1.122901	0.199439	-0.044599	0.154981	0.986910	0.539805	-0.827520	0.154345	0.840608	0.539622	-0.046753
13033	9.763722	0.614571	-2.625639	-0.176782	-1.018497	0.248672	-0.034656	0.158381	0.986770	0.538399	-0.828878	0.151948	0.841977	0.536541	-0.056546
13034	8.748817	0.255912	-3.118073	-0.148131	-0.968734	0.250978	-0.024996	0.161468	0.986561	0.537643	-0.829824	0.149437	0.842802	0.534153	-0.066069
13035	8.237740	-0.189305	-3.502398	0.023672	-1.000061	0.224082	-0.015328	0.164921	0.986188	0.537870	-0.830081	0.147176	0.842888	0.532697	-0.075983
13036	8.694009	-0.842967	-3.432788	0.236686	-1.054751	0.222370	-0.005189	0.168679	0.985657	0.540780	-0.828633	0.144653	0.841148	0.533774	-0.086919
13037	9.542005	-1.193043	-3.200790	0.414565	-1.059600	0.250941	0.005108	0.172245	0.985041	0.544244	-0.826862	0.141763	0.838911	0.535379	-0.097967
13038	9.873503	-0.781033	-3.176165	0.578606	-1.046855	0.242237	0.015257	0.175866	0.984296	0.549962	-0.823604	0.138630	0.835050	0.539210	-0.109285
13039	9.812635	0.240858	-3.131713	0.736213	-1.058706	0.172141	0.025062	0.180162	0.983318	0.556041	-0.819943	0.136057	0.830777	0.543355	-0.120727
13040	9.704739	1.206494	-2.886013	0.830396	-1.076914	0.081567	0.034521	0.185389	0.982059	0.563674	-0.815048	0.134047	0.825276	0.548933	-0.132636
13041	9.705577	1.779560	-2.641766	0.816497	-1.072679	0.036292	0.043588	0.190987	0.980624	0.570359	-0.810634	0.132528	0.820238	0.553531	-0.144265
13042	9.665253	2.086875	-2.452682	0.746615	-1.043168	0.025040	0.052416	0.196607	0.979080	0.576906	-0.806235	0.131013	0.815127	0.557970	-0.155683
13043	9.701070	2.243218	-2.123584	0.647093	-1.005219	0.034056	0.060821	0.201938	0.977508	0.582128	-0.802701	0.129605	0.810819	0.561152	-0.166375
13044	9.681475	2.166370	-1.952878	0.554068	-0.964386	0.060443	0.069177	0.206906	0.975912	0.586800	-0.799563	0.127922	0.806771	0.563816	-0.176724
13045	9.538869	2.204407	-1.804300	0.522570	-0.927816	0.097424	0.077255	0.211350	0.974352	0.590916	-0.796834	0.125991	0.803025	0.566027	-0.186450
13046	9.347598	2.216751	-1.568543	0.532046	-0.883464	0.118123	0.085479	0.215378	0.972783	0.594371	-0.794620	0.123704	0.799635	0.567619	-0.195938
13047	9.234258	2.257561	-2.342952	0.548906	-0.833290	0.144207	0.093023	0.218955	0.971291	0.598601	-0.791830	0.121171	0.795628	0.570144	-0.204725
13048	9.072165	2.320777	-0.241152	0.738186	-0.849243	0.179218	0.101071	0.222426	0.969697	0.604333	-0.787982	0.117755	0.790295	0.574118	-0.214062
13049	9.042468	1.595847	-2.007536	0.356813	-0.896277	0.282462	0.109888	0.225333	0.968065	0.606829	-0.786585	0.114207	0.787200	0.574900	-0.223175
13050	9.262368	1.646844	-2.528841	0.460111	-0.922129	0.259103	0.118935	0.228634	0.966220	0.610195	-0.784504	0.110525	0.783273	0.576438	-0.232816
13051	9.196604	1.310377	-2.851865	0.485530	-0.931561	0.287699	0.128010	0.231740	0.964319	0.613613	-0.782384	0.106563	0.779162	0.578077	-0.242351
13052	9.342901	1.009757	-3.230049	0.522563	-0.953072	0.307794	0.137535	0.234886	0.962244	0.617313	-0.780054	0.102180	0.774602	0.579952	-0.252283
13053	9.133845	0.749454	-3.511372	0.555411	-0.979421	0.319272	0.147112	0.238072	0.960042	0.621127	-0.777603	0.097652	0.769779	0.581942	-0.262267
13054	9.108790	0.559584	-3.628571	0.583563	-0.996308	0.324138	0.157001	0.241401	0.957641	0.625160	-0.774954	0.092857	0.764543	0.584100	-0.272583
13055	9.347253	0.455572	-3.432506	0.570520	-0.980797	0.325558	0.166554	0.244603	0.955212	0.628959	-0.772427	0.088130	0.759388	0.586110	-0.282496
