// General information: 
//  MT Manager version: 2022.2.0 
//  XDA version: 2022.2.0 build 7381 rev 124627 built on 2023-07-19
// Device information: 
//  DeviceId: 00B4CB9F
//  ProductCode: MTW2-3A7G6
//  Firmware Version: 4.6.0
//  Hardware Version: 2.0.0
// Device settings: 
//  Filter Profile: human(46.1)
//  Option Flags: Orientation Smoother Disabled, Position/Velocity Smoother Disabled, Continuous Zero Rotation Update Disabled, AHS Disabled, ICC Disabled
// Coordinate system: ENU
PacketCounter	Acc_X	Acc_Y	Acc_Z	Gyr_X	Gyr_Y	Gyr_Z	Mat[1][1]	Mat[2][1]	Mat[3][1]	Mat[1][2]	Mat[2][2]	Mat[3][2]	Mat[1][3]	Mat[2][3]	Mat[3][3]
07720	9.130249	0.622223	-3.362253	0.529835	-0.158674	-0.099294	0.085224	0.157212	0.983881	0.817455	-0.575603	0.021167	0.569653	0.802474	-0.177569
07721	9.257819	1.266884	-2.575828	0.529906	-0.172463	-0.090320	0.085582	0.159251	0.983522	0.820448	-0.571331	0.021117	0.565279	0.805121	-0.179553
07722	9.505550	1.901817	-1.715001	0.336745	-0.167237	-0.071868	0.085988	0.160998	0.983202	0.822415	-0.568494	0.021165	0.562352	0.806780	-0.181291
07723	9.912045	1.918115	-0.827402	-0.026536	-0.137834	-0.055151	0.086575	0.162507	0.982902	0.822236	-0.568737	0.021609	0.562524	0.806306	-0.182857
07724	10.242867	1.104843	-0.290580	-0.443873	-0.084080	-0.041141	0.086764	0.163409	0.982736	0.819773	-0.572235	0.022774	0.566077	0.803644	-0.183608
07725	10.272828	-0.089423	-0.073097	-0.685225	-0.064791	-0.058732	0.086811	0.164409	0.982565	0.815832	-0.577766	0.024595	0.571736	0.799473	-0.184287
07726	10.130736	-0.842654	-0.258528	-0.610097	-0.083393	-0.104200	0.086495	0.165668	0.982381	0.812426	-0.582453	0.026693	0.576613	0.795803	-0.184973
07727	9.930831	-1.006846	-0.437442	-0.366253	-0.129049	-0.146860	0.086307	0.167632	0.982065	0.810327	-0.585275	0.028689	0.579587	0.793318	-0.186350
07728	9.639945	-0.914013	-1.007003	-0.191965	-0.183941	-0.204057	0.085775	0.170275	0.981656	0.809395	-0.586445	0.031000	0.580966	0.791889	-0.188122
07729	9.433529	-0.750943	-1.916959	-0.016392	-0.295397	-0.244141	0.085646	0.174089	0.980998	0.809453	-0.586236	0.033365	0.580906	0.791214	-0.191125
07730	9.456148	-0.161877	-2.733126	0.226849	-0.391173	-0.259590	0.085864	0.178694	0.980151	0.810997	-0.583977	0.035420	0.578715	0.791858	-0.195063
07731	9.494636	0.481238	-3.135496	0.333850	-0.360380	-0.242839	0.086088	0.183029	0.979331	0.813075	-0.580975	0.037106	0.575759	0.793075	-0.198831
07732	9.348593	0.756018	-3.311931	0.384432	-0.288624	-0.225383	0.085964	0.186616	0.978665	0.815482	-0.577501	0.038490	0.572363	0.794774	-0.201826
07733	9.404548	0.953318	-2.892055	0.376428	-0.244810	-0.209705	0.085832	0.189771	0.978069	0.817769	-0.574180	0.039641	0.569111	0.796432	-0.204472
07734	9.550790	1.316064	-1.850885	0.328941	-0.187673	-0.151902	0.085708	0.192128	0.977620	0.819772	-0.571263	0.040398	0.566240	0.797963	-0.206463
07735	9.738720	1.490138	-0.761187	0.179488	-0.159815	-0.137489	0.085822	0.194295	0.977182	0.820762	-0.569782	0.041206	0.564787	0.798498	-0.208370
07736	9.802086	1.377116	-0.287168	-0.061967	-0.112436	-0.145713	0.085317	0.196014	0.976883	0.820543	-0.569988	0.042707	0.565182	0.797930	-0.209467
07737	9.715345	0.920412	-0.334819	-0.306924	-0.138804	-0.140848	0.085251	0.197959	0.976496	0.818803	-0.572345	0.044544	0.567710	0.795760	-0.210882
07738	9.944431	0.403517	-0.893757	-0.389306	-0.218409	-0.141581	0.085393	0.200498	0.975966	0.816713	-0.575151	0.046698	0.570691	0.793096	-0.212863
07739	10.412307	0.386357	-0.972441	-0.280494	-0.157725	-0.125437	0.085556	0.202488	0.975540	0.815097	-0.577304	0.048343	0.572972	0.791024	-0.214439
07740	10.715014	0.678512	-0.428377	-0.153462	-0.059707	-0.102338	0.085121	0.203542	0.975359	0.814310	-0.578305	0.049617	0.574154	0.790021	-0.214973
07741	10.458545	1.001700	-0.107640	0.028612	0.044058	-0.102780	0.084352	0.203753	0.975382	0.814412	-0.578101	0.050332	0.574124	0.790117	-0.214702
07742	9.411823	1.086013	-0.593338	0.216051	0.061384	-0.122819	0.083055	0.203967	0.975448	0.815759	-0.576138	0.051013	0.572398	0.791494	-0.214239
07743	8.664263	1.065545	-1.813967	0.255103	-0.060398	-0.142398	0.082406	0.205226	0.975239	0.817248	-0.573960	0.051726	0.570364	0.792750	-0.215018
07744	8.651509	1.137118	-2.583347	0.332994	-0.179797	-0.100176	0.082666	0.207218	0.974796	0.819231	-0.571108	0.051930	0.567475	0.794290	-0.216970
07745	9.283261	1.385943	-2.536154	0.361266	-0.244717	-0.059372	0.083727	0.209509	0.974215	0.821241	-0.568241	0.051623	0.564405	0.795744	-0.219635
07746	9.900339	1.481780	-2.325698	0.272881	-0.189372	-0.024736	0.084648	0.211150	0.973782	0.822804	-0.566013	0.051207	0.561986	0.796897	-0.221647
07747	9.829598	1.344980	-2.077054	0.267151	-0.061372	-0.017591	0.085079	0.211771	0.973609	0.824211	-0.564012	0.050655	0.559855	0.798150	-0.222530
07748	9.195361	1.527784	-1.898309	0.251065	-0.008619	-0.017380	0.085042	0.211930	0.973578	0.825634	-0.561967	0.050211	0.557760	0.799549	-0.222768
07749	9.002730	1.674616	-1.565209	0.177129	-0.071685	0.018138	0.085916	0.212369	0.973405	0.826461	-0.560822	0.049410	0.556400	0.800236	-0.223698
07750	9.267536	1.667187	-1.377384	0.146517	-0.141835	0.029684	0.087008	0.213331	0.973098	0.827254	-0.559710	0.048737	0.555050	0.800759	-0.225178
07751	9.557492	1.714361	-1.510435	0.075988	-0.169359	0.024339	0.088385	0.214543	0.972707	0.827529	-0.559351	0.048179	0.554422	0.800686	-0.226978
07752	9.872839	1.523193	-1.990018	-0.100478	-0.221440	0.030325	0.089923	0.216138	0.972213	0.826950	-0.560219	0.048058	0.555039	0.799650	-0.229111
07753	9.974174	1.268525	-2.745106	-0.134785	-0.242876	0.046770	0.091925	0.217832	0.971648	0.826011	-0.561627	0.047764	0.556108	0.798201	-0.231559
07754	9.649121	1.342048	-3.256067	-0.083601	-0.191813	0.054970	0.093505	0.219046	0.971224	0.825499	-0.562412	0.047369	0.556604	0.797315	-0.233410
07755	9.119935	1.467183	-3.471182	-0.080902	-0.185694	0.073337	0.095284	0.220042	0.970826	0.824908	-0.563333	0.046719	0.557179	0.796390	-0.235191
07756	8.736126	1.280635	-3.347934	-0.057162	-0.242867	0.097490	0.097501	0.221418	0.970293	0.824499	-0.564002	0.045853	0.557400	0.795535	-0.237550
07757	8.780808	1.191064	-2.516112	-0.027134	-0.269360	0.138613	0.100336	0.222729	0.969703	0.824094	-0.564708	0.044437	0.557496	0.794668	-0.240210
07758	9.044663	1.162322	-1.562491	-0.082131	-0.270401	0.178216	0.103372	0.223861	0.969123	0.823458	-0.565757	0.042852	0.557881	0.793603	-0.242824
07759	9.639574	1.039380	-1.049933	-0.189910	-0.249111	0.214992	0.106711	0.224546	0.968603	0.822047	-0.567935	0.041096	0.559332	0.791851	-0.245192
07760	10.264386	0.869508	-0.803398	-0.259423	-0.152579	0.211272	0.109361	0.224541	0.968308	0.820368	-0.570460	0.039632	0.561281	0.790035	-0.246593
07761	9.994514	0.877329	-0.661228	-0.280256	-0.010949	0.168377	0.110869	0.223709	0.968330	0.818583	-0.573085	0.038674	0.563587	0.788370	-0.246662
07762	9.131300	0.646437	-0.441780	-0.311868	-0.024140	0.148415	0.112279	0.223038	0.968322	0.816659	-0.575871	0.037950	0.566093	0.786528	-0.246805
07763	8.992958	0.186301	-0.558849	-0.326780	-0.198770	0.147727	0.114686	0.223778	0.967869	0.814602	-0.578820	0.037302	0.568570	0.784150	-0.248672
07764	9.296400	-0.388401	-1.455704	-0.319547	-0.314497	0.142955	0.117701	0.225401	0.967130	0.812618	-0.581642	0.036662	0.570787	0.781592	-0.251625
07765	9.615454	-0.954581	-2.414948	-0.285477	-0.372655	0.131147	0.120981	0.227520	0.966229	0.810778	-0.584242	0.036056	0.572715	0.779035	-0.255151
07766	9.677624	-1.099844	-3.264773	-0.031837	-0.380301	0.114158	0.124144	0.229804	0.965287	0.810459	-0.584751	0.034979	0.572490	0.777982	-0.258840
07767	9.655335	-0.692691	-3.507381	0.319089	-0.417095	0.112189	0.127637	0.232305	0.964232	0.811994	-0.582737	0.032909	0.569539	0.778750	-0.263009
07768	9.803481	-0.174522	-3.292230	0.471024	-0.494008	0.084906	0.131191	0.235654	0.962941	0.814559	-0.579264	0.030784	0.565051	0.780334	-0.267948
07769	10.040381	0.338603	-2.601588	0.492364	-0.508081	0.047710	0.134456	0.239291	0.961593	0.817230	-0.575584	0.028963	0.560408	0.781948	-0.272946
07770	10.265895	0.904208	-1.670346	0.492793	-0.446589	0.010164	0.137092	0.242720	0.960361	0.819968	-0.571751	0.027453	0.555750	0.783702	-0.277405
07771	10.359042	1.623525	-1.023110	0.496339	-0.322815	0.009647	0.139072	0.245182	0.959450	0.822620	-0.568001	0.025912	0.551322	0.785659	-0.280685
07772	10.295173	2.119528	-0.538463	0.390218	-0.236411	0.038192	0.140746	0.246817	0.958787	0.824712	-0.565026	0.024389	0.547759	0.787290	-0.283078
07773	10.072686	2.195956	-0.483236	0.152615	-0.198405	0.053924	0.142335	0.248081	0.958226	0.825441	-0.564003	0.023407	0.546249	0.787627	-0.285054
07774	9.553553	1.723611	-1.313041	-0.054656	-0.147153	0.078447	0.143847	0.248789	0.957816	0.825031	-0.564629	0.022755	0.546472	0.786955	-0.286479
07775	9.157995	1.065598	-2.315139	-0.119407	-0.152418	0.111927	0.145502	0.249343	0.957422	0.824270	-0.565767	0.022077	0.547183	0.785962	-0.287846
07776	9.040347	0.420520	-2.993767	-0.065926	-0.270073	0.152845	0.148299	0.250591	0.956667	0.823685	-0.566668	0.020749	0.547312	0.784915	-0.290445
07777	9.264447	-0.017416	-3.282390	0.011080	-0.359587	0.193218	0.151830	0.252304	0.955662	0.823463	-0.567055	0.018881	0.546677	0.784086	-0.293859
07778	9.593883	-0.217532	-3.069585	0.047513	-0.413775	0.240806	0.156133	0.254173	0.954473	0.823353	-0.567294	0.016384	0.545631	0.783310	-0.297847
07779	9.935799	-0.159203	-2.395813	0.046890	-0.418554	0.268252	0.160565	0.255880	0.953281	0.823207	-0.567576	0.013693	0.544563	0.782549	-0.301775
07780	10.181445	0.085339	-1.640364	0.027164	-0.351993	0.281383	0.164856	0.257027	0.952239	0.822897	-0.568086	0.010874	0.543749	0.781802	-0.305159
07781	10.290367	0.567198	-1.038320	0.091957	-0.254173	0.284368	0.168561	0.257348	0.951504	0.822944	-0.568068	0.007856	0.542541	0.781710	-0.307537
07782	10.439511	1.343982	-0.457404	0.236412	-0.236952	0.278085	0.172193	0.257614	0.950781	0.823750	-0.566937	0.004425	0.540172	0.782443	-0.309832
07783	10.630155	2.050730	0.213861	0.351752	-0.229740	0.261885	0.175621	0.257852	0.950089	0.825163	-0.564894	0.000782	0.536901	0.783841	-0.311978
07784	10.648221	2.364557	1.240548	0.314075	-0.117470	0.214561	0.178082	0.257556	0.949711	0.826464	-0.562984	-0.002294	0.534082	0.785311	-0.313118
07785	10.596681	2.293895	2.430663	0.210218	-0.021825	0.183243	0.179536	0.256629	0.949688	0.827323	-0.561707	-0.004616	0.532262	0.786528	-0.313162
07786	10.568806	1.983997	3.505880	0.147798	0.001411	0.200773	0.181249	0.255483	0.949672	0.827745	-0.561060	-0.007042	0.531024	0.787363	-0.313166
07787	10.439938	1.447671	4.130038	0.120085	0.054423	0.262796	0.183128	0.253485	0.949847	0.827870	-0.560832	-0.009942	0.530184	0.788171	-0.312556
07788	10.313756	0.831056	3.461650	0.235337	0.076318	0.334925	0.185557	0.250997	0.950036	0.828497	-0.559821	-0.013915	0.528358	0.789684	-0.311829
07789	10.641929	0.734032	2.192390	0.669297	0.029556	0.408036	0.188727	0.248277	0.950127	0.831224	-0.555580	-0.019931	0.522923	0.793529	-0.311227
07790	11.335461	1.147437	1.368369	0.986184	-0.059200	0.482705	0.193116	0.246075	0.949818	0.835416	-0.548923	-0.027644	0.514574	0.798831	-0.311580
07791	11.947119	1.342434	0.633224	0.876126	-0.167359	0.489348	0.198030	0.244615	0.949183	0.838886	-0.543179	-0.035035	0.507006	0.803194	-0.312769
07792	12.294030	1.067154	-0.450087	0.650133	-0.275632	0.424521	0.203044	0.244528	0.948145	0.841308	-0.538987	-0.041159	0.500974	0.806039	-0.315162
07793	12.601103	0.226410	-1.366955	0.517373	-0.310876	0.381395	0.207686	0.244795	0.947070	0.843088	-0.535770	-0.046399	0.496054	0.808100	-0.317655
07794	13.606150	-0.721790	-1.085704	0.475945	0.000273	0.517036	0.212105	0.242022	0.946804	0.844350	-0.533178	-0.052862	0.492021	0.810646	-0.317441
07795	14.408890	-1.173782	1.190227	0.240177	0.911971	0.786341	0.214116	0.230262	0.949281	0.843830	-0.533131	-0.061012	0.492043	0.814095	-0.308454
07796	12.983073	-1.143687	3.704922	-0.054685	1.941387	0.894069	0.212112	0.209633	0.954496	0.841649	-0.535545	-0.069414	0.496624	0.818074	-0.290033
07797	10.693826	-1.142828	4.496986	-0.167175	2.173483	0.819904	0.207986	0.187198	0.960051	0.839054	-0.538608	-0.076751	0.502724	0.821498	-0.269092
07798	9.821093	-1.074574	4.936971	0.053402	1.778066	0.752545	0.205386	0.168496	0.964067	0.837763	-0.539505	-0.084186	0.505934	0.824950	-0.251966
07799	10.554482	-0.683275	5.710354	-0.093382	1.578812	0.685065	0.202970	0.151449	0.967402	0.835827	-0.541467	-0.090597	0.510095	0.826969	-0.236487
07800	11.151922	-0.478837	5.850639	-0.403636	1.691583	0.604611	0.199386	0.134163	0.970693	0.832533	-0.545666	-0.095589	0.516849	0.827194	-0.220493
07801	11.109247	-0.686560	5.314770	-0.840101	1.824461	0.628716	0.194944	0.115321	0.974011	0.826751	-0.553623	-0.099923	0.527712	0.824744	-0.203267
07802	11.230765	-0.615506	5.078781	-1.087694	1.905800	0.695239	0.190548	0.095748	0.976997	0.819598	-0.563302	-0.104645	0.540325	0.820685	-0.185810
07803	11.088643	-0.058378	3.946630	-1.397745	1.865196	0.661867	0.185627	0.076337	0.979650	0.810491	-0.575572	-0.108724	0.555560	0.814180	-0.168713
07804	11.499015	0.604950	2.840960	-1.901294	1.807210	0.717850	0.181252	0.057510	0.981754	0.798430	-0.591434	-0.112761	0.574157	0.804300	-0.153116
07805	11.601281	1.009824	-0.019870	-2.258400	1.575549	0.608151	0.176745	0.040872	0.983408	0.783880	-0.610069	-0.115529	0.595225	0.791293	-0.139865
07806	11.792241	0.871157	-5.223889	-0.995766	0.948030	0.273404	0.173249	0.031703	0.984368	0.777424	-0.618013	-0.116923	0.604645	0.785528	-0.131717
07807	13.844998	1.592299	-4.879406	0.331962	0.634769	0.127402	0.170316	0.025516	0.985059	0.778956	-0.615736	-0.118732	0.603507	0.787539	-0.124745
07808	15.650450	1.930170	-4.175059	0.623105	1.162212	-0.057357	0.162929	0.016675	0.986497	0.782799	-0.610797	-0.118962	0.600566	0.791611	-0.112569
07809	16.089560	2.325257	-5.002818	1.216926	1.827731	-0.342579	0.149221	0.003847	0.988796	0.790374	-0.601361	-0.116937	0.594174	0.798968	-0.092776
07810	15.289793	3.629882	-5.289438	1.292532	2.422953	-0.681391	0.129550	-0.011558	0.991506	0.798957	-0.591003	-0.111281	0.587269	0.806587	-0.067330
07811	14.467481	4.429983	-5.519684	0.693983	2.853050	-0.846232	0.105931	-0.029946	0.993922	0.803834	-0.585812	-0.103322	0.585346	0.809893	-0.037984
07812	13.079549	4.652425	-5.622331	0.054590	3.033368	-0.843865	0.081407	-0.049573	0.995447	0.804944	-0.585697	-0.094996	0.587739	0.809013	-0.007776
07813	11.445221	4.558033	-5.551623	-1.004076	3.109624	-0.729331	0.056997	-0.070541	0.995879	0.799347	-0.594413	-0.087853	0.598161	0.801060	0.022507
07814	10.575234	3.661330	-4.842407	-1.822911	3.024679	-0.547721	0.034373	-0.091290	0.995231	0.788550	-0.609327	-0.083126	0.614010	0.787646	0.051042
07815	10.680224	2.592435	-3.335390	-2.463732	2.823920	-0.400850	0.013495	-0.110970	0.993732	0.773156	-0.629055	-0.080746	0.634072	0.769400	0.077308
07816	11.858378	1.697248	-1.871269	-2.834804	2.406422	-0.285625	-0.004152	-0.127426	0.991839	0.754889	-0.650898	-0.080464	0.655840	0.748394	0.098895
07817	12.887517	1.076788	-1.818914	-3.167519	2.286677	-0.273855	-0.021579	-0.142590	0.989547	0.733614	-0.674695	-0.081223	0.679223	0.724193	0.119165
07818	12.365497	-0.337014	-2.557299	-3.122274	2.531718	-0.312723	-0.041258	-0.158485	0.986499	0.711973	-0.697372	-0.082260	0.700994	0.698967	0.141609
07819	10.697713	-1.137292	-2.299400	-2.754483	2.751779	-0.361192	-0.063449	-0.174949	0.982531	0.692152	-0.716967	-0.082965	0.718957	0.674797	0.166582
07820	8.888094	-1.314566	-1.882956	-2.652412	2.745019	-0.425968	-0.086260	-0.190075	0.977973	0.672558	-0.735308	-0.083590	0.735000	0.650533	0.191264
07821	7.894485	-1.545924	-2.069879	-2.670714	2.501754	-0.454061	-0.107956	-0.202758	0.973260	0.652221	-0.753295	-0.084587	0.750302	0.625649	0.213566
07822	8.134983	-1.489397	-2.459368	-2.581417	2.188826	-0.415233	-0.127148	-0.213056	0.968731	0.632194	-0.769982	-0.086368	0.764307	0.601444	0.232594
07823	8.312641	-1.388764	-2.600183	-2.492415	2.055172	-0.351469	-0.145270	-0.222524	0.964044	0.612457	-0.785476	-0.089016	0.777041	0.577504	0.250392
07824	8.405280	-1.241823	-2.720607	-2.319958	1.948515	-0.335692	-0.162493	-0.230928	0.959306	0.593799	-0.799354	-0.091843	0.788035	0.554711	0.267014
07825	8.370642	-1.153076	-2.824903	-2.099927	1.865934	-0.376389	-0.179565	-0.238120	0.954492	0.576481	-0.811681	-0.094042	0.797137	0.533359	0.283021
07826	8.256681	-1.174449	-2.634617	-1.851703	1.754592	-0.437737	-0.196056	-0.243769	0.949810	0.560846	-0.822416	-0.095306	0.804372	0.514012	0.297956
07827	8.084579	-1.140035	-2.498700	-1.647539	1.626560	-0.462977	-0.211814	-0.248217	0.945264	0.546591	-0.831883	-0.095964	0.810169	0.496346	0.311877
07828	7.764142	-1.420341	-2.234838	-1.411203	1.521193	-0.457611	-0.226596	-0.251861	0.940861	0.534142	-0.839905	-0.096194	0.814461	0.480756	0.324849
07829	7.277971	-1.490919	-2.001415	-1.097587	1.477528	-0.386971	-0.240743	-0.255658	0.936313	0.524291	-0.846086	-0.096217	0.816800	0.467737	0.337728
07830	7.269980	-1.041315	-1.740324	-0.840966	1.389290	-0.376402	-0.254009	-0.258927	0.931899	0.516506	-0.850925	-0.095644	0.817741	0.457037	0.349880
07831	7.078762	-0.725515	-1.474509	-0.698955	1.393055	-0.383238	-0.267400	-0.262003	0.927282	0.509811	-0.855071	-0.094586	0.817673	0.447446	0.362218
07832	6.568270	-0.510778	-1.139904	-0.503779	1.353331	-0.440557	-0.280647	-0.264271	0.922713	0.504508	-0.858447	-0.092416	0.816522	0.439580	0.374247
07833	6.225707	-0.217820	-0.834680	-0.364377	1.224589	-0.516695	-0.293251	-0.265211	0.918514	0.500089	-0.861383	-0.089053	0.814810	0.433223	0.385230
07834	5.772235	-0.780483	-0.417283	-0.234881	1.015376	-0.575204	-0.304336	-0.264664	0.915059	0.496481	-0.863901	-0.084745	0.812949	0.428518	0.394316
07835	5.644187	-1.504240	-0.044002	0.049882	0.703633	-0.618275	-0.313122	-0.262364	0.912754	0.495023	-0.865290	-0.078902	0.810498	0.427128	0.400818
07836	5.870929	-2.162749	0.478057	0.211584	0.353032	-0.630848	-0.319056	-0.258453	0.911814	0.494765	-0.866010	-0.072345	0.808338	0.428052	0.404180
07837	6.577694	-2.247663	0.501006	0.339353	0.227448	-0.640089	-0.324066	-0.253921	0.911321	0.495491	-0.866167	-0.065144	0.805897	0.430440	0.406511
07838	6.509954	-2.325433	0.523546	0.406383	0.224499	-0.648453	-0.329043	-0.249315	0.910809	0.496667	-0.866026	-0.057629	0.803152	0.433406	0.408787
07839	6.142996	-2.624054	0.048275	0.657291	0.025692	-0.644080	-0.332457	-0.243891	0.911038	0.499844	-0.864723	-0.049088	0.799768	0.439057	0.409390
07840	6.379186	-2.685872	0.404983	1.104531	-0.226228	-0.587021	-0.333562	-0.237860	0.912227	0.506721	-0.861215	-0.039273	0.794966	0.449145	0.407797
07841	6.515862	-2.638596	1.189469	1.442113	-0.278944	-0.481643	-0.333810	-0.232493	0.913520	0.516564	-0.855756	-0.029034	0.788500	0.462199	0.405757
07842	6.525627	-1.758586	1.977634	1.959919	-0.114114	-0.591123	-0.335963	-0.226959	0.914122	0.529966	-0.847873	-0.015735	0.778630	0.479167	0.405134
07843	6.394426	-0.612288	3.302601	2.254662	-0.001887	-0.691274	-0.339653	-0.221161	0.914179	0.545073	-0.838388	-0.000310	0.766506	0.498190	0.405310
07844	6.682254	0.413439	5.166893	2.471388	-0.087243	-0.621540	-0.342382	-0.215578	0.914495	0.561757	-0.827160	0.015329	0.753129	0.518972	0.404307
07845	6.739418	1.194801	7.060682	2.529776	-0.305693	-0.469077	-0.342767	-0.210148	0.915614	0.579050	-0.814748	0.029774	0.739738	0.540392	0.400954
07846	6.657261	1.650727	6.858966	2.412541	-0.683615	-0.534038	-0.340836	-0.202098	0.918143	0.594954	-0.802543	0.044208	0.727915	0.561321	0.393774
07847	7.237321	2.454453	5.092825	2.408773	-1.113153	-0.677671	-0.336875	-0.190375	0.922102	0.610068	-0.790092	0.059758	0.717169	0.582677	0.382304
07848	7.751531	3.006934	3.861305	2.229578	-1.287616	-0.653635	-0.331684	-0.177651	0.926513	0.623793	-0.778067	0.074124	0.707721	0.602538	0.368890
07849	7.993460	2.929427	3.669248	1.956745	-1.368568	-0.561711	-0.325590	-0.164982	0.931006	0.635729	-0.767062	0.086396	0.699886	0.619997	0.354632
07850	8.615374	2.957783	4.997004	1.553581	-1.317859	-0.368016	-0.318710	-0.153944	0.935267	0.645396	-0.757895	0.095182	0.694182	0.633953	0.340903
07851	8.688395	3.315183	6.065696	0.919944	-1.236460	-0.104863	-0.310823	-0.145291	0.939297	0.651457	-0.752169	0.099228	0.692093	0.642754	0.328443
07852	8.560242	4.486604	5.686901	-0.019664	-1.235176	0.213259	-0.300809	-0.138976	0.943504	0.651994	-0.751980	0.097105	0.696001	0.644369	0.316814
07853	8.834012	4.731390	3.712983	-1.399087	-1.469224	0.596888	-0.286629	-0.134116	0.948608	0.643932	-0.760109	0.087103	0.709363	0.635805	0.304230
07854	12.554707	3.188562	2.210194	-2.294249	-2.058427	1.069626	-0.264950	-0.129412	0.955539	0.630393	-0.773105	0.070090	0.729662	0.620935	0.286414
07855	18.145823	0.344896	2.680778	-2.597836	-1.912056	1.171064	-0.243521	-0.126870	0.961562	0.614174	-0.787479	0.051642	0.750658	0.603143	0.269688
07856	20.686410	-2.830673	4.572596	-2.562627	-0.857421	0.818229	-0.232005	-0.128316	0.964214	0.596676	-0.801634	0.036889	0.768213	0.583882	0.262546
07857	14.713445	-4.870383	8.647242	-2.352100	0.108220	0.223365	-0.231539	-0.130771	0.963996	0.578995	-0.814832	0.028530	0.781764	0.564754	0.264381
07858	8.209559	-4.775155	8.863742	-2.096882	-0.570277	-0.600654	-0.230418	-0.122701	0.965325	0.561093	-0.827252	0.028779	0.795036	0.548268	0.259461
07859	7.835434	-5.061189	4.351641	-2.587920	-1.493542	-1.000680	-0.223933	-0.106368	0.968783	0.537989	-0.842349	0.031869	0.812664	0.528331	0.245855
07860	8.905425	-8.198322	2.708818	-2.935501	-1.588153	-0.680867	-0.214404	-0.092411	0.972364	0.512379	-0.858185	0.031419	0.831564	0.504955	0.231348
07861	9.764214	-11.522190	2.873527	-2.280942	-1.268548	0.051763	-0.203527	-0.086664	0.975226	0.493277	-0.869493	0.025678	0.845727	0.486283	0.219715
07862	10.356847	-12.078100	2.228904	-0.753580	-0.920056	0.379176	-0.193815	-0.085560	0.977300	0.487653	-0.872801	0.020299	0.851252	0.480518	0.210886
07863	10.010315	-8.494420	2.088554	1.108266	-0.735135	0.239752	-0.186409	-0.084221	0.978856	0.497357	-0.867313	0.020090	0.847282	0.490586	0.203563
07864	9.379755	-2.801407	1.161957	2.757877	-0.681362	-0.161272	-0.181454	-0.079447	0.980185	0.520268	-0.853572	0.027128	0.834503	0.514882	0.196218
07865	8.859068	3.751956	-0.462964	3.613466	-0.339016	-0.432741	-0.180981	-0.074163	0.980686	0.549109	-0.834877	0.038199	0.815920	0.545417	0.191820
07866	7.797115	8.902800	-1.718252	3.227958	-0.211809	-0.550862	-0.182317	-0.068465	0.980853	0.574177	-0.817222	0.049682	0.798174	0.572241	0.188304
07867	7.346649	9.435810	-1.746566	1.858255	-0.907432	-0.656265	-0.178930	-0.058005	0.982150	0.587600	-0.806969	0.059391	0.789120	0.587739	0.178475
07868	8.894746	7.281206	-2.080086	0.410061	-1.869291	-0.586563	-0.167574	-0.042286	0.984952	0.589836	-0.804838	0.065798	0.789945	0.591986	0.159812
07869	10.480525	5.353643	-3.448549	-0.524974	-2.267961	-0.243816	-0.151012	-0.027028	0.988162	0.585205	-0.808085	0.067329	0.796700	0.588445	0.137848
07870	11.181772	3.048320	-5.680764	-0.948359	-2.034510	0.066862	-0.134278	-0.015707	0.990819	0.577717	-0.813613	0.065395	0.805117	0.581194	0.118325
07871	11.050170	0.706413	-7.509606	-0.919634	-1.468830	0.262012	-0.120883	-0.009429	0.992622	0.570583	-0.818918	0.061708	0.812295	0.573832	0.104374
07872	10.890379	-0.733521	-7.903642	-0.540944	-1.096688	0.365220	-0.109825	-0.006192	0.993932	0.566609	-0.821979	0.057487	0.816635	0.569484	0.093783
07873	10.994117	-1.114352	-6.142101	-0.273191	-0.942679	0.462053	-0.099471	-0.004677	0.995029	0.564862	-0.823507	0.052598	0.819168	0.567286	0.084557
07874	11.227095	-1.206163	-3.413881	-0.384139	-0.868689	0.454420	-0.089732	-0.003546	0.995960	0.562149	-0.825659	0.047708	0.822154	0.564159	0.076082
07875	11.300626	-1.228608	-1.462806	-0.352239	-0.815786	0.316793	-0.081195	-0.001604	0.996697	0.559537	-0.827623	0.044250	0.824818	0.561282	0.068096
07876	10.575963	-0.697550	-1.001807	-0.028575	-0.775819	0.042969	-0.074503	0.002357	0.997218	0.559344	-0.827781	0.043745	0.825581	0.561047	0.060354
07877	9.232826	-0.179459	-1.390576	0.303959	-0.783703	-0.153267	-0.068848	0.008000	0.997595	0.561758	-0.826055	0.045394	0.824432	0.563533	0.052378
07878	9.225148	0.665619	-1.323847	0.723437	-1.002700	-0.206697	-0.061717	0.015347	0.997976	0.567583	-0.821931	0.047740	0.821000	0.569381	0.042016
07879	10.094251	1.932544	-0.463881	1.042442	-1.104685	-0.149244	-0.053477	0.022881	0.998307	0.576051	-0.815910	0.049558	0.815662	0.577726	0.030452
07880	9.909848	2.645873	0.310668	0.845447	-0.932311	-0.096776	-0.046404	0.029050	0.998500	0.582887	-0.810971	0.050683	0.811227	0.584365	0.020700
07881	9.104424	2.561201	0.389462	0.436381	-0.862709	-0.111678	-0.040017	0.034997	0.998586	0.586409	-0.808355	0.051829	0.809026	0.587654	0.011826
07882	8.615597	2.312170	0.454779	0.223045	-0.957718	-0.100580	-0.032814	0.041409	0.998603	0.588182	-0.807004	0.052791	0.808063	0.589093	0.002125
07883	8.593442	2.172827	0.785886	0.001488	-1.043647	-0.061276	-0.024693	0.048046	0.998540	0.588220	-0.806938	0.053372	0.808324	0.588679	-0.008336
07884	9.073380	1.602712	0.754931	-0.382107	-1.077149	0.019296	-0.015809	0.054176	0.998406	0.585136	-0.809190	0.053174	0.810781	0.585044	-0.018908
07885	9.750621	0.441275	0.427944	-0.683830	-1.143711	0.045827	-0.006203	0.060461	0.998151	0.579630	-0.813164	0.052858	0.814856	0.578886	-0.030001
07886	10.352595	-0.881759	0.284681	-0.715715	-1.163138	0.041906	0.003590	0.066778	0.997761	0.573788	-0.817311	0.052636	0.818996	0.572314	-0.041251
07887	10.395990	-2.052610	0.144666	-0.473420	-1.105755	0.037212	0.012916	0.072771	0.997265	0.569940	-0.820010	0.052455	0.821585	0.567704	-0.052066
07888	9.987488	-2.168273	-0.036923	0.106647	-1.065487	0.011606	0.021781	0.078689	0.996661	0.570817	-0.819415	0.052220	0.820788	0.567774	-0.062765
07889	9.556910	-0.912968	0.114474	0.754030	-1.081431	0.042387	0.030921	0.084489	0.995945	0.576996	-0.815138	0.051237	0.816161	0.573072	-0.073955
07890	9.420617	0.554481	0.596223	0.906182	-1.108921	0.070081	0.040397	0.090274	0.995097	0.584344	-0.809979	0.049758	0.810500	0.579469	-0.085472
07891	9.619958	1.603361	0.921176	0.801409	-1.129734	0.101661	0.050168	0.096001	0.994116	0.590781	-0.805405	0.047964	0.805271	0.584898	-0.097121
07892	10.455470	2.544558	1.350196	0.660733	-1.139686	0.139404	0.060197	0.101536	0.993009	0.596011	-0.801667	0.045841	0.800717	0.589084	-0.108775
07893	11.095660	3.210769	1.480458	0.501527	-1.007573	0.078065	0.068753	0.106834	0.991897	0.599974	-0.798784	0.044447	0.797060	0.592056	-0.119017
07894	10.363850	3.136117	1.859654	0.055082	-0.747026	0.025710	0.074909	0.111015	0.990992	0.600394	-0.798489	0.044066	0.796188	0.591685	-0.126467
07895	9.214454	2.155625	1.305083	-0.370413	-0.630687	0.005107	0.079998	0.114668	0.990177	0.597446	-0.800676	0.044454	0.797909	0.588022	-0.132561
07896	8.709717	0.907187	0.663304	-0.443605	-0.707294	-0.005449	0.085667	0.118821	0.989213	0.593906	-0.803272	0.045053	0.799960	0.583640	-0.139382
07897	9.001516	0.059847	0.017680	-0.341600	-0.832138	-0.009063	0.092302	0.123705	0.988017	0.591184	-0.805247	0.045593	0.801238	0.579892	-0.147458
07898	9.381680	-0.535303	-0.681462	-0.205683	-0.926728	0.012005	0.099849	0.128935	0.986613	0.589523	-0.806456	0.045729	0.801556	0.577065	-0.156534
07899	9.663806	-0.972585	-1.266291	0.000339	-0.947193	0.038697	0.107692	0.134044	0.985106	0.589481	-0.806511	0.045301	0.800572	0.575823	-0.165871
07900	9.894080	-1.007075	-1.321888	0.226431	-0.893225	0.046964	0.115160	0.138777	0.983605	0.591236	-0.805276	0.044395	0.798234	0.576431	-0.174785
07901	10.099426	-0.901113	-0.605933	0.449694	-0.959972	0.035018	0.123042	0.143991	0.981900	0.594760	-0.802743	0.043190	0.794432	0.578680	-0.184411
07902	10.425471	-0.593920	0.375482	0.830576	-1.081862	-0.027687	0.131487	0.150466	0.979832	0.601364	-0.797880	0.041826	0.788082	0.583736	-0.195396
07903	10.531331	-0.112907	0.639827	1.121341	-0.988721	-0.069468	0.138849	0.156763	0.977827	0.610217	-0.791214	0.040196	0.779972	0.591106	-0.205519
07904	9.988548	0.270118	-0.012594	1.215170	-0.723522	-0.001217	0.144506	0.161046	0.976311	0.619641	-0.783984	0.037607	0.771468	0.599528	-0.213081
07905	9.272705	0.568318	-0.870050	1.102724	-0.543657	0.120295	0.149461	0.163312	0.975188	0.627885	-0.777564	0.033984	0.763821	0.607226	-0.218756
07906	9.011166	0.764451	-1.606774	0.942264	-0.611249	0.216581	0.155528	0.165331	0.973898	0.634714	-0.772175	0.029725	0.756934	0.613524	-0.225033
07907	9.365142	1.083594	-1.753808	0.791442	-0.892335	0.258742	0.163934	0.168757	0.971929	0.640220	-0.767774	0.025325	0.750496	0.618097	-0.233906
07908	10.372329	1.178784	-1.215912	0.635985	-1.225696	0.226110	0.174600	0.174586	0.969038	0.644585	-0.764229	0.021547	0.744329	0.620865	-0.245970
07909	11.744682	1.020281	0.342718	0.386755	-1.268568	0.163988	0.185101	0.181139	0.965881	0.647113	-0.762159	0.018921	0.739583	0.621532	-0.258293
07910	12.555702	0.739293	2.503037	0.037460	-0.867004	0.095603	0.192175	0.185761	0.963619	0.647202	-0.762109	0.017843	0.737698	0.620227	-0.266684
07911	12.444787	0.210548	4.065258	-0.263153	-0.295293	0.035138	0.194609	0.187225	0.962847	0.645127	-0.763860	0.018140	0.738877	0.617628	-0.269437
07912	11.458797	-0.556890	4.432423	-0.184282	0.098735	0.023572	0.194082	0.186403	0.963113	0.643711	-0.765049	0.018351	0.740249	0.616404	-0.268472
07913	10.442822	-1.074683	4.132589	0.236669	0.174756	0.060266	0.193201	0.184726	0.963613	0.645244	-0.763787	0.017050	0.739144	0.618471	-0.266757
07914	10.156427	-1.261660	3.673198	0.743217	0.041122	0.097399	0.193581	0.183696	0.963733	0.650523	-0.759356	0.014073	0.734402	0.624207	-0.266496
07915	10.487890	-1.346052	3.291362	1.044669	-0.127482	0.157861	0.195568	0.183125	0.963441	0.657715	-0.753205	0.009656	0.727437	0.631781	-0.267746
07916	11.281889	-1.697976	2.797174	1.155548	-0.249761	0.259606	0.199145	0.182735	0.962782	0.665553	-0.746340	0.003989	0.719292	0.639988	-0.270249
07917	12.473965	-2.422495	2.787721	1.235235	-0.240985	0.414753	0.203668	0.180988	0.962166	0.673380	-0.739288	-0.003476	0.710689	0.648611	-0.272443
07918	13.755034	-2.798081	3.592732	1.336843	0.036377	0.576499	0.207371	0.176480	0.962212	0.681627	-0.731589	-0.012719	0.701700	0.658507	-0.272003
07919	14.857344	-2.247098	5.319960	1.717366	0.632456	0.692330	0.207745	0.166972	0.963827	0.691944	-0.721547	-0.024143	0.691415	0.671930	-0.265433
07920	15.856199	-0.644832	7.663015	2.214112	1.117940	0.754220	0.205413	0.153942	0.966492	0.705540	-0.707691	-0.037232	0.678247	0.689547	-0.253981
07921	16.520030	0.747694	9.327661	2.081866	1.358530	0.740887	0.201566	0.138935	0.969571	0.717779	-0.694494	-0.049703	0.666456	0.705957	-0.239711
07922	15.697569	0.193886	9.080380	1.336278	1.780298	0.762480	0.195311	0.120973	0.973252	0.725122	-0.685980	-0.060251	0.660342	0.717494	-0.221700
07923	13.373215	-1.528722	7.731493	0.952152	2.289315	0.923954	0.186927	0.097738	0.977500	0.729339	-0.680413	-0.071439	0.658121	0.726282	-0.198472
07924	11.122149	-2.328552	6.233847	1.208922	2.342603	1.215988	0.180522	0.072350	0.980906	0.735025	-0.672608	-0.085660	0.653568	0.736454	-0.174599
07925	10.301223	-1.065328	6.027440	1.130443	2.081952	1.316972	0.176629	0.047667	0.983123	0.739707	-0.665361	-0.100637	0.649335	0.744998	-0.152782
07926	10.470767	0.429090	4.526743	0.484968	1.847713	1.050447	0.172468	0.026866	0.984649	0.741012	-0.662131	-0.111727	0.648965	0.748906	-0.134104
07927	11.376704	1.802118	1.904355	0.153896	1.618560	0.702377	0.167079	0.009608	0.985897	0.740471	-0.661462	-0.119041	0.650990	0.749917	-0.117631
07928	13.748673	3.413705	-0.320386	-0.176460	1.418048	0.493757	0.161529	-0.004315	0.986858	0.738498	-0.662797	-0.123776	0.654621	0.748787	-0.103875
07929	16.529355	4.577351	-3.801670	-0.229944	1.240652	0.068746	0.153796	-0.014512	0.987996	0.736541	-0.664852	-0.124419	0.658676	0.746834	-0.091563
07930	17.658228	5.713230	-8.478503	0.534223	1.321749	-0.399229	0.142210	-0.021787	0.989597	0.740637	-0.660924	-0.120984	0.656684	0.750137	-0.077854
07931	16.961635	6.918612	-10.912781	0.955236	1.668084	-0.646141	0.126383	-0.030483	0.991513	0.747475	-0.654191	-0.115389	0.652157	0.755715	-0.059894
07932	16.046013	7.283558	-9.467933	0.812079	2.087891	-0.617526	0.108226	-0.042315	0.993225	0.753474	-0.648258	-0.109720	0.648509	0.760244	-0.038275
07933	14.956722	7.014478	-6.365598	0.436878	2.485549	-0.499910	0.088235	-0.058268	0.994394	0.756603	-0.645396	-0.104953	0.647893	0.761622	-0.012861
07934	13.241196	5.881103	-4.078689	-0.573036	2.792011	-0.431020	0.066857	-0.076691	0.994811	0.753201	-0.650032	-0.100731	0.654384	0.756027	0.014305
07935	12.239059	4.039260	-4.601394	-1.577462	2.587277	-0.392556	0.046703	-0.093710	0.994504	0.742858	-0.662341	-0.097297	0.667818	0.743319	0.038679
07936	12.576505	2.226983	-6.066520	-2.171882	2.286272	-0.421421	0.028197	-0.107716	0.993782	0.728324	-0.678722	-0.094232	0.684652	0.726453	0.059314
07937	13.826363	0.328372	-5.310059	-2.669072	2.588695	-0.468889	0.006738	-0.123159	0.992364	0.709773	-0.698463	-0.091503	0.704399	0.704969	0.082709
07938	14.131430	-1.367109	-4.144725	-2.839478	3.071463	-0.493845	-0.018604	-0.140976	0.989838	0.689459	-0.718785	-0.089413	0.724086	0.680789	0.110570
07939	13.334477	-2.497892	-3.630360	-2.635175	3.154374	-0.485229	-0.045110	-0.158650	0.986304	0.669933	-0.737195	-0.087940	0.741050	0.656790	0.139540
07940	12.022636	-3.216658	-3.764110	-2.304462	2.910536	-0.395779	-0.069444	-0.174535	0.982199	0.652473	-0.752729	-0.087627	0.754624	0.634773	0.166152
07941	10.946403	-3.662367	-3.689685	-2.067989	2.573520	-0.303324	-0.091050	-0.188396	0.977863	0.636457	-0.766234	-0.088362	0.765919	0.614323	0.189671
07942	10.024503	-3.815409	-3.459218	-2.072266	2.488925	-0.192845	-0.111407	-0.201976	0.973034	0.620285	-0.779114	-0.090704	0.776424	0.593453	0.212081
07943	9.282068	-3.367467	-3.453344	-2.122707	2.527847	-0.156831	-0.132191	-0.215549	0.967504	0.603468	-0.791832	-0.093959	0.786353	0.571437	0.234750
07944	8.158824	-2.728340	-3.946522	-2.065611	2.614842	-0.113044	-0.153491	-0.229340	0.961168	0.586981	-0.803645	-0.098018	0.794917	0.549143	0.257970
07945	7.344108	-1.907887	-4.021456	-1.857160	2.559821	-0.092543	-0.174517	-0.242451	0.954338	0.571980	-0.813880	-0.102171	0.801488	0.528032	0.280713
07946	6.936622	-1.084947	-3.352131	-1.757289	2.381584	-0.114666	-0.194273	-0.253890	0.947522	0.557644	-0.823251	-0.106256	0.807026	0.507738	0.301516
07947	6.876488	-0.334337	-2.761100	-1.779603	2.139883	-0.188808	-0.212681	-0.263034	0.941052	0.542846	-0.832593	-0.110034	0.812456	0.487444	0.319864
07948	6.856242	0.467829	-2.440173	-1.879700	1.876588	-0.282719	-0.229451	-0.269664	0.935218	0.526905	-0.842298	-0.113598	0.818366	0.466706	0.335353
07949	7.031708	1.294191	-2.559968	-2.039110	1.587899	-0.385255	-0.244521	-0.273687	0.930217	0.509258	-0.852625	-0.116992	0.825146	0.445114	0.347863
07950	6.981550	1.626900	-3.238255	-2.278081	1.382513	-0.455627	-0.258216	-0.275816	0.925878	0.489238	-0.863735	-0.120862	0.833049	0.421767	0.357970
07951	6.622294	1.622387	-3.876114	-2.377570	1.291108	-0.516190	-0.271502	-0.276653	0.921819	0.468032	-0.874867	-0.124714	0.840972	0.397581	0.367010
07952	6.221264	1.290042	-4.268097	-2.286596	1.252160	-0.530618	-0.284464	-0.276863	0.917838	0.447262	-0.885141	-0.128381	0.847961	0.373994	0.375621
07953	5.722115	0.991582	-4.194641	-2.018685	1.153391	-0.502885	-0.296466	-0.276605	0.914110	0.428731	-0.893822	-0.131419	0.853403	0.352946	0.383577
07954	5.486622	1.079436	-3.746171	-1.786374	1.010957	-0.487961	-0.307128	-0.275749	0.910843	0.411991	-0.901291	-0.133937	0.857867	0.334123	0.390418
07955	5.249134	0.904637	-3.285185	-1.790991	0.907666	-0.475229	-0.316823	-0.274413	0.907921	0.395243	-0.908360	-0.136624	0.862210	0.315564	0.396248
07956	5.218368	0.137286	-2.880116	-1.716255	0.831865	-0.428022	-0.325632	-0.273113	0.905192	0.379054	-0.914777	-0.139645	0.866188	0.297644	0.401405
07957	5.072770	-0.837474	-2.097340	-1.477961	0.774123	-0.379461	-0.333716	-0.271888	0.902613	0.365144	-0.920037	-0.142134	0.869082	0.282152	0.406309
07958	5.148224	-1.570183	-1.294207	-0.935637	0.540830	-0.400368	-0.339828	-0.269748	0.900973	0.355677	-0.923697	-0.142397	0.870638	0.272065	0.409841
07959	5.920777	-2.377495	0.120392	-0.262834	0.245061	-0.484859	-0.343626	-0.265940	0.900665	0.351903	-0.925650	-0.139058	0.870681	0.269163	0.411662
07960	7.300103	-2.877853	1.434823	0.253679	-0.041184	-0.443224	-0.344794	-0.261777	0.901438	0.352605	-0.926117	-0.134075	0.869935	0.271623	0.411623
07961	8.209350	-3.809458	1.799151	0.131180	-0.220335	-0.275147	-0.343795	-0.258643	0.902723	0.352961	-0.926420	-0.131010	0.870186	0.273585	0.409790
07962	8.028043	-5.303387	-0.318693	0.188180	-0.248346	-0.310645	-0.342696	-0.255135	0.904138	0.353553	-0.926686	-0.127490	0.870379	0.275970	0.407775
07963	7.242427	-6.372266	-2.596994	1.128753	-0.281482	-0.549583	-0.342163	-0.249274	0.905973	0.361616	-0.924843	-0.117892	0.867270	0.287276	0.406589
07964	6.607235	-5.249864	-2.909361	2.344777	-0.365448	-0.846996	-0.342108	-0.240422	0.908383	0.378988	-0.919902	-0.100739	0.859843	0.309803	0.405823
07965	6.196044	-2.800845	-1.664993	3.075728	-0.404942	-1.022050	-0.342581	-0.229769	0.910958	0.401884	-0.912279	-0.078967	0.849192	0.339047	0.404870
07966	5.588884	-1.714409	-0.022971	3.309874	-0.353572	-1.066405	-0.343977	-0.218885	0.913110	0.426147	-0.902925	-0.055910	0.836707	0.369887	0.403863
07967	5.860901	-1.833091	1.558053	3.572111	-0.459186	-1.057929	-0.344750	-0.207642	0.915441	0.452245	-0.891324	-0.031858	0.822570	0.403021	0.401190
07968	7.361693	-1.330381	5.027046	3.955955	-0.543178	-0.847212	-0.344242	-0.197912	0.917784	0.481564	-0.876371	-0.008358	0.805974	0.439095	0.396991
07969	9.270249	0.003089	10.176933	4.293399	-0.209150	-0.660173	-0.345800	-0.191253	0.918610	0.513539	-0.857940	0.014695	0.785302	0.476824	0.394892
07970	10.351998	1.147759	14.806944	4.616194	0.187508	-0.568436	-0.350221	-0.187411	0.917727	0.547259	-0.836096	0.038102	0.760166	0.515579	0.395380
07971	10.433086	2.491442	15.688153	4.534348	0.124888	-0.570588	-0.354323	-0.183404	0.916961	0.579189	-0.812891	0.061216	0.734163	0.552784	0.394252
07972	8.001555	2.983887	11.901487	3.453503	-0.485744	-0.569566	-0.354119	-0.176111	0.918469	0.602227	-0.794318	0.079885	0.715487	0.581416	0.387342
07973	6.286255	3.964143	8.108203	2.409409	-1.686066	-0.333729	-0.344141	-0.163533	0.924567	0.618220	-0.780597	0.092045	0.706661	0.603262	0.369735
07974	5.874018	5.199222	5.102063	1.869739	-2.713614	-0.098960	-0.325568	-0.146178	0.934151	0.631099	-0.769286	0.099569	0.704074	0.621958	0.342707
07975	6.576633	6.088882	-0.275372	1.549387	-2.993689	-0.088127	-0.305039	-0.126679	0.943877	0.641752	-0.759628	0.105449	0.703637	0.637901	0.313013
07976	8.018877	6.479395	-4.405823	1.035822	-2.649274	-0.112162	-0.287055	-0.108820	0.951713	0.648733	-0.753088	0.109561	0.704802	0.648858	0.286773
07977	9.707034	5.694106	-3.453930	-0.346031	-2.028661	0.124204	-0.271848	-0.096606	0.957479	0.646702	-0.755141	0.107421	0.712654	0.648405	0.267759
07978	12.970124	3.280464	1.527747	-2.098279	-1.303731	0.695226	-0.257946	-0.093578	0.961617	0.633428	-0.767926	0.095182	0.729543	0.633667	0.257358
07979	17.088289	1.192201	10.043538	-3.624176	-0.157640	1.490962	-0.247474	-0.104196	0.963276	0.610452	-0.788819	0.071506	0.752400	0.605729	0.258819
07980	16.261933	-1.886482	16.438294	-5.446781	0.731265	1.653571	-0.243256	-0.121797	0.962285	0.572703	-0.818730	0.041146	0.782840	0.561112	0.268914
07981	13.740914	-8.368481	10.597813	-6.025533	-0.578244	0.784826	-0.234304	-0.125262	0.964060	0.526423	-0.850043	0.017494	0.817301	0.511602	0.265109
07982	13.201429	-12.030634	5.268555	-5.215809	-1.663351	-0.315840	-0.222005	-0.114426	0.968308	0.482291	-0.875983	0.007060	0.847413	0.468574	0.249659
07983	12.561224	-14.833618	3.424895	-3.756014	-1.526659	-0.497151	-0.211227	-0.103180	0.971976	0.448967	-0.893544	0.002714	0.868223	0.436959	0.235065
07984	11.717007	-14.780512	2.914267	-1.439455	-1.112707	-0.305567	-0.202829	-0.095690	0.974527	0.435787	-0.900047	0.002323	0.876898	0.425157	0.224256
07985	9.926973	-10.749647	2.027055	0.993588	-0.769082	-0.106980	-0.196573	-0.091550	0.976206	0.444135	-0.895944	0.005410	0.874130	0.434630	0.216779
07986	8.197543	-5.592418	-0.000966	3.238852	-0.616427	-0.008935	-0.191225	-0.088747	0.977526	0.472222	-0.881393	0.012358	0.860488	0.463973	0.210453
07987	7.005262	0.288647	-1.667920	4.611067	-0.416714	0.021762	-0.187578	-0.087074	0.978383	0.511256	-0.859158	0.021556	0.838708	0.504248	0.205677
07988	5.560797	5.756872	-3.216917	4.579268	-0.302647	-0.217157	-0.186181	-0.083692	0.978944	0.548732	-0.835349	0.032945	0.815003	0.543312	0.201451
07989	4.798074	9.436202	-4.937487	3.597834	-0.587506	-0.562422	-0.184601	-0.075900	0.979878	0.576528	-0.815814	0.045422	0.795951	0.573312	0.194358
07990	6.223565	10.773690	-5.853558	2.370730	-1.647646	-0.791374	-0.176159	-0.059922	0.982536	0.593853	-0.802514	0.057529	0.785052	0.593616	0.176955
07991	9.576291	9.201281	-5.520531	0.428579	-2.778895	-0.650349	-0.158155	-0.038224	0.986674	0.596085	-0.800323	0.064543	0.787191	0.598349	0.149360
07992	12.576669	6.191872	-6.592502	-1.357911	-3.077237	-0.158705	-0.134626	-0.018727	0.990720	0.585085	-0.808425	0.064224	0.799719	0.588302	0.119792
07993	13.588525	2.028044	-8.710541	-1.991375	-2.579817	0.395055	-0.111488	-0.006999	0.993741	0.569524	-0.819917	0.058121	0.814379	0.572439	0.095397
07994	12.916061	-2.498274	-10.902447	-1.405477	-1.684689	0.646675	-0.093991	-0.002821	0.995569	0.558680	-0.827851	0.050399	0.824040	0.560942	0.079386
07995	12.271120	-4.779582	-9.954066	-0.527871	-1.043730	0.636639	-0.081772	-0.002264	0.996649	0.554948	-0.830739	0.043644	0.827856	0.556657	0.069188
07996	11.899964	-4.323526	-6.394598	-0.018188	-0.653632	0.414270	-0.074012	-0.002110	0.997255	0.555124	-0.830832	0.039441	0.828468	0.556519	0.062663
07997	10.789900	-2.865909	-2.486250	0.870737	-0.269893	0.141627	-0.070917	-0.001761	0.997481	0.562494	-0.825903	0.038533	0.823754	0.563809	0.059561
07998	9.192807	-0.024359	0.330917	2.123558	-0.275985	-0.073612	-0.069033	0.000382	0.997614	0.579813	-0.813746	0.040434	0.811820	0.581221	0.055954
07999	8.080741	3.953762	0.923053	2.342948	-0.748437	-0.230013	-0.064282	0.006668	0.997909	0.598592	-0.799850	0.043904	0.798471	0.600163	0.047425
08000	8.448786	5.921317	-0.571348	1.366406	-1.258574	-0.304566	-0.056070	0.016674	0.998288	0.609271	-0.791542	0.047441	0.790977	0.610888	0.034223
08001	9.548215	5.604649	-1.667123	0.569597	-1.345662	-0.288646	-0.047136	0.027237	0.998517	0.613712	-0.787916	0.050463	0.788122	0.615181	0.020424
08002	10.539597	4.972877	-0.733561	0.191497	-1.165109	-0.194611	-0.039103	0.035905	0.998590	0.615139	-0.786677	0.052374	0.787448	0.616320	0.008675
08003	10.827342	4.106179	1.586271	-0.480000	-0.827946	-0.127496	-0.033285	0.042059	0.998561	0.611431	-0.789478	0.053633	0.790597	0.612336	0.000561
08004	10.290995	1.575853	2.757016	-1.605721	-0.526253	-0.091494	-0.029602	0.045936	0.998506	0.598630	-0.799169	0.054513	0.800479	0.599349	-0.003841
08005	9.593493	-1.587745	1.535890	-2.016945	-0.653072	-0.027018	-0.024436	0.050079	0.998446	0.582485	-0.810983	0.054932	0.812474	0.582923	-0.009353
08006	9.434600	-3.893967	0.117440	-1.509298	-0.983305	-0.065229	-0.016731	0.056240	0.998277	0.570143	-0.819653	0.055732	0.821375	0.570093	-0.018351
08007	9.422821	-4.904373	-0.881421	-0.514474	-1.173792	-0.093409	-0.007543	0.063715	0.997940	0.566004	-0.822445	0.056788	0.824368	0.565266	-0.029859
08008	9.294680	-3.992873	-1.837745	0.574798	-1.270409	-0.080352	0.002501	0.071540	0.997435	0.570731	-0.819134	0.057321	0.821133	0.569124	-0.042878
08009	9.425546	-1.710363	-2.100917	1.421211	-1.257749	0.003330	0.012863	0.078763	0.996810	0.582418	-0.810919	0.056560	0.812788	0.579833	-0.056304
08010	9.917244	0.456682	-1.539571	1.628340	-1.172020	0.143850	0.023227	0.084432	0.996159	0.595547	-0.801500	0.054047	0.802985	0.592004	-0.068900
08011	10.221468	2.178014	-1.214064	1.487991	-1.132801	0.173846	0.033388	0.089841	0.995396	0.607448	-0.792709	0.051172	0.793657	0.602943	-0.081040
08012	10.623409	3.431406	-0.279120	1.309224	-1.048227	0.078436	0.042193	0.095554	0.994530	0.617752	-0.784832	0.049198	0.785240	0.612297	-0.092143
08013	10.800921	4.267875	1.731368	0.882285	-0.830411	-0.006111	0.048718	0.100752	0.993718	0.624738	-0.779334	0.048387	0.779313	0.618456	-0.100911
08014	10.196798	3.935745	3.481979	0.007721	-0.632959	-0.058104	0.053337	0.105081	0.993032	0.624825	-0.779232	0.048897	0.778941	0.617863	-0.107219
08015	9.576949	2.250924	3.078488	-0.583643	-0.740709	-0.036844	0.058944	0.109969	0.992186	0.620373	-0.782718	0.049897	0.782089	0.612584	-0.114358
08016	9.364014	1.037309	2.038831	-0.503381	-0.862974	-0.021226	0.065623	0.115364	0.991153	0.616440	-0.785772	0.050645	0.784663	0.607663	-0.122680
08017	9.418307	0.720316	2.148019	-0.230178	-0.875631	-0.044840	0.072269	0.121059	0.990011	0.614735	-0.787059	0.051367	0.785416	0.604883	-0.131299
08018	9.454792	0.566521	2.402882	-0.071562	-0.899963	-0.091425	0.078825	0.127177	0.988743	0.614239	-0.787385	0.052309	0.785174	0.603201	-0.140183
08019	9.598742	0.334662	1.887011	0.204107	-0.957566	-0.085736	0.085849	0.133649	0.987303	0.615965	-0.786000	0.052839	0.783082	0.603608	-0.149801
08020	9.572660	0.553561	0.802618	0.469820	-0.960952	-0.062547	0.093020	0.139915	0.985785	0.619686	-0.783080	0.052670	0.779318	0.605978	-0.159545
08021	9.511669	0.836561	-0.439801	0.611292	-0.922120	-0.051333	0.099905	0.145928	0.984238	0.624526	-0.779262	0.052144	0.774588	0.609472	-0.168988
08022	9.551324	0.781542	-1.515734	0.522365	-0.861748	-0.043841	0.106338	0.151496	0.982721	0.628601	-0.776014	0.051611	0.770424	0.612251	-0.177751
08023	9.435589	0.601908	-2.651479	0.326547	-0.795870	-0.016773	0.112392	0.156511	0.981261	0.631168	-0.773958	0.051154	0.767461	0.613591	-0.185771
08024	9.342363	0.287696	-3.512233	0.177609	-0.826163	0.021288	0.118909	0.161380	0.979703	0.632498	-0.772911	0.050549	0.765380	0.613649	-0.193978
08025	9.525493	-0.095032	-3.778533	0.187145	-1.031375	0.108877	0.127519	0.166880	0.977696	0.633836	-0.771909	0.049085	0.762883	0.613440	-0.204208
08026	10.107446	-0.037755	-2.858048	0.363565	-1.262318	0.195454	0.138416	0.173085	0.975132	0.636335	-0.770019	0.046353	0.758893	0.614095	-0.216723
08027	11.321008	0.462252	-0.000752	0.556161	-1.261878	0.228029	0.149455	0.179112	0.972410	0.640255	-0.766965	0.042866	0.753483	0.616184	-0.229304
08028	12.776056	0.994341	3.264536	0.425947	-1.085199	0.195098	0.158911	0.184277	0.969943	0.643146	-0.764703	0.039914	0.749073	0.617472	-0.240037
08029	13.095255	1.273030	5.235424	0.177667	-0.575279	0.113111	0.163981	0.186962	0.968584	0.644314	-0.763799	0.038351	0.746974	0.617784	-0.245711
08030	11.627458	1.021066	5.483371	0.020907	0.090773	0.115493	0.164098	0.185484	0.968849	0.644272	-0.763895	0.037123	0.746984	0.618110	-0.244856
08031	9.825588	0.492172	4.816244	-0.010228	0.131461	0.164300	0.164207	0.183376	0.969231	0.643913	-0.764274	0.035507	0.747270	0.618270	-0.243577
08032	9.301603	-0.135379	3.783958	0.026583	-0.256327	0.131245	0.167018	0.183922	0.968647	0.643885	-0.764361	0.034112	0.746671	0.618000	-0.246086
08033	9.842458	-1.111982	2.708574	0.060473	-0.569195	0.079155	0.171804	0.186759	0.967266	0.644158	-0.764175	0.033132	0.745348	0.617380	-0.251590
08034	10.880565	-2.390995	2.278158	0.161127	-0.619625	0.117725	0.177226	0.189650	0.965725	0.645142	-0.763412	0.031526	0.743225	0.617442	-0.257648
08035	11.868235	-3.431289	2.605872	0.425471	-0.431908	0.262006	0.182155	0.190213	0.964696	0.647747	-0.761348	0.027810	0.739759	0.619813	-0.261894
08036	12.275604	-3.743491	3.317204	0.805770	-0.078417	0.392095	0.185334	0.187690	0.964585	0.652955	-0.757081	0.021855	0.734371	0.625780	-0.262866
08037	12.147035	-3.604111	4.089653	1.035692	0.270650	0.534266	0.186901	0.181790	0.965412	0.659408	-0.751657	0.013880	0.728182	0.634007	-0.260359
08038	12.221276	-3.447856	4.868046	1.221456	0.415524	0.647035	0.188233	0.174259	0.966541	0.667034	-0.745014	0.004415	0.720857	0.643885	-0.256473
08039	12.575766	-3.156365	5.895000	1.366647	0.621487	0.723837	0.188678	0.164634	0.968141	0.675291	-0.737525	-0.006188	0.713009	0.654945	-0.250330
08040	12.783139	-2.597314	7.114178	1.610403	1.001921	0.787899	0.186992	0.152197	0.970500	0.685210	-0.728127	-0.017836	0.703933	0.668332	-0.240441
08041	13.398468	-1.390085	8.766534	2.229226	1.306544	0.813602	0.183546	0.137192	0.973390	0.699027	-0.714418	-0.031119	0.691138	0.686138	-0.227030
08042	14.423731	0.311849	10.520106	2.603687	1.410191	0.781909	0.179495	0.121822	0.976187	0.715387	-0.697309	-0.044521	0.675280	0.706342	-0.212314
08043	14.330073	1.625843	10.010351	2.240756	1.600565	0.727650	0.174065	0.105008	0.979119	0.728817	-0.682383	-0.056382	0.662214	0.723413	-0.195311
08044	12.434340	1.672032	6.561304	1.826727	1.801251	0.859026	0.168590	0.086013	0.981926	0.739338	-0.669866	-0.068262	0.651887	0.737483	-0.176525
08045	11.070499	1.510430	4.126170	1.313903	1.713129	1.039552	0.165189	0.065982	0.984052	0.745832	-0.661207	-0.080865	0.645327	0.747296	-0.158436
08046	10.853215	1.648587	2.971008	0.294679	1.569898	1.048106	0.162929	0.047277	0.985504	0.746004	-0.659599	-0.091691	0.645703	0.750130	-0.142737
08047	11.571206	1.762984	1.539232	-0.965807	1.385875	0.882894	0.160430	0.030658	0.986571	0.737992	-0.667468	-0.099265	0.655461	0.744007	-0.129707
08048	12.681067	1.851844	-1.885469	-1.041297	0.975073	0.504242	0.157750	0.020021	0.987276	0.730306	-0.675311	-0.102996	0.664656	0.737262	-0.121152
08049	15.211148	2.059255	-5.188328	0.431316	0.600009	0.012364	0.153809	0.015111	0.987985	0.732855	-0.672420	-0.103805	0.662772	0.740016	-0.114498
08050	17.933452	3.244831	-7.729978	1.792316	0.473097	-0.442439	0.147488	0.014497	0.988958	0.745278	-0.658985	-0.101487	0.650237	0.752016	-0.107997
08051	19.932293	5.357694	-9.583012	1.379782	0.968780	-0.845138	0.134840	0.012358	0.990790	0.755138	-0.648693	-0.094678	0.641549	0.760950	-0.096801
08052	19.199323	6.523145	-9.761783	0.676746	2.237125	-0.991089	0.113058	0.001657	0.993587	0.760691	-0.643460	-0.085484	0.639192	0.765478	-0.074009
08053	16.258183	6.906475	-7.985075	0.594774	3.089929	-0.907512	0.086345	-0.016471	0.996129	0.765223	-0.639156	-0.076898	0.637948	0.768901	-0.042584
08054	13.209157	5.849122	-5.658888	0.137936	3.171790	-0.624946	0.061358	-0.036898	0.997434	0.766559	-0.638262	-0.070767	0.639235	0.768934	-0.010878
08055	11.404351	3.499238	-4.518710	-0.821697	3.007220	-0.348894	0.039286	-0.057845	0.997552	0.761338	-0.644844	-0.067376	0.647163	0.762122	0.018706
08056	11.204207	0.759232	-4.543583	-1.941527	2.794552	-0.147290	0.019926	-0.078011	0.996753	0.748662	-0.659599	-0.066590	0.662653	0.747558	0.045260
08057	12.761630	-0.703528	-4.029442	-2.477163	2.720929	-0.166012	0.000348	-0.097106	0.995274	0.731951	-0.678112	-0.066417	0.681357	0.728515	0.070841
08058	14.267476	-1.246632	-3.326444	-2.699760	2.940369	-0.203055	-0.021384	-0.116846	0.992920	0.713272	-0.697702	-0.066744	0.700561	0.706794	0.098263
08059	13.771040	-2.068281	-3.281210	-2.757432	3.236601	-0.158995	-0.045535	-0.138316	0.989341	0.693586	-0.717125	-0.068336	0.718933	0.683082	0.128588
08060	12.128471	-3.281606	-3.673466	-2.398083	3.242055	-0.154760	-0.070089	-0.159018	0.984785	0.676081	-0.733465	-0.070318	0.733487	0.660865	0.158917
08061	10.426038	-3.636381	-3.557541	-1.801513	3.011312	-0.210337	-0.093779	-0.177170	0.979702	0.662563	-0.745594	-0.071412	0.743112	0.642418	0.187308
08062	9.415059	-3.450381	-3.283279	-1.529954	2.753737	-0.228129	-0.115790	-0.192959	0.974351	0.650903	-0.755709	-0.072307	0.750278	0.625836	0.213101
08063	8.568737	-2.957474	-3.318644	-1.502888	2.670406	-0.204806	-0.137269	-0.207964	0.968457	0.639287	-0.765423	-0.073753	0.756617	0.608998	0.238018
08064	7.884072	-1.862707	-3.065407	-1.522697	2.651593	-0.164271	-0.158399	-0.222657	0.961943	0.627485	-0.774907	-0.076039	0.762346	0.591560	0.262459
08065	7.120533	-0.531452	-2.520395	-1.745888	2.548362	-0.210691	-0.179243	-0.235904	0.955103	0.613743	-0.785559	-0.078848	0.768890	0.572055	0.285591
08066	6.736174	0.299661	-2.285240	-2.062344	2.281885	-0.343980	-0.198917	-0.246028	0.948632	0.597159	-0.797948	-0.081731	0.777067	0.550227	0.305643
08067	6.950595	0.900207	-2.437777	-2.258929	1.990701	-0.487245	-0.217355	-0.252883	0.942766	0.578492	-0.811325	-0.084255	0.786196	0.527069	0.322636
08068	7.260826	1.655535	-2.703168	-2.192222	1.735456	-0.626647	-0.234594	-0.256756	0.937572	0.559757	-0.824218	-0.085654	0.794756	0.504719	0.337078
08069	7.456617	2.546818	-3.201484	-2.121571	1.519223	-0.760690	-0.250914	-0.257982	0.932999	0.541002	-0.836629	-0.085842	0.802720	0.483215	0.349491
08070	7.183204	2.856510	-3.866607	-2.127863	1.365854	-0.816428	-0.266226	-0.257601	0.928852	0.521739	-0.848774	-0.085853	0.810501	0.461762	0.360366
08071	6.732894	3.085020	-4.340923	-2.096534	1.220979	-0.784827	-0.280166	-0.256428	0.925069	0.502611	-0.860202	-0.086226	0.817857	0.440792	0.369882
08072	6.193824	2.925881	-4.444797	-2.104534	1.169191	-0.684089	-0.293100	-0.255584	0.921287	0.483378	-0.870993	-0.087848	0.824887	0.419581	0.378832
08073	5.838241	2.832029	-4.385551	-1.865876	1.066386	-0.627516	-0.304864	-0.254472	0.917770	0.466195	-0.880175	-0.089187	0.830494	0.400670	0.386967
08074	5.675492	2.431609	-3.691292	-1.516913	0.980610	-0.576297	-0.315633	-0.253278	0.914454	0.451795	-0.887581	-0.089894	0.834420	0.384773	0.394580
08075	5.378136	1.547319	-3.181924	-1.085683	0.820137	-0.541365	-0.324842	-0.251566	0.911697	0.441174	-0.892977	-0.089208	0.836566	0.373238	0.401061
08076	4.397432	0.053335	-2.985494	-0.635670	0.583070	-0.539791	-0.332046	-0.248941	0.909821	0.434098	-0.896663	-0.086914	0.837439	0.366092	0.405798
08077	3.727757	-1.823696	-3.324197	-0.194542	0.087132	-0.434619	-0.334584	-0.245353	0.909866	0.431227	-0.898355	-0.083674	0.837912	0.364363	0.406378
08078	3.876117	-4.643414	-4.003654	0.092003	-0.328066	-0.246449	-0.332858	-0.241991	0.911398	0.431194	-0.898605	-0.081115	0.838616	0.365990	0.403453
08079	4.559565	-7.174773	-4.783985	0.568637	-0.571327	-0.154700	-0.328660	-0.238486	0.913842	0.435649	-0.896787	-0.077356	0.837969	0.372690	0.398634
08080	5.370231	-7.233717	-3.923763	1.399044	-0.636994	-0.049375	-0.323514	-0.235676	0.916404	0.447201	-0.891578	-0.071418	0.833876	0.386712	0.393832
08081	5.976714	-5.113001	-2.372858	2.524019	-0.449062	-0.285159	-0.321011	-0.231357	0.918382	0.467366	-0.882103	-0.058855	0.823724	0.410328	0.391293
08082	5.962851	-2.505455	-0.261954	3.512999	-0.077700	-0.576751	-0.323109	-0.226025	0.918974	0.494175	-0.868449	-0.039848	0.807088	0.441259	0.392300
08083	5.874356	-0.240926	2.171371	4.146644	0.231844	-0.709573	-0.328481	-0.220990	0.918294	0.525026	-0.850917	-0.016969	0.785142	0.476555	0.395535
08084	5.422324	1.514211	7.518652	4.625153	0.312294	-0.847799	-0.335440	-0.215456	0.917093	0.557948	-0.829826	0.009123	0.759062	0.514750	0.398570
08085	6.647264	1.917842	16.787441	4.219637	0.551663	-0.954633	-0.344932	-0.210566	0.914704	0.586321	-0.809331	0.034790	0.732973	0.548311	0.402624
08086	8.833538	1.358268	20.167361	3.456598	0.501117	-0.803126	-0.353300	-0.206992	0.912323	0.608488	-0.791582	0.056041	0.710578	0.574937	0.405619
08087	10.914986	1.818391	18.372212	2.680103	0.141696	-0.730196	-0.358746	-0.202114	0.911291	0.624785	-0.777324	0.073556	0.693502	0.595749	0.405140
08088	12.561461	1.848229	17.817248	0.884745	-0.613943	0.031984	-0.354249	-0.198718	0.913794	0.631041	-0.771942	0.076764	0.690141	0.603835	0.398859
08089	9.150265	1.291408	18.293155	-0.093797	-1.983944	1.036276	-0.333906	-0.194735	0.922272	0.633984	-0.770451	0.066854	0.697546	0.607028	0.380717
08090	4.629835	0.184303	9.719956	-1.123077	-3.107990	1.215515	-0.304229	-0.185341	0.934395	0.629950	-0.774933	0.051393	0.714568	0.604258	0.352513
08091	4.649077	2.756571	-5.421294	-0.912567	-4.074168	0.658834	-0.270625	-0.165897	0.948283	0.625222	-0.779311	0.042092	0.732024	0.604278	0.314624
08092	8.824344	5.816071	-11.122211	-1.301564	-3.303575	0.086387	-0.245580	-0.146732	0.958207	0.615822	-0.787001	0.037316	0.748634	0.599249	0.283632
08093	10.498642	3.585234	-7.843122	-2.785131	-1.508560	0.214888	-0.232812	-0.139576	0.962454	0.595244	-0.803074	0.027523	0.769080	0.579302	0.270047
08094	13.209452	-0.449433	-1.110252	-1.983980	-0.727235	0.571354	-0.223762	-0.140077	0.964525	0.581169	-0.813612	0.016666	0.782415	0.564281	0.263464
08095	16.517985	-2.929743	12.712130	-2.278301	1.015838	1.196417	-0.224867	-0.155513	0.961899	0.565989	-0.824412	-0.000972	0.793153	0.544206	0.273402
08096	19.780651	-8.144873	16.407932	-6.383411	1.695088	0.860897	-0.233871	-0.171542	0.957015	0.516349	-0.855945	-0.027243	0.823825	0.487782	0.288756
08097	18.308723	-15.014133	5.800557	-5.051981	-0.036825	0.267167	-0.232230	-0.173737	0.957019	0.474725	-0.879014	-0.044379	0.848944	0.444015	0.286610
08098	14.017950	-11.277401	3.454694	-1.539514	-1.122369	-0.184122	-0.223467	-0.167241	0.960257	0.461173	-0.886065	-0.046997	0.858710	0.432342	0.275133
08099	9.757344	-5.859662	2.689394	-0.374112	-0.836249	-0.515458	-0.218636	-0.159151	0.962741	0.456744	-0.888550	-0.043161	0.862313	0.430290	0.266960
08100	6.714649	-2.775346	1.090787	0.875372	-0.107405	-0.675526	-0.220777	-0.152739	0.963290	0.462804	-0.885794	-0.034381	0.858528	0.438224	0.266251
08101	5.129335	0.864928	-0.005716	2.077135	0.339089	-0.632346	-0.226646	-0.148782	0.962546	0.479018	-0.877508	-0.022845	0.848041	0.455900	0.270153
08102	4.280317	4.984938	-2.646138	2.293903	0.143054	-0.456052	-0.230036	-0.145516	0.962242	0.497311	-0.867485	-0.012298	0.836520	0.475704	0.271919
08103	3.925689	6.595379	-4.248453	1.197045	-0.753663	-0.587200	-0.226681	-0.136892	0.964301	0.505896	-0.862587	-0.003531	0.832277	0.487036	0.264785
08104	5.382031	5.014101	-6.810030	-0.538033	-2.000616	-0.801313	-0.213944	-0.120288	0.969411	0.499645	-0.866226	0.002784	0.839394	0.484957	0.245425
08105	7.549189	3.034233	-10.494031	-0.453728	-3.015499	-0.417925	-0.190554	-0.102099	0.976353	0.494972	-0.868890	0.005742	0.847757	0.484362	0.216106
08106	9.289583	1.472174	-12.950477	0.709576	-3.548392	0.338629	-0.158691	-0.087723	0.983424	0.501598	-0.865092	0.003773	0.850421	0.493882	0.181284
08107	11.429218	0.393438	-14.089398	1.655542	-3.658790	0.616783	-0.124434	-0.074654	0.989415	0.516588	-0.856234	0.000364	0.847144	0.511165	0.145110
08108	14.461657	0.688621	-11.802044	1.824149	-3.258967	0.381579	-0.094874	-0.060998	0.993619	0.532411	-0.846485	-0.001129	0.841152	0.528907	0.112786
08109	17.730486	2.157269	-7.175669	1.196356	-2.273874	0.033258	-0.075533	-0.049082	0.995935	0.542594	-0.839995	-0.000246	0.836592	0.540369	0.090079
08110	18.492467	3.079746	-2.702481	0.382476	-0.909173	-0.124778	-0.068567	-0.043149	0.996713	0.545704	-0.837977	0.001264	0.835168	0.543996	0.081004
08111	13.354508	1.567538	-1.514121	-0.746338	0.309217	-0.088957	-0.071542	-0.044002	0.996467	0.539552	-0.841951	0.001559	0.838907	0.537757	0.083976
08112	8.852195	-0.420684	-1.773288	-0.691816	0.311788	-0.079427	-0.074544	-0.045043	0.996200	0.533681	-0.845684	0.001698	0.842394	0.531780	0.087079
08113	6.743377	-1.043432	-0.870493	0.187601	-0.561639	-0.071918	-0.070100	-0.041362	0.996682	0.535381	-0.844607	0.002604	0.841697	0.533787	0.081351
08114	6.685853	-0.285354	-0.061217	0.496020	-1.353134	-0.146975	-0.059467	-0.032911	0.997688	0.539459	-0.842001	0.004379	0.839910	0.538472	0.067825
08115	8.335709	0.575737	-0.457994	0.403522	-1.695774	-0.194136	-0.046187	-0.022028	0.998690	0.542910	-0.839765	0.006585	0.838520	0.542503	0.050746
08116	10.085080	1.345686	-1.069780	0.649810	-1.637805	-0.132091	-0.033152	-0.012032	0.999378	0.548299	-0.836243	0.008120	0.835625	0.548227	0.034320
08117	10.810334	1.989572	-1.303048	0.789809	-1.383611	-0.111816	-0.022138	-0.003369	0.999749	0.555026	-0.831779	0.009487	0.831539	0.555096	0.020284
08118	10.648064	2.065050	-1.193552	0.689201	-1.170732	-0.134873	-0.013130	0.004240	0.999905	0.560720	-0.827934	0.010874	0.827901	0.560810	0.008493
08119	10.271963	1.849908	-0.397260	0.525849	-1.068961	-0.066218	-0.004574	0.010921	0.999930	0.565248	-0.824840	0.011594	0.824908	0.565261	-0.002401
08120	9.761634	1.453455	0.747217	0.151029	-0.928053	0.011219	0.003189	0.016038	0.999866	0.566492	-0.823988	0.011411	0.824061	0.566380	-0.011713
08121	9.324439	0.472804	1.871917	-0.486581	-0.751500	0.030336	0.009653	0.020153	0.999750	0.562668	-0.826607	0.011230	0.826627	0.562419	-0.019319
08122	9.074108	-1.008199	2.641007	-0.988925	-0.718831	0.054755	0.015967	0.023671	0.999592	0.554458	-0.832141	0.010849	0.832059	0.554058	-0.026411
08123	9.227651	-2.139411	3.106384	-0.847989	-0.904177	0.054965	0.023897	0.028303	0.999314	0.547552	-0.836704	0.010604	0.836430	0.546923	-0.035493
08124	9.334388	-1.971986	3.144166	-0.138118	-1.190947	-0.043986	0.033667	0.035134	0.998815	0.546407	-0.837447	0.011040	0.836843	0.545388	-0.047392
08125	9.204693	-0.831932	2.354414	0.357977	-1.412675	-0.133843	0.044815	0.044069	0.998023	0.549601	-0.835338	0.012206	0.834225	0.547967	-0.061656
08126	9.351863	0.350624	1.565474	0.537410	-1.496005	-0.135258	0.056568	0.053381	0.996971	0.554139	-0.832320	0.013123	0.830500	0.551718	-0.076663
08127	9.924134	1.177129	0.689555	0.518200	-1.551790	-0.099294	0.068945	0.062879	0.995637	0.558629	-0.829305	0.013691	0.826547	0.555248	-0.092302
08128	9.964799	1.418967	-0.190732	0.476464	-1.437046	-0.101116	0.080276	0.071676	0.994192	0.562629	-0.826588	0.014163	0.822803	0.558225	-0.106682
08129	9.618437	1.741384	-0.705281	0.481665	-1.264847	-0.102977	0.090143	0.079694	0.992735	0.566803	-0.823723	0.014659	0.818907	0.561364	-0.119424
08130	9.663419	2.395298	-0.814452	0.254730	-1.219568	-0.080761	0.099703	0.087171	0.991191	0.568957	-0.822229	0.015081	0.816301	0.562441	-0.131576
08131	9.872217	2.320629	-0.699405	-0.379900	-1.179473	-0.037349	0.109184	0.094188	0.989549	0.566033	-0.824228	0.015998	0.817120	0.558370	-0.143306
08132	9.975407	0.809214	-0.376568	-1.119573	-1.120903	-0.041625	0.118185	0.100693	0.987873	0.556897	-0.830386	0.018015	0.822130	0.548014	-0.154215
08133	10.059551	-1.858066	-0.224938	-1.640447	-0.992121	-0.040168	0.126213	0.106497	0.986270	0.543540	-0.839119	0.021051	0.829840	0.533420	-0.163793
08134	10.862203	-3.290423	0.778325	-1.146243	-0.985642	-0.053759	0.134172	0.112113	0.984596	0.534063	-0.845120	0.023454	0.834731	0.522689	-0.173267
08135	12.142680	-3.045574	3.528520	-0.359725	-0.910447	-0.087795	0.141360	0.117675	0.982939	0.531298	-0.846817	0.024971	0.835308	0.518703	-0.182227
08136	12.985216	-1.961111	5.479617	0.266950	-0.685821	-0.213048	0.145992	0.122998	0.981610	0.533822	-0.845181	0.026509	0.832899	0.520135	-0.189048
08137	12.524196	-0.390520	5.367034	0.913366	-0.385944	-0.348277	0.147372	0.127989	0.980765	0.541986	-0.839915	0.028168	0.827365	0.527410	-0.193148
08138	11.287749	0.946166	4.541643	1.301142	-0.153265	-0.357909	0.146720	0.131757	0.980364	0.553222	-0.832526	0.029094	0.820011	0.538090	-0.195039
08139	9.806882	1.238833	3.816434	1.398243	-0.113349	-0.200341	0.146567	0.134040	0.980077	0.564965	-0.824630	0.028292	0.811993	0.549563	-0.196591
08140	8.902806	0.876089	3.344518	1.385657	-0.304845	0.036928	0.149288	0.135389	0.979481	0.576096	-0.816996	0.025124	0.803633	0.560524	-0.199965
08141	8.654504	0.145420	3.159620	1.317615	-0.654730	0.293821	0.156264	0.136691	0.978211	0.586200	-0.809931	0.019534	0.794954	0.570375	-0.206691
08142	8.827649	-0.662959	2.910612	1.203767	-0.973914	0.421166	0.166500	0.138850	0.976216	0.595028	-0.803603	0.012813	0.786269	0.578743	-0.216420
08143	9.484638	-1.773070	2.568004	1.114784	-1.226994	0.512640	0.179197	0.141858	0.973532	0.602855	-0.797833	0.005289	0.777467	0.585951	-0.228489
08144	10.716611	-2.638071	2.634950	1.079781	-1.468861	0.538642	0.193865	0.146192	0.970074	0.610185	-0.792255	-0.002548	0.768174	0.592419	-0.242795
08145	12.422017	-3.130780	3.200420	0.926153	-1.432373	0.541352	0.208160	0.150370	0.966467	0.616133	-0.787577	-0.010167	0.759638	0.597588	-0.256590
08146	13.969956	-3.317434	4.042676	0.470067	-0.805382	0.607632	0.218060	0.150376	0.964281	0.618386	-0.785684	-0.017315	0.755016	0.600073	-0.264317
08147	14.277289	-3.366042	5.009157	-0.402280	0.264871	0.686485	0.220320	0.143264	0.964850	0.613751	-0.789165	-0.022970	0.758135	0.597239	-0.261797
08148	13.618955	-3.917337	5.528829	-1.075105	1.279809	0.685188	0.214778	0.130193	0.967946	0.604047	-0.796494	-0.026900	0.767462	0.590463	-0.249712
08149	12.045457	-4.992262	6.742896	-0.738114	1.848025	0.628047	0.204317	0.114113	0.972231	0.596892	-0.801709	-0.031341	0.775870	0.586720	-0.231916
08150	10.210782	-6.736081	8.507981	0.099422	1.743084	0.715885	0.195086	0.098084	0.975869	0.596224	-0.801890	-0.038594	0.778754	0.589366	-0.214918
08151	9.493422	-7.087827	9.588910	0.898893	1.193910	0.880937	0.191101	0.083692	0.977996	0.601295	-0.797508	-0.049247	0.775838	0.597475	-0.202729
08152	10.071129	-6.100207	9.712327	1.299247	1.056597	1.106292	0.189679	0.068498	0.979454	0.609220	-0.790519	-0.062696	0.769982	0.608595	-0.191676
08153	11.456802	-4.785856	8.691623	2.446953	1.191891	1.386203	0.189138	0.049917	0.980681	0.624993	-0.776415	-0.081019	0.757371	0.628242	-0.178047
08154	14.232641	-1.863176	7.977647	3.924292	0.974064	1.603437	0.192155	0.031358	0.980863	0.651195	-0.751815	-0.103536	0.734181	0.658628	-0.164886
08155	16.301814	2.464321	6.271346	3.978179	0.729008	1.554190	0.197233	0.014079	0.980255	0.674896	-0.727188	-0.125349	0.711065	0.686294	-0.152927
08156	14.985108	3.530922	2.125102	2.646268	1.294635	1.227404	0.196563	-0.003777	0.980484	0.691080	-0.708837	-0.141275	0.695537	0.705362	-0.136721
08157	13.116234	2.449558	-1.236025	2.148487	1.753945	0.951871	0.191053	-0.023363	0.981302	0.703755	-0.693655	-0.153531	0.684272	0.719928	-0.116083
08158	12.527639	2.215980	-2.192516	2.194578	1.634136	0.844515	0.186025	-0.041068	0.981686	0.717031	-0.677422	-0.164213	0.671760	0.734447	-0.096571
08159	14.226090	2.774175	-2.333133	1.805973	0.810052	0.694673	0.185583	-0.052100	0.981246	0.727505	-0.663973	-0.172847	0.660526	0.745940	-0.085318
08160	17.272398	3.789463	-4.271442	1.214581	-0.370665	0.213429	0.189628	-0.050757	0.980543	0.735057	-0.654751	-0.176046	0.650947	0.754138	-0.086850
08161	20.401437	6.139529	-9.309699	0.954613	-0.880053	-0.482447	0.191692	-0.041281	0.980587	0.741929	-0.647957	-0.172316	0.642492	0.760557	-0.093580
08162	21.553521	8.584852	-14.181480	0.610246	0.369736	-0.960796	0.182223	-0.037924	0.982526	0.747622	-0.643684	-0.163502	0.638637	0.764351	-0.088941
08163	19.968556	9.568336	-14.723967	0.221613	2.415126	-1.168496	0.157858	-0.049428	0.986224	0.749572	-0.644172	-0.152264	0.642824	0.763282	-0.064638
08164	16.483613	8.667129	-11.022630	0.261027	3.865924	-1.122320	0.124559	-0.071732	0.989616	0.752830	-0.642858	-0.141354	0.646322	0.762619	-0.026072
08165	13.243438	6.500174	-5.934300	-0.043281	4.582303	-0.837674	0.088455	-0.101278	0.990918	0.753408	-0.643948	-0.133069	0.651576	0.758336	0.019344
08166	11.392096	4.820804	-1.764304	-1.036325	4.258870	-0.559327	0.056328	-0.129735	0.989947	0.746997	-0.652388	-0.128001	0.662436	0.746698	0.060164
08167	11.119772	3.792329	-0.708127	-2.672760	3.228609	-0.289789	0.032101	-0.151680	0.987908	0.727761	-0.673947	-0.127123	0.685079	0.723042	0.088753
08168	12.660818	1.106877	-2.553344	-4.121250	2.447265	-0.096027	0.014334	-0.168354	0.985622	0.698923	-0.703231	-0.130283	0.715053	0.690741	0.107586
08169	14.222579	-2.129934	-5.688455	-4.422164	2.362037	0.029538	-0.002760	-0.184468	0.982835	0.666674	-0.732896	-0.135685	0.745345	0.654855	0.125003
08170	14.363057	-4.168411	-7.371615	-3.766504	2.877172	0.040392	-0.024243	-0.203167	0.978844	0.638143	-0.756843	-0.141284	0.769536	0.621218	0.147998
08171	12.625919	-4.468031	-6.679166	-2.868628	3.442217	-0.049592	-0.051354	-0.223658	0.973314	0.615892	-0.774291	-0.145429	0.786155	0.591988	0.177513
08172	10.241598	-4.186844	-4.865341	-2.353347	3.616253	-0.248933	-0.081464	-0.242679	0.966680	0.597085	-0.788477	-0.147624	0.798031	0.565164	0.209133
08173	8.318224	-3.671774	-3.511788	-2.140357	3.256993	-0.364816	-0.109756	-0.257763	0.959954	0.579660	-0.801149	-0.148846	0.807433	0.540110	0.237345
08174	7.211644	-2.621532	-2.730677	-2.285281	2.724447	-0.388147	-0.134055	-0.269037	0.953755	0.560627	-0.814208	-0.150874	0.817146	0.514475	0.259978
08175	6.706819	-1.779511	-2.478851	-2.641068	2.255366	-0.351319	-0.154525	-0.277429	0.948238	0.538507	-0.828319	-0.154588	0.828331	0.486745	0.277394
08176	6.964089	-1.133611	-3.200167	-2.791911	1.914638	-0.290855	-0.171985	-0.284089	0.943247	0.514750	-0.842310	-0.159832	0.839913	0.458048	0.291100
08177	7.190839	-1.029293	-3.371139	-2.836454	1.820320	-0.300425	-0.188853	-0.289597	0.938333	0.490366	-0.855679	-0.165394	0.850809	0.428891	0.303606
08178	7.233113	-0.944139	-3.430998	-2.748585	1.845249	-0.315823	-0.206111	-0.294568	0.933139	0.466234	-0.867974	-0.171015	0.860316	0.399813	0.316237
08179	7.147057	-1.130669	-3.715019	-2.615950	1.897634	-0.337337	-0.223998	-0.298923	0.927615	0.443062	-0.878992	-0.176265	0.868056	0.371508	0.329334
08180	7.390016	-0.838037	-4.060454	-2.267842	1.801900	-0.380064	-0.241297	-0.302079	0.922239	0.422438	-0.888254	-0.180419	0.873683	0.346055	0.341943
08181	7.711253	-0.024526	-4.140520	-2.019389	1.664670	-0.396996	-0.257453	-0.304090	0.917196	0.403948	-0.896143	-0.183723	0.877806	0.323200	0.353551
08182	7.809676	0.141646	-4.432760	-1.980478	1.552192	-0.402539	-0.272660	-0.305359	0.912366	0.385473	-0.903529	-0.187203	0.881514	0.300650	0.364064
08183	7.676313	-0.379149	-4.670437	-2.025865	1.449171	-0.395902	-0.286865	-0.305941	0.907804	0.366688	-0.910530	-0.190987	0.885013	0.278093	0.373384
08184	7.026466	-1.356898	-4.569008	-1.864618	1.341645	-0.361083	-0.300015	-0.306283	0.903428	0.349116	-0.916605	-0.194814	0.887755	0.256954	0.381924
08185	6.214273	-1.990965	-4.272900	-1.450924	1.079708	-0.347744	-0.310698	-0.305753	0.899990	0.335400	-0.921211	-0.197174	0.889367	0.240595	0.388768
08186	5.455865	-1.992174	-3.626322	-0.890182	0.776100	-0.416643	-0.318947	-0.303786	0.897767	0.326187	-0.924557	-0.196968	0.889873	0.230017	0.393976
08187	5.037214	-2.576338	-2.596820	-0.385330	0.463879	-0.489719	-0.324548	-0.300291	0.896936	0.321426	-0.926849	-0.194001	0.889581	0.225336	0.397328
08188	4.918959	-3.046447	-2.338285	0.101501	0.238165	-0.468227	-0.328136	-0.296538	0.896879	0.320819	-0.928000	-0.189452	0.888483	0.225570	0.399645
08189	4.357729	-3.281829	-2.713902	0.382515	0.279686	-0.562379	-0.332426	-0.291804	0.896852	0.322218	-0.928852	-0.182783	0.886379	0.228220	0.402799
08190	3.804543	-3.801311	-3.122518	0.464171	0.227375	-0.679430	-0.336602	-0.286066	0.897143	0.324073	-0.929730	-0.174867	0.884124	0.231880	0.405655
08191	3.775643	-3.796522	-3.584608	0.718631	0.280117	-0.819225	-0.341625	-0.279096	0.897439	0.327857	-0.930294	-0.164509	0.880796	0.238032	0.409316
08192	4.369334	-3.420792	-2.989874	1.365248	0.207956	-0.957175	-0.346598	-0.270755	0.898088	0.336573	-0.929576	-0.150355	0.875550	0.250160	0.413318
08193	4.893994	-2.596305	-2.304404	2.486053	0.060402	-1.126666	-0.350896	-0.260455	0.899464	0.354507	-0.925995	-0.129838	0.866716	0.273307	0.417261
08194	5.664055	0.170176	-1.495365	3.984833	-0.045195	-1.193097	-0.354881	-0.249375	0.901039	0.384569	-0.917395	-0.102437	0.852154	0.310159	0.421468
08195	6.421638	2.586728	1.108261	4.830950	-0.098967	-1.019809	-0.358031	-0.239751	0.902404	0.421853	-0.903742	-0.072736	0.832979	0.354640	0.424707
08196	7.718615	2.006908	6.821307	4.693739	-0.144197	-0.653431	-0.359681	-0.233403	0.903412	0.458161	-0.887630	-0.046915	0.812846	0.397033	0.426200
08197	9.165845	0.444480	14.556307	4.049245	0.276150	-0.594487	-0.364691	-0.229126	0.902498	0.488314	-0.872334	-0.024145	0.792811	0.431897	0.430018
08198	9.743964	-0.374992	16.011055	4.420741	0.419973	-0.800759	-0.371966	-0.224149	0.900777	0.519914	-0.854216	0.002129	0.768981	0.469118	0.434277
08199	9.348893	1.837030	12.808771	4.488935	0.362990	-0.944969	-0.379739	-0.217807	0.899088	0.550206	-0.834481	0.030229	0.743688	0.506163	0.436723
08200	7.713767	4.141494	13.176370	2.583989	0.275047	-0.649710	-0.385347	-0.213886	0.897642	0.566761	-0.822522	0.047317	0.728210	0.526982	0.438178
08201	4.710070	5.746068	13.931847	0.883805	-0.862736	0.088578	-0.378528	-0.209943	0.901466	0.573503	-0.817652	0.050392	0.726506	0.536069	0.429907
08202	2.029981	5.622358	13.273357	-0.844423	-2.647284	0.651756	-0.355330	-0.201150	0.912841	0.569720	-0.820821	0.040895	0.741053	0.534595	0.406262
08203	2.743925	4.145799	5.870703	-2.311275	-3.843147	0.785295	-0.321926	-0.187220	0.928069	0.554857	-0.831578	0.024712	0.767136	0.522901	0.371587
08204	4.452250	4.487255	-4.740923	-2.384121	-3.830787	0.441641	-0.289602	-0.171176	0.941716	0.537639	-0.843089	0.012089	0.791881	0.509804	0.336191
08205	6.177496	4.998907	-11.169627	-1.762902	-3.005772	-0.000396	-0.265482	-0.155973	0.951416	0.523690	-0.851885	0.006474	0.809486	0.499965	0.307842
08206	6.763901	3.666638	-10.475200	-1.777685	-2.126131	-0.242134	-0.249321	-0.143439	0.957739	0.508561	-0.861019	0.003436	0.824139	0.487925	0.287618
08207	8.218112	0.134869	-6.925616	-3.301211	-1.703292	-0.369986	-0.236899	-0.131997	0.962526	0.480107	-0.877207	-0.002132	0.844616	0.461610	0.271183
08208	18.086715	-5.263583	-1.355226	-3.182004	-2.213496	0.535900	-0.215436	-0.126841	0.968245	0.454137	-0.890794	-0.015648	0.864492	0.436345	0.249513
08209	32.223233	-10.356474	15.868393	-2.966166	-0.331768	2.366821	-0.201966	-0.146525	0.968370	0.433380	-0.900047	-0.045800	0.878289	0.410422	0.245280
08210	22.490642	-11.078745	18.029727	-4.883540	3.341444	0.685055	-0.228673	-0.165690	0.959299	0.391648	-0.917805	-0.065164	0.891246	0.360807	0.274770
08211	8.785059	-9.885880	6.958635	-3.511193	0.550370	-1.024031	-0.237384	-0.158097	0.958464	0.357930	-0.931484	-0.064998	0.903070	0.327633	0.277707
08212	7.401567	-9.723322	5.672782	-2.836110	-1.518766	-1.215268	-0.227708	-0.141968	0.963324	0.329315	-0.942246	-0.061020	0.916352	0.303342	0.261309
08213	9.603892	-10.826400	7.499976	-2.665921	-1.330658	-0.453831	-0.216833	-0.133811	0.966994	0.303805	-0.950621	-0.063422	0.927732	0.280026	0.246778
08214	10.213053	-10.074929	6.035291	-1.249897	-0.616425	0.290226	-0.210200	-0.134934	0.968302	0.292811	-0.953654	-0.069329	0.932780	0.268956	0.239968
08215	9.807037	-6.267318	2.316768	0.294268	-0.713910	0.442134	-0.202219	-0.137264	0.969673	0.296404	-0.952270	-0.072987	0.933409	0.272656	0.233253
08216	9.712068	-1.514615	-0.524262	1.487746	-1.381954	0.015560	-0.189252	-0.133584	0.972800	0.310321	-0.948065	-0.069817	0.931603	0.288667	0.220877
08217	10.136145	3.136178	-2.496552	1.769946	-1.227895	-0.373744	-0.178996	-0.126466	0.975688	0.326061	-0.943284	-0.062448	0.928248	0.306955	0.210079
08218	8.888418	6.343830	-4.042109	1.895740	-0.392772	-0.729501	-0.177764	-0.118412	0.976923	0.342315	-0.938177	-0.051427	0.922616	0.325274	0.207308
08219	7.000549	8.167655	-5.331100	1.373689	-0.272762	-1.108215	-0.179060	-0.107174	0.977983	0.353027	-0.934849	-0.037811	0.918319	0.338484	0.205230
08220	6.615656	6.338429	-6.273169	-0.288397	-1.248796	-1.164034	-0.171618	-0.092111	0.980848	0.348344	-0.936976	-0.027042	0.921522	0.337032	0.192889
08221	8.069535	1.593252	-9.005244	-1.312878	-2.542863	-0.589642	-0.150031	-0.078126	0.985590	0.335332	-0.941804	-0.023609	0.930077	0.326958	0.167498
08222	9.838463	-3.410647	-13.355330	-0.447979	-3.456807	0.403029	-0.116392	-0.070699	0.990684	0.331697	-0.942961	-0.028323	0.936178	0.325311	0.133204
08223	11.599256	-6.163868	-15.607380	1.524987	-3.253947	1.001391	-0.082470	-0.069229	0.994186	0.347099	-0.937119	-0.036463	0.934195	0.342074	0.101313
08224	12.759161	-5.003897	-11.758792	2.368573	-2.546115	0.802029	-0.055856	-0.067745	0.996138	0.369709	-0.928180	-0.042392	0.927467	0.365913	0.076890
08225	13.803100	-2.029727	-6.295042	2.134346	-1.857170	0.152632	-0.037995	-0.062125	0.997345	0.389619	-0.919997	-0.042464	0.920192	0.386971	0.059161
08226	14.657188	0.921232	-2.409095	2.402662	-0.851811	-0.495250	-0.032141	-0.054246	0.998010	0.411447	-0.910713	-0.036250	0.910867	0.409463	0.051591
08227	12.861025	4.712656	-0.765486	3.050786	0.197440	-0.790264	-0.037154	-0.047878	0.998162	0.438849	-0.898163	-0.026747	0.897792	0.437049	0.054382
08228	10.079264	7.781810	-0.305400	2.883211	0.211998	-0.764812	-0.042456	-0.042055	0.998213	0.464247	-0.885532	-0.017562	0.884688	0.462671	0.057121
08229	8.356930	8.529729	-0.073150	1.818261	-0.461361	-0.604996	-0.041120	-0.034455	0.998560	0.480067	-0.877169	-0.010497	0.876268	0.478944	0.052610
08230	8.261947	7.163238	0.254639	0.673497	-1.047770	-0.449119	-0.034080	-0.025514	0.999093	0.485794	-0.874054	-0.005750	0.873409	0.485158	0.042182
08231	8.925152	5.334462	0.866948	-0.272193	-1.297335	-0.326756	-0.024197	-0.016236	0.999575	0.483429	-0.875380	-0.002516	0.875049	0.483163	0.029031
08232	9.376504	2.810642	0.109936	-1.108171	-1.240585	-0.273148	-0.014571	-0.007946	0.999862	0.473651	-0.880713	-0.000097	0.880592	0.473584	0.016596
08233	9.659689	0.444563	-0.389105	-1.375524	-0.932058	-0.251507	-0.007391	-0.001205	0.999972	0.461570	-0.887101	0.002343	0.887073	0.461574	0.007113
08234	10.025400	-0.989285	0.278853	-1.207711	-0.691052	-0.172298	-0.001986	0.003437	0.999992	0.450817	-0.892607	0.003963	0.892614	0.450822	0.000223
08235	10.028277	-1.876368	1.052288	-0.919287	-0.635469	-0.088720	0.003418	0.007226	0.999968	0.442732	-0.896640	0.004966	0.896648	0.442701	-0.006264
08236	9.922848	-2.347925	1.567971	-0.592287	-0.678987	-0.061341	0.009286	0.010720	0.999899	0.437419	-0.899240	0.005578	0.899210	0.437324	-0.013040
08237	9.809586	-2.142918	2.324172	-0.160922	-0.657462	-0.066167	0.015024	0.014325	0.999785	0.436093	-0.899879	0.006341	0.899776	0.435904	-0.019767
08238	9.394689	-1.245414	3.431573	0.136432	-0.652028	-0.090570	0.020534	0.017942	0.999628	0.437337	-0.899269	0.007157	0.899063	0.437028	-0.026312
08239	8.793961	-0.586335	3.894601	-0.021450	-0.783861	-0.144164	0.027055	0.022785	0.999374	0.437348	-0.899251	0.008662	0.898885	0.436840	-0.034295
08240	8.594643	-0.596646	3.117303	-0.133047	-1.069848	-0.176669	0.035943	0.028996	0.998933	0.436208	-0.899785	0.010423	0.899128	0.435368	-0.044989
08241	8.788403	-0.520719	1.800615	-0.059641	-1.316748	-0.138365	0.047271	0.036078	0.998230	0.435919	-0.899908	0.011882	0.898744	0.434586	-0.058266
08242	9.246258	-0.378386	0.216344	0.002741	-1.488602	-0.107491	0.060216	0.043467	0.997239	0.436001	-0.899854	0.012895	0.897929	0.434021	-0.073137
08243	9.929343	-0.429921	-1.279268	0.205799	-1.566859	-0.078276	0.074016	0.051087	0.995948	0.438076	-0.898836	0.013549	0.895886	0.435298	-0.088908
08244	10.105859	-0.052493	-2.346246	0.496808	-1.470283	-0.134184	0.086614	0.058675	0.994513	0.442624	-0.896592	0.014348	0.892514	0.438953	-0.103628
08245	9.892040	0.696511	-2.949232	0.555914	-1.346994	-0.175591	0.097921	0.066292	0.992984	0.447859	-0.893970	0.015517	0.888726	0.443197	-0.117228
08246	10.091527	1.590602	-2.930790	0.550403	-1.274324	-0.173251	0.108484	0.073469	0.991380	0.452916	-0.891401	0.016498	0.884929	0.447222	-0.129978
08247	10.561047	2.311236	-1.276405	0.387709	-1.117974	-0.105827	0.117966	0.079550	0.989826	0.456643	-0.889486	0.017064	0.881794	0.449984	-0.141254
08248	10.712579	2.033211	1.456933	-0.078487	-0.825293	-0.059515	0.125011	0.083744	0.988615	0.456020	-0.889793	0.017709	0.881146	0.448614	-0.149423
08249	10.387167	0.842512	3.048908	-0.536878	-0.606875	-0.068584	0.130121	0.087208	0.987655	0.451662	-0.891981	0.019254	0.882649	0.443581	-0.155454
08250	9.784919	-0.492495	3.077117	-0.673994	-0.567457	-0.113763	0.134668	0.090680	0.986733	0.445852	-0.894851	0.021387	0.884918	0.437057	-0.160937
08251	9.739695	-1.235411	3.192052	-0.594182	-0.610718	-0.168619	0.139389	0.094971	0.985673	0.441081	-0.897144	0.024065	0.886576	0.431408	-0.166942
08252	10.327782	-1.570810	3.632051	-0.488521	-0.614836	-0.192272	0.144041	0.099292	0.984578	0.437015	-0.899057	0.026733	0.887846	0.426425	-0.172893
08253	11.085444	-1.511899	3.621156	-0.250790	-0.625611	-0.200619	0.148783	0.103842	0.983402	0.435221	-0.899851	0.029173	0.887945	0.423657	-0.179077
08254	11.581945	-1.082612	3.223358	0.098553	-0.638671	-0.239860	0.153446	0.108663	0.982164	0.436453	-0.899183	0.031294	0.886546	0.423867	-0.185402
08255	11.475952	-0.831060	2.375105	0.435360	-0.508915	-0.251221	0.156889	0.113162	0.981112	0.440911	-0.896946	0.032948	0.883733	0.427414	-0.190615
08256	10.888761	-0.831302	1.491385	0.648922	-0.358780	-0.203464	0.159191	0.116484	0.980352	0.446951	-0.893926	0.033638	0.880280	0.432814	-0.194368
08257	9.785620	-1.218064	0.852042	0.787230	-0.124401	-0.094432	0.159908	0.117906	0.980065	0.454097	-0.890340	0.033021	0.876485	0.439764	-0.195914
08258	8.803865	-1.835789	0.634294	0.950808	-0.032706	0.025401	0.160353	0.117783	0.980007	0.462364	-0.886153	0.030849	0.872070	0.448173	-0.196556
08259	8.172942	-2.374686	0.191290	1.268809	-0.324037	0.192237	0.164111	0.117580	0.979409	0.473178	-0.880570	0.026428	0.865546	0.459098	-0.200147
08260	7.926404	-2.561532	-0.027149	1.654314	-0.865204	0.317612	0.173127	0.118784	0.977710	0.486878	-0.873244	0.019879	0.856140	0.472584	-0.209016
08261	8.329048	-2.477639	0.187721	1.660836	-1.323028	0.395494	0.186386	0.121682	0.974912	0.500353	-0.865733	0.012397	0.845522	0.485490	-0.222244
08262	9.656527	-2.480761	1.006446	1.233473	-1.648556	0.444914	0.202539	0.125878	0.971150	0.509852	-0.860247	0.005170	0.836079	0.494096	-0.238412
08263	12.128769	-2.757215	2.504022	0.722370	-1.603819	0.510315	0.218556	0.129428	0.967203	0.514817	-0.857299	-0.001611	0.828973	0.498285	-0.253999
08264	14.276539	-2.815163	4.188964	0.224888	-0.772403	0.605124	0.228109	0.128054	0.965178	0.515318	-0.856961	-0.008093	0.826083	0.499219	-0.261469
08265	15.045118	-2.517765	5.678290	-0.151713	0.520581	0.657899	0.227233	0.119738	0.966451	0.512526	-0.858555	-0.014135	0.828059	0.498544	-0.256461
08266	14.491567	-2.626382	6.912215	-0.134485	1.475321	0.692764	0.218573	0.106387	0.970004	0.509857	-0.860013	-0.020564	0.832029	0.499058	-0.242218
08267	13.248600	-2.990302	8.524553	0.394926	1.933166	0.726119	0.206206	0.090329	0.974330	0.511564	-0.858767	-0.028652	0.834135	0.504341	-0.223292
08268	11.627294	-3.018574	10.753358	1.073621	2.051644	0.812522	0.193338	0.072872	0.978422	0.518881	-0.853959	-0.038930	0.832696	0.515212	-0.202914
08269	11.268298	-2.470704	12.480721	1.584757	1.697350	0.902836	0.183994	0.056144	0.981323	0.530232	-0.846318	-0.050996	0.827647	0.529712	-0.185487
08270	12.815233	-1.872581	12.201098	1.596516	1.066597	1.008864	0.180654	0.041884	0.982655	0.541547	-0.838244	-0.063831	0.821030	0.543685	-0.174114
08271	13.581279	-1.629275	8.419356	1.885729	0.761855	1.126593	0.180595	0.028033	0.983158	0.554692	-0.828366	-0.078271	0.812221	0.559485	-0.165148
08272	13.075947	-0.487501	4.797558	2.249927	0.561048	1.264981	0.183235	0.014405	0.982964	0.570528	-0.815835	-0.094397	0.800577	0.578105	-0.157708
08273	13.208802	0.952690	3.128525	1.402304	0.628802	1.284095	0.185568	0.000005	0.982631	0.579055	-0.807922	-0.109349	0.793889	0.589290	-0.149927
08274	13.905899	1.202909	1.320789	0.452927	0.865127	1.153660	0.185440	-0.014449	0.982549	0.580501	-0.805159	-0.121401	0.792862	0.592883	-0.140921
08275	14.728815	0.819911	-0.488057	0.579511	1.117299	0.878034	0.181643	-0.028447	0.982953	0.583241	-0.801670	-0.130979	0.791730	0.597090	-0.129026
08276	14.895674	0.528163	-1.791034	1.119959	1.334526	0.494053	0.174054	-0.040451	0.983905	0.591199	-0.794761	-0.137258	0.787521	0.605574	-0.114417
08277	16.124961	0.403271	-3.841035	1.537717	1.371014	0.174563	0.164281	-0.050486	0.985121	0.602743	-0.785421	-0.140766	0.780841	0.616900	-0.098599
08278	17.525595	1.174424	-6.848144	2.045956	1.261931	-0.097289	0.153948	-0.057643	0.986396	0.618760	-0.772690	-0.141725	0.770348	0.632161	-0.083286
08279	18.079819	3.391304	-8.889821	2.012775	1.399611	-0.365154	0.140889	-0.064024	0.987953	0.634523	-0.760165	-0.139750	0.759954	0.646568	-0.066474
08280	17.789893	4.967881	-9.330077	1.491284	1.649165	-0.633124	0.124411	-0.070020	0.989757	0.646636	-0.750865	-0.134401	0.752584	0.656734	-0.048138
08281	17.740973	5.669577	-9.666294	0.889439	2.086952	-0.737724	0.103892	-0.078407	0.991493	0.654056	-0.745624	-0.127498	0.749278	0.661738	-0.026182
08282	16.177728	4.360745	-9.812689	0.452879	2.924428	-0.355399	0.079703	-0.095158	0.992266	0.657772	-0.742927	-0.124081	0.748989	0.662574	0.003379
08283	13.072592	2.665299	-8.077488	0.157179	3.685252	-0.214183	0.050629	-0.118001	0.991722	0.659067	-0.742132	-0.121949	0.750379	0.659785	0.040197
08284	11.880446	1.777072	-5.099204	-0.721292	3.773634	-0.093984	0.021628	-0.142039	0.989625	0.653666	-0.746967	-0.121497	0.756474	0.649511	0.076691
08285	11.945565	0.687214	-3.244082	-1.430876	3.565218	-0.079622	-0.006047	-0.164329	0.986387	0.642807	-0.756243	-0.122047	0.766004	0.633319	0.110205
08286	12.496302	0.376797	-2.126130	-1.844122	3.326524	-0.141913	-0.032568	-0.184020	0.982383	0.628553	-0.767976	-0.123020	0.777085	0.613473	0.140678
08287	12.353374	-0.211972	-2.885189	-2.413885	3.117105	-0.141012	-0.057880	-0.201665	0.977743	0.609626	-0.782715	-0.125351	0.790573	0.588803	0.168244
08288	11.543660	-1.541439	-4.102241	-2.452722	2.878452	-0.190323	-0.081915	-0.216782	0.972777	0.589951	-0.797231	-0.127983	0.803273	0.563407	0.193195
08289	10.448622	-1.855493	-4.620829	-2.109126	2.718694	-0.282301	-0.105513	-0.229506	0.967571	0.572731	-0.809443	-0.129542	0.812924	0.540490	0.216852
08290	9.221730	-1.806205	-4.686554	-1.919051	2.625961	-0.348033	-0.128882	-0.240615	0.962026	0.556656	-0.820410	-0.130620	0.820685	0.518683	0.239676
08291	8.098131	-1.568180	-4.627316	-1.981830	2.616988	-0.350017	-0.152337	-0.250980	0.955930	0.539945	-0.831254	-0.132201	0.827800	0.496010	0.262146
08292	7.020292	-1.282954	-4.292559	-2.114532	2.593989	-0.297691	-0.175438	-0.261080	0.949241	0.521889	-0.842232	-0.135193	0.834777	0.471681	0.284014
08293	6.201259	-0.914102	-3.773305	-2.246711	2.384831	-0.217975	-0.196490	-0.270156	0.942554	0.502790	-0.853047	-0.139687	0.841780	0.446459	0.303447
08294	5.853396	-0.892147	-3.325280	-2.449251	2.040212	-0.205083	-0.214712	-0.277274	0.936492	0.481667	-0.864202	-0.145438	0.849644	0.419851	0.319109
08295	5.806573	-1.042690	-3.425032	-2.465914	1.727879	-0.240548	-0.230519	-0.282187	0.931253	0.460247	-0.874827	-0.151161	0.857341	0.393761	0.331540
08296	6.076806	-0.642432	-3.690485	-2.089806	1.521875	-0.310772	-0.244972	-0.285318	0.926597	0.441546	-0.883684	-0.155369	0.863149	0.371075	0.342459
08297	6.202393	0.294775	-3.618331	-1.638904	1.383569	-0.389928	-0.258542	-0.286841	0.922431	0.426572	-0.890653	-0.157398	0.866713	0.352789	0.352629
08298	6.538754	1.486948	-3.441465	-1.332996	1.199236	-0.498813	-0.271007	-0.286567	0.918931	0.413700	-0.896666	-0.157617	0.869142	0.337446	0.361555
08299	6.594893	2.168106	-3.494599	-1.342762	1.143808	-0.576038	-0.283200	-0.285127	0.915697	0.400632	-0.902659	-0.157163	0.871374	0.322349	0.369864
08300	6.290432	2.343347	-3.330011	-1.468253	1.091221	-0.672415	-0.295329	-0.282510	0.912671	0.385893	-0.909163	-0.156554	0.873995	0.305958	0.377521
08301	5.811182	2.030301	-3.553341	-1.568371	0.989728	-0.684776	-0.306458	-0.279170	0.910026	0.370356	-0.915666	-0.156180	0.876881	0.289171	0.384005
08302	5.486558	1.487493	-3.213402	-1.319178	0.857490	-0.699153	-0.316491	-0.275213	0.907795	0.356618	-0.921306	-0.154979	0.879009	0.274686	0.389731
08303	5.253397	1.440317	-2.497437	-0.865289	0.697599	-0.667671	-0.324834	-0.270891	0.906146	0.347156	-0.925376	-0.152192	0.879753	0.265137	0.394635
08304	4.597707	1.369847	-2.295442	-0.452647	0.557488	-0.754044	-0.332296	-0.265411	0.905062	0.340719	-0.928569	-0.147209	0.879483	0.259455	0.398990
08305	4.022894	1.362367	-2.570855	0.048149	0.310854	-0.860050	-0.337798	-0.258180	0.905116	0.338575	-0.930603	-0.139090	0.878214	0.259465	0.401769
08306	3.575480	0.922120	-2.365323	0.223708	0.027185	-0.865218	-0.340927	-0.250240	0.906173	0.337625	-0.932204	-0.130405	0.877370	0.261488	0.402300
08307	2.885461	-0.655011	-2.442962	0.040940	-0.228922	-0.807731	-0.341479	-0.242056	0.908186	0.335562	-0.933985	-0.122760	0.877947	0.262833	0.400161
08308	2.859875	-3.310442	-3.655020	0.259273	-0.732578	-0.817649	-0.337748	-0.232521	0.912064	0.335087	-0.935224	-0.114338	0.879570	0.267003	0.393784
08309	4.026755	-5.227020	-3.981742	1.299555	-1.249797	-0.641812	-0.328779	-0.223041	0.917691	0.344704	-0.933014	-0.103269	0.879252	0.282379	0.383639
08310	6.027960	-5.038258	-2.568556	2.198247	-1.346846	-0.416090	-0.318394	-0.215256	0.923195	0.362672	-0.927447	-0.091168	0.875839	0.305789	0.373361
08311	7.793622	-4.141915	0.178254	2.462729	-1.120758	-0.220828	-0.309271	-0.209593	0.927589	0.383776	-0.919962	-0.079914	0.870096	0.331272	0.364955
08312	9.969455	-4.100972	3.523738	2.430140	-0.842077	-0.112505	-0.302378	-0.205717	0.930724	0.404514	-0.911839	-0.070122	0.863096	0.355288	0.358936
08313	15.450608	-4.788528	10.209590	3.101994	-0.276459	0.156195	-0.299192	-0.206058	0.931678	0.431839	-0.899929	-0.060358	0.850881	0.384276	0.358236
08314	18.892108	-6.505967	20.206921	3.095413	1.311484	-0.050848	-0.310421	-0.210850	0.926920	0.457772	-0.887739	-0.048631	0.833117	0.409222	0.372094
08315	11.228044	-7.892499	18.153722	2.564912	1.689196	-0.759469	-0.327758	-0.211192	0.920854	0.476700	-0.878490	-0.031805	0.815678	0.428547	0.388608
08316	4.928752	-2.928740	14.383981	3.025944	-0.190099	-0.792664	-0.330044	-0.203475	0.921775	0.498586	-0.866745	-0.012807	0.801550	0.455357	0.387514
08317	3.477070	3.019618	16.802088	2.289753	-1.556238	-0.484176	-0.319976	-0.192038	0.927759	0.515417	-0.856940	0.000384	0.794960	0.478306	0.373180
08318	3.440549	4.318294	13.289672	0.490747	-2.614768	-0.097794	-0.299577	-0.178613	0.937204	0.519051	-0.854738	0.003018	0.800525	0.487361	0.348770
08319	5.058061	4.511343	2.070423	-0.824849	-3.284658	-0.057202	-0.273289	-0.162142	0.948168	0.512323	-0.858792	0.000807	0.814149	0.485989	0.317767
08320	6.947869	4.361568	-6.087403	-1.902733	-2.882788	-0.126969	-0.250165	-0.147246	0.956941	0.496354	-0.868112	-0.003820	0.831294	0.474026	0.290257
08321	7.770838	0.943994	-6.584861	-2.313984	-1.825876	-0.059408	-0.235062	-0.138213	0.962103	0.476929	-0.878888	-0.009735	0.846926	0.456567	0.272511
08322	12.711840	-3.047327	0.106151	-1.784419	-0.998970	0.776425	-0.222854	-0.140615	0.964657	0.463516	-0.885814	-0.022041	0.857606	0.442222	0.262584
08323	20.819684	-6.363534	11.989904	-2.806179	0.197999	1.913342	-0.215800	-0.158476	0.963491	0.443625	-0.894935	-0.047838	0.869843	0.417105	0.263431
08324	21.182028	-10.376447	12.622913	-4.124164	0.450393	0.722565	-0.216634	-0.166835	0.961892	0.408983	-0.910170	-0.065754	0.886455	0.379153	0.265407
08325	17.047343	-13.865664	3.176319	-3.619038	-0.786421	-0.681251	-0.212209	-0.157739	0.964410	0.375231	-0.924387	-0.068627	0.902313	0.347313	0.255352
08326	13.158440	-14.255308	2.329785	-1.878417	-0.229578	-0.417789	-0.211621	-0.153130	0.965281	0.357344	-0.931390	-0.069412	0.909682	0.330249	0.251822
08327	9.039771	-10.504451	5.137478	-0.333852	0.182202	-0.080189	-0.213509	-0.153039	0.964880	0.354124	-0.932608	-0.069560	0.910500	0.326835	0.253315
08328	6.980607	-5.444397	4.628785	1.332518	-0.325647	0.012715	-0.210467	-0.152118	0.965694	0.366273	-0.928137	-0.066375	0.906393	0.339738	0.251059
08329	7.048388	0.375082	2.794149	3.160640	-1.345882	-0.220098	-0.199120	-0.145394	0.969129	0.394254	-0.917257	-0.056607	0.897171	0.370811	0.239966
08330	7.800556	8.428654	-0.541960	4.082516	-1.624907	-0.769439	-0.187779	-0.132088	0.973289	0.429136	-0.902369	-0.039669	0.883505	0.410224	0.226129
08331	7.153320	14.795725	-4.503902	2.889547	-0.914845	-1.163372	-0.184819	-0.117843	0.975682	0.452306	-0.891591	-0.022008	0.872503	0.437239	0.218084
08332	6.702727	11.274915	-4.734367	-0.098139	-0.927485	-1.502676	-0.183444	-0.100414	0.977888	0.448698	-0.893651	-0.007593	0.874654	0.437383	0.208991
08333	8.005539	6.153911	-5.425211	-2.020039	-1.816233	-1.376772	-0.173416	-0.080253	0.981573	0.428527	-0.903527	0.001837	0.886731	0.420949	0.191077
08334	9.007623	1.521727	-8.114901	-2.691032	-2.528649	-0.569596	-0.153127	-0.064757	0.986082	0.403540	-0.914958	0.002579	0.902057	0.398319	0.166237
08335	9.338411	-2.842467	-12.178973	-1.742615	-2.915882	0.327080	-0.125281	-0.056322	0.990521	0.388312	-0.921522	-0.003285	0.912972	0.384219	0.137320
08336	10.214880	-5.808114	-15.341476	0.441503	-2.948158	0.872644	-0.094890	-0.052986	0.994077	0.393319	-0.919331	-0.011458	0.914492	0.389902	0.108076
08337	11.127404	-6.977324	-14.915593	1.984851	-2.552391	0.909738	-0.067836	-0.051063	0.996389	0.412295	-0.910860	-0.018610	0.908522	0.409543	0.082842
08338	12.158481	-5.532846	-10.942305	1.987890	-1.848032	0.555318	-0.048730	-0.048396	0.997639	0.430616	-0.902249	-0.022735	0.901219	0.428492	0.064807
08339	13.313488	-2.267808	-5.607574	2.155314	-1.173804	0.068746	-0.037744	-0.043810	0.998327	0.450111	-0.892698	-0.022157	0.892175	0.448521	0.053413
08340	13.378599	1.900142	-1.667114	2.825491	-0.378173	-0.332885	-0.035891	-0.039155	0.998588	0.475023	-0.879801	-0.017424	0.879241	0.473727	0.050176
08341	11.889074	6.359668	-1.107172	3.310455	-0.361170	-0.763096	-0.036310	-0.030667	0.998870	0.503739	-0.863817	-0.008210	0.863093	0.502872	0.046813
08342	10.436293	10.098928	-1.861778	3.048159	-0.702432	-1.004459	-0.035445	-0.018480	0.999201	0.529461	-0.848329	0.003092	0.847594	0.529147	0.039853
08343	10.054351	11.293911	-1.241744	1.817350	-0.877143	-0.853237	-0.032469	-0.006454	0.999452	0.544692	-0.838546	0.012280	0.838007	0.544792	0.030742
08344	10.330968	9.651865	0.208485	0.240162	-0.891355	-0.728100	-0.028929	0.004477	0.999571	0.546488	-0.837239	0.019566	0.836967	0.546819	0.021774
08345	10.060635	7.332495	1.349163	-1.040565	-0.747933	-0.498196	-0.025199	0.012889	0.999599	0.537880	-0.842668	0.024425	0.842645	0.538280	0.014302
08346	8.880735	3.984955	1.388725	-2.185412	-0.540143	-0.312969	-0.022224	0.018366	0.999584	0.519269	-0.854176	0.027239	0.854322	0.519659	0.009446
08347	8.138971	1.039758	0.553604	-2.637739	-0.461168	-0.227487	-0.019274	0.022859	0.999553	0.496808	-0.867362	0.029416	0.867646	0.497153	0.005360
08348	8.029858	-1.360890	0.118637	-2.810585	-0.560482	-0.099524	-0.014809	0.026409	0.999542	0.472219	-0.880961	0.030272	0.881357	0.472451	0.000576
08349	8.645406	-3.545532	-0.328522	-2.651996	-0.716743	0.074334	-0.007977	0.029236	0.999541	0.448989	-0.893043	0.029704	0.893502	0.449020	-0.006003
08350	9.597664	-5.213640	-0.073339	-1.797126	-0.890270	0.147418	0.000706	0.031798	0.999494	0.432872	-0.901009	0.028359	0.901455	0.432633	-0.014401
08351	10.702375	-5.427439	1.253406	-0.818576	-0.979285	0.040025	0.009855	0.035798	0.999310	0.425746	-0.904403	0.028200	0.904789	0.425175	-0.024154
08352	11.615219	-3.775605	1.392026	0.089029	-1.084405	-0.154781	0.019046	0.041770	0.998946	0.426580	-0.903963	0.029665	0.904249	0.425565	-0.035035
08353	11.178359	-1.578128	1.172691	0.532818	-0.927617	-0.218729	0.026614	0.047848	0.998500	0.431668	-0.901476	0.031693	0.901640	0.430177	-0.044646
08354	10.125480	-0.362196	1.618093	0.412137	-0.684479	-0.181622	0.032034	0.052399	0.998112	0.435439	-0.899604	0.033253	0.899648	0.433552	-0.051634
08355	9.323657	0.269400	2.254909	0.453532	-0.631102	-0.182374	0.037032	0.056910	0.997692	0.439785	-0.897426	0.034866	0.897339	0.437479	-0.058262
08356	9.057659	0.889933	2.849628	0.390297	-0.667135	-0.221735	0.042076	0.061787	0.997202	0.443377	-0.895580	0.036782	0.895347	0.440589	-0.065077
08357	9.207998	0.835728	2.443095	0.132874	-0.834953	-0.251343	0.048548	0.067836	0.996515	0.444877	-0.894732	0.039233	0.894275	0.441421	-0.073616
08358	9.563368	-0.158489	1.268630	-0.008896	-0.985291	-0.287244	0.056123	0.074712	0.995625	0.444952	-0.894567	0.042047	0.893794	0.440646	-0.083449
08359	10.005819	-1.034120	0.391963	0.150676	-0.962382	-0.304697	0.063469	0.081791	0.994626	0.446666	-0.893569	0.044978	0.892446	0.441412	-0.093248
08360	10.122828	-1.212263	0.038005	0.443276	-0.792712	-0.247618	0.069466	0.087474	0.993742	0.450786	-0.891396	0.046954	0.889925	0.444703	-0.101354
08361	9.596468	-1.094251	-0.473105	0.762520	-0.657093	-0.203845	0.074481	0.092327	0.992939	0.457866	-0.887714	0.048198	0.885896	0.451043	-0.108391
08362	8.907928	-0.745909	-0.716679	1.072675	-0.644532	-0.196947	0.079306	0.096968	0.992123	0.467495	-0.882643	0.048898	0.880431	0.459934	-0.115331
08363	8.554785	-0.259253	-0.728272	1.200424	-0.758687	-0.158986	0.085316	0.101982	0.991121	0.478305	-0.876823	0.049049	0.874039	0.469874	-0.123586
08364	8.816891	0.658733	-0.794966	1.190403	-0.986860	-0.059450	0.093667	0.107148	0.989821	0.488727	-0.871113	0.048050	0.867394	0.479252	-0.133961
08365	9.430863	1.732451	-1.255007	1.076980	-1.204466	0.006677	0.104215	0.113002	0.988114	0.498174	-0.865831	0.046476	0.860791	0.487409	-0.146527
08366	10.020587	2.665643	-1.880217	0.891490	-1.216312	-0.038238	0.114503	0.119264	0.986238	0.505866	-0.861415	0.045437	0.854979	0.493702	-0.158966
08367	10.481783	3.119701	-1.966802	0.387016	-0.997918	-0.066856	0.122779	0.124875	0.984546	0.509396	-0.859330	0.045468	0.851728	0.495941	-0.169119
08368	10.597710	2.702775	-1.550200	-0.207548	-0.764327	-0.126089	0.128695	0.129704	0.983166	0.507788	-0.860198	0.047013	0.851815	0.493189	-0.176565
08369	10.267728	1.418115	-0.764105	-0.682490	-0.544211	-0.202064	0.132412	0.134230	0.982064	0.502395	-0.863177	0.050242	0.854439	0.486732	-0.181731
08370	9.991192	-0.006006	-0.578558	-0.926556	-0.452877	-0.229436	0.135192	0.138364	0.981111	0.494768	-0.867337	0.054142	0.858445	0.478102	-0.185715
08371	9.846982	-1.323318	-0.455756	-0.853561	-0.410992	-0.209785	0.137785	0.142243	0.980195	0.487866	-0.871002	0.057818	0.861976	0.470237	-0.189406
08372	10.108187	-2.031846	-0.183156	-0.446396	-0.488579	-0.172187	0.141208	0.145994	0.979156	0.484256	-0.872846	0.060306	0.863456	0.465646	-0.193951
08373	10.588403	-2.049738	0.503391	0.127322	-0.579084	-0.105160	0.145783	0.149697	0.977925	0.485643	-0.872020	0.061089	0.861915	0.466017	-0.199825
08374	10.771466	-1.646712	1.310934	0.648873	-0.594725	-0.071580	0.150593	0.153070	0.976674	0.491329	-0.868876	0.060417	0.857856	0.470770	-0.206054
08375	10.554859	-0.951606	1.808057	0.900757	-0.575162	-0.114386	0.155035	0.156857	0.975377	0.499321	-0.864362	0.059637	0.852433	0.477781	-0.212328
08376	10.091623	-0.331591	1.738948	0.878067	-0.493366	-0.109882	0.158721	0.160142	0.974249	0.506956	-0.859966	0.058766	0.847233	0.484574	-0.217680
08377	9.682074	-0.109934	1.647740	0.828513	-0.428360	-0.047200	0.162182	0.162680	0.973259	0.514107	-0.855805	0.057377	0.842253	0.491054	-0.222431
08378	9.715731	-0.223302	1.650340	0.714317	-0.521275	-0.022160	0.166493	0.165408	0.972070	0.520143	-0.852246	0.055930	0.837694	0.496304	-0.227928
08379	10.174233	-0.748945	1.623124	0.654642	-0.591068	0.015191	0.171592	0.168254	0.970694	0.525654	-0.848968	0.054233	0.833213	0.500943	-0.234120
08380	10.702861	-1.267720	1.870344	0.699840	-0.541392	0.083821	0.176581	0.170235	0.969453	0.531322	-0.845590	0.051708	0.828563	0.505961	-0.239765
08381	11.326542	-1.714865	2.321851	0.743093	-0.433185	0.178590	0.181193	0.170936	0.968478	0.537179	-0.842094	0.048128	0.823777	0.511526	-0.244405
08382	11.605283	-2.043918	2.496487	0.792843	-0.322804	0.234280	0.185157	0.170595	0.967788	0.543260	-0.838418	0.043854	0.818893	0.517641	-0.247917
08383	11.584466	-2.235952	2.726437	0.741131	-0.145273	0.270693	0.187898	0.169053	0.967531	0.548806	-0.835024	0.039320	0.814559	0.523599	-0.249676
08384	11.511717	-2.702785	3.049143	0.542316	0.006759	0.337549	0.189749	0.166170	0.967669	0.552576	-0.832742	0.034645	0.811575	0.528137	-0.249834
08385	11.355643	-3.291020	3.850319	0.205187	0.272481	0.411178	0.189888	0.161233	0.968476	0.553424	-0.832357	0.030063	0.810965	0.530269	-0.247285
08386	11.122914	-4.013308	5.214215	-0.136621	0.688186	0.547664	0.187373	0.152989	0.970302	0.551279	-0.833945	0.025033	0.813008	0.530217	-0.240598
08387	10.886163	-4.561044	6.772469	-0.107157	1.047661	0.704317	0.182787	0.141426	0.972927	0.549009	-0.835615	0.018321	0.815584	0.530797	-0.230384
08388	11.125357	-4.176638	8.714556	0.695520	1.275931	0.868974	0.177227	0.127322	0.975899	0.553111	-0.833067	0.008240	0.814039	0.538320	-0.218065
08389	12.584404	-2.540018	10.995998	1.918350	1.013693	1.040357	0.174905	0.112969	0.978083	0.566657	-0.823930	-0.006168	0.805176	0.555317	-0.208124
08390	14.890143	-0.631412	11.069266	2.357614	0.340818	1.109592	0.178613	0.101936	0.978625	0.583526	-0.811798	-0.021943	0.792209	0.574972	-0.204479
08391	15.278796	-0.677501	7.185784	2.325961	0.016963	1.144904	0.185291	0.092364	0.978333	0.599502	-0.799468	-0.038065	0.778630	0.593566	-0.203507
08392	13.138615	-1.235650	2.309380	2.032849	0.397214	1.274415	0.189996	0.079826	0.978534	0.612819	-0.788329	-0.054678	0.767043	0.610053	-0.198699
08393	11.543723	-1.191643	-0.134836	1.154197	0.752230	1.359180	0.192636	0.064242	0.979165	0.618809	-0.782379	-0.070411	0.761555	0.619480	-0.190468
08394	11.840925	-1.024325	-1.122279	0.527945	0.642643	1.319156	0.195972	0.049913	0.979338	0.620258	-0.779847	-0.084371	0.759523	0.623977	-0.183787
08395	13.133999	-0.086535	-0.994300	0.681103	0.609390	1.155735	0.198544	0.036810	0.979400	0.622909	-0.776245	-0.097102	0.756680	0.629356	-0.177048
08396	13.981811	1.690416	-1.060374	1.053296	0.775943	0.739849	0.197375	0.026146	0.979979	0.629384	-0.769800	-0.106224	0.751611	0.637749	-0.168396
08397	15.303404	3.465932	-3.005144	1.632328	0.895716	0.185329	0.191855	0.018678	0.981246	0.641004	-0.759488	-0.110873	0.743173	0.650254	-0.157684
08398	17.204796	5.274804	-6.536879	2.442112	0.923538	-0.216133	0.183702	0.014184	0.982880	0.659383	-0.743340	-0.112512	0.729018	0.668763	-0.145906
08399	18.057628	6.969738	-7.969505	2.439191	1.106660	-0.471349	0.172551	0.009919	0.984951	0.677662	-0.726887	-0.111398	0.714842	0.686686	-0.132147
08400	17.844672	8.561540	-6.551908	1.397892	1.952510	-0.743293	0.153629	0.001753	0.988127	0.688821	-0.717166	-0.105822	0.708466	0.696900	-0.111385
08401	15.854200	8.973322	-5.741691	0.363344	2.701682	-0.730299	0.129409	-0.012027	0.991518	0.692329	-0.714754	-0.099030	0.709883	0.699273	-0.084168
08402	13.209644	7.543654	-5.329195	-0.543365	2.824128	-0.477222	0.106016	-0.028318	0.993961	0.689014	-0.718631	-0.093964	0.716952	0.694815	-0.056675
08403	11.760603	5.020915	-5.000026	-0.982541	2.708215	-0.101200	0.085753	-0.046373	0.995237	0.681979	-0.725490	-0.092566	0.726327	0.686668	-0.030588
08404	10.812242	2.906114	-4.509879	-1.319373	2.517057	0.039807	0.067655	-0.063835	0.995665	0.672295	-0.734447	-0.092770	0.737185	0.675657	-0.006773
08405	11.430507	1.830053	-4.189567	-1.965721	2.267131	0.072928	0.051242	-0.079546	0.995513	0.657619	-0.747516	-0.093579	0.751606	0.659463	0.014007
08406	12.216594	-0.203585	-4.217555	-2.693599	2.182704	0.058599	0.035065	-0.094169	0.994938	0.637103	-0.764920	-0.094852	0.769981	0.637204	0.033174
08407	12.945536	-1.812490	-4.073309	-3.057353	2.244232	-0.024530	0.017396	-0.108002	0.993998	0.613293	-0.784009	-0.095919	0.789664	0.611281	0.052598
08408	12.986623	-2.963962	-4.011230	-3.074592	2.387381	-0.000819	-0.001636	-0.122298	0.992492	0.588731	-0.802379	-0.097901	0.808327	0.584151	0.073314
08409	12.160864	-3.471164	-4.457673	-2.725588	2.689288	0.091034	-0.023057	-0.138408	0.990107	0.566543	-0.817803	-0.101128	0.823710	0.558606	0.097270
08410	10.588205	-3.014306	-4.188998	-2.291739	2.996598	0.160024	-0.046980	-0.156152	0.986615	0.547594	-0.830091	-0.105304	0.835424	0.535318	0.124505
08411	9.089586	-2.602665	-3.772425	-2.183937	3.041343	0.216275	-0.071359	-0.173891	0.982176	0.529424	-0.841136	-0.110455	0.845351	0.512105	0.152085
08412	8.030259	-2.190645	-3.432572	-2.157598	2.840930	0.297597	-0.093909	-0.190662	0.977154	0.511344	-0.851377	-0.116978	0.854229	0.488677	0.177446
08413	7.424202	-1.667529	-2.960054	-2.166092	2.546940	0.315269	-0.114155	-0.205510	0.971974	0.493148	-0.861043	-0.124136	0.862423	0.465156	0.199639
08414	7.412738	-1.211453	-2.896414	-2.212839	2.270868	0.269436	-0.132483	-0.218172	0.966876	0.474321	-0.870486	-0.131430	0.870326	0.441198	0.218808
08415	7.319113	-0.819628	-3.305074	-2.138771	1.980951	0.221825	-0.148717	-0.228623	0.962089	0.456024	-0.879137	-0.138420	0.877454	0.418150	0.235000
08416	7.376408	-0.514603	-3.756104	-2.030737	1.795236	0.146814	-0.163827	-0.237267	0.957531	0.438386	-0.887046	-0.144797	0.883730	0.396047	0.249337
08417	7.339940	0.016275	-4.289528	-1.897213	1.607998	0.104916	-0.177567	-0.244397	0.953279	0.421850	-0.894064	-0.150638	0.889108	0.375392	0.261855
08418	7.504801	0.568107	-4.645303	-1.797804	1.449253	0.082866	-0.190103	-0.250479	0.949274	0.405992	-0.900415	-0.156282	0.893885	0.355688	0.272864
08419	7.479486	0.664030	-5.001698	-1.729832	1.424772	0.070785	-0.202503	-0.256033	0.945219	0.390763	-0.906170	-0.161739	0.897940	0.336604	0.283550
08420	6.982992	0.592606	-4.974884	-1.545327	1.486206	0.082083	-0.215514	-0.261691	0.940782	0.377055	-0.911005	-0.167032	0.900768	0.318729	0.295007
08421	6.317810	0.538154	-4.397771	-1.398344	1.456103	0.025201	-0.228445	-0.266416	0.936395	0.364662	-0.915223	-0.171429	0.902682	0.302305	0.306230
08422	5.774466	0.571078	-4.022096	-1.311561	1.323196	-0.039627	-0.240503	-0.269993	0.932342	0.352740	-0.919175	-0.175189	0.904286	0.286741	0.316302
08423	5.161102	0.348626	-3.842705	-1.202128	1.120558	-0.160650	-0.251076	-0.271618	0.929077	0.341650	-0.922916	-0.177488	0.905669	0.272856	0.324520
08424	4.757205	0.159061	-3.964922	-0.871608	0.875736	-0.303139	-0.259995	-0.271203	0.926742	0.333001	-0.926054	-0.177580	0.906374	0.262436	0.331080
08425	4.385486	-0.342072	-2.990714	-0.257414	0.647739	-0.351470	-0.266886	-0.269599	0.925250	0.329945	-0.927615	-0.175116	0.905488	0.258546	0.336520
08426	4.229014	-0.996192	-1.533007	0.063581	0.479104	-0.387155	-0.272460	-0.267287	0.924296	0.329500	-0.928474	-0.171367	0.903989	0.257865	0.341043
08427	3.920856	-2.280167	-1.586452	0.188569	0.309603	-0.379056	-0.276356	-0.264532	0.923932	0.330372	-0.928933	-0.167147	0.902486	0.259049	0.344110
08428	3.692615	-3.916757	-1.986978	0.395581	0.144816	-0.321801	-0.278692	-0.261965	0.923962	0.333069	-0.928732	-0.162855	0.900775	0.262357	0.346083
08429	4.204511	-4.416062	-2.199056	0.842863	-0.322170	-0.326558	-0.276737	-0.258046	0.925650	0.339943	-0.927271	-0.156866	0.898808	0.271258	0.344331
08430	5.513478	-3.683981	-1.916049	1.411731	-0.812303	-0.390716	-0.270760	-0.252207	0.929021	0.351567	-0.924315	-0.148467	0.896153	0.286415	0.338935
08431	6.527369	-1.781572	-2.400434	2.136869	-1.023647	-0.537264	-0.263389	-0.244181	0.933275	0.369409	-0.919224	-0.136250	0.891159	0.308873	0.332316
08432	7.112312	0.897188	-2.452433	2.668731	-1.040276	-0.621066	-0.256479	-0.235182	0.937501	0.391502	-0.912094	-0.121702	0.883711	0.335819	0.326007
08433	7.389145	2.550225	-1.562060	2.940807	-0.827878	-0.644840	-0.251634	-0.226391	0.940972	0.415900	-0.903202	-0.106084	0.873904	0.364655	0.321432
08434	7.687712	2.651994	1.283373	3.430699	-0.452373	-0.756074	-0.250919	-0.217922	0.943159	0.443772	-0.891809	-0.087995	0.860294	0.396468	0.320480
08435	10.350247	1.997978	7.062627	4.295466	0.345994	-0.724629	-0.257022	-0.212901	0.942663	0.478660	-0.875424	-0.067206	0.839538	0.433942	0.326910
08436	15.370304	0.631348	16.148088	4.722080	1.558185	-0.259457	-0.271138	-0.217747	0.937588	0.516997	-0.854586	-0.048962	0.811910	0.471454	0.344285
08437	14.017330	-1.016909	19.670170	3.014155	2.269238	-0.204080	-0.290226	-0.226907	0.929668	0.540762	-0.840392	-0.036301	0.789522	0.492193	0.366606
08438	7.853645	-1.788496	16.400003	0.835023	0.817417	-0.051302	-0.296883	-0.230555	0.926663	0.547199	-0.836361	-0.032777	0.782581	0.497338	0.374461
08439	3.392805	-0.122171	16.044395	0.048883	-1.787777	0.551381	-0.279702	-0.226208	0.933058	0.549318	-0.834762	-0.037709	0.787411	0.501998	0.357745
08440	2.890973	1.899853	11.407887	-1.558139	-3.643477	0.460818	-0.248127	-0.211904	0.945267	0.538145	-0.841519	-0.047387	0.805502	0.496933	0.322839
08441	5.390442	3.950307	-1.429635	-1.528776	-4.992303	-0.169897	-0.208239	-0.185714	0.960285	0.525396	-0.849368	-0.050331	0.824982	0.494049	0.274445
08442	9.235859	4.814753	-7.749777	-1.611998	-4.252330	-0.613400	-0.175932	-0.159634	0.971373	0.510803	-0.858326	-0.048541	0.841504	0.487640	0.232549
08443	11.427719	0.899319	-8.560999	-2.771432	-1.876497	-0.361018	-0.161686	-0.147508	0.975756	0.486788	-0.872020	-0.051164	0.858426	0.466714	0.212799
08444	18.643324	-4.497984	-1.796062	-4.706959	-0.575787	1.265737	-0.150715	-0.156135	0.976169	0.447830	-0.891102	-0.073386	0.881324	0.426098	0.204225
08445	22.723895	-12.861165	8.389093	-9.034320	1.880270	3.016315	-0.155136	-0.190638	0.969325	0.371400	-0.920477	-0.121590	0.915421	0.341144	0.213602
08446	19.523022	-23.024977	5.915166	-7.509227	1.664855	1.045543	-0.167004	-0.205491	0.964305	0.303476	-0.941271	-0.148025	0.938090	0.267923	0.219557
08447	13.324288	-18.276054	1.201314	-1.243665	-0.956217	-0.943204	-0.160709	-0.194085	0.967731	0.290301	-0.946401	-0.141597	0.943344	0.258178	0.208439
08448	9.020164	-8.654436	1.935296	2.099632	-1.419457	-1.459695	-0.151675	-0.176511	0.972542	0.307805	-0.943436	-0.123224	0.939282	0.280664	0.197427
08449	7.322690	-1.817713	0.652293	3.512401	-1.082593	-1.797917	-0.147271	-0.156443	0.976646	0.337933	-0.935952	-0.098967	0.929576	0.315466	0.190706
08450	5.963625	4.371292	-2.865983	4.488680	-0.350423	-1.668887	-0.149966	-0.139787	0.978759	0.376856	-0.923301	-0.074125	0.914051	0.357735	0.191143
08451	3.630133	8.242895	-4.593911	3.683332	-0.198979	-1.485565	-0.153888	-0.125454	0.980092	0.408022	-0.911455	-0.052603	0.899909	0.391804	0.191450
08452	3.239095	8.658224	-6.125354	1.899141	-1.240961	-1.249809	-0.147909	-0.109161	0.982958	0.423188	-0.905292	-0.036857	0.893887	0.410525	0.180097
08453	5.780260	7.368388	-7.280562	1.059461	-2.572876	-0.639956	-0.127537	-0.092654	0.987497	0.431858	-0.901481	-0.028808	0.892879	0.422784	0.154986
08454	9.985349	6.231334	-6.107520	0.567419	-3.711788	0.116712	-0.093810	-0.077895	0.992538	0.437075	-0.898950	-0.029239	0.894520	0.431070	0.118377
08455	14.022960	4.030671	-5.252024	-0.501350	-3.801311	0.583813	-0.057029	-0.066733	0.996140	0.433167	-0.900613	-0.035534	0.899508	0.429468	0.080268
08456	15.786331	0.324318	-6.989872	-1.255669	-2.578496	0.554446	-0.031335	-0.060829	0.997656	0.422087	-0.905584	-0.041957	0.906013	0.419783	0.054052
08457	15.188154	-2.087038	-8.125630	-0.879692	-1.133609	0.213616	-0.019996	-0.057954	0.998119	0.414340	-0.909034	-0.044481	0.909902	0.412671	0.042190
08458	12.209613	-1.901955	-5.537008	-0.326238	-0.006910	-0.126123	-0.020411	-0.056817	0.998176	0.411355	-0.910441	-0.043412	0.911246	0.409719	0.041955
08459	9.103902	-0.491374	-2.367768	0.328653	0.354117	-0.334107	-0.024842	-0.055130	0.998170	0.414470	-0.909188	-0.039900	0.909724	0.412720	0.045436
08460	7.405552	1.366927	0.191467	1.127398	-0.170603	-0.388953	-0.024882	-0.050927	0.998392	0.424615	-0.904675	-0.035565	0.905032	0.423047	0.044135
08461	7.502320	3.832831	1.257891	1.305223	-1.034990	-0.422316	-0.017188	-0.042565	0.998946	0.436507	-0.899174	-0.030803	0.899537	0.435517	0.034035
08462	9.153213	5.174799	0.804335	0.756532	-1.597982	-0.402323	-0.004564	-0.031972	0.999478	0.443267	-0.895994	-0.026637	0.896378	0.442915	0.018261
08463	10.572966	4.384861	-0.321951	0.009563	-1.529457	-0.359802	0.007714	-0.021832	0.999732	0.443585	-0.895937	-0.022988	0.896199	0.443644	0.002774
08464	10.542835	2.309916	-1.174654	-0.640116	-1.115765	-0.369873	0.016142	-0.013631	0.999777	0.437894	-0.898819	-0.019325	0.898882	0.438108	-0.008540
08465	10.051579	0.424567	-1.271268	-0.995360	-0.803795	-0.345854	0.022042	-0.006870	0.999733	0.429243	-0.903053	-0.015670	0.902920	0.429474	-0.016957
08466	9.529850	-0.953557	-0.461262	-1.101504	-0.656948	-0.234937	0.027036	-0.001992	0.999632	0.419339	-0.907734	-0.013150	0.907427	0.419541	-0.023706
08467	9.318894	-2.037428	0.816767	-1.188867	-0.634104	-0.138776	0.032386	0.002057	0.999473	0.408816	-0.912546	-0.011369	0.912042	0.408969	-0.030395
08468	9.584466	-2.676912	1.514140	-1.025550	-0.791841	-0.106530	0.039236	0.006194	0.999211	0.399490	-0.916683	-0.010004	0.915897	0.399567	-0.038441
08469	10.210441	-2.772901	2.301443	-0.554450	-0.977209	-0.150689	0.047746	0.011601	0.998792	0.394704	-0.918772	-0.008197	0.917567	0.394619	-0.048447
08470	10.464711	-2.420164	3.086098	-0.190321	-1.003200	-0.268544	0.055937	0.017980	0.998272	0.393106	-0.919477	-0.005467	0.917790	0.392732	-0.058501
08471	10.207781	-1.951734	3.133423	-0.042004	-1.008256	-0.374360	0.063858	0.025503	0.997633	0.393148	-0.919474	-0.001660	0.917255	0.392324	-0.068742
08472	9.753279	-1.881830	2.589919	0.076610	-0.974791	-0.408725	0.071228	0.033048	0.996912	0.394135	-0.919050	0.002307	0.916288	0.392753	-0.078488
08473	9.584647	-1.404772	2.531415	0.367408	-0.954724	-0.342257	0.078741	0.040062	0.996090	0.397932	-0.917399	0.005440	0.914030	0.395948	-0.088179
08474	10.035259	-0.318659	2.042200	0.671398	-1.044355	-0.276208	0.087204	0.046719	0.995094	0.404293	-0.914599	0.007510	0.910463	0.401655	-0.098644
08475	9.852074	0.812232	0.864437	0.878217	-1.015640	-0.301921	0.095316	0.053686	0.993998	0.412704	-0.910814	0.009619	0.905864	0.409311	-0.108972
08476	9.400367	1.626968	-0.312149	0.793030	-0.931144	-0.292490	0.102557	0.060151	0.992907	0.420167	-0.907373	0.011570	0.901633	0.416000	-0.118331
08477	8.847238	1.594695	-1.384539	0.594056	-0.809969	-0.276146	0.108793	0.066140	0.991862	0.425964	-0.904638	0.013602	0.898175	0.421018	-0.126592
08478	8.528948	1.456379	-1.886525	0.412086	-0.827843	-0.280463	0.115061	0.072136	0.990736	0.429980	-0.902700	0.015790	0.895477	0.424179	-0.134883
08479	8.622585	1.617827	-2.067880	0.222075	-0.997589	-0.244950	0.123039	0.078693	0.989277	0.432424	-0.901492	0.017928	0.893236	0.425581	-0.144948
08480	9.393766	2.194301	-1.792325	0.115867	-1.085340	-0.168630	0.132038	0.084796	0.987611	0.433678	-0.900860	0.019367	0.891341	0.425748	-0.155722
08481	10.304559	2.373523	-0.406627	-0.232469	-0.915843	-0.077294	0.139974	0.089500	0.986102	0.431888	-0.901693	0.020534	0.890999	0.423011	-0.164867
08482	10.457407	1.245025	0.692075	-1.002396	-0.618163	-0.112917	0.145054	0.093069	0.985037	0.423105	-0.905782	0.023275	0.894395	0.413398	-0.170765
08483	10.130416	-1.037477	-0.384818	-1.376869	-0.636860	-0.238762	0.149868	0.097953	0.983842	0.411289	-0.911073	0.028056	0.899100	0.400439	-0.176828
08484	9.947635	-2.501746	-1.850898	-0.752723	-0.792793	-0.343953	0.155643	0.104198	0.982302	0.405044	-0.913711	0.032744	0.900952	0.392779	-0.184418
08485	9.865346	-2.466942	-2.350266	0.268635	-0.859585	-0.304948	0.162235	0.110474	0.980548	0.408109	-0.912252	0.035257	0.898402	0.394451	-0.193085
08486	9.884395	-1.480618	-2.053047	0.801274	-0.986205	-0.209040	0.170254	0.116261	0.978518	0.415639	-0.908830	0.035664	0.893453	0.400639	-0.203054
08487	10.351017	-0.312392	-1.901043	0.732873	-1.160411	-0.229738	0.179729	0.123122	0.975981	0.422717	-0.905531	0.036391	0.888261	0.406023	-0.214796
08488	11.141780	0.427308	-1.575750	0.551284	-1.083634	-0.271971	0.188218	0.129965	0.973490	0.428105	-0.902939	0.037775	0.883912	0.409646	-0.225588
08489	11.634404	0.361297	-0.100555	0.329722	-0.752309	-0.307135	0.193634	0.135918	0.971613	0.431740	-0.901110	0.040014	0.880969	0.411737	-0.233167
08490	11.403331	-0.413047	1.539042	-0.085778	-0.321024	-0.246769	0.195441	0.139426	0.970754	0.431467	-0.901124	0.042558	0.880704	0.410531	-0.236274
08491	10.544313	-1.689454	2.610710	-0.342608	0.021152	-0.091603	0.194951	0.140244	0.970735	0.428750	-0.902338	0.044258	0.882138	0.407574	-0.236041
08492	9.686623	-2.810365	3.490135	-0.210599	0.049295	0.050072	0.194774	0.139556	0.970869	0.426796	-0.903266	0.044215	0.883124	0.405751	-0.235494
08493	9.135848	-3.496689	3.859814	0.190210	-0.277767	0.135103	0.197887	0.139511	0.970246	0.428299	-0.902640	0.042436	0.881703	0.407158	-0.238373
08494	9.196107	-3.746988	3.535916	0.685657	-0.766133	0.158658	0.205353	0.141183	0.968451	0.434011	-0.900055	0.039184	0.877191	0.412272	-0.246104
08495	9.808959	-3.575032	2.757381	1.099186	-1.105913	0.125913	0.215647	0.144663	0.965696	0.443393	-0.895637	0.035156	0.869999	0.420602	-0.257284
08496	11.010642	-3.014410	2.116592	1.298059	-1.195234	0.090731	0.226447	0.148904	0.962574	0.454432	-0.890249	0.030810	0.861518	0.430448	-0.269261
08497	12.573555	-2.717522	1.971821	1.108905	-0.957739	0.114633	0.235266	0.152017	0.959969	0.463685	-0.885601	0.026602	0.854193	0.438865	-0.278840
08498	13.964434	-2.896909	3.267448	0.578294	-0.258439	0.251426	0.238686	0.150899	0.959301	0.468019	-0.883431	0.022516	0.850874	0.443597	-0.281486
08499	14.451180	-3.523133	6.096933	-0.435607	0.828372	0.516927	0.234099	0.142590	0.961700	0.463048	-0.886137	0.018671	0.854859	0.440942	-0.273469
08500	12.947776	-5.263725	8.090801	-1.608390	2.006504	0.749972	0.220285	0.127147	0.967113	0.447498	-0.894148	0.015625	0.866729	0.429340	-0.253866
08501	9.682620	-7.860040	8.639326	-0.860660	2.593200	0.796531	0.201271	0.108800	0.973475	0.438224	-0.898812	0.009850	0.876042	0.424617	-0.228583
08502	6.927403	-8.576687	10.071758	1.258347	1.909798	0.959740	0.188851	0.091923	0.977694	0.447367	-0.894348	-0.002326	0.874184	0.437827	-0.210022
08503	7.332550	-5.800691	11.545915	2.601898	0.630485	1.077377	0.188344	0.079298	0.978897	0.467768	-0.883659	-0.018417	0.863550	0.461366	-0.203525
08504	11.082896	-3.799880	10.605303	2.721802	-0.450487	1.206577	0.198020	0.070806	0.977637	0.488756	-0.871683	-0.035865	0.849650	0.484928	-0.207217
08505	15.620304	-2.951260	7.776249	3.060934	-0.922258	1.409153	0.212842	0.062933	0.975058	0.511375	-0.857513	-0.056280	0.832583	0.510599	-0.214697
08506	16.768053	-2.634434	3.083024	3.744023	-0.812339	1.608213	0.228011	0.053536	0.972186	0.538604	-0.838740	-0.080134	0.811121	0.541895	-0.220076
08507	14.903504	-1.467773	-0.696687	3.538988	-0.060372	1.494760	0.236727	0.041151	0.970704	0.563235	-0.819902	-0.102599	0.791660	0.571023	-0.217271
08508	13.784721	0.103182	-2.084735	2.328364	0.503519	1.151335	0.239395	0.028834	0.970494	0.578785	-0.806780	-0.118801	0.779550	0.590148	-0.209828
08509	13.959853	1.114266	-2.175310	1.591865	0.650796	0.681899	0.238314	0.019160	0.970999	0.589258	-0.797599	-0.128884	0.771998	0.602884	-0.201369
08510	14.424109	2.318660	-2.421788	1.770179	0.710079	0.364417	0.235085	0.011915	0.971902	0.601980	-0.786851	-0.135961	0.763122	0.617028	-0.192149
08511	15.439671	3.280589	-4.095598	2.260763	0.548817	-0.047598	0.230616	0.008553	0.973007	0.618982	-0.772843	-0.139913	0.750785	0.634540	-0.183524
08512	17.818586	4.565366	-8.226561	2.540702	0.530987	-0.522116	0.223435	0.009100	0.974676	0.639053	-0.756418	-0.139434	0.735994	0.654025	-0.174826
08513	20.364429	6.435385	-11.306959	2.078720	1.010945	-0.704887	0.211462	0.007450	0.977358	0.655597	-0.742729	-0.136184	0.724897	0.669551	-0.161943
08514	21.142575	7.960224	-10.864045	1.247779	2.201754	-0.879672	0.189780	-0.000921	0.981826	0.666382	-0.734279	-0.129495	0.721053	0.678847	-0.138738
08515	18.581543	8.789876	-8.624031	0.925668	3.281196	-0.964283	0.159632	-0.016400	0.987040	0.674642	-0.728126	-0.121206	0.720677	0.685247	-0.105168
08516	15.878187	9.310716	-5.675760	0.395197	3.799247	-0.780070	0.126970	-0.036823	0.991223	0.678616	-0.725611	-0.113883	0.723436	0.687119	-0.067142
08517	12.513932	8.116364	-4.265385	-0.590147	3.820779	-0.432629	0.096205	-0.059881	0.993559	0.674772	-0.729884	-0.109327	0.731729	0.680944	-0.029812
08518	10.364510	5.698861	-5.276110	-1.704592	3.257341	-0.138290	0.071266	-0.080828	0.994177	0.662298	-0.741451	-0.107757	0.745843	0.666121	0.000692
08519	10.441716	2.585069	-5.245410	-2.494333	2.712867	0.077114	0.051257	-0.099209	0.993746	0.643440	-0.757720	-0.108834	0.763779	0.644994	0.024997
08520	12.369431	-0.253693	-5.198447	-3.279353	2.351794	0.120207	0.033847	-0.115002	0.992788	0.617990	-0.778279	-0.111223	0.785457	0.617298	0.044728
08521	13.526405	-2.195685	-6.551468	-3.528379	2.567530	0.163680	0.014363	-0.131738	0.991180	0.589899	-0.799278	-0.114781	0.807350	0.586345	0.066232
08522	12.733139	-3.416302	-6.996564	-3.125955	2.985249	0.207105	-0.008767	-0.150507	0.988570	0.564378	-0.816842	-0.119357	0.825470	0.556881	0.092104
08523	11.027842	-3.563575	-6.244644	-2.685571	3.151890	0.260660	-0.033565	-0.169761	0.984913	0.542149	-0.830970	-0.124751	0.839612	0.529782	0.119928
08524	9.091105	-3.721336	-5.508787	-2.491430	3.008676	0.278201	-0.057481	-0.187669	0.980549	0.521220	-0.843331	-0.130852	0.851485	0.503560	0.146292
08525	7.990827	-3.779800	-5.023723	-2.461690	2.824942	0.229393	-0.080487	-0.203448	0.975772	0.500376	-0.854905	-0.136973	0.862059	0.477229	0.170610
08526	7.225069	-3.289770	-4.411149	-2.433317	2.644580	0.218825	-0.102295	-0.217636	0.970655	0.479498	-0.865718	-0.143575	0.871561	0.450740	0.192914
08527	6.771058	-1.908806	-3.918562	-2.489427	2.489952	0.150790	-0.123354	-0.229816	0.965385	0.457959	-0.876214	-0.150072	0.880373	0.423595	0.213330
08528	6.253676	-1.042251	-3.815024	-2.653904	2.209522	0.147455	-0.142203	-0.240197	0.960252	0.434688	-0.886714	-0.157429	0.889283	0.395023	0.230504
08529	5.966812	-0.785993	-4.429179	-2.663282	1.981406	0.143137	-0.159237	-0.248998	0.955324	0.411223	-0.896456	-0.165111	0.897518	0.366559	0.245142
