// General information: 
//  MT Manager version: 2022.2.0 
//  XDA version: 2022.2.0 build 7381 rev 124627 built on 2023-07-19
// Device information: 
//  DeviceId: 00B4CAF0
//  ProductCode: MTW2-3A7G6
//  Firmware Version: 4.6.0
//  Hardware Version: 2.0.0
// Device settings: 
//  Filter Profile: human(46.1)
//  Option Flags: Orientation Smoother Disabled, Position/Velocity Smoother Disabled, Continuous Zero Rotation Update Disabled, AHS Disabled, ICC Disabled
// Coordinate system: ENU
PacketCounter	Acc_X	Acc_Y	Acc_Z	Gyr_X	Gyr_Y	Gyr_Z	Mat[1][1]	Mat[2][1]	Mat[3][1]	Mat[1][2]	Mat[2][2]	Mat[3][2]	Mat[1][3]	Mat[2][3]	Mat[3][3]
64312	4.961944	0.530927	8.948914	-0.004100	0.002901	0.002316	-0.144470	0.849831	0.506869	-0.976350	-0.205688	0.066579	0.160838	-0.485263	0.859448
64313	4.886670	0.518296	9.015042	-0.003382	0.002436	0.004963	-0.144550	0.849864	0.506790	-0.976363	-0.205678	0.066428	0.160690	-0.485208	0.859507
64314	4.898221	0.549319	9.006470	-0.001174	-0.007356	0.006480	-0.144568	0.849812	0.506873	-0.976366	-0.205680	0.066364	0.160651	-0.485300	0.859462
64315	4.932600	0.556934	9.009343	0.004609	-0.012131	0.008180	-0.144656	0.849768	0.506921	-0.976361	-0.205736	0.066266	0.160603	-0.485352	0.859442
64316	4.996501	0.527851	8.984282	0.002463	-0.014405	0.006766	-0.144665	0.849681	0.507065	-0.976359	-0.205759	0.066232	0.160609	-0.485496	0.859359
64317	4.958424	0.542559	8.986621	-0.000176	-0.014795	0.007903	-0.144746	0.849625	0.507136	-0.976362	-0.205789	0.066095	0.160518	-0.485581	0.859328
64318	5.022328	0.512922	8.961562	-0.002595	-0.011930	0.010976	-0.144800	0.849540	0.507261	-0.976361	-0.205822	0.065996	0.160472	-0.485714	0.859262
64319	4.988896	0.494739	8.990788	-0.003313	-0.011464	0.008330	-0.144890	0.849500	0.507304	-0.976369	-0.205841	0.065830	0.160346	-0.485778	0.859249
64320	5.011944	0.470583	9.002131	0.002189	-0.007429	0.007990	-0.144922	0.849444	0.507389	-0.976365	-0.205872	0.065787	0.160340	-0.485862	0.859202
64321	4.996518	0.471264	8.983471	-0.000678	-0.009238	0.003931	-0.144973	0.849423	0.507409	-0.976374	-0.205866	0.065666	0.160237	-0.485902	0.859200
64322	5.031550	0.488461	8.953395	0.002159	-0.001396	0.007938	-0.145014	0.849396	0.507442	-0.976371	-0.205897	0.065624	0.160221	-0.485935	0.859183
64323	5.003311	0.448011	8.976598	-0.001176	-0.005518	0.003220	-0.145064	0.849394	0.507431	-0.976382	-0.205882	0.065502	0.160108	-0.485944	0.859199
64324	5.026282	0.510797	8.959466	0.000006	-0.001835	0.003262	-0.145059	0.849375	0.507464	-0.976389	-0.205863	0.065465	0.160072	-0.485986	0.859182
64325	5.015040	0.479025	8.967916	-0.002886	0.000553	0.002413	-0.145110	0.849405	0.507400	-0.976404	-0.205833	0.065333	0.159934	-0.485947	0.859230
64326	4.963836	0.539367	8.983825	0.000252	-0.002778	0.001987	-0.145091	0.849383	0.507441	-0.976412	-0.205804	0.065304	0.159902	-0.485996	0.859208
64327	4.970205	0.516487	8.977167	0.002904	-0.006058	0.007374	-0.145180	0.849371	0.507437	-0.976410	-0.205845	0.065197	0.159830	-0.486002	0.859219
64328	4.975268	0.560935	9.007862	0.000043	-0.009702	0.006578	-0.145195	0.849306	0.507540	-0.976412	-0.205854	0.065143	0.159806	-0.486110	0.859162
64329	4.988155	0.514857	8.994477	-0.005465	-0.011901	0.003657	-0.145238	0.849273	0.507584	-0.976429	-0.205822	0.064983	0.159661	-0.486182	0.859148
64330	5.006504	0.522984	8.978996	0.000051	-0.011537	0.009841	-0.145282	0.849193	0.507706	-0.976426	-0.205859	0.064913	0.159639	-0.486306	0.859082
64331	5.019485	0.477105	8.965531	0.002937	-0.012090	0.007427	-0.145361	0.849150	0.507754	-0.976425	-0.205900	0.064807	0.159577	-0.486363	0.859061
64332	5.015612	0.509473	8.938253	0.005086	-0.009815	0.008840	-0.145398	0.849081	0.507859	-0.976415	-0.205952	0.064785	0.159602	-0.486462	0.859000
64333	5.016471	0.509532	8.937767	0.005800	-0.008445	0.008223	-0.145490	0.849055	0.507877	-0.976408	-0.206014	0.064699	0.159563	-0.486482	0.858997
64334	5.056458	0.494407	8.934323	0.000016	-0.003669	0.006526	-0.145515	0.849020	0.507928	-0.976410	-0.206022	0.064645	0.159530	-0.486539	0.858970
64335	5.022174	0.476719	8.964046	-0.000237	-0.000892	0.004539	-0.145583	0.849038	0.507879	-0.976417	-0.206023	0.064527	0.159421	-0.486508	0.859008
64336	4.987304	0.536217	8.998173	0.002410	-0.002337	0.006663	-0.145611	0.849009	0.507919	-0.976415	-0.206045	0.064493	0.159409	-0.486549	0.858987
64337	5.010727	0.521891	8.976704	-0.000951	-0.002261	0.005156	-0.145682	0.849019	0.507882	-0.976423	-0.206047	0.064366	0.159295	-0.486530	0.859019
64338	4.999613	0.489981	8.985094	-0.000474	-0.001783	0.009078	-0.145735	0.848988	0.507919	-0.976422	-0.206075	0.064295	0.159255	-0.486573	0.859002
64339	5.006789	0.476388	8.945421	-0.000951	-0.002261	0.005156	-0.145806	0.848998	0.507881	-0.976430	-0.206077	0.064168	0.159141	-0.486554	0.859034
64340	5.023154	0.475311	8.963571	0.002402	-0.000503	0.003400	-0.145805	0.848985	0.507904	-0.976432	-0.206071	0.064150	0.159127	-0.486580	0.859022
64341	4.994076	0.512210	8.991342	0.002158	0.000440	0.004676	-0.145876	0.849008	0.507843	-0.976436	-0.206084	0.064052	0.159040	-0.486532	0.859065
64342	5.027580	0.519977	8.994631	0.002402	-0.000503	0.003400	-0.145875	0.848995	0.507866	-0.976438	-0.206078	0.064035	0.159025	-0.486558	0.859053
64343	5.016323	0.488388	9.003080	-0.000237	-0.000891	0.004539	-0.145943	0.849013	0.507817	-0.976446	-0.206079	0.063918	0.158917	-0.486527	0.859091
64344	5.000294	0.488987	8.984769	-0.000228	-0.002725	0.007803	-0.145981	0.848980	0.507861	-0.976446	-0.206097	0.063855	0.158880	-0.486577	0.859069
64345	5.022660	0.464917	8.996451	-0.001672	-0.001795	0.002510	-0.146027	0.848997	0.507818	-0.976459	-0.206073	0.063736	0.158760	-0.486556	0.859103
64346	5.018919	0.506648	8.936557	-0.000481	0.000052	0.005815	-0.146050	0.848982	0.507837	-0.976462	-0.206073	0.063682	0.158716	-0.486583	0.859096
64347	5.023796	0.473986	8.963282	0.000478	0.000478	0.003922	-0.146113	0.849008	0.507777	-0.976469	-0.206072	0.063574	0.158614	-0.486539	0.859140
64348	5.011952	0.519540	8.976156	0.003839	0.000401	0.005429	-0.146133	0.848995	0.507792	-0.976467	-0.206090	0.063559	0.158612	-0.486554	0.859132
64349	5.011941	0.519556	8.976162	0.002158	0.000440	0.004676	-0.146204	0.849018	0.507732	-0.976470	-0.206103	0.063462	0.158526	-0.486507	0.859174
64350	5.023728	0.473729	8.963333	-0.000725	0.000995	0.007091	-0.146241	0.849005	0.507744	-0.976472	-0.206113	0.063399	0.158479	-0.486527	0.859172
64351	5.011990	0.519223	8.976153	0.002892	-0.002389	0.000849	-0.146269	0.849023	0.507706	-0.976480	-0.206097	0.063329	0.158404	-0.486502	0.859199
64352	5.041070	0.482401	8.948367	0.002628	0.002752	0.005334	-0.146292	0.849021	0.507702	-0.976479	-0.206109	0.063303	0.158388	-0.486500	0.859204
64353	5.023692	0.473738	8.963353	0.003839	0.000401	0.005430	-0.146369	0.849043	0.507643	-0.976479	-0.206136	0.063218	0.158318	-0.486450	0.859245
64354	4.990087	0.466292	8.960105	0.006470	0.002622	0.001027	-0.146350	0.849050	0.507637	-0.976479	-0.206130	0.063248	0.158339	-0.486441	0.859246
64355	5.022368	0.465020	8.996609	0.009118	0.001176	0.003152	-0.146406	0.849080	0.507571	-0.976473	-0.206164	0.063219	0.158321	-0.486374	0.859288
64356	5.055439	0.550863	9.004176	0.016575	-0.001808	0.002340	-0.146392	0.849063	0.507604	-0.976455	-0.206217	0.063329	0.158447	-0.486381	0.859260
64357	5.030207	0.463390	8.923879	0.005974	0.006341	0.000314	-0.146428	0.849124	0.507491	-0.976459	-0.206212	0.063288	0.158390	-0.486277	0.859330
64358	5.038644	0.476293	8.982103	0.009310	0.012296	0.001767	-0.146431	0.849177	0.507402	-0.976452	-0.206225	0.063339	0.158425	-0.486179	0.859378
64359	5.021427	0.477850	8.964404	0.005479	0.010061	-0.000399	-0.146466	0.849257	0.507258	-0.976458	-0.206211	0.063298	0.158358	-0.486045	0.859467
64360	5.003944	0.479405	8.946852	0.009285	0.018329	0.001712	-0.146479	0.849339	0.507117	-0.976452	-0.206224	0.063348	0.158384	-0.485896	0.859546
64361	5.019927	0.488455	8.932635	0.000915	0.010657	0.001261	-0.146530	0.849419	0.506968	-0.976462	-0.206202	0.063260	0.158272	-0.485766	0.859640
64362	4.978437	0.494079	8.969449	0.002589	0.012451	-0.001249	-0.146504	0.849478	0.506876	-0.976471	-0.206157	0.063268	0.158241	-0.485681	0.859694
64363	5.004910	0.524832	8.979777	0.001630	0.012026	0.000644	-0.146552	0.849566	0.506716	-0.976482	-0.206133	0.063189	0.158134	-0.485538	0.859794
64364	4.993838	0.503031	8.955561	0.002377	0.005531	0.003347	-0.146560	0.849582	0.506686	-0.976484	-0.206127	0.063171	0.158111	-0.485513	0.859813
64365	4.992284	0.493486	8.988976	0.002377	0.005531	0.003347	-0.146624	0.849632	0.506583	-0.976489	-0.206130	0.063085	0.158021	-0.485423	0.859880
64366	4.981420	0.471732	8.964641	0.002371	0.007363	0.000082	-0.146603	0.849664	0.506536	-0.976496	-0.206095	0.063085	0.157995	-0.485382	0.859908
64367	4.992175	0.503176	8.956480	-0.001229	0.006551	0.003113	-0.146665	0.849720	0.506424	-0.976507	-0.206078	0.062969	0.157869	-0.485291	0.859982
64368	5.007721	0.502180	8.975090	0.002127	0.008307	0.001358	-0.146658	0.849754	0.506369	-0.976513	-0.206053	0.062960	0.157839	-0.485243	0.860015
64369	5.014005	0.489052	8.935927	0.002848	0.007844	0.004006	-0.146731	0.849814	0.506247	-0.976517	-0.206063	0.062875	0.157751	-0.485133	0.860093
64370	5.006259	0.502315	8.975898	0.001883	0.009251	0.002634	-0.146738	0.849850	0.506185	-0.976521	-0.206048	0.062857	0.157718	-0.485077	0.860131
64371	5.012380	0.489180	8.936832	0.002599	0.010621	0.002017	-0.146796	0.849927	0.506038	-0.976527	-0.206041	0.062781	0.157624	-0.484944	0.860223
64372	5.020724	0.501489	8.995103	-0.001233	0.008384	-0.000152	-0.146774	0.849965	0.505982	-0.976541	-0.205987	0.062750	0.157561	-0.484902	0.860259
64373	4.981517	0.526208	8.965511	0.003315	0.011990	0.001401	-0.146828	0.850050	0.505823	-0.976547	-0.205977	0.062683	0.157472	-0.484756	0.860357
64374	5.025891	0.488204	8.956587	-0.004118	0.008942	0.002261	-0.146830	0.850085	0.505763	-0.976562	-0.205929	0.062616	0.157380	-0.484715	0.860397
64375	5.013471	0.456499	8.965681	0.000426	0.014380	0.000549	-0.146879	0.850183	0.505583	-0.976574	-0.205899	0.062529	0.157260	-0.484555	0.860509
64376	5.000396	0.502110	8.979177	-0.001009	0.013475	-0.001481	-0.146852	0.850248	0.505482	-0.976588	-0.205835	0.062507	0.157192	-0.484469	0.860570
64377	5.016214	0.510532	8.965122	-0.003196	0.019604	0.003524	-0.146938	0.850366	0.505260	-0.976602	-0.205811	0.062373	0.157029	-0.484272	0.860710
64378	4.901270	0.523025	9.001842	-0.001497	0.015364	0.001071	-0.146939	0.850434	0.505144	-0.976614	-0.205767	0.062334	0.156953	-0.484171	0.860781
64379	4.948976	0.519832	9.057099	-0.003621	0.003390	0.006238	-0.147026	0.850468	0.505062	-0.976624	-0.205765	0.062184	0.156810	-0.484113	0.860840
64380	4.990777	0.446500	8.983648	0.000227	0.003258	0.001935	-0.147017	0.850476	0.505051	-0.976632	-0.205735	0.062156	0.156769	-0.484111	0.860848
64381	4.996043	0.500765	8.981675	0.002871	0.001811	0.004063	-0.147080	0.850506	0.504982	-0.976635	-0.205746	0.062073	0.156692	-0.484054	0.860895
64382	5.004148	0.497275	8.909008	0.003361	-0.000077	0.001512	-0.147061	0.850499	0.505000	-0.976638	-0.205729	0.062073	0.156686	-0.484074	0.860884
64383	4.994703	0.491315	9.014933	0.000702	0.003738	0.005858	-0.147143	0.850535	0.504916	-0.976642	-0.205744	0.061963	0.156585	-0.484004	0.860942
64384	5.007362	0.455191	8.969161	0.001907	0.003219	0.002691	-0.147141	0.850541	0.504905	-0.976646	-0.205729	0.061945	0.156560	-0.483999	0.860949
64385	4.978994	0.501835	8.963889	0.004060	0.005494	0.004106	-0.147210	0.850589	0.504805	-0.976647	-0.205746	0.061872	0.156490	-0.483908	0.861013
64386	4.984310	0.479244	8.957813	0.001658	0.007829	-0.002562	-0.147164	0.850628	0.504752	-0.976660	-0.205686	0.061879	0.156456	-0.483865	0.861044
64387	4.999928	0.478576	8.976374	0.004305	0.004550	0.002831	-0.147218	0.850674	0.504659	-0.976662	-0.205693	0.061815	0.156389	-0.483781	0.861103
64388	5.010780	0.510414	8.968167	0.005019	0.007752	-0.001049	-0.147186	0.850710	0.504608	-0.976667	-0.205662	0.061843	0.156389	-0.483731	0.861131
64389	4.998664	0.479319	8.977039	0.003813	0.008272	0.002118	-0.147240	0.850775	0.504483	-0.976671	-0.205661	0.061779	0.156312	-0.483617	0.861209
64390	5.014068	0.478606	8.995722	0.001414	0.008774	-0.001286	-0.147207	0.850816	0.504422	-0.976682	-0.205610	0.061777	0.156275	-0.483566	0.861244
64391	4.991333	0.502272	8.984209	-0.000507	0.006092	0.005761	-0.147292	0.850863	0.504318	-0.976688	-0.205619	0.061657	0.156159	-0.483480	0.861314
64392	4.973361	0.493548	8.999456	0.001415	0.008774	-0.001286	-0.147260	0.850905	0.504258	-0.976699	-0.205568	0.061655	0.156122	-0.483429	0.861349
64393	4.961023	0.539137	9.012516	-0.000734	0.002834	0.003826	-0.147320	0.850940	0.504181	-0.976708	-0.205559	0.061544	0.156009	-0.483371	0.861402
64394	4.962423	0.471386	8.975190	0.000229	0.001426	0.005199	-0.147340	0.850932	0.504188	-0.976711	-0.205558	0.061499	0.155971	-0.483384	0.861401
64395	4.991178	0.511280	8.951817	0.002156	-0.001389	0.007945	-0.147434	0.850938	0.504150	-0.976709	-0.205598	0.061392	0.155893	-0.483357	0.861431
64396	4.962670	0.470806	8.975083	-0.001922	-0.002681	0.007047	-0.147465	0.850907	0.504193	-0.976713	-0.205602	0.061319	0.155840	-0.483410	0.861411
64397	5.012463	0.477163	8.996693	-0.000488	0.000057	0.005815	-0.147541	0.850924	0.504142	-0.976718	-0.205611	0.061201	0.155735	-0.483375	0.861449
64398	4.990280	0.500592	8.984887	0.001421	0.003277	0.008507	-0.147596	0.850919	0.504135	-0.976715	-0.205644	0.061149	0.155705	-0.483371	0.861457
64399	4.996088	0.477653	8.978561	0.002399	-0.000502	0.003405	-0.147648	0.850938	0.504087	-0.976719	-0.205648	0.061068	0.155630	-0.483335	0.861491
64400	4.984379	0.523011	8.991295	-0.000730	-0.000830	0.010356	-0.147714	0.850910	0.504117	-0.976716	-0.205686	0.060989	0.155586	-0.483370	0.861479
64401	4.974427	0.500688	8.966488	0.000966	-0.005072	0.007902	-0.147801	0.850898	0.504111	-0.976716	-0.205720	0.060873	0.155502	-0.483376	0.861491
64402	4.995796	0.467029	9.011287	-0.001433	-0.004570	0.004497	-0.147804	0.850863	0.504169	-0.976723	-0.205704	0.060817	0.155457	-0.483444	0.861461
64403	4.991522	0.499149	8.984278	0.002647	-0.005110	0.008659	-0.147897	0.850849	0.504165	-0.976719	-0.205751	0.060712	0.155390	-0.483448	0.861471
64404	4.971350	0.455239	8.934765	0.002402	-0.002333	0.006670	-0.147925	0.850821	0.504205	-0.976717	-0.205773	0.060679	0.155378	-0.483489	0.861450
64405	5.020173	0.452504	8.989392	0.006251	-0.004301	0.005632	-0.147990	0.850817	0.504192	-0.976712	-0.205812	0.060620	0.155345	-0.483479	0.861462
64406	5.021629	0.462586	8.956045	0.008891	-0.002084	0.001232	-0.147966	0.850801	0.504226	-0.976708	-0.205818	0.060670	0.155397	-0.483505	0.861438
64407	5.031886	0.485097	8.980675	0.006477	0.002621	0.001037	-0.147996	0.850840	0.504151	-0.976710	-0.205819	0.060637	0.155356	-0.483435	0.861484
64408	4.982066	0.478818	8.959085	0.005760	0.001252	0.001654	-0.147981	0.850839	0.504157	-0.976709	-0.205814	0.060657	0.155372	-0.483439	0.861479
64409	5.015244	0.486957	8.962621	0.006707	0.005880	0.002972	-0.148036	0.850890	0.504055	-0.976708	-0.205834	0.060617	0.155330	-0.483341	0.861541
64410	5.003299	0.455961	8.971389	0.006707	0.005880	0.002972	-0.148041	0.850908	0.504022	-0.976704	-0.205845	0.060639	0.155349	-0.483304	0.861559
64411	4.996939	0.479332	8.977998	0.008632	0.004897	0.002454	-0.148089	0.850955	0.503929	-0.976700	-0.205869	0.060618	0.155327	-0.483211	0.861615
64412	4.991721	0.512411	8.951450	0.009350	0.006266	0.001837	-0.148083	0.850978	0.503892	-0.976694	-0.205883	0.060668	0.155370	-0.483164	0.861633
64413	5.014299	0.498763	8.930522	0.005501	0.008234	0.002874	-0.148144	0.851040	0.503770	-0.976694	-0.205900	0.060618	0.155315	-0.483049	0.861708
64414	5.006647	0.512282	8.970368	0.004066	0.005497	0.004107	-0.148159	0.851054	0.503741	-0.976692	-0.205908	0.060612	0.155308	-0.483020	0.861726
64415	4.972716	0.504622	8.967217	-0.000733	0.004667	0.000560	-0.148189	0.851104	0.503649	-0.976706	-0.205872	0.060521	0.155197	-0.482949	0.861786
64416	4.994550	0.480859	8.979246	0.003837	0.000407	0.005439	-0.148209	0.851091	0.503665	-0.976703	-0.205890	0.060505	0.155195	-0.482964	0.861778
64417	5.005750	0.512419	8.970861	0.004066	0.005497	0.004107	-0.148273	0.851137	0.503568	-0.976704	-0.205905	0.060438	0.155128	-0.482876	0.861839
64418	5.011263	0.489694	8.964698	0.001911	0.003221	0.002691	-0.148271	0.851143	0.503558	-0.976708	-0.205891	0.060420	0.155104	-0.482870	0.861846
64419	4.987778	0.504047	8.986084	0.005273	0.003144	0.004206	-0.148333	0.851178	0.503482	-0.976707	-0.205913	0.060362	0.155052	-0.482800	0.861895
64420	4.971381	0.505096	8.967931	0.002630	0.002760	0.005341	-0.148356	0.851177	0.503477	-0.976706	-0.205925	0.060337	0.155036	-0.482798	0.861899
64421	5.003467	0.503146	9.004621	0.000950	0.002799	0.004583	-0.148422	0.851208	0.503404	-0.976710	-0.205932	0.060241	0.154945	-0.482739	0.861949
64422	4.988207	0.513642	8.953338	0.005030	0.004090	0.005482	-0.148449	0.851213	0.503388	-0.976706	-0.205956	0.060236	0.154949	-0.482720	0.861958
64423	4.992818	0.481202	8.980190	0.000476	-0.001346	0.007190	-0.148529	0.851220	0.503353	-0.976708	-0.205978	0.060123	0.154857	-0.482699	0.861987
64424	4.982478	0.459057	8.955598	-0.001450	0.003299	0.001176	-0.148512	0.851230	0.503341	-0.976720	-0.205934	0.060083	0.154800	-0.482700	0.861996
64425	5.011013	0.498998	8.932353	0.002631	0.002760	0.005341	-0.148588	0.851259	0.503269	-0.976720	-0.205958	0.059998	0.154727	-0.482638	0.862044
64426	5.008378	0.479719	8.998832	-0.000975	0.003783	0.005101	-0.148610	0.851263	0.503256	-0.976725	-0.205950	0.059943	0.154673	-0.482634	0.862056
64427	4.991953	0.480411	8.980714	0.000950	0.002799	0.004583	-0.148673	0.851295	0.503183	-0.976730	-0.205954	0.059848	0.154581	-0.482576	0.862105
64428	4.975513	0.481307	8.962592	0.003350	0.004129	0.004725	-0.148692	0.851301	0.503167	-0.976729	-0.205964	0.059832	0.154569	-0.482561	0.862116
64429	4.991376	0.480332	8.981039	0.000950	0.002799	0.004584	-0.148756	0.851333	0.503095	-0.976734	-0.205969	0.059737	0.154478	-0.482503	0.862164
64430	4.973896	0.471500	8.996004	0.000951	0.000969	0.007850	-0.148800	0.851318	0.503107	-0.976732	-0.205993	0.059685	0.154447	-0.482519	0.862161
64431	4.990131	0.470519	9.014244	0.002887	-0.002392	0.000857	-0.148818	0.851332	0.503078	-0.976739	-0.205975	0.059625	0.154382	-0.482502	0.862182
64432	5.008899	0.488830	8.966067	0.005763	-0.002407	0.008189	-0.148861	0.851300	0.503119	-0.976729	-0.206025	0.059613	0.154404	-0.482537	0.862158
64433	4.997572	0.457340	8.974510	0.001195	0.000024	0.006574	-0.148940	0.851313	0.503073	-0.976730	-0.206049	0.059511	0.154320	-0.482503	0.862193
64434	4.981387	0.458440	8.956237	0.007443	0.001213	0.002415	-0.148932	0.851311	0.503080	-0.976726	-0.206059	0.059542	0.154352	-0.482504	0.862186
64435	5.008849	0.489191	8.966075	0.002633	0.002761	0.005341	-0.149007	0.851339	0.503009	-0.976726	-0.206083	0.059458	0.154281	-0.482443	0.862233
64436	5.018948	0.511096	8.990815	0.002876	0.001815	0.004066	-0.149016	0.851336	0.503012	-0.976727	-0.206085	0.059441	0.154268	-0.482448	0.862233
64437	5.014412	0.466279	8.959896	0.000233	0.001432	0.005200	-0.149079	0.851360	0.502953	-0.976733	-0.206088	0.059338	0.154171	-0.482405	0.862274
64438	5.008316	0.488966	8.966385	0.001671	0.004168	0.003967	-0.149091	0.851368	0.502935	-0.976735	-0.206083	0.059312	0.154143	-0.482392	0.862287
64439	4.980337	0.458485	8.956818	0.003352	0.004129	0.004725	-0.149158	0.851405	0.502853	-0.976736	-0.206101	0.059238	0.154074	-0.482319	0.862340
64440	5.007442	0.488921	8.966876	-0.000497	0.007929	0.002493	-0.149161	0.851435	0.502802	-0.976744	-0.206073	0.059200	0.154019	-0.482279	0.862372
64441	4.989866	0.480183	8.981886	0.002400	-0.002329	0.006674	-0.149234	0.851437	0.502777	-0.976744	-0.206101	0.059109	0.153950	-0.482263	0.862393
64442	5.006011	0.479336	9.000170	0.003119	0.002697	-0.000475	-0.149200	0.851447	0.502770	-0.976751	-0.206065	0.059117	0.153938	-0.482260	0.862397
64443	4.967667	0.504341	8.970031	0.006239	0.001737	0.005583	-0.149273	0.851470	0.502709	-0.976745	-0.206107	0.059064	0.153904	-0.482202	0.862436
64444	5.006953	0.489280	8.967129	0.002157	0.000447	0.004683	-0.149286	0.851459	0.502724	-0.976746	-0.206111	0.059039	0.153886	-0.482220	0.862429
64445	4.989629	0.480749	8.981987	0.004082	-0.000538	0.004166	-0.149340	0.851474	0.502682	-0.976746	-0.206129	0.058975	0.153833	-0.482186	0.862457
64446	4.982696	0.494168	9.021419	0.003363	-0.001906	0.004783	-0.149351	0.851451	0.502718	-0.976745	-0.206139	0.058959	0.153830	-0.482221	0.862438
64447	5.029278	0.465805	8.978877	0.006483	-0.001037	0.007575	-0.149436	0.851457	0.502682	-0.976737	-0.206196	0.058899	0.153801	-0.482187	0.862462
64448	5.007305	0.489751	8.966907	0.003120	0.000869	0.002792	-0.149431	0.851452	0.502693	-0.976739	-0.206188	0.058891	0.153792	-0.482199	0.862457
64449	5.007009	0.489935	8.967062	0.003354	0.005959	0.001458	-0.149465	0.851504	0.502594	-0.976745	-0.206176	0.058835	0.153721	-0.482112	0.862518
64450	5.012430	0.467244	8.960955	0.003354	0.004130	0.004725	-0.149484	0.851511	0.502577	-0.976744	-0.206185	0.058819	0.153709	-0.482096	0.862529
64451	4.988786	0.481702	8.982405	0.005036	0.005920	0.002217	-0.149529	0.851561	0.502479	-0.976745	-0.206192	0.058774	0.153657	-0.482005	0.862589
64452	4.989664	0.491419	8.949412	0.002877	0.001816	0.004067	-0.149538	0.851558	0.502482	-0.976746	-0.206193	0.058758	0.153644	-0.482010	0.862589
64453	4.982292	0.504904	8.989078	0.005755	0.005460	0.004867	-0.149607	0.851600	0.502390	-0.976742	-0.206224	0.058706	0.153599	-0.481923	0.862646
64454	4.987803	0.482524	8.982906	0.008166	0.002580	0.001800	-0.149595	0.851605	0.502385	-0.976738	-0.206232	0.058746	0.153636	-0.481910	0.862646
64455	4.977330	0.460916	8.958365	0.001196	0.001855	0.003309	-0.149638	0.851634	0.502323	-0.976745	-0.206223	0.058664	0.153550	-0.481863	0.862688
64456	4.992067	0.450422	9.009933	0.002635	0.002763	0.005342	-0.149661	0.851632	0.502319	-0.976744	-0.206235	0.058638	0.153534	-0.481861	0.862692
64457	4.965242	0.506489	8.971253	0.003354	0.002304	0.007993	-0.149754	0.851653	0.502256	-0.976740	-0.206280	0.058551	0.153470	-0.481805	0.862734
64458	4.998582	0.514045	8.974764	0.001196	0.001855	0.003309	-0.149756	0.851651	0.502258	-0.976744	-0.206267	0.058524	0.153441	-0.481813	0.862735
64459	4.998668	0.436657	8.970712	-0.002410	0.001053	0.006334	-0.149833	0.851669	0.502205	-0.976751	-0.206272	0.058395	0.153324	-0.481780	0.862774
64460	4.992736	0.459168	8.977108	0.001916	0.001396	0.005959	-0.149860	0.851660	0.502213	-0.976750	-0.206285	0.058361	0.153303	-0.481791	0.862772
64461	4.992572	0.459034	8.977206	0.000954	0.002803	0.004584	-0.149924	0.851689	0.502145	-0.976753	-0.206294	0.058270	0.153218	-0.481736	0.862818
64462	5.008569	0.458205	8.995574	0.006484	0.000791	0.004310	-0.149934	0.851680	0.502156	-0.976748	-0.206316	0.058283	0.153242	-0.481742	0.862810
64463	5.002522	0.481263	9.002007	0.003356	0.004132	0.004726	-0.149995	0.851716	0.502077	-0.976749	-0.206330	0.058213	0.153175	-0.481672	0.862862
64464	5.009280	0.467978	8.962678	0.001917	0.003223	0.002692	-0.149993	0.851723	0.502067	-0.976753	-0.206316	0.058195	0.153150	-0.481666	0.862869
64465	4.975636	0.460410	8.959332	0.003840	0.000410	0.005443	-0.150063	0.851738	0.502020	-0.976751	-0.206348	0.058125	0.153098	-0.481626	0.862901
64466	5.001921	0.481427	9.002332	0.001917	0.003224	0.002692	-0.150061	0.851744	0.502010	-0.976755	-0.206333	0.058107	0.153074	-0.481621	0.862908
64467	5.002920	0.491124	8.969279	0.005523	0.002198	0.002935	-0.150101	0.851774	0.501946	-0.976755	-0.206343	0.058065	0.153031	-0.481563	0.862947
64468	5.008431	0.468477	8.963126	0.002395	0.005539	0.003350	-0.150109	0.851791	0.501916	-0.976758	-0.206336	0.058048	0.153008	-0.481537	0.862966
64469	5.002147	0.491412	8.969694	0.002638	0.004591	0.002075	-0.150146	0.851834	0.501832	-0.976764	-0.206327	0.057986	0.152936	-0.481465	0.863019
64470	5.000432	0.481959	9.003131	0.002153	0.006487	0.004625	-0.150167	0.851852	0.501795	-0.976764	-0.206330	0.057960	0.152909	-0.481432	0.863043
64471	4.950171	0.475574	8.981732	0.006724	0.007708	-0.000291	-0.150182	0.851915	0.501683	-0.976768	-0.206315	0.057945	0.152869	-0.481325	0.863109
64472	5.006406	0.469343	8.964212	0.005281	0.003146	0.004211	-0.150195	0.851918	0.501674	-0.976765	-0.206330	0.057948	0.152878	-0.481314	0.863114
64473	5.006156	0.469346	8.964352	-0.000727	0.002843	0.003825	-0.150247	0.851949	0.501606	-0.976773	-0.206321	0.057849	0.152776	-0.481264	0.863160
64474	4.982502	0.483728	8.985783	0.005762	0.007288	0.001601	-0.150241	0.851977	0.501560	-0.976773	-0.206315	0.057869	0.152783	-0.481216	0.863185
64475	4.960074	0.507810	8.974036	0.003600	0.003185	0.003452	-0.150289	0.852010	0.501490	-0.976775	-0.206323	0.057809	0.152723	-0.481154	0.863230
64476	5.005031	0.469978	8.964947	0.005524	0.002199	0.002936	-0.150288	0.852011	0.501489	-0.976773	-0.206328	0.057821	0.152735	-0.481151	0.863230
64477	4.981630	0.484567	8.986221	0.003842	0.002238	0.002177	-0.150326	0.852041	0.501425	-0.976776	-0.206330	0.057770	0.152681	-0.481096	0.863270
64478	4.998881	0.493363	8.971408	0.004804	0.000831	0.003553	-0.150329	0.852035	0.501436	-0.976774	-0.206337	0.057772	0.152689	-0.481105	0.863264
64479	4.993165	0.439412	8.973641	0.005046	-0.000117	0.002278	-0.150366	0.852053	0.501394	-0.976774	-0.206348	0.057731	0.152652	-0.481068	0.863291
64480	4.964091	0.476803	9.001138	0.003122	0.000870	0.002794	-0.150361	0.852048	0.501404	-0.976776	-0.206340	0.057723	0.152642	-0.481080	0.863286
64481	5.004615	0.471189	8.965116	0.003122	0.000870	0.002794	-0.150399	0.852071	0.501354	-0.976780	-0.206340	0.057663	0.152582	-0.481040	0.863319
64482	5.003244	0.462007	8.998342	0.007207	0.002160	0.003696	-0.150405	0.852070	0.501353	-0.976774	-0.206359	0.057685	0.152611	-0.481033	0.863318
64483	5.020374	0.470949	8.983590	0.004564	0.003605	0.001560	-0.150434	0.852109	0.501279	-0.976778	-0.206354	0.057644	0.152560	-0.480967	0.863364
64484	4.981995	0.495914	8.953436	0.003601	0.003186	0.003452	-0.150439	0.852113	0.501270	-0.976778	-0.206354	0.057637	0.152552	-0.480958	0.863369
64485	4.986143	0.463787	8.980535	0.004801	0.006870	0.003493	-0.150493	0.852163	0.501168	-0.976778	-0.206369	0.057588	0.152500	-0.480864	0.863432
64486	5.002997	0.472614	8.965943	0.003604	0.005012	0.000184	-0.150469	0.852183	0.501141	-0.976783	-0.206341	0.057597	0.152489	-0.480840	0.863447
64487	4.986325	0.473868	8.947924	0.004083	0.007328	0.000842	-0.150489	0.852243	0.501035	-0.976791	-0.206318	0.057556	0.152424	-0.480744	0.863511
64488	4.984376	0.464731	8.981467	0.005523	0.008238	0.002876	-0.150496	0.852273	0.500981	-0.976789	-0.206323	0.057568	0.152427	-0.480689	0.863541
64489	5.001296	0.473844	8.966827	0.007695	0.002090	-0.002120	-0.150487	0.852311	0.500918	-0.976793	-0.206303	0.057572	0.152410	-0.480629	0.863578
64490	4.976646	0.479511	9.021222	0.010096	0.001593	0.001291	-0.150469	0.852313	0.500921	-0.976787	-0.206315	0.057632	0.152468	-0.480621	0.863572
64491	5.008046	0.461959	8.927466	0.006490	0.002619	0.001046	-0.150494	0.852347	0.500856	-0.976787	-0.206319	0.057611	0.152441	-0.480560	0.863611
64492	5.025751	0.487473	9.043199	0.008651	0.004897	0.002464	-0.150492	0.852362	0.500831	-0.976782	-0.206335	0.057652	0.152480	-0.480526	0.863623
64493	4.969739	0.504406	9.027997	0.010095	0.007632	0.001230	-0.150520	0.852420	0.500723	-0.976778	-0.206350	0.057662	0.152476	-0.480416	0.863685
64494	4.942748	0.484114	8.985363	0.008410	0.005846	0.003739	-0.150532	0.852437	0.500691	-0.976770	-0.206376	0.057694	0.152511	-0.480375	0.863701
64495	4.970105	0.437794	8.991320	0.003360	0.004137	0.004727	-0.150598	0.852470	0.500615	-0.976769	-0.206400	0.057628	0.152453	-0.480306	0.863750
64496	4.997398	0.468748	9.001242	0.009859	0.004367	-0.000701	-0.150565	0.852489	0.500593	-0.976766	-0.206394	0.057696	0.152505	-0.480275	0.863758
64497	4.992455	0.501718	8.974522	0.003848	0.004064	-0.001091	-0.150565	0.852535	0.500514	-0.976775	-0.206360	0.057663	0.152446	-0.480208	0.863806
64498	4.997856	0.479400	8.968450	0.010093	0.005809	0.004500	-0.150584	0.852550	0.500483	-0.976764	-0.206401	0.057707	0.152498	-0.480164	0.863821
64499	4.990291	0.493220	9.008146	0.002642	0.004595	0.002075	-0.150613	0.852592	0.500402	-0.976771	-0.206384	0.057648	0.152425	-0.480096	0.863872
64500	5.013054	0.479123	8.987245	0.005047	0.005924	0.002219	-0.150610	0.852613	0.500368	-0.976771	-0.206380	0.057660	0.152428	-0.480061	0.863891
64501	5.011185	0.470070	9.020736	0.005769	0.007292	0.001602	-0.150649	0.852667	0.500264	-0.976771	-0.206388	0.057631	0.152388	-0.479961	0.863953
64502	4.962315	0.473266	8.966048	0.005289	0.004975	0.000945	-0.150633	0.852685	0.500237	-0.976773	-0.206375	0.057651	0.152394	-0.479934	0.863967
64503	5.005599	0.503416	8.994347	0.007218	0.005812	-0.002838	-0.150622	0.852742	0.500144	-0.976779	-0.206347	0.057657	0.152370	-0.479845	0.864021
64504	4.994929	0.482001	8.969941	0.005285	0.003152	0.004214	-0.150634	0.852745	0.500135	-0.976775	-0.206362	0.057660	0.152378	-0.479834	0.864026
64505	4.994388	0.482490	8.970216	0.007457	0.009078	-0.000907	-0.150649	0.852814	0.500014	-0.976777	-0.206353	0.057659	0.152352	-0.479716	0.864096
64506	4.986519	0.496382	9.010061	0.002405	0.007369	0.000080	-0.150627	0.852845	0.499967	-0.976785	-0.206319	0.057658	0.152326	-0.479675	0.864123
64507	4.975636	0.474804	8.985784	0.006013	0.006343	0.000328	-0.150642	0.852899	0.499871	-0.976789	-0.206304	0.057639	0.152286	-0.479585	0.864180
64508	4.992365	0.483848	8.971269	0.006493	0.008661	0.000985	-0.150631	0.852935	0.499812	-0.976788	-0.206297	0.057669	0.152298	-0.479524	0.864212
64509	4.984466	0.497556	9.011132	0.000481	0.008357	0.000593	-0.150654	0.852997	0.499699	-0.976800	-0.206262	0.057600	0.152202	-0.479428	0.864282
64510	4.967626	0.498597	8.993203	0.003846	0.008281	0.002116	-0.150654	0.853029	0.499645	-0.976802	-0.206252	0.057602	0.152189	-0.479376	0.864313
64511	4.988964	0.475042	9.005590	0.001926	0.005052	-0.000577	-0.150675	0.853075	0.499560	-0.976809	-0.206232	0.057552	0.152121	-0.479303	0.864366
64512	4.954971	0.467658	9.002372	0.003366	0.005964	0.001459	-0.150665	0.853097	0.499525	-0.976813	-0.206214	0.057552	0.152107	-0.479271	0.864386
64513	4.964997	0.490143	9.027068	0.009620	-0.000721	0.000642	-0.150684	0.853114	0.499491	-0.976808	-0.206234	0.057563	0.152120	-0.479233	0.864405
64514	4.999824	0.507788	8.997313	0.004330	0.000342	-0.000368	-0.150647	0.853113	0.499504	-0.976813	-0.206205	0.057581	0.152123	-0.479247	0.864396
64515	4.972113	0.477597	8.987586	0.003123	0.000874	0.002797	-0.150671	0.853136	0.499457	-0.976819	-0.206192	0.057525	0.152061	-0.479212	0.864427
64516	4.983722	0.509164	8.978955	0.004325	-0.001481	0.002902	-0.150664	0.853119	0.499488	-0.976819	-0.206191	0.057527	0.152067	-0.479242	0.864409
64517	5.005632	0.485630	8.991032	0.003846	0.002242	0.002180	-0.150707	0.853146	0.499429	-0.976819	-0.206203	0.057480	0.152023	-0.479189	0.864446
64518	4.966204	0.501072	8.993851	0.001683	-0.000038	0.000762	-0.150681	0.853141	0.499446	-0.976827	-0.206171	0.057470	0.152001	-0.479213	0.864437
64519	4.972054	0.478433	8.987575	0.005048	-0.000113	0.002285	-0.150706	0.853158	0.499408	-0.976829	-0.206171	0.057434	0.151963	-0.479181	0.864461
64520	4.983398	0.510056	8.979085	0.004084	0.005509	0.004111	-0.150721	0.853173	0.499379	-0.976828	-0.206179	0.057427	0.151957	-0.479152	0.864478
64521	4.989043	0.487426	8.972923	0.003608	-0.001025	0.000249	-0.150728	0.853190	0.499348	-0.976834	-0.206159	0.057389	0.151909	-0.479130	0.864499
64522	5.005177	0.486710	8.991226	0.003840	0.000419	0.005450	-0.150748	0.853177	0.499364	-0.976831	-0.206178	0.057374	0.151908	-0.479145	0.864491
64523	4.989085	0.487767	8.972881	0.003366	-0.000075	0.001523	-0.150773	0.853195	0.499326	-0.976835	-0.206173	0.057328	0.151859	-0.479115	0.864516
64524	4.987686	0.478647	9.006107	0.005529	0.002204	0.002942	-0.150772	0.853196	0.499325	-0.976833	-0.206178	0.057340	0.151872	-0.479111	0.864516
64525	5.016549	0.441795	8.978847	0.004812	0.002659	0.000289	-0.150784	0.853230	0.499262	-0.976838	-0.206164	0.057312	0.151831	-0.479056	0.864553
64526	4.993023	0.533787	9.003921	0.006737	0.001672	-0.000223	-0.150751	0.853235	0.499264	-0.976839	-0.206148	0.057350	0.151856	-0.479055	0.864550
64527	4.973572	0.499603	8.921675	0.003362	0.004143	0.004728	-0.150814	0.853266	0.499191	-0.976837	-0.206171	0.057288	0.151801	-0.478989	0.864596
64528	4.993740	0.466574	8.967199	0.003368	0.005965	0.001458	-0.150804	0.853288	0.499157	-0.976841	-0.206153	0.057289	0.151787	-0.478957	0.864616
64529	4.971342	0.490696	8.955350	0.003136	0.004519	-0.003743	-0.150765	0.853342	0.499077	-0.976858	-0.206080	0.057268	0.151719	-0.478893	0.864663
64530	4.953565	0.482656	8.970384	0.006253	0.003572	0.002325	-0.150759	0.853351	0.499063	-0.976856	-0.206083	0.057289	0.151736	-0.478876	0.864670
64531	4.969447	0.482194	8.988816	0.005772	0.001255	0.001669	-0.150782	0.853375	0.499014	-0.976857	-0.206085	0.057264	0.151706	-0.478832	0.864700
64532	4.963549	0.505543	8.995066	0.006015	0.000305	0.000395	-0.150753	0.853372	0.499028	-0.976859	-0.206070	0.057292	0.151727	-0.478843	0.864690
64533	4.985472	0.482259	9.007140	0.006732	-0.000150	0.003048	-0.150790	0.853387	0.498993	-0.976855	-0.206093	0.057269	0.151711	-0.478808	0.864712
64534	4.969411	0.483613	8.988759	0.006732	-0.000150	0.003049	-0.150786	0.853376	0.499012	-0.976851	-0.206104	0.057291	0.151739	-0.478822	0.864699
64535	4.969463	0.483977	8.988711	0.005766	-0.000566	0.004940	-0.150832	0.853386	0.498982	-0.976849	-0.206127	0.057250	0.151710	-0.478795	0.864720
64536	4.991260	0.460507	9.000868	0.004571	0.003610	0.001563	-0.150819	0.853396	0.498967	-0.976851	-0.206116	0.057260	0.151711	-0.478781	0.864727
64537	4.986564	0.493004	8.973996	0.003124	0.000876	0.002798	-0.150844	0.853418	0.498923	-0.976856	-0.206107	0.057207	0.151653	-0.478747	0.864756
64538	4.992392	0.470560	8.967741	0.007941	-0.000683	-0.000116	-0.150809	0.853411	0.498945	-0.976855	-0.206097	0.057255	0.151693	-0.478763	0.864740
64539	4.985317	0.484624	9.007099	0.005292	-0.001062	0.001013	-0.150812	0.853427	0.498917	-0.976860	-0.206081	0.057230	0.151659	-0.478741	0.864758
64540	4.953139	0.486846	8.970393	0.005773	0.001256	0.001669	-0.150797	0.853426	0.498923	-0.976860	-0.206077	0.057250	0.151675	-0.478745	0.864753
64541	4.974994	0.463611	8.982512	0.007699	0.000268	0.001158	-0.150813	0.853446	0.498884	-0.976858	-0.206084	0.057245	0.151667	-0.478706	0.864776
64542	4.958825	0.465186	8.964180	0.008423	0.001635	0.000541	-0.150787	0.853449	0.498886	-0.976856	-0.206082	0.057294	0.151709	-0.478701	0.864771
64543	5.002398	0.495388	8.992299	0.006498	0.002623	0.001052	-0.150813	0.853479	0.498827	-0.976855	-0.206092	0.057280	0.151691	-0.478643	0.864807
64544	4.985919	0.496920	8.974139	0.009387	0.006272	0.001852	-0.150808	0.853502	0.498790	-0.976849	-0.206106	0.057330	0.151735	-0.478597	0.864825
64545	4.984141	0.488355	9.007548	0.010589	0.003917	0.001959	-0.150816	0.853541	0.498721	-0.976847	-0.206112	0.057347	0.151740	-0.478525	0.864864
64546	4.980655	0.453885	8.943723	0.012522	0.004749	-0.001822	-0.150772	0.853564	0.498695	-0.976841	-0.206109	0.057444	0.151817	-0.478485	0.864872
64547	4.967300	0.414872	8.985736	0.025274	0.004909	0.001626	-0.150801	0.853605	0.498616	-0.976812	-0.206206	0.057589	0.151976	-0.478370	0.864908
64548	5.000372	0.425383	8.989320	0.038047	0.004489	-0.004669	-0.150728	0.853633	0.498590	-0.976773	-0.206302	0.057920	0.152302	-0.478279	0.864900
64549	4.976636	0.443505	9.010477	0.038776	0.005859	-0.005285	-0.150686	0.853693	0.498500	-0.976735	-0.206398	0.058217	0.152589	-0.478130	0.864933
64550	4.964580	0.493356	9.022862	0.046963	0.002413	-0.003394	-0.150623	0.853708	0.498493	-0.976679	-0.206547	0.058619	0.153006	-0.478039	0.864909
64551	5.012104	0.632118	8.954713	0.040226	0.000742	-0.003171	-0.150590	0.853740	0.498449	-0.976636	-0.206666	0.058918	0.153313	-0.477930	0.864915
64552	5.029216	0.643718	8.939787	0.027225	0.005753	-0.002151	-0.150544	0.853768	0.498414	-0.976609	-0.206731	0.059143	0.153532	-0.477852	0.864920
64553	4.976499	0.542910	8.980985	0.009395	0.006280	0.001851	-0.150576	0.853815	0.498324	-0.976603	-0.206753	0.059150	0.153533	-0.477758	0.864971
64554	5.047325	0.526580	9.015337	0.006508	0.008670	0.000977	-0.150566	0.853851	0.498265	-0.976603	-0.206746	0.059180	0.153546	-0.477697	0.865002
64555	5.020200	0.505884	8.972891	0.004107	0.009155	-0.002441	-0.150558	0.853921	0.498149	-0.976613	-0.206704	0.059164	0.153491	-0.477591	0.865071
64556	4.991513	0.552948	8.967351	0.002904	0.011509	-0.002551	-0.150517	0.853977	0.498064	-0.976624	-0.206650	0.059180	0.153463	-0.477513	0.865119
64557	5.000616	0.575192	8.992484	-0.000950	0.013485	-0.001535	-0.150528	0.854065	0.497910	-0.976639	-0.206595	0.059116	0.153354	-0.477380	0.865212
64558	4.976170	0.512356	9.010622	-0.004561	0.014507	-0.001790	-0.150499	0.854135	0.497799	-0.976660	-0.206511	0.059064	0.153249	-0.477292	0.865279
64559	4.980803	0.489250	9.005144	-0.001674	0.012118	-0.000915	-0.150511	0.854215	0.497658	-0.976676	-0.206455	0.058990	0.153134	-0.477172	0.865365
64560	4.968096	0.534995	9.018024	0.000970	0.010681	0.001232	-0.150506	0.854260	0.497583	-0.976684	-0.206424	0.058971	0.153089	-0.477106	0.865410
64561	4.974446	0.444405	8.975555	0.004339	0.010612	0.002760	-0.150549	0.854325	0.497457	-0.976686	-0.206427	0.058931	0.153035	-0.476987	0.865485
64562	4.973264	0.598889	8.983299	0.003381	0.012014	0.001378	-0.150548	0.854376	0.497370	-0.976690	-0.206408	0.058933	0.153012	-0.476904	0.865534
64563	4.962048	0.576799	8.959332	0.000476	0.010771	0.007049	-0.150627	0.854435	0.497246	-0.976693	-0.206421	0.058838	0.152915	-0.476793	0.865612
64564	4.959731	0.489836	8.989558	-0.005063	0.012782	0.007300	-0.150684	0.854477	0.497155	-0.976700	-0.206413	0.058737	0.152808	-0.476721	0.865671
64565	4.931239	0.458640	8.980385	-0.001701	0.006669	0.008905	-0.150793	0.854509	0.497068	-0.976700	-0.206452	0.058615	0.152708	-0.476647	0.865730
64566	4.958495	0.411615	8.986735	0.002154	0.004694	0.007890	-0.150844	0.854511	0.497048	-0.976695	-0.206483	0.058573	0.152683	-0.476629	0.865744
64567	4.918903	0.427018	8.989501	0.007936	0.001730	0.006368	-0.150917	0.854525	0.497002	-0.976684	-0.206543	0.058547	0.152682	-0.476578	0.865772
64568	4.963966	0.466815	8.984300	0.015655	-0.000405	0.001066	-0.150893	0.854518	0.497022	-0.976670	-0.206580	0.058656	0.152798	-0.476576	0.865753
64569	4.958335	0.568403	8.993792	0.021428	-0.005185	0.002818	-0.150914	0.854507	0.497034	-0.976645	-0.206665	0.058765	0.152935	-0.476557	0.865739
64570	4.951610	0.429549	9.025721	0.018071	-0.003298	-0.001984	-0.150856	0.854492	0.497077	-0.976632	-0.206688	0.058910	0.153078	-0.476574	0.865704
64571	4.963546	0.463415	9.016693	0.034943	-0.004239	-0.004078	-0.150818	0.854499	0.497077	-0.976595	-0.206788	0.059170	0.153350	-0.476519	0.865687
64572	4.976862	0.507290	8.974368	0.034705	-0.003283	-0.002805	-0.150752	0.854486	0.497120	-0.976557	-0.206882	0.059463	0.153656	-0.476502	0.865642
64573	4.971331	0.533694	8.980119	0.039292	-0.003888	-0.004434	-0.150704	0.854496	0.497116	-0.976515	-0.206993	0.059763	0.153967	-0.476435	0.865623
64574	4.915097	0.544594	8.997061	0.048917	-0.008222	0.002782	-0.150686	0.854448	0.497205	-0.976447	-0.207203	0.060151	0.154418	-0.476430	0.865545
64575	4.887201	0.509427	9.019821	0.056865	-0.016746	0.006044	-0.150713	0.854376	0.497320	-0.976364	-0.207478	0.060551	0.154917	-0.476439	0.865452
64576	4.950186	0.552430	9.031604	0.058557	-0.022812	0.006899	-0.150711	0.854250	0.497537	-0.976274	-0.207769	0.061003	0.155484	-0.476539	0.865295
64577	4.999978	0.460148	8.951778	0.052073	-0.017587	0.002488	-0.150715	0.854180	0.497657	-0.976200	-0.208005	0.061379	0.155944	-0.476562	0.865200
64578	4.961010	0.470935	8.986447	0.055692	-0.020409	0.006031	-0.150709	0.854066	0.497853	-0.976115	-0.208275	0.061810	0.156480	-0.476646	0.865056
64579	5.013707	0.491573	8.973763	0.052337	-0.018529	0.001228	-0.150698	0.853994	0.497980	-0.976043	-0.208501	0.062194	0.156943	-0.476677	0.864956
64580	4.994557	0.529390	8.927106	0.059599	-0.012710	-0.001614	-0.150628	0.853934	0.498105	-0.975963	-0.208725	0.062697	0.157506	-0.476688	0.864847
64581	4.912976	0.537500	9.031243	0.043923	-0.012319	-0.002679	-0.150591	0.853899	0.498176	-0.975908	-0.208880	0.063029	0.157879	-0.476683	0.864782
64582	4.954970	0.612543	8.997486	0.045614	-0.018385	-0.001816	-0.150510	0.853811	0.498350	-0.975850	-0.209035	0.063411	0.158314	-0.476771	0.864654
64583	4.923456	0.531853	8.989639	0.040794	-0.025286	-0.005280	-0.150435	0.853719	0.498531	-0.975802	-0.209161	0.063728	0.158680	-0.476881	0.864526
64584	5.014799	0.526982	9.007247	0.031866	-0.029258	-0.006468	-0.150291	0.853590	0.498796	-0.975773	-0.209211	0.064015	0.158996	-0.477090	0.864352
64585	5.024650	0.439364	8.963237	0.035017	-0.030787	-0.010128	-0.150146	0.853483	0.499022	-0.975745	-0.209254	0.064307	0.159307	-0.477262	0.864200
64586	5.056074	0.405393	8.934787	0.032373	-0.023319	-0.012379	-0.149954	0.853394	0.499231	-0.975723	-0.209256	0.064627	0.159620	-0.477420	0.864055
64587	5.080843	0.472359	8.915692	0.047613	-0.014561	-0.021897	-0.149713	0.853391	0.499309	-0.975694	-0.209250	0.065087	0.160025	-0.477429	0.863976
64588	5.061170	0.510124	8.869190	0.041826	-0.009796	-0.023665	-0.149433	0.853390	0.499394	-0.975673	-0.209201	0.065545	0.160409	-0.477451	0.863892
64589	5.017894	0.484963	8.840980	0.039175	-0.004133	-0.022639	-0.149214	0.853435	0.499383	-0.975655	-0.209165	0.065936	0.160725	-0.477387	0.863869
64590	4.983656	0.318933	8.864762	0.045467	-0.004760	-0.023499	-0.148944	0.853459	0.499424	-0.975628	-0.209135	0.066425	0.161138	-0.477359	0.863808
64591	4.976891	0.493624	8.909092	0.069659	-0.011919	-0.028233	-0.148639	0.853481	0.499476	-0.975573	-0.209174	0.067106	0.161751	-0.477300	0.863725
64592	4.995205	0.662831	8.898592	0.047919	-0.019722	-0.026305	-0.148317	0.853439	0.499644	-0.975546	-0.209132	0.067630	0.162210	-0.477395	0.863587
64593	5.001548	0.558749	8.922002	0.036075	-0.018894	-0.021916	-0.148056	0.853416	0.499761	-0.975537	-0.209057	0.067990	0.162502	-0.477468	0.863491
64594	5.000109	0.776843	8.995635	0.036816	-0.021762	-0.025710	-0.147736	0.853362	0.499947	-0.975527	-0.208967	0.068415	0.162856	-0.477604	0.863350
64595	5.037924	0.806744	8.930855	0.033438	-0.023505	-0.023952	-0.147489	0.853315	0.500100	-0.975514	-0.208910	0.068763	0.163152	-0.477713	0.863233
64596	4.991810	0.907388	9.007429	0.013834	-0.020552	-0.014278	-0.147283	0.853243	0.500284	-0.975524	-0.208807	0.068933	0.163279	-0.477886	0.863113
64597	4.970895	0.769147	9.021857	0.004882	-0.022108	-0.009000	-0.147181	0.853171	0.500436	-0.975537	-0.208740	0.068960	0.163296	-0.478044	0.863023
64598	4.989254	0.692832	9.036295	0.017945	-0.022826	-0.006807	-0.147044	0.853073	0.500644	-0.975529	-0.208721	0.069128	0.163466	-0.478228	0.862889
64599	4.943687	0.792080	9.112754	0.012636	-0.029627	-0.004432	-0.146940	0.852961	0.500865	-0.975531	-0.208690	0.069199	0.163550	-0.478441	0.862755
64600	5.040334	0.743453	8.994130	0.011659	-0.027590	0.003914	-0.146900	0.852818	0.501121	-0.975517	-0.208733	0.069259	0.163666	-0.478678	0.862601
64601	5.002069	0.750334	9.028803	0.002462	-0.022799	0.000607	-0.146869	0.852726	0.501287	-0.975525	-0.208710	0.069219	0.163648	-0.478852	0.862508
64602	5.028013	0.658181	9.003854	-0.005506	-0.031777	0.007400	-0.146855	0.852554	0.501582	-0.975534	-0.208700	0.069113	0.163603	-0.479161	0.862345
64603	5.037793	0.643793	8.963092	0.006346	-0.028351	0.006174	-0.146850	0.852428	0.501799	-0.975532	-0.208722	0.069078	0.163620	-0.479377	0.862222
64604	5.085609	0.528542	8.950533	0.002226	-0.023632	0.005159	-0.146828	0.852300	0.502022	-0.975533	-0.208730	0.069050	0.163638	-0.479600	0.862094
64605	5.064529	0.543776	8.970275	0.013115	-0.023057	-0.000628	-0.146762	0.852213	0.502189	-0.975530	-0.208721	0.069107	0.163712	-0.479758	0.861992
64606	5.010672	0.638177	8.956150	0.019400	-0.019440	0.001669	-0.146712	0.852113	0.502373	-0.975508	-0.208782	0.069245	0.163891	-0.479910	0.861874
64607	5.059946	0.696556	8.882197	0.021111	-0.025495	0.002553	-0.146697	0.852004	0.502563	-0.975482	-0.208867	0.069356	0.164060	-0.480067	0.861754
64608	5.032159	0.649666	8.938501	0.014572	-0.022118	0.001405	-0.146641	0.851891	0.502770	-0.975467	-0.208903	0.069453	0.164197	-0.480251	0.861625
64609	5.040030	0.705132	8.933829	0.018462	-0.027667	0.006974	-0.146675	0.851760	0.502982	-0.975436	-0.209025	0.069519	0.164350	-0.480430	0.861496
64610	5.049387	0.692064	8.893147	0.014345	-0.024744	0.009244	-0.146691	0.851618	0.503218	-0.975410	-0.209126	0.069576	0.164488	-0.480638	0.861354
64611	5.058353	0.678207	8.852734	0.004412	-0.018877	0.013022	-0.146763	0.851522	0.503359	-0.975402	-0.209192	0.069490	0.164471	-0.480779	0.861279
64612	5.058830	0.669026	8.885216	0.004406	-0.014637	0.016186	-0.146863	0.851415	0.503512	-0.975383	-0.209304	0.069426	0.164498	-0.480921	0.861194
64613	4.987205	0.753415	8.886585	0.009978	-0.014177	0.022393	-0.147104	0.851310	0.503618	-0.975335	-0.209556	0.069342	0.164568	-0.480996	0.861139
64614	4.913213	0.657350	8.982630	0.016792	-0.026331	0.025690	-0.147278	0.851126	0.503878	-0.975281	-0.209809	0.069336	0.164732	-0.481211	0.860987
64615	4.949611	0.665854	8.984118	0.030132	-0.034034	0.026726	-0.147490	0.850923	0.504159	-0.975202	-0.210152	0.069404	0.165007	-0.481421	0.860817
64616	4.975085	0.566947	8.992023	0.042988	-0.035578	0.033453	-0.147724	0.850678	0.504505	-0.975093	-0.210597	0.069584	0.165441	-0.481660	0.860601
64617	4.990975	0.601426	8.980108	0.066547	-0.057923	0.032871	-0.147955	0.850346	0.504996	-0.974945	-0.211166	0.069934	0.166106	-0.481996	0.860284
64618	5.023015	0.550250	9.016790	0.060268	-0.055490	0.030472	-0.148126	0.850011	0.505510	-0.974811	-0.211669	0.070278	0.166738	-0.482367	0.859954
64619	5.075500	0.611349	8.940438	0.079445	-0.060096	0.029879	-0.148322	0.849675	0.506017	-0.974645	-0.212274	0.070753	0.167531	-0.482693	0.859617
64620	5.018963	0.569893	8.958309	0.079258	-0.065139	0.031297	-0.148484	0.849290	0.506615	-0.974478	-0.212876	0.071255	0.168362	-0.483104	0.859223
64621	5.075548	0.505927	8.973073	0.088539	-0.082614	0.025163	-0.148587	0.848856	0.507312	-0.974304	-0.213475	0.071832	0.169273	-0.483603	0.858763
64622	4.913079	0.603013	9.057898	0.091532	-0.095212	0.023075	-0.148616	0.848343	0.508162	-0.974126	-0.214067	0.072480	0.170268	-0.484242	0.858207
64623	4.950214	0.786994	9.098129	0.105312	-0.125450	0.029917	-0.148677	0.847691	0.509229	-0.973919	-0.214774	0.073175	0.171399	-0.485069	0.857514
64624	5.011022	0.713557	8.946335	0.103561	-0.140000	0.037362	-0.148766	0.846928	0.510472	-0.973697	-0.215546	0.073851	0.172577	-0.486059	0.856717
64625	5.074308	0.726985	8.959241	0.083866	-0.152262	0.045587	-0.148949	0.846107	0.511779	-0.973496	-0.216305	0.074281	0.173550	-0.487151	0.855900
64626	4.924358	0.792312	9.068281	0.109670	-0.176543	0.057637	-0.149169	0.845117	0.513348	-0.973231	-0.217280	0.074903	0.174842	-0.488433	0.854906
64627	4.701966	1.055455	9.349127	0.110445	-0.213833	0.080229	-0.149581	0.843914	0.515204	-0.972929	-0.218467	0.075379	0.176168	-0.489981	0.853746
64628	4.909191	0.733959	9.061565	0.093509	-0.283064	0.101414	-0.150033	0.842298	0.517710	-0.972624	-0.219734	0.075633	0.177464	-0.492190	0.852206
64629	4.755127	0.764987	9.280717	0.114979	-0.333834	0.114076	-0.150536	0.840421	0.520608	-0.972263	-0.221209	0.075966	0.179006	-0.494732	0.850410
64630	4.721368	0.790173	9.426488	0.115235	-0.406947	0.131481	-0.151048	0.838105	0.524179	-0.971870	-0.222837	0.076238	0.180702	-0.497918	0.848189
64631	4.810387	0.840145	9.362977	0.089004	-0.495218	0.138312	-0.151487	0.835342	0.528446	-0.971514	-0.224393	0.076210	0.182241	-0.501848	0.845539
64632	4.889394	0.826848	9.511797	0.010056	-0.580164	0.143155	-0.151784	0.832091	0.533466	-0.971291	-0.225590	0.075516	0.183181	-0.506689	0.842444
64633	5.145023	0.942887	9.263833	-0.054239	-0.639656	0.152877	-0.152099	0.828508	0.538925	-0.971171	-0.226547	0.074188	0.183557	-0.512105	0.839080
64634	5.254591	0.727841	9.144619	-0.102389	-0.680534	0.158537	-0.152355	0.824639	0.544755	-0.971130	-0.227282	0.072453	0.183561	-0.517989	0.835460
64635	5.305644	0.728269	8.917532	-0.124960	-0.726314	0.168382	-0.152656	0.820493	0.550896	-0.971116	-0.227974	0.070439	0.183385	-0.524231	0.831596
64636	5.334905	0.781260	9.057980	-0.141673	-0.783061	0.176476	-0.152901	0.815955	0.557529	-0.971118	-0.228623	0.068268	0.183167	-0.530988	0.827346
64637	5.272058	0.981214	9.129664	-0.169603	-0.849515	0.191283	-0.153204	0.810998	0.564633	-0.971149	-0.229231	0.065746	0.182751	-0.538270	0.822719
64638	5.226653	1.051868	9.291836	-0.193494	-0.952387	0.215740	-0.153527	0.805334	0.572597	-0.971184	-0.229878	0.062915	0.182295	-0.546438	0.817419
64639	5.130099	1.262092	9.527292	-0.269459	-1.072634	0.254999	-0.154055	0.798860	0.581455	-0.971294	-0.230397	0.059201	0.181259	-0.555644	0.811422
64640	5.260542	1.484688	9.826917	-0.354846	-1.216607	0.326570	-0.154998	0.791278	0.591485	-0.971442	-0.230955	0.054403	0.179655	-0.566161	0.804478
64641	4.835226	1.049798	9.882474	-0.500426	-1.373722	0.406356	-0.156498	0.782505	0.602656	-0.971713	-0.231250	0.047926	0.176867	-0.578108	0.796561
64642	4.860649	1.012649	9.961276	-0.575603	-1.608708	0.476616	-0.158276	0.771986	0.615619	-0.971985	-0.231538	0.040451	0.173767	-0.591970	0.787005
64643	4.820981	0.797626	10.011564	-0.671503	-1.844504	0.528160	-0.160242	0.759728	0.630187	-0.972309	-0.231517	0.031872	0.170113	-0.607629	0.775789
64644	4.580034	1.035453	10.268397	-0.754429	-2.139358	0.590263	-0.162351	0.745165	0.646816	-0.972637	-0.231257	0.022288	0.166189	-0.625499	0.762321
64645	4.280326	1.124901	10.013501	-0.852351	-2.485371	0.672389	-0.164820	0.727847	0.665638	-0.972945	-0.230755	0.011408	0.161902	-0.645749	0.746188
64646	4.780571	1.118717	10.523693	-0.813520	-2.842888	0.784046	-0.167858	0.707353	0.686640	-0.972957	-0.230987	0.000103	0.158678	-0.668054	0.726997
64647	5.687201	1.354245	11.330494	-0.823668	-3.120343	0.941145	-0.172113	0.683998	0.708889	-0.972661	-0.231901	-0.012396	0.155913	-0.691642	0.705211
64648	5.740022	0.724674	10.839717	-1.000747	-3.539093	1.061458	-0.176948	0.656587	0.733201	-0.972362	-0.231913	-0.026987	0.152319	-0.717712	0.679477
64649	6.211206	1.394545	11.797952	-1.017123	-3.856255	1.219309	-0.182994	0.625600	0.758378	-0.971708	-0.232262	-0.042873	0.149321	-0.744768	0.650403
64650	7.834619	1.694987	11.840297	-1.151409	-4.252540	1.380796	-0.190094	0.590102	0.784630	-0.970844	-0.231864	-0.060828	0.146033	-0.773316	0.616973
64651	8.692396	1.881011	11.633152	-1.367921	-4.497562	1.553371	-0.198712	0.551135	0.810410	-0.969795	-0.229928	-0.081427	0.141459	-0.802112	0.580177
64652	11.583695	0.946551	11.788850	-1.464883	-4.687775	1.581033	-0.207484	0.509246	0.835236	-0.968634	-0.226302	-0.102645	0.136744	-0.830335	0.540227
64653	13.158042	0.568696	12.273466	-1.374951	-4.649635	1.521180	-0.215941	0.466683	0.857657	-0.967272	-0.222112	-0.122681	0.133243	-0.856080	0.499373
64654	12.528977	-0.238749	11.246667	-1.273183	-4.517019	1.419557	-0.223667	0.424357	0.877436	-0.965845	-0.217340	-0.141091	0.130829	-0.879025	0.458475
64655	10.662510	0.111275	10.638882	-0.963571	-4.359114	1.343928	-0.230926	0.382775	0.894515	-0.964056	-0.214188	-0.157225	0.131412	-0.898670	0.418478
64656	8.923759	0.243897	9.748440	-0.735565	-4.233753	1.320300	-0.237987	0.341535	0.909239	-0.961950	-0.212247	-0.172057	0.134220	-0.915590	0.379051
64657	7.438974	0.721233	8.992007	-0.511929	-4.064305	1.364832	-0.245548	0.301215	0.921399	-0.959351	-0.211908	-0.186387	0.139109	-0.929712	0.341005
64658	4.835193	1.451991	8.225965	-0.344073	-3.879061	1.480809	-0.254179	0.261762	0.931060	-0.956154	-0.212809	-0.201200	0.145472	-0.941378	0.304376
64659	-0.102214	2.423178	7.791547	-0.340017	-3.537427	1.747936	-0.265607	0.224654	0.937541	-0.952118	-0.213853	-0.218493	0.151410	-0.950683	0.270698
64660	-0.947153	1.604294	3.532166	-0.553641	-4.067523	2.113635	-0.279373	0.181263	0.942918	-0.947226	-0.212806	-0.239741	0.157203	-0.960134	0.231149
64661	22.398011	-0.803396	14.288420	0.352305	-2.051569	0.906084	-0.284619	0.159686	0.945247	-0.944103	-0.217758	-0.247488	0.166315	-0.962851	0.212738
64662	8.870190	3.264910	13.431529	0.773311	0.561147	0.311868	-0.288477	0.164377	0.943272	-0.941918	-0.225654	-0.248740	0.171965	-0.960240	0.219926
64663	3.668472	4.790956	11.848820	0.647254	2.004229	-0.103664	-0.290942	0.183927	0.938895	-0.941106	-0.231704	-0.246237	0.172256	-0.955240	0.240507
64664	-1.904446	4.644415	8.989797	0.343387	2.417253	-0.230565	-0.292856	0.207477	0.933375	-0.941211	-0.234477	-0.243194	0.168398	-0.949723	0.263948
64665	-3.847827	2.699681	7.241064	0.169006	2.344672	-0.285187	-0.294047	0.230483	0.927585	-0.941769	-0.235493	-0.240029	0.163117	-0.944151	0.286307
64666	-2.716406	1.259594	7.466729	0.476898	2.264502	-0.293519	-0.294919	0.252474	0.921564	-0.941877	-0.239224	-0.235881	0.160907	-0.937565	0.308351
64667	-0.885632	0.874745	8.238199	0.834009	2.355098	-0.371783	-0.295210	0.275502	0.914849	-0.941628	-0.246073	-0.229748	0.161824	-0.929272	0.332064
64668	1.028079	1.075702	8.876831	1.181929	2.661655	-0.528866	-0.294549	0.301411	0.906858	-0.941272	-0.255421	-0.220833	0.165069	-0.918647	0.358944
64669	2.029946	1.661037	9.230074	1.388708	3.109778	-0.692133	-0.293227	0.331727	0.896646	-0.940985	-0.265943	-0.209338	0.169014	-0.905114	0.390132
64670	2.350075	1.925587	9.283970	1.441797	3.512610	-0.789383	-0.291761	0.365370	0.883957	-0.940850	-0.276078	-0.196427	0.172272	-0.888980	0.424307
64671	2.438217	1.445636	9.019545	1.422526	3.809222	-0.803679	-0.290807	0.401298	0.868557	-0.940720	-0.285561	-0.183031	0.174576	-0.870296	0.460552
64672	2.848712	0.564582	8.854970	1.457653	4.002045	-0.775855	-0.290504	0.437956	0.850766	-0.940432	-0.294790	-0.169371	0.176620	-0.849290	0.497505
64673	3.559519	-0.266692	8.831896	1.599327	4.140603	-0.733903	-0.290987	0.474996	0.830485	-0.939712	-0.304883	-0.154881	0.179633	-0.825485	0.535076
64674	4.270419	-0.640238	8.961951	1.846327	4.243721	-0.694751	-0.292158	0.511619	0.808016	-0.938392	-0.316403	-0.138959	0.184565	-0.798833	0.572539
64675	4.655664	-0.443103	9.169776	2.089537	4.279074	-0.673209	-0.293910	0.547509	0.783487	-0.936427	-0.329269	-0.121186	0.191627	-0.769296	0.609477
64676	5.231094	-0.004848	9.519000	2.249337	4.242455	-0.684410	-0.295786	0.581777	0.757658	-0.934056	-0.342307	-0.101806	0.200123	-0.737808	0.644663
64677	5.866370	0.427465	10.198955	2.340103	4.169814	-0.756112	-0.297295	0.614643	0.730636	-0.931496	-0.354702	-0.080634	0.209597	-0.704557	0.677989
64678	6.580521	0.570891	11.206720	2.342248	4.089730	-0.895522	-0.297699	0.645984	0.702908	-0.929156	-0.365113	-0.057976	0.219189	-0.670371	0.708914
64679	7.686655	0.433447	12.140478	2.311036	3.993556	-1.071984	-0.296718	0.676162	0.674362	-0.927157	-0.373145	-0.033806	0.228777	-0.635270	0.737627
64680	9.152440	-0.024688	12.689107	2.387814	3.946666	-1.252030	-0.294322	0.705233	0.644997	-0.925288	-0.379188	-0.007623	0.239199	-0.599052	0.764147
64681	9.925820	0.173877	12.859273	2.381390	3.883915	-1.426644	-0.290657	0.733351	0.614585	-0.923629	-0.382769	0.019923	0.249855	-0.561858	0.788599
64682	10.019585	0.947237	12.870912	2.321945	3.732002	-1.612624	-0.285262	0.759817	0.584213	-0.922367	-0.383303	0.048141	0.260509	-0.525126	0.810171
64683	10.207265	1.624518	13.196859	2.098720	3.456805	-1.785466	-0.277998	0.784305	0.554601	-0.921820	-0.380180	0.075573	0.270121	-0.490233	0.828678
64684	12.813606	2.376353	14.667803	1.819149	3.140731	-1.946889	-0.268624	0.806542	0.526622	-0.922173	-0.373277	0.101298	0.278277	-0.458425	0.844043
64685	18.185882	2.052787	16.194882	1.367105	3.181055	-2.123338	-0.257973	0.828543	0.496958	-0.923925	-0.361966	0.123867	0.282511	-0.427197	0.858889
64686	21.638242	0.439901	15.556726	0.936215	3.718729	-2.275327	-0.247371	0.851855	0.461683	-0.927053	-0.346641	0.142873	0.281745	-0.392662	0.875463
64687	22.159319	-2.095986	13.813058	0.697904	4.469866	-2.345352	-0.238104	0.876497	0.418401	-0.930794	-0.328952	0.159416	0.277362	-0.351487	0.894163
64688	15.888258	3.002181	16.120676	0.744779	3.905952	-1.777454	-0.232295	0.895239	0.380246	-0.932936	-0.315643	0.173203	0.275080	-0.314511	0.908523
64689	16.408142	-9.137772	-0.555798	-3.289766	3.809213	-1.394864	-0.228944	0.911061	0.342860	-0.944553	-0.293082	0.148065	0.235383	-0.289951	0.927644
64690	16.340890	-14.400852	0.228855	-0.093605	3.061273	-0.614960	-0.230181	0.921300	0.313405	-0.946198	-0.287149	0.149181	0.227434	-0.262205	0.937829
64691	18.790308	-9.480614	0.919730	0.462797	2.941287	0.043687	-0.237263	0.928506	0.285627	-0.945055	-0.288682	0.153407	0.224895	-0.233535	0.945983
64692	17.100608	-7.990591	-2.495880	0.910674	2.508026	0.386891	-0.246551	0.932915	0.262455	-0.942076	-0.294254	0.160955	0.227386	-0.207569	0.951426
64693	14.388085	-6.058192	-5.478111	0.876218	1.754397	0.590548	-0.256133	0.934657	0.246600	-0.938594	-0.301480	0.167782	0.231163	-0.188482	0.954483
64694	12.400388	-5.356456	-7.394695	0.446383	0.605885	0.443654	-0.261667	0.934435	0.241580	-0.936426	-0.306415	0.170929	0.233745	-0.181496	0.955208
64695	13.645198	-3.058257	-7.945114	-0.251572	-0.676875	0.140639	-0.261401	0.932773	0.248201	-0.936660	-0.307234	0.168153	0.233105	-0.188524	0.954002
64696	15.415902	-3.289849	-8.032423	-1.624119	-1.833224	-0.175068	-0.255547	0.929654	0.265405	-0.940830	-0.302326	0.153093	0.222562	-0.210579	0.951905
64697	6.201800	-6.601452	-0.566019	-2.502388	-2.451707	-0.375356	-0.246749	0.925256	0.288126	-0.947139	-0.293166	0.130316	0.205044	-0.240740	0.948684
64698	1.207985	-4.707687	10.528138	-1.506559	-3.203088	-0.440323	-0.236073	0.918277	0.317862	-0.951257	-0.285184	0.117384	0.198441	-0.274657	0.940843
64699	4.068726	2.450927	17.807656	-0.940145	-2.495451	0.070263	-0.231819	0.910923	0.341290	-0.952959	-0.283091	0.108297	0.195266	-0.300130	0.933698
64700	3.500455	-4.089796	10.819680	-2.267419	-2.512149	0.804654	-0.234756	0.900739	0.365456	-0.955346	-0.283202	0.084327	0.179455	-0.329340	0.927001
64701	5.336682	-13.355503	10.079255	-1.505759	-2.742819	0.816601	-0.237741	0.889008	0.391335	-0.956072	-0.285300	0.067301	0.171479	-0.358145	0.917784
64702	10.258841	-6.546923	12.114380	0.779830	-2.919259	0.267336	-0.235046	0.877440	0.418154	-0.954062	-0.290504	0.073302	0.185793	-0.381716	0.905414
64703	20.600727	1.724689	16.886468	0.909211	-2.492674	0.090328	-0.231092	0.867440	0.440618	-0.952114	-0.294809	0.081031	0.200188	-0.400793	0.894030
64704	15.333668	4.696944	12.477368	0.077724	-1.063079	0.089079	-0.229761	0.862869	0.450185	-0.951768	-0.295851	0.081304	0.203342	-0.409791	0.889226
64705	5.476270	1.162989	9.065086	-0.616505	-0.766372	0.070445	-0.228879	0.859501	0.457026	-0.952865	-0.293862	0.075452	0.199154	-0.418215	0.886247
64706	6.664943	-0.123349	10.455468	-0.080976	-0.847634	0.008104	-0.227230	0.855901	0.464544	-0.953024	-0.293545	0.074676	0.200280	-0.425753	0.882396
64707	6.515830	-0.792391	9.805336	-0.116171	-0.601005	0.013868	-0.226147	0.853296	0.469834	-0.953243	-0.293122	0.073529	0.200460	-0.431237	0.879687
64708	5.333696	1.963368	8.852102	0.138057	-0.510702	0.014068	-0.225218	0.851042	0.474346	-0.952949	-0.293795	0.074652	0.202893	-0.435214	0.877168
64709	7.514131	3.427652	9.660984	0.022972	-0.481084	0.056067	-0.224762	0.848785	0.478588	-0.952794	-0.294327	0.074528	0.204120	-0.439245	0.874871
64710	5.146536	0.176468	8.879182	-0.316273	-0.093728	0.059084	-0.225101	0.848198	0.479467	-0.953318	-0.293392	0.071456	0.201281	-0.441000	0.874646
64711	5.146861	0.368216	9.338131	-0.007382	-0.246372	0.039601	-0.224970	0.847003	0.481637	-0.953262	-0.293650	0.071146	0.201693	-0.443121	0.873478
64712	5.170703	0.227414	8.998675	-0.047208	-0.156990	0.034333	-0.224947	0.846205	0.483048	-0.953295	-0.293686	0.070546	0.201560	-0.444618	0.872747
64713	4.932478	0.468955	9.182519	-0.021584	-0.153623	0.017983	-0.224797	0.845478	0.484390	-0.953317	-0.293696	0.070214	0.201628	-0.445993	0.872030
64714	4.861437	-0.038628	9.221311	-0.040417	-0.155808	0.011244	-0.224557	0.844749	0.485771	-0.953388	-0.293566	0.069785	0.201557	-0.447458	0.871296
64715	4.977692	0.107087	9.199185	0.017499	-0.157643	-0.001540	-0.224212	0.844057	0.487132	-0.953375	-0.293585	0.069888	0.202004	-0.448749	0.870528
64716	5.096322	0.695590	9.004542	0.035888	-0.142943	-0.006538	-0.223827	0.843433	0.488387	-0.953332	-0.293646	0.070211	0.202631	-0.449880	0.869798
64717	4.948231	0.725862	8.974387	0.026990	-0.118437	-0.003717	-0.223539	0.842920	0.489403	-0.953304	-0.293691	0.070406	0.203080	-0.450811	0.869211
64718	4.990756	0.725281	9.005427	0.000755	-0.125099	0.002350	-0.223274	0.842349	0.490507	-0.953313	-0.293669	0.070380	0.203331	-0.451893	0.868590
64719	5.045756	0.690574	8.959918	0.005232	-0.108036	0.001975	-0.223061	0.841864	0.491436	-0.953316	-0.293663	0.070359	0.203549	-0.452799	0.868067
64720	4.941456	0.744769	8.958326	-0.016318	-0.111762	0.014247	-0.222936	0.841315	0.492431	-0.953333	-0.293664	0.070125	0.203607	-0.453818	0.867522
64721	4.989443	0.724108	8.951682	-0.017759	-0.107316	0.016586	-0.222863	0.840788	0.493363	-0.953351	-0.293677	0.069833	0.203604	-0.454784	0.867016
64722	5.016934	0.558079	9.019463	-0.031554	-0.103230	0.017953	-0.222791	0.840265	0.494286	-0.953390	-0.293639	0.069450	0.203498	-0.455775	0.866521
64723	5.033827	0.169359	9.181292	-0.025100	-0.092003	0.008096	-0.222669	0.839831	0.495078	-0.953442	-0.293546	0.069136	0.203391	-0.456633	0.866094
64724	5.206431	0.454290	9.018010	-0.026105	-0.094352	-0.001084	-0.222433	0.839403	0.495910	-0.953513	-0.293373	0.068894	0.203316	-0.457532	0.865637
64725	4.988443	0.307361	9.039474	-0.018473	-0.078459	-0.009753	-0.222169	0.839082	0.496571	-0.953590	-0.293160	0.068726	0.203241	-0.458257	0.865271
64726	5.130804	0.628615	8.935339	0.001795	-0.074630	-0.014262	-0.221847	0.838781	0.497223	-0.953634	-0.293003	0.068791	0.203388	-0.458907	0.864892
64727	5.101086	0.485243	8.987620	-0.014325	-0.062481	-0.020008	-0.221518	0.838562	0.497739	-0.953725	-0.292723	0.068710	0.203317	-0.459486	0.864601
64728	5.154463	0.520546	8.977137	-0.000395	-0.061140	-0.017009	-0.221197	0.838330	0.498271	-0.953779	-0.292533	0.068770	0.203413	-0.460029	0.864290
64729	5.097653	0.456532	8.992132	-0.006171	-0.052970	-0.025721	-0.220832	0.838171	0.498701	-0.953867	-0.292243	0.068788	0.203398	-0.460504	0.864040
64730	5.061925	0.600294	8.999523	0.006381	-0.055283	-0.022671	-0.220470	0.837982	0.499178	-0.953920	-0.292037	0.068935	0.203545	-0.460978	0.863753
64731	5.050754	0.602036	8.978337	-0.013255	-0.055101	-0.020883	-0.220147	0.837798	0.499630	-0.954011	-0.291754	0.068868	0.203466	-0.461491	0.863497
64732	5.032463	0.425830	8.954316	-0.001912	-0.060418	-0.022403	-0.219776	0.837584	0.500151	-0.954080	-0.291512	0.068943	0.203545	-0.462032	0.863189
64733	5.027624	0.599492	8.968980	0.030265	-0.071602	-0.018784	-0.219439	0.837317	0.500746	-0.954078	-0.291448	0.069241	0.203918	-0.462556	0.862820
64734	5.045829	0.664011	8.925497	0.039549	-0.076498	-0.015213	-0.219104	0.837007	0.501411	-0.954046	-0.291458	0.069637	0.204427	-0.463111	0.862402
64735	5.062498	0.721986	8.915390	0.048666	-0.080372	-0.010384	-0.218829	0.836674	0.502086	-0.953987	-0.291550	0.070052	0.204994	-0.463655	0.861976
64736	5.121590	0.737347	8.898585	0.026704	-0.082487	-0.009942	-0.218531	0.836320	0.502806	-0.953970	-0.291545	0.070311	0.205393	-0.464296	0.861535
64737	5.065050	0.612149	8.846311	0.019849	-0.078592	-0.005358	-0.218306	0.835979	0.503469	-0.953959	-0.291546	0.070453	0.205681	-0.464908	0.861136
64738	5.018123	0.689132	8.925723	0.024958	-0.079337	0.001649	-0.218125	0.835605	0.504169	-0.953919	-0.291630	0.070639	0.206057	-0.465528	0.860711
64739	5.101038	0.692382	8.854985	0.024596	-0.084329	0.003187	-0.217969	0.835212	0.504886	-0.953880	-0.291724	0.070778	0.206402	-0.466174	0.860279
64740	5.118863	0.709497	8.907337	0.012265	-0.084684	0.002311	-0.217783	0.834810	0.505632	-0.953865	-0.291755	0.070851	0.206668	-0.466875	0.859835
64741	5.124081	0.647110	8.836739	0.002897	-0.082070	0.006779	-0.217666	0.834416	0.506332	-0.953863	-0.291778	0.070786	0.206802	-0.467564	0.859428
64742	5.115199	0.471278	8.936159	-0.009052	-0.086113	0.006775	-0.217518	0.833992	0.507092	-0.953883	-0.291747	0.070653	0.206867	-0.468338	0.858991
64743	5.139303	0.646249	8.827958	0.010042	-0.088587	0.004336	-0.217364	0.833574	0.507846	-0.953871	-0.291783	0.070662	0.207083	-0.469060	0.858545
64744	5.121483	0.686929	8.848284	-0.009157	-0.093751	0.010462	-0.217236	0.833103	0.508673	-0.953883	-0.291782	0.070509	0.207163	-0.469898	0.858067
64745	5.143819	0.621511	8.795378	-0.014871	-0.099256	0.014286	-0.217154	0.832603	0.509525	-0.953901	-0.291783	0.070254	0.207164	-0.470780	0.857583
64746	5.115870	0.599935	8.854992	-0.017368	-0.107538	0.013213	-0.217024	0.832057	0.510472	-0.953924	-0.291766	0.070017	0.207196	-0.471756	0.857039
64747	5.141059	0.728035	8.842266	-0.013733	-0.110900	0.021550	-0.216988	0.831480	0.511427	-0.953924	-0.291833	0.069734	0.207233	-0.472731	0.856493
64748	5.105109	0.698178	8.810845	-0.003044	-0.119147	0.024034	-0.216936	0.830845	0.512479	-0.953893	-0.291973	0.069564	0.207427	-0.473760	0.855877
64749	5.100229	0.791851	8.823601	0.019138	-0.128979	0.032653	-0.216967	0.830147	0.513596	-0.953801	-0.292287	0.069506	0.207817	-0.474788	0.855213
64750	5.003641	0.878928	8.918782	0.023690	-0.134315	0.047079	-0.217103	0.829371	0.514792	-0.953665	-0.292745	0.069446	0.208299	-0.475862	0.854498
64751	5.083624	0.788891	8.912476	0.036668	-0.163599	0.056035	-0.217284	0.828436	0.516218	-0.953486	-0.293337	0.069416	0.208932	-0.477123	0.853640
64752	5.072444	0.599167	8.950859	0.054694	-0.174622	0.063774	-0.217493	0.827414	0.517768	-0.953248	-0.294080	0.069533	0.209797	-0.478438	0.852691
64753	5.143536	0.582353	8.956812	0.074536	-0.190400	0.063322	-0.217684	0.826325	0.519424	-0.952972	-0.294914	0.069786	0.210851	-0.479805	0.851662
64754	5.362630	0.466985	8.822859	0.069920	-0.202514	0.064381	-0.217835	0.825161	0.521208	-0.952700	-0.295736	0.070026	0.211922	-0.481300	0.850552
64755	5.258438	0.349372	8.817848	0.105687	-0.193044	0.057717	-0.217962	0.824069	0.522879	-0.952368	-0.296674	0.070569	0.213278	-0.482592	0.849481
64756	5.248959	0.608456	8.911002	0.120613	-0.197304	0.058982	-0.218068	0.822940	0.524611	-0.951997	-0.297696	0.071264	0.214821	-0.483888	0.848354
64757	5.315128	0.563973	8.819758	0.119152	-0.212791	0.059825	-0.218167	0.821740	0.526447	-0.951629	-0.298718	0.071907	0.216348	-0.485295	0.847162
64758	5.128935	0.563265	9.064383	0.128106	-0.225217	0.058539	-0.218201	0.820469	0.528411	-0.951239	-0.299775	0.072663	0.218022	-0.486790	0.845873
64759	5.285530	0.687774	8.831389	0.141219	-0.249374	0.057527	-0.218190	0.819091	0.530550	-0.950823	-0.300888	0.073498	0.219838	-0.488423	0.844461
64760	5.297621	0.418439	8.813797	0.130956	-0.265814	0.063923	-0.218177	0.817597	0.532855	-0.950411	-0.302006	0.074244	0.221627	-0.490233	0.842943
64761	5.228101	0.446409	8.888013	0.167231	-0.293920	0.054697	-0.218031	0.815998	0.535360	-0.949938	-0.303226	0.075307	0.223786	-0.492140	0.841260
64762	5.267818	0.743951	8.839139	0.186798	-0.325349	0.057913	-0.217815	0.814216	0.538153	-0.949408	-0.304574	0.076547	0.226233	-0.494254	0.839364
64763	5.191735	0.752157	8.887610	0.173467	-0.364118	0.063738	-0.217580	0.812228	0.541243	-0.948894	-0.305904	0.077605	0.228601	-0.496698	0.837277
64764	5.106977	0.934713	9.056415	0.156258	-0.407252	0.075674	-0.217328	0.809967	0.544722	-0.948387	-0.307250	0.078482	0.230933	-0.499551	0.834936
64765	5.125471	0.745041	9.011157	0.174140	-0.484310	0.086554	-0.217013	0.807283	0.548816	-0.947815	-0.308775	0.079408	0.233565	-0.502943	0.832163
64766	5.070033	0.721457	9.082261	0.161219	-0.547499	0.093191	-0.216576	0.804230	0.553452	-0.947250	-0.310293	0.080215	0.236244	-0.506885	0.829009
64767	5.062477	0.902524	9.154013	0.144435	-0.632711	0.107333	-0.216079	0.800686	0.558759	-0.946695	-0.311842	0.080762	0.238910	-0.511524	0.825388
64768	5.095653	0.985255	9.220763	0.117381	-0.723454	0.128368	-0.215522	0.796563	0.564834	-0.946153	-0.313425	0.080990	0.241547	-0.516964	0.821221
64769	5.194241	1.051944	9.121467	0.073473	-0.821997	0.145128	-0.214890	0.791844	0.571668	-0.945682	-0.314912	0.080717	0.243940	-0.523271	0.816505
64770	5.304964	0.952561	9.074857	0.022366	-0.900875	0.156820	-0.214132	0.786603	0.579141	-0.945308	-0.316221	0.079980	0.246049	-0.530340	0.811295
64771	5.324314	0.799996	8.946954	0.003402	-0.997208	0.170201	-0.213268	0.780749	0.587323	-0.944956	-0.317525	0.078967	0.248143	-0.538153	0.805491
64772	5.421229	0.794430	8.996817	-0.029278	-1.107789	0.177651	-0.212152	0.774173	0.596363	-0.944668	-0.318701	0.077665	0.250187	-0.546888	0.798949
64773	5.338518	0.785974	9.033346	-0.079996	-1.235540	0.194784	-0.210882	0.766748	0.606322	-0.944477	-0.319712	0.075810	0.251976	-0.556670	0.791597
64774	5.242867	0.750032	9.169378	-0.107485	-1.378763	0.208729	-0.209332	0.758327	0.617349	-0.944327	-0.320652	0.073672	0.253822	-0.567558	0.783232
64775	5.116617	0.988283	9.640068	-0.136701	-1.559991	0.230306	-0.207527	0.748654	0.629642	-0.944215	-0.321556	0.071127	0.255715	-0.579757	0.773622
64776	4.865303	1.216739	10.034786	-0.193664	-1.788596	0.270757	-0.205459	0.737286	0.643581	-0.944170	-0.322384	0.067903	0.257544	-0.593699	0.762360
64777	4.888303	1.392341	10.410725	-0.203908	-2.064937	0.341977	-0.203343	0.723777	0.659392	-0.944018	-0.323609	0.064092	0.259773	-0.609445	0.749062
64778	4.707192	1.604059	11.034914	-0.277294	-2.382842	0.442305	-0.201267	0.707603	0.677340	-0.943864	-0.325011	0.059069	0.261941	-0.627428	0.733295
64779	4.517319	2.032437	11.130243	-0.362842	-2.800204	0.586346	-0.199436	0.687854	0.697912	-0.943661	-0.326743	0.052373	0.264063	-0.648148	0.714266
64780	4.681240	2.009867	10.794482	-0.511978	-3.227919	0.758170	-0.198007	0.664063	0.720981	-0.943528	-0.328441	0.043386	0.265611	-0.671674	0.691596
64781	5.285819	1.561177	10.238908	-0.616922	-3.665817	0.928602	-0.197009	0.635935	0.746173	-0.943352	-0.330211	0.032357	0.266971	-0.697530	0.664965
64782	6.205704	2.044707	10.186329	-0.796137	-4.037065	1.120009	-0.196754	0.603501	0.772706	-0.943292	-0.331439	0.018672	0.267374	-0.725213	0.634490
64783	7.277887	2.179208	11.090478	-0.867917	-4.432503	1.323600	-0.197381	0.566351	0.800179	-0.943020	-0.332723	0.002879	0.267869	-0.754017	0.599754
64784	8.525676	2.962005	11.796989	-1.236194	-4.757919	1.604215	-0.199785	0.524414	0.827693	-0.943149	-0.331916	-0.017356	0.265623	-0.784106	0.560912
64785	10.376254	2.540552	12.382615	-1.348849	-5.008747	1.836403	-0.203874	0.478351	0.854175	-0.943019	-0.330314	-0.040099	0.262964	-0.813679	0.518437
64786	13.593791	1.789169	12.861029	-1.499064	-5.296522	1.897429	-0.207893	0.428235	0.879429	-0.943047	-0.326450	-0.063968	0.259696	-0.842642	0.471713
64787	15.336540	1.096011	13.180781	-1.529035	-5.237617	1.802638	-0.211392	0.377626	0.901505	-0.943221	-0.320603	-0.086879	0.256217	-0.868684	0.423958
64788	15.076487	-0.345397	13.324967	-1.481445	-5.069437	1.604211	-0.213586	0.327911	0.920247	-0.943601	-0.313175	-0.107413	0.252977	-0.891289	0.376307
64789	11.820350	-0.130675	13.123062	-1.006476	-4.956392	1.406751	-0.214300	0.278965	0.936085	-0.943149	-0.308364	-0.124021	0.254058	-0.909445	0.329188
64790	8.767592	0.428158	11.964901	-0.688590	-4.834186	1.300450	-0.214150	0.230641	0.949181	-0.942143	-0.305319	-0.138373	0.257888	-0.923897	0.282681
64791	5.111749	2.001091	11.116952	-0.350623	-4.677100	1.350687	-0.214653	0.183125	0.959369	-0.940166	-0.304849	-0.152166	0.264598	-0.934629	0.237605
64792	0.565738	3.281377	10.786768	-0.471095	-4.567871	1.579862	-0.217245	0.135413	0.966679	-0.938031	-0.302897	-0.168377	0.270004	-0.943354	0.192825
64793	-4.475849	2.534643	7.777439	-0.852451	-4.329670	1.990239	-0.224178	0.088523	0.970519	-0.935947	-0.297061	-0.189096	0.271564	-0.950746	0.149447
64794	17.070479	-2.424396	6.878173	-0.054957	-4.405888	1.933218	-0.230024	0.040798	0.972329	-0.931727	-0.297745	-0.207925	0.281024	-0.953773	0.106502
64795	19.103349	3.213176	16.379612	1.238980	0.007382	1.280882	-0.241943	0.037079	0.969582	-0.925150	-0.310060	-0.218998	0.292508	-0.949994	0.109320
64796	8.868760	7.838044	16.576807	0.290901	1.808112	0.568515	-0.252434	0.052460	0.966191	-0.922916	-0.313034	-0.224132	0.290693	-0.948292	0.127437
64797	-0.548254	7.344273	10.958278	-0.261852	2.802833	0.364250	-0.263809	0.078017	0.961415	-0.922722	-0.310830	-0.227969	0.281051	-0.947258	0.153988
64798	-5.128295	5.849640	8.704544	-0.912627	2.759285	0.152686	-0.272722	0.103682	0.956490	-0.924824	-0.302279	-0.230927	0.265184	-0.947564	0.178326
64799	-3.729010	1.791598	7.925289	-1.005627	2.584529	-0.103292	-0.278407	0.128621	0.951812	-0.927689	-0.292682	-0.231800	0.248764	-0.947520	0.200805
64800	-1.376954	0.524778	8.637581	-0.337742	2.706490	-0.378585	-0.281445	0.155319	0.946924	-0.929590	-0.288904	-0.228905	0.238017	-0.944675	0.225694
64801	0.401707	0.784342	9.165447	0.164202	3.071378	-0.691256	-0.282221	0.186397	0.941067	-0.931146	-0.289327	-0.221939	0.230908	-0.938907	0.255217
64802	1.065807	1.791522	9.462337	0.490605	3.526737	-0.926032	-0.281606	0.222043	0.933485	-0.932656	-0.291976	-0.211905	0.225503	-0.930294	0.289311
64803	1.491818	2.090551	9.315256	0.544431	3.914797	-1.012143	-0.280883	0.261378	0.923464	-0.934282	-0.294625	-0.200782	0.219596	-0.919172	0.326956
64804	2.083616	1.287668	9.063043	0.549094	4.229661	-0.971287	-0.280912	0.302839	0.910701	-0.935841	-0.296848	-0.189955	0.212814	-0.905632	0.366798
64805	3.003051	0.019275	8.922599	0.667919	4.480245	-0.874486	-0.282136	0.345826	0.894876	-0.936892	-0.300069	-0.179421	0.206476	-0.889024	0.408662
64806	4.190314	-0.776118	8.940673	0.953618	4.719886	-0.774318	-0.284488	0.389654	0.875920	-0.937156	-0.305555	-0.168450	0.202005	-0.868796	0.452093
64807	5.144288	-0.821408	8.962436	1.332595	4.953623	-0.705146	-0.287876	0.434442	0.853456	-0.936480	-0.314127	-0.155977	0.200330	-0.844147	0.497276
64808	5.689810	-0.133219	9.106197	1.621878	5.148338	-0.679612	-0.291803	0.479337	0.827700	-0.935216	-0.324434	-0.141822	0.200553	-0.815462	0.542954
64809	6.033289	0.526674	9.181079	1.799444	5.252447	-0.708841	-0.295786	0.523829	0.798820	-0.933663	-0.335322	-0.125827	0.201950	-0.783047	0.588264
64810	9.240161	4.635942	6.131610	2.215737	5.068609	-0.930323	-0.297454	0.565808	0.769014	-0.931903	-0.347168	-0.105028	0.207551	-0.747887	0.630545
64811	5.942788	27.194864	13.661376	0.424758	5.312638	-1.143045	-0.297537	0.608779	0.735432	-0.934434	-0.343614	-0.093610	0.195717	-0.715065	0.671101
64812	8.332363	-14.582867	8.492777	-9.401241	4.166759	-4.010312	-0.265551	0.650568	0.711508	-0.959422	-0.250912	-0.128656	0.094826	-0.716802	0.690799
64813	11.573797	-33.654556	3.935343	3.986414	5.353536	-2.380984	-0.248453	0.693975	0.675773	-0.961260	-0.262623	-0.083717	0.119376	-0.670393	0.732340
64814	9.548300	6.181919	16.379052	5.404516	4.693103	-1.861084	-0.237106	0.729408	0.641674	-0.958245	-0.284268	-0.030947	0.159835	-0.622219	0.766353
64815	11.213309	1.022355	11.135243	1.712802	4.702735	-1.282547	-0.232509	0.761511	0.605013	-0.958463	-0.285057	-0.009548	0.165192	-0.582103	0.796158
64816	14.289848	2.438049	14.262482	2.912756	4.822490	-0.633143	-0.234785	0.790323	0.565921	-0.954903	-0.296387	0.017749	0.181759	-0.536232	0.824268
64817	17.243356	0.376447	15.713068	1.568331	5.109442	-0.282165	-0.241504	0.817505	0.522839	-0.952694	-0.302195	0.032451	0.184529	-0.490268	0.851813
64818	17.278828	-3.201287	14.852223	1.944734	5.504606	-0.277722	-0.249125	0.843927	0.475104	-0.949753	-0.308877	0.050646	0.189490	-0.438614	0.878471
64819	15.994795	-2.752193	14.192650	2.365330	5.723968	-0.353565	-0.256897	0.868607	0.423706	-0.946065	-0.315572	0.073322	0.197398	-0.382017	0.902827
64820	14.686411	-1.411817	12.927175	2.616856	5.656138	-0.267707	-0.265784	0.889436	0.371837	-0.941484	-0.322416	0.098260	0.207282	-0.323963	0.923083
64821	14.712970	-0.622620	11.745669	2.651929	5.332274	-0.076791	-0.276438	0.905510	0.321922	-0.936055	-0.329571	0.123225	0.217678	-0.267272	0.938713
64822	9.556409	2.060754	15.581085	2.768664	4.520908	0.167402	-0.288104	0.915903	0.279494	-0.929392	-0.337762	0.148823	0.230710	-0.216883	0.948543
64823	23.621222	-5.569105	-0.998885	0.333496	3.140716	0.274233	-0.297836	0.921349	0.249819	-0.927830	-0.340949	0.151276	0.224553	-0.186734	0.956403
64824	19.438013	-11.566173	5.256932	2.140149	3.232317	0.018283	-0.305393	0.926729	0.218878	-0.922881	-0.344681	0.171715	0.234577	-0.149558	0.960524
64825	25.514353	-3.761626	3.829281	3.278811	3.516268	-0.127710	-0.312826	0.931678	0.184704	-0.915278	-0.347658	0.203472	0.253784	-0.105404	0.961501
64826	20.281045	-1.399157	-2.499304	2.107429	3.266177	-0.086020	-0.320442	0.934813	0.153109	-0.910128	-0.348646	0.223858	0.262646	-0.067615	0.962520
64827	15.997245	-2.248834	-7.122834	1.300475	2.269633	-0.022897	-0.326249	0.936148	0.131108	-0.906773	-0.349118	0.236386	0.267065	-0.041765	0.962773
64828	14.800029	-3.291711	-7.994182	0.414091	0.669657	-0.303218	-0.325260	0.937466	0.123950	-0.906673	-0.346404	0.240723	0.268606	-0.034085	0.962647
64829	16.197696	-1.681420	-7.273847	-0.559660	-0.970880	-0.678215	-0.316493	0.939420	0.131611	-0.910365	-0.339792	0.236174	0.266587	-0.045067	0.962757
64830	18.472665	-1.322583	-6.900874	-1.942098	-2.370708	-0.968630	-0.301405	0.941261	0.152259	-0.918454	-0.329495	0.218803	0.256119	-0.073895	0.963817
64831	8.477556	-7.033293	0.543928	-3.254210	-2.960829	-1.217457	-0.282867	0.942440	0.178307	-0.930014	-0.314970	0.189388	0.234648	-0.112257	0.965577
64832	0.898196	-8.528975	10.656827	-1.657653	-3.285371	-1.535501	-0.260888	0.942874	0.207186	-0.938043	-0.298298	0.176332	0.228063	-0.148347	0.962279
64833	1.761421	4.422015	15.278779	0.210882	-2.923460	-0.895224	-0.245657	0.940789	0.233599	-0.939839	-0.290173	0.180284	0.237393	-0.175257	0.955473
64834	0.013320	4.791405	11.467889	-2.171991	-2.764312	0.182604	-0.240971	0.934976	0.260294	-0.944419	-0.287692	0.159080	0.223620	-0.207493	0.952334
64835	5.921112	-4.602831	7.122395	-2.750311	-2.796457	0.758274	-0.242147	0.926526	0.287949	-0.948488	-0.288542	0.130817	0.204291	-0.241440	0.948669
64836	7.269100	-6.480206	10.311592	-1.922873	-2.505966	0.911468	-0.245799	0.917473	0.312772	-0.950092	-0.291988	0.109855	0.192115	-0.270160	0.943454
64837	6.171375	-3.330561	12.063264	-1.448075	-2.543209	0.747466	-0.248095	0.908072	0.337423	-0.950990	-0.294662	0.093763	0.184569	-0.297624	0.936672
64838	7.875113	-5.357609	12.543484	-1.220271	-2.497416	0.523666	-0.248503	0.898768	0.361195	-0.951925	-0.295560	0.080521	0.179124	-0.323820	0.929007
64839	7.376177	-5.599825	12.227758	-0.376886	-2.457541	0.116052	-0.245158	0.890194	0.383995	-0.952336	-0.295291	0.076547	0.181532	-0.346926	0.920157
64840	7.896783	-4.285819	12.221660	-0.079866	-2.374061	0.046949	-0.241202	0.881568	0.405783	-0.952384	-0.295379	0.075604	0.186510	-0.368225	0.910837
64841	12.346745	-6.450958	13.196029	0.120862	-2.211327	-0.021731	-0.236783	0.873287	0.425797	-0.952227	-0.295596	0.076725	0.192866	-0.387288	0.901560
64842	12.286527	0.308387	11.835251	0.833087	-1.499665	-0.119300	-0.232636	0.867755	0.439184	-0.950868	-0.297784	0.084697	0.204278	-0.397902	0.894396
64843	5.643367	5.285205	10.287000	0.338342	-1.187393	0.056290	-0.230690	0.862812	0.449820	-0.950060	-0.299579	0.087392	0.210160	-0.407196	0.888833
64844	8.573731	3.744692	9.984217	-0.264115	-1.056449	0.040874	-0.228826	0.858336	0.459237	-0.950537	-0.298799	0.084842	0.210042	-0.417108	0.884253
64845	6.937660	2.140029	9.374145	-0.295667	-0.770500	0.087149	-0.228019	0.854837	0.466113	-0.950980	-0.298247	0.081765	0.208913	-0.424621	0.880939
64846	5.510418	1.704378	8.990367	-0.246726	-0.693834	0.101048	-0.227499	0.851567	0.472312	-0.951280	-0.298009	0.079098	0.208111	-0.431306	0.877875
64847	10.276344	1.439963	10.325250	-0.252407	-0.467389	0.105913	-0.227515	0.849227	0.476498	-0.951585	-0.297762	0.076321	0.206697	-0.436064	0.875856
64848	2.531607	0.143186	8.378476	-0.274616	-0.196242	0.098280	-0.228014	0.848076	0.478306	-0.951941	-0.297350	0.073426	0.204495	-0.438577	0.875119
64849	6.309347	0.375674	9.641606	-0.116497	-0.324016	0.079098	-0.228082	0.846417	0.481204	-0.952020	-0.297453	0.071967	0.204049	-0.441702	0.873650
64850	5.106409	0.597867	9.136247	-0.091771	-0.209285	0.074609	-0.228332	0.845268	0.483100	-0.952053	-0.297633	0.070784	0.203618	-0.443775	0.872699
64851	5.286505	0.047527	9.188053	-0.087792	-0.200380	0.054824	-0.228424	0.844215	0.484895	-0.952128	-0.297651	0.069691	0.203164	-0.445763	0.871791
64852	5.888620	-0.551414	9.613919	-0.074362	-0.157698	0.009137	-0.228157	0.843484	0.486292	-0.952273	-0.297351	0.068977	0.202780	-0.447345	0.871070
64853	5.010008	0.453565	8.970192	0.051345	-0.078238	-0.010435	-0.227876	0.843166	0.486975	-0.952215	-0.297437	0.069412	0.203370	-0.447887	0.870653
64854	5.090920	0.381039	9.027597	-0.016748	-0.055179	-0.013929	-0.227597	0.842960	0.487461	-0.952296	-0.297200	0.069313	0.203301	-0.448432	0.870389
64855	5.125970	0.409609	9.032756	-0.004618	-0.057579	-0.019394	-0.227273	0.842760	0.487958	-0.952372	-0.296960	0.069304	0.203311	-0.448967	0.870111
64856	4.953307	0.432403	9.021714	-0.001905	-0.058968	-0.017116	-0.226956	0.842546	0.488475	-0.952430	-0.296762	0.069349	0.203391	-0.449499	0.869818
64857	5.030692	0.514364	9.057637	0.021207	-0.064679	-0.021517	-0.226597	0.842319	0.489032	-0.952458	-0.296620	0.069576	0.203662	-0.450017	0.869487
64858	4.943208	0.585601	9.008757	0.011714	-0.067434	-0.021499	-0.226221	0.842079	0.489619	-0.952498	-0.296447	0.069761	0.203890	-0.450580	0.869141
64859	4.961975	0.648023	8.965313	0.016696	-0.073581	-0.018805	-0.225869	0.841804	0.490254	-0.952529	-0.296308	0.069935	0.204138	-0.451185	0.868769
64860	4.880141	0.720317	9.040566	-0.001075	-0.076066	-0.014193	-0.225545	0.841502	0.490921	-0.952579	-0.296138	0.069974	0.204263	-0.451858	0.868390
64861	5.023944	0.685029	8.950110	0.004436	-0.086930	-0.011885	-0.225232	0.841145	0.491676	-0.952618	-0.296002	0.070008	0.204424	-0.452612	0.867959
64862	5.027776	0.802073	8.987040	-0.023179	-0.088484	-0.008098	-0.224940	0.840768	0.492454	-0.952699	-0.295784	0.069825	0.204366	-0.453454	0.867533
64863	5.025185	0.652345	8.952388	-0.045291	-0.082470	-0.005543	-0.224696	0.840411	0.493174	-0.952826	-0.295476	0.069397	0.204043	-0.454316	0.867158
64864	4.962248	0.500278	9.001808	-0.050409	-0.090414	-0.010164	-0.224381	0.840030	0.493967	-0.952968	-0.295116	0.068988	0.203730	-0.455255	0.866739
64865	4.992688	0.479113	8.977488	-0.037280	-0.097434	-0.007442	-0.224090	0.839608	0.494815	-0.953082	-0.294827	0.068639	0.203515	-0.456218	0.866283
64866	5.065916	0.641397	8.957619	-0.034818	-0.099894	-0.015020	-0.223710	0.839196	0.495685	-0.953202	-0.294497	0.068391	0.203371	-0.457189	0.865805
64867	5.116773	0.634419	8.883824	-0.032421	-0.097571	-0.013608	-0.223359	0.838790	0.496530	-0.953320	-0.294178	0.068115	0.203203	-0.458138	0.865343
64868	5.149611	0.808419	8.899282	-0.038287	-0.094987	-0.007581	-0.223060	0.838377	0.497362	-0.953430	-0.293894	0.067800	0.203014	-0.459076	0.864890
64869	5.023538	0.621562	8.937614	-0.073511	-0.092280	-0.001848	-0.222833	0.837959	0.498167	-0.953605	-0.293484	0.067112	0.202441	-0.460100	0.864480
64870	5.054144	0.598592	8.913090	-0.049224	-0.101974	-0.002788	-0.222567	0.837497	0.499063	-0.953727	-0.293189	0.066679	0.202163	-0.461129	0.863997
64871	5.099545	0.569133	8.940110	-0.041314	-0.108864	-0.002490	-0.222300	0.837002	0.500010	-0.953837	-0.292921	0.066272	0.201934	-0.462196	0.863480
64872	5.119432	0.657676	8.865755	-0.015817	-0.113888	-0.002277	-0.222015	0.836481	0.501007	-0.953890	-0.292783	0.066126	0.202000	-0.463225	0.862913
64873	5.159743	0.815893	8.842014	-0.019884	-0.112998	0.007941	-0.221840	0.835935	0.501996	-0.953934	-0.292701	0.065853	0.201984	-0.464262	0.862359
64874	5.125483	0.660310	8.802304	-0.050689	-0.117111	0.012465	-0.221689	0.835353	0.503030	-0.954024	-0.292524	0.065332	0.201724	-0.465419	0.861796
64875	5.174290	0.468218	8.882932	-0.034360	-0.122165	0.019211	-0.221604	0.834728	0.504104	-0.954072	-0.292468	0.064878	0.201590	-0.466574	0.861203
64876	5.095650	0.604294	8.865608	-0.001093	-0.126047	0.021854	-0.221524	0.834075	0.505219	-0.954041	-0.292600	0.064738	0.201823	-0.467658	0.860560
64877	5.062252	0.763059	8.907560	0.017377	-0.134830	0.030236	-0.221518	0.833356	0.506407	-0.953961	-0.292877	0.064673	0.202210	-0.468766	0.859866
64878	5.123222	0.666134	8.917677	0.009665	-0.153290	0.032601	-0.221485	0.832540	0.507761	-0.953884	-0.293148	0.064570	0.202606	-0.470044	0.859075
64879	5.156750	0.678646	8.860296	0.019706	-0.157472	0.040152	-0.221527	0.831682	0.509148	-0.953777	-0.293518	0.064474	0.203066	-0.471331	0.858261
64880	5.136886	0.542176	8.874967	0.027682	-0.159570	0.049428	-0.221640	0.830783	0.510564	-0.953626	-0.294014	0.064439	0.203648	-0.472605	0.857422
64881	5.218817	0.459570	8.834322	0.049319	-0.167833	0.046123	-0.221715	0.829853	0.512041	-0.953445	-0.294574	0.064565	0.204413	-0.473888	0.856531
64882	5.170470	0.522226	8.852705	0.066858	-0.164907	0.047234	-0.221794	0.828931	0.513499	-0.953219	-0.295237	0.064875	0.205381	-0.475088	0.855635
64883	5.198123	0.548977	8.866459	0.082672	-0.170600	0.049978	-0.221897	0.827972	0.514998	-0.952959	-0.295988	0.065264	0.206470	-0.476291	0.854703
64884	5.250672	0.572796	8.791658	0.090795	-0.179057	0.053668	-0.222004	0.826959	0.516579	-0.952668	-0.296819	0.065743	0.207697	-0.477533	0.853712
64885	5.145393	0.505702	8.921067	0.084926	-0.180145	0.052089	-0.222103	0.825943	0.518158	-0.952397	-0.297599	0.066137	0.208829	-0.478803	0.852724
64886	5.324983	0.541211	8.764176	0.110732	-0.193153	0.049945	-0.222140	0.824868	0.519853	-0.952070	-0.298497	0.066802	0.210277	-0.480097	0.851640
64887	5.368681	0.600015	8.764904	0.099724	-0.188718	0.050392	-0.222200	0.823811	0.521501	-0.951770	-0.299335	0.067328	0.211569	-0.481388	0.850590
64888	5.288572	0.661892	8.779762	0.110398	-0.187234	0.051735	-0.222261	0.822752	0.523143	-0.951436	-0.300247	0.067976	0.213000	-0.482628	0.849530
64889	5.246209	0.698356	8.825554	0.107365	-0.207565	0.062004	-0.222386	0.821564	0.524955	-0.951091	-0.301219	0.068503	0.214406	-0.484046	0.848369
64890	5.198712	0.526317	8.899494	0.102114	-0.222536	0.067248	-0.222513	0.820281	0.526903	-0.950738	-0.302220	0.068996	0.215836	-0.485594	0.847120
64891	5.095401	0.523044	8.968946	0.127016	-0.264369	0.068037	-0.222566	0.818790	0.529195	-0.950334	-0.303339	0.069652	0.217556	-0.487410	0.845636
64892	5.138710	0.538130	8.937609	0.158180	-0.304346	0.065864	-0.222492	0.817103	0.531828	-0.949857	-0.304604	0.070619	0.219700	-0.489448	0.843903
64893	5.117932	0.619793	9.037979	0.169934	-0.351982	0.063735	-0.222299	0.815182	0.534847	-0.949363	-0.305902	0.071652	0.222020	-0.491835	0.841906
64894	5.160485	0.846382	8.953196	0.181951	-0.409274	0.073551	-0.222049	0.812937	0.538356	-0.948810	-0.307352	0.072768	0.224621	-0.494639	0.839570
64895	5.178586	0.743801	8.978051	0.135349	-0.453103	0.084649	-0.221809	0.810430	0.542222	-0.948339	-0.308654	0.073387	0.226834	-0.497932	0.837025
64896	5.180832	0.663798	8.987804	0.142097	-0.505793	0.086889	-0.221446	0.807632	0.546527	-0.947839	-0.310021	0.074083	0.229266	-0.501614	0.834158
64897	5.171502	0.695626	9.051132	0.124093	-0.572444	0.092250	-0.220981	0.804464	0.551366	-0.947372	-0.311333	0.074551	0.231632	-0.505875	0.830926
64898	5.220298	0.618198	9.055809	0.105890	-0.647007	0.087215	-0.220267	0.800902	0.556811	-0.946950	-0.312525	0.074928	0.234027	-0.510767	0.827253
64899	5.271740	0.712620	8.930838	0.092291	-0.719161	0.095088	-0.219457	0.796914	0.562820	-0.946547	-0.313702	0.075100	0.236406	-0.516255	0.823161
64900	5.315747	0.769040	8.847802	0.066342	-0.801119	0.106135	-0.218524	0.792419	0.569491	-0.946174	-0.314844	0.075026	0.238753	-0.522442	0.818567
64901	5.475512	0.782848	8.785563	0.049389	-0.871219	0.111827	-0.217474	0.787488	0.576687	-0.945835	-0.315930	0.074732	0.241044	-0.529198	0.813540
64902	5.526643	0.869274	8.770550	0.023418	-0.935229	0.126386	-0.216370	0.782104	0.584378	-0.945521	-0.317000	0.074172	0.243258	-0.536493	0.808085
64903	5.578139	0.868675	8.789679	-0.023064	-1.000559	0.140889	-0.215242	0.776252	0.592540	-0.945296	-0.317917	0.073102	0.245124	-0.544391	0.802217
64904	5.697562	0.755224	8.623671	-0.070127	-1.074382	0.152016	-0.214002	0.769872	0.601249	-0.945160	-0.318660	0.071619	0.246731	-0.552949	0.795846
64905	5.610875	1.007107	8.745160	-0.083623	-1.148930	0.170424	-0.212754	0.762926	0.610475	-0.945026	-0.319443	0.069870	0.248318	-0.562049	0.788948
64906	5.645148	1.037630	8.763933	-0.123839	-1.236779	0.202659	-0.211555	0.755264	0.620339	-0.944921	-0.320232	0.067637	0.249736	-0.571863	0.781412
64907	5.505031	1.122575	9.000045	-0.171374	-1.343194	0.249792	-0.210538	0.746715	0.630944	-0.944846	-0.321063	0.064690	0.250878	-0.582525	0.773126
64908	5.338834	1.042091	9.509259	-0.182006	-1.493327	0.289194	-0.209480	0.736996	0.642616	-0.944714	-0.322089	0.061437	0.252259	-0.594218	0.763721
64909	5.304304	1.483233	10.053641	-0.222586	-1.694986	0.362386	-0.208603	0.725649	0.655682	-0.944541	-0.323347	0.057348	0.253627	-0.607356	0.752856
64910	5.076200	1.859136	10.259652	-0.303189	-1.954079	0.478036	-0.208116	0.712081	0.670543	-0.944333	-0.324871	0.051903	0.254799	-0.622414	0.740053
64911	5.294196	1.826274	10.128331	-0.388248	-2.262180	0.607179	-0.208065	0.695837	0.687401	-0.944082	-0.326641	0.044892	0.255771	-0.639623	0.724889
64912	5.325300	0.587944	9.499171	-0.540845	-2.556804	0.701356	-0.208109	0.676936	0.706009	-0.944023	-0.327895	0.036123	0.255950	-0.658971	0.707281
64913	5.467707	0.022968	9.328747	-0.498398	-2.853786	0.719776	-0.207577	0.655481	0.726125	-0.943826	-0.329301	0.027453	0.257109	-0.679636	0.687015
64914	5.962193	0.744661	9.600007	-0.477709	-3.182973	0.778100	-0.206668	0.630922	0.747814	-0.943464	-0.330958	0.018486	0.259158	-0.701716	0.663651
64915	5.656741	1.631321	10.005954	-0.653342	-3.513222	0.938815	-0.206400	0.602751	0.770773	-0.943240	-0.332035	0.007071	0.260186	-0.725565	0.637071
64916	7.255696	1.615476	10.099667	-0.633119	-3.924129	1.103113	-0.206516	0.570103	0.795194	-0.942634	-0.333782	-0.005506	0.262282	-0.750714	0.606330
64917	7.401660	2.248901	11.211270	-0.903603	-4.240038	1.369552	-0.208298	0.533153	0.819976	-0.942181	-0.334386	-0.021922	0.262501	-0.777132	0.571978
64918	10.079404	2.634717	12.163033	-0.965923	-4.632924	1.604365	-0.211199	0.491140	0.845090	-0.941372	-0.334917	-0.040618	0.263086	-0.804122	0.533079
64919	10.968854	2.921764	12.306256	-1.253446	-4.910207	1.830491	-0.215545	0.444893	0.869259	-0.940769	-0.333193	-0.062747	0.261715	-0.831296	0.490359
64920	14.375016	1.776728	12.987960	-1.482963	-5.095804	1.886515	-0.219994	0.395598	0.891686	-0.940538	-0.328548	-0.086286	0.258827	-0.857647	0.444353
64921	16.031504	1.046843	13.330383	-1.417504	-5.087929	1.779851	-0.223621	0.345594	0.911350	-0.940254	-0.322786	-0.108309	0.256740	-0.881121	0.397128
64922	14.718761	0.049053	13.487681	-1.296200	-4.925358	1.608587	-0.226092	0.296543	0.927871	-0.939976	-0.316351	-0.127938	0.255594	-0.901102	0.350268
64923	11.327192	0.265994	13.180072	-0.923632	-4.806773	1.469618	-0.227565	0.248268	0.941582	-0.939021	-0.311934	-0.144698	0.257787	-0.917094	0.304114
64924	8.244336	0.836277	12.245491	-0.549262	-4.724834	1.438506	-0.228714	0.200152	0.952696	-0.937188	-0.310041	-0.159854	0.263380	-0.929416	0.258491
64925	5.012514	2.407779	11.942481	-0.301134	-4.562394	1.563454	-0.231159	0.152754	0.960849	-0.934402	-0.309978	-0.175517	0.271031	-0.938392	0.214388
64926	-0.285990	3.361986	10.451604	-0.526137	-4.358581	1.877250	-0.236712	0.105881	0.965793	-0.931469	-0.307405	-0.194597	0.276286	-0.945670	0.171392
64927	0.314465	0.779857	4.031911	-0.962433	-4.474904	2.339734	-0.246071	0.056383	0.967610	-0.928490	-0.300176	-0.218631	0.278127	-0.952216	0.126215
64928	26.213882	-1.646433	13.418994	0.641298	-3.301413	1.691601	-0.252278	0.019808	0.967452	-0.922465	-0.306885	-0.234263	0.292256	-0.951541	0.095692
64929	13.602459	5.978075	14.558305	0.824865	0.131328	1.012549	-0.261981	0.018004	0.964905	-0.917422	-0.314936	-0.243213	0.299504	-0.948942	0.099025
64930	9.223174	8.208208	12.859195	-0.176435	2.129002	0.414433	-0.272047	0.036896	0.961576	-0.916858	-0.313334	-0.247372	0.292168	-0.948926	0.119070
64931	0.550237	7.971336	10.066424	-0.963364	2.933861	0.204012	-0.282235	0.064248	0.957191	-0.919025	-0.304329	-0.250555	0.275203	-0.950398	0.144937
64932	-4.155912	4.737840	7.405015	-1.762447	2.823319	0.018682	-0.289800	0.091060	0.952745	-0.923627	-0.287522	-0.253463	0.250855	-0.953435	0.167429
64933	-4.217588	0.956754	6.519816	-1.635455	2.504083	-0.166783	-0.294248	0.115558	0.948717	-0.928032	-0.271793	-0.254726	0.228419	-0.955392	0.187216
64934	-2.605244	-0.547004	6.927000	-0.857769	2.340608	-0.383920	-0.295818	0.138929	0.945088	-0.931078	-0.263068	-0.252761	0.213506	-0.954722	0.207174
64935	-0.700272	-0.211774	7.765329	-0.132402	2.466984	-0.670074	-0.294732	0.164335	0.941343	-0.933330	-0.260848	-0.246685	0.205009	-0.951290	0.230259
64936	0.576484	1.268843	8.316917	0.377785	2.782550	-0.951505	-0.291448	0.193204	0.936873	-0.935371	-0.262684	-0.236809	0.200349	-0.945341	0.257276
64937	1.291054	2.558611	8.893878	0.510934	3.173406	-1.160931	-0.286868	0.226292	0.930859	-0.937709	-0.265121	-0.224528	0.195981	-0.937285	0.288251
64938	2.081203	2.207054	8.797844	0.409749	3.556739	-1.248488	-0.281969	0.262763	0.922740	-0.940487	-0.265841	-0.211690	0.189678	-0.927515	0.322084
64939	3.006649	0.926134	8.693411	0.422523	3.925960	-1.239199	-0.277616	0.302399	0.911858	-0.943160	-0.266298	-0.198834	0.182698	-0.915227	0.359139
64940	3.928823	-0.420049	8.475605	0.572151	4.293555	-1.142117	-0.274503	0.344410	0.897791	-0.945303	-0.267748	-0.186317	0.176213	-0.899829	0.399070
64941	4.467607	-1.394593	8.412190	0.873299	4.629146	-0.964046	-0.273457	0.388391	0.879985	-0.946415	-0.272056	-0.174026	0.171815	-0.880419	0.441975
64942	4.975525	-1.868250	8.483733	1.230067	4.886343	-0.710007	-0.275057	0.432798	0.858504	-0.946275	-0.279778	-0.162134	0.170019	-0.856977	0.486501
64943	5.979292	-2.246824	8.626292	1.591910	5.077117	-0.373701	-0.280209	0.476845	0.833128	-0.944586	-0.291566	-0.150818	0.170995	-0.829222	0.532121
64944	6.852773	-2.549097	8.886839	1.986957	5.225950	-0.040172	-0.288836	0.519468	0.804193	-0.941280	-0.307479	-0.139457	0.174828	-0.797251	0.577776
64945	7.445642	-2.479506	9.255957	2.382922	5.318195	0.229165	-0.300503	0.560339	0.771828	-0.936344	-0.327344	-0.126907	0.181542	-0.760832	0.623038
64946	8.251638	-2.146645	9.562129	2.739218	5.333550	0.415346	-0.314277	0.598447	0.736947	-0.929985	-0.349999	-0.112378	0.190679	-0.720667	0.666543
64947	8.883670	-1.409877	9.923997	3.033395	5.288767	0.471563	-0.329069	0.633850	0.699962	-0.922498	-0.374162	-0.094867	0.201768	-0.676931	0.707851
64948	9.410323	-0.347328	10.292393	3.225023	5.183709	0.341798	-0.342956	0.666435	0.662001	-0.914663	-0.397431	-0.073756	0.213946	-0.630803	0.745865
64949	9.570030	1.130108	10.651074	3.289111	5.040997	-0.017346	-0.353943	0.697230	0.623374	-0.907465	-0.417321	-0.048482	0.226344	-0.582849	0.780420
64950	8.994627	2.641456	11.605973	3.099048	4.812396	-0.577374	-0.359841	0.726596	0.585297	-0.902362	-0.430498	-0.020347	0.237185	-0.535472	0.810564
64951	9.202521	2.680113	12.606701	2.711958	4.461660	-1.246164	-0.359424	0.754993	0.548453	-0.900282	-0.435211	0.009114	0.245574	-0.490486	0.836132
64952	11.366995	2.145654	14.276145	2.447596	4.142053	-1.925573	-0.352369	0.782788	0.512912	-0.901057	-0.431847	0.040047	0.252848	-0.448052	0.857506
64953	15.033508	1.820473	16.562714	2.191346	4.075700	-2.518525	-0.340100	0.811034	0.475979	-0.904162	-0.421153	0.071566	0.258503	-0.406023	0.876540
64954	18.200709	0.711519	17.743906	1.764254	4.375988	-2.964733	-0.324521	0.840088	0.434671	-0.909463	-0.403412	0.100676	0.259928	-0.362646	0.894944
64955	18.769164	-0.517699	16.766917	1.435267	4.835476	-3.173581	-0.308112	0.869013	0.387147	-0.915780	-0.381159	0.126747	0.257710	-0.315489	0.913265
64956	15.634094	-0.983141	15.212240	1.044372	5.070954	-3.142131	-0.292117	0.895382	0.336094	-0.922570	-0.356434	0.147715	0.252056	-0.266921	0.930173
64957	11.184201	5.651635	16.020317	-0.253635	2.910115	-2.234153	-0.278643	0.910560	0.305351	-0.929569	-0.335612	0.152534	0.241371	-0.241342	0.939944
64958	16.027913	-10.218995	4.186408	-2.670389	3.514524	-2.311903	-0.264849	0.926077	0.268769	-0.941856	-0.308208	0.133849	0.206792	-0.217691	0.953859
64959	25.595549	-15.784721	5.030850	0.300774	3.007926	-1.916049	-0.252937	0.937963	0.237167	-0.946202	-0.290958	0.141581	0.201804	-0.188597	0.961097
64960	23.150203	-8.328184	6.267577	1.130990	3.553836	-1.319606	-0.247613	0.947790	0.200954	-0.947229	-0.280403	0.155344	0.203582	-0.151884	0.967205
64961	17.985298	-6.672301	0.526469	1.327111	3.567468	-0.640218	-0.248892	0.954337	0.165209	-0.946102	-0.276062	0.169355	0.207229	-0.114153	0.971610
64962	14.150549	-7.481946	-3.756567	1.079258	2.886103	-0.070849	-0.254212	0.957393	0.137020	-0.944044	-0.276418	0.179926	0.210134	-0.083613	0.974090
64963	13.329133	-9.417651	-5.823175	1.272784	1.696258	0.124190	-0.259008	0.958311	0.120641	-0.941019	-0.278520	0.192119	0.217711	-0.063765	0.973928
64964	16.118693	-5.402940	-5.682195	1.303526	0.417070	0.248298	-0.262238	0.957873	0.117090	-0.937479	-0.281648	0.204468	0.228833	-0.056150	0.971845
64965	16.939212	-1.861564	-6.049316	0.319878	-0.771192	0.509068	-0.265204	0.955981	0.125568	-0.935419	-0.286676	0.206900	0.233790	-0.062588	0.970271
64966	16.484471	-3.130422	-6.433559	-1.238435	-1.944256	0.712023	-0.267352	0.952494	0.145873	-0.936397	-0.292526	0.193881	0.227342	-0.084760	0.970119
64967	12.081979	-5.215203	-2.789883	-1.783099	-2.762296	0.820864	-0.268869	0.947302	0.174150	-0.938189	-0.298494	0.175219	0.217969	-0.116275	0.969005
64968	-1.127056	-5.699654	12.036502	-1.851515	-3.014420	0.558930	-0.267656	0.941614	0.204265	-0.940657	-0.301270	0.156208	0.208626	-0.150333	0.966372
64969	3.661302	2.414629	14.025615	0.120669	-2.848663	0.655048	-0.267715	0.934972	0.232715	-0.938672	-0.307571	0.155871	0.217311	-0.176714	0.959973
64970	0.702019	7.648592	11.565112	-0.908359	-2.501725	1.430851	-0.275685	0.925745	0.258830	-0.936768	-0.319123	0.143622	0.215556	-0.202869	0.955186
64971	3.649771	0.608983	7.610626	-2.402779	-2.726869	1.411045	-0.283212	0.915218	0.286646	-0.937847	-0.326800	0.116811	0.200583	-0.235748	0.950889
64972	4.589498	-5.328251	8.334948	-1.736311	-2.905531	0.909759	-0.286004	0.904914	0.315169	-0.938688	-0.330668	0.097590	0.192527	-0.267934	0.944005
64973	9.365977	0.706889	12.956726	-0.480094	-3.040154	0.572786	-0.285438	0.894434	0.344257	-0.938009	-0.334418	0.091128	0.196634	-0.296905	0.934442
64974	7.469968	-3.743532	12.460553	-1.001604	-2.789099	0.302125	-0.282777	0.884753	0.370471	-0.939129	-0.333950	0.080705	0.195123	-0.325098	0.925331
64975	8.953926	-2.336684	11.238354	0.304762	-2.844347	-0.111222	-0.276005	0.875544	0.396541	-0.938853	-0.333947	0.083868	0.205854	-0.349145	0.914178
64976	14.889047	-3.278360	14.731445	-0.097873	-2.680110	-0.073789	-0.269676	0.866117	0.420852	-0.939277	-0.332909	0.083255	0.212213	-0.372844	0.903301
64977	17.710167	-2.080454	12.884037	0.462289	-1.595382	-0.081612	-0.265428	0.860347	0.435145	-0.938521	-0.333898	0.087690	0.220738	-0.385118	0.896080
64978	4.298292	4.523900	10.386762	0.416831	-0.856903	0.042942	-0.263880	0.856879	0.442860	-0.937492	-0.335842	0.091204	0.226882	-0.391111	0.891940
64979	6.238050	1.541275	10.195093	-0.462242	-1.268690	-0.005969	-0.260922	0.851858	0.454156	-0.938583	-0.333894	0.087048	0.225792	-0.403550	0.886660
64980	7.025947	0.798941	9.666154	-0.163735	-0.979132	0.059542	-0.259232	0.847666	0.462883	-0.938816	-0.333688	0.085303	0.226768	-0.412448	0.882305
64981	9.385972	2.015389	10.297155	-0.111253	-0.867090	0.084691	-0.258026	0.843772	0.470609	-0.938878	-0.333881	0.083858	0.227884	-0.420206	0.878348
64982	5.555387	0.655249	8.888950	-0.430130	-0.108285	0.095287	-0.258642	0.842999	0.471653	-0.939621	-0.332828	0.079609	0.224089	-0.422585	0.878183
64983	5.565039	-0.029825	9.395527	-0.125171	-0.459075	0.031921	-0.257882	0.840939	0.475729	-0.939847	-0.332503	0.078290	0.224019	-0.426923	0.876101
64984	5.750714	0.245753	9.263113	-0.101849	-0.233584	0.032881	-0.257635	0.839831	0.477816	-0.940008	-0.332299	0.077220	0.223629	-0.429256	0.875060
64985	5.155679	0.519996	9.138978	-0.062805	-0.216411	0.019644	-0.257304	0.838830	0.479749	-0.940125	-0.332131	0.076506	0.223515	-0.431339	0.874064
64986	5.409155	0.262370	9.334706	-0.076242	-0.187833	0.008050	-0.256927	0.837993	0.481412	-0.940292	-0.331825	0.075779	0.223247	-0.433198	0.873213
64987	5.329827	0.026597	9.138777	-0.015955	-0.099131	-0.018487	-0.256500	0.837619	0.482289	-0.940403	-0.331538	0.075658	0.223269	-0.434140	0.872739
64988	4.969143	0.770067	9.159836	-0.020763	-0.112943	-0.024679	-0.255982	0.837211	0.483271	-0.940530	-0.331197	0.075574	0.223329	-0.435185	0.872203
64989	5.070947	0.735300	8.980365	-0.013095	-0.108086	-0.022937	-0.255494	0.836811	0.484222	-0.940646	-0.330884	0.075499	0.223400	-0.436192	0.871682
64990	5.183491	0.568920	9.007995	-0.022655	-0.091802	-0.020822	-0.255059	0.836480	0.485022	-0.940767	-0.330567	0.075381	0.223386	-0.437066	0.871247
64991	5.062772	0.658236	8.956245	-0.019409	-0.077393	-0.020096	-0.254666	0.836202	0.485707	-0.940890	-0.330250	0.075238	0.223319	-0.437836	0.870878
64992	5.082552	0.650359	9.005081	-0.026748	-0.076688	-0.017465	-0.254297	0.835925	0.486377	-0.941011	-0.329943	0.075068	0.223228	-0.438597	0.870518
64993	5.113433	0.605884	8.978781	-0.031708	-0.059739	-0.020290	-0.253941	0.835724	0.486908	-0.941162	-0.329571	0.074819	0.222999	-0.439259	0.870243
64994	5.044981	0.496014	8.968842	-0.017386	-0.059522	-0.018365	-0.253602	0.835524	0.487427	-0.941264	-0.329296	0.074736	0.222951	-0.439845	0.869959
64995	4.963127	0.601150	9.012593	-0.010967	-0.058864	-0.022478	-0.253228	0.835333	0.487949	-0.941374	-0.328996	0.074678	0.222915	-0.440432	0.869672
64996	5.084716	0.702540	8.948164	0.001201	-0.063063	-0.024456	-0.252824	0.835137	0.488494	-0.941450	-0.328753	0.074786	0.223051	-0.440985	0.869356
64997	5.055925	0.698490	8.941812	-0.025370	-0.059582	-0.019694	-0.252474	0.834933	0.489024	-0.941584	-0.328413	0.074591	0.222880	-0.441625	0.869075
64998	4.988220	0.345033	9.047795	-0.026693	-0.062689	-0.024249	-0.252073	0.834736	0.489566	-0.941722	-0.328048	0.074456	0.222752	-0.442267	0.868782
64999	5.025511	0.557165	8.996045	0.001684	-0.066183	-0.028191	-0.251629	0.834530	0.490146	-0.941817	-0.327756	0.074537	0.222851	-0.442872	0.868448
65000	5.026167	0.672405	8.906392	0.008025	-0.073652	-0.034458	-0.251106	0.834317	0.490775	-0.941903	-0.327460	0.074754	0.223078	-0.443492	0.868074
65001	5.009958	0.841329	8.929948	-0.003341	-0.079438	-0.028426	-0.250631	0.834052	0.491469	-0.942010	-0.327144	0.074793	0.223162	-0.444224	0.867677
65002	5.037185	0.882527	8.846522	-0.012767	-0.087893	-0.019399	-0.250218	0.833725	0.492233	-0.942104	-0.326881	0.074756	0.223227	-0.445029	0.867248
65003	5.037772	0.744423	8.906052	-0.049269	-0.083425	-0.015484	-0.249855	0.833398	0.492970	-0.942281	-0.326468	0.074334	0.222889	-0.445944	0.866865
65004	4.986967	0.661670	8.883828	-0.031452	-0.091395	-0.014115	-0.249485	0.833037	0.493768	-0.942403	-0.326166	0.074109	0.222786	-0.446839	0.866430
65005	5.094581	0.879548	8.837057	-0.038971	-0.097773	-0.012338	-0.249120	0.832634	0.494631	-0.942548	-0.325825	0.073762	0.222580	-0.447838	0.865967
65006	5.152362	0.790658	8.785909	-0.053139	-0.091419	-0.008602	-0.248802	0.832253	0.495432	-0.942705	-0.325470	0.073323	0.222271	-0.448803	0.865547
65007	5.074166	0.861251	8.859479	-0.056673	-0.085308	0.000020	-0.248582	0.831863	0.496196	-0.942858	-0.325152	0.072762	0.221867	-0.449755	0.865156
65008	5.147099	0.769315	8.827255	-0.069406	-0.085020	0.004937	-0.248407	0.831465	0.496950	-0.943017	-0.324836	0.072116	0.221389	-0.450719	0.864777
65009	5.138283	0.697394	8.898814	-0.082444	-0.081049	0.008944	-0.248281	0.831064	0.497683	-0.943204	-0.324474	0.071288	0.220731	-0.451718	0.864424
65010	5.111716	0.567350	8.853514	-0.076934	-0.082193	0.010150	-0.248162	0.830660	0.498417	-0.943366	-0.324166	0.070552	0.220174	-0.452681	0.864062
65011	5.196646	0.616388	8.882240	-0.046766	-0.077595	0.009010	-0.248046	0.830273	0.499119	-0.943473	-0.323965	0.070033	0.219843	-0.453534	0.863699
65012	5.148112	0.507469	8.856425	-0.062128	-0.075388	0.006989	-0.247912	0.829909	0.499791	-0.943610	-0.323696	0.069440	0.219409	-0.454392	0.863358
65013	5.133490	0.522096	8.872326	-0.023358	-0.076501	0.005534	-0.247766	0.829536	0.500481	-0.943674	-0.323572	0.069141	0.219296	-0.455160	0.862982
65014	5.224565	0.712036	8.837897	-0.004394	-0.078764	0.009183	-0.247647	0.829149	0.501182	-0.943678	-0.323583	0.069036	0.219415	-0.455858	0.862584
65015	5.184291	0.683583	8.808711	-0.015992	-0.071173	0.013106	-0.247584	0.828775	0.501831	-0.943708	-0.323555	0.068762	0.219358	-0.456557	0.862228
65016	5.182137	0.604960	8.808354	-0.010794	-0.070248	0.016782	-0.247554	0.828400	0.502464	-0.943707	-0.323599	0.068564	0.219396	-0.457205	0.861875
65017	5.123866	0.505282	8.888388	-0.004705	-0.077178	0.016376	-0.247509	0.827987	0.503166	-0.943704	-0.323649	0.068372	0.219460	-0.457917	0.861481
65018	5.087407	0.572989	8.893721	0.027614	-0.085482	0.013462	-0.247415	0.827553	0.503927	-0.943627	-0.323842	0.068521	0.219897	-0.458566	0.861024
65019	5.112608	0.728709	8.882343	0.044695	-0.096341	0.018801	-0.247350	0.827043	0.504795	-0.943509	-0.324139	0.068741	0.220475	-0.459275	0.860498
65020	5.063176	0.770151	8.897921	0.046442	-0.106581	0.025570	-0.247322	0.826471	0.505745	-0.943360	-0.324519	0.068990	0.221142	-0.460037	0.859920
65021	5.074982	0.744028	8.921422	0.072409	-0.125734	0.032789	-0.247323	0.825779	0.506874	-0.943145	-0.325059	0.069378	0.222054	-0.460897	0.859224
65022	5.084908	0.624358	8.909372	0.073053	-0.141657	0.037217	-0.247325	0.825005	0.508132	-0.942908	-0.325658	0.069795	0.223059	-0.461859	0.858447
65023	5.145423	0.657300	8.926233	0.103787	-0.151443	0.036915	-0.247304	0.824178	0.509482	-0.942612	-0.326379	0.070429	0.224330	-0.462826	0.857594
65024	5.150942	0.588105	8.921131	0.106528	-0.159789	0.038396	-0.247273	0.823312	0.510894	-0.942294	-0.327143	0.071126	0.225695	-0.463825	0.856696
65025	5.267602	0.490419	8.881074	0.130733	-0.165993	0.036706	-0.247213	0.822415	0.512367	-0.941935	-0.327989	0.071989	0.227255	-0.464819	0.855744
65026	5.176982	0.512210	8.868391	0.136813	-0.170201	0.034206	-0.247113	0.821511	0.513862	-0.941555	-0.328861	0.072963	0.228929	-0.465800	0.854764
65027	5.266833	0.631324	8.863151	0.141039	-0.182972	0.033490	-0.246978	0.820541	0.515474	-0.941176	-0.329730	0.073926	0.230627	-0.466894	0.853710
65028	5.347724	0.703549	8.830600	0.140751	-0.196402	0.037816	-0.246846	0.819499	0.517193	-0.940774	-0.330653	0.074912	0.232402	-0.468071	0.852584
65029	5.234537	0.649494	8.802620	0.127503	-0.196757	0.038981	-0.246724	0.818441	0.518923	-0.940409	-0.331506	0.075727	0.234005	-0.469316	0.851460
65030	5.270519	0.628853	8.839383	0.143089	-0.205830	0.040180	-0.246585	0.817341	0.520720	-0.939991	-0.332462	0.076716	0.235823	-0.470555	0.850273
65031	5.228597	0.702456	8.852725	0.148528	-0.221419	0.044466	-0.246449	0.816143	0.522660	-0.939558	-0.333462	0.077678	0.237683	-0.471925	0.848995
65032	5.236274	0.541854	8.810731	0.148758	-0.245999	0.043116	-0.246233	0.814837	0.524795	-0.939115	-0.334471	0.078694	0.239652	-0.473466	0.847583
65033	5.194356	0.783672	8.866293	0.175787	-0.276045	0.044732	-0.245960	0.813371	0.527191	-0.938610	-0.335606	0.079879	0.241899	-0.475180	0.845984
65034	5.142346	0.855447	8.891454	0.182733	-0.312039	0.053464	-0.245669	0.811706	0.529886	-0.938052	-0.336865	0.081121	0.244347	-0.477132	0.844180
65035	5.159147	0.805179	8.949410	0.182496	-0.363873	0.065705	-0.245363	0.809738	0.533030	-0.937471	-0.338207	0.082243	0.246870	-0.479521	0.842090
65036	5.109553	0.958983	8.912879	0.181605	-0.415798	0.080053	-0.245048	0.807468	0.536608	-0.936842	-0.339682	0.083323	0.249556	-0.482299	0.839708
65037	5.083956	1.035982	9.054633	0.164260	-0.472094	0.099861	-0.244771	0.804837	0.540670	-0.936215	-0.341219	0.084095	0.252170	-0.485600	0.837021
65038	5.129998	1.033207	9.095380	0.129240	-0.544946	0.117547	-0.244456	0.801778	0.545337	-0.935618	-0.342748	0.084518	0.254678	-0.489566	0.833945
65039	5.215520	0.931242	8.961486	0.081989	-0.609750	0.136830	-0.244150	0.798304	0.550547	-0.935103	-0.344183	0.084384	0.256853	-0.494216	0.830528
65040	5.302306	0.828354	8.963995	0.056880	-0.681437	0.139063	-0.243658	0.794439	0.556325	-0.934635	-0.345528	0.084068	0.259013	-0.499477	0.826701
65041	5.330374	0.839851	8.962940	0.035753	-0.743222	0.152272	-0.243123	0.790173	0.562600	-0.934201	-0.346851	0.083446	0.261075	-0.505294	0.822507
65042	5.316418	0.815960	8.971542	-0.007080	-0.823112	0.157122	-0.242399	0.785441	0.569496	-0.933857	-0.348007	0.082481	0.262972	-0.511834	0.817846
65043	5.421246	0.887195	8.902153	-0.014301	-0.905466	0.163630	-0.241512	0.780198	0.577029	-0.933528	-0.349151	0.081363	0.264949	-0.519022	0.812661
65044	5.401282	0.902097	8.927428	-0.049948	-0.997867	0.176376	-0.240471	0.774363	0.585266	-0.933254	-0.350215	0.079917	0.266853	-0.526984	0.806894
65045	5.425438	0.790311	9.120891	-0.088075	-1.110402	0.186320	-0.239214	0.767803	0.594352	-0.933072	-0.351120	0.078047	0.268614	-0.535903	0.800409
65046	5.313017	1.000940	9.348634	-0.125638	-1.246905	0.200140	-0.237686	0.760355	0.604455	-0.932952	-0.351923	0.075831	0.270381	-0.545903	0.793022
65047	5.199309	1.432614	9.539893	-0.173813	-1.422870	0.247986	-0.236120	0.751628	0.615875	-0.932865	-0.352777	0.072886	0.272050	-0.557318	0.784465
65048	4.981605	1.082423	9.529425	-0.264453	-1.608952	0.303231	-0.234527	0.741485	0.628647	-0.932891	-0.353503	0.068924	0.273334	-0.570295	0.774630
65049	4.958336	0.955966	10.011167	-0.249956	-1.837951	0.343820	-0.232675	0.729650	0.643019	-0.932801	-0.354526	0.064758	0.275217	-0.584741	0.763108
65050	4.851035	1.218666	10.598268	-0.256978	-2.102688	0.406165	-0.230616	0.715741	0.659190	-0.932589	-0.355890	0.060158	0.277657	-0.600880	0.749566
65051	4.797991	2.106464	10.687642	-0.284381	-2.453254	0.533033	-0.228724	0.698871	0.677691	-0.932186	-0.357864	0.054431	0.280561	-0.619284	0.733330
65052	4.708410	1.971256	10.544690	-0.450931	-2.828010	0.697657	-0.227227	0.678552	0.698524	-0.931884	-0.359781	0.046357	0.282771	-0.640410	0.714084
65053	4.792673	1.249868	10.427769	-0.479949	-3.254346	0.836511	-0.225761	0.654312	0.721739	-0.931379	-0.362167	0.036995	0.285596	-0.663861	0.691175
65054	5.682250	1.585647	10.656277	-0.512425	-3.723841	0.969979	-0.224056	0.625579	0.747295	-0.930689	-0.364858	0.026391	0.289166	-0.689586	0.663968
65055	5.734101	1.485763	10.904872	-0.727982	-4.163519	1.146519	-0.222629	0.592096	0.774506	-0.930266	-0.366660	0.012904	0.291620	-0.717623	0.632435
65056	7.188255	2.654148	12.703562	-0.763609	-4.665543	1.402511	-0.221954	0.552755	0.803243	-0.929406	-0.369047	-0.002854	0.294857	-0.747172	0.595645
65057	10.366559	3.632427	13.544258	-1.057214	-5.082483	1.675337	-0.222499	0.507813	0.832238	-0.928828	-0.369816	-0.022668	0.296264	-0.778050	0.553955
65058	12.198953	2.821273	13.341396	-1.438112	-5.357002	1.925910	-0.224520	0.458176	0.860038	-0.928793	-0.367656	-0.046604	0.294845	-0.809261	0.508097
65059	15.976563	1.472303	13.530706	-1.468487	-5.356726	1.885161	-0.226283	0.407181	0.884873	-0.928879	-0.363673	-0.070190	0.293224	-0.837822	0.460515
65060	16.014560	-0.240122	13.296041	-1.550938	-5.156124	1.648372	-0.226519	0.357372	0.906076	-0.929693	-0.356734	-0.091721	0.290450	-0.863149	0.413053
65061	12.566077	-0.450190	12.801053	-1.083794	-4.909378	1.395670	-0.225217	0.309582	0.923816	-0.929707	-0.351885	-0.108732	0.291416	-0.883366	0.367071
65062	8.304830	0.749850	11.704406	-0.787660	-4.750809	1.291768	-0.223265	0.262685	0.938696	-0.929137	-0.348512	-0.123464	0.294714	-0.899742	0.321881
65063	4.799850	2.100192	11.155582	-0.579395	-4.676641	1.325606	-0.221683	0.215735	0.950955	-0.927920	-0.346403	-0.137728	0.299701	-0.912942	0.276977
65064	2.150362	2.910548	10.567241	-0.703748	-4.607820	1.497323	-0.221640	0.168231	0.960507	-0.926743	-0.342768	-0.153813	0.303355	-0.924234	0.231878
65065	-2.034262	2.597726	8.609695	-0.813943	-4.455065	1.719512	-0.224007	0.121062	0.967039	-0.925396	-0.337681	-0.172087	0.305717	-0.933443	0.187673
65066	5.677795	-0.185465	3.737048	-0.541119	-4.529543	1.815095	-0.226783	0.072523	0.971241	-0.922993	-0.334326	-0.190553	0.310892	-0.939663	0.142758
65067	23.847281	2.184633	15.454217	1.031146	-1.345203	1.082603	-0.232488	0.056307	0.970968	-0.917240	-0.344698	-0.199634	0.323450	-0.937023	0.131785
65068	10.736574	8.766531	17.331625	0.207212	1.280254	0.406941	-0.240316	0.066879	0.968388	-0.915630	-0.346847	-0.203270	0.322288	-0.935534	0.144589
65069	3.655216	7.940094	12.377439	-0.712550	2.806589	0.058370	-0.249712	0.093051	0.963839	-0.917737	-0.340246	-0.204920	0.308874	-0.935721	0.170360
65070	-4.160602	6.406274	9.001999	-1.419912	3.196234	-0.052924	-0.258725	0.123150	0.958069	-0.922127	-0.326849	-0.207006	0.287651	-0.937019	0.198124
65071	-6.123548	1.973909	6.598701	-1.810823	2.920824	-0.187609	-0.265036	0.151275	0.952298	-0.927605	-0.309641	-0.208977	0.263258	-0.938743	0.222390
65072	-4.813282	-0.898083	6.481520	-1.038671	2.610498	-0.275587	-0.269096	0.176598	0.946784	-0.931008	-0.299399	-0.208767	0.246599	-0.937642	0.244981
65073	-1.590896	-1.086224	8.164865	-0.179126	2.544453	-0.423713	-0.271323	0.201807	0.941094	-0.932583	-0.296961	-0.205190	0.238060	-0.933321	0.268774
65074	1.912813	-0.506014	9.054388	0.410177	2.867054	-0.545240	-0.272971	0.230078	0.934104	-0.933117	-0.299551	-0.198901	0.234050	-0.925923	0.296458
65075	3.889500	0.734414	9.580285	0.743370	3.457750	-0.540400	-0.275996	0.263697	0.924278	-0.932863	-0.305104	-0.191514	0.231499	-0.915082	0.330201
65076	4.386723	0.722062	9.301948	0.776682	4.061675	-0.429562	-0.281277	0.301902	0.910900	-0.932296	-0.310896	-0.184843	0.227391	-0.901221	0.368910
65077	3.975765	-0.143218	8.639092	0.864220	4.494986	-0.280969	-0.288798	0.343075	0.893809	-0.931144	-0.317753	-0.178897	0.222635	-0.883930	0.411218
65078	3.834313	-0.964205	8.080659	1.054930	4.755468	-0.145925	-0.297898	0.385088	0.873478	-0.929263	-0.326391	-0.173028	0.218464	-0.863236	0.455079
65079	4.117691	-1.333097	7.794726	1.361515	4.885266	-0.068155	-0.307918	0.427059	0.850180	-0.926499	-0.337752	-0.165901	0.216301	-0.838775	0.499670
65080	4.768796	-1.003034	8.005641	1.672994	4.943184	-0.051987	-0.318098	0.468015	0.824485	-0.923061	-0.351273	-0.156732	0.216267	-0.810906	0.543746
65081	5.542306	-0.122648	8.206894	1.886150	4.982131	-0.117606	-0.327861	0.508227	0.796375	-0.919337	-0.365751	-0.145071	0.217546	-0.779700	0.587147
65082	5.834100	0.758679	8.603509	1.963488	4.983170	-0.280274	-0.336135	0.547293	0.766475	-0.916001	-0.379206	-0.130941	0.218989	-0.746106	0.628785
65083	6.116313	0.898081	9.105006	1.921761	4.900688	-0.523441	-0.342144	0.585165	0.735201	-0.913545	-0.390288	-0.114501	0.219938	-0.710815	0.668109
65084	6.807801	0.484932	9.871028	1.911488	4.779697	-0.821029	-0.345153	0.621515	0.703270	-0.912173	-0.398528	-0.095480	0.220931	-0.674459	0.704482
65085	7.709714	-0.112690	10.634757	1.967749	4.659440	-1.116137	-0.345356	0.656687	0.670441	-0.911648	-0.404334	-0.073566	0.222773	-0.636613	0.738306
65086	8.367944	-0.353957	11.235151	2.031232	4.539711	-1.350324	-0.343190	0.690197	0.637063	-0.911763	-0.407732	-0.049434	0.225632	-0.597816	0.769225
65087	8.752006	-0.438729	11.866086	2.033447	4.361672	-1.506744	-0.339413	0.721700	0.603280	-0.912269	-0.408881	-0.024112	0.229268	-0.558538	0.797165
65088	10.097413	-0.724135	12.657166	2.040961	4.112091	-1.623433	-0.334089	0.750512	0.570190	-0.913028	-0.407891	0.001920	0.234017	-0.519958	0.821510
65089	12.295037	-1.063461	13.814290	2.074362	3.896354	-1.777855	-0.327129	0.777364	0.537301	-0.913981	-0.404715	0.029074	0.240054	-0.481572	0.842889
65090	16.005827	-0.571140	15.398223	2.108770	3.863667	-1.973796	-0.318447	0.803155	0.503521	-0.915239	-0.398816	0.057308	0.246839	-0.442592	0.862080
65091	19.027889	0.591335	16.420847	1.911441	4.201333	-2.111040	-0.309608	0.829289	0.465212	-0.917105	-0.389645	0.084230	0.251119	-0.400570	0.881183
65092	19.070481	0.301239	15.705814	1.468554	4.698811	-2.133494	-0.301754	0.855240	0.421318	-0.919967	-0.377181	0.106752	0.250212	-0.355386	0.900608
65093	17.342886	-1.350354	13.715691	1.185271	5.031481	-2.056636	-0.295320	0.879597	0.372954	-0.923167	-0.363257	0.125727	0.246067	-0.307169	0.919292
65094	14.598951	-2.486948	11.720630	1.110598	5.022386	-1.906513	-0.289903	0.900607	0.323825	-0.926058	-0.349385	0.142643	0.241605	-0.258528	0.935302
65095	10.864141	2.547301	13.017449	0.585085	3.128821	-1.316704	-0.285223	0.912797	0.292316	-0.928447	-0.338853	0.152197	0.237978	-0.227990	0.944133
65096	14.323856	-10.443021	2.428337	-1.403661	3.534359	-1.330586	-0.280791	0.924779	0.256789	-0.935410	-0.323583	0.142482	0.214857	-0.200195	0.955907
65097	23.393334	-12.396496	3.171178	1.693764	2.772692	-0.979123	-0.277723	0.933068	0.228593	-0.934448	-0.317593	0.161066	0.222885	-0.168876	0.960106
65098	23.036037	-5.880839	4.157031	1.548640	3.205331	-0.517442	-0.280092	0.939566	0.196887	-0.932415	-0.315058	0.177035	0.228367	-0.133994	0.964310
65099	18.270879	-5.469895	-2.257867	1.260942	3.045149	0.013417	-0.287214	0.943126	0.167397	-0.929498	-0.316635	0.189145	0.231391	-0.101270	0.967576
65100	14.987154	-4.560154	-7.067165	0.746510	2.109683	0.539130	-0.297072	0.943313	0.148014	-0.926211	-0.322360	0.195489	0.232122	-0.079017	0.969472
65101	14.397256	-4.785652	-8.937547	0.158888	0.650661	0.777867	-0.305757	0.941285	0.143165	-0.923523	-0.329774	0.195841	0.231554	-0.072336	0.970129
65102	17.410487	-4.644441	-9.057234	-0.220450	-0.920272	0.744550	-0.310459	0.938104	0.153548	-0.921760	-0.336568	0.192562	0.232322	-0.081752	0.969197
65103	17.850652	-0.888754	-8.831839	-0.799871	-2.125677	0.738060	-0.312301	0.933632	0.175496	-0.921345	-0.342691	0.183539	0.231499	-0.104372	0.967220
65104	5.561351	-2.039548	0.604059	-2.286953	-2.715622	0.506251	-0.310827	0.928615	0.202634	-0.924936	-0.344605	0.160439	0.218814	-0.137555	0.966022
65105	0.413231	-3.671286	11.263525	-1.187929	-3.450948	0.055464	-0.303762	0.923065	0.235967	-0.927390	-0.343226	0.148810	0.218351	-0.173631	0.960299
65106	4.906906	8.291050	16.676907	0.594718	-2.871602	0.292859	-0.299967	0.916724	0.263887	-0.925184	-0.346989	0.153733	0.232497	-0.198029	0.952224
65107	3.660573	8.620181	9.932822	-2.054753	-2.555419	0.889677	-0.302379	0.908179	0.289444	-0.927191	-0.350679	0.131685	0.221095	-0.228552	0.948093
65108	3.661341	-4.201375	7.513291	-3.308801	-2.688976	0.714561	-0.303348	0.899055	0.315721	-0.931987	-0.348940	0.098188	0.198444	-0.264463	0.943758
65109	6.089988	-6.381777	9.204628	-1.121910	-3.015773	0.417974	-0.301251	0.889160	0.344444	-0.932966	-0.349489	0.086212	0.197036	-0.295383	0.934840
65110	8.904498	-5.099538	14.574736	-0.913262	-2.859178	0.270647	-0.298110	0.879366	0.371276	-0.933972	-0.349014	0.076721	0.197046	-0.323890	0.925347
65111	8.389537	-6.815308	12.124038	-0.170051	-2.794776	0.096581	-0.293381	0.869630	0.397079	-0.934053	-0.349231	0.074715	0.203647	-0.348973	0.914738
65112	14.573824	-7.413067	14.229423	0.154917	-2.724252	-0.106426	-0.286679	0.860183	0.421783	-0.934057	-0.348827	0.076533	0.212962	-0.372028	0.903461
65113	18.555922	1.125363	12.479177	1.381447	-1.618657	-0.127755	-0.281867	0.854533	0.436261	-0.931390	-0.352869	0.089420	0.230356	-0.381125	0.895366
65114	5.152184	7.396570	11.341808	0.081902	-0.936676	0.193258	-0.281459	0.850246	0.444817	-0.930674	-0.354789	0.089276	0.233723	-0.388852	0.891161
65115	6.137428	2.792257	8.691841	-0.618389	-0.998914	0.060763	-0.279669	0.846086	0.453787	-0.931971	-0.352802	0.083426	0.230683	-0.399585	0.887196
65116	6.522600	0.485896	10.210050	-0.400744	-0.887717	0.074169	-0.278285	0.842241	0.461723	-0.932705	-0.351766	0.079515	0.229389	-0.408523	0.883453
65117	11.925212	-0.900592	10.883536	-0.348151	-0.689477	0.062070	-0.277251	0.839172	0.467891	-0.933359	-0.350788	0.076080	0.227975	-0.415617	0.880506
65118	2.130817	1.474089	8.140284	-0.028846	-0.063810	0.104927	-0.278051	0.838541	0.468548	-0.933152	-0.351505	0.075312	0.227849	-0.416286	0.880222
65119	6.948415	0.443252	10.209039	-0.268019	-0.412948	0.032727	-0.277381	0.836686	0.472245	-0.933701	-0.350591	0.072725	0.226413	-0.420763	0.878462
65120	5.773246	-1.888454	9.092421	-0.160771	-0.161281	-0.043642	-0.276576	0.836161	0.473646	-0.934203	-0.349504	0.071497	0.225324	-0.422707	0.877809
65121	5.122005	1.025985	9.687926	0.101396	-0.134469	-0.038215	-0.275877	0.835713	0.474842	-0.934111	-0.349546	0.072488	0.226558	-0.423558	0.877081
65122	4.978491	0.282836	8.916110	0.002032	-0.120585	-0.042208	-0.275176	0.835351	0.475885	-0.934241	-0.349158	0.072684	0.226875	-0.424590	0.876499
65123	5.027893	0.789498	9.062781	0.024102	-0.126448	-0.038285	-0.274493	0.834935	0.477009	-0.934323	-0.348873	0.072998	0.227364	-0.425643	0.875862
