// General information: 
//  MT Manager version: 2022.2.0 
//  XDA version: 2022.2.0 build 7381 rev 124627 built on 2023-07-19
// Device information: 
//  DeviceId: 00B4CB9F
//  ProductCode: MTW2-3A7G6
//  Firmware Version: 4.6.0
//  Hardware Version: 2.0.0
// Device settings: 
//  Filter Profile: human(46.1)
//  Option Flags: Orientation Smoother Disabled, Position/Velocity Smoother Disabled, Continuous Zero Rotation Update Disabled, AHS Disabled, ICC Disabled
// Coordinate system: ENU
PacketCounter	Acc_X	Acc_Y	Acc_Z	Gyr_X	Gyr_Y	Gyr_Z	Mat[1][1]	Mat[2][1]	Mat[3][1]	Mat[1][2]	Mat[2][2]	Mat[3][2]	Mat[1][3]	Mat[2][3]	Mat[3][3]
60780	9.201256	0.361888	3.298443	0.009225	0.013247	-0.002866	-0.312482	-0.070305	0.947318	0.324161	-0.945287	0.036773	0.892902	0.318575	0.318176
60781	9.156434	0.379626	3.310204	-0.002554	0.011172	-0.004526	-0.312552	-0.070325	0.947294	0.324167	-0.945285	0.036780	0.892876	0.318577	0.318247
60782	9.150368	0.299218	3.306682	-0.006687	0.012659	-0.003925	-0.312612	-0.070355	0.947272	0.324153	-0.945290	0.036768	0.892860	0.318555	0.318315
60783	9.172148	0.290898	3.302509	-0.010656	0.011862	-0.009354	-0.312699	-0.070327	0.947245	0.324067	-0.945318	0.036795	0.892860	0.318476	0.318391
60784	9.165693	0.318147	3.235754	-0.008101	0.015003	-0.013486	-0.312812	-0.070274	0.947212	0.324011	-0.945335	0.036868	0.892841	0.318440	0.318481
60785	9.158704	0.322348	3.318273	-0.001432	0.025117	-0.012214	-0.313035	-0.070255	0.947139	0.323992	-0.945338	0.036959	0.892770	0.318435	0.318686
60786	9.169689	0.335624	3.350764	-0.000586	0.028987	-0.011589	-0.313267	-0.070264	0.947062	0.324009	-0.945329	0.037039	0.892683	0.318460	0.318906
60787	9.208625	0.379140	3.340545	-0.002441	0.037862	-0.015457	-0.313606	-0.070262	0.946950	0.323976	-0.945336	0.037151	0.892575	0.318440	0.319226
60788	9.239458	0.392553	3.346100	-0.007586	0.037769	-0.009450	-0.313908	-0.070319	0.946846	0.323937	-0.945347	0.037188	0.892483	0.318392	0.319531
60789	9.230641	0.321139	3.322210	-0.014454	0.036127	-0.006947	-0.314207	-0.070396	0.946741	0.323831	-0.945384	0.037179	0.892417	0.318266	0.319842
60790	9.183203	0.347011	3.313005	-0.019468	0.025609	-0.000578	-0.314372	-0.070498	0.946679	0.323714	-0.945428	0.037093	0.892401	0.318114	0.320037
60791	9.190858	0.334436	3.257156	-0.019612	0.019434	-0.000552	-0.314504	-0.070578	0.946629	0.323577	-0.945478	0.037011	0.892404	0.317947	0.320194
60792	9.222375	0.346332	3.261068	-0.017545	0.018693	-0.000849	-0.314609	-0.070656	0.946588	0.323476	-0.945515	0.036935	0.892404	0.317819	0.320323
60793	9.243996	0.337019	3.257579	-0.017193	0.018676	0.003607	-0.314711	-0.070774	0.946545	0.323374	-0.945555	0.036817	0.892405	0.317675	0.320463
60794	9.208930	0.375037	3.277026	-0.019512	0.012937	-0.010699	-0.314796	-0.070740	0.946520	0.323225	-0.945605	0.036827	0.892429	0.317532	0.320537
60795	9.220360	0.387464	3.308224	-0.023369	0.010181	-0.009765	-0.314870	-0.070700	0.946498	0.323020	-0.945676	0.036820	0.892477	0.317332	0.320603
60796	9.238388	0.396791	3.258521	-0.026454	0.007070	-0.012321	-0.314908	-0.070632	0.946490	0.322804	-0.945749	0.036824	0.892542	0.317127	0.320624
60797	9.268890	0.376423	3.195756	-0.033220	0.001190	-0.011718	-0.314903	-0.070561	0.946497	0.322523	-0.945846	0.036792	0.892645	0.316853	0.320608
60798	9.290979	0.367830	3.190896	-0.032377	0.005064	-0.011085	-0.314919	-0.070499	0.946497	0.322258	-0.945938	0.036765	0.892735	0.316594	0.320613
60799	9.228567	0.333815	3.209540	-0.035779	-0.001949	-0.007591	-0.314874	-0.070451	0.946515	0.321961	-0.946042	0.036690	0.892858	0.316293	0.320567
60800	9.232898	0.273689	3.212245	-0.027542	0.003534	-0.002770	-0.314850	-0.070462	0.946522	0.321765	-0.946112	0.036600	0.892937	0.316081	0.320555
60801	9.202143	0.293739	3.275737	-0.005677	-0.000066	-0.000680	-0.314806	-0.070482	0.946536	0.321754	-0.946117	0.036561	0.892957	0.316061	0.320521
60802	9.224329	0.284843	3.270618	0.002314	0.003463	0.006050	-0.314752	-0.070576	0.946546	0.321853	-0.946087	0.036482	0.892940	0.316131	0.320498
60803	9.189667	0.322659	3.288909	0.007991	0.003530	0.006731	-0.314706	-0.070694	0.946553	0.322006	-0.946037	0.036403	0.892901	0.316252	0.320487
60804	9.181200	0.334200	3.346955	0.000875	-0.002326	0.002875	-0.314610	-0.070741	0.946581	0.322082	-0.946014	0.036350	0.892907	0.316313	0.320410
60805	9.197780	0.352040	3.273327	-0.010375	-0.006693	-0.000381	-0.314511	-0.070734	0.946615	0.322020	-0.946037	0.036300	0.892965	0.316246	0.320316
60806	9.220292	0.343093	3.267296	-0.016895	-0.010626	-0.001693	-0.314356	-0.070711	0.946668	0.321923	-0.946072	0.036233	0.893054	0.316144	0.320167
60807	9.198823	0.309373	3.229067	-0.022675	-0.006456	-0.000476	-0.314243	-0.070724	0.946704	0.321774	-0.946127	0.036127	0.893147	0.315978	0.320071
60808	9.227673	0.297513	3.142839	-0.015139	-0.000926	-0.004565	-0.314185	-0.070705	0.946725	0.321684	-0.946159	0.036093	0.893201	0.315886	0.320013
60809	9.249356	0.330894	3.180509	0.006169	0.003960	-0.003142	-0.314181	-0.070721	0.946725	0.321779	-0.946126	0.036110	0.893168	0.315982	0.320011
60810	9.216489	0.360727	3.221810	0.021450	0.011069	0.001409	-0.314210	-0.070795	0.946710	0.322034	-0.946038	0.036137	0.893066	0.316227	0.320053
60811	9.216165	0.361223	3.222683	0.020083	0.009502	0.002358	-0.314245	-0.070861	0.946694	0.322248	-0.945964	0.036160	0.892976	0.316433	0.320099
60812	9.181378	0.399731	3.241270	0.010129	0.004745	0.002293	-0.314215	-0.070924	0.946699	0.322405	-0.945912	0.036143	0.892930	0.316577	0.320086
60813	9.195503	0.361195	3.251616	-0.005955	0.004181	-0.001012	-0.314213	-0.070947	0.946698	0.322382	-0.945921	0.036111	0.892939	0.316545	0.320092
60814	9.179467	0.301214	3.282360	-0.011107	0.001816	-0.003272	-0.314174	-0.070948	0.946711	0.322331	-0.945939	0.036078	0.892971	0.316489	0.320059
60815	9.262097	0.335490	3.236076	-0.020640	-0.003267	-0.011283	-0.314133	-0.070868	0.946730	0.322166	-0.945995	0.036084	0.893045	0.316340	0.319999
60816	9.244144	0.284894	3.244082	-0.025508	0.006735	-0.013571	-0.314172	-0.070787	0.946723	0.321954	-0.946067	0.036103	0.893108	0.316144	0.320018
60817	9.249967	0.324206	3.206770	-0.021619	0.003300	-0.012259	-0.314198	-0.070699	0.946721	0.321754	-0.946134	0.036129	0.893171	0.315963	0.320021
60818	9.280444	0.304311	3.144121	-0.026208	0.009056	-0.014214	-0.314260	-0.070619	0.946707	0.321534	-0.946208	0.036151	0.893228	0.315759	0.320061
60819	9.249335	0.325268	3.208483	-0.023474	0.012198	-0.016105	-0.314378	-0.070530	0.946674	0.321313	-0.946281	0.036204	0.893266	0.315561	0.320151
60820	9.225196	0.301961	3.149680	-0.018252	0.016530	-0.017979	-0.314518	-0.070438	0.946635	0.321153	-0.946332	0.036287	0.893275	0.315427	0.320260
60821	9.224074	0.344776	3.194052	-0.015063	0.015409	-0.017314	-0.314664	-0.070347	0.946593	0.321003	-0.946379	0.036376	0.893277	0.315305	0.320373
60822	9.184789	0.336391	3.274031	-0.007073	0.016682	-0.018842	-0.314809	-0.070248	0.946552	0.320939	-0.946396	0.036503	0.893249	0.315277	0.320479
60823	9.184183	0.337963	3.275569	-0.006127	0.016320	-0.020104	-0.314969	-0.070142	0.946507	0.320871	-0.946414	0.036641	0.893217	0.315248	0.320597
60824	9.203923	0.339938	3.249147	-0.020141	0.015021	-0.023710	-0.315114	-0.069991	0.946469	0.320676	-0.946475	0.036773	0.893236	0.315097	0.320692
60825	9.245393	0.375217	3.260050	-0.033273	0.009145	-0.032705	-0.315251	-0.069736	0.946443	0.320316	-0.946590	0.036947	0.893317	0.314809	0.320751
60826	9.236978	0.346903	3.276394	-0.051531	0.013578	-0.033806	-0.315415	-0.069485	0.946406	0.319808	-0.946757	0.037074	0.893441	0.314362	0.320844
60827	9.185380	0.251772	3.217497	-0.063373	0.009562	-0.031347	-0.315547	-0.069257	0.946379	0.319199	-0.946960	0.037130	0.893612	0.313799	0.320917
60828	9.159376	0.171742	3.241140	-0.065259	0.008072	-0.037072	-0.315672	-0.068957	0.946359	0.318557	-0.947172	0.037243	0.893797	0.313226	0.320963
60829	9.155118	0.125241	3.301992	-0.047416	0.001731	-0.036284	-0.315754	-0.068650	0.946354	0.318065	-0.947331	0.037403	0.893943	0.312813	0.320959
60830	9.156693	0.118191	3.325509	-0.026099	0.017042	-0.032936	-0.315946	-0.068417	0.946307	0.317787	-0.947416	0.037603	0.893974	0.312604	0.321075
60831	9.074518	0.118681	3.439112	-0.002776	0.027399	-0.034019	-0.316247	-0.068219	0.946221	0.317709	-0.947431	0.037879	0.893896	0.312602	0.321296
60832	9.085155	0.133632	3.472023	0.010172	0.033293	-0.027239	-0.316566	-0.068091	0.946123	0.317772	-0.947400	0.038141	0.893760	0.312726	0.321552
60833	9.074129	0.115821	3.467589	0.026150	0.035859	-0.030281	-0.316930	-0.067948	0.946012	0.317957	-0.947324	0.038479	0.893565	0.312986	0.321840
60834	9.110806	0.171308	3.435580	0.039283	0.039515	-0.029528	-0.317312	-0.067818	0.945893	0.318273	-0.947202	0.038857	0.893317	0.313382	0.322143
60835	9.124282	0.277449	3.451832	0.042907	0.038114	-0.036796	-0.317723	-0.067616	0.945770	0.318580	-0.947080	0.039315	0.893061	0.313795	0.322450
60836	9.165582	0.274350	3.422053	0.029850	0.036461	-0.041670	-0.318117	-0.067362	0.945655	0.318773	-0.946996	0.039777	0.892852	0.314103	0.322728
60837	9.168063	0.186894	3.361812	0.019324	0.029782	-0.044300	-0.318478	-0.067059	0.945555	0.318842	-0.946954	0.040233	0.892699	0.314296	0.322965
60838	9.242967	0.154723	3.290106	0.013523	0.013101	-0.046884	-0.318679	-0.066683	0.945514	0.318872	-0.946924	0.040692	0.892616	0.314466	0.323028
60839	9.342565	0.105480	3.234646	0.011112	0.003472	-0.052933	-0.318827	-0.066221	0.945497	0.318846	-0.946911	0.041197	0.892573	0.314603	0.323015
60840	9.331977	0.057021	3.161300	0.017666	-0.009208	-0.051272	-0.318843	-0.065733	0.945525	0.318899	-0.946870	0.041710	0.892548	0.314826	0.322865
60841	9.319761	0.091578	3.172747	0.025561	-0.018079	-0.042296	-0.318769	-0.065304	0.945580	0.319036	-0.946804	0.042163	0.892526	0.315114	0.322646
60842	9.275887	0.113817	3.180732	0.056917	-0.033390	-0.046427	-0.318555	-0.064786	0.945688	0.319455	-0.946636	0.042758	0.892453	0.315725	0.322251
60843	9.292254	0.189576	3.361363	0.105410	-0.031796	-0.046591	-0.318373	-0.064271	0.945784	0.320288	-0.946321	0.043509	0.892219	0.316775	0.321868
60844	9.296961	0.189331	3.617779	0.159796	-0.025849	-0.039703	-0.318205	-0.063839	0.945870	0.321646	-0.945820	0.044371	0.891790	0.318354	0.321498
60845	9.254119	0.118475	3.903010	0.209870	-0.018295	-0.034416	-0.318100	-0.063492	0.945929	0.323459	-0.945155	0.045334	0.891171	0.320390	0.321191
60846	9.186148	0.033565	4.105924	0.236995	-0.021157	-0.023574	-0.317923	-0.063227	0.946006	0.325554	-0.944390	0.046289	0.890471	0.322693	0.320827
60847	9.256320	0.086318	4.217861	0.233510	-0.042337	-0.013568	-0.317538	-0.062991	0.946151	0.327632	-0.943629	0.047134	0.889846	0.324956	0.320276
60848	9.227431	0.257237	4.276616	0.201299	-0.072236	-0.005062	-0.316847	-0.062733	0.946400	0.329465	-0.942957	0.047798	0.889416	0.326951	0.319442
60849	9.216534	0.519666	4.365595	0.150023	-0.114508	-0.008393	-0.315808	-0.062306	0.946775	0.330814	-0.942458	0.048325	0.889285	0.328468	0.318248
60850	9.458550	0.552858	4.866384	0.070994	-0.143147	-0.014931	-0.314519	-0.061720	0.947242	0.331457	-0.942214	0.048664	0.889502	0.329276	0.316802
60851	9.878664	0.080742	5.449674	-0.009980	-0.102156	0.004294	-0.313548	-0.061456	0.947582	0.331427	-0.942231	0.048558	0.889856	0.329279	0.315803
60852	10.026517	-0.101820	5.443927	-0.074803	0.030923	0.037154	-0.313635	-0.061933	0.947522	0.330936	-0.942435	0.047941	0.890008	0.328605	0.316076
60853	9.605992	-0.005255	5.453531	-0.101949	0.187859	0.047706	-0.315096	-0.063035	0.946964	0.330229	-0.942723	0.047129	0.889754	0.327565	0.317865
60854	9.077062	0.219243	5.399698	-0.055944	0.263611	0.056261	-0.317190	-0.064454	0.946169	0.329968	-0.942852	0.046389	0.889107	0.326920	0.320331
60855	9.123217	0.398194	5.622723	0.006369	0.317109	0.058640	-0.319766	-0.066077	0.945190	0.330257	-0.942778	0.045821	0.888076	0.326807	0.323291
60856	9.337700	0.498823	5.940947	0.064953	0.463836	0.062234	-0.323611	-0.068206	0.943729	0.331092	-0.942505	0.045416	0.886371	0.327159	0.327587
60857	9.163847	0.475457	5.995227	0.060860	0.656455	0.065456	-0.329158	-0.070999	0.941602	0.331884	-0.942248	0.044969	0.884029	0.327305	0.333712
60858	8.762819	0.300041	5.810327	0.045586	0.791893	0.075307	-0.335833	-0.074326	0.938985	0.332596	-0.942024	0.044388	0.881247	0.327209	0.341083
60859	8.506131	0.109877	5.718076	0.053824	0.823782	0.095610	-0.342711	-0.077955	0.936201	0.333439	-0.941761	0.043642	0.878276	0.327123	0.348745
60860	8.607833	0.106478	5.598256	0.140105	0.834872	0.126472	-0.349542	-0.081905	0.933334	0.335164	-0.941181	0.042928	0.874920	0.327825	0.356434
60861	8.708145	0.339481	5.699367	0.317686	0.845899	0.173742	-0.356290	-0.086352	0.930377	0.338592	-0.939977	0.042421	0.870869	0.330132	0.364142
60862	8.697071	0.737624	5.576297	0.489624	0.846181	0.183455	-0.362949	-0.090911	0.927364	0.343564	-0.938168	0.042493	0.866160	0.334031	0.371740
60863	8.311371	1.573784	5.017387	0.469634	0.826919	0.144001	-0.369561	-0.095031	0.924334	0.348151	-0.936456	0.042918	0.861519	0.337669	0.379163
60864	8.271729	2.207118	4.342515	0.091830	0.705773	0.039571	-0.375429	-0.097810	0.921676	0.349148	-0.936086	0.042880	0.858574	0.337900	0.385584
60865	8.889505	2.242851	3.501525	-0.316259	0.660056	-0.096784	-0.381383	-0.099144	0.919085	0.346104	-0.937232	0.042517	0.857181	0.334314	0.391759
60866	9.520826	2.105326	3.002206	-0.552858	0.718908	-0.178619	-0.388092	-0.099876	0.916193	0.340740	-0.939221	0.041949	0.856318	0.328464	0.398536
60867	9.715035	1.822121	2.982655	-0.665823	0.790493	-0.175476	-0.395408	-0.100800	0.912958	0.334375	-0.941554	0.040863	0.855480	0.321427	0.406003
60868	9.582285	1.465961	3.069972	-0.840274	0.810958	-0.127125	-0.402701	-0.102199	0.909608	0.326742	-0.944327	0.038555	0.855027	0.312733	0.413674
60869	9.409392	0.794050	3.109745	-1.026596	0.791870	-0.089408	-0.409725	-0.103784	0.906286	0.317612	-0.947572	0.035078	0.855131	0.302219	0.421207
60870	9.405244	-0.098745	2.997822	-1.148844	0.761315	-0.064856	-0.416377	-0.105452	0.903056	0.307578	-0.951025	0.030763	0.855585	0.290569	0.428420
60871	9.497599	-0.984187	2.950343	-1.112146	0.733505	-0.006805	-0.422636	-0.107488	0.899903	0.298060	-0.954193	0.026011	0.855885	0.279218	0.435314
60872	9.457837	-1.956864	3.134499	-0.923593	0.709766	0.086932	-0.428393	-0.110295	0.896836	0.290588	-0.956614	0.021159	0.855592	0.269674	0.441857
60873	9.396339	-2.924613	3.361212	-0.597758	0.695808	0.202931	-0.433716	-0.114113	0.893795	0.286388	-0.957969	0.016664	0.854326	0.263200	0.448167
60874	9.215790	-3.680550	3.541086	-0.155901	0.693589	0.323942	-0.438643	-0.119064	0.890739	0.286534	-0.957981	0.013051	0.851757	0.260952	0.454328
60875	9.068355	-4.018762	3.679543	0.323516	0.712703	0.444139	-0.443375	-0.125211	0.887548	0.291282	-0.956579	0.010561	0.847687	0.263209	0.460595
60876	8.812987	-3.904851	3.786112	0.821674	0.746878	0.557682	-0.447973	-0.132559	0.884165	0.300772	-0.953650	0.009413	0.841936	0.270149	0.467079
60877	8.424409	-3.303181	3.940392	1.326310	0.794526	0.629184	-0.452653	-0.140766	0.880506	0.314763	-0.949117	0.010079	0.834284	0.281712	0.473929
60878	8.024214	-2.329164	4.154212	1.730692	0.843498	0.652765	-0.457478	-0.149411	0.876579	0.332153	-0.943141	0.012591	0.824857	0.296918	0.481093
60879	7.675619	-1.172769	4.459029	2.008104	0.896600	0.635464	-0.462607	-0.158154	0.872343	0.351575	-0.936010	0.016745	0.813873	0.314440	0.488608
60880	7.465771	0.055702	4.882132	2.121977	0.938616	0.586196	-0.468009	-0.166681	0.867862	0.371508	-0.928167	0.022078	0.801841	0.332750	0.496314
60881	7.233238	1.179208	5.180579	2.089099	0.958731	0.520866	-0.473607	-0.174801	0.863216	0.390626	-0.920124	0.027994	0.789372	0.350453	0.504058
60882	7.090074	2.204038	5.485972	1.955413	0.969476	0.440902	-0.479376	-0.182340	0.858458	0.408103	-0.912298	0.034115	0.776950	0.366693	0.511747
60883	7.001156	3.054196	5.812220	1.729827	0.969232	0.353694	-0.485335	-0.189201	0.853612	0.423189	-0.905159	0.039985	0.765089	0.380645	0.519373
60884	6.965190	3.545702	6.128609	1.455496	0.975598	0.276170	-0.491497	-0.195482	0.848656	0.435654	-0.898977	0.045235	0.754079	0.391954	0.527007
60885	6.904613	3.735581	6.360738	1.140846	0.973097	0.215857	-0.497795	-0.201293	0.843612	0.445310	-0.894010	0.049449	0.744244	0.400284	0.534671
60886	6.681835	3.601642	6.491647	0.850312	0.959469	0.160533	-0.504112	-0.206612	0.838560	0.452466	-0.890225	0.052664	0.735626	0.405969	0.542258
60887	6.647583	3.198542	6.500447	0.586017	0.908004	0.091654	-0.510302	-0.211144	0.833672	0.457259	-0.887626	0.055086	0.728358	0.409315	0.549505
60888	6.615630	2.742541	6.304060	0.385512	0.860208	0.038411	-0.516303	-0.215031	0.828971	0.460312	-0.885933	0.056887	0.722180	0.410956	0.556391
60889	6.488983	2.198273	5.970551	0.236474	0.796388	0.003563	-0.521981	-0.218350	0.824536	0.462069	-0.884934	0.058173	0.716958	0.411358	0.562811
60890	6.339404	1.646626	5.679889	0.150052	0.706153	-0.041803	-0.527160	-0.220903	0.820551	0.462982	-0.884378	0.059355	0.712566	0.411190	0.568483
60891	6.316195	1.166480	5.351025	0.092423	0.613155	-0.087832	-0.531889	-0.222658	0.817017	0.463210	-0.884174	0.060597	0.708893	0.410682	0.573420
60892	6.323131	0.746155	5.062229	0.070513	0.523491	-0.136187	-0.536162	-0.223620	0.813956	0.463042	-0.884158	0.062104	0.705778	0.410193	0.577597
60893	6.421474	0.405827	4.599992	0.124548	0.424430	-0.166927	-0.539890	-0.223897	0.811412	0.463057	-0.884002	0.064178	0.702920	0.410379	0.580941
60894	6.497543	0.212252	4.235991	0.227572	0.325265	-0.158567	-0.542846	-0.223851	0.809450	0.463855	-0.883391	0.066779	0.700112	0.411718	0.583379
60895	6.669869	0.222257	4.061340	0.285587	0.167179	-0.114310	-0.544511	-0.223542	0.808416	0.465266	-0.882449	0.069367	0.697879	0.413899	0.584510
60896	6.989551	0.435627	4.086169	0.283232	0.017090	-0.049982	-0.544803	-0.223190	0.808317	0.467028	-0.881354	0.071418	0.696473	0.416415	0.584400
60897	7.181728	0.788480	4.153174	0.219182	-0.095707	-0.008651	-0.544142	-0.222725	0.808890	0.468543	-0.880439	0.072764	0.695972	0.418594	0.583440
60898	7.262033	1.205051	4.483191	0.123612	-0.155587	0.005632	-0.542972	-0.222140	0.809837	0.469494	-0.879877	0.073430	0.696245	0.420084	0.582042
60899	7.275949	1.598647	4.866961	0.017136	-0.174329	0.021045	-0.541623	-0.221603	0.810886	0.469764	-0.879739	0.073355	0.697113	0.420656	0.580588
60900	7.221008	1.678031	5.191394	-0.084217	-0.186021	0.032388	-0.540112	-0.221123	0.812025	0.469411	-0.879990	0.072595	0.698521	0.420383	0.579091
60901	7.104500	1.767481	5.453891	-0.197338	-0.223289	0.056118	-0.538252	-0.220689	0.813377	0.468370	-0.880676	0.070994	0.700653	0.419174	0.577389
60902	6.868578	1.655616	5.616557	-0.266216	-0.308847	0.087695	-0.535612	-0.220188	0.815253	0.467031	-0.881565	0.068737	0.703564	0.417565	0.575011
60903	6.820140	1.735514	5.448597	-0.275125	-0.442013	0.113962	-0.531928	-0.219359	0.817884	0.465735	-0.882443	0.066226	0.707208	0.416145	0.571559
60904	6.831526	1.786299	5.382296	-0.276722	-0.525981	0.116270	-0.527596	-0.218218	0.820990	0.464448	-0.883307	0.063688	0.711288	0.414908	0.567380
60905	6.893569	1.786450	5.411427	-0.290235	-0.608868	0.102163	-0.522743	-0.216607	0.824513	0.462949	-0.884269	0.061205	0.715834	0.413702	0.562524
60906	7.094332	1.668610	5.459829	-0.302985	-0.706805	0.107339	-0.517108	-0.214655	0.828567	0.461390	-0.885259	0.058612	0.720915	0.412601	0.556814
60907	7.183306	1.650914	5.243675	-0.330099	-0.795963	0.117189	-0.510774	-0.212421	0.833059	0.459639	-0.886351	0.055809	0.726527	0.411412	0.550362
60908	7.229713	1.501709	4.878538	-0.412314	-0.894206	0.136521	-0.503561	-0.209980	0.838054	0.457382	-0.887725	0.052402	0.732959	0.409698	0.543064
60909	7.217758	1.069229	4.680594	-0.463943	-1.015325	0.157554	-0.495330	-0.207237	0.843623	0.454786	-0.889275	0.048574	0.740147	0.407729	0.534734
60910	7.387144	0.397298	4.621722	-0.537742	-1.146087	0.193056	-0.485864	-0.204315	0.849819	0.451791	-0.891034	0.044077	0.748212	0.405356	0.525229
60911	8.326577	-0.266370	4.850275	-0.551384	-1.248076	0.212096	-0.475484	-0.201171	0.856414	0.448697	-0.892815	0.039396	0.756694	0.403003	0.514784
60912	9.250008	-0.881141	4.826506	-0.367202	-1.260713	0.239204	-0.464761	-0.198251	0.862956	0.447088	-0.893787	0.035454	0.764270	0.402295	0.504033
60913	9.907958	-0.407212	4.976309	-0.095483	-1.216507	0.283522	-0.454124	-0.195891	0.869136	0.447694	-0.893596	0.032516	0.770287	0.403873	0.493502
60914	10.542717	0.555790	5.830683	0.055226	-1.062281	0.279037	-0.444602	-0.194098	0.874446	0.449433	-0.892799	0.030337	0.774816	0.406493	0.484174
60915	10.692775	1.207540	7.010750	0.160761	-0.763948	0.249504	-0.437512	-0.193219	0.878208	0.451817	-0.891642	0.028915	0.777460	0.409440	0.477404
60916	10.251589	1.582583	8.330611	0.297901	-0.444325	0.240336	-0.432902	-0.193551	0.880417	0.455239	-0.889923	0.028201	0.778045	0.413008	0.473361
60917	10.004261	1.480009	9.623236	0.380897	-0.278661	0.252183	-0.429547	-0.194646	0.881818	0.459323	-0.887835	0.027769	0.777504	0.416967	0.470772
60918	10.268275	0.834874	10.010989	0.408867	-0.237137	0.296747	-0.426269	-0.196301	0.883040	0.463828	-0.885512	0.027053	0.776632	0.421111	0.468517
60919	10.156447	1.090783	9.094208	0.534205	-0.199563	0.338785	-0.423108	-0.198459	0.884078	0.469444	-0.882563	0.026551	0.774985	0.426259	0.466585
60920	9.289598	2.330916	7.751077	0.648975	-0.161637	0.360547	-0.420087	-0.200958	0.884953	0.476043	-0.879026	0.026366	0.772599	0.432352	0.464932
60921	8.285832	3.441048	6.580018	0.627380	-0.169355	0.337356	-0.417134	-0.203186	0.885841	0.482326	-0.875597	0.026286	0.770299	0.438229	0.463243
60922	7.644642	4.101555	5.542765	0.326796	-0.252287	0.259757	-0.413868	-0.204364	0.887101	0.485979	-0.873599	0.025475	0.769765	0.441656	0.460871
60923	7.188614	4.117851	4.623185	-0.345730	-0.390920	0.129660	-0.410196	-0.203778	0.888940	0.483875	-0.874842	0.022735	0.773049	0.439461	0.457460
60924	7.375432	2.876984	3.904862	-1.170110	-0.585709	0.021603	-0.405475	-0.201437	0.891635	0.474928	-0.879857	0.017200	0.781046	0.430437	0.452428
60925	8.245498	1.087976	3.167677	-1.724190	-0.756926	0.025184	-0.399377	-0.198454	0.895050	0.461494	-0.887095	0.009231	0.792162	0.416747	0.445871
60926	8.919538	-0.443840	2.681520	-1.960714	-0.882044	0.110733	-0.391767	-0.195853	0.898977	0.446336	-0.894865	-0.000447	0.804551	0.401071	0.437995
60927	9.437969	-1.618065	2.231159	-1.983013	-0.988439	0.197203	-0.382860	-0.193743	0.903262	0.431050	-0.902263	-0.010822	0.817076	0.385208	0.428954
60928	9.871756	-2.116694	1.816986	-1.856823	-1.046269	0.247700	-0.373134	-0.192054	0.907682	0.416762	-0.908774	-0.020960	0.828903	0.370467	0.419135
60929	9.977673	-2.074664	1.586689	-1.600458	-1.013816	0.282665	-0.363488	-0.190947	0.911820	0.404486	-0.914047	-0.030169	0.839206	0.357852	0.409481
60930	9.703762	-2.146485	1.696932	-1.314867	-0.934262	0.285400	-0.354402	-0.190289	0.915527	0.394477	-0.918114	-0.038124	0.847813	0.347643	0.400446
60931	9.323418	-2.332298	2.066796	-0.938386	-0.822417	0.254370	-0.346377	-0.189810	0.918692	0.387415	-0.920846	-0.044187	0.854361	0.340610	0.392495
60932	8.907516	-2.421999	2.437921	-0.514898	-0.732358	0.193012	-0.339294	-0.189131	0.921471	0.383725	-0.922200	-0.047990	0.858857	0.337309	0.385471
60933	8.628772	-2.150753	2.727167	-0.133543	-0.679061	0.137552	-0.332892	-0.188124	0.924009	0.383073	-0.922376	-0.049783	0.861649	0.337390	0.379116
60934	8.498518	-1.472858	3.020730	0.104015	-0.685699	0.109687	-0.326490	-0.186838	0.926550	0.384389	-0.921793	-0.050431	0.863510	0.339691	0.372775
60935	8.599048	-0.969141	3.382294	0.220604	-0.721523	0.097370	-0.319845	-0.185289	0.929176	0.386645	-0.920843	-0.050535	0.864988	0.343098	0.366168
60936	8.826617	-0.463679	3.634752	0.232650	-0.746246	0.115882	-0.312868	-0.183806	0.931842	0.389084	-0.919801	-0.050795	0.866445	0.346672	0.359292
60937	8.853478	-0.296847	3.995279	0.163890	-0.732078	0.178642	-0.305788	-0.182917	0.934364	0.391092	-0.918887	-0.051895	0.868067	0.349553	0.352522
60938	8.807059	-0.300601	4.532464	0.081385	-0.700135	0.231729	-0.298729	-0.182614	0.936703	0.392557	-0.918153	-0.053805	0.869862	0.351636	0.345965
60939	8.883910	-0.796582	4.820210	-0.043743	-0.679407	0.277340	-0.291688	-0.182785	0.938886	0.393028	-0.917784	-0.056573	0.872036	0.352507	0.339546
60940	8.955645	-1.194409	4.551892	-0.097773	-0.609339	0.309844	-0.285083	-0.183503	0.940773	0.393125	-0.917536	-0.059841	0.874174	0.352781	0.333713
60941	8.768039	-1.048837	4.257315	-0.152448	-0.540242	0.330990	-0.279020	-0.184652	0.942365	0.392757	-0.917449	-0.063481	0.876293	0.352408	0.328510
60942	8.509442	-0.719063	3.985493	-0.224274	-0.516058	0.298010	-0.273256	-0.185594	0.943868	0.391668	-0.917660	-0.067050	0.878594	0.351361	0.323447
60943	8.361423	-0.500037	3.853850	-0.294783	-0.540849	0.223840	-0.267589	-0.185772	0.945455	0.389713	-0.918262	-0.070130	0.881204	0.349690	0.318114
60944	8.491027	-0.597345	3.461147	-0.398646	-0.625308	0.132695	-0.261486	-0.184835	0.947344	0.386600	-0.919380	-0.072670	0.884401	0.347242	0.311862
60945	8.856594	-0.952585	2.870201	-0.540159	-0.723669	0.053527	-0.254833	-0.182847	0.949541	0.381983	-0.921132	-0.074862	0.888341	0.343631	0.304579
60946	9.303025	-1.362793	2.285114	-0.669460	-0.806078	-0.000261	-0.247587	-0.180118	0.951976	0.376076	-0.923392	-0.076901	0.892898	0.338976	0.296358
60947	9.667487	-1.805998	1.589150	-0.774251	-0.871117	-0.024790	-0.239846	-0.176981	0.954543	0.369115	-0.926024	-0.078946	0.897902	0.333401	0.287429
60948	9.962983	-2.091239	0.989051	-0.827299	-0.927009	-0.026248	-0.231527	-0.173699	0.957196	0.361659	-0.928780	-0.081064	0.903105	0.327410	0.277857
60949	10.181970	-2.490316	0.753529	-0.776333	-0.955772	-0.015773	-0.222892	-0.170473	0.959822	0.354626	-0.931312	-0.083057	0.908053	0.321865	0.268036
60950	10.154850	-3.012443	0.956405	-0.628595	-0.962031	0.009735	-0.214034	-0.167513	0.962356	0.348981	-0.933282	-0.084836	0.912360	0.317686	0.258213
60951	10.217585	-3.386219	1.082692	-0.410691	-0.949235	0.062632	-0.205103	-0.165119	0.964712	0.345392	-0.934463	-0.086509	0.915771	0.315461	0.248692
60952	10.125982	-3.147621	1.228799	-0.205171	-0.902838	0.098971	-0.196415	-0.163224	0.966840	0.343764	-0.934924	-0.087999	0.918285	0.315080	0.239744
60953	9.831506	-2.664718	1.249892	-0.057094	-0.871207	0.124006	-0.187941	-0.161663	0.968784	0.343512	-0.934887	-0.089366	0.920151	0.315994	0.231237
60954	9.567801	-2.151021	1.318348	0.035511	-0.852422	0.113347	-0.179634	-0.160047	0.970627	0.344102	-0.934569	-0.090419	0.921589	0.317752	0.222953
60955	9.415984	-1.765044	1.562525	0.041651	-0.868744	0.084237	-0.171290	-0.158097	0.972453	0.344669	-0.934286	-0.091181	0.922964	0.319556	0.214525
60956	9.373189	-1.581331	1.758591	0.035728	-0.866504	0.046325	-0.163060	-0.155779	0.974240	0.345130	-0.934075	-0.091591	0.924282	0.321304	0.206074
60957	9.466250	-1.432974	1.892591	0.022675	-0.857671	0.028892	-0.154985	-0.153318	0.975947	0.345420	-0.933941	-0.091864	0.925562	0.322874	0.197706
60958	9.498567	-1.413836	1.900308	0.002587	-0.822757	0.024071	-0.147214	-0.150906	0.977525	0.345533	-0.933873	-0.092130	0.926787	0.324205	0.189622
60959	9.394877	-1.218533	1.848503	0.000795	-0.771827	-0.006791	-0.140037	-0.148368	0.978967	0.345565	-0.933864	-0.092101	0.927887	0.325400	0.182046
60960	9.423093	-0.999677	1.734143	-0.048725	-0.740978	-0.025563	-0.133178	-0.145741	0.980318	0.345130	-0.934037	-0.091974	0.929058	0.326088	0.174693
60961	9.265487	-0.749441	1.642318	-0.083986	-0.698051	-0.064814	-0.126869	-0.142891	0.981574	0.344299	-0.934389	-0.091521	0.930249	0.326344	0.167742
60962	9.037718	-0.690610	1.645829	-0.136414	-0.696170	-0.100843	-0.120667	-0.139703	0.982814	0.342956	-0.934953	-0.090792	0.931569	0.326106	0.160730
60963	9.069899	-0.709825	1.727337	-0.176483	-0.720838	-0.132962	-0.114358	-0.136144	0.984067	0.341188	-0.935696	-0.089802	0.933013	0.325482	0.153455
60964	9.090127	-0.876404	1.825065	-0.209035	-0.738955	-0.149882	-0.107900	-0.132364	0.985311	0.339121	-0.936554	-0.088678	0.934534	0.324571	0.145941
60965	9.125267	-1.002530	1.962387	-0.211111	-0.762029	-0.153964	-0.101250	-0.128485	0.986529	0.337018	-0.937423	-0.087501	0.936038	0.323619	0.138216
60966	9.189860	-1.142996	1.975052	-0.217472	-0.795764	-0.144203	-0.094212	-0.124587	0.987726	0.334891	-0.938287	-0.086408	0.937535	0.322640	0.130121
60967	9.305406	-1.188577	1.850624	-0.228134	-0.818553	-0.144323	-0.086970	-0.120630	0.988880	0.332652	-0.939183	-0.085311	0.939031	0.321533	0.121809
60968	9.372495	-1.241645	1.758191	-0.248723	-0.826886	-0.138856	-0.079592	-0.116698	0.989973	0.330249	-0.940125	-0.084270	0.940532	0.320230	0.113366
60969	9.388354	-1.232690	1.678052	-0.235612	-0.817864	-0.140800	-0.072314	-0.112794	0.990983	0.327956	-0.941024	-0.083176	0.941921	0.318984	0.105041
60970	9.348415	-1.219509	1.725284	-0.213048	-0.813120	-0.147650	-0.065066	-0.108841	0.991927	0.325896	-0.941846	-0.081969	0.943164	0.317932	0.096753
60971	9.377878	-1.276917	1.862003	-0.175561	-0.789009	-0.153969	-0.058077	-0.104921	0.992783	0.324175	-0.942553	-0.080648	0.944213	0.317152	0.088754
60972	9.374597	-1.212878	1.983921	-0.140155	-0.758705	-0.162499	-0.051368	-0.101011	0.993558	0.322811	-0.943144	-0.079195	0.945068	0.316664	0.081055
60973	9.394017	-1.098006	2.210682	-0.121691	-0.718284	-0.171925	-0.045089	-0.097152	0.994248	0.321607	-0.943686	-0.077627	0.945799	0.316257	0.073795
60974	9.383055	-0.914135	2.148876	-0.150391	-0.661680	-0.179611	-0.039337	-0.093393	0.994852	0.320157	-0.944312	-0.075989	0.946547	0.315520	0.067047
60975	9.216841	-0.816546	2.014009	-0.206975	-0.633181	-0.187761	-0.033898	-0.089663	0.995395	0.318157	-0.945122	-0.074300	0.947432	0.314173	0.060565
60976	9.278672	-0.943962	1.900261	-0.234741	-0.623769	-0.198175	-0.028546	-0.085861	0.995898	0.315918	-0.946012	-0.072505	0.948357	0.312553	0.054130
60977	9.229940	-1.287291	1.744589	-0.270615	-0.641935	-0.209358	-0.023073	-0.081918	0.996372	0.313324	-0.947018	-0.070605	0.949366	0.310558	0.047517
60978	9.280956	-1.861313	1.749468	-0.308415	-0.716707	-0.224226	-0.016897	-0.077602	0.996841	0.310397	-0.948132	-0.068549	0.950457	0.308259	0.040108
60979	9.791448	-2.152364	1.411684	-0.333172	-0.786379	-0.217493	-0.010049	-0.073165	0.997269	0.307226	-0.949307	-0.066550	0.951583	0.305719	0.032017
60980	9.868565	-1.865740	1.038966	-0.366575	-0.783198	-0.201307	-0.003139	-0.068896	0.997619	0.303770	-0.950547	-0.064690	0.952740	0.302843	0.023913
60981	9.760595	-1.558903	0.970328	-0.439286	-0.782444	-0.211248	0.003725	-0.064573	0.997906	0.299608	-0.951998	-0.062721	0.954055	0.299214	0.015801
60982	9.565232	-1.211915	0.986555	-0.497848	-0.772886	-0.235328	0.010471	-0.060062	0.998140	0.294918	-0.953607	-0.060476	0.955465	0.295003	0.007728
60983	9.371674	-0.948335	1.224786	-0.548868	-0.797940	-0.283527	0.017313	-0.055064	0.998333	0.289734	-0.955365	-0.057719	0.956951	0.290251	-0.000586
60984	9.468033	-0.898452	1.532790	-0.601713	-0.830571	-0.324153	0.024404	-0.049604	0.998471	0.284085	-0.957249	-0.054500	0.958488	0.284981	-0.009269
60985	9.436926	-0.920134	1.885453	-0.635679	-0.813486	-0.362280	0.031230	-0.043882	0.998548	0.278112	-0.959202	-0.050851	0.960041	0.279296	-0.017751
60986	9.657629	-1.018371	2.597829	-0.687562	-0.807123	-0.411639	0.037919	-0.037730	0.998568	0.271694	-0.961253	-0.046637	0.961636	0.273073	-0.026199
60987	9.993004	-1.390456	3.503489	-0.723519	-0.763032	-0.451831	0.044090	-0.031370	0.998535	0.264938	-0.963352	-0.041963	0.963257	0.266400	-0.034163
60988	10.283402	-2.090916	4.404969	-0.704803	-0.681696	-0.460615	0.049522	-0.025164	0.998456	0.258404	-0.965322	-0.037146	0.964767	0.259845	-0.041302
60989	10.893397	-3.114765	4.775035	-0.657762	-0.564133	-0.418588	0.053936	-0.019720	0.998350	0.252290	-0.967098	-0.032733	0.966147	0.253639	-0.047186
60990	11.562422	-3.440164	5.429715	-0.446157	-0.347489	-0.304331	0.056599	-0.015932	0.998270	0.248191	-0.968261	-0.029525	0.967056	0.249432	-0.050848
60991	11.972097	-3.311646	6.495094	-0.216579	-0.052261	-0.181485	0.056690	-0.014096	0.998292	0.246215	-0.968820	-0.027662	0.967556	0.247363	-0.051452
60992	12.731467	-2.197863	6.753071	0.074013	0.395651	-0.006659	0.052911	-0.015043	0.998486	0.246980	-0.968625	-0.027681	0.967575	0.248071	-0.047535
60993	12.088441	-0.347779	7.045101	0.372665	0.875187	0.128646	0.044796	-0.018529	0.998824	0.250537	-0.967667	-0.029187	0.967070	0.251550	-0.038705
60994	10.964878	1.542110	6.894123	0.410990	1.196036	0.111822	0.033580	-0.022672	0.999179	0.254512	-0.966589	-0.030486	0.966486	0.255327	-0.026688
60995	10.823378	3.018876	5.739804	0.241167	1.382686	-0.045248	0.020129	-0.025831	0.999464	0.256867	-0.965977	-0.030139	0.966237	0.257336	-0.012809
60996	11.484583	3.253033	3.771883	-0.064887	1.573422	-0.198135	0.004480	-0.027989	0.999598	0.256311	-0.966183	-0.028202	0.966584	0.256335	0.002845
60997	11.590497	3.260411	1.233689	-0.261201	1.761386	-0.299246	-0.013293	-0.029632	0.999472	0.253783	-0.966930	-0.025292	0.967170	0.253313	0.020373
60998	11.803563	3.587005	-0.417654	-0.628269	1.827979	-0.409252	-0.031944	-0.030273	0.999031	0.247659	-0.968610	-0.021432	0.968320	0.246735	0.038439
60999	11.474860	3.425234	-1.204068	-1.066282	1.739864	-0.450466	-0.049881	-0.030145	0.998300	0.237151	-0.971316	-0.017481	0.970191	0.235876	0.055599
61000	11.621841	2.323352	-2.005343	-1.402573	1.538979	-0.446826	-0.065795	-0.029352	0.997401	0.223318	-0.974646	-0.013951	0.972522	0.221820	0.070682
61001	11.747536	1.216919	-2.815837	-1.545231	1.438410	-0.446152	-0.080744	-0.028117	0.996338	0.207959	-0.978079	-0.010748	0.974799	0.206329	0.084821
61002	11.552824	0.358215	-2.920412	-1.549490	1.313341	-0.451409	-0.094400	-0.026337	0.995186	0.192496	-0.981268	-0.007709	0.976747	0.190841	0.097702
61003	11.609689	-0.892341	-2.477840	-1.504421	1.107952	-0.448649	-0.106041	-0.024001	0.994072	0.177355	-0.984135	-0.004842	0.978417	0.175790	0.108616
61004	11.974419	-2.583735	-2.158942	-1.334580	0.962927	-0.387439	-0.116068	-0.021848	0.993001	0.163912	-0.986472	-0.002546	0.979623	0.162469	0.118079
61005	12.187201	-3.978718	-1.776078	-0.965443	0.978047	-0.267480	-0.126054	-0.020794	0.991805	0.154147	-0.988047	-0.001124	0.979974	0.152742	0.127752
61006	11.856750	-4.599840	-1.727921	-0.446082	1.051596	-0.105201	-0.136454	-0.021374	0.990416	0.149694	-0.988732	-0.000714	0.979271	0.148162	0.138116
61007	11.005698	-4.122542	-1.436087	0.141710	1.075131	0.085882	-0.146818	-0.023871	0.988875	0.151224	-0.988499	-0.001410	0.977535	0.149335	0.148740
61008	10.234163	-2.934799	-0.808644	0.685187	1.141424	0.214408	-0.157567	-0.027769	0.987118	0.158294	-0.987389	-0.002509	0.974739	0.155860	0.159976
61009	9.643837	-1.767060	-0.195134	1.143343	1.199322	0.293539	-0.168724	-0.032650	0.985122	0.169921	-0.985451	-0.003559	0.970906	0.166793	0.171818
61010	9.287418	-0.828496	0.417852	1.477236	1.219876	0.323281	-0.179904	-0.037989	0.982950	0.184848	-0.982758	-0.004150	0.966160	0.180950	0.183825
61011	9.079591	-0.230586	0.807492	1.716344	1.187808	0.298120	-0.190741	-0.043211	0.980689	0.201964	-0.979385	-0.003872	0.960640	0.197325	0.195536
61012	9.214824	-0.189529	1.084962	1.732202	1.090219	0.309873	-0.200467	-0.048515	0.978498	0.219217	-0.975670	-0.003463	0.954860	0.213809	0.206225
61013	9.905563	-0.409275	1.609909	1.592134	1.031435	0.368332	-0.209418	-0.054432	0.976310	0.235157	-0.971950	-0.003748	0.949129	0.228802	0.216344
61014	10.834922	-1.153106	2.170777	1.565830	1.078864	0.462275	-0.218437	-0.061496	0.973911	0.251017	-0.967971	-0.004820	0.943014	0.243416	0.226877
61015	10.967961	-1.832623	2.481353	1.696354	1.202910	0.614511	-0.228109	-0.070498	0.971080	0.268356	-0.963295	-0.006895	0.935923	0.259022	0.238655
61016	10.499167	-1.685296	2.415600	1.799696	1.300329	0.693785	-0.238237	-0.080667	0.967851	0.286803	-0.957945	-0.009245	0.927894	0.275380	0.251354
61017	9.994238	-0.740006	2.226231	1.897674	1.396527	0.660879	-0.249140	-0.090987	0.964184	0.305967	-0.951981	-0.010775	0.918865	0.292324	0.265015
61018	9.672850	0.380774	2.398427	2.006187	1.461242	0.547987	-0.260697	-0.100614	0.960163	0.325755	-0.945395	-0.010620	0.908802	0.310009	0.279238
61019	9.839719	1.206436	2.771549	2.039915	1.524839	0.425260	-0.273010	-0.109523	0.955756	0.345349	-0.938432	-0.008889	0.897886	0.327643	0.294025
61020	9.901821	1.699272	3.127009	1.968516	1.590949	0.353890	-0.285884	-0.118202	0.950946	0.363959	-0.931393	-0.006354	0.886456	0.344289	0.309291
61021	9.932447	2.070246	3.399784	1.798509	1.637850	0.281746	-0.299225	-0.126612	0.945745	0.380654	-0.924711	-0.003361	0.874967	0.358996	0.324893
61022	9.632308	2.268347	3.416049	1.536440	1.687660	0.206573	-0.313032	-0.134699	0.940142	0.394702	-0.918809	-0.000222	0.863841	0.371007	0.340782
61023	9.016220	2.191623	3.268533	1.269774	1.715356	0.125548	-0.327223	-0.142325	0.934168	0.406037	-0.913852	0.002998	0.853264	0.380288	0.356822
61024	8.545624	2.233608	3.121396	1.016003	1.682925	0.049062	-0.341233	-0.149251	0.928054	0.414878	-0.909856	0.006221	0.843467	0.387152	0.372394
61025	8.217725	1.979059	2.949869	0.790655	1.637465	-0.006498	-0.354966	-0.155597	0.921840	0.421520	-0.906772	0.009257	0.834458	0.391860	0.387460
61026	7.917468	1.514057	2.585022	0.666842	1.604926	-0.052766	-0.368447	-0.161458	0.915521	0.426923	-0.904204	0.012351	0.825823	0.395407	0.402082
61027	7.687970	1.333399	2.556674	0.610403	1.544683	-0.086542	-0.381479	-0.166831	0.909198	0.431645	-0.901909	0.015615	0.817409	0.398407	0.416071
61028	7.586407	1.043401	2.317850	0.586563	1.477030	-0.102222	-0.393870	-0.171836	0.902961	0.436077	-0.899709	0.018999	0.809138	0.401244	0.429302
61029	7.414847	0.846932	2.249161	0.609916	1.419135	-0.112337	-0.405754	-0.176564	0.896766	0.440569	-0.897433	0.022647	0.800788	0.404276	0.441926
61030	7.247838	0.757389	2.279204	0.625816	1.351306	-0.124963	-0.417008	-0.180948	0.890709	0.445099	-0.895088	0.026547	0.792459	0.407524	0.453799
61031	7.109792	0.670834	2.254024	0.605500	1.283971	-0.145852	-0.427752	-0.184916	0.884779	0.449289	-0.892862	0.030606	0.784326	0.410613	0.465004
61032	7.026962	0.638138	2.240781	0.583012	1.184279	-0.162690	-0.437665	-0.188365	0.879186	0.453194	-0.890734	0.034764	0.776573	0.413657	0.475209
61033	7.037618	0.627758	2.287179	0.575077	1.098941	-0.175145	-0.446923	-0.191388	0.873860	0.456896	-0.888663	0.039044	0.769094	0.416713	0.484608
61034	7.098183	0.607892	2.382616	0.566082	1.008143	-0.179600	-0.455401	-0.194028	0.868886	0.460478	-0.886611	0.043360	0.761951	0.419849	0.493110
61035	6.994750	0.523442	2.561142	0.554773	0.905284	-0.181438	-0.463075	-0.196254	0.864318	0.463887	-0.884611	0.047675	0.755229	0.423023	0.500681
61036	6.968147	0.431739	2.740683	0.547922	0.788095	-0.168390	-0.469723	-0.198131	0.860293	0.467281	-0.882586	0.051873	0.749005	0.426365	0.507154
61037	6.945567	0.537160	2.985366	0.518234	0.685446	-0.144587	-0.475483	-0.199805	0.856734	0.470499	-0.880638	0.055744	0.743335	0.429598	0.512737
61038	6.829209	0.473177	3.093366	0.469915	0.609694	-0.143991	-0.480616	-0.201184	0.853541	0.473350	-0.878870	0.059382	0.738205	0.432564	0.517630
61039	6.687217	0.488624	3.334633	0.419873	0.494311	-0.154297	-0.484954	-0.201989	0.850894	0.475730	-0.877342	0.062868	0.733826	0.435283	0.521563
61040	6.735589	0.460610	3.639916	0.391434	0.386055	-0.162530	-0.488492	-0.202267	0.848801	0.477863	-0.875930	0.066283	0.730084	0.437989	0.524541
61041	6.822426	0.475258	4.030602	0.408719	0.301305	-0.147237	-0.491359	-0.202317	0.847133	0.480153	-0.874414	0.069669	0.726650	0.440985	0.526794
61042	6.900429	0.583728	4.687006	0.461153	0.227609	-0.107118	-0.493463	-0.202405	0.845888	0.483027	-0.872557	0.072995	0.723311	0.444607	0.528342
61043	7.038169	0.753130	5.538185	0.510696	0.193426	-0.037782	-0.495009	-0.202954	0.844853	0.486560	-0.870335	0.076006	0.719879	0.448695	0.529572
61044	7.163626	1.022163	6.655765	0.553013	0.171411	0.041551	-0.495974	-0.204103	0.844009	0.490795	-0.867725	0.078573	0.716331	0.453206	0.530542
61045	7.328986	1.387381	7.995438	0.594058	0.156373	0.076249	-0.496683	-0.205489	0.843256	0.495451	-0.864844	0.081074	0.712624	0.458060	0.531363
61046	7.687563	1.902179	9.242840	0.611668	0.223635	0.076560	-0.497829	-0.207195	0.842162	0.500236	-0.861837	0.083670	0.708470	0.462934	0.532694
61047	8.230738	2.657947	10.040464	0.593736	0.325729	0.065841	-0.499768	-0.209288	0.840494	0.504789	-0.858920	0.086278	0.703861	0.467391	0.534907
61048	8.398536	3.516921	10.387906	0.547863	0.410639	0.072023	-0.502221	-0.211847	0.838388	0.509051	-0.856164	0.088599	0.699029	0.471279	0.537825
61049	8.194154	4.113820	10.621448	0.454752	0.450361	0.085082	-0.504897	-0.214712	0.836049	0.512677	-0.853816	0.090335	0.694436	0.474233	0.541168
61050	7.972227	4.320372	10.314292	0.167698	0.472057	0.065085	-0.507772	-0.217521	0.833578	0.514226	-0.852846	0.090690	0.691187	0.474697	0.544906
61051	7.583599	3.986972	9.603125	-0.239990	0.572959	0.072585	-0.511332	-0.220856	0.830519	0.512965	-0.853807	0.088772	0.689497	0.471419	0.549870
61052	6.336039	3.223224	8.429898	-0.557912	0.603683	0.069629	-0.515076	-0.224293	0.827279	0.509534	-0.856232	0.085100	0.689255	0.465360	0.555309
61053	5.462252	2.413100	7.258231	-0.749406	0.456102	0.089027	-0.517752	-0.227166	0.824820	0.504848	-0.859476	0.080190	0.690697	0.457927	0.559679
61054	5.226949	1.533911	5.644716	-0.780094	0.171191	0.161888	-0.518062	-0.229353	0.824020	0.500344	-0.862618	0.074471	0.693735	0.450874	0.561645
61055	5.401998	1.040841	3.699203	-0.726837	-0.178869	0.252348	-0.515542	-0.230736	0.825214	0.496613	-0.865279	0.068315	0.698278	0.445031	0.560674
61056	5.638379	0.463106	1.742221	-0.706342	-0.539148	0.318758	-0.510121	-0.231127	0.828467	0.493352	-0.867637	0.061722	0.704543	0.440211	0.556627
61057	5.909774	-0.000310	0.115359	-0.752038	-0.906026	0.351518	-0.501954	-0.230218	0.833692	0.489826	-0.870106	0.054644	0.712820	0.435793	0.549520
61058	6.003351	0.031264	-1.162577	-0.973312	-1.143015	0.325491	-0.492099	-0.228124	0.840118	0.484513	-0.873542	0.046604	0.723247	0.429982	0.540398
61059	5.778525	0.130546	-2.345901	-1.380643	-1.287497	0.269589	-0.481389	-0.225016	0.847132	0.475778	-0.878789	0.036940	0.736138	0.420829	0.530097
61060	5.718166	0.091028	-2.875920	-1.778398	-1.429370	0.178416	-0.469858	-0.220682	0.854712	0.463459	-0.885735	0.026084	0.751292	0.408379	0.518446
61061	6.169152	-0.459679	-2.013504	-1.739652	-1.556237	0.062386	-0.457739	-0.214985	0.862703	0.450576	-0.892583	0.016638	0.766457	0.396329	0.505437
61062	6.649006	-1.386798	0.225881	-1.138368	-1.598451	0.000583	-0.445323	-0.208729	0.870701	0.441842	-0.897026	0.010942	0.778758	0.389585	0.491691
61063	8.057076	-2.151599	3.134345	-0.300318	-1.811005	-0.033958	-0.431258	-0.201372	0.879469	0.439373	-0.898252	0.009779	0.788015	0.390632	0.475856
61064	11.938773	-1.561488	7.221189	0.273238	-2.221543	-0.096172	-0.414020	-0.191774	0.889837	0.441189	-0.897335	0.011885	0.796203	0.397507	0.456123
61065	20.095818	0.057053	11.803966	0.661911	-2.291018	-0.187925	-0.396510	-0.180881	0.900034	0.445751	-0.895005	0.016506	0.802549	0.407736	0.435506
61066	27.868345	2.098407	14.031311	1.599901	-0.948159	-0.061437	-0.389130	-0.176409	0.904134	0.458380	-0.888434	0.023936	0.799040	0.423751	0.426579
61067	19.865585	4.313546	13.689258	2.386445	0.565615	0.454965	-0.391451	-0.182893	0.901841	0.479096	-0.877248	0.030050	0.785642	0.443831	0.431023
61068	10.639871	2.991865	11.544646	2.195620	0.422707	1.000893	-0.389779	-0.193545	0.900340	0.500177	-0.865386	0.030508	0.773237	0.462221	0.434116
61069	7.708247	3.653102	6.875073	1.953651	0.160369	1.034911	-0.385711	-0.203205	0.899964	0.519221	-0.854125	0.029675	0.762651	0.478726	0.434954
61070	5.632124	5.628817	2.417204	0.769474	0.053272	0.849195	-0.381602	-0.210705	0.899991	0.528386	-0.848625	0.025360	0.758411	0.485220	0.435171
61071	3.220935	6.771773	1.612459	-0.878733	-0.287231	0.449852	-0.377029	-0.213149	0.901342	0.523429	-0.851890	0.017494	0.764115	0.478384	0.432755
61072	2.862053	3.954185	2.669441	-2.225398	-0.679783	0.081477	-0.371301	-0.210669	0.904298	0.506628	-0.862135	0.007173	0.778116	0.460806	0.426842
61073	4.360356	0.577405	4.153800	-2.507956	-1.098470	-0.065547	-0.362971	-0.205146	0.908938	0.486689	-0.873571	-0.002812	0.794598	0.441350	0.416923
61074	7.117813	-1.197006	4.669635	-2.499233	-1.542229	-0.037760	-0.350695	-0.198169	0.915283	0.466533	-0.884412	-0.012731	0.812010	0.422545	0.402611
61075	10.102309	-1.910649	2.592215	-2.749729	-1.672219	0.028098	-0.336818	-0.191536	0.921883	0.444074	-0.895673	-0.023844	0.830272	0.401353	0.386735
61076	11.741367	-2.021638	0.468738	-2.853786	-1.362600	0.080204	-0.324976	-0.186967	0.927057	0.420459	-0.906618	-0.035455	0.847116	0.378268	0.373241
61077	11.411885	-2.287237	-0.346338	-2.706857	-0.882474	0.155455	-0.316784	-0.185159	0.930250	0.397866	-0.916245	-0.046883	0.861017	0.355263	0.363920
61078	9.779450	-3.375399	-1.124731	-2.400995	-0.528361	0.157001	-0.311531	-0.184806	0.932092	0.377611	-0.924206	-0.057034	0.871985	0.334200	0.357703
61079	8.088983	-4.638661	-2.040262	-2.015949	-0.490837	0.036852	-0.307070	-0.183568	0.933815	0.360086	-0.930684	-0.064544	0.880934	0.316435	0.351886
61080	7.849411	-5.228811	-2.428462	-1.502205	-0.712090	-0.113055	-0.301105	-0.180331	0.936385	0.346510	-0.935524	-0.068741	0.888407	0.303769	0.344178
61081	8.791844	-5.323541	-2.205384	-0.908709	-0.996852	-0.193105	-0.292852	-0.175551	0.939904	0.337870	-0.938584	-0.070032	0.894473	0.297057	0.334180
61082	10.418573	-4.935874	-1.900306	-0.297453	-1.157840	-0.189807	-0.283044	-0.170361	0.943856	0.334714	-0.939772	-0.069249	0.898806	0.296322	0.323019
61083	11.557561	-4.106771	-1.341686	0.225051	-1.157030	-0.126625	-0.273022	-0.165748	0.947622	0.336424	-0.939298	-0.067364	0.901264	0.300411	0.312211
61084	11.887869	-3.086407	-0.444554	0.666493	-1.011205	-0.031210	-0.263946	-0.162404	0.950767	0.342406	-0.937298	-0.065047	0.901715	0.308379	0.303004
61085	11.272895	-1.967775	0.453904	1.024138	-0.859972	0.061496	-0.255946	-0.160312	0.953306	0.351832	-0.933968	-0.062599	0.900392	0.319382	0.295448
61086	10.465623	-1.026197	1.558756	1.209364	-0.820103	0.143013	-0.247994	-0.158999	0.955625	0.363124	-0.929777	-0.060464	0.898131	0.332016	0.288315
61087	9.926101	-0.202118	2.372667	1.136864	-0.863276	0.206257	-0.239448	-0.158026	0.957963	0.373864	-0.925590	-0.059236	0.896041	0.343964	0.280711
61088	9.519519	0.505049	2.905385	0.847600	-0.906337	0.237121	-0.230369	-0.157081	0.960342	0.382067	-0.922237	-0.059197	0.894961	0.353277	0.272470
61089	9.175876	0.918908	3.238070	0.441562	-0.965440	0.221730	-0.220833	-0.155716	0.962801	0.386558	-0.920300	-0.060179	0.895436	0.358888	0.263425
61090	8.941418	0.772612	3.538094	0.019319	-1.047469	0.171494	-0.210711	-0.153548	0.965414	0.387155	-0.919940	-0.061815	0.897614	0.360740	0.253288
61091	8.991614	0.450934	3.537775	-0.350193	-1.095709	0.100207	-0.200430	-0.150554	0.968071	0.384248	-0.921031	-0.063684	0.901211	0.359215	0.242452
61092	9.157569	0.018029	3.348524	-0.672335	-1.102359	0.037946	-0.190257	-0.146993	0.970668	0.378301	-0.923350	-0.065678	0.905920	0.354708	0.231281
61093	9.106802	-0.619304	3.180241	-0.896071	-1.063229	-0.018227	-0.180626	-0.143118	0.973084	0.370161	-0.926508	-0.067557	0.911238	0.347995	0.220328
61094	9.003298	-1.145928	2.950417	-1.010071	-1.007715	-0.082666	-0.171650	-0.138907	0.975316	0.360836	-0.930076	-0.068959	0.916697	0.340093	0.209771
61095	8.828931	-1.382067	2.522759	-1.078294	-0.997702	-0.142661	-0.162946	-0.134259	0.977457	0.350718	-0.933876	-0.069807	0.922196	0.331437	0.199259
61096	8.822276	-1.486456	2.304038	-1.085001	-1.023632	-0.177772	-0.154026	-0.129273	0.979574	0.340454	-0.937636	-0.070206	0.927560	0.322686	0.188432
61097	8.706896	-1.759716	2.185355	-0.998443	-1.057464	-0.199822	-0.144824	-0.124059	0.981649	0.330904	-0.941056	-0.070111	0.932485	0.314678	0.177339
61098	8.725346	-1.891423	1.936737	-0.840189	-1.084106	-0.215793	-0.135331	-0.118676	0.983667	0.322802	-0.943914	-0.069470	0.936742	0.308128	0.166049
61099	8.909304	-1.790050	1.674037	-0.704666	-1.124766	-0.207155	-0.125397	-0.113319	0.985614	0.315951	-0.946292	-0.068600	0.940452	0.302804	0.154465
61100	9.009071	-1.324900	1.486094	-0.594282	-1.121510	-0.187218	-0.115351	-0.108201	0.987414	0.310180	-0.948266	-0.067675	0.943654	0.298469	0.142946
61101	8.885038	-0.966092	1.328471	-0.536158	-1.152697	-0.158123	-0.104905	-0.103320	0.989101	0.304971	-0.950010	-0.066891	0.946566	0.294630	0.131170
61102	8.833097	-0.729938	1.206960	-0.515703	-1.237220	-0.125220	-0.093489	-0.098535	0.990732	0.300010	-0.951627	-0.066335	0.949344	0.291028	0.118528
61103	9.072504	-0.700329	1.212247	-0.483121	-1.317261	-0.115462	-0.081272	-0.093663	0.992281	0.295348	-0.953123	-0.065776	0.951927	0.287723	0.105125
61104	9.317986	-0.738748	1.509686	-0.410273	-1.337454	-0.118859	-0.068808	-0.088727	0.993676	0.291400	-0.954388	-0.065041	0.954124	0.285082	0.091525
61105	9.561742	-1.032053	1.959290	-0.322344	-1.292338	-0.124463	-0.056789	-0.083908	0.994854	0.288274	-0.955398	-0.064124	0.955862	0.283149	0.078444
61106	9.743630	-0.932072	1.979563	-0.238416	-1.194033	-0.119650	-0.045645	-0.079419	0.995796	0.285982	-0.956152	-0.063149	0.957147	0.281897	0.066357
61107	9.751258	-0.541759	2.040395	-0.218245	-1.084468	-0.125796	-0.035581	-0.075207	0.996533	0.283871	-0.956851	-0.062077	0.958202	0.280678	0.055394
61108	9.479303	-0.464054	2.271782	-0.264492	-0.984552	-0.159574	-0.026527	-0.070954	0.997127	0.281334	-0.957690	-0.060664	0.959243	0.278917	0.045366
61109	9.177071	-0.975669	2.535620	-0.336743	-0.919875	-0.203877	-0.018231	-0.066489	0.997621	0.278085	-0.958754	-0.058817	0.960383	0.276351	0.035969
61110	9.280855	-1.562620	2.653426	-0.357870	-0.896786	-0.228102	-0.010178	-0.061865	0.998033	0.274662	-0.959868	-0.056698	0.961487	0.273544	0.026762
61111	9.588276	-1.562974	2.573951	-0.372999	-0.854106	-0.198505	-0.002468	-0.057679	0.998332	0.271087	-0.960991	-0.054851	0.962552	0.270500	0.018008
61112	9.533158	-1.268026	2.732655	-0.371614	-0.799529	-0.172765	0.004832	-0.053897	0.998535	0.267558	-0.962071	-0.053224	0.963530	0.267423	0.009772
61113	9.507351	-0.914592	3.038525	-0.457092	-0.778596	-0.188862	0.011871	-0.050058	0.998676	0.263192	-0.963372	-0.051417	0.964670	0.263454	0.001739
61114	9.410992	-0.665536	3.026694	-0.553256	-0.772585	-0.211855	0.018842	-0.046029	0.998762	0.257931	-0.964903	-0.049335	0.965980	0.258541	-0.006308
61115	9.258924	-0.448783	2.725732	-0.676163	-0.791470	-0.233723	0.025930	-0.041797	0.998790	0.251470	-0.966724	-0.046984	0.967518	0.252383	-0.014556
61116	9.274722	-0.221120	2.300303	-0.847674	-0.825692	-0.239495	0.033398	-0.037459	0.998740	0.243378	-0.968911	-0.044479	0.969356	0.244557	-0.023243
61117	9.326196	-0.048147	1.977107	-1.025121	-0.782410	-0.250956	0.040422	-0.033197	0.998631	0.233543	-0.971450	-0.041747	0.971506	0.234911	-0.031515
61118	9.333440	-0.151821	1.875202	-1.166229	-0.726832	-0.281059	0.046915	-0.028828	0.998483	0.222368	-0.974199	-0.038576	0.973833	0.223841	-0.039294
61119	9.280861	-0.559166	2.014359	-1.177242	-0.659655	-0.326820	0.052665	-0.024251	0.998318	0.211073	-0.976848	-0.034864	0.976050	0.212554	-0.046327
61120	9.418589	-1.087760	2.420111	-1.133544	-0.647531	-0.343359	0.058349	-0.019586	0.998104	0.200234	-0.979260	-0.030922	0.978009	0.201659	-0.053217
61121	9.776028	-1.983740	3.199906	-1.084178	-0.656909	-0.312370	0.064195	-0.015286	0.997820	0.189830	-0.981439	-0.027247	0.979716	0.191166	-0.060102
61122	10.559686	-2.575988	3.521021	-1.047137	-0.588192	-0.248268	0.069566	-0.011787	0.997508	0.179775	-0.983411	-0.024158	0.981245	0.181007	-0.066293
61123	11.087466	-2.198254	3.259055	-0.919782	-0.382411	-0.128930	0.073117	-0.009899	0.997274	0.170850	-0.985044	-0.022304	0.982580	0.172016	-0.070332
61124	10.592600	-1.979176	3.444686	-0.645334	-0.173735	-0.055611	0.074793	-0.009094	0.997158	0.164593	-0.986131	-0.021339	0.983522	0.165721	-0.072259
61125	9.905418	-2.474476	4.057500	-0.455065	-0.167906	-0.130375	0.076253	-0.007592	0.997060	0.160227	-0.986882	-0.019768	0.984130	0.161264	-0.074036
61126	11.558108	-2.742306	3.255941	-0.575695	-0.221617	-0.206465	0.078171	-0.005240	0.996926	0.154764	-0.987799	-0.017327	0.984854	0.155643	-0.076406
61127	14.065942	-1.589122	1.271602	-0.677746	0.079802	-0.156866	0.077163	-0.003872	0.997011	0.148219	-0.988836	-0.015312	0.985940	0.148957	-0.075728
61128	14.672241	-0.094019	-0.010711	-0.595025	0.558310	-0.075345	0.071607	-0.003980	0.997425	0.142450	-0.989701	-0.014176	0.987208	0.143098	-0.070302
61129	13.925514	0.900004	0.130896	-0.314312	0.921024	-0.026941	0.062486	-0.005079	0.998033	0.139374	-0.990144	-0.013765	0.988266	0.139960	-0.061163
61130	12.409122	1.161558	0.328421	-0.076625	1.115603	-0.049364	0.051449	-0.006186	0.998656	0.138691	-0.990247	-0.013279	0.988998	0.139188	-0.050089
61131	11.784099	1.093221	-0.095455	-0.133811	1.044218	-0.089953	0.041008	-0.006801	0.999136	0.137420	-0.990435	-0.012382	0.989664	0.137809	-0.039681
61132	12.157728	1.393374	-0.078265	-0.229574	0.994674	-0.111779	0.031069	-0.007092	0.999492	0.135235	-0.990750	-0.011234	0.990326	0.135515	-0.029822
61133	12.390367	1.483330	0.545631	-0.337447	1.086555	-0.125474	0.020150	-0.007361	0.999770	0.131936	-0.991208	-0.009957	0.991053	0.132107	-0.019001
61134	11.916909	1.029171	1.059607	-0.364591	1.294572	-0.146190	0.007186	-0.007637	0.999945	0.128390	-0.991687	-0.008497	0.991698	0.128444	-0.006145
61135	11.315189	0.281377	1.645118	-0.218984	1.470539	-0.182649	-0.007621	-0.007755	0.999941	0.126231	-0.991978	-0.006731	0.991972	0.126172	0.008539
61136	11.263076	-0.305778	2.030803	-0.079744	1.580483	-0.168412	-0.023450	-0.008110	0.999692	0.125463	-0.992085	-0.005106	0.991821	0.125305	0.024282
61137	11.610019	-0.638914	2.184115	0.014202	1.682373	-0.117216	-0.040269	-0.009111	0.999147	0.125580	-0.992075	-0.003985	0.991266	0.125313	0.041094
61138	12.005565	-0.839908	1.999171	0.113276	1.818169	-0.027461	-0.058257	-0.011165	0.998239	0.126740	-0.991929	-0.003698	0.990224	0.126302	0.059202
61139	12.002453	-0.648476	1.848736	0.286379	2.000809	0.063583	-0.077963	-0.014403	0.996852	0.129632	-0.991553	-0.004189	0.988493	0.128897	0.079171
61140	11.547835	-0.309544	1.644884	0.405659	2.093945	0.113261	-0.098427	-0.018303	0.994976	0.133790	-0.990997	-0.004995	0.986110	0.132626	0.099990
61141	11.514514	0.158144	1.353420	0.418633	2.092147	0.149864	-0.118817	-0.022655	0.992658	0.138091	-0.990401	-0.006074	0.983267	0.136355	0.120805
61142	11.152489	0.590604	0.900190	0.375735	2.072794	0.177983	-0.138856	-0.027315	0.989936	0.142063	-0.989830	-0.007386	0.980070	0.139608	0.141325
61143	10.470635	1.093892	0.423568	0.388901	2.047356	0.178988	-0.158619	-0.032029	0.986820	0.146152	-0.989225	-0.008615	0.976463	0.142859	0.161591
61144	9.792369	1.129779	0.354239	0.241786	1.854387	0.219984	-0.176310	-0.036908	0.983642	0.148933	-0.988793	-0.010407	0.973002	0.144662	0.179831
61145	10.815045	-0.156604	0.612376	0.009111	1.607156	0.265247	-0.191519	-0.041900	0.980594	0.149530	-0.988671	-0.013040	0.970032	0.144131	0.195615
61146	12.084644	-1.779909	0.773330	-0.048775	1.629146	0.329700	-0.206744	-0.047536	0.977240	0.149771	-0.988585	-0.016402	0.966864	0.142971	0.211503
61147	11.723381	-3.174727	0.345315	0.114175	1.788502	0.423096	-0.223353	-0.054325	0.973223	0.151805	-0.988201	-0.020322	0.962844	0.143201	0.228964
61148	10.812941	-3.675850	-0.213008	0.436962	1.844965	0.522396	-0.240205	-0.062195	0.968728	0.157271	-0.987254	-0.024388	0.957897	0.146494	0.246925
61149	10.070393	-3.194337	-0.383683	0.713413	1.821994	0.618794	-0.256594	-0.071072	0.963903	0.165648	-0.985771	-0.028589	0.952219	0.152332	0.264716
61150	9.314210	-2.381838	-0.603764	0.961752	1.752806	0.653960	-0.272052	-0.080291	0.958927	0.176563	-0.983760	-0.032279	0.945946	0.160530	0.281810
61151	9.181828	-1.700805	-0.867592	1.189662	1.703438	0.624183	-0.286948	-0.089297	0.953775	0.189550	-0.981253	-0.034842	0.939006	0.170790	0.298494
61152	9.184783	-1.429010	-0.915755	1.355054	1.702858	0.605427	-0.301621	-0.098273	0.948350	0.204064	-0.978278	-0.036472	0.931334	0.182523	0.315123
61153	9.811875	-1.448420	-0.694322	1.548499	1.675619	0.636566	-0.315785	-0.107710	0.942697	0.220417	-0.974683	-0.037529	0.922874	0.195936	0.331532
61154	10.079005	-1.389587	-0.496822	1.700167	1.735263	0.675669	-0.330108	-0.117842	0.936559	0.238270	-0.970450	-0.038124	0.913376	0.210569	0.348431
61155	9.878236	-1.440421	-0.384875	1.816955	1.812205	0.737232	-0.344714	-0.128983	0.929804	0.257292	-0.965564	-0.038555	0.902758	0.225941	0.366030
61156	9.205633	-1.427780	-0.348686	1.983865	1.854577	0.779060	-0.359201	-0.140860	0.922569	0.277888	-0.959847	-0.038356	0.890928	0.242594	0.383922
61157	8.598122	-1.336401	-0.001871	2.141309	1.826964	0.771171	-0.373107	-0.152879	0.915106	0.299690	-0.953316	-0.037073	0.878053	0.260416	0.401505
61158	8.179186	-0.929511	0.428861	2.210766	1.756416	0.713733	-0.386132	-0.164422	0.907671	0.321724	-0.946203	-0.034538	0.864521	0.278683	0.418258
61159	7.949097	-0.630460	0.908005	2.220683	1.681092	0.614986	-0.398473	-0.175100	0.900311	0.343219	-0.938754	-0.030670	0.850541	0.296783	0.434166
61160	7.668444	-0.274732	1.341300	2.216706	1.621808	0.516943	-0.410261	-0.184918	0.893024	0.364066	-0.931023	-0.025533	0.836147	0.314644	0.449285
61161	7.393865	0.241559	1.821439	2.196749	1.533027	0.424603	-0.421347	-0.193853	0.885939	0.384079	-0.923098	-0.019318	0.821553	0.332131	0.463399
61162	7.136950	0.830174	2.334375	2.135538	1.427188	0.332073	-0.431600	-0.201790	0.879206	0.402947	-0.915142	-0.012233	0.807066	0.348993	0.476285
61163	6.799701	1.460694	2.778402	2.020762	1.310491	0.257371	-0.440991	-0.208849	0.872874	0.420277	-0.907383	-0.004775	0.793028	0.364743	0.487923
61164	6.571249	1.946862	3.097163	1.850150	1.167473	0.195648	-0.449273	-0.214981	0.867143	0.435759	-0.900060	0.002628	0.779915	0.379046	0.498053
61165	6.471377	2.313813	3.344247	1.674403	1.006997	0.154267	-0.456351	-0.220278	0.862103	0.449455	-0.893250	0.009681	0.767941	0.391894	0.506641
61166	6.475220	2.500726	3.564897	1.505990	0.870611	0.121488	-0.462373	-0.224841	0.857705	0.461556	-0.886961	0.016306	0.757085	0.403418	0.513884
61167	6.384426	2.536144	3.696278	1.373494	0.777539	0.092738	-0.467756	-0.228866	0.853712	0.472355	-0.881119	0.022594	0.747051	0.413823	0.520254
61168	6.395531	2.728539	3.802981	1.248868	0.697228	0.065543	-0.472557	-0.232378	0.850112	0.481994	-0.875709	0.028554	0.737816	0.423242	0.525827
61169	6.622552	2.802162	3.891640	1.122009	0.637131	0.011297	-0.477145	-0.235223	0.846760	0.490315	-0.870867	0.034370	0.729331	0.431579	0.530863
61170	6.787313	2.923865	4.007026	0.989115	0.609034	-0.056579	-0.481780	-0.237399	0.843522	0.497277	-0.866664	0.040109	0.721529	0.438788	0.535594
61171	6.939950	3.004527	4.289476	0.930067	0.567401	-0.130390	-0.486476	-0.238800	0.840426	0.503358	-0.862842	0.046197	0.714123	0.445509	0.539953
61172	7.108030	3.124118	4.530267	0.881743	0.516551	-0.189078	-0.491041	-0.239505	0.837566	0.508758	-0.859304	0.052549	0.707138	0.451922	0.543804
61173	7.059212	3.041517	4.863259	0.822644	0.471060	-0.246959	-0.495591	-0.239545	0.834870	0.513365	-0.856133	0.059094	0.700604	0.457880	0.547266
61174	7.360096	2.798077	5.465014	0.753976	0.373336	-0.262730	-0.499488	-0.239034	0.832691	0.517376	-0.853255	0.065409	0.694863	0.463486	0.549861
61175	7.831776	2.518005	6.681982	0.657151	0.346328	-0.227560	-0.503040	-0.238722	0.830640	0.520819	-0.850716	0.070919	0.689709	0.468288	0.552275
61176	8.149432	2.261528	7.858977	0.405423	0.411303	-0.224159	-0.506976	-0.238762	0.828232	0.522532	-0.849314	0.075012	0.685519	0.470807	0.555342
61177	7.948770	1.980951	8.411043	-0.006871	0.500310	-0.208936	-0.511466	-0.239350	0.825297	0.521453	-0.849826	0.076700	0.683000	0.469583	0.559466
61178	7.475113	1.488806	8.604158	-0.382662	0.508701	-0.154254	-0.515679	-0.240429	0.822356	0.518106	-0.851950	0.075811	0.682379	0.465162	0.563900
61179	7.056371	1.036977	8.842642	-0.608848	0.453236	-0.069756	-0.519111	-0.241938	0.819750	0.513620	-0.854912	0.072937	0.683168	0.458902	0.568059
61180	6.890980	0.842807	8.974267	-0.721705	0.341969	-0.012278	-0.521452	-0.243405	0.817827	0.508677	-0.858195	0.068916	0.685081	0.451946	0.571322
61181	6.924265	0.826312	8.924844	-0.800541	0.292416	0.016247	-0.523357	-0.244867	0.816172	0.503298	-0.861725	0.064198	0.687596	0.444376	0.574231
61182	6.744312	0.875331	8.735637	-0.894993	0.293110	0.033602	-0.525148	-0.246464	0.814540	0.497365	-0.865549	0.058762	0.690541	0.435983	0.577124
61183	6.280946	0.822591	8.174309	-0.942120	0.276542	0.053499	-0.526780	-0.248134	0.812977	0.491156	-0.869465	0.052877	0.693735	0.427153	0.579890
61184	5.903255	0.162641	7.206425	-0.884806	0.184632	0.090435	-0.527562	-0.249720	0.811984	0.485538	-0.872951	0.046994	0.697087	0.419041	0.581785
61185	5.601526	-0.972066	6.069681	-0.629580	0.044133	0.148529	-0.527136	-0.251216	0.811799	0.481954	-0.875183	0.042123	0.699891	0.413454	0.582416
61186	5.519385	-1.904569	4.723656	-0.146466	-0.142359	0.248552	-0.524880	-0.252821	0.812762	0.482294	-0.875130	0.039243	0.701351	0.412588	0.581273
61187	5.528848	-1.918553	3.140387	0.375327	-0.345230	0.351896	-0.520738	-0.254481	0.814906	0.486796	-0.872664	0.038553	0.701328	0.416769	0.578310
61188	5.539094	-1.665752	1.229154	0.692925	-0.583318	0.416639	-0.514544	-0.255673	0.818460	0.493870	-0.868655	0.039130	0.700954	0.424347	0.573230
61189	5.567810	-1.521225	-0.653562	0.768923	-0.829777	0.446180	-0.506487	-0.255998	0.823369	0.501570	-0.864199	0.039843	0.701355	0.433157	0.566106
61190	5.445929	-1.133471	-1.911963	0.642791	-1.108216	0.417804	-0.496530	-0.254770	0.829789	0.508239	-0.860287	0.039987	0.703669	0.441586	0.556642
61191	5.357638	-0.696804	-2.351704	0.411803	-1.419682	0.359677	-0.484647	-0.251557	0.837757	0.512944	-0.857524	0.039248	0.708524	0.448744	0.544631
61192	6.009938	-0.016860	-2.211350	0.223265	-1.777588	0.267266	-0.470549	-0.245828	0.847439	0.515868	-0.855817	0.038183	0.715866	0.455133	0.529519
61193	7.654384	0.754401	-0.839256	0.175178	-2.046449	0.172318	-0.454894	-0.237939	0.858170	0.517961	-0.854577	0.037615	0.724422	0.461610	0.511985
61194	9.551141	0.922811	1.275548	0.362408	-1.995788	0.117339	-0.439692	-0.229664	0.868289	0.521181	-0.852581	0.038411	0.731465	0.469424	0.494570
61195	11.654369	1.325264	4.558985	0.678659	-1.760087	0.150221	-0.425965	-0.222611	0.876925	0.526844	-0.849001	0.040391	0.735519	0.479208	0.478926
61196	15.253827	2.118609	9.124529	1.067826	-1.641355	0.114765	-0.413208	-0.215625	0.884740	0.535243	-0.843531	0.044397	0.736732	0.491896	0.463965
61197	22.319224	3.867780	14.009669	1.755526	-1.105625	0.022475	-0.404938	-0.210296	0.889832	0.548259	-0.834676	0.052237	0.731736	0.509011	0.453289
61198	23.300410	5.894295	15.122262	2.490383	0.199718	0.280828	-0.404753	-0.213668	0.889113	0.567491	-0.821116	0.061013	0.717028	0.529259	0.453604
61199	14.504400	6.334487	14.786747	2.385542	0.480166	0.866370	-0.403127	-0.223313	0.887480	0.587940	-0.806356	0.064164	0.701295	0.547651	0.456358
61200	10.048705	4.376258	13.256962	1.839726	0.229357	1.067259	-0.398289	-0.233131	0.887139	0.605063	-0.793675	0.063079	0.689394	0.561898	0.457172
61201	8.356527	3.478619	7.765657	1.335089	0.093414	1.027720	-0.392624	-0.241771	0.887352	0.618301	-0.783643	0.060064	0.680845	0.572233	0.457164
61202	5.886737	5.168895	3.295357	0.517242	-0.043944	0.961666	-0.386279	-0.249034	0.888128	0.625612	-0.778273	0.053871	0.677790	0.576432	0.456428
61203	3.594086	6.258157	2.381931	-0.751960	-0.381984	0.690971	-0.379348	-0.252229	0.890211	0.623162	-0.780837	0.044311	0.683933	0.571555	0.453388
61204	3.494677	3.846734	2.974798	-2.088071	-0.663040	0.314973	-0.372754	-0.250970	0.893347	0.609956	-0.791786	0.032069	0.699291	0.556856	0.448222
61205	4.399359	0.447662	3.937740	-2.684317	-0.725665	0.093099	-0.367040	-0.247744	0.896607	0.591301	-0.806220	0.019290	0.718084	0.537245	0.442407
61206	5.876572	-1.746151	4.128469	-2.664271	-0.996975	0.057553	-0.359384	-0.242960	0.901007	0.572175	-0.820101	0.007080	0.737196	0.518078	0.433747
61207	8.193209	-2.280467	2.845637	-2.634348	-1.276317	0.075706	-0.349414	-0.237097	0.906474	0.552794	-0.833304	-0.004876	0.756524	0.499389	0.422234
61208	10.123266	-1.754223	0.929616	-2.818968	-1.247506	0.073547	-0.339388	-0.231626	0.911683	0.531497	-0.846883	-0.017305	0.776097	0.478684	0.410530
61209	10.638785	-1.780092	-0.677655	-2.903927	-0.993163	0.089309	-0.331109	-0.227756	0.915693	0.509019	-0.860235	-0.029904	0.794523	0.456204	0.400764
61210	9.970059	-2.740772	-1.713794	-2.717498	-0.761223	0.099376	-0.324437	-0.225243	0.918698	0.487589	-0.872080	-0.041622	0.810554	0.434444	0.392761
61211	9.005024	-3.827494	-2.397480	-2.421659	-0.671767	0.046696	-0.318704	-0.222816	0.921293	0.467977	-0.882240	-0.051483	0.824273	0.414736	0.385446
61212	8.614042	-4.756031	-2.819338	-1.995070	-0.770161	-0.080739	-0.312616	-0.218986	0.924293	0.451216	-0.890504	-0.058370	0.835868	0.398808	0.377195
61213	9.209566	-5.393905	-2.478115	-1.318055	-0.931652	-0.160874	-0.305479	-0.213900	0.927863	0.439680	-0.896025	-0.061805	0.844609	0.389083	0.367764
61214	10.381373	-5.601239	-1.675001	-0.454993	-1.054183	-0.139484	-0.297092	-0.208577	0.931790	0.435461	-0.898057	-0.062184	0.849771	0.387284	0.357633
61215	11.462934	-4.631057	-0.830799	0.396581	-0.996616	-0.051539	-0.288810	-0.204254	0.935344	0.438722	-0.896596	-0.060326	0.850948	0.392933	0.348556
61216	11.502144	-3.165055	0.141110	1.010194	-0.818739	0.036888	-0.281621	-0.201342	0.938164	0.447467	-0.892468	-0.057213	0.848801	0.403685	0.341432
61217	11.047246	-1.909943	1.310278	1.381074	-0.708650	0.098804	-0.275135	-0.199340	0.940513	0.459476	-0.886578	-0.053495	0.844501	0.417424	0.335521
61218	10.531142	-0.852312	2.075491	1.538231	-0.634958	0.167656	-0.268941	-0.198141	0.942555	0.472935	-0.879679	-0.049980	0.839049	0.432326	0.330290
61219	10.027759	-0.096962	2.710505	1.489649	-0.622057	0.228125	-0.262604	-0.197433	0.944489	0.486039	-0.872657	-0.047280	0.833549	0.446643	0.325124
61220	9.589217	0.394157	3.382165	1.264534	-0.699373	0.272735	-0.255381	-0.196653	0.946630	0.497312	-0.866362	-0.045814	0.829133	0.459070	0.319050
61221	9.458007	0.821657	3.812875	0.835660	-0.816921	0.301124	-0.247066	-0.195494	0.949074	0.505027	-0.861873	-0.046061	0.826986	0.467928	0.311669
61222	9.216628	0.917962	3.762333	0.319159	-0.903993	0.300063	-0.237999	-0.193840	0.951726	0.508447	-0.859756	-0.047961	0.827549	0.472488	0.303178
61223	8.983625	0.699906	3.592532	-0.192364	-0.990841	0.250084	-0.228472	-0.191331	0.954564	0.507474	-0.860160	-0.050947	0.830825	0.472776	0.293618
61224	8.874683	0.183003	3.170915	-0.630095	-1.059800	0.160034	-0.218761	-0.187732	0.957549	0.502631	-0.862793	-0.054324	0.836365	0.469410	0.283105
61225	8.860248	-0.456812	2.753790	-0.952546	-1.109334	0.045188	-0.209179	-0.182973	0.960607	0.494764	-0.867128	-0.057429	0.843477	0.463261	0.271913
61226	8.945192	-1.088853	2.285763	-1.171596	-1.158812	-0.056322	-0.199564	-0.177177	0.963734	0.484770	-0.872579	-0.060035	0.851570	0.455209	0.260025
61227	9.138643	-1.648528	2.004114	-1.302701	-1.202346	-0.122577	-0.189822	-0.170712	0.966864	0.473420	-0.878639	-0.062189	0.860140	0.445928	0.247603
61228	9.393988	-2.253322	1.625254	-1.340000	-1.244579	-0.158382	-0.179735	-0.163842	0.969975	0.461595	-0.884785	-0.063919	0.868692	0.436247	0.234655
61229	9.348081	-2.517086	1.256562	-1.189715	-1.240205	-0.178082	-0.169686	-0.156933	0.972923	0.450941	-0.890188	-0.064940	0.876275	0.427712	0.221820
61230	9.511860	-1.990748	0.998028	-0.936807	-1.259487	-0.164651	-0.159277	-0.150135	0.975751	0.442483	-0.894390	-0.065388	0.882519	0.421339	0.208888
61231	9.589878	-0.975624	0.918153	-0.736831	-1.227840	-0.127439	-0.148927	-0.143881	0.978325	0.435803	-0.897643	-0.065675	0.887635	0.416576	0.196387
61232	9.182168	-0.089402	1.360835	-0.624226	-1.200968	-0.111788	-0.138656	-0.137916	0.980690	0.430138	-0.900362	-0.065803	0.892051	0.412708	0.184163
61233	8.896452	-0.100466	2.053613	-0.578146	-1.243306	-0.129972	-0.128052	-0.131667	0.982988	0.424833	-0.902892	-0.065596	0.896169	0.409206	0.171554
61234	9.088483	-0.542810	2.255899	-0.511305	-1.270291	-0.126376	-0.117110	-0.125365	0.985175	0.420136	-0.905113	-0.065235	0.899873	0.406268	0.158668
61235	9.270211	-0.749771	2.221781	-0.433567	-1.206615	-0.080357	-0.106527	-0.119783	0.987068	0.416175	-0.906948	-0.065146	0.903023	0.403853	0.146465
61236	9.251120	-0.847169	2.270365	-0.390206	-1.161411	-0.034841	-0.096099	-0.114809	0.988728	0.412660	-0.908535	-0.065389	0.905802	0.401725	0.134686
61237	9.227272	-1.081682	2.276953	-0.359180	-1.108273	-0.019857	-0.086086	-0.110222	0.990172	0.409420	-0.909977	-0.065700	0.908276	0.399740	0.123464
61238	9.285202	-1.241911	2.242397	-0.328322	-1.048566	-0.026019	-0.076589	-0.105824	0.991431	0.406461	-0.911290	-0.065870	0.910452	0.397934	0.112808
61239	9.511194	-1.117337	2.167823	-0.315204	-0.959317	-0.044913	-0.067986	-0.101642	0.992495	0.403591	-0.912570	-0.065811	0.912410	0.396088	0.103064
61240	9.598443	-0.771222	2.189592	-0.380492	-0.856891	-0.068219	-0.060365	-0.097657	0.993388	0.400120	-0.914116	-0.065550	0.914473	0.393517	0.094255
61241	9.376772	-0.595265	2.158627	-0.488114	-0.790433	-0.091200	-0.053449	-0.093764	0.994159	0.395632	-0.916097	-0.065131	0.916852	0.389840	0.086061
61242	9.054446	-0.610831	2.090389	-0.626077	-0.774708	-0.144030	-0.046833	-0.089463	0.994888	0.389858	-0.918630	-0.064254	0.919683	0.384856	0.077900
61243	8.855179	-0.765890	1.879185	-0.799272	-0.825329	-0.202431	-0.039971	-0.084490	0.995622	0.382439	-0.921839	-0.062875	0.923116	0.378252	0.069159
61244	8.836541	-1.061124	1.630839	-0.956675	-0.917334	-0.234227	-0.032303	-0.078916	0.996358	0.373552	-0.925588	-0.061200	0.927047	0.370214	0.059378
61245	9.010900	-1.202779	1.175598	-1.062809	-1.027922	-0.251333	-0.023640	-0.072867	0.997061	0.363638	-0.929650	-0.059319	0.931240	0.361167	0.048474
61246	9.257139	-1.315785	0.936261	-1.100031	-1.112909	-0.280176	-0.014190	-0.066313	0.997698	0.353365	-0.933745	-0.057037	0.935378	0.351742	0.036683
61247	9.536138	-1.369411	0.748762	-1.066930	-1.179813	-0.304825	-0.004156	-0.059409	0.998225	0.343368	-0.937626	-0.054373	0.939192	0.342533	0.024296
61248	9.610422	-1.603152	0.791473	-0.973342	-1.225400	-0.317922	0.006363	-0.052302	0.998611	0.334260	-0.941077	-0.051418	0.942459	0.334123	0.011494
61249	9.712863	-1.983874	1.290229	-0.812098	-1.250802	-0.314149	0.017166	-0.045252	0.998828	0.326664	-0.943902	-0.048378	0.944985	0.327111	-0.001421
61250	9.908295	-2.172726	1.446916	-0.650381	-1.217268	-0.266164	0.027886	-0.038815	0.998857	0.320617	-0.946105	-0.045716	0.946798	0.321526	-0.013938
61251	9.824119	-1.853816	1.886666	-0.462839	-1.113060	-0.204750	0.037815	-0.033369	0.998727	0.316329	-0.947645	-0.043640	0.947896	0.317576	-0.025280
61252	9.609531	-1.384498	2.306658	-0.371626	-0.993203	-0.166913	0.046774	-0.028675	0.998494	0.312920	-0.948854	-0.041908	0.948627	0.314409	-0.035409
61253	9.881906	-0.991038	2.706589	-0.306610	-0.846215	-0.166375	0.054321	-0.024498	0.998223	0.310122	-0.949847	-0.040187	0.949144	0.311754	-0.043999
61254	10.080327	-0.711557	3.187131	-0.270453	-0.664592	-0.143614	0.060253	-0.021097	0.997960	0.307681	-0.950703	-0.038674	0.949580	0.309383	-0.050791
61255	10.006457	-0.637871	3.942320	-0.326160	-0.534094	-0.111341	0.065018	-0.018447	0.997714	0.304678	-0.951719	-0.037452	0.950234	0.306416	-0.056258
61256	10.148155	-0.957752	4.592327	-0.483386	-0.460805	-0.106923	0.069142	-0.016055	0.997478	0.300197	-0.953192	-0.036150	0.951368	0.301939	-0.061086
61257	10.477008	-1.169090	4.926359	-0.655101	-0.309349	-0.086447	0.071859	-0.014361	0.997311	0.294043	-0.955153	-0.034941	0.953087	0.295763	-0.064413
61258	10.372505	-0.447386	4.807417	-0.761807	-0.146567	-0.052845	0.073169	-0.013456	0.997229	0.286856	-0.957371	-0.033966	0.955175	0.288547	-0.066190
61259	9.564460	0.695271	4.071733	-0.828510	-0.036775	-0.080251	0.073306	-0.012659	0.997229	0.278502	-0.959880	-0.032657	0.957634	0.280124	-0.066839
61260	8.641898	0.434997	2.597807	-1.057968	-0.160775	-0.265594	0.074186	-0.009693	0.997197	0.268595	-0.962806	-0.029341	0.960392	0.270019	-0.068823
61261	9.615490	-0.908649	0.849304	-1.339767	-0.410779	-0.480571	0.076888	-0.004056	0.997031	0.255532	-0.966512	-0.023638	0.963738	0.256591	-0.073277
61262	12.226922	-1.780268	-0.774764	-1.530391	-0.444094	-0.523139	0.079940	0.002085	0.996797	0.241211	-0.970318	-0.017314	0.967175	0.241823	-0.078071
61263	14.379826	-1.496594	-1.814915	-1.338944	-0.126523	-0.434855	0.080162	0.006525	0.996761	0.228095	-0.973565	-0.011971	0.970333	0.228315	-0.079531
61264	15.174541	-0.525543	-2.057720	-0.869646	0.222862	-0.276898	0.077440	0.008691	0.996959	0.219910	-0.975483	-0.008578	0.972442	0.219905	-0.077452
61265	14.180965	-0.071035	-1.295751	-0.418790	0.472003	-0.167606	0.072500	0.009216	0.997326	0.215483	-0.976485	-0.006641	0.973813	0.215388	-0.072782
61266	12.725493	-0.353368	-0.347897	-0.165675	0.548065	-0.160388	0.066880	0.009573	0.997715	0.214025	-0.976815	-0.004974	0.974536	0.213869	-0.067378
61267	11.945941	-0.774920	-0.222422	-0.180378	0.511079	-0.214399	0.061460	0.010504	0.998054	0.211980	-0.977270	-0.002768	0.975340	0.211738	-0.062289
61268	12.158497	-0.692569	0.297925	-0.186754	0.512130	-0.231923	0.056036	0.011657	0.998361	0.210340	-0.977628	-0.000391	0.976021	0.210017	-0.057234
61269	11.924756	-0.178968	1.386831	-0.013878	0.737098	-0.199901	0.048440	0.011993	0.998754	0.209852	-0.977732	0.001563	0.976532	0.209515	-0.049878
61270	10.809917	0.432073	2.270580	0.196600	1.005209	-0.154992	0.038359	0.011358	0.999199	0.211886	-0.977290	0.002975	0.976541	0.211602	-0.039895
61271	9.847829	0.892666	2.823627	0.387971	1.212144	-0.154128	0.026212	0.010216	0.999604	0.215304	-0.976537	0.004334	0.976195	0.215106	-0.027797
61272	9.260301	1.183241	3.448325	0.457730	1.372633	-0.184944	0.012478	0.009003	0.999882	0.219854	-0.975514	0.006040	0.975453	0.219753	-0.014152
61273	9.438496	1.145098	3.827048	0.425029	1.544405	-0.204040	-0.003021	0.007522	0.999967	0.223579	-0.974653	0.008007	0.974681	0.223595	0.001263
61274	10.083772	0.916286	3.674333	0.334979	1.739528	-0.178778	-0.020307	0.005311	0.999780	0.226870	-0.973876	0.009782	0.973713	0.227018	0.018572
61275	10.563536	0.622584	3.333220	0.268210	1.944239	-0.138732	-0.039538	0.002200	0.999216	0.228974	-0.973368	0.011204	0.972629	0.229237	0.037981
61276	10.995694	0.627554	2.844530	0.274151	2.133839	-0.108403	-0.060461	-0.001698	0.998169	0.231634	-0.972724	0.012376	0.970922	0.231958	0.059205
61277	11.159912	0.810101	2.333365	0.294821	2.251785	-0.068275	-0.082458	-0.006290	0.996575	0.234005	-0.972145	0.013226	0.968732	0.234294	0.081633
61278	11.306995	0.952807	1.835915	0.271153	2.304169	-0.049645	-0.104802	-0.011267	0.994429	0.236634	-0.971499	0.013931	0.965930	0.236775	0.104481
61279	11.357176	1.043015	1.421258	0.200641	2.326673	-0.023765	-0.127291	-0.016620	0.991726	0.238561	-0.971022	0.014347	0.962749	0.238413	0.127568
61280	11.169918	1.428838	1.127115	0.075857	2.264637	-0.038151	-0.149085	-0.021685	0.988587	0.239291	-0.970835	0.014791	0.959434	0.238765	0.149927
61281	10.911027	1.515475	0.654603	-0.091779	2.134547	-0.025416	-0.169588	-0.026574	0.985157	0.238394	-0.971055	0.014845	0.956247	0.237372	0.171014
61282	10.545138	1.145289	0.148683	-0.245843	1.980323	0.038591	-0.188342	-0.031653	0.981593	0.236171	-0.971611	0.013984	0.953284	0.234457	0.190470
61283	11.465519	0.133558	0.210714	-0.384731	1.729089	0.148616	-0.204450	-0.037165	0.978171	0.232824	-0.972448	0.011716	0.950786	0.230137	0.207470
61284	12.828541	-1.029837	0.347969	-0.456959	1.706126	0.257328	-0.219994	-0.043584	0.974527	0.229088	-0.973371	0.008183	0.948220	0.225052	0.224120
61285	13.191024	-2.713600	0.067191	-0.421487	1.803273	0.343306	-0.236277	-0.050992	0.970347	0.225908	-0.974141	0.003816	0.945060	0.220111	0.241687
61286	12.501874	-3.935553	-0.336390	-0.199432	1.913592	0.463100	-0.253216	-0.059721	0.965565	0.225219	-0.974308	-0.001199	0.940829	0.217159	0.260160
61287	11.303561	-4.034593	-0.716072	0.138998	1.906556	0.558629	-0.269827	-0.069358	0.960408	0.228014	-0.973638	-0.006253	0.935523	0.217299	0.278528
61288	10.182006	-3.451619	-1.189504	0.540853	1.828541	0.596242	-0.285435	-0.079201	0.955120	0.234771	-0.971995	-0.010440	0.929198	0.221254	0.296035
61289	10.175054	-2.614389	-1.500004	1.008123	1.742593	0.586887	-0.300136	-0.088883	0.949746	0.245852	-0.969220	-0.013012	0.921670	0.229592	0.312750
61290	9.925708	-1.825097	-1.348928	1.444849	1.814413	0.592893	-0.315212	-0.098927	0.943851	0.260986	-0.965241	-0.014009	0.912429	0.241916	0.330074
61291	9.914514	-1.520784	-1.054379	1.812238	1.877802	0.633053	-0.330512	-0.109766	0.937397	0.279503	-0.960045	-0.013869	0.901465	0.257422	0.347986
61292	9.672026	-1.241785	-0.659460	2.064831	1.956337	0.688058	-0.345969	-0.121589	0.930334	0.300376	-0.953733	-0.012944	0.888865	0.274971	0.366484
61293	9.046952	-1.082306	-0.309085	2.231086	1.994431	0.734502	-0.361244	-0.134292	0.922750	0.322688	-0.946437	-0.011411	0.874857	0.293638	0.385229
61294	8.322007	-0.990602	-0.026944	2.372731	1.983298	0.731614	-0.375937	-0.147233	0.914874	0.346023	-0.938185	-0.008797	0.859616	0.313260	0.403644
61295	7.650435	-0.588122	0.357917	2.443649	1.905575	0.660223	-0.389774	-0.159608	0.906974	0.369403	-0.929257	-0.004778	0.843574	0.333176	0.421160
61296	7.199124	-0.009371	0.703924	2.411501	1.780781	0.546848	-0.402509	-0.170796	0.899342	0.391777	-0.920060	0.000613	0.827343	0.352588	0.437246
61297	6.879674	0.771890	1.039313	2.255852	1.620435	0.420399	-0.414067	-0.180550	0.892160	0.412022	-0.911148	0.006834	0.811656	0.370420	0.451667
61298	6.673493	1.338657	1.439629	1.977188	1.487760	0.311099	-0.424663	-0.189019	0.885400	0.429291	-0.903071	0.013109	0.797101	0.385661	0.464645
61299	6.588944	1.789927	1.781640	1.649400	1.315273	0.205721	-0.434132	-0.196066	0.879254	0.443257	-0.896193	0.019016	0.784253	0.397991	0.475973
61300	6.742665	2.138170	2.203246	1.298892	1.136801	0.121190	-0.442379	-0.201746	0.873842	0.453964	-0.890692	0.024181	0.773445	0.407390	0.485609
61301	6.878678	2.285979	2.585208	0.963814	0.974036	0.063344	-0.449547	-0.206347	0.869096	0.461700	-0.886584	0.028318	0.764684	0.413992	0.493832
61302	7.059516	2.068257	3.004953	0.708368	0.822282	0.050507	-0.455509	-0.210236	0.865051	0.467379	-0.883500	0.031387	0.757674	0.418603	0.500702
61303	7.265241	1.665197	3.358224	0.577237	0.679111	0.073491	-0.460256	-0.213775	0.861664	0.472113	-0.880896	0.033632	0.751847	0.422282	0.506363
61304	7.490918	1.373118	3.767571	0.554159	0.581823	0.113377	-0.464014	-0.217257	0.858772	0.476847	-0.878271	0.035461	0.746530	0.425958	0.511129
61305	7.670620	1.101503	4.174102	0.607453	0.516757	0.181902	-0.466953	-0.221097	0.856196	0.482253	-0.875250	0.036995	0.741206	0.430178	0.515325
61306	7.544212	0.866830	4.537131	0.735215	0.489676	0.251306	-0.469285	-0.225428	0.853788	0.488916	-0.871475	0.038635	0.735345	0.435561	0.519186
61307	7.396909	0.655307	4.874106	0.905502	0.465605	0.303355	-0.471165	-0.230140	0.851492	0.497012	-0.866787	0.040743	0.728685	0.442398	0.522782
61308	7.613400	0.742849	5.287452	1.110619	0.477868	0.343209	-0.472844	-0.235255	0.849161	0.506739	-0.860995	0.043637	0.720857	0.450936	0.526329
61309	7.703147	0.985931	5.681829	1.259961	0.536379	0.361309	-0.474804	-0.240827	0.846501	0.517517	-0.854370	0.047210	0.711855	0.460494	0.530290
61310	7.636299	1.445691	6.081900	1.352473	0.598434	0.342900	-0.477178	-0.246545	0.843515	0.528767	-0.847203	0.051501	0.701931	0.470598	0.534631
61311	7.508793	2.019391	6.402678	1.389581	0.661920	0.283856	-0.480241	-0.252114	0.840123	0.539845	-0.839862	0.056556	0.691329	0.480697	0.539439
61312	7.338908	2.718422	6.769507	1.370466	0.688520	0.220756	-0.483698	-0.257316	0.836555	0.550366	-0.832609	0.062120	0.680539	0.490459	0.544350
61313	7.107710	3.067040	6.905837	1.297639	0.694484	0.166169	-0.487437	-0.262155	0.832875	0.559973	-0.825731	0.067816	0.669952	0.499443	0.549291
61314	6.934846	3.177867	7.142186	1.196240	0.655507	0.092080	-0.491214	-0.266224	0.829357	0.568433	-0.819427	0.073637	0.659994	0.507606	0.553845
61315	7.113684	2.901690	7.589271	1.028606	0.607359	0.021197	-0.495049	-0.269520	0.826006	0.575316	-0.814090	0.079172	0.651105	0.514409	0.558074
61316	7.428009	2.868203	7.754042	0.837036	0.607087	-0.035992	-0.499124	-0.272376	0.822609	0.580610	-0.809822	0.084147	0.643248	0.519615	0.562346
61317	7.543898	3.008926	7.420324	0.584718	0.565277	-0.051581	-0.503021	-0.274922	0.819382	0.584128	-0.806892	0.087866	0.636997	0.522823	0.566473
61318	7.286429	3.221447	6.753380	0.316742	0.495119	-0.058725	-0.506446	-0.277050	0.816551	0.585897	-0.805357	0.090137	0.632643	0.524064	0.570193
61319	6.859515	3.177551	6.297637	0.037744	0.411512	-0.081229	-0.509501	-0.278565	0.814131	0.585755	-0.805362	0.091014	0.630317	0.523253	0.573504
61320	6.488888	2.859744	6.083805	-0.212619	0.357856	-0.093468	-0.512241	-0.279689	0.812024	0.583993	-0.806694	0.090542	0.629731	0.520595	0.576558
61321	6.040163	2.439714	5.941494	-0.451009	0.318417	-0.068078	-0.514628	-0.280802	0.810129	0.580833	-0.809199	0.088489	0.630707	0.516088	0.579535
61322	5.573965	1.735506	5.454492	-0.674777	0.160252	-0.003326	-0.515599	-0.281607	0.809231	0.576604	-0.812633	0.084590	0.633786	0.510221	0.581369
61323	5.414634	0.898999	4.708335	-0.828932	-0.064319	0.048433	-0.514896	-0.281689	0.809650	0.571611	-0.816676	0.079382	0.638860	0.503678	0.581520
61324	5.543496	0.175692	3.896127	-0.888229	-0.290766	0.073800	-0.512548	-0.280849	0.811430	0.566342	-0.820876	0.073617	0.645408	0.497279	0.579795
61325	5.827902	-0.203939	3.217996	-0.869399	-0.440492	0.102937	-0.509094	-0.279533	0.814054	0.561258	-0.824863	0.067756	0.652543	0.491388	0.576823
61326	5.654113	-0.198435	2.687783	-0.832473	-0.556080	0.114337	-0.504744	-0.277772	0.817359	0.556430	-0.828576	0.062028	0.660014	0.486112	0.572780
61327	5.368666	-0.202917	2.096909	-0.749242	-0.728130	0.098180	-0.499350	-0.275079	0.821572	0.551982	-0.831908	0.056953	0.667806	0.481933	0.567252
61328	5.295710	-0.148228	1.482360	-0.599577	-0.946741	0.060192	-0.492596	-0.271042	0.826973	0.548309	-0.834590	0.053068	0.675800	0.479578	0.559731
61329	5.471770	-0.089448	0.764173	-0.388493	-1.152423	0.032913	-0.484565	-0.265808	0.833392	0.545864	-0.836342	0.050637	0.683541	0.479456	0.550358
61330	5.585798	-0.065331	0.621387	-0.155927	-1.331031	-0.012013	-0.475422	-0.259324	0.840669	0.544791	-0.837087	0.049876	0.690780	0.481701	0.539247
61331	6.511261	0.559406	1.700055	0.113764	-1.526306	-0.074238	-0.465212	-0.251331	0.848770	0.545268	-0.836703	0.051105	0.697324	0.486581	0.526287
61332	7.905281	1.228918	3.876504	0.416174	-1.591201	-0.142439	-0.454791	-0.242350	0.856990	0.547581	-0.834978	0.054467	0.702367	0.494042	0.512447
61333	9.098704	1.414122	5.678727	0.649107	-1.567152	-0.141051	-0.444510	-0.233377	0.864839	0.551553	-0.832054	0.058957	0.705833	0.503211	0.498576
61334	10.840294	2.287430	6.604328	0.635381	-1.655002	-0.072967	-0.433137	-0.224378	0.872953	0.555785	-0.828959	0.062696	0.709574	0.512330	0.483759
61335	14.470030	3.688721	8.958448	0.229372	-1.817069	-0.123614	-0.420851	-0.214006	0.881525	0.556927	-0.828025	0.064866	0.716043	0.518243	0.467661
61336	20.144197	4.148100	13.022321	-0.201148	-1.457183	-0.260030	-0.411745	-0.204299	0.888104	0.554452	-0.829577	0.066220	0.723222	0.519676	0.454848
61337	21.703141	2.141287	15.835341	-0.233996	-0.227873	0.032049	-0.409898	-0.203397	0.889164	0.552922	-0.830704	0.064869	0.725438	0.518228	0.452966
61338	14.485020	-0.253779	14.034313	0.164709	0.417101	0.697014	-0.408985	-0.211352	0.887728	0.557023	-0.828370	0.059407	0.722811	0.518782	0.456519
61339	9.897657	-0.858288	11.351744	0.632781	0.144646	1.042032	-0.404193	-0.220665	0.887657	0.565742	-0.822874	0.053049	0.718724	0.523627	0.457439
61340	8.743191	1.136707	6.516479	1.084395	0.133885	1.136253	-0.398587	-0.230684	0.887645	0.578114	-0.814548	0.047908	0.711978	0.532255	0.458030
61341	6.307740	4.319069	2.934187	0.851111	0.112285	1.023799	-0.393439	-0.239536	0.887597	0.588106	-0.807655	0.042724	0.706638	0.538810	0.458636
61342	4.105198	5.901607	1.937499	-0.068147	-0.283658	0.627019	-0.387673	-0.243076	0.889170	0.590126	-0.806471	0.036823	0.708139	0.538998	0.456093
61343	4.500318	5.285349	0.727835	-1.549316	-0.665492	0.086875	-0.382451	-0.240163	0.892218	0.579277	-0.814613	0.029035	0.719840	0.527946	0.450670
61344	6.098752	3.108891	0.109770	-2.605447	-0.733316	-0.215522	-0.378268	-0.234602	0.895475	0.559525	-0.828589	0.019277	0.737458	0.508333	0.444695
61345	7.037464	0.600001	0.642093	-2.697908	-0.950315	-0.263204	-0.372642	-0.227622	0.899626	0.538309	-0.842691	0.009761	0.755885	0.487914	0.436553
61346	8.669032	-0.616410	0.627217	-2.622855	-1.445631	-0.253766	-0.362849	-0.218564	0.905854	0.517352	-0.855773	0.000750	0.775041	0.468917	0.423590
61347	10.838600	-0.913410	-0.547384	-2.861305	-1.668041	-0.228864	-0.350921	-0.208912	0.912804	0.494000	-0.869414	-0.009067	0.795499	0.447744	0.408298
61348	11.936340	-1.415179	-1.732275	-2.947436	-1.552427	-0.123152	-0.338946	-0.201074	0.919067	0.469894	-0.882501	-0.019780	0.815055	0.425160	0.393604
61349	11.980496	-2.591523	-2.155337	-2.705490	-1.292454	0.040420	-0.328119	-0.196063	0.924066	0.447714	-0.893652	-0.030635	0.831799	0.403665	0.381004
61350	11.170238	-4.003783	-2.517922	-2.225522	-1.054130	0.125597	-0.318664	-0.193050	0.928000	0.429517	-0.902164	-0.040184	0.844966	0.385787	0.370406
61351	10.267633	-5.232103	-2.436453	-1.593105	-0.900147	0.119906	-0.310495	-0.190724	0.931245	0.416351	-0.907981	-0.047139	0.854543	0.373089	0.361331
61352	9.338402	-5.946810	-1.788143	-0.774253	-0.862716	0.069196	-0.302746	-0.188179	0.934309	0.409981	-0.910691	-0.050575	0.860384	0.367738	0.352858
61353	9.461187	-5.831305	-0.925138	0.084427	-0.954786	0.036837	-0.294343	-0.185008	0.937622	0.410831	-0.910304	-0.050648	0.862891	0.370296	0.343948
61354	10.120419	-4.575583	-0.053055	0.824969	-0.966983	0.072307	-0.285636	-0.182061	0.940886	0.418212	-0.907051	-0.048552	0.862270	0.379622	0.335227
61355	10.482762	-2.710361	0.765001	1.312487	-0.879707	0.154511	-0.277375	-0.180084	0.943733	0.429968	-0.901687	-0.045688	0.859180	0.393103	0.327536
61356	10.572035	-0.999545	1.504582	1.544246	-0.778875	0.220263	-0.269672	-0.178961	0.946176	0.443858	-0.895075	-0.042791	0.854557	0.408428	0.320810
61357	9.867024	0.458288	2.355107	1.581722	-0.663395	0.286080	-0.262697	-0.178768	0.948173	0.458096	-0.887979	-0.040501	0.849199	0.423715	0.315162
61358	9.311868	1.322025	3.378518	1.430874	-0.696122	0.330495	-0.255199	-0.178711	0.950229	0.471122	-0.881196	-0.039201	0.844344	0.437670	0.309076
61359	9.333931	1.659514	4.113390	1.043095	-0.780331	0.349584	-0.246921	-0.178346	0.952482	0.480810	-0.875941	-0.039369	0.841339	0.448242	0.302039
61360	9.408710	1.623629	4.470712	0.534864	-0.775466	0.345118	-0.238663	-0.177880	0.954672	0.486199	-0.872881	-0.041093	0.840625	0.454353	0.294810
61361	9.049897	1.353043	4.505177	-0.009665	-0.763191	0.337723	-0.230561	-0.177374	0.956755	0.486933	-0.872311	-0.044376	0.842459	0.455644	0.287490
61362	8.661092	0.843105	4.319980	-0.492852	-0.790306	0.279827	-0.222461	-0.176243	0.958879	0.483457	-0.874025	-0.048484	0.846629	0.452791	0.279642
61363	8.707216	-0.186701	4.198388	-0.846084	-0.811707	0.185831	-0.214640	-0.174238	0.961026	0.476694	-0.877493	-0.052626	0.852463	0.446819	0.271403
61364	8.717358	-1.101783	4.018078	-1.022497	-0.784861	0.078930	-0.207483	-0.171472	0.963093	0.468163	-0.881857	-0.056150	0.858938	0.439234	0.263247
61365	8.688490	-2.017552	3.694138	-1.082118	-0.775606	-0.007734	-0.200800	-0.168047	0.965111	0.458829	-0.886570	-0.058908	0.865538	0.430992	0.255129
61366	8.625913	-2.531545	3.394453	-1.022418	-0.783411	-0.065719	-0.194226	-0.164135	0.967128	0.449870	-0.891017	-0.060872	0.871719	0.423258	0.246898
61367	8.717480	-2.747988	3.082426	-0.895731	-0.787908	-0.091438	-0.187709	-0.160039	0.969099	0.441895	-0.894908	-0.062194	0.877208	0.416566	0.238703
61368	8.928126	-2.686464	2.687022	-0.738852	-0.755168	-0.097831	-0.181429	-0.156056	0.970943	0.435268	-0.898093	-0.063014	0.881831	0.411188	0.230866
61369	8.972612	-2.732642	2.460279	-0.550177	-0.706576	-0.081340	-0.175503	-0.152463	0.972601	0.430286	-0.900456	-0.063510	0.885468	0.407350	0.223636
61370	9.047021	-2.435733	2.217791	-0.385818	-0.694703	-0.075409	-0.169598	-0.148982	0.974187	0.426785	-0.902110	-0.063659	0.888308	0.404972	0.216579
61371	9.181071	-1.805007	1.797700	-0.302008	-0.665943	-0.071629	-0.163940	-0.145684	0.975654	0.424029	-0.903410	-0.063647	0.890687	0.403271	0.209879
61372	9.122463	-1.255324	1.483831	-0.281413	-0.679155	-0.085329	-0.158176	-0.142199	0.977118	0.421433	-0.904639	-0.063430	0.892958	0.401757	0.203019
61373	9.185797	-0.908040	1.446849	-0.297549	-0.726513	-0.109958	-0.152101	-0.138333	0.978636	0.418655	-0.905958	-0.062992	0.895318	0.400130	0.195711
61374	9.318316	-0.607803	1.429383	-0.336951	-0.803426	-0.137028	-0.145401	-0.133904	0.980269	0.415481	-0.907464	-0.062331	0.897905	0.398220	0.187581
61375	9.515585	-0.391479	1.469173	-0.396124	-0.866549	-0.150190	-0.138187	-0.129143	0.981950	0.411764	-0.909204	-0.061629	0.900752	0.395815	0.178817
61376	9.566693	-0.365895	1.460111	-0.460639	-0.923712	-0.171566	-0.130488	-0.123960	0.983670	0.407428	-0.911212	-0.060782	0.903867	0.392843	0.169407
61377	9.428113	-0.427651	1.449698	-0.556743	-0.981836	-0.170059	-0.122241	-0.118616	0.985387	0.402239	-0.913562	-0.060071	0.907337	0.389018	0.159387
61378	9.358641	-0.779646	1.474755	-0.627597	-1.047249	-0.159916	-0.113291	-0.113124	0.987101	0.396395	-0.916150	-0.059498	0.911063	0.384541	0.148633
61379	9.342286	-1.038541	1.702778	-0.623553	-1.091406	-0.167353	-0.103945	-0.107461	0.988761	0.390578	-0.918691	-0.058786	0.914683	0.380078	0.137465
61380	9.357234	-1.201254	2.064711	-0.562298	-1.113265	-0.160868	-0.094300	-0.101794	0.990326	0.385316	-0.920962	-0.057974	0.917954	0.376121	0.126070
61381	9.284091	-1.217216	2.426090	-0.472886	-1.110425	-0.156760	-0.084650	-0.096238	0.991752	0.380897	-0.922856	-0.057041	0.920734	0.372927	0.114776
61382	9.195371	-1.278489	2.914288	-0.385324	-1.116829	-0.149867	-0.074854	-0.090725	0.993059	0.377274	-0.924406	-0.056015	0.923071	0.370463	0.103424
61383	9.122555	-1.588011	3.305857	-0.346519	-1.117506	-0.143371	-0.065021	-0.085325	0.994229	0.374082	-0.925764	-0.054985	0.925113	0.368348	0.092113
61384	9.234036	-1.692352	3.462302	-0.313523	-1.098658	-0.135380	-0.055284	-0.080058	0.995256	0.371146	-0.927006	-0.053952	0.926927	0.366402	0.080962
61385	9.323325	-1.409124	3.403673	-0.333699	-1.042510	-0.134931	-0.046070	-0.075052	0.996115	0.368072	-0.928290	-0.052919	0.928655	0.364204	0.070391
61386	9.201101	-1.102717	3.450426	-0.395347	-0.988238	-0.162407	-0.037411	-0.069982	0.996846	0.364377	-0.929821	-0.051602	0.930500	0.361297	0.060286
61387	9.108336	-0.838694	3.203863	-0.493534	-0.935865	-0.202190	-0.029387	-0.064793	0.997466	0.359809	-0.931690	-0.049920	0.932563	0.357430	0.050693
61388	9.070929	-0.538585	2.765433	-0.613774	-0.903532	-0.253846	-0.021790	-0.059243	0.998006	0.354060	-0.934005	-0.047713	0.934969	0.352314	0.041327
61389	9.431462	-0.002457	2.518152	-0.755829	-0.894442	-0.316454	-0.014488	-0.053219	0.998478	0.347040	-0.936775	-0.044895	0.937738	0.345862	0.032041
61390	9.819867	0.466652	2.511592	-0.908208	-0.819012	-0.388153	-0.008059	-0.046802	0.998872	0.338512	-0.940055	-0.041315	0.940927	0.337797	0.023418
61391	9.379854	0.763173	2.736296	-1.065501	-0.701510	-0.413628	-0.002792	-0.040630	0.999170	0.328576	-0.943735	-0.037457	0.944474	0.328198	0.015985
61392	8.678721	0.614053	2.647038	-1.242043	-0.672916	-0.442414	0.002215	-0.034302	0.999409	0.316865	-0.947888	-0.033236	0.948468	0.316751	0.008769
61393	8.260711	-0.111662	2.606831	-1.406812	-0.755176	-0.491614	0.007896	-0.027347	0.999595	0.303643	-0.952361	-0.028454	0.952753	0.303744	0.000784
61394	8.583058	-1.218421	2.698916	-1.490052	-0.867287	-0.537896	0.014648	-0.019667	0.999699	0.289521	-0.956894	-0.023067	0.957060	0.289772	-0.008323
61395	9.432896	-2.096781	2.796160	-1.499241	-0.943103	-0.531563	0.022215	-0.011965	0.999682	0.275397	-0.961169	-0.017624	0.961074	0.275701	-0.018057
61396	9.987867	-2.114998	2.675220	-1.404577	-0.914482	-0.482011	0.029789	-0.004893	0.999544	0.262045	-0.964974	-0.012533	0.964596	0.262299	-0.027464
61397	10.270462	-1.879624	2.782919	-1.332802	-0.820452	-0.433139	0.036627	0.001328	0.999328	0.249492	-0.968345	-0.007857	0.967684	0.249612	-0.035799
61398	10.332071	-2.410607	3.358388	-1.154873	-0.694940	-0.398695	0.042451	0.006858	0.999075	0.238505	-0.971135	-0.003468	0.970213	0.238432	-0.042862
61399	10.671883	-3.494538	4.224073	-0.847372	-0.594929	-0.388677	0.047330	0.011962	0.998808	0.230673	-0.973031	0.000722	0.971880	0.230364	-0.048813
61400	12.030987	-3.850131	4.417735	-0.609973	-0.447155	-0.316914	0.051019	0.016031	0.998569	0.224943	-0.974363	0.004150	0.973035	0.224409	-0.053318
61401	13.790678	-2.372422	4.177618	-0.448658	-0.067062	-0.123498	0.051405	0.017310	0.998528	0.220853	-0.975291	0.005537	0.973952	0.220243	-0.053958
61402	14.325507	-0.126496	4.434539	-0.241620	0.458630	0.084113	0.047184	0.015451	0.998767	0.218503	-0.975825	0.004773	0.974695	0.218008	-0.049419
61403	13.467779	1.609430	4.332916	0.131053	0.956814	0.110769	0.038102	0.012196	0.999199	0.220018	-0.975489	0.003517	0.974751	0.219708	-0.039852
61404	12.401584	2.039240	3.767588	0.393991	1.183560	0.045847	0.026733	0.009091	0.999601	0.223889	-0.974610	0.002877	0.974248	0.223723	-0.028090
61405	11.979966	1.853461	3.480538	0.310616	1.320596	-0.012317	0.013841	0.006153	0.999885	0.227162	-0.973853	0.002848	0.973759	0.227096	-0.014877
61406	11.999515	2.033583	2.351606	-0.004240	1.453477	-0.028622	-0.000316	0.003097	0.999995	0.227170	-0.973850	0.003088	0.973855	0.227170	-0.000396
61407	12.056041	2.638557	1.193453	-0.192690	1.605747	-0.069645	-0.016118	0.000052	0.999870	0.225578	-0.974218	0.003687	0.974092	0.225608	0.015690
61408	11.121073	3.094886	0.980367	-0.359024	1.735261	-0.192393	-0.033392	-0.001991	0.999440	0.222081	-0.975013	0.005478	0.974456	0.222140	0.033000
61409	10.485813	2.525234	0.778975	-0.619169	1.770434	-0.318768	-0.051354	-0.002856	0.998676	0.216197	-0.976314	0.008326	0.974998	0.216339	0.050755
61410	10.740662	1.392064	0.281242	-0.783562	1.770884	-0.381236	-0.069373	-0.002928	0.997587	0.208376	-0.977980	0.011621	0.975585	0.208679	0.068455
61411	11.597576	0.026450	-0.040258	-0.871440	1.709148	-0.368586	-0.086810	-0.002921	0.996221	0.199912	-0.979706	0.014547	0.975961	0.200419	0.085632
61412	12.564691	-1.168703	-0.081522	-0.831125	1.706319	-0.280323	-0.103951	-0.003558	0.994576	0.191585	-0.981337	0.016514	0.975956	0.192263	0.102692
61413	13.048432	-2.015012	-0.172861	-0.653378	1.768147	-0.135344	-0.121461	-0.005686	0.992580	0.185364	-0.982522	0.017054	0.975135	0.186060	0.120392
61414	12.711289	-2.220188	-0.332040	-0.337867	1.803064	0.030162	-0.138912	-0.009343	0.990261	0.182165	-0.983133	0.016278	0.973406	0.182652	0.138271
61415	12.415656	-2.166649	-0.367464	-0.013146	1.753736	0.190125	-0.155614	-0.014539	0.987711	0.182623	-0.983079	0.014301	0.970790	0.182605	0.155636
61416	11.896754	-1.865014	-0.599683	0.305218	1.730465	0.321215	-0.171732	-0.020916	0.984922	0.186162	-0.982451	0.011596	0.967394	0.185347	0.172611
61417	11.368596	-1.077439	-0.743981	0.673463	1.755960	0.404142	-0.187907	-0.028319	0.981779	0.193655	-0.981031	0.008767	0.962907	0.191773	0.189826
61418	10.420089	0.059638	-1.384765	0.934137	1.754594	0.440669	-0.203820	-0.036114	0.978342	0.203545	-0.979046	0.006265	0.957615	0.200413	0.206900
61419	9.420693	0.976639	-1.417768	0.967268	1.650231	0.412668	-0.218703	-0.043661	0.974814	0.213915	-0.976843	0.004241	0.952055	0.209455	0.222978
61420	9.973919	0.746269	-0.258813	0.860312	1.459506	0.330578	-0.231778	-0.050035	0.971481	0.222885	-0.974840	0.002969	0.946890	0.217217	0.237098
61421	11.090663	-0.755207	0.133187	0.841356	1.461762	0.287530	-0.244906	-0.056200	0.967917	0.231785	-0.972765	0.002165	0.941433	0.224879	0.251262
61422	11.121209	-2.045431	-0.003124	1.015299	1.642275	0.353840	-0.259413	-0.063437	0.963681	0.242260	-0.970210	0.001347	0.934887	0.233811	0.267054
61423	10.192169	-2.780788	-0.265565	1.142090	1.653463	0.496242	-0.273552	-0.072329	0.959134	0.254473	-0.967080	-0.000351	0.927584	0.243978	0.282953
61424	9.412570	-2.665084	-0.531408	1.284461	1.599032	0.582482	-0.286739	-0.081975	0.954495	0.268028	-0.963409	-0.002222	0.919751	0.255194	0.298219
61425	8.903830	-1.861027	-0.699517	1.455095	1.543268	0.599814	-0.299183	-0.091902	0.949760	0.283312	-0.959021	-0.003552	0.911166	0.268016	0.312959
61426	8.794627	-1.189495	-0.563446	1.615550	1.475321	0.558839	-0.310866	-0.101335	0.945036	0.299722	-0.954019	-0.003706	0.901958	0.282096	0.326945
61427	9.311230	-0.733318	-0.290291	1.747776	1.423640	0.535839	-0.321945	-0.110678	0.940267	0.317285	-0.948325	-0.002989	0.892010	0.297371	0.340426
61428	9.769669	-0.586984	0.033846	1.796655	1.433141	0.530250	-0.332862	-0.120090	0.935297	0.335013	-0.942212	-0.001751	0.881459	0.312754	0.353858
61429	9.882822	-0.624837	0.374548	1.825451	1.464854	0.547622	-0.343764	-0.130042	0.930008	0.353028	-0.935613	-0.000334	0.870171	0.328204	0.367539
61430	9.633289	-0.464896	0.508063	1.884301	1.515587	0.577830	-0.354705	-0.140546	0.924354	0.371388	-0.928477	0.001341	0.858053	0.343770	0.381532
61431	9.092626	-0.189130	0.691406	1.962918	1.526682	0.587342	-0.365417	-0.151467	0.918438	0.390401	-0.920638	0.003498	0.845019	0.359837	0.395549
61432	8.505393	0.261644	1.003395	2.056600	1.502596	0.559049	-0.375710	-0.162144	0.912442	0.409769	-0.912165	0.006633	0.831223	0.376383	0.409152
61433	8.021411	0.846575	1.625018	2.096628	1.458003	0.491380	-0.385611	-0.172319	0.906427	0.429069	-0.903207	0.010827	0.816826	0.393095	0.422223
61434	7.876779	1.057174	2.106577	2.098852	1.388686	0.405056	-0.395014	-0.181553	0.900557	0.447699	-0.894039	0.016137	0.802203	0.409553	0.434438
61435	8.010038	1.476330	2.365205	2.062480	1.331548	0.334034	-0.404017	-0.190181	0.894763	0.465568	-0.884734	0.022171	0.787411	0.425531	0.445990
61436	7.632052	1.906758	2.636020	1.986789	1.341219	0.277020	-0.413102	-0.198445	0.888801	0.482255	-0.875562	0.028656	0.772514	0.440466	0.457397
61437	7.135849	2.395847	2.902838	1.888843	1.275012	0.193984	-0.421854	-0.205927	0.882969	0.497644	-0.866649	0.035637	0.757885	0.454437	0.468077
61438	6.650910	3.039755	2.991575	1.699761	1.130571	0.087238	-0.429843	-0.211903	0.877686	0.510841	-0.858605	0.042887	0.744497	0.466792	0.477314
61439	6.338790	3.422427	3.141263	1.450020	0.950604	-0.008686	-0.436860	-0.216389	0.873115	0.521622	-0.851716	0.049906	0.732847	0.477238	0.484954
61440	6.377624	3.543765	3.499001	1.160659	0.742714	-0.108898	-0.442777	-0.219054	0.869462	0.529651	-0.846332	0.056500	0.723477	0.485529	0.490758
61441	6.930318	3.376321	3.803610	0.894697	0.574077	-0.174103	-0.447785	-0.220464	0.866536	0.535431	-0.842271	0.062394	0.716102	0.491909	0.495200
61442	7.504560	2.943830	4.052541	0.655260	0.484487	-0.183308	-0.452162	-0.221330	0.864038	0.539336	-0.839404	0.067222	0.710399	0.496402	0.498918
61443	7.720052	2.579503	4.195894	0.473002	0.475706	-0.174460	-0.456430	-0.222294	0.861543	0.541983	-0.837378	0.071074	0.705638	0.499383	0.502684
61444	7.685399	2.382419	4.410200	0.331002	0.470034	-0.159047	-0.460538	-0.223327	0.859087	0.543639	-0.836042	0.074097	0.701685	0.501158	0.506438
61445	7.911008	2.069404	4.754600	0.181863	0.448842	-0.150451	-0.464458	-0.224371	0.856701	0.544299	-0.835414	0.076295	0.698582	0.501737	0.510140
61446	8.018126	1.609494	5.113387	0.079161	0.463522	-0.145799	-0.468421	-0.225490	0.854246	0.544227	-0.835310	0.077933	0.695987	0.501409	0.513995
61447	8.312191	0.960054	5.707671	-0.004496	0.482999	-0.098619	-0.472272	-0.227140	0.851684	0.543822	-0.835499	0.078735	0.693697	0.500349	0.518107
61448	8.431377	0.359206	6.362659	-0.046848	0.545422	-0.013601	-0.476061	-0.229763	0.848867	0.543490	-0.835729	0.078593	0.691364	0.498765	0.522732
61449	8.210914	-0.028832	6.997334	-0.027922	0.621747	0.086203	-0.479844	-0.233628	0.845676	0.543787	-0.835619	0.077701	0.688509	0.497152	0.528011
61450	7.970880	-0.328210	7.595681	0.054554	0.640344	0.183525	-0.483181	-0.238353	0.842451	0.545101	-0.834879	0.076428	0.685128	0.496150	0.533324
61451	7.822140	-0.232440	7.944112	0.159128	0.615980	0.293371	-0.485745	-0.243915	0.839379	0.547702	-0.833323	0.074797	0.681230	0.496062	0.538376
61452	7.337122	0.359200	7.815121	0.241147	0.604954	0.317562	-0.488047	-0.249573	0.836375	0.550942	-0.831307	0.073428	0.676959	0.496631	0.543217
61453	6.729408	1.349612	7.378178	0.212469	0.564732	0.281779	-0.490269	-0.254764	0.833505	0.553821	-0.829497	0.072220	0.672992	0.497020	0.547771
61454	6.207681	2.128161	6.889969	0.051484	0.521166	0.192290	-0.492641	-0.258958	0.830810	0.555168	-0.828711	0.070891	0.670144	0.496163	0.552023
61455	5.840883	2.451373	6.565997	-0.058764	0.499651	0.086835	-0.495464	-0.262213	0.828106	0.555294	-0.828717	0.069831	0.667955	0.494441	0.556205
61456	5.775467	2.365082	6.423756	-0.065774	0.449334	0.003838	-0.498379	-0.264475	0.825634	0.554930	-0.828995	0.069422	0.666087	0.492767	0.559919
61457	5.696351	1.960105	6.632540	-0.038996	0.412682	-0.030158	-0.501266	-0.266295	0.823298	0.554579	-0.829229	0.069442	0.664210	0.491393	0.563346
61458	5.668253	1.529550	6.641585	-0.058145	0.322341	-0.027244	-0.503494	-0.267663	0.821492	0.554112	-0.829550	0.069328	0.662913	0.490105	0.565989
61459	5.894714	1.052313	6.518843	-0.109294	0.170884	-0.009184	-0.504651	-0.268472	0.820518	0.553413	-0.830063	0.068776	0.662617	0.488793	0.567468
61460	6.165266	0.316335	6.154576	-0.123699	0.016125	0.066676	-0.504328	-0.269117	0.820506	0.552985	-0.830451	0.067517	0.663220	0.487778	0.567637
61461	6.214843	-0.324260	5.330986	-0.028792	-0.181101	0.182991	-0.502085	-0.269809	0.821654	0.553797	-0.830044	0.065843	0.664244	0.488088	0.566172
61462	6.329947	-0.535788	4.190140	0.067047	-0.447846	0.277136	-0.497507	-0.269930	0.824394	0.555684	-0.828932	0.063930	0.666110	0.489908	0.562395
61463	6.410074	-0.589398	2.871177	0.091934	-0.697146	0.357291	-0.490833	-0.269522	0.828517	0.558147	-0.827461	0.061481	0.668995	0.492611	0.556578
61464	6.410292	-0.371270	1.408771	0.090465	-0.941120	0.383759	-0.482309	-0.268055	0.833981	0.560677	-0.825946	0.058780	0.673067	0.495944	0.548653
61465	6.331274	0.141520	0.163236	0.038524	-1.157118	0.364524	-0.472418	-0.265348	0.840483	0.562739	-0.824741	0.055926	0.678341	0.499393	0.538944
61466	6.465122	1.056099	-0.435882	-0.033228	-1.336341	0.272386	-0.461713	-0.260909	0.847790	0.563840	-0.824154	0.053437	0.684767	0.502690	0.527633
61467	6.898334	1.563376	-0.069186	-0.003998	-1.434430	0.142325	-0.451012	-0.254887	0.855349	0.564526	-0.823764	0.052191	0.691302	0.506405	0.515417
61468	7.129323	1.655291	1.161292	0.159909	-1.386274	0.026325	-0.441180	-0.248060	0.862454	0.565808	-0.822847	0.052765	0.696579	0.511262	0.503378
61469	7.620602	1.630375	2.503709	0.271519	-1.350400	-0.024349	-0.431848	-0.240963	0.869163	0.567674	-0.821460	0.054314	0.700895	0.516856	0.491534
61470	8.768712	1.855169	3.950048	0.285654	-1.451807	-0.037491	-0.421788	-0.233119	0.876213	0.569577	-0.820027	0.056010	0.705462	0.522695	0.478657
61471	11.706169	2.562458	6.872494	0.257406	-1.663698	-0.199783	-0.411109	-0.222785	0.883944	0.570654	-0.819071	0.058968	0.710876	0.528668	0.463860
61472	17.792250	2.719761	12.159265	0.592365	-1.485837	-0.434042	-0.402944	-0.211328	0.890492	0.573160	-0.816821	0.065508	0.713529	0.536790	0.450258
61473	23.660332	2.134413	16.822751	1.374189	-0.279678	-0.196377	-0.402062	-0.208253	0.891615	0.582201	-0.809724	0.073410	0.706674	0.548614	0.446805
61474	17.866649	2.141774	16.500728	1.877126	0.616879	0.595915	-0.402799	-0.216478	0.889320	0.597791	-0.797993	0.076509	0.693109	0.562445	0.450839
61475	11.390285	2.074111	13.816947	1.806408	0.510946	1.173326	-0.399167	-0.228712	0.887894	0.614965	-0.785051	0.074247	0.680062	0.575661	0.454017
61476	7.419978	3.651308	7.733095	1.645714	0.416098	1.370429	-0.393366	-0.241808	0.887013	0.631542	-0.772216	0.069558	0.668146	0.587547	0.456475
61477	4.099151	6.102709	2.779416	0.733519	0.146262	1.173386	-0.386853	-0.251727	0.887118	0.641063	-0.764940	0.062496	0.662860	0.592875	0.457292
61478	2.381782	7.104601	0.675100	-0.839830	-0.245727	0.628398	-0.381133	-0.255098	0.888630	0.637933	-0.768261	0.053065	0.669163	0.587111	0.455545
61479	3.208791	5.618153	-0.473284	-2.531048	-0.542448	-0.006959	-0.377487	-0.251933	0.891085	0.620793	-0.782867	0.041647	0.687109	0.568901	0.451921
61480	4.968264	2.694104	-0.214259	-3.290448	-0.639177	-0.314740	-0.374874	-0.245887	0.893873	0.596681	-0.801931	0.029641	0.709536	0.544469	0.447339
61481	6.204834	-0.019271	0.722891	-2.962984	-1.020302	-0.435035	-0.370062	-0.236940	0.898283	0.573781	-0.818754	0.020415	0.730636	0.522973	0.438942
61482	8.858783	-1.063456	0.411791	-2.851602	-1.577959	-0.453436	-0.360845	-0.225107	0.905051	0.551029	-0.834397	0.012163	0.752435	0.503099	0.425128
61483	11.588385	-1.763828	-1.100705	-3.072791	-1.673919	-0.401483	-0.350207	-0.213521	0.912011	0.526207	-0.850351	0.002976	0.774894	0.480949	0.410155
61484	12.776678	-2.638948	-2.152392	-2.950270	-1.481503	-0.268916	-0.339893	-0.204267	0.918013	0.502171	-0.864744	-0.006486	0.795171	0.458795	0.396497
61485	12.734946	-3.487233	-2.272128	-2.421448	-1.226835	-0.049616	-0.330260	-0.198356	0.922812	0.482633	-0.875685	-0.015499	0.811168	0.440261	0.384938
61486	12.077375	-3.953475	-2.413525	-1.793869	-0.958216	0.097249	-0.321903	-0.195077	0.926457	0.468349	-0.883237	-0.023245	0.822817	0.426423	0.375681
61487	10.956537	-4.271376	-2.060596	-1.118586	-0.748009	0.117642	-0.315143	-0.192998	0.929213	0.459555	-0.887691	-0.028515	0.830357	0.418038	0.368443
61488	9.798777	-4.313253	-1.033876	-0.369741	-0.722442	0.074774	-0.308722	-0.190667	0.931846	0.456767	-0.889061	-0.030586	0.834299	0.416194	0.361563
61489	9.637804	-3.894802	0.052273	0.260526	-0.854390	0.031296	-0.301397	-0.187428	0.934896	0.459155	-0.887850	-0.029972	0.835665	0.420229	0.353654
61490	10.298715	-2.994298	0.676808	0.653298	-0.896957	0.031355	-0.293692	-0.183922	0.938039	0.464762	-0.884993	-0.028008	0.835309	0.427739	0.345395
61491	10.678757	-1.879377	1.223025	0.894215	-0.828439	0.051591	-0.286490	-0.180841	0.940861	0.472463	-0.880982	-0.025468	0.833488	0.437226	0.337833
61492	10.459760	-0.954605	2.038560	1.040621	-0.792048	0.095180	-0.279378	-0.178189	0.943502	0.481446	-0.876176	-0.022914	0.830757	0.447844	0.330573
61493	10.290845	-0.024441	2.560084	1.043282	-0.815775	0.163703	-0.271764	-0.175971	0.946139	0.490649	-0.871102	-0.021084	0.827894	0.458492	0.323074
61494	9.923265	0.689557	2.788690	0.873164	-0.859631	0.233144	-0.263435	-0.174032	0.948849	0.498546	-0.866620	-0.020535	0.825865	0.467635	0.315061
61495	9.308290	1.046572	3.059151	0.555430	-0.940018	0.258875	-0.254323	-0.171890	0.951721	0.503901	-0.863499	-0.021302	0.825472	0.474155	0.306223
61496	9.007914	1.121796	3.024756	0.154439	-1.067597	0.249168	-0.244174	-0.168976	0.954896	0.505850	-0.862308	-0.023242	0.827342	0.477359	0.296030
61497	9.091127	1.239264	3.081385	-0.287583	-1.156873	0.223740	-0.233397	-0.165428	0.958206	0.504092	-0.863251	-0.026249	0.831515	0.476898	0.284871
61498	8.952628	0.702273	3.146188	-0.712630	-1.228593	0.178781	-0.222178	-0.161155	0.961596	0.498603	-0.866312	-0.029983	0.837874	0.472793	0.272827
61499	9.059147	-0.246288	3.233753	-1.012838	-1.276643	0.130132	-0.210740	-0.156327	0.964961	0.490440	-0.870813	-0.033967	0.845611	0.466097	0.260184
61500	9.146984	-1.041025	2.863413	-1.211318	-1.207513	0.072847	-0.200057	-0.151403	0.968016	0.480347	-0.876265	-0.037781	0.853958	0.457425	0.248029
61501	9.062836	-1.388839	2.492672	-1.293052	-1.091522	-0.003825	-0.190656	-0.146477	0.970667	0.469360	-0.882059	-0.040915	0.862178	0.447791	0.236920
61502	8.937372	-1.580943	2.349198	-1.307268	-1.012650	-0.067913	-0.182132	-0.141409	0.973053	0.457961	-0.887916	-0.043318	0.870115	0.437731	0.226478
61503	8.914077	-1.446509	2.193330	-1.198719	-0.925740	-0.118301	-0.174530	-0.136391	0.975160	0.447376	-0.893220	-0.044861	0.877151	0.428434	0.216912
61504	8.943991	-1.057481	2.094596	-1.065085	-0.869125	-0.155980	-0.167503	-0.131325	0.977086	0.437785	-0.897921	-0.045635	0.883339	0.420110	0.207896
61505	9.062920	-0.949789	2.133322	-0.903635	-0.856300	-0.167757	-0.160594	-0.126294	0.978907	0.429603	-0.901852	-0.045874	0.888623	0.413174	0.199089
61506	9.103033	-1.022748	2.047053	-0.765528	-0.844424	-0.156661	-0.153671	-0.121434	0.980632	0.422588	-0.905161	-0.045866	0.893199	0.407355	0.190414
61507	9.242173	-1.139296	1.902130	-0.649068	-0.842384	-0.128311	-0.146620	-0.116907	0.982260	0.416683	-0.907894	-0.045858	0.897150	0.402568	0.181829
61508	9.271380	-1.074404	1.760001	-0.515133	-0.835535	-0.100026	-0.139458	-0.112670	0.983797	0.411961	-0.910048	-0.045827	0.900466	0.398895	0.173329
61509	9.229093	-0.977005	1.775135	-0.389325	-0.865715	-0.063358	-0.131860	-0.108702	0.985290	0.408480	-0.911612	-0.045907	0.903193	0.396418	0.164608
61510	9.247497	-0.934970	1.862073	-0.306736	-0.947415	-0.039281	-0.123384	-0.104618	0.986829	0.405706	-0.912843	-0.046048	0.905637	0.394681	0.155074
61511	9.523834	-1.050779	1.831051	-0.268880	-1.028691	-0.019225	-0.114083	-0.100442	0.988381	0.403368	-0.913865	-0.046311	0.907898	0.393398	0.144772
61512	9.614165	-1.163175	1.752082	-0.260676	-1.069076	0.020499	-0.104216	-0.096452	0.989867	0.401071	-0.914845	-0.046916	0.910100	0.392117	0.134025
61513	9.525185	-1.074304	1.759864	-0.258090	-1.092028	0.052424	-0.094009	-0.092705	0.991246	0.398869	-0.915760	-0.047817	0.912177	0.390882	0.123066
61514	9.366569	-0.904274	1.977825	-0.235591	-1.120213	0.059913	-0.083474	-0.088903	0.992536	0.396820	-0.916602	-0.048728	0.914093	0.389790	0.111791
61515	9.233695	-0.724380	2.359200	-0.212730	-1.130619	0.048262	-0.072891	-0.084993	0.993712	0.395015	-0.917341	-0.049486	0.915778	0.388924	0.100440
61516	9.235990	-0.652718	2.750172	-0.209005	-1.115807	0.026430	-0.062492	-0.080923	0.994759	0.393166	-0.918108	-0.049988	0.917342	0.387981	0.089191
61517	9.114608	-0.641298	2.994389	-0.279824	-1.091773	-0.009345	-0.052460	-0.076660	0.995676	0.390690	-0.919153	-0.050184	0.919026	0.386368	0.078169
61518	9.065252	-0.594716	3.155848	-0.364124	-1.086377	-0.046188	-0.042578	-0.072073	0.996490	0.387365	-0.920568	-0.050031	0.920943	0.383876	0.067114
61519	8.973760	-0.483334	3.278711	-0.507532	-1.068521	-0.071565	-0.032958	-0.067384	0.997183	0.382773	-0.922505	-0.049687	0.923255	0.380057	0.056197
61520	8.824828	-0.416078	3.216832	-0.672426	-1.038424	-0.092113	-0.023639	-0.062638	0.997756	0.376576	-0.925081	-0.049154	0.926084	0.374569	0.045456
61521	8.380800	-0.754777	3.170647	-0.802590	-1.037395	-0.116090	-0.014410	-0.057763	0.998226	0.369212	-0.928085	-0.048374	0.929233	0.367861	0.034701
61522	8.507539	-1.413946	2.792505	-0.892824	-1.076894	-0.169924	-0.004939	-0.052286	0.998620	0.360931	-0.931408	-0.046982	0.932579	0.360201	0.023472
61523	9.092296	-1.555281	1.953063	-0.913317	-1.067659	-0.220169	0.004284	-0.046483	0.998910	0.352506	-0.934727	-0.045008	0.935800	0.352315	0.012381
61524	9.423213	-1.310968	1.329987	-0.912722	-0.997072	-0.237367	0.012869	-0.040812	0.999084	0.344017	-0.937990	-0.042748	0.938875	0.344252	0.001969
61525	9.931923	-1.088211	1.250860	-0.831219	-0.913671	-0.244684	0.020660	-0.035459	0.999158	0.336372	-0.940865	-0.040346	0.941503	0.336922	-0.007510
61526	10.223597	-0.788713	1.328188	-0.632508	-0.765536	-0.217578	0.027215	-0.030878	0.999153	0.330508	-0.943032	-0.038146	0.943411	0.331266	-0.015459
61527	9.695811	-0.644159	1.535363	-0.469224	-0.642309	-0.187399	0.032693	-0.027052	0.999099	0.326243	-0.944591	-0.036252	0.944721	0.327134	-0.022056
61528	9.341925	-0.441517	1.251124	-0.462109	-0.665667	-0.169077	0.038503	-0.023317	0.998986	0.321979	-0.946118	-0.034493	0.945963	0.322981	-0.028921
61529	9.428483	-0.310376	1.209406	-0.559493	-0.766919	-0.170493	0.045246	-0.019303	0.998789	0.316874	-0.947905	-0.032674	0.947388	0.317969	-0.036772
61530	9.799539	-0.338475	1.453530	-0.673416	-0.843278	-0.178943	0.052746	-0.014977	0.998496	0.310621	-0.950039	-0.030659	0.949069	0.311771	-0.045458
61531	9.746333	-0.274168	1.692775	-0.760348	-0.862525	-0.202221	0.060342	-0.010453	0.998123	0.303627	-0.952370	-0.028330	0.950878	0.304766	-0.054294
61532	9.926666	-0.358940	1.807395	-0.869285	-0.890854	-0.240451	0.068167	-0.005510	0.997659	0.295551	-0.954988	-0.025468	0.952892	0.296595	-0.063470
61533	10.306231	-1.406273	1.602022	-0.896908	-0.883685	-0.299635	0.075743	-0.000120	0.997127	0.287325	-0.957582	-0.021941	0.954834	0.288161	-0.072495
61534	11.414455	-2.490925	1.504267	-0.767032	-0.873417	-0.338046	0.083194	0.005576	0.996518	0.280307	-0.959741	-0.018031	0.956298	0.280831	-0.081407
61535	13.337482	-2.447805	1.566765	-0.617721	-0.786512	-0.226559	0.090107	0.009876	0.995883	0.274733	-0.961398	-0.015323	0.957289	0.274983	-0.089342
61536	14.225127	-1.552087	2.720849	-0.444740	-0.490586	-0.059323	0.094707	0.011755	0.995436	0.270572	-0.962593	-0.014375	0.958030	0.270698	-0.094345
61537	14.174980	-0.834778	4.332118	-0.240066	-0.059153	0.063115	0.095456	0.011241	0.995370	0.268340	-0.963210	-0.014856	0.958583	0.268516	-0.094961
61538	13.468874	-0.217279	5.245502	-0.031832	0.436135	0.153735	0.091751	0.008559	0.995745	0.267934	-0.963298	-0.016408	0.959059	0.268299	-0.090676
61539	12.168187	0.665987	5.201511	0.221483	0.811541	0.122951	0.084303	0.005120	0.996427	0.270090	-0.962669	-0.017905	0.959137	0.270635	-0.082539
61540	11.539113	1.606913	4.110060	0.211493	0.934243	0.007547	0.075426	0.002479	0.997148	0.272156	-0.962081	-0.018195	0.959292	0.272753	-0.073240
61541	11.316624	2.099615	3.605033	0.066523	1.046481	-0.153352	0.064965	0.001026	0.997887	0.273014	-0.961864	-0.016785	0.959814	0.273527	-0.062767
61542	11.198577	2.376687	3.394387	-0.094829	1.236372	-0.297895	0.052343	0.000485	0.998629	0.272322	-0.962107	-0.013807	0.960781	0.272672	-0.050492
61543	10.954214	2.284409	3.357136	-0.272415	1.485908	-0.405885	0.036948	0.000288	0.999317	0.270015	-0.962807	-0.009706	0.962147	0.270189	-0.035651
61544	10.763385	1.561431	3.267839	-0.493767	1.768244	-0.450536	0.018776	-0.000138	0.999824	0.265431	-0.964116	-0.005118	0.963947	0.265481	-0.018066
61545	10.523642	0.793795	3.049281	-0.595289	2.050388	-0.429665	-0.002149	-0.001449	0.999997	0.259842	-0.965651	-0.000841	0.965649	0.259839	0.002452
61546	10.380996	-0.168033	2.460112	-0.631328	2.237659	-0.401401	-0.024740	-0.003347	0.999688	0.253735	-0.967269	0.003041	0.966957	0.253732	0.024779
61547	10.956324	-0.649009	1.815842	-0.594955	2.312425	-0.337811	-0.047973	-0.005954	0.998831	0.247983	-0.968745	0.006136	0.967576	0.247987	0.047950
61548	12.005198	-0.777915	1.180591	-0.510826	2.346414	-0.215776	-0.071142	-0.009653	0.997419	0.242962	-0.970003	0.007942	0.967424	0.242900	0.071353
61549	12.701286	-0.766227	0.871351	-0.385923	2.447503	-0.091313	-0.095045	-0.014749	0.995364	0.239300	-0.970909	0.008463	0.966283	0.238995	0.095809
61550	12.703093	-0.777910	0.731193	-0.225010	2.480881	0.021574	-0.118878	-0.020889	0.992689	0.237204	-0.971427	0.007965	0.964159	0.236416	0.120436
61551	12.645226	-0.690559	0.414572	-0.138989	2.415648	0.142549	-0.141813	-0.028053	0.989496	0.236200	-0.971684	0.006303	0.961301	0.234612	0.144423
61552	12.429226	-0.359797	-0.013266	-0.039100	2.288885	0.231977	-0.163168	-0.035698	0.985952	0.236233	-0.971689	0.003913	0.957899	0.233552	0.166981
61553	12.049045	0.300265	-0.404552	0.089448	2.150089	0.318496	-0.182978	-0.043906	0.982136	0.237774	-0.971320	0.000876	0.953930	0.233687	0.188170
61554	11.240096	0.944792	-1.136277	0.179442	2.061063	0.321532	-0.201764	-0.051886	0.978059	0.240157	-0.970732	-0.001956	0.949535	0.234493	0.208320
61555	10.363664	1.191201	-1.242362	0.197766	1.924118	0.303209	-0.219267	-0.059427	0.973853	0.242753	-0.970077	-0.004539	0.944983	0.235411	0.227132
61556	10.972807	0.614954	-0.325345	0.075071	1.694291	0.256702	-0.234558	-0.065935	0.969863	0.244101	-0.969725	-0.006891	0.940956	0.235128	0.243552
61557	12.607018	-0.941987	-0.001728	-0.075720	1.716001	0.208213	-0.250167	-0.072049	0.965518	0.243981	-0.969737	-0.009148	0.936958	0.233280	0.260174
61558	12.500168	-1.867483	-0.581946	-0.064197	1.934415	0.291422	-0.267472	-0.079400	0.960289	0.244194	-0.969650	-0.012158	0.932109	0.231245	0.278744
61559	11.609105	-2.403584	-0.796789	0.044534	1.945589	0.344707	-0.284711	-0.087298	0.954630	0.245623	-0.969243	-0.015380	0.926612	0.230100	0.297396
61560	10.566832	-2.535996	-1.170755	0.380883	1.877046	0.445792	-0.300877	-0.095987	0.948820	0.250504	-0.967939	-0.018485	0.920174	0.232122	0.315276
61561	9.560329	-2.179511	-1.348970	0.749230	1.746799	0.493868	-0.315625	-0.104926	0.943065	0.258935	-0.965671	-0.020781	0.912871	0.237634	0.331959
61562	9.437708	-1.768589	-1.329354	1.135871	1.627422	0.514455	-0.328991	-0.113860	0.937444	0.270976	-0.962340	-0.021786	0.904620	0.246857	0.347454
61563	9.548966	-1.379133	-1.090868	1.436294	1.606857	0.511104	-0.342019	-0.122884	0.931623	0.285645	-0.958094	-0.021509	0.895226	0.258757	0.362788
61564	9.445406	-1.073430	-0.845102	1.631687	1.588066	0.523125	-0.354556	-0.132131	0.925652	0.302051	-0.953074	-0.020350	0.884904	0.272379	0.377829
61565	9.358824	-1.012771	-0.728722	1.774305	1.556803	0.567632	-0.366465	-0.141933	0.919542	0.319734	-0.947321	-0.018797	0.873770	0.287120	0.392541
61566	9.005097	-1.197548	-0.520694	1.929598	1.561326	0.605971	-0.377957	-0.152290	0.913212	0.338793	-0.940713	-0.016658	0.861608	0.303094	0.407144
61567	8.372089	-1.318895	-0.358809	2.124091	1.570916	0.590605	-0.389305	-0.162765	0.906614	0.359239	-0.933151	-0.013270	0.848168	0.320525	0.421752
61568	7.683380	-0.934164	-0.100017	2.287760	1.555717	0.528470	-0.400370	-0.172833	0.899907	0.380624	-0.924693	-0.008253	0.833564	0.339222	0.436004
61569	7.165538	-0.270771	0.277675	2.296072	1.490683	0.423230	-0.411006	-0.181958	0.893289	0.401323	-0.915935	-0.001920	0.818544	0.357708	0.449479
61570	6.774393	0.451083	0.809355	2.153986	1.408775	0.326067	-0.421033	-0.190113	0.886898	0.420212	-0.907412	0.004975	0.803836	0.374780	0.461938
61571	6.655715	0.920913	1.339944	1.898048	1.316696	0.241209	-0.430468	-0.197351	0.880766	0.436377	-0.899688	0.011685	0.790109	0.389376	0.473407
61572	6.579203	1.407067	2.108007	1.607603	1.217552	0.186084	-0.439126	-0.203854	0.874992	0.449847	-0.892930	0.017728	0.777693	0.401398	0.483812
61573	6.553709	1.690343	2.776005	1.283802	1.098617	0.160608	-0.446857	-0.209759	0.869667	0.460471	-0.887388	0.022569	0.766998	0.410541	0.493123
61574	6.492204	1.662723	3.264310	1.012291	0.936542	0.143789	-0.453268	-0.214928	0.865074	0.468896	-0.882861	0.026337	0.758080	0.417567	0.500952
61575	6.703746	1.660145	3.744216	0.798568	0.759538	0.153707	-0.458252	-0.219482	0.861297	0.475613	-0.879176	0.029011	0.750864	0.422939	0.507272
61576	6.807364	1.629671	4.015910	0.677195	0.600043	0.176757	-0.461831	-0.223603	0.858320	0.481549	-0.875873	0.030929	0.744864	0.427607	0.512181
61577	6.865519	1.576879	4.063119	0.621131	0.452183	0.191488	-0.464240	-0.227225	0.856066	0.487040	-0.872777	0.032458	0.739779	0.432007	0.515846
61578	7.031207	1.451944	4.103975	0.637769	0.337688	0.203013	-0.465674	-0.230478	0.854416	0.492745	-0.869509	0.034006	0.735085	0.436845	0.518475
61579	7.114843	1.421490	4.044126	0.714846	0.238602	0.187371	-0.466477	-0.233148	0.853253	0.498837	-0.865943	0.036101	0.730452	0.442475	0.520246
61580	7.106717	1.585474	4.207281	0.822505	0.176397	0.159088	-0.466900	-0.235325	0.852424	0.505625	-0.861871	0.039014	0.725498	0.449222	0.521394
61581	7.629315	1.790356	4.617628	0.891070	0.113403	0.146470	-0.466960	-0.237089	0.851902	0.512730	-0.857502	0.042400	0.720455	0.456595	0.521982
61582	7.939004	1.920138	4.867988	0.943951	0.197065	0.105614	-0.467766	-0.238915	0.850949	0.520055	-0.852871	0.046420	0.714659	0.464253	0.523193
61583	7.964735	2.377656	5.286260	1.014174	0.307804	0.055718	-0.469652	-0.240814	0.849374	0.527503	-0.848006	0.051251	0.707932	0.472118	0.525298
61584	7.759597	2.812919	5.880734	1.031691	0.385026	0.024686	-0.472170	-0.242869	0.847390	0.534942	-0.843000	0.056462	0.700637	0.479964	0.527961
61585	7.507515	2.839813	6.589426	0.994494	0.398356	0.015637	-0.474850	-0.244916	0.845301	0.541935	-0.838161	0.061586	0.693415	0.487342	0.530729
61586	7.467069	2.492853	7.403583	0.945533	0.413173	-0.022191	-0.477759	-0.246771	0.843120	0.548408	-0.833539	0.066792	0.686291	0.494284	0.533562
61587	7.675611	2.263485	8.471658	0.841201	0.415269	-0.022857	-0.480712	-0.248631	0.840892	0.554029	-0.829423	0.071481	0.679682	0.500240	0.536462
61588	7.867100	2.207719	9.173069	0.609202	0.466441	0.005298	-0.483777	-0.251029	0.838417	0.558234	-0.826314	0.074703	0.674043	0.504173	0.539885
61589	7.689407	2.378547	9.217796	0.260348	0.507164	0.001177	-0.487182	-0.253567	0.835678	0.559950	-0.825024	0.076105	0.670157	0.505015	0.543921
61590	7.407506	2.662153	8.588474	-0.123112	0.504723	-0.023417	-0.490629	-0.255928	0.832937	0.559067	-0.825667	0.075616	0.668376	0.502767	0.548177
61591	7.069947	2.690718	7.893733	-0.443120	0.499341	-0.033271	-0.494155	-0.258128	0.830169	0.555915	-0.827987	0.073457	0.668408	0.497802	0.552652
