// General information: 
//  MT Manager version: 2022.2.0 
//  XDA version: 2022.2.0 build 7381 rev 124627 built on 2023-07-19
// Device information: 
//  DeviceId: 00B4CB9F
//  ProductCode: MTW2-3A7G6
//  Firmware Version: 4.6.0
//  Hardware Version: 2.0.0
// Device settings: 
//  Filter Profile: human(46.1)
//  Option Flags: Orientation Smoother Disabled, Position/Velocity Smoother Disabled, Continuous Zero Rotation Update Disabled, AHS Disabled, ICC Disabled
// Coordinate system: ENU
PacketCounter	Acc_X	Acc_Y	Acc_Z	Gyr_X	Gyr_Y	Gyr_Z	Mat[1][1]	Mat[2][1]	Mat[3][1]	Mat[1][2]	Mat[2][2]	Mat[3][2]	Mat[1][3]	Mat[2][3]	Mat[3][3]
01426	9.606983	1.322535	-0.408277	0.118071	0.083684	-0.026094	0.025457	-0.140019	0.989822	-0.519899	0.843851	0.132741	-0.853848	-0.517987	-0.051314
01427	9.626521	1.300298	-0.597044	0.135657	0.069209	-0.013961	0.026047	-0.139771	0.989841	-0.521094	0.843110	0.132764	-0.853102	-0.519259	-0.050873
01428	9.614456	1.277598	-0.701106	0.150289	0.068182	-0.007640	0.026556	-0.139537	0.989861	-0.522475	0.842257	0.132747	-0.852241	-0.520703	-0.050538
01429	9.703289	1.363371	-0.741558	0.150631	0.060448	-0.001257	0.027005	-0.139226	0.989892	-0.523799	0.841452	0.132638	-0.851414	-0.522086	-0.050203
01430	9.756827	1.470106	-0.838028	0.143828	0.057207	-0.003100	0.027406	-0.139010	0.989912	-0.525122	0.840635	0.132586	-0.850585	-0.523458	-0.049958
01431	9.742137	1.435638	-0.903275	0.113644	0.034517	-0.002577	0.027640	-0.138844	0.989929	-0.526128	0.840018	0.132508	-0.849956	-0.524492	-0.049831
01432	9.720796	1.259574	-0.975903	0.082621	0.038899	-0.009538	0.027924	-0.138769	0.989931	-0.526915	0.839519	0.132547	-0.849459	-0.525311	-0.049677
01433	9.602825	1.160420	-1.065016	0.063197	0.029217	-0.006082	0.028131	-0.138659	0.989941	-0.527491	0.839160	0.132529	-0.849095	-0.525913	-0.049536
01434	9.664910	1.213789	-1.104163	0.059406	0.012586	-0.002065	0.028136	-0.138668	0.989939	-0.528094	0.838784	0.132504	-0.848720	-0.526509	-0.049629
01435	9.653669	1.353173	-1.216184	0.077285	-0.005315	0.000512	0.028015	-0.138685	0.989940	-0.528791	0.838360	0.132414	-0.848290	-0.527181	-0.049848
01436	9.666025	1.485362	-1.111982	0.068642	-0.025407	-0.003600	0.027703	-0.138892	0.989920	-0.529449	0.837949	0.132386	-0.847889	-0.527780	-0.050323
01437	9.648687	1.533891	-0.871583	0.032447	-0.026414	-0.012357	0.027471	-0.139129	0.989893	-0.529761	0.837742	0.132446	-0.847702	-0.528045	-0.050691
01438	9.645617	1.495798	-0.651229	-0.013331	-0.023803	-0.018012	0.027248	-0.139457	0.989853	-0.529731	0.837735	0.132607	-0.847728	-0.527970	-0.051048
01439	9.609938	1.435043	-0.525255	-0.043612	-0.015873	-0.024912	0.027172	-0.139743	0.989815	-0.529395	0.837912	0.132829	-0.847940	-0.527613	-0.051212
01440	9.544743	1.415781	-0.536065	-0.057771	-0.017135	-0.021581	0.027023	-0.140069	0.989773	-0.528992	0.838131	0.133052	-0.848196	-0.527178	-0.051447
01441	9.632564	1.407883	-0.490089	-0.062435	-0.027452	-0.024625	0.026847	-0.140413	0.989729	-0.528497	0.838408	0.133281	-0.848511	-0.526647	-0.051699
01442	9.685253	1.475415	-0.500722	-0.046181	-0.019166	-0.018719	0.026670	-0.140717	0.989691	-0.528180	0.838578	0.133465	-0.848713	-0.526295	-0.051959
01443	9.779502	1.512471	-0.355525	-0.047086	-0.018873	-0.021997	0.026553	-0.140995	0.989654	-0.527815	0.838776	0.133661	-0.848944	-0.525904	-0.052147
01444	9.790803	1.471377	-0.337153	-0.058622	-0.011426	-0.021566	0.026477	-0.141288	0.989614	-0.527402	0.838999	0.133895	-0.849203	-0.525469	-0.052301
01445	9.666050	1.383855	-0.528894	-0.050067	-0.011482	-0.024081	0.026433	-0.141544	0.989579	-0.527011	0.839210	0.134113	-0.849448	-0.525064	-0.052412
01446	9.612456	1.362972	-0.611812	-0.032552	-0.013588	-0.013696	0.026287	-0.141788	0.989548	-0.526830	0.839301	0.134255	-0.849564	-0.524853	-0.052635
01447	9.612368	1.418682	-0.613683	-0.002807	-0.013573	-0.007441	0.026138	-0.141915	0.989534	-0.526845	0.839287	0.134283	-0.849560	-0.524840	-0.052830
01448	9.706261	1.484084	-0.650597	-0.002813	-0.016586	-0.005549	0.025923	-0.142090	0.989514	-0.526891	0.839253	0.134316	-0.849537	-0.524848	-0.053110
01449	9.694193	1.473506	-0.670572	-0.005660	-0.021474	-0.005832	0.025698	-0.142245	0.989498	-0.526882	0.839256	0.134330	-0.849550	-0.524801	-0.053379
01450	9.664227	1.419001	-0.717689	-0.011931	-0.023332	-0.006998	0.025429	-0.142476	0.989472	-0.526864	0.839258	0.134387	-0.849569	-0.524735	-0.053724
01451	9.639703	1.385169	-0.847688	-0.019225	-0.045391	-0.005260	0.024998	-0.142752	0.989443	-0.526740	0.839333	0.134403	-0.849659	-0.524539	-0.054212
01452	9.721416	1.439060	-0.905949	-0.023711	-0.053879	0.003921	0.024417	-0.143061	0.989413	-0.526643	0.839400	0.134367	-0.849736	-0.524348	-0.054847
01453	9.721028	1.438814	-0.910497	-0.033091	-0.048104	0.006453	0.023901	-0.143253	0.989398	-0.526404	0.839565	0.134275	-0.849899	-0.524032	-0.055342
01454	9.659185	1.439278	-0.874963	-0.056383	-0.053130	0.006477	0.023314	-0.143531	0.989371	-0.526018	0.839814	0.134229	-0.850154	-0.523556	-0.055921
01455	9.644074	1.363129	-0.855810	-0.069757	-0.054135	0.006058	0.022748	-0.143756	0.989352	-0.525466	0.840170	0.134162	-0.850510	-0.522923	-0.056427
01456	9.637731	1.330017	-0.868534	-0.085557	-0.049996	0.013221	0.022148	-0.143963	0.989335	-0.524837	0.840579	0.134066	-0.850915	-0.522209	-0.056940
01457	9.674976	1.306868	-0.948768	-0.083981	-0.055451	0.009437	0.021553	-0.144166	0.989319	-0.524165	0.841013	0.133974	-0.851344	-0.521453	-0.057440
01458	9.789628	1.328432	-0.911133	-0.068487	-0.059155	0.013821	0.020867	-0.144416	0.989297	-0.523681	0.841332	0.133862	-0.851659	-0.520870	-0.058072
01459	9.883017	1.338037	-0.951359	-0.071373	-0.064060	0.013544	0.020177	-0.144628	0.989280	-0.523117	0.841705	0.133723	-0.852022	-0.520207	-0.058675
01460	9.788588	1.273010	-0.921233	-0.075274	-0.068049	0.002929	0.019467	-0.145011	0.989239	-0.522567	0.842047	0.133718	-0.852376	-0.519546	-0.059385
01461	9.757494	1.285928	-0.750926	-0.074971	-0.075160	0.002227	0.018742	-0.145375	0.989199	-0.521968	0.842422	0.133694	-0.852759	-0.518836	-0.060093
01462	9.826215	1.287439	-0.606729	-0.090780	-0.073673	-0.001513	0.018009	-0.145826	0.989146	-0.521289	0.842834	0.133747	-0.853190	-0.518040	-0.060839
01463	9.822968	1.290311	-0.348889	-0.108629	-0.056018	-0.009664	0.017508	-0.146190	0.989102	-0.520400	0.843365	0.133862	-0.853743	-0.517073	-0.061312
01464	9.709408	1.183956	-0.211508	-0.130248	-0.028234	-0.017934	0.017256	-0.146536	0.989055	-0.519372	0.843961	0.134101	-0.854374	-0.516001	-0.061543
01465	9.535043	1.120758	-0.253884	-0.124193	-0.004800	-0.018387	0.017238	-0.146709	0.989030	-0.518348	0.844557	0.134313	-0.854996	-0.514976	-0.061488
01466	9.463233	1.220158	-0.363429	-0.059324	-0.010817	-0.003976	0.017045	-0.146848	0.989012	-0.517929	0.844806	0.134363	-0.855254	-0.514528	-0.061657
01467	9.617286	1.383369	-0.530513	-0.021655	-0.008092	0.001459	0.016895	-0.146870	0.989012	-0.517784	0.844902	0.134315	-0.855344	-0.514364	-0.061772
01468	9.682287	1.459335	-0.521460	0.001138	-0.004182	0.006437	0.016720	-0.146889	0.989012	-0.517889	0.844851	0.134234	-0.855284	-0.514443	-0.061946
01469	9.735306	1.524259	-0.530408	0.008246	0.001023	0.001917	0.016646	-0.146860	0.989017	-0.518000	0.844794	0.134163	-0.855219	-0.514544	-0.062011
01470	9.761665	1.502443	-0.534075	-0.010517	0.009939	-0.003836	0.016644	-0.146891	0.989013	-0.517999	0.844790	0.134188	-0.855219	-0.514541	-0.062028
01471	9.739893	1.382435	-0.609239	-0.029279	0.021451	0.001367	0.016747	-0.146761	0.989030	-0.517789	0.844925	0.134146	-0.855344	-0.514356	-0.061841
01472	9.767695	1.305113	-0.741914	-0.024232	0.030293	0.012806	0.016833	-0.146548	0.989060	-0.517678	0.845015	0.134015	-0.855410	-0.514271	-0.061640
01473	9.740617	1.259251	-0.825044	-0.005115	0.031579	0.032241	0.016863	-0.146105	0.989125	-0.517680	0.845071	0.133652	-0.855408	-0.514304	-0.061385
01474	9.723187	1.212329	-0.849521	0.026369	0.029206	0.032646	0.016832	-0.145726	0.989182	-0.517997	0.844934	0.133290	-0.855217	-0.514636	-0.061264
01475	9.649442	1.187200	-0.916355	0.044553	0.019560	0.030651	0.016768	-0.145359	0.989237	-0.518423	0.844732	0.132913	-0.854960	-0.515072	-0.061193
01476	9.668579	1.391299	-0.889565	0.072893	-0.004619	0.027909	0.016470	-0.145191	0.989267	-0.519131	0.844352	0.132565	-0.854536	-0.515742	-0.061466
01477	9.789020	1.497353	-0.708389	0.066707	0.001962	0.028194	0.016267	-0.144935	0.989307	-0.519745	0.844031	0.132198	-0.854166	-0.516339	-0.061599
01478	9.709016	1.561137	-0.564548	0.038002	0.012904	0.019132	0.016173	-0.144760	0.989335	-0.520170	0.843805	0.131970	-0.853909	-0.516757	-0.061653
01479	9.698379	1.559915	-0.491009	0.002768	0.016781	0.011385	0.016184	-0.144570	0.989362	-0.520236	0.843789	0.131809	-0.853869	-0.516835	-0.061554
01480	9.653784	1.427692	-0.511009	-0.024328	0.033562	0.016651	0.016272	-0.144301	0.989400	-0.520113	0.843893	0.131633	-0.853942	-0.516742	-0.061321
01481	9.584719	1.371264	-0.658407	-0.023225	0.017700	0.017776	0.016257	-0.144052	0.989437	-0.519958	0.844021	0.131424	-0.854037	-0.516602	-0.061180
01482	9.658465	1.379623	-0.678279	-0.018100	0.017256	0.029078	0.016143	-0.143762	0.989481	-0.519889	0.844110	0.131123	-0.854081	-0.516537	-0.061113
01483	9.703165	1.343864	-0.652922	-0.020397	0.019136	0.032788	0.016063	-0.143379	0.989537	-0.519760	0.844245	0.130764	-0.854161	-0.516423	-0.060961
01484	9.704020	1.395479	-0.651072	-0.017426	0.017768	0.031068	0.015945	-0.143073	0.989584	-0.519703	0.844329	0.130446	-0.854198	-0.516370	-0.060892
01485	9.693145	1.338557	-0.576799	-0.018234	0.011830	0.025775	0.015839	-0.142787	0.989627	-0.519592	0.844443	0.130155	-0.854268	-0.516264	-0.060816
01486	9.746101	1.292214	-0.583717	-0.024536	0.009978	0.024623	0.015695	-0.142577	0.989659	-0.519479	0.844551	0.129910	-0.854339	-0.516146	-0.060811
01487	9.719842	1.257392	-0.578338	-0.015959	0.006917	0.023945	0.015556	-0.142331	0.989697	-0.519386	0.844649	0.129635	-0.854398	-0.516052	-0.060785
01488	9.817524	1.287191	-0.563175	-0.020807	-0.003184	0.026624	0.015290	-0.142171	0.989724	-0.519304	0.844741	0.129367	-0.854453	-0.515945	-0.060914
01489	9.846356	1.219113	-0.607512	-0.020308	0.007249	0.021695	0.015166	-0.141943	0.989759	-0.519174	0.844859	0.129118	-0.854534	-0.515815	-0.060880
01490	9.791633	1.031881	-0.688477	-0.034855	0.004397	0.018611	0.015009	-0.141805	0.989781	-0.518961	0.845018	0.128934	-0.854666	-0.515592	-0.060908
01491	9.738029	1.008552	-0.769896	-0.000257	0.009038	0.018762	0.014916	-0.141592	0.989813	-0.519001	0.845029	0.128702	-0.854643	-0.515634	-0.060882
01492	9.652881	1.083285	-0.855974	0.035160	0.022633	0.022339	0.014888	-0.141327	0.989851	-0.519386	0.844833	0.128434	-0.854410	-0.516027	-0.060825
01493	9.612314	1.178660	-0.919510	0.055094	0.003223	0.032544	0.014674	-0.141028	0.989897	-0.519902	0.844577	0.128032	-0.854100	-0.516528	-0.060928
01494	9.657121	1.294395	-0.988324	0.070262	-0.008125	0.034172	0.014322	-0.140828	0.989930	-0.520598	0.844209	0.127630	-0.853682	-0.517184	-0.061224
01495	9.673427	1.378364	-0.922711	0.044693	-0.023110	0.026839	0.013912	-0.140714	0.989953	-0.521024	0.843997	0.127290	-0.853429	-0.517560	-0.061573
01496	9.715326	1.386944	-0.861669	0.009910	-0.029480	0.014438	0.013474	-0.140789	0.989948	-0.521194	0.843919	0.127115	-0.853332	-0.517667	-0.062007
01497	9.629923	1.364386	-0.860616	0.000554	-0.020670	0.015144	0.013146	-0.140761	0.989956	-0.521240	0.843920	0.126918	-0.853309	-0.517674	-0.062276
01498	9.676608	1.340274	-0.880560	-0.012455	-0.032393	0.022966	0.012640	-0.140775	0.989961	-0.521214	0.843973	0.126670	-0.853332	-0.517583	-0.062706
01499	9.754238	1.326991	-0.764122	-0.034523	-0.024033	0.025270	0.012230	-0.140679	0.989980	-0.520963	0.844169	0.126395	-0.853492	-0.517289	-0.062964
01500	9.772333	1.215707	-0.646641	-0.045229	-0.007604	0.029213	0.011913	-0.140516	0.990007	-0.520668	0.844394	0.126114	-0.853676	-0.516967	-0.063103
01501	9.763263	1.279422	-0.483424	-0.042313	0.003333	0.025755	0.011734	-0.140274	0.990043	-0.520349	0.844631	0.125839	-0.853873	-0.516645	-0.063080
01502	9.670357	1.322106	-0.446802	-0.041314	0.018146	0.019644	0.011681	-0.140056	0.990075	-0.520082	0.844824	0.125645	-0.854036	-0.516388	-0.062972
01503	9.367851	1.311690	-0.729664	-0.030605	0.010354	0.022905	0.011577	-0.139802	0.990112	-0.519864	0.844996	0.125390	-0.854171	-0.516175	-0.062895
01504	9.483210	1.470831	-0.868974	-0.014430	-0.011708	0.047555	0.011118	-0.139507	0.990159	-0.519837	0.845085	0.124904	-0.854193	-0.516110	-0.063125
01505	9.696499	1.353833	-0.944315	-0.035394	-0.017269	0.069013	0.010539	-0.139006	0.990236	-0.519582	0.845346	0.124196	-0.854355	-0.515818	-0.063316
01506	9.749965	1.260290	-0.862814	-0.028786	-0.009771	0.054862	0.010068	-0.138636	0.990292	-0.519426	0.845522	0.123649	-0.854456	-0.515628	-0.063498
01507	9.794866	1.179046	-0.749358	-0.015775	-0.006689	0.039833	0.009731	-0.138326	0.990339	-0.519335	0.845641	0.123218	-0.854515	-0.515517	-0.063609
01508	9.700825	1.110921	-0.714193	-0.004615	0.002200	0.040186	0.009434	-0.138014	0.990385	-0.519376	0.845677	0.122795	-0.854494	-0.515540	-0.063703
01509	9.618997	1.052747	-0.659748	0.008808	0.017380	0.056888	0.009214	-0.137435	0.990468	-0.519496	0.845693	0.122179	-0.854423	-0.515670	-0.063605
01510	9.501777	1.265917	-0.710259	0.048294	0.012518	0.079740	0.008802	-0.136733	0.990569	-0.519988	0.845512	0.121331	-0.854128	-0.516152	-0.063657
01511	9.613624	1.605033	-0.728332	0.071205	-0.005977	0.093407	0.008192	-0.135967	0.990680	-0.520644	0.845254	0.120313	-0.853735	-0.516777	-0.063866
01512	9.711624	1.725757	-0.675248	0.045590	-0.017850	0.084209	0.007486	-0.135390	0.990764	-0.521120	0.845087	0.119420	-0.853450	-0.517201	-0.064228
01513	9.705672	1.587525	-0.595657	0.002565	-0.022019	0.068019	0.006870	-0.134921	0.990832	-0.521187	0.845148	0.118697	-0.853415	-0.517225	-0.064513
01514	9.680742	1.406809	-0.543165	-0.033572	-0.027329	0.069700	0.006170	-0.134518	0.990892	-0.520986	0.845369	0.118007	-0.853543	-0.516969	-0.064867
01515	9.758292	1.332846	-0.426210	-0.027682	-0.021920	0.086321	0.005460	-0.133894	0.990981	-0.520795	0.845609	0.117122	-0.853665	-0.516737	-0.065115
01516	9.753440	1.400956	-0.305147	-0.005263	-0.004867	0.094088	0.004819	-0.133166	0.991082	-0.520832	0.845718	0.116167	-0.853645	-0.516747	-0.065282
01517	9.691899	1.436711	-0.224692	0.019013	-0.000348	0.097294	0.004236	-0.132338	0.991196	-0.521039	0.845731	0.115143	-0.853523	-0.516939	-0.065371
01518	9.718597	1.251647	-0.269626	0.020087	-0.001539	0.101873	0.003588	-0.131533	0.991305	-0.521304	0.845708	0.114101	-0.853363	-0.517181	-0.065535
01519	9.698656	1.088700	-0.297387	0.059343	-0.005278	0.110595	0.002893	-0.130618	0.991429	-0.521854	0.845528	0.112919	-0.853030	-0.517708	-0.065717
01520	9.661602	1.187030	-0.272437	0.117334	-0.003474	0.128560	0.002097	-0.129595	0.991565	-0.522946	0.845035	0.111549	-0.852363	-0.518769	-0.065999
01521	9.601719	1.415717	-0.245664	0.179888	-0.021067	0.136966	0.001127	-0.128540	0.991704	-0.524521	0.844259	0.110025	-0.851397	-0.520293	-0.066471
01522	9.663629	1.641242	-0.170095	0.185455	-0.026764	0.141241	0.000059	-0.127533	0.991834	-0.526185	0.843422	0.108481	-0.850370	-0.521895	-0.067056
01523	9.645767	1.782780	0.008192	0.152379	-0.039789	0.133466	-0.001056	-0.126609	0.991952	-0.527519	0.842777	0.107007	-0.849542	-0.523161	-0.067678
01524	9.686116	1.758550	0.015988	0.111406	-0.042209	0.123277	-0.002158	-0.125843	0.992048	-0.528561	0.842289	0.105696	-0.848893	-0.524130	-0.068333
01525	9.641662	1.671256	-0.011891	0.074334	-0.040693	0.123724	-0.003231	-0.125007	0.992151	-0.529228	0.842036	0.104370	-0.848474	-0.524737	-0.068878
01526	9.663605	1.558934	-0.070010	0.046776	-0.043913	0.140947	-0.004439	-0.124091	0.992261	-0.529692	0.841923	0.102920	-0.848178	-0.525136	-0.069467
01527	9.743847	1.432277	-0.127242	0.046852	-0.042186	0.153243	-0.005682	-0.123015	0.992389	-0.530121	0.841847	0.101319	-0.847903	-0.525510	-0.069997
01528	9.767107	1.329306	-0.094066	0.044663	-0.034885	0.160273	-0.006923	-0.121893	0.992519	-0.530569	0.841761	0.099677	-0.847614	-0.525910	-0.070500
01529	9.877049	1.300538	0.066321	0.059874	-0.029394	0.170540	-0.008150	-0.120605	0.992667	-0.531102	0.841633	0.097895	-0.847268	-0.526410	-0.070913
01530	10.006438	1.272251	0.345419	0.062669	-0.017702	0.165744	-0.009268	-0.119344	0.992810	-0.531691	0.841459	0.096187	-0.846888	-0.526977	-0.071252
01531	9.910550	1.328051	0.502049	0.037982	0.024553	0.153970	-0.009952	-0.117912	0.992974	-0.532037	0.841422	0.094584	-0.846663	-0.527357	-0.071107
01532	9.817415	1.308209	0.673585	0.018339	0.072556	0.155509	-0.010234	-0.116269	0.993165	-0.532269	0.841449	0.093023	-0.846513	-0.527679	-0.070498
01533	9.780336	1.175936	0.810700	0.009332	0.108721	0.163561	-0.010258	-0.114312	0.993392	-0.532370	0.841569	0.091344	-0.846449	-0.527915	-0.069489
01534	9.867165	1.090656	0.869641	0.015024	0.133447	0.179106	-0.010156	-0.112149	0.993639	-0.532577	0.841631	0.089549	-0.846320	-0.528280	-0.068276
01535	10.196959	1.122971	0.890791	0.048636	0.151279	0.199366	-0.010012	-0.109665	0.993918	-0.533007	0.841575	0.087487	-0.846051	-0.528890	-0.066878
01536	10.341515	1.151026	0.945617	0.073871	0.204636	0.210292	-0.009475	-0.106854	0.994230	-0.533697	0.841359	0.085338	-0.845623	-0.529809	-0.065000
01537	10.204332	1.379706	1.048957	0.108919	0.271336	0.193110	-0.008286	-0.103784	0.994565	-0.534639	0.840965	0.083301	-0.845040	-0.531043	-0.062456
01538	9.947483	1.702987	1.053461	0.123204	0.329858	0.174896	-0.006504	-0.100596	0.994906	-0.535749	0.840437	0.081475	-0.844352	-0.532490	-0.059361
01539	9.937183	1.836860	0.873286	0.069330	0.337794	0.164871	-0.004610	-0.097404	0.995234	-0.536364	0.840211	0.079748	-0.843974	-0.533440	-0.056117
01540	10.301267	1.593699	0.956746	-0.022342	0.346923	0.165771	-0.002638	-0.094196	0.995550	-0.536247	0.840440	0.078099	-0.844057	-0.533655	-0.052729
01541	10.617181	1.235356	1.306675	-0.145202	0.394851	0.159655	-0.000232	-0.090742	0.995874	-0.535058	0.841341	0.076536	-0.844815	-0.532833	-0.048747
01542	10.710138	0.833225	1.737723	-0.262606	0.488002	0.153761	0.003005	-0.086891	0.996213	-0.532929	0.842819	0.075119	-0.846154	-0.531137	-0.043774
01543	10.484058	0.608622	2.119622	-0.352728	0.600364	0.167519	0.007127	-0.082289	0.996583	-0.529990	0.844809	0.073547	-0.847974	-0.528703	-0.037591
01544	10.255781	0.467542	2.649878	-0.390588	0.718866	0.186536	0.012191	-0.076957	0.996960	-0.526791	0.846955	0.071819	-0.849907	-0.526065	-0.030215
01545	10.217391	0.320441	3.474793	-0.358860	0.820582	0.209183	0.018000	-0.070869	0.997323	-0.523810	0.848972	0.069781	-0.851645	-0.523664	-0.021840
01546	10.399869	0.536320	4.628220	-0.256160	0.962709	0.209880	0.025061	-0.064075	0.997630	-0.521761	0.850399	0.067726	-0.852724	-0.522222	-0.012120
01547	10.294913	0.933208	5.768166	-0.183136	1.105086	0.178099	0.033487	-0.056786	0.997825	-0.520292	0.851441	0.065917	-0.853332	-0.521367	-0.001033
01548	10.359346	1.430456	6.564608	-0.229943	1.217071	0.089935	0.043369	-0.049697	0.997822	-0.518455	0.852631	0.065000	-0.854005	-0.520145	0.011211
01549	10.534738	1.740925	6.625912	-0.302338	1.335023	0.002591	0.054689	-0.042736	0.997588	-0.515915	0.854180	0.064876	-0.854893	-0.518218	0.024666
01550	10.740157	1.763173	6.131985	-0.386734	1.455344	-0.044792	0.067330	-0.035610	0.997095	-0.512682	0.856100	0.065194	-0.855935	-0.515582	0.039385
01551	11.070095	1.481197	5.328254	-0.440990	1.571815	-0.063922	0.081046	-0.028071	0.996315	-0.508900	0.858324	0.065580	-0.857002	-0.512340	0.055279
01552	11.307797	1.295705	4.412019	-0.423649	1.664426	-0.078217	0.095697	-0.020251	0.995205	-0.505318	0.860398	0.066098	-0.857611	-0.509220	0.072104
01553	11.756182	1.259400	3.653745	-0.413784	1.718094	-0.108147	0.110906	-0.012453	0.993753	-0.501701	0.862458	0.066799	-0.857902	-0.505975	0.089405
01554	12.048140	1.111509	3.064565	-0.365243	1.808782	-0.147450	0.127144	-0.004597	0.991874	-0.498506	0.864223	0.067907	-0.857512	-0.503088	0.107589
01555	12.034301	1.207135	2.444549	-0.270440	1.854668	-0.194362	0.143931	0.003041	0.989583	-0.495970	0.865555	0.069478	-0.856328	-0.500804	0.126089
01556	11.973581	1.057622	2.008485	-0.211532	1.929141	-0.213114	0.161472	0.010843	0.986818	-0.493957	0.866558	0.071304	-0.854361	-0.498959	0.145281
01557	11.542694	0.630877	1.257039	-0.173095	1.908195	-0.203033	0.178682	0.018597	0.983731	-0.492182	0.867426	0.073000	-0.851956	-0.497219	0.164147
01558	11.091417	0.080180	0.187458	-0.088374	1.737813	-0.202577	0.194446	0.025489	0.980582	-0.491164	0.867846	0.074837	-0.849087	-0.496178	0.181269
01559	11.141301	-0.464428	-0.633844	0.223462	1.517246	-0.198730	0.208204	0.031316	0.977584	-0.492705	0.866768	0.077170	-0.844922	-0.497728	0.195894
01560	11.429747	-0.622023	-1.018815	0.586963	1.372623	-0.147094	0.220469	0.036923	0.974695	-0.497382	0.863856	0.079780	-0.839050	-0.502384	0.208818
01561	11.558326	-0.689769	-1.306923	0.751655	1.393705	-0.092757	0.232508	0.043175	0.971636	-0.503501	0.860069	0.082268	-0.832122	-0.508348	0.221712
01562	11.411715	-0.554674	-1.454890	0.763380	1.517490	-0.016349	0.245139	0.050808	0.968156	-0.509835	0.856145	0.084162	-0.824606	-0.514231	0.235778
01563	10.972627	-0.652292	-1.741026	0.616144	1.580911	0.026278	0.257913	0.059205	0.964352	-0.515010	0.852922	0.085374	-0.817463	-0.518670	0.250471
01564	10.036944	-1.285676	-2.170235	0.547758	1.623561	-0.000847	0.271099	0.067660	0.960170	-0.519514	0.850044	0.086782	-0.810315	-0.522348	0.265597
01565	9.489324	-1.250524	-1.813240	0.872752	1.629586	-0.105691	0.284713	0.075335	0.955648	-0.526302	0.845506	0.090147	-0.801215	-0.528626	0.280375
01566	9.563439	0.359512	-0.950898	1.169486	1.619318	-0.221990	0.298731	0.082103	0.950799	-0.535010	0.839419	0.095609	-0.790269	-0.537248	0.294686
01567	9.181068	1.286536	-0.841847	1.073311	1.579682	-0.313700	0.312751	0.088032	0.945747	-0.542526	0.833849	0.101793	-0.779649	-0.544928	0.308547
01568	8.736054	1.488614	-0.909469	0.900324	1.455896	-0.396982	0.326144	0.092711	0.940763	-0.548282	0.829244	0.108358	-0.770076	-0.551144	0.321285
01569	8.445232	1.924042	-0.730187	0.635387	1.382759	-0.468079	0.339242	0.096490	0.935738	-0.551642	0.826142	0.114803	-0.761975	-0.555139	0.333490
01570	8.037237	2.132660	-0.419961	0.297824	1.326416	-0.537703	0.352215	0.099415	0.930624	-0.552090	0.824984	0.120821	-0.755738	-0.556344	0.345458
01571	7.670968	1.813637	-0.345888	-0.007348	1.269895	-0.607735	0.365064	0.101460	0.925437	-0.549906	0.825605	0.126410	-0.751220	-0.555052	0.357192
01572	7.465049	1.668954	-0.229160	-0.226193	1.197439	-0.644212	0.377506	0.102750	0.920289	-0.545865	0.827485	0.131528	-0.748011	-0.552006	0.368468
01573	7.294929	1.753197	-0.054087	-0.436255	1.071329	-0.627111	0.388849	0.103445	0.915476	-0.540254	0.830500	0.135631	-0.746272	-0.547330	0.378825
01574	7.243150	1.772907	-0.119774	-0.654356	0.944034	-0.577413	0.398924	0.103754	0.911095	-0.533144	0.834629	0.138391	-0.746068	-0.540952	0.388270
01575	7.159075	1.679680	-0.296426	-0.822820	0.839211	-0.523015	0.407889	0.103889	0.907102	-0.524943	0.839562	0.139893	-0.747035	-0.533238	0.396985
01576	7.041290	1.552677	-0.378306	-0.906216	0.758744	-0.467643	0.415927	0.103941	0.903439	-0.516286	0.844814	0.140493	-0.748634	-0.524868	0.405044
01577	6.780691	1.475793	-0.457197	-0.948427	0.647827	-0.406618	0.422798	0.103874	0.900251	-0.507524	0.850144	0.140263	-0.750774	-0.516202	0.412158
01578	6.658503	1.373047	-0.386461	-0.934418	0.480858	-0.371167	0.428206	0.103142	0.897776	-0.498963	0.855285	0.139727	-0.753442	-0.507789	0.417702
01579	6.680972	1.489092	0.013465	-0.981439	0.266638	-0.334656	0.431809	0.101622	0.896222	-0.490165	0.860541	0.138590	-0.757152	-0.499142	0.421401
01580	6.903521	1.369819	0.411527	-1.100780	0.041162	-0.297613	0.433485	0.099223	0.895682	-0.480561	0.866255	0.136614	-0.762334	-0.489650	0.423191
01581	7.189999	1.476021	1.380901	-1.156477	-0.152906	-0.258714	0.433479	0.096244	0.896010	-0.470642	0.872087	0.134017	-0.768500	-0.479793	0.423327
01582	7.524211	1.553243	2.260680	-1.158115	-0.262106	-0.209632	0.432347	0.093130	0.896885	-0.460842	0.877759	0.131007	-0.775049	-0.469963	0.422415
01583	7.389191	1.156991	2.505550	-1.225485	-0.313833	-0.161704	0.430575	0.090259	0.898030	-0.450659	0.883577	0.127269	-0.781992	-0.459504	0.421122
01584	7.302925	0.440872	3.409830	-1.294862	-0.457933	-0.116864	0.427410	0.087109	0.899852	-0.440027	0.889535	0.122893	-0.789745	-0.448485	0.418526
01585	7.982806	0.094509	4.916743	-1.343847	-0.596415	-0.049494	0.422824	0.084040	0.902307	-0.429203	0.895504	0.117719	-0.798126	-0.437048	0.414710
01586	8.718386	-0.086102	6.344809	-1.460492	-0.589085	0.029468	0.417885	0.081737	0.904816	-0.417654	0.901748	0.111431	-0.806807	-0.424465	0.410965
01587	8.994914	0.135787	7.381915	-1.421662	-0.527469	0.115366	0.413067	0.080591	0.907128	-0.406662	0.907577	0.104546	-0.814863	-0.412078	0.407663
01588	9.132300	0.228430	9.327116	-1.320069	-0.520429	0.149654	0.408123	0.079816	0.909431	-0.396518	0.912799	0.097832	-0.822319	-0.400533	0.404183
01589	9.849387	-0.401491	11.185052	-1.247099	-0.524881	0.077540	0.403419	0.078470	0.911644	-0.386590	0.917643	0.092086	-0.829338	-0.389582	0.400531
01590	11.141267	-1.715180	11.226572	-1.084934	-0.396962	-0.050244	0.400236	0.076471	0.913216	-0.377408	0.921836	0.088215	-0.835089	-0.379962	0.397813
01591	11.135301	-2.841007	10.906738	-0.830512	-0.099162	-0.117933	0.399782	0.075028	0.913535	-0.370043	0.925029	0.085967	-0.838596	-0.372415	0.397573
01592	9.881214	-3.599739	9.746011	-0.298923	0.162217	-0.106639	0.401473	0.074649	0.912823	-0.367161	0.926197	0.085740	-0.839054	-0.369576	0.399252
01593	8.344418	-2.865282	8.609351	0.478726	0.351691	-0.096126	0.404708	0.075086	0.911358	-0.370840	0.924469	0.088513	-0.835876	-0.373790	0.401985
01594	7.113332	-1.274914	7.545636	1.105124	0.459382	-0.119851	0.408928	0.075743	0.909418	-0.379613	0.920353	0.094043	-0.829862	-0.383684	0.405111
01595	6.605843	0.311058	6.804098	1.307424	0.555573	-0.144506	0.414009	0.076598	0.907044	-0.389878	0.915349	0.100655	-0.822552	-0.395308	0.408827
01596	5.625533	1.014952	5.523658	1.272816	0.520029	-0.207632	0.419039	0.076816	0.904713	-0.399495	0.910383	0.107738	-0.815359	-0.406574	0.412173
01597	4.769703	1.311469	3.317670	1.246150	0.148981	-0.286046	0.421339	0.074849	0.903809	-0.408475	0.905440	0.115439	-0.809705	-0.417822	0.412072
01598	5.102825	1.452642	1.699763	1.150418	-0.500306	-0.312889	0.418541	0.069933	0.905502	-0.416517	0.900775	0.122955	-0.807054	-0.428619	0.406139
01599	7.432380	1.887323	1.242609	0.929641	-1.022155	-0.239612	0.411230	0.063366	0.909327	-0.423084	0.896885	0.128834	-0.807397	-0.437702	0.395635
01600	8.767810	2.597311	1.019581	0.657893	-1.140381	-0.210273	0.402859	0.056476	0.913518	-0.427601	0.894086	0.133296	-0.809235	-0.444321	0.384340
01601	9.617656	2.815380	0.844930	0.263093	-1.162445	-0.197481	0.394211	0.049543	0.917684	-0.429003	0.892995	0.136078	-0.812745	-0.447332	0.373282
01602	11.110143	2.504627	1.723385	-0.194084	-0.970409	-0.217149	0.387179	0.043282	0.920988	-0.426626	0.893939	0.137341	-0.817363	-0.446093	0.364580
01603	11.882307	2.478036	4.468964	-0.706911	-0.561700	-0.232236	0.383489	0.038727	0.922733	-0.419990	0.897144	0.136895	-0.822523	-0.440037	0.360311
01604	11.564743	1.595318	6.274161	-1.196477	-0.389063	-0.201354	0.381058	0.035236	0.923879	-0.409393	0.902399	0.134439	-0.828970	-0.429459	0.358292
01605	11.554301	-0.277116	6.511215	-1.411229	-0.450728	-0.135210	0.377783	0.032120	0.925337	-0.397185	0.908395	0.130625	-0.836375	-0.416878	0.355934
01606	11.298246	-1.610873	6.590320	-1.339010	-0.439770	-0.112020	0.374478	0.029311	0.926773	-0.385572	0.913910	0.126893	-0.843268	-0.404856	0.353540
01607	10.611176	-2.104633	6.033799	-1.170401	-0.425422	-0.104191	0.371207	0.026673	0.928167	-0.375335	0.918596	0.123711	-0.849311	-0.394296	0.351001
01608	9.369631	-2.044865	3.882010	-0.781693	-0.555826	-0.127993	0.366899	0.023354	0.929968	-0.368261	0.921664	0.122144	-0.854265	-0.387285	0.346758
01609	8.679452	-1.198476	1.631051	-0.148494	-0.750204	-0.207551	0.361174	0.018558	0.932314	-0.366291	0.922263	0.123541	-0.857546	-0.386118	0.339895
01610	8.879043	0.133571	0.704065	0.319690	-0.801718	-0.262380	0.355202	0.013069	0.934698	-0.368154	0.921046	0.127027	-0.859240	-0.389233	0.331969
01611	9.019113	1.425798	0.332915	0.489220	-0.736441	-0.267263	0.349793	0.007745	0.936795	-0.371473	0.919140	0.131107	-0.860031	-0.393855	0.324385
01612	9.100353	3.043761	0.109185	0.599360	-0.732822	-0.303162	0.344561	0.002090	0.938762	-0.375636	0.916759	0.135832	-0.860335	-0.399435	0.316665
01613	9.439602	4.645247	0.081306	0.574058	-0.808966	-0.362779	0.338901	-0.004467	0.940811	-0.379392	0.914428	0.141007	-0.860934	-0.404723	0.308206
01614	9.764241	4.931926	0.276556	0.297184	-0.897866	-0.383619	0.332556	-0.011595	0.943012	-0.380722	0.913172	0.145490	-0.862820	-0.407409	0.299267
01615	9.775325	3.881421	-0.159920	0.028056	-0.979587	-0.351195	0.325357	-0.018776	0.945405	-0.379864	0.912986	0.148861	-0.865937	-0.407558	0.289914
01616	10.166634	1.986957	-0.087519	-0.228357	-1.032134	-0.288364	0.317420	-0.025592	0.947940	-0.377008	0.913833	0.150913	-0.870120	-0.405284	0.280421
01617	10.424169	0.058932	0.383640	-0.412371	-0.977392	-0.235258	0.309707	-0.031668	0.950304	-0.372727	0.915411	0.151978	-0.874732	-0.401273	0.271706
01618	10.412580	-1.287252	0.649124	-0.354258	-0.958593	-0.207873	0.301997	-0.037390	0.952575	-0.369039	0.916737	0.152980	-0.878981	-0.397737	0.263054
01619	10.204642	-1.660838	1.101476	-0.111532	-0.923177	-0.203222	0.294549	-0.042901	0.954673	-0.367505	0.917082	0.154599	-0.882146	-0.396384	0.254359
01620	9.718995	-0.591966	1.376433	0.214615	-0.915217	-0.177037	0.287035	-0.048141	0.956710	-0.368942	0.916132	0.156790	-0.884021	-0.397975	0.245201
01621	9.365376	0.944795	1.224656	0.427391	-0.924664	-0.160371	0.279382	-0.053287	0.958700	-0.372322	0.914326	0.159322	-0.885055	-0.401457	0.235607
01622	9.180561	2.692151	1.479597	0.432761	-0.919907	-0.163360	0.271760	-0.058469	0.960587	-0.375761	0.912474	0.161847	-0.885974	-0.404935	0.226004
01623	9.044604	3.420996	1.679196	0.196842	-0.921693	-0.171655	0.264164	-0.063756	0.962368	-0.377100	0.911555	0.163901	-0.887701	-0.406205	0.216758
01624	9.046433	3.246119	1.905252	-0.010143	-0.928761	-0.197657	0.256566	-0.069312	0.964038	-0.376550	0.911449	0.165745	-0.890160	-0.405533	0.207747
01625	9.241686	2.970194	2.362601	-0.147974	-0.889542	-0.223826	0.249407	-0.074934	0.965495	-0.374717	0.911870	0.167569	-0.892963	-0.403581	0.199347
01626	9.288411	2.536875	2.765118	-0.219952	-0.813058	-0.237662	0.242937	-0.080361	0.966708	-0.372219	0.912555	0.169400	-0.895787	-0.400980	0.191781
01627	9.226546	1.890656	2.985965	-0.247224	-0.770767	-0.239342	0.236840	-0.085609	0.967769	-0.369479	0.913330	0.171215	-0.898550	-0.398121	0.184683
01628	9.431843	1.408396	3.122639	-0.212870	-0.729329	-0.231692	0.231049	-0.090608	0.968714	-0.367074	0.913955	0.173038	-0.901040	-0.395570	0.177908
01629	9.587860	0.912838	3.253178	-0.143507	-0.665143	-0.213357	0.225761	-0.095166	0.969523	-0.365344	0.914309	0.174819	-0.903081	-0.393677	0.171647
01630	9.557896	0.536953	3.133883	-0.020398	-0.578235	-0.196498	0.221173	-0.099222	0.970174	-0.364774	0.914185	0.176654	-0.904446	-0.392965	0.165999
01631	9.384173	0.632703	2.953310	0.200441	-0.514171	-0.194011	0.217161	-0.103001	0.970686	-0.366214	0.913186	0.178828	-0.904836	-0.394313	0.160588
01632	9.109632	1.164382	2.816037	0.459801	-0.468775	-0.193629	0.213556	-0.106605	0.971097	-0.370009	0.911147	0.181393	-0.904150	-0.398052	0.155137
01633	8.755655	1.775759	2.099538	0.689390	-0.465374	-0.181072	0.209958	-0.110101	0.971491	-0.375905	0.908173	0.184165	-0.902559	-0.403855	0.149291
01634	8.810292	1.855513	1.376198	0.808931	-0.518385	-0.141636	0.205746	-0.113476	0.972004	-0.382956	0.904707	0.186681	-0.900563	-0.410644	0.142684
01635	9.010984	1.608099	0.523434	0.895549	-0.543931	-0.092104	0.201141	-0.116546	0.972604	-0.390874	0.900876	0.188786	-0.898198	-0.418139	0.135648
01636	9.343444	1.812471	-0.294331	1.040743	-0.577044	-0.054472	0.196105	-0.119455	0.973280	-0.400151	0.896400	0.190645	-0.895222	-0.426845	0.127989
01637	9.740725	2.641865	-0.752671	1.210198	-0.604377	-0.053057	0.190851	-0.122525	0.973942	-0.410910	0.891094	0.192623	-0.891476	-0.436965	0.119719
01638	9.786695	3.501572	-0.848503	1.219371	-0.655736	-0.065388	0.185209	-0.125991	0.974589	-0.421686	0.885609	0.194624	-0.887625	-0.447016	0.110894
01639	9.899090	3.646073	-0.698232	1.011963	-0.700698	-0.063274	0.179199	-0.129698	0.975226	-0.430587	0.880948	0.196280	-0.884581	-0.455093	0.102019
01640	9.808327	3.445258	-0.618487	0.767589	-0.715236	-0.038208	0.172961	-0.133303	0.975866	-0.437351	0.877366	0.197364	-0.882501	-0.460932	0.093450
01641	9.690919	3.227507	-0.478531	0.537174	-0.724976	-0.003327	0.166511	-0.136676	0.976521	-0.442132	0.874860	0.197837	-0.881359	-0.464693	0.085245
01642	9.599780	2.972147	-0.522359	0.353265	-0.735248	0.033215	0.159798	-0.139809	0.977199	-0.445347	0.873245	0.197762	-0.880983	-0.466795	0.077279
01643	9.659682	2.710850	-0.242204	0.170473	-0.729131	0.065907	0.153008	-0.142628	0.977878	-0.447000	0.872526	0.197203	-0.881351	-0.467285	0.069749
01644	9.519704	2.490652	0.024614	0.038426	-0.693668	0.079066	0.146450	-0.145180	0.978507	-0.447504	0.872444	0.196420	-0.882209	-0.466651	0.062801
01645	9.615817	2.331737	0.283762	-0.048614	-0.681402	0.078499	0.140012	-0.147658	0.979078	-0.447235	0.872771	0.195582	-0.883390	-0.465261	0.056160
01646	9.818364	2.095734	0.625297	-0.101930	-0.630736	0.083342	0.133975	-0.149864	0.979587	-0.446494	0.873352	0.194677	-0.884700	-0.463462	0.050094
01647	9.731389	2.064032	1.031715	-0.132141	-0.586617	0.077716	0.128363	-0.151886	0.980027	-0.445473	0.874066	0.193811	-0.886046	-0.461454	0.044537
01648	9.424723	2.025318	0.843694	-0.091823	-0.569271	0.050075	0.123005	-0.154074	0.980373	-0.444767	0.874550	0.193247	-0.887159	-0.459808	0.039047
01649	9.545098	2.109259	0.871724	-0.049302	-0.561796	0.033991	0.117796	-0.156344	0.980653	-0.444417	0.874815	0.192854	-0.888041	-0.458537	0.033568
01650	9.439249	2.069238	0.654084	-0.033257	-0.546944	0.028230	0.112725	-0.158605	0.980886	-0.444199	0.874996	0.192531	-0.888808	-0.457412	0.028182
01651	9.420771	1.898426	0.369058	-0.000707	-0.566620	0.034437	0.107463	-0.160881	0.981106	-0.444277	0.875040	0.192151	-0.889421	-0.456532	0.022558
01652	9.504293	1.822457	0.192045	0.036443	-0.573447	0.051641	0.102046	-0.163048	0.981327	-0.444700	0.874943	0.191616	-0.889847	-0.455950	0.016777
01653	9.502009	1.824001	-0.074474	0.113796	-0.590072	0.067666	0.096422	-0.165134	0.981546	-0.445826	0.874521	0.190924	-0.889911	-0.456008	0.010702
01654	9.477058	1.890387	-0.367975	0.191737	-0.630848	0.076725	0.090380	-0.167345	0.981747	-0.447647	0.873759	0.190149	-0.889631	-0.456662	0.004059
01655	9.554166	2.069738	-0.658612	0.252386	-0.682759	0.090945	0.083828	-0.169660	0.981931	-0.450016	0.872745	0.189213	-0.889077	-0.457746	-0.003189
01656	9.686365	2.395444	-0.729751	0.260049	-0.717312	0.105891	0.076888	-0.172028	0.982087	-0.452456	0.871720	0.188118	-0.888466	-0.458815	-0.010810
01657	9.617590	2.520184	-0.505711	0.187239	-0.727332	0.108249	0.069864	-0.174411	0.982191	-0.454243	0.871034	0.186983	-0.888134	-0.459217	-0.018371
01658	9.646221	2.495745	-0.101890	0.075509	-0.756793	0.085109	0.062668	-0.177148	0.982187	-0.455013	0.870823	0.186094	-0.888277	-0.458570	-0.026032
01659	9.646831	2.466478	0.385496	0.023428	-0.778193	0.049336	0.055457	-0.180271	0.982052	-0.455294	0.870790	0.185558	-0.888612	-0.457413	-0.033784
01660	9.816639	2.485631	1.098407	-0.062017	-0.740848	0.021226	0.048693	-0.183477	0.981817	-0.454816	0.871086	0.185341	-0.889253	-0.455571	-0.041032
01661	9.606517	2.115970	1.501413	-0.170082	-0.659039	-0.002387	0.042768	-0.186479	0.981528	-0.453345	0.871842	0.185394	-0.890309	-0.452899	-0.047252
01662	9.362980	1.684049	1.843910	-0.151530	-0.606748	-0.011411	0.037337	-0.189327	0.981204	-0.452048	0.872481	0.185550	-0.891212	-0.450480	-0.053009
01663	9.334196	1.543849	1.978650	-0.018823	-0.557233	0.013304	0.032238	-0.191705	0.980923	-0.451928	0.872579	0.185383	-0.891472	-0.449283	-0.058507
01664	9.263996	1.613119	1.815012	0.175089	-0.500727	0.062480	0.027417	-0.193412	0.980734	-0.453547	0.871899	0.184628	-0.890811	-0.449871	-0.063817
01665	9.110395	1.759328	1.317386	0.377132	-0.474873	0.109180	0.022621	-0.194591	0.980624	-0.456973	0.870397	0.183259	-0.889193	-0.452264	-0.069234
01666	9.303712	1.950441	0.952479	0.546808	-0.502623	0.153669	0.017384	-0.195540	0.980542	-0.461918	0.868190	0.181324	-0.886752	-0.456082	-0.075231
01667	9.322125	2.242841	0.819837	0.668911	-0.501219	0.164276	0.012111	-0.196402	0.980449	-0.467905	0.865432	0.179142	-0.883696	-0.460927	-0.081417
01668	9.240138	2.584816	0.844730	0.657419	-0.515690	0.161101	0.006739	-0.197401	0.980300	-0.473774	0.862681	0.176973	-0.880621	-0.465633	-0.087710
01669	9.085307	2.543844	0.453469	0.635702	-0.528334	0.160706	0.001256	-0.198478	0.980105	-0.479410	0.860012	0.174772	-0.877590	-0.470091	-0.094072
01670	9.002048	2.564819	-0.121597	0.656916	-0.554050	0.187103	-0.004559	-0.199493	0.979889	-0.485222	0.857253	0.172268	-0.874379	-0.474678	-0.100706
01671	9.341149	2.434014	-0.872193	0.692092	-0.608077	0.253536	-0.011176	-0.200214	0.979689	-0.491282	0.854445	0.169014	-0.870929	-0.479414	-0.107910
01672	9.812567	2.318961	-1.514483	0.698928	-0.631031	0.305855	-0.018231	-0.200650	0.979493	-0.497365	0.851666	0.165207	-0.867350	-0.484154	-0.115323
01673	9.953490	2.157513	-1.818867	0.658624	-0.625729	0.333272	-0.025387	-0.200850	0.979293	-0.503033	0.849118	0.161111	-0.863894	-0.488526	-0.122590
01674	9.842860	2.327885	-1.449001	0.560141	-0.642124	0.334486	-0.032673	-0.201170	0.979011	-0.507820	0.847018	0.157099	-0.860843	-0.492028	-0.129833
01675	9.823930	2.482976	-0.923295	0.382813	-0.639811	0.315679	-0.039855	-0.201643	0.978648	-0.511035	0.845752	0.153449	-0.858635	-0.494007	-0.136754
01676	9.783612	2.471046	-0.399307	0.187376	-0.625885	0.291571	-0.046776	-0.202280	0.978210	-0.512565	0.845391	0.150305	-0.857373	-0.494366	-0.143226
01677	9.723104	2.200319	0.246993	0.034984	-0.594086	0.260208	-0.053275	-0.203006	0.977727	-0.512773	0.845731	0.147659	-0.856870	-0.493485	-0.149152
01678	9.769729	1.834269	0.986357	-0.020779	-0.564683	0.245221	-0.059424	-0.203724	0.977223	-0.512506	0.846307	0.145267	-0.856625	-0.492200	-0.154701
01679	10.142848	1.634292	1.826960	-0.028541	-0.512334	0.239247	-0.065111	-0.204208	0.976760	-0.512150	0.846921	0.142923	-0.856425	-0.490941	-0.159729
01680	10.272208	1.780028	2.719865	0.063899	-0.405715	0.235684	-0.069839	-0.204210	0.976433	-0.512587	0.847064	0.140491	-0.855790	-0.490695	-0.163834
01681	10.281990	2.118238	3.428055	0.201132	-0.320219	0.229447	-0.073828	-0.203831	0.976218	-0.514179	0.846530	0.137867	-0.854500	-0.491772	-0.167303
01682	10.643929	2.234109	4.180783	0.281351	-0.241151	0.243103	-0.077176	-0.202966	0.976140	-0.516451	0.845609	0.134994	-0.852832	-0.493710	-0.170083
01683	11.017349	2.273163	5.224935	0.328876	-0.126363	0.271576	-0.079731	-0.201288	0.976282	-0.519076	0.844516	0.131729	-0.851001	-0.496261	-0.171818
01684	11.000181	2.741500	6.430201	0.371479	0.061924	0.299906	-0.080788	-0.198447	0.976776	-0.522047	0.843237	0.128139	-0.849082	-0.499571	-0.171722
01685	10.505757	3.730833	7.739181	0.333426	0.305814	0.318798	-0.079935	-0.194219	0.977696	-0.524655	0.842176	0.124403	-0.847554	-0.503009	-0.169218
01686	10.452375	4.195909	8.473560	0.208486	0.545116	0.353632	-0.077177	-0.188484	0.979039	-0.526197	0.841770	0.120578	-0.846853	-0.505862	-0.164145
01687	10.506787	2.689391	7.167110	0.315197	0.728922	0.446809	-0.073437	-0.181015	0.980735	-0.528564	0.840980	0.115641	-0.845711	-0.509889	-0.157437
01688	10.501210	0.283663	4.024661	0.721355	0.704956	0.589509	-0.070597	-0.172435	0.982488	-0.534301	0.838272	0.108732	-0.842341	-0.517268	-0.151312
01689	11.545374	-1.434508	1.790481	1.112066	0.689695	0.721027	-0.068764	-0.162797	0.984260	-0.543171	0.833653	0.099939	-0.836801	-0.527750	-0.145752
01690	12.743460	-1.760497	1.150599	1.368416	0.954020	0.721212	-0.064743	-0.151691	0.986305	-0.554163	0.827432	0.090880	-0.829887	-0.540690	-0.137632
01691	13.226200	-0.439292	1.314585	1.458163	1.411173	0.644522	-0.056766	-0.138646	0.988714	-0.565855	0.820362	0.082550	-0.822548	-0.554782	-0.125022
01692	12.495357	1.129255	1.484115	1.400663	1.745844	0.549189	-0.045578	-0.124327	0.991194	-0.577114	0.813170	0.075460	-0.815391	-0.568593	-0.108813
01693	11.715384	2.456156	1.212112	1.375788	1.844539	0.408856	-0.033060	-0.110404	0.993337	-0.588158	0.805713	0.069975	-0.808070	-0.581925	-0.091572
01694	11.830077	3.811283	1.236556	1.300455	1.853036	0.197003	-0.019287	-0.097903	0.995009	-0.598662	0.798200	0.066934	-0.800769	-0.594383	-0.074006
01695	11.938306	4.872443	0.636870	1.150409	1.866621	-0.060228	-0.004113	-0.087185	0.996184	-0.607879	0.791220	0.066737	-0.794019	-0.605285	-0.056252
01696	11.787210	5.435324	-0.184023	0.898259	1.842386	-0.297606	0.012325	-0.078278	0.996855	-0.615052	0.785437	0.069280	-0.788390	-0.613971	-0.038464
01697	11.963746	5.377864	-1.183806	0.615860	1.726706	-0.491804	0.028865	-0.071476	0.997025	-0.619830	0.781243	0.073952	-0.784205	-0.620121	-0.021752
01698	12.399457	4.842219	-2.110656	0.272552	1.620806	-0.605296	0.045359	-0.066109	0.996781	-0.621818	0.779069	0.079966	-0.781847	-0.623443	-0.005770
01699	12.409094	3.674733	-2.647812	-0.261638	1.525814	-0.672587	0.061396	-0.061850	0.996195	-0.619451	0.780242	0.086619	-0.782631	-0.622412	0.009591
01700	11.876339	2.102626	-2.987698	-0.875252	1.402768	-0.676582	0.076616	-0.058453	0.995346	-0.612201	0.785186	0.093235	-0.786982	-0.616495	0.024373
01701	11.326220	0.308747	-3.321965	-1.225140	1.241522	-0.642535	0.090254	-0.055923	0.994347	-0.602024	0.792291	0.099204	-0.793361	-0.607575	0.037841
01702	11.256614	-0.590408	-2.915581	-1.160416	1.216062	-0.552582	0.103270	-0.052981	0.993241	-0.592327	0.798931	0.104202	-0.799052	-0.599085	0.051124
01703	11.212444	-1.363664	-2.790203	-1.183180	1.306595	-0.452029	0.116329	-0.048836	0.992009	-0.582386	0.805712	0.107959	-0.804546	-0.590291	0.065286
01704	11.091341	-1.601645	-2.505042	-1.086606	1.404967	-0.384929	0.129912	-0.043708	0.990562	-0.573215	0.811852	0.110999	-0.809041	-0.582225	0.080415
01705	11.696454	-0.749415	-1.620391	-0.836322	1.493270	-0.362186	0.144003	-0.038006	0.988847	-0.565985	0.816523	0.113806	-0.811742	-0.576061	0.096071
01706	11.920457	-0.046795	-1.278593	-0.773623	1.535274	-0.367134	0.158561	-0.032204	0.986824	-0.559184	0.820798	0.116634	-0.813739	-0.570310	0.112139
01707	11.992136	0.330508	-1.515516	-0.773171	1.482786	-0.347704	0.172501	-0.026649	0.984649	-0.552355	0.825057	0.119097	-0.815566	-0.564420	0.127604
01708	11.678041	0.494278	-1.326208	-0.846953	1.486384	-0.297771	0.186275	-0.020763	0.982278	-0.544943	0.829714	0.120879	-0.817520	-0.557802	0.143241
01709	11.053056	0.151097	-1.396908	-0.966799	1.528599	-0.312826	0.200409	-0.014894	0.979599	-0.536470	0.834989	0.122448	-0.819778	-0.550065	0.159349
01710	10.641998	-0.212060	-1.490130	-1.005047	1.583862	-0.350448	0.215271	-0.009174	0.976511	-0.527532	0.840409	0.124189	-0.821808	-0.541875	0.176076
01711	10.366926	-0.242524	-1.287754	-1.076469	1.725640	-0.434413	0.231667	-0.003557	0.972789	-0.517753	0.846142	0.126396	-0.823567	-0.532946	0.194181
01712	10.015166	-0.188847	-1.243418	-1.149773	1.805756	-0.521818	0.249216	0.001556	0.968447	-0.507062	0.852184	0.129116	-0.825094	-0.523240	0.213167
01713	9.580279	-0.128028	-1.238008	-1.294702	1.844286	-0.597675	0.267374	0.005998	0.963574	-0.494874	0.858885	0.131972	-0.826808	-0.512133	0.232612
01714	9.171977	-0.062385	-1.254546	-1.522385	1.808388	-0.620795	0.285357	0.009793	0.958371	-0.480596	0.866606	0.134243	-0.829216	-0.498897	0.251998
01715	8.807340	-0.508218	-1.507371	-1.630620	1.775332	-0.579592	0.302773	0.013487	0.952967	-0.465401	0.874669	0.135487	-0.831703	-0.484534	0.271103
01716	8.420812	-0.927753	-1.846138	-1.499504	1.785396	-0.503551	0.319915	0.017605	0.947283	-0.451398	0.881889	0.136056	-0.833003	-0.471128	0.290077
01717	8.113159	-1.254335	-1.778881	-1.276095	1.778509	-0.407035	0.336474	0.022292	0.941429	-0.439486	0.887886	0.136052	-0.832849	-0.459523	0.308548
01718	7.734671	-1.631478	-1.730452	-0.968264	1.754281	-0.319693	0.352422	0.027440	0.935439	-0.430379	0.892349	0.135967	-0.831007	-0.450511	0.326293
01719	7.521379	-1.597543	-1.600691	-0.632756	1.659227	-0.243101	0.367155	0.032705	0.929585	-0.424310	0.895232	0.136092	-0.827743	-0.444399	0.342566
01720	7.354911	-1.505987	-1.594556	-0.416821	1.535244	-0.157255	0.380449	0.038100	0.924017	-0.420333	0.897109	0.136075	-0.823759	-0.440164	0.357319
01721	7.001738	-1.455346	-1.698604	-0.190770	1.375796	-0.082859	0.392032	0.043411	0.918927	-0.418501	0.897958	0.136121	-0.819248	-0.437935	0.370196
01722	7.454202	-1.262666	-1.225704	0.107499	1.196379	-0.016462	0.401814	0.048520	0.914435	-0.419368	0.897472	0.136656	-0.814049	-0.438395	0.380965
01723	7.185473	-1.118728	-0.721256	0.193536	1.149061	0.049660	0.410862	0.054024	0.910095	-0.421196	0.896574	0.136927	-0.808571	-0.439587	0.391123
01724	6.602522	-1.167682	-0.658578	0.344613	0.950076	0.093297	0.418058	0.059063	0.906498	-0.424416	0.894979	0.137419	-0.803180	-0.442181	0.399221
01725	6.388739	-0.755718	-0.532871	0.573437	0.764226	0.094909	0.423704	0.063323	0.903585	-0.429461	0.892348	0.138845	-0.797520	-0.446883	0.405286
01726	6.115926	-0.326601	-0.507332	0.720065	0.557648	0.057822	0.427813	0.066361	0.901428	-0.435487	0.889047	0.141230	-0.792040	-0.452980	0.409245
01727	6.062385	0.312690	-0.367421	0.955184	0.207536	0.012649	0.429330	0.067435	0.900627	-0.443138	0.884648	0.145006	-0.786959	-0.461358	0.409689
01728	6.434403	2.218863	0.199618	1.163796	-0.056822	-0.103611	0.429269	0.066268	0.900742	-0.451881	0.879263	0.150666	-0.782005	-0.471705	0.407385
01729	6.484730	3.979524	0.644969	0.859357	-0.224200	-0.272760	0.428693	0.062820	0.901264	-0.457474	0.875327	0.156589	-0.779064	-0.479433	0.403985
01730	6.240558	5.606264	0.588150	0.523657	-0.330274	-0.496422	0.428316	0.056892	0.901836	-0.459479	0.873076	0.163147	-0.778090	-0.484254	0.400094
01731	6.508927	8.215726	3.267584	0.176270	-0.541354	-0.684076	0.427172	0.048305	0.902879	-0.457981	0.872556	0.169998	-0.779600	-0.486120	0.394854
01732	8.636742	9.734792	8.126548	-0.485555	-0.825930	-0.682474	0.423735	0.038332	0.904975	-0.451330	0.875178	0.174256	-0.785334	-0.482281	0.388144
01733	11.044141	8.249595	10.822197	-1.283787	-0.867120	-0.553566	0.419283	0.029347	0.907381	-0.438910	0.881463	0.174303	-0.794707	-0.471341	0.382463
01734	11.028431	2.149353	11.303330	-2.293630	-0.654537	-0.391537	0.415658	0.022839	0.909234	-0.418950	0.892122	0.169115	-0.807285	-0.451218	0.380386
01735	9.672458	-5.692654	8.674370	-2.688642	-0.522991	-0.113015	0.411796	0.019541	0.911066	-0.396656	0.903934	0.159898	-0.820419	-0.427225	0.379988
01736	9.413830	-7.563579	9.592635	-1.857848	-0.174250	0.088084	0.409962	0.019612	0.911892	-0.381752	0.911677	0.152018	-0.828370	-0.410438	0.381240
01737	8.538518	-4.736249	11.134513	-0.555686	0.131372	0.078912	0.410686	0.020885	0.911538	-0.377525	0.913908	0.149152	-0.829947	-0.405383	0.383214
01738	8.056814	-1.052046	10.861641	0.183585	0.187557	-0.116353	0.412631	0.020610	0.910665	-0.378625	0.913167	0.150893	-0.828479	-0.407064	0.384605
01739	7.629440	0.619115	9.267528	0.077416	0.134202	-0.182399	0.414368	0.019508	0.909900	-0.378569	0.912868	0.152829	-0.827638	-0.407787	0.385649
01740	7.569646	0.992200	8.440556	-0.152123	0.322963	-0.073296	0.417277	0.020189	0.908555	-0.377064	0.913483	0.152878	-0.826863	-0.406376	0.388788
01741	6.082198	0.003685	5.487715	-0.272995	0.910130	0.039269	0.424577	0.024251	0.905067	-0.375033	0.914560	0.151426	-0.824066	-0.403722	0.397396
01742	1.126818	-1.629746	0.159384	0.103875	0.343446	0.018202	0.427302	0.025847	0.903739	-0.376024	0.914117	0.151647	-0.822204	-0.404627	0.400323
01743	5.030346	-1.684844	-0.104058	0.931431	-1.399497	0.023583	0.415624	0.020354	0.909309	-0.383850	0.910281	0.155074	-0.824570	-0.413490	0.386147
01744	15.256789	1.321145	5.856990	1.177663	-1.435984	0.133893	0.403215	0.015596	0.914972	-0.394176	0.905303	0.158277	-0.825859	-0.424480	0.371179
01745	16.019805	5.089601	10.371366	0.602089	-0.211194	0.108283	0.400977	0.015687	0.915954	-0.399636	0.902693	0.159488	-0.824323	-0.429999	0.368228
01746	13.691761	4.170930	8.554070	-0.041840	-0.178790	-0.065372	0.399728	0.014371	0.916521	-0.399087	0.902863	0.159899	-0.825195	-0.429688	0.366635
01747	14.288426	2.362175	6.329232	-0.124188	-0.451292	-0.301157	0.397131	0.009730	0.917710	-0.396917	0.903412	0.162184	-0.827492	-0.428663	0.362635
01748	12.151394	1.603772	3.937819	-0.056171	-0.505068	-0.477494	0.394804	0.003294	0.918759	-0.394619	0.903664	0.166333	-0.829702	-0.428229	0.358071
01749	9.434255	-0.017195	0.619384	-0.081815	-0.757924	-0.491765	0.390371	-0.004378	0.920647	-0.392064	0.903992	0.170542	-0.833004	-0.427527	0.351176
01750	8.028856	-0.827856	-1.755586	0.196784	-0.921713	-0.410926	0.384256	-0.011997	0.923149	-0.392173	0.903097	0.174976	-0.835792	-0.429269	0.342315
01751	7.289414	-0.178470	-2.283798	0.621107	-0.915622	-0.297253	0.377704	-0.018618	0.925739	-0.396290	0.900349	0.179795	-0.836836	-0.434771	0.332687
01752	7.431766	1.706748	-2.536293	0.851116	-0.931595	-0.201109	0.370664	-0.024469	0.928445	-0.402720	0.896555	0.184407	-0.836914	-0.442256	0.322466
01753	8.741706	2.738155	-3.082535	0.753013	-0.928063	-0.209886	0.363679	-0.030468	0.931026	-0.408308	0.893123	0.188722	-0.837271	-0.448779	0.312370
01754	9.765547	2.507533	-2.664857	0.449389	-0.970469	-0.320249	0.356801	-0.037666	0.933421	-0.410978	0.890971	0.193050	-0.838922	-0.452496	0.302419
01755	10.233008	2.208389	-1.418990	0.221877	-1.070094	-0.350217	0.349181	-0.045622	0.935944	-0.411661	0.889800	0.196955	-0.841788	-0.454065	0.291921
01756	9.886488	2.482673	-1.262061	0.204749	-1.154811	-0.265806	0.340471	-0.053211	0.938748	-0.412529	0.888719	0.199994	-0.844925	-0.455353	0.280633
01757	10.176935	2.990303	-0.325211	-0.006127	-1.193895	-0.208986	0.331153	-0.060487	0.941636	-0.411830	0.888610	0.201913	-0.848960	-0.454658	0.269356
01758	10.325691	2.535793	0.554669	-0.390395	-1.186790	-0.223118	0.321887	-0.067822	0.944346	-0.407833	0.890216	0.202948	-0.854436	-0.450462	0.258889
01759	10.058325	1.265162	0.485571	-0.523878	-1.205652	-0.278530	0.312610	-0.075689	0.946861	-0.402512	0.892344	0.204222	-0.860383	-0.444965	0.248489
01760	9.737793	1.328905	0.613158	-0.231287	-1.190123	-0.331100	0.303593	-0.083904	0.949100	-0.399553	0.893089	0.206759	-0.864979	-0.441987	0.237611
01761	9.550253	1.551580	0.656571	-0.035274	-1.112921	-0.310118	0.295116	-0.091572	0.951063	-0.398373	0.892956	0.209592	-0.868450	-0.440732	0.227046
01762	9.376265	1.299128	1.032917	0.063043	-1.005433	-0.231800	0.287212	-0.098052	0.952835	-0.398298	0.892445	0.211896	-0.871130	-0.440372	0.217267
01763	9.328076	1.025792	1.371135	0.137757	-0.918333	-0.144714	0.279711	-0.103375	0.954503	-0.399143	0.891676	0.213537	-0.873182	-0.440712	0.208150
01764	9.600760	1.074230	1.964038	0.280325	-0.853833	-0.068729	0.272439	-0.107740	0.956122	-0.401444	0.890359	0.214718	-0.874425	-0.442327	0.199317
01765	9.735278	1.495229	2.278503	0.423789	-0.790815	-0.045525	0.265637	-0.111641	0.957587	-0.405081	0.888412	0.215946	-0.874841	-0.445264	0.190772
01766	9.478771	1.789646	2.207837	0.587191	-0.746626	-0.075979	0.259330	-0.115636	0.958841	-0.410058	0.885692	0.217719	-0.874414	-0.449642	0.182269
01767	9.192158	2.428142	2.054286	0.748258	-0.741762	-0.124139	0.253291	-0.120077	0.959909	-0.416331	0.882144	0.220207	-0.873219	-0.455416	0.173448
01768	9.133099	2.633603	1.771513	0.835264	-0.718363	-0.132726	0.247494	-0.124523	0.960854	-0.423316	0.878149	0.222841	-0.871522	-0.461897	0.164624
01769	8.997942	2.883524	1.598714	0.892085	-0.670633	-0.120469	0.242101	-0.128687	0.961679	-0.430838	0.873828	0.225394	-0.869348	-0.468896	0.156111
01770	9.103136	3.187729	1.464618	0.922756	-0.638969	-0.096644	0.236888	-0.132532	0.962455	-0.438659	0.869334	0.227676	-0.866869	-0.476123	0.147799
01771	9.108913	3.211951	0.757316	0.918853	-0.620388	-0.058946	0.231709	-0.136009	0.963230	-0.446525	0.864831	0.229528	-0.864249	-0.483290	0.139658
01772	9.121059	3.180211	-0.134212	0.979957	-0.652435	-0.034211	0.226147	-0.139469	0.964057	-0.454938	0.860004	0.231135	-0.861329	-0.490857	0.131038
01773	9.233468	3.107982	-0.828608	1.042008	-0.708238	-0.004698	0.220009	-0.143005	0.964959	-0.463936	0.854825	0.232460	-0.858114	-0.498823	0.121724
01774	9.373422	3.103588	-1.154437	1.054693	-0.764901	0.030484	0.213226	-0.146583	0.965944	-0.473071	0.849560	0.233349	-0.854833	-0.506716	0.111804
01775	9.582916	3.103491	-1.054161	0.933945	-0.804177	0.066369	0.205975	-0.150115	0.966975	-0.481230	0.844877	0.233667	-0.852052	-0.513466	0.101783
01776	9.661254	3.024476	-0.980034	0.796784	-0.813054	0.083454	0.198558	-0.153606	0.967977	-0.488214	0.840884	0.233584	-0.849836	-0.518960	0.091972
01777	9.764210	2.947543	-0.851933	0.600682	-0.820526	0.118162	0.190939	-0.156881	0.968984	-0.493593	0.837921	0.232925	-0.848474	-0.522758	0.082556
01778	9.757965	3.042696	-0.565645	0.476512	-0.801991	0.127806	0.183407	-0.160017	0.969926	-0.497901	0.835623	0.232009	-0.847618	-0.525480	0.073587
01779	9.661286	3.188571	-0.412478	0.330498	-0.795431	0.124901	0.175970	-0.163153	0.970781	-0.500974	0.834068	0.230987	-0.847384	-0.526983	0.065035
01780	9.698842	3.335607	0.024253	0.155886	-0.771738	0.110895	0.168773	-0.166300	0.971525	-0.502515	0.833426	0.229958	-0.847935	-0.527016	0.057091
01781	9.702345	3.260976	0.556039	-0.027806	-0.741049	0.072833	0.162046	-0.169587	0.972102	-0.502446	0.833677	0.229194	-0.849287	-0.525569	0.049886
01782	9.794253	2.815360	1.007829	-0.209692	-0.713220	0.022091	0.155773	-0.173146	0.972500	-0.500730	0.834807	0.228837	-0.851472	-0.522606	0.043341
01783	9.721532	2.175434	1.078708	-0.281836	-0.658457	-0.018666	0.150179	-0.176725	0.972736	-0.498345	0.836226	0.228863	-0.853873	-0.519128	0.037514
01784	9.422572	1.616485	0.995659	-0.251663	-0.612273	-0.033160	0.145011	-0.180176	0.972887	-0.496164	0.837471	0.229051	-0.856034	-0.515926	0.032046
01785	9.115099	1.280322	0.791730	-0.077010	-0.579147	-0.003104	0.139993	-0.183178	0.973061	-0.495546	0.837846	0.229017	-0.857226	-0.514257	0.026520
01786	8.963319	1.615994	0.675780	0.191530	-0.567036	0.037298	0.134850	-0.185785	0.973293	-0.497264	0.836927	0.228651	-0.857056	-0.514817	0.020476
01787	8.993360	1.994666	0.385543	0.409484	-0.578648	0.083932	0.129403	-0.188062	0.973595	-0.500927	0.834956	0.227862	-0.855761	-0.517186	0.013841
01788	9.218661	2.389664	0.042704	0.556395	-0.608688	0.116653	0.123516	-0.190249	0.973935	-0.505857	0.832287	0.226733	-0.853729	-0.520677	0.006562
01789	9.474119	2.825413	-0.295228	0.636271	-0.649062	0.134213	0.117228	-0.192520	0.974266	-0.511487	0.829202	0.225399	-0.851257	-0.524748	-0.001266
01790	9.574825	2.954079	-0.574275	0.639518	-0.680357	0.140516	0.110625	-0.194943	0.974556	-0.517106	0.826105	0.223947	-0.848742	-0.528723	-0.009419
01791	9.468066	2.881603	-0.508428	0.541215	-0.716186	0.142218	0.103742	-0.197562	0.974785	-0.521891	0.823498	0.222443	-0.846680	-0.531808	-0.017675
01792	9.408283	2.738481	-0.323326	0.385603	-0.739806	0.144404	0.096631	-0.200320	0.974954	-0.525328	0.821725	0.220904	-0.845395	-0.533516	-0.025830
01793	9.242069	2.663435	-0.214715	0.290183	-0.772155	0.153582	0.089225	-0.203176	0.975068	-0.527966	0.820470	0.219275	-0.844566	-0.534367	-0.034064
01794	9.381223	2.727588	-0.292357	0.279134	-0.814092	0.146962	0.081477	-0.206329	0.975085	-0.530465	0.819280	0.217685	-0.843782	-0.534985	-0.042698
01795	9.552384	2.641751	-0.296746	0.271240	-0.838896	0.138698	0.073591	-0.209679	0.974997	-0.532903	0.818101	0.216160	-0.842970	-0.535486	-0.051533
01796	9.646057	2.562318	-0.103927	0.245351	-0.855307	0.117027	0.065661	-0.213308	0.974776	-0.535068	0.817037	0.214833	-0.842254	-0.535677	-0.060486
01797	9.737762	2.323327	0.424755	0.180413	-0.846592	0.102199	0.057912	-0.217002	0.974452	-0.536692	0.816276	0.213673	-0.841789	-0.535354	-0.069191
01798	9.664622	2.511651	1.102917	0.181574	-0.814918	0.093401	0.050456	-0.220605	0.974057	-0.538282	0.815513	0.212580	-0.841253	-0.535044	-0.077600
01799	9.863369	2.680508	1.644534	0.163357	-0.762508	0.101133	0.043425	-0.223854	0.973655	-0.539745	0.814849	0.211415	-0.840708	-0.534706	-0.085439
01800	9.790474	2.305570	1.836131	0.164999	-0.660629	0.124325	0.037109	-0.226375	0.973333	-0.541193	0.814252	0.210009	-0.840079	-0.534554	-0.092297
01801	9.410554	2.054726	1.946825	0.265736	-0.553219	0.174063	0.031447	-0.227913	0.973174	-0.543524	0.813211	0.208014	-0.838805	-0.535484	-0.098303
01802	9.006280	2.169336	1.768276	0.435064	-0.484307	0.233925	0.026029	-0.228611	0.973170	-0.547252	0.811411	0.205249	-0.836563	-0.537911	-0.103988
01803	8.895598	2.522087	1.440380	0.629404	-0.450465	0.301731	0.020535	-0.228595	0.973305	-0.552616	0.808688	0.201592	-0.833183	-0.542004	-0.109719
01804	8.760047	2.928498	0.945129	0.789771	-0.471535	0.350306	0.014587	-0.228333	0.973474	-0.559250	0.805192	0.197242	-0.828871	-0.547293	-0.115950
01805	8.862865	3.044061	-0.307993	0.910612	-0.582942	0.381823	0.007547	-0.228471	0.973522	-0.566856	0.801038	0.192386	-0.823782	-0.553298	-0.123465
01806	9.319903	2.973173	-1.366331	0.940745	-0.717598	0.400903	-0.000713	-0.229257	0.973366	-0.574601	0.796729	0.187233	-0.818433	-0.559164	-0.132299
01807	9.740463	2.934108	-1.591187	0.825914	-0.793059	0.400874	-0.009575	-0.230521	0.973020	-0.581358	0.792997	0.182151	-0.813592	-0.563929	-0.141608
01808	9.968209	2.958790	-1.418764	0.627330	-0.819129	0.383340	-0.018538	-0.232119	0.972511	-0.586407	0.790338	0.177460	-0.809804	-0.566998	-0.150767
01809	9.910467	2.819172	-0.900318	0.370916	-0.811242	0.349333	-0.027225	-0.233962	0.971864	-0.589363	0.789031	0.173438	-0.807409	-0.568059	-0.159370
01810	9.946607	2.950485	-0.137346	0.200082	-0.808664	0.335565	-0.035809	-0.235905	0.971116	-0.590864	0.788699	0.169805	-0.805976	-0.567717	-0.167630
01811	9.850326	2.989794	0.602747	0.038736	-0.764916	0.299506	-0.043815	-0.237877	0.970307	-0.591092	0.789173	0.166780	-0.805413	-0.566233	-0.175185
01812	9.636123	3.124064	1.346755	-0.083357	-0.725279	0.271970	-0.051339	-0.239823	0.969458	-0.590282	0.790310	0.164247	-0.805563	-0.563821	-0.182137
01813	9.827692	2.820647	2.127022	-0.186970	-0.675983	0.254806	-0.058362	-0.241606	0.968618	-0.588670	0.791960	0.162072	-0.806264	-0.560738	-0.188447
01814	10.260408	2.459341	3.278530	-0.217759	-0.587407	0.258496	-0.064686	-0.242836	0.967908	-0.586752	0.793813	0.159945	-0.807179	-0.557576	-0.193833
01815	10.472768	3.111898	4.421372	-0.006970	-0.433319	0.274816	-0.069868	-0.243065	0.967491	-0.586545	0.794505	0.157247	-0.806897	-0.556491	-0.198079
01816	11.155422	4.386448	5.671528	0.143027	-0.252766	0.295759	-0.073697	-0.242112	0.967445	-0.587482	0.794436	0.154062	-0.805874	-0.557003	-0.200784
01817	12.019393	4.162164	7.064426	0.050098	0.045380	0.322713	-0.075301	-0.239291	0.968023	-0.587680	0.794919	0.150786	-0.805582	-0.557534	-0.200485
01818	11.827811	3.387800	8.224272	-0.025808	0.455625	0.336362	-0.073643	-0.234056	0.969430	-0.587211	0.795873	0.147545	-0.806077	-0.558394	-0.196051
01819	11.397613	2.377649	8.732674	-0.152225	0.813336	0.377775	-0.069370	-0.226499	0.971538	-0.585747	0.797578	0.144119	-0.807520	-0.559078	-0.187999
01820	11.241249	1.029755	8.347681	-0.336133	1.147927	0.445475	-0.062710	-0.216489	0.974269	-0.582704	0.800471	0.140363	-0.810261	-0.558909	-0.176346
01821	11.305407	-0.400304	7.911462	-0.459277	1.443295	0.539690	-0.054198	-0.204093	0.977450	-0.578695	0.804155	0.135821	-0.813741	-0.558284	-0.161691
01822	11.648194	-1.285068	7.155273	-0.384673	1.742704	0.646162	-0.043726	-0.189104	0.980983	-0.575202	0.807608	0.130044	-0.816842	-0.558577	-0.144086
01823	11.786244	-1.582598	5.600803	0.086526	2.021658	0.720139	-0.031427	-0.171945	0.984605	-0.575675	0.808405	0.122800	-0.817075	-0.562953	-0.124390
01824	11.721928	-1.150941	4.022030	0.793809	2.077420	0.700362	-0.018544	-0.154435	0.987829	-0.581931	0.805074	0.114940	-0.813026	-0.572717	-0.104800
01825	12.024092	-0.095254	3.016506	1.543684	2.055328	0.611376	-0.005593	-0.137606	0.990471	-0.594378	0.796986	0.107369	-0.804167	-0.588113	-0.086247
01826	12.297142	1.038818	1.378024	2.145738	1.975431	0.436823	0.007544	-0.122272	0.992468	-0.611461	0.784760	0.101330	-0.791239	-0.607620	-0.068844
01827	12.630941	2.081802	-0.953675	2.624036	1.836429	0.179060	0.020736	-0.109516	0.993769	-0.632070	0.768702	0.097902	-0.774634	-0.630161	-0.053282
01828	13.172603	3.572125	-2.839484	2.900143	1.688584	-0.151815	0.034648	-0.099763	0.994408	-0.654176	0.749963	0.098033	-0.755549	-0.653914	-0.039278
01829	14.182406	5.291833	-4.049449	2.568049	1.575584	-0.488246	0.049581	-0.092922	0.994438	-0.673183	0.732407	0.102001	-0.737812	-0.674496	-0.026241
01830	14.642207	5.763437	-4.906019	1.548675	1.584071	-0.728724	0.066141	-0.087389	0.993976	-0.684078	0.721230	0.108929	-0.726404	-0.687162	-0.012078
01831	13.569026	5.040406	-4.949934	0.604977	1.659933	-0.832796	0.083794	-0.081929	0.993109	-0.687869	0.716321	0.117134	-0.720982	-0.692944	0.003667
01832	12.151640	4.184457	-4.389085	-0.010833	1.671583	-0.827026	0.101534	-0.076230	0.991907	-0.686994	0.715774	0.125331	-0.719535	-0.694159	0.020306
01833	11.427378	3.492792	-3.848546	-0.529245	1.664839	-0.789464	0.118861	-0.070366	0.990414	-0.682349	0.718833	0.132960	-0.721299	-0.691612	0.037427
01834	11.131120	2.025953	-3.179268	-1.063153	1.664628	-0.706816	0.135714	-0.063997	0.988679	-0.673718	0.725711	0.139455	-0.726420	-0.685016	0.055373
01835	11.744510	1.132798	-2.512028	-1.388130	1.646487	-0.598762	0.151661	-0.057173	0.986778	-0.662766	0.734766	0.144434	-0.733308	-0.675907	0.073543
01836	12.674173	1.068962	-1.503268	-1.540695	1.584415	-0.497632	0.166614	-0.050220	0.984742	-0.650591	0.744854	0.148064	-0.740926	-0.665334	0.091431
01837	13.783830	1.399999	-1.070111	-1.557768	1.549066	-0.416989	0.180764	-0.043130	0.982580	-0.638310	0.754911	0.150566	-0.748255	-0.654408	0.108930
01838	13.551261	1.198514	-1.451154	-1.686758	1.657662	-0.353610	0.195467	-0.035065	0.980083	-0.624947	0.765720	0.152034	-0.755800	-0.642218	0.127759
01839	12.578013	0.602327	-1.831406	-1.804444	1.727752	-0.312303	0.210449	-0.026496	0.977246	-0.610650	0.777064	0.152571	-0.763425	-0.628864	0.147353
01840	12.228684	0.206621	-2.165399	-1.821017	1.812416	-0.270444	0.225978	-0.017337	0.973978	-0.596069	0.788351	0.152330	-0.770478	-0.614981	0.167816
01841	11.519502	-0.473730	-2.169012	-1.852894	2.067175	-0.284033	0.243569	-0.007028	0.969858	-0.581115	0.799551	0.151735	-0.776517	-0.600557	0.190662
01842	10.285438	-1.439325	-1.959217	-1.800486	2.289318	-0.358267	0.263443	0.003672	0.964668	-0.566159	0.810249	0.151529	-0.781065	-0.586075	0.215533
01843	9.247032	-1.747598	-1.474970	-1.632607	2.346707	-0.455026	0.284279	0.013562	0.958646	-0.552187	0.819720	0.152150	-0.783757	-0.572604	0.240518
01844	8.649659	-1.565746	-1.321799	-1.607161	2.228070	-0.495692	0.304449	0.022087	0.952273	-0.538109	0.828907	0.152813	-0.785970	-0.558950	0.264245
01845	8.517377	-1.316596	-1.675592	-1.556759	2.034800	-0.472942	0.322905	0.029388	0.945975	-0.524425	0.837599	0.152990	-0.787852	-0.545494	0.285876
01846	8.335343	-1.192424	-2.128869	-1.453784	1.912402	-0.419451	0.340128	0.036170	0.939683	-0.511568	0.845580	0.152620	-0.789057	-0.532623	0.306109
01847	8.036311	-1.233584	-2.406500	-1.312880	1.826489	-0.376346	0.356378	0.042602	0.933370	-0.499948	0.852617	0.151973	-0.789333	-0.520797	0.325153
01848	7.635415	-1.379186	-2.664053	-1.146575	1.770696	-0.334416	0.371965	0.048872	0.926959	-0.489690	0.858682	0.151228	-0.788572	-0.510174	0.343332
01849	7.091508	-1.378774	-2.750369	-0.918834	1.703283	-0.302759	0.386783	0.054890	0.920536	-0.481358	0.863461	0.150766	-0.786571	-0.501421	0.360393
01850	6.578337	-1.098435	-2.698042	-0.678570	1.557102	-0.276303	0.400282	0.060256	0.914409	-0.474950	0.867000	0.150777	-0.783707	-0.494652	0.375663
01851	6.412417	-0.443221	-2.601245	-0.392325	1.318916	-0.241008	0.411669	0.064670	0.909036	-0.470958	0.869057	0.151453	-0.780210	-0.490467	0.388221
01852	6.379435	0.010191	-2.683120	-0.124407	1.122746	-0.214185	0.421356	0.068305	0.904319	-0.469111	0.869806	0.152878	-0.776140	-0.488642	0.398541
01853	5.851980	0.183087	-2.681062	0.135608	0.974072	-0.260524	0.430049	0.070813	0.900024	-0.469106	0.869299	0.155753	-0.771361	-0.489188	0.407060
01854	6.045744	-0.100920	-2.239699	0.201904	0.802372	-0.248928	0.437326	0.072574	0.896370	-0.469591	0.868487	0.158790	-0.766962	-0.490370	0.413892
01855	5.446138	-1.301963	-2.679142	0.184164	0.576478	-0.148987	0.442372	0.074121	0.893764	-0.470400	0.867666	0.160869	-0.763565	-0.491591	0.418698
01856	5.105969	-2.301695	-3.426863	0.494490	0.188167	-0.002825	0.443747	0.075018	0.893007	-0.474169	0.865225	0.162937	-0.760429	-0.495739	0.419513
01857	5.569026	-2.154380	-2.887814	0.788840	-0.122706	0.151589	0.442027	0.075723	0.893800	-0.480881	0.861147	0.164862	-0.757209	-0.502685	0.417063
01858	6.232089	-1.685371	-1.521264	0.898517	-0.217637	0.193727	0.439360	0.076277	0.895067	-0.488543	0.856443	0.166825	-0.753849	-0.510575	0.413552
01859	6.290262	-0.373312	-0.479760	1.008327	-0.133935	0.188467	0.437359	0.077204	0.895967	-0.497003	0.851079	0.169272	-0.749470	-0.519331	0.410598
01860	5.961436	1.131310	0.633694	0.940924	-0.137094	0.200870	0.435238	0.078181	0.896914	-0.504930	0.845995	0.171281	-0.745394	-0.527427	0.407686
01861	5.880907	4.508630	2.689227	0.932291	-0.324442	0.108278	0.432209	0.077376	0.898448	-0.512388	0.840928	0.174067	-0.742061	-0.535587	0.403103
01862	7.783930	9.744797	10.558748	0.882714	-0.753618	-0.174487	0.427431	0.071829	0.901190	-0.518192	0.836298	0.179120	-0.740797	-0.543550	0.394681
01863	11.497477	13.988178	16.170751	-0.282548	-1.071473	-0.521448	0.422086	0.061653	0.904457	-0.513928	0.838151	0.182703	-0.746807	-0.541943	0.385457
01864	14.225963	8.845984	13.379898	-2.558960	-0.846571	-0.576474	0.418525	0.052261	0.906700	-0.492194	0.852076	0.178080	-0.763271	-0.520803	0.382337
01865	12.916823	-0.109564	11.684508	-3.239921	-0.052122	-0.398105	0.419963	0.048580	0.906240	-0.465592	0.868675	0.169195	-0.779009	-0.492994	0.387430
01866	9.062094	-3.763497	12.594762	-2.369993	0.469315	-0.172785	0.424371	0.049319	0.904145	-0.446298	0.880198	0.161462	-0.787863	-0.472038	0.395541
01867	7.448419	-3.961992	12.545189	-1.221910	0.554372	-0.027361	0.428802	0.051676	0.901919	-0.436591	0.885888	0.156812	-0.790897	-0.461011	0.402431
01868	7.250142	-3.382545	10.920592	-0.461862	0.719698	0.054686	0.434204	0.055467	0.899106	-0.433180	0.887982	0.154414	-0.789824	-0.456522	0.409592
01869	5.630521	-2.546212	8.826681	0.179908	0.833969	0.122589	0.440174	0.060380	0.895880	-0.435189	0.887064	0.154037	-0.785402	-0.457680	0.416740
01870	3.305348	-1.034565	5.515149	0.695910	0.540152	0.099617	0.443925	0.063765	0.893792	-0.441076	0.883804	0.156019	-0.779989	-0.463491	0.420468
01871	2.231020	-0.180499	-0.244851	1.134236	-0.611028	0.077523	0.438755	0.061596	0.896493	-0.450308	0.878415	0.160032	-0.777636	-0.473913	0.413146
01872	8.169867	0.480256	-1.188679	1.377355	-1.635737	0.195357	0.425095	0.055468	0.903448	-0.461877	0.871686	0.163807	-0.778437	-0.486915	0.396169
01873	14.599030	3.633621	3.924970	1.137852	-1.184448	0.288468	0.414463	0.052154	0.908570	-0.471998	0.865905	0.165607	-0.778099	-0.497481	0.383503
01874	15.252082	6.280016	7.884393	0.075642	-0.360544	0.278108	0.410294	0.052779	0.910425	-0.473731	0.865393	0.163324	-0.779255	-0.498307	0.380068
01875	14.088137	4.199214	6.842815	-0.706326	-0.320801	0.071000	0.407385	0.051815	0.911785	-0.468555	0.868829	0.159976	-0.783896	-0.492394	0.378227
01876	14.388635	1.114955	4.767395	-0.746463	-0.402819	-0.184014	0.405030	0.048254	0.913029	-0.461936	0.872580	0.158804	-0.789028	-0.486082	0.375711
01877	11.850174	-0.167443	3.968213	-0.414818	-0.389992	-0.341031	0.403447	0.043396	0.913973	-0.457332	0.874721	0.160344	-0.792514	-0.482680	0.372750
01878	9.383331	-0.656712	2.776015	-0.214906	-0.606639	-0.449464	0.400629	0.036551	0.915511	-0.453811	0.875948	0.163618	-0.795960	-0.481019	0.367518
01879	8.334341	-0.588501	0.310073	0.030266	-0.914854	-0.403479	0.395093	0.028624	0.918195	-0.452502	0.875910	0.167403	-0.799464	-0.481625	0.359018
01880	8.391268	-0.357398	-1.602216	0.457632	-1.100375	-0.261416	0.387417	0.021027	0.921665	-0.455131	0.873777	0.171378	-0.801726	-0.485873	0.348086
01881	8.675235	0.696530	-1.727283	0.681645	-1.022422	-0.157014	0.379867	0.014668	0.924925	-0.460051	0.870448	0.175139	-0.802530	-0.492042	0.337403
01882	8.650921	2.128443	-0.920821	0.678532	-0.865445	-0.154530	0.373573	0.009052	0.927557	-0.464903	0.867124	0.178777	-0.802688	-0.498010	0.328142
01883	9.165547	3.895155	0.227683	0.555147	-0.884077	-0.226205	0.367461	0.002679	0.930035	-0.468577	0.864335	0.182648	-0.803373	-0.502909	0.318865
01884	9.816705	4.104693	-0.135187	0.309639	-1.028008	-0.265551	0.360369	-0.004792	0.932798	-0.470096	0.862784	0.186045	-0.805695	-0.505549	0.308668
01885	10.329904	3.005202	-0.125770	0.137619	-1.071130	-0.247015	0.352815	-0.012335	0.935612	-0.470380	0.862044	0.188743	-0.808866	-0.506684	0.298340
01886	9.753868	2.480212	-0.081524	0.165433	-1.012062	-0.221542	0.345584	-0.019380	0.938188	-0.470930	0.861188	0.191257	-0.811663	-0.507916	0.288486
01887	9.576013	2.264480	-0.154965	0.234840	-1.025789	-0.191982	0.338082	-0.026243	0.940751	-0.472236	0.859927	0.193698	-0.814060	-0.509742	0.278333
01888	9.379195	2.569449	-0.198505	0.306282	-1.017060	-0.177869	0.330554	-0.032973	0.943211	-0.474116	0.858332	0.196163	-0.816056	-0.512034	0.268092
01889	9.233284	2.762739	-0.390081	0.296974	-1.039875	-0.174557	0.322818	-0.039798	0.945624	-0.476025	0.856723	0.198563	-0.818040	-0.514240	0.257621
01890	9.187389	2.775146	-0.541737	0.237301	-1.063694	-0.153313	0.314750	-0.046599	0.948030	-0.477456	0.855458	0.200566	-0.820346	-0.515771	0.247007
01891	9.389223	2.648050	-0.564831	0.101822	-1.053399	-0.087285	0.306442	-0.052773	0.950425	-0.478074	0.854868	0.201610	-0.823128	-0.516155	0.236738
01892	9.714993	1.936336	-0.353480	-0.097216	-0.998766	-0.009472	0.298157	-0.058016	0.952752	-0.477212	0.855392	0.201428	-0.826662	-0.514722	0.227355
01893	9.899786	1.088696	0.011537	-0.192112	-0.938561	0.052069	0.290064	-0.062384	0.954972	-0.475825	0.856389	0.200471	-0.830333	-0.512549	0.218723
01894	10.032867	0.758110	0.355560	-0.116250	-0.905351	0.065980	0.282121	-0.066466	0.957074	-0.475013	0.857056	0.199542	-0.833529	-0.510918	0.210221
01895	10.120895	0.443617	0.702813	-0.020378	-0.885167	0.058598	0.274383	-0.070475	0.959034	-0.475057	0.857180	0.198906	-0.836083	-0.510173	0.201716
01896	9.931190	0.465295	1.155890	0.188590	-0.842218	0.010229	0.267184	-0.074702	0.960746	-0.476621	0.856260	0.199127	-0.837523	-0.511115	0.193175
01897	9.686250	1.476810	1.647619	0.438359	-0.823785	-0.038363	0.260398	-0.079246	0.962244	-0.480242	0.853963	0.200289	-0.837592	-0.514264	0.184313
01898	9.493115	2.324065	1.900122	0.542355	-0.807045	-0.039680	0.253727	-0.083760	0.963642	-0.484653	0.851159	0.201592	-0.837098	-0.518182	0.175368
01899	9.561663	2.457761	1.931858	0.531344	-0.796027	-0.008382	0.247036	-0.087964	0.965005	-0.489129	0.848368	0.202546	-0.836496	-0.522048	0.166552
01900	9.679761	2.564373	2.248028	0.538071	-0.742318	0.006050	0.240694	-0.091813	0.966249	-0.493603	0.845590	0.203305	-0.835717	-0.525878	0.158209
01901	9.386550	2.533908	2.309446	0.497775	-0.688867	0.002038	0.234859	-0.095424	0.967334	-0.497815	0.842945	0.204018	-0.834878	-0.529469	0.150470
01902	9.111033	2.529031	2.360717	0.565684	-0.662041	-0.002040	0.229240	-0.098972	0.968325	-0.502480	0.839980	0.204810	-0.833645	-0.533514	0.142825
01903	8.878766	2.970595	2.218182	0.622597	-0.639610	0.022326	0.223729	-0.102206	0.969278	-0.507764	0.836646	0.205423	-0.831938	-0.538123	0.135285
01904	8.597821	3.165550	1.816756	0.655961	-0.652484	0.067887	0.217855	-0.105178	0.970297	-0.513310	0.833219	0.205570	-0.830092	-0.542847	0.127531
01905	8.608919	3.071574	1.297754	0.656102	-0.700467	0.106193	0.211427	-0.108109	0.971396	-0.519026	0.829735	0.205311	-0.828197	-0.547588	0.119317
01906	8.673209	3.059577	0.407845	0.677093	-0.776381	0.134209	0.204200	-0.111280	0.972584	-0.524860	0.826201	0.204729	-0.826332	-0.552276	0.110304
01907	9.104249	2.837550	-0.244048	0.634262	-0.856229	0.164769	0.196191	-0.114665	0.973838	-0.530473	0.822850	0.203756	-0.824687	-0.556570	0.100609
01908	9.490726	2.419682	-0.571843	0.527584	-0.865260	0.201300	0.187880	-0.117856	0.975095	-0.535146	0.820192	0.202245	-0.823601	-0.559817	0.091028
01909	9.583704	2.383709	-0.573611	0.481593	-0.852113	0.223410	0.179594	-0.120806	0.976295	-0.539567	0.817735	0.200442	-0.822565	-0.562775	0.081677
01910	9.729301	2.519719	-0.367402	0.373723	-0.836949	0.233596	0.171338	-0.123632	0.977424	-0.542992	0.815966	0.198394	-0.822073	-0.564726	0.072675
01911	9.984844	2.329016	-0.030856	0.206708	-0.809113	0.223423	0.163398	-0.126379	0.978432	-0.545111	0.815056	0.196310	-0.822287	-0.565430	0.064288
01912	10.013145	2.322744	0.355349	0.072256	-0.767014	0.181932	0.155985	-0.129247	0.979267	-0.545943	0.814929	0.194519	-0.823174	-0.564966	0.056555
01913	9.994474	1.974427	0.648965	-0.081710	-0.721180	0.147590	0.149165	-0.132110	0.979947	-0.545540	0.815562	0.192989	-0.824704	-0.563387	0.049582
01914	9.928487	1.676581	0.850115	-0.148737	-0.657390	0.127085	0.142932	-0.134784	0.980512	-0.544435	0.816622	0.191619	-0.826535	-0.561214	0.043341
01915	9.703640	1.689184	1.215319	-0.133668	-0.573720	0.120416	0.137458	-0.137011	0.980986	-0.543543	0.817515	0.190342	-0.828050	-0.559372	0.037903
01916	9.537564	1.692830	1.479290	-0.089487	-0.497358	0.114959	0.132600	-0.138860	0.981394	-0.542891	0.818230	0.189126	-0.829268	-0.557869	0.033111
01917	9.280277	1.695429	1.393397	0.011637	-0.459823	0.112315	0.128103	-0.140502	0.981758	-0.543179	0.818302	0.187985	-0.829787	-0.557351	0.028510
01918	9.091061	1.655390	1.056753	0.181165	-0.493449	0.130342	0.123191	-0.142196	0.982143	-0.544793	0.817524	0.186697	-0.829473	-0.558063	0.023244
01919	9.115427	1.599883	0.437083	0.372704	-0.532044	0.166998	0.117797	-0.143804	0.982570	-0.548126	0.815659	0.185089	-0.828059	-0.560375	0.017259
01920	9.253641	1.732096	-0.150613	0.501362	-0.572956	0.203453	0.111829	-0.145374	0.983036	-0.552446	0.813190	0.183102	-0.826013	-0.563550	0.010626
01921	9.321181	2.109949	-0.533155	0.571105	-0.632753	0.227411	0.105275	-0.147103	0.983503	-0.557446	0.810273	0.180863	-0.823512	-0.567290	0.003299
01922	9.453436	2.285174	-1.024296	0.556018	-0.717798	0.240365	0.097916	-0.149250	0.983939	-0.562205	0.807518	0.178437	-0.821181	-0.570647	-0.004840
01923	9.590672	2.053740	-1.426969	0.463670	-0.771577	0.257334	0.090062	-0.151585	0.984333	-0.566292	0.805234	0.175818	-0.819269	-0.573254	-0.013320
01924	9.614370	2.228376	-1.344811	0.459427	-0.810514	0.263805	0.081816	-0.154128	0.984658	-0.570209	0.803059	0.173081	-0.817415	-0.575622	-0.022182
01925	9.892273	2.596865	-0.758142	0.341884	-0.840986	0.250823	0.073440	-0.156960	0.984871	-0.573238	0.801459	0.170475	-0.816091	-0.577085	-0.031117
01926	9.995979	2.676674	0.031050	0.138287	-0.800778	0.225536	0.065494	-0.159780	0.984978	-0.574448	0.801085	0.168147	-0.815917	-0.576831	-0.039319
01927	9.794153	2.414128	0.558797	-0.043516	-0.767752	0.196180	0.058027	-0.162629	0.984980	-0.574254	0.801632	0.166187	-0.816618	-0.575272	-0.046874
01928	9.566227	1.930766	0.839930	-0.119586	-0.754278	0.190745	0.050653	-0.165434	0.984919	-0.573303	0.802699	0.164311	-0.817776	-0.572980	-0.054185
01929	9.472868	1.595284	1.111660	-0.091253	-0.740590	0.192976	0.043414	-0.168118	0.984810	-0.572687	0.803524	0.162417	-0.818624	-0.571039	-0.061395
01930	9.425622	1.450699	1.459786	-0.026441	-0.723980	0.212057	0.036159	-0.170544	0.984686	-0.572482	0.804097	0.160289	-0.819119	-0.569511	-0.068558
01931	9.457793	1.588803	1.935145	0.069551	-0.700705	0.220360	0.029085	-0.172758	0.984535	-0.573163	0.804060	0.158022	-0.818925	-0.568895	-0.075633
01932	9.375594	1.864016	2.128046	0.209165	-0.670197	0.216241	0.022247	-0.174831	0.984347	-0.574851	0.803314	0.155670	-0.817956	-0.569316	-0.082630
01933	9.248874	2.235934	2.020176	0.346195	-0.642652	0.210795	0.015708	-0.176801	0.984121	-0.577758	0.801692	0.153249	-0.816057	-0.570991	-0.089555
01934	9.139907	2.410823	1.666499	0.441236	-0.655359	0.229166	0.008935	-0.178708	0.983862	-0.581305	0.799641	0.150526	-0.813637	-0.573269	-0.096740
01935	9.347366	2.349892	1.263525	0.476218	-0.665932	0.261008	0.001930	-0.180449	0.983583	-0.585225	0.797355	0.147431	-0.810868	-0.575902	-0.104065
01936	9.550449	1.987407	0.552152	0.525569	-0.690503	0.319128	-0.005635	-0.181885	0.983304	-0.589395	0.794967	0.143670	-0.807825	-0.578745	-0.111681
01937	9.650536	1.392216	-0.425191	0.665492	-0.746902	0.394412	-0.014062	-0.183091	0.982995	-0.594756	0.791803	0.138972	-0.803783	-0.582688	-0.120029
01938	9.925329	1.474967	-0.936890	0.831184	-0.791151	0.454268	-0.023218	-0.184121	0.982629	-0.601252	0.787842	0.133416	-0.798722	-0.587711	-0.128995
01939	10.199143	2.102965	-0.929139	0.860840	-0.801756	0.488413	-0.032626	-0.185016	0.982194	-0.608004	0.783643	0.127419	-0.793263	-0.593020	-0.138058
01940	10.475573	2.740322	-0.688806	0.690460	-0.770151	0.480890	-0.041756	-0.185822	0.981696	-0.613200	0.780503	0.121657	-0.788823	-0.596896	-0.146537
01941	10.548205	3.049721	-0.136374	0.389258	-0.726450	0.428746	-0.050185	-0.186822	0.981111	-0.616103	0.778956	0.116814	-0.786066	-0.598603	-0.154193
01942	10.614825	2.977471	0.562580	0.097782	-0.680469	0.362189	-0.057860	-0.188056	0.980452	-0.616591	0.779124	0.113053	-0.785155	-0.597997	-0.161034
01943	10.814171	2.794770	1.412056	-0.095677	-0.607935	0.309175	-0.064612	-0.189276	0.979796	-0.615684	0.780260	0.110129	-0.785340	-0.596129	-0.166948
01944	11.053997	2.853645	2.498023	-0.222796	-0.501170	0.279964	-0.070365	-0.190049	0.979250	-0.613648	0.782198	0.107712	-0.786438	-0.593336	-0.171663
01945	11.446639	3.036348	4.261320	-0.333986	-0.372090	0.261888	-0.074971	-0.190199	0.978879	-0.610862	0.784653	0.105675	-0.788180	-0.590037	-0.175011
01946	11.853609	3.424784	6.640573	-0.376688	-0.148851	0.237429	-0.077676	-0.189183	0.978865	-0.607612	0.787401	0.103963	-0.790427	-0.586694	-0.176112
01947	11.606089	3.999268	8.802678	-0.469858	0.190725	0.216951	-0.077553	-0.186354	0.979417	-0.603756	0.790538	0.102609	-0.793388	-0.583371	-0.173821
01948	11.355529	4.296874	10.116034	-0.818867	0.543921	0.176704	-0.074353	-0.181758	0.980528	-0.596990	0.795709	0.102229	-0.798796	-0.577765	-0.167671
01949	11.114824	3.437323	10.519123	-1.278622	0.918989	0.147418	-0.067920	-0.175307	0.982168	-0.586653	0.803286	0.102810	-0.806985	-0.569209	-0.157403
01950	10.831907	1.816634	10.671470	-1.542615	1.228292	0.163816	-0.058950	-0.167004	0.984192	-0.573878	0.812377	0.103476	-0.816816	-0.558706	-0.143729
01951	11.257242	-0.132996	9.599051	-1.507834	1.508621	0.245515	-0.048023	-0.156640	0.986488	-0.561395	0.821107	0.103050	-0.826153	-0.548860	-0.127369
01952	11.806887	-1.334629	7.678065	-1.087368	1.784028	0.339895	-0.035153	-0.144034	0.988948	-0.552039	0.827688	0.100925	-0.833077	-0.542390	-0.108608
01953	12.506899	-1.399521	5.598064	-0.362478	2.051363	0.378094	-0.020192	-0.129769	0.991339	-0.548947	0.830153	0.097489	-0.835613	-0.542224	-0.087999
01954	12.853811	-0.503591	3.778825	0.360188	2.291051	0.325751	-0.002847	-0.114537	0.993415	-0.551957	0.828563	0.093948	-0.833867	-0.548055	-0.065578
01955	13.065019	0.667485	2.181627	1.037017	2.425280	0.163888	0.016321	-0.099750	0.994879	-0.560624	0.822976	0.091712	-0.827910	-0.559250	-0.042491
01956	12.620369	2.223259	0.611637	1.550133	2.200816	-0.057674	0.034783	-0.087705	0.995539	-0.573415	0.814111	0.091756	-0.818526	-0.574049	-0.021974
01957	12.785294	2.056430	-1.590039	1.202579	1.689857	-0.284465	0.050122	-0.080213	0.995517	-0.583131	0.806878	0.094373	-0.810830	-0.585247	-0.006332
01958	13.838674	1.972523	-2.698773	1.706870	1.414579	-0.459926	0.064245	-0.075475	0.995076	-0.596659	0.796374	0.098926	-0.799919	-0.600076	0.006131
01959	14.288285	2.548160	-3.286510	1.500677	1.470961	-0.464250	0.078662	-0.070227	0.994425	-0.608296	0.786908	0.103690	-0.789803	-0.613061	0.019180
01960	14.058617	1.819285	-4.173571	0.697618	1.662511	-0.396151	0.094177	-0.063054	0.993557	-0.613485	0.782315	0.107798	-0.784071	-0.619684	0.034994
01961	13.431080	0.694411	-3.177867	0.033961	1.880742	-0.422902	0.111425	-0.054694	0.992267	-0.613357	0.781829	0.111971	-0.781907	-0.621090	0.053568
01962	12.983866	-0.302114	-2.590173	-0.244388	2.115160	-0.480896	0.130901	-0.045299	0.990360	-0.610906	0.783076	0.116564	-0.780807	-0.620275	0.074832
01963	12.050401	-0.542341	-3.009602	-0.273462	2.241748	-0.472843	0.151198	-0.035114	0.987880	-0.608148	0.784553	0.120966	-0.779292	-0.619067	0.097268
01964	12.252885	-0.157521	-2.419500	-0.068738	2.270556	-0.449077	0.171581	-0.024551	0.984864	-0.606931	0.784815	0.125302	-0.776012	-0.619244	0.119758
01965	12.803793	0.757610	-1.847588	0.096185	2.304006	-0.488696	0.192299	-0.014104	0.981235	-0.606830	0.784096	0.130195	-0.771219	-0.620479	0.142222
01966	12.788795	1.202427	-2.205870	0.107121	2.313941	-0.573902	0.213554	-0.004206	0.976922	-0.606532	0.783348	0.135960	-0.765841	-0.621570	0.164737
01967	12.465499	1.393134	-2.441229	0.071232	2.300575	-0.652689	0.234994	0.004988	0.971984	-0.605657	0.782878	0.142410	-0.760235	-0.622155	0.186993
01968	11.826247	1.041285	-2.660170	-0.136578	2.297301	-0.686824	0.256537	0.013908	0.966434	-0.602978	0.783761	0.148780	-0.755385	-0.620906	0.209450
01969	10.956254	0.900553	-2.921614	-0.327917	2.273378	-0.625844	0.277354	0.023077	0.960491	-0.598884	0.785879	0.154053	-0.751274	-0.617950	0.231787
01970	10.002294	0.296838	-3.237950	-0.520341	2.271330	-0.540675	0.297577	0.032818	0.954134	-0.593474	0.789203	0.157949	-0.747821	-0.613255	0.254325
01971	8.961542	-0.172483	-3.435779	-0.497641	2.282031	-0.530113	0.317659	0.042566	0.947249	-0.588180	0.792413	0.161637	-0.743732	-0.608498	0.276754
01972	8.023992	-0.115338	-3.480135	-0.500624	2.243872	-0.592048	0.337729	0.051475	0.939835	-0.582573	0.795694	0.165767	-0.739288	-0.603507	0.298717
01973	7.294572	-0.108386	-3.692359	-0.529382	2.110861	-0.679429	0.357158	0.058740	0.932195	-0.576360	0.799219	0.170463	-0.735015	-0.598162	0.319303
01974	6.738839	0.190640	-3.771503	-0.627779	1.935359	-0.737051	0.375527	0.064359	0.924574	-0.569104	0.803378	0.175226	-0.731506	-0.591981	0.338317
01975	6.212734	0.318274	-3.843584	-0.794336	1.696942	-0.719840	0.391922	0.068541	0.917442	-0.560590	0.808499	0.179076	-0.729477	-0.584492	0.355292
01976	5.828701	-0.132839	-4.391834	-0.908474	1.442237	-0.629495	0.405886	0.071807	0.911098	-0.551503	0.814183	0.181521	-0.728767	-0.576150	0.370067
01977	5.425223	-0.799673	-4.905737	-0.893640	1.224732	-0.513010	0.417551	0.074625	0.905584	-0.542931	0.819642	0.182794	-0.728613	-0.567995	0.382759
01978	4.933661	-1.184761	-5.270830	-0.759930	1.030855	-0.416752	0.427247	0.077019	0.900849	-0.535685	0.824218	0.183593	-0.728355	-0.561010	0.393402
01979	4.525192	-0.765597	-4.884701	-0.451659	0.818720	-0.404678	0.435297	0.078257	0.896879	-0.530705	0.827027	0.185414	-0.727233	-0.556689	0.401534
01980	4.677014	-0.186029	-4.071002	-0.330492	0.562231	-0.330848	0.441062	0.078634	0.894025	-0.526905	0.829092	0.187023	-0.726523	-0.553555	0.407114
01981	4.463235	-0.281034	-3.512111	-0.328905	0.179925	-0.230423	0.443515	0.077720	0.892891	-0.523548	0.831059	0.187718	-0.727456	-0.550727	0.409277
01982	5.184431	-0.481633	-2.752466	-0.275852	-0.255856	-0.138394	0.442294	0.075154	0.893716	-0.520977	0.832652	0.187810	-0.730040	-0.548673	0.407431
01983	5.924926	-0.506143	-2.195006	-0.278699	-0.482757	-0.034224	0.438873	0.072229	0.895641	-0.518841	0.834175	0.186965	-0.733618	-0.546749	0.403573
01984	6.256655	0.274172	-1.126065	-0.266925	-0.495476	0.034193	0.434966	0.069800	0.897737	-0.517080	0.835580	0.185565	-0.737179	-0.544917	0.399541
01985	6.346342	2.507965	0.155131	-0.374446	-0.507154	0.077721	0.430750	0.067699	0.899929	-0.514702	0.837533	0.183357	-0.741307	-0.542176	0.395612
01986	6.862392	5.834044	6.667254	-0.680801	-0.615967	0.021986	0.425962	0.064547	0.902436	-0.509782	0.841164	0.180460	-0.747449	-0.536914	0.391208
01987	10.252093	9.631998	17.655819	-1.398065	-0.977431	-0.021781	0.418644	0.059175	0.906220	-0.499215	0.848579	0.175210	-0.758631	-0.525749	0.384794
01988	14.995948	7.177504	19.163917	-3.414351	-0.983880	-0.045723	0.411225	0.053739	0.909948	-0.472817	0.866042	0.162530	-0.779319	-0.497075	0.381547
01989	15.087487	-2.223133	15.839355	-4.415005	0.073613	-0.053985	0.411986	0.053629	0.909611	-0.437799	0.887141	0.145986	-0.799124	-0.458371	0.388968
01990	10.043734	-6.912544	14.996526	-3.093029	0.691848	-0.146176	0.418112	0.055401	0.906705	-0.412366	0.900944	0.135107	-0.809405	-0.430384	0.399541
01991	8.014908	-7.492315	13.022825	-1.042720	0.845575	-0.100515	0.425303	0.058106	0.903184	-0.403555	0.905415	0.131782	-0.810099	-0.420532	0.408525
01992	5.354129	-6.352812	10.472810	0.255949	1.063549	0.053787	0.433619	0.063105	0.898884	-0.405912	0.904282	0.132327	-0.804494	-0.422247	0.417729
01993	2.396127	-4.183229	8.024112	0.979764	0.830785	0.151733	0.439584	0.068032	0.895622	-0.414476	0.899981	0.135067	-0.796854	-0.430587	0.423815
01994	0.801612	-2.411702	2.939663	1.541372	-0.134477	0.178965	0.437715	0.069093	0.896455	-0.427561	0.893090	0.139933	-0.790947	-0.444540	0.420461
01995	2.701337	-0.817789	-3.723212	2.279108	-1.599309	0.283918	0.423782	0.064346	0.903476	-0.446833	0.882501	0.146738	-0.787876	-0.465887	0.402740
01996	11.928042	1.019156	-2.376815	2.590602	-2.262312	0.508527	0.403604	0.058033	0.913092	-0.469379	0.869782	0.152194	-0.785358	-0.490012	0.378286
01997	20.212813	7.096998	5.718339	1.851736	-1.145486	0.624099	0.391582	0.057732	0.918330	-0.486418	0.860166	0.153337	-0.781064	-0.506737	0.364907
01998	18.756269	9.480797	8.156473	-0.115481	-0.058291	0.505452	0.388607	0.061820	0.919327	-0.487547	0.860421	0.148232	-0.781845	-0.505820	0.364506
01999	16.280034	4.930441	6.164286	-1.010700	-0.226017	-0.066859	0.387090	0.060118	0.920080	-0.479410	0.865505	0.145142	-0.787609	-0.497279	0.363849
02000	13.880851	0.420264	3.016778	-0.727750	-0.507024	-0.624712	0.385999	0.052221	0.921020	-0.471301	0.869428	0.148226	-0.793020	-0.491293	0.360210
02001	10.132946	-3.598756	-0.131159	-0.449589	-0.921099	-0.854325	0.382598	0.040283	0.923036	-0.464494	0.871999	0.154477	-0.798664	-0.487847	0.352336
02002	9.387811	-4.673131	-1.065242	0.316570	-1.002477	-0.654730	0.377561	0.029703	0.925508	-0.464596	0.870654	0.161589	-0.800998	-0.490998	0.342525
02003	8.065748	-2.558188	-1.006664	1.371648	-0.661960	-0.205837	0.373171	0.024637	0.927435	-0.474838	0.863868	0.168111	-0.797040	-0.503115	0.334069
02004	7.175947	1.415779	-0.477050	1.921561	-0.552164	-0.008499	0.368760	0.021774	0.929270	-0.490114	0.854017	0.174480	-0.789813	-0.519790	0.325599
02005	8.318538	4.109236	-0.211800	1.509331	-0.719901	-0.033028	0.363187	0.017712	0.931548	-0.501931	0.846054	0.179604	-0.784959	-0.532802	0.316166
02006	9.112389	4.551504	-0.406465	0.846222	-0.841229	-0.099037	0.357015	0.012390	0.934016	-0.508271	0.841504	0.183117	-0.783710	-0.540109	0.306727
02007	9.123259	4.165073	-1.263824	0.639360	-0.946027	-0.090768	0.349996	0.006497	0.936729	-0.513013	0.838016	0.185867	-0.783786	-0.545607	0.296635
02008	9.086058	4.304803	-1.304371	0.511581	-0.917986	-0.048253	0.342969	0.001082	0.939346	-0.516914	0.835190	0.187771	-0.784329	-0.549961	0.287004
02009	9.043571	3.887471	-1.068774	0.340544	-0.919706	-0.039865	0.335887	-0.004316	0.941892	-0.519504	0.833286	0.189078	-0.785682	-0.552825	0.277647
02010	9.686856	2.798835	-1.031734	0.313454	-1.000817	-0.056939	0.328231	-0.010327	0.944541	-0.521835	0.831519	0.190431	-0.787371	-0.555400	0.267541
02011	10.069222	1.828189	-0.681975	0.417632	-0.988052	-0.060505	0.320693	-0.016330	0.947042	-0.524980	0.829160	0.192069	-0.788386	-0.558774	0.257333
02012	9.729821	1.876399	-0.470007	0.514525	-1.000674	-0.043058	0.312943	-0.022295	0.949510	-0.528955	0.826240	0.193735	-0.788843	-0.562876	0.246773
02013	9.695928	1.695463	-0.643902	0.485670	-1.047461	0.035231	0.304419	-0.027916	0.952129	-0.532947	0.823481	0.194541	-0.789491	-0.566656	0.235806
02014	9.909415	1.700132	-0.378893	0.399749	-1.016159	0.103943	0.295746	-0.032835	0.954702	-0.536470	0.821216	0.194431	-0.790401	-0.569671	0.225256
02015	9.801912	1.755961	-0.098023	0.336494	-0.973517	0.122672	0.287316	-0.037384	0.957106	-0.539539	0.819314	0.193967	-0.791421	-0.572126	0.215232
02016	9.829895	1.887410	0.489451	0.319415	-0.953471	0.106938	0.279092	-0.041977	0.959347	-0.542424	0.817500	0.193572	-0.792391	-0.574397	0.205388
02017	9.913119	2.368729	1.128149	0.281227	-0.912707	0.085280	0.271321	-0.046529	0.961364	-0.544938	0.815895	0.193284	-0.793365	-0.576325	0.196013
02018	9.880001	2.390030	1.581229	0.187684	-0.863760	0.070202	0.263982	-0.050945	0.963181	-0.546668	0.814822	0.192925	-0.794649	-0.577469	0.187248
02019	9.714031	1.985651	1.662169	0.163342	-0.817090	0.049919	0.257140	-0.055258	0.964793	-0.548145	0.813880	0.192708	-0.795874	-0.578400	0.178992
02020	9.652455	1.393186	1.718270	0.218276	-0.792304	0.028603	0.250577	-0.059620	0.966259	-0.550007	0.812608	0.192771	-0.796683	-0.579754	0.170829
02021	9.494927	1.742230	1.891987	0.338799	-0.725583	0.050762	0.244445	-0.063420	0.967587	-0.552880	0.810647	0.192810	-0.796599	-0.582091	0.163095
02022	9.277497	1.729300	1.895629	0.330069	-0.679359	0.075857	0.238516	-0.066774	0.968840	-0.555743	0.808747	0.192557	-0.796404	-0.584354	0.155790
02023	9.194979	1.945779	1.961088	0.347872	-0.639434	0.099654	0.232798	-0.069711	0.970023	-0.558795	0.806754	0.192085	-0.795960	-0.586761	0.148857
02024	9.261022	1.939772	1.970817	0.358845	-0.631912	0.096853	0.227131	-0.072652	0.971151	-0.561924	0.804688	0.191620	-0.795395	-0.589235	0.141944
02025	9.232954	2.036826	1.946991	0.406455	-0.628658	0.081274	0.221603	-0.075711	0.972193	-0.565384	0.802324	0.191357	-0.794502	-0.592068	0.134992
02026	9.137610	2.165972	1.954474	0.447078	-0.644909	0.075331	0.215960	-0.078941	0.973206	-0.569148	0.799704	0.191165	-0.793367	-0.595182	0.127775
02027	9.012833	2.300528	1.877541	0.455898	-0.662564	0.072749	0.210220	-0.082314	0.974183	-0.572964	0.797018	0.190985	-0.792162	-0.598320	0.120386
02028	8.964592	2.431027	1.654107	0.468603	-0.689612	0.076612	0.204226	-0.085847	0.975152	-0.576880	0.794247	0.190737	-0.790886	-0.601500	0.112683
02029	9.009754	2.417445	1.182002	0.462417	-0.722876	0.087813	0.197933	-0.089510	0.976120	-0.580757	0.791511	0.190345	-0.789648	-0.604564	0.104683
02030	9.104724	2.216350	0.561104	0.469815	-0.770151	0.102836	0.191164	-0.093372	0.977107	-0.584712	0.788734	0.189766	-0.788396	-0.607602	0.096182
02031	9.391378	2.181320	0.453792	0.424814	-0.804068	0.118166	0.184063	-0.097338	0.978083	-0.588325	0.786236	0.188961	-0.787397	-0.610212	0.087451
02032	9.682666	2.321309	0.498290	0.379059	-0.803357	0.122935	0.176922	-0.101292	0.978999	-0.591577	0.784017	0.188027	-0.786597	-0.612419	0.078787
02033	9.761586	2.214885	0.262837	0.273172	-0.796975	0.134575	0.169784	-0.105126	0.979858	-0.594003	0.782457	0.186872	-0.786342	-0.613767	0.070403
02034	9.727460	2.053786	0.141138	0.210810	-0.797386	0.135396	0.162613	-0.108974	0.980654	-0.595932	0.781284	0.185638	-0.786398	-0.614590	0.062106
02035	9.620350	2.209072	0.304542	0.199971	-0.785712	0.121373	0.155637	-0.112859	0.981346	-0.597741	0.780165	0.184522	-0.786437	-0.615309	0.053962
02036	9.529754	2.222387	0.312902	0.134764	-0.785789	0.100274	0.148762	-0.116924	0.981936	-0.598999	0.779428	0.183558	-0.786810	-0.615485	0.045912
02037	9.498984	1.938397	0.379021	0.036784	-0.812893	0.089612	0.141752	-0.121227	0.982451	-0.599461	0.779285	0.182651	-0.787751	-0.614833	0.037794
02038	9.562433	1.532256	0.235219	-0.024884	-0.819641	0.096627	0.134617	-0.125520	0.982916	-0.599443	0.779534	0.181645	-0.789016	-0.613654	0.029696
02039	9.428060	1.452847	0.206740	0.010277	-0.803446	0.094275	0.127635	-0.129713	0.983302	-0.599690	0.779569	0.180679	-0.789988	-0.612738	0.021713
02040	9.485853	1.761064	0.201169	0.081576	-0.800546	0.092089	0.120662	-0.133909	0.983620	-0.600493	0.779168	0.179739	-0.790474	-0.612344	0.013604
02041	9.576615	2.030999	0.366894	0.068373	-0.788932	0.098432	0.113759	-0.137973	0.983881	-0.601191	0.778861	0.178733	-0.790967	-0.611833	0.005655
02042	9.391488	2.270212	0.627643	0.039629	-0.781469	0.086597	0.106960	-0.142087	0.984058	-0.601643	0.778718	0.177833	-0.791571	-0.611073	-0.002194
02043	9.342217	2.274627	0.604880	0.029325	-0.793171	0.079489	0.100128	-0.146313	0.984158	-0.601999	0.778632	0.177005	-0.792194	-0.610185	-0.010117
02044	9.303498	2.499825	0.450975	0.063982	-0.803602	0.072687	0.093230	-0.150658	0.984180	-0.602618	0.778328	0.176231	-0.792565	-0.609515	-0.018226
02045	9.350200	2.375827	-0.122260	0.062644	-0.867681	0.086691	0.085755	-0.155269	0.984143	-0.603233	0.778057	0.175319	-0.792941	-0.608702	-0.026941
02046	9.486575	2.209070	-0.725514	0.119852	-0.903005	0.112344	0.077825	-0.159901	0.984060	-0.604316	0.777484	0.174127	-0.792935	-0.608235	-0.036123
02047	9.564607	2.405633	-1.113812	0.188272	-0.930027	0.135915	0.069557	-0.164503	0.983921	-0.605949	0.776539	0.172667	-0.792457	-0.608216	-0.045667
02048	9.815969	2.247191	-1.250175	0.127493	-0.964116	0.171871	0.060783	-0.169042	0.983733	-0.607111	0.776030	0.170863	-0.792289	-0.607620	-0.055458
02049	9.982784	2.135619	-1.146053	0.097867	-0.967956	0.187507	0.051902	-0.173465	0.983471	-0.608031	0.775736	0.168913	-0.792215	-0.606748	-0.065210
02050	9.886878	2.001741	-0.870008	0.052545	-0.967365	0.183002	0.043032	-0.177923	0.983103	-0.608573	0.775719	0.167029	-0.792330	-0.605478	-0.074898
02051	9.677456	1.796169	-0.599341	0.023596	-0.968105	0.173379	0.034232	-0.182433	0.982622	-0.608865	0.775869	0.165258	-0.792535	-0.603942	-0.084518
02052	9.609644	1.826667	-0.244830	0.043818	-0.973016	0.167488	0.025408	-0.187016	0.982028	-0.609300	0.775895	0.163525	-0.792532	-0.602505	-0.094235
02053	9.688404	1.968215	0.282960	0.044431	-0.947030	0.176873	0.016752	-0.191344	0.981380	-0.609727	0.775943	0.161696	-0.792434	-0.601083	-0.103669
02054	9.801753	1.923736	0.939307	0.004848	-0.890510	0.185746	0.008472	-0.195260	0.980715	-0.609826	0.776254	0.159820	-0.792490	-0.599419	-0.112498
02055	9.779142	1.646758	1.424212	-0.019027	-0.818981	0.176418	0.000832	-0.198792	0.980041	-0.609720	0.776696	0.158063	-0.792616	-0.597682	-0.120562
02056	9.693415	1.211077	1.770907	0.013566	-0.753521	0.181191	-0.006332	-0.201893	0.979387	-0.609859	0.776960	0.156222	-0.792485	-0.596299	-0.128046
02057	9.678629	1.058690	2.176998	0.115963	-0.680692	0.193919	-0.012980	-0.204445	0.978792	-0.610795	0.776644	0.154121	-0.791683	-0.595841	-0.134955
02058	9.678787	1.066488	2.387996	0.310156	-0.611099	0.232619	-0.019318	-0.206290	0.978300	-0.613245	0.775254	0.151365	-0.789656	-0.597014	-0.141483
02059	9.845595	1.389747	2.703576	0.452676	-0.528480	0.266700	-0.025197	-0.207388	0.977934	-0.616789	0.773079	0.148052	-0.786725	-0.599449	-0.147394
02060	9.758560	1.600581	3.085819	0.553076	-0.426129	0.287869	-0.030400	-0.207730	0.977714	-0.621086	0.770333	0.144357	-0.783152	-0.602856	-0.152436
02061	9.487663	2.203338	3.446813	0.650685	-0.374898	0.289194	-0.035205	-0.207776	0.977543	-0.626108	0.766979	0.140472	-0.778941	-0.607102	-0.157092
02062	9.573743	3.052392	3.528552	0.750850	-0.322004	0.292319	-0.039614	-0.207501	0.977432	-0.631864	0.762989	0.136368	-0.774066	-0.612202	-0.161337
02063	9.750263	3.811518	3.057045	0.887259	-0.288354	0.313771	-0.043904	-0.206891	0.977378	-0.638609	0.758160	0.131801	-0.768278	-0.618376	-0.165409
02064	9.773068	4.062944	2.141895	1.067752	-0.332005	0.353364	-0.048774	-0.206285	0.977276	-0.646644	0.752228	0.126508	-0.761231	-0.625779	-0.170082
02065	9.978234	4.272195	1.005039	1.136789	-0.471946	0.392505	-0.054977	-0.206319	0.976939	-0.655084	0.745861	0.120654	-0.753554	-0.633344	-0.176161
02066	11.240320	4.095351	0.215304	0.996496	-0.528317	0.415977	-0.061732	-0.206590	0.976478	-0.662347	0.740356	0.114761	-0.746650	-0.639683	-0.182538
02067	12.167729	2.922241	0.342915	0.612311	-0.371322	0.425565	-0.067398	-0.205833	0.976264	-0.666662	0.737284	0.109423	-0.742307	-0.643463	-0.186912
02068	12.481990	1.557004	0.958711	0.221747	-0.116673	0.438745	-0.071238	-0.203350	0.976511	-0.668032	0.736732	0.104684	-0.740715	-0.644883	-0.188328
02069	12.438228	0.726677	1.779072	-0.110896	0.197079	0.459593	-0.072918	-0.198695	0.977345	-0.666910	0.738350	0.100350	-0.741562	-0.644484	-0.186351
02070	11.930458	0.369825	2.707302	-0.374345	0.520712	0.464075	-0.072180	-0.191904	0.978756	-0.663822	0.741644	0.096459	-0.744399	-0.642757	-0.180922
02071	11.134116	0.194505	3.684724	-0.519724	0.780749	0.478184	-0.069590	-0.183343	0.980583	-0.659636	0.745854	0.092642	-0.748357	-0.640380	-0.172843
02072	10.583220	0.184306	4.270308	-0.486091	0.995803	0.499156	-0.065438	-0.173230	0.982705	-0.655684	0.749829	0.088517	-0.752194	-0.638552	-0.162651
02073	10.250250	0.058603	3.989651	-0.292195	1.151930	0.503111	-0.060124	-0.162100	0.984941	-0.653199	0.752516	0.083975	-0.754796	-0.638313	-0.151128
02074	10.361248	-0.030865	3.533381	-0.021627	1.285608	0.504139	-0.053736	-0.150065	0.987215	-0.652783	0.753415	0.078993	-0.755636	-0.640193	-0.138446
02075	10.613273	0.366513	3.341805	0.313983	1.455201	0.450741	-0.045770	-0.137328	0.989468	-0.654962	0.752022	0.074076	-0.754274	-0.644674	-0.124365
02076	10.631376	1.371265	3.093829	0.658856	1.597595	0.341083	-0.036016	-0.124387	0.991580	-0.659818	0.748169	0.069887	-0.750562	-0.651745	-0.109019
02077	10.608221	2.262117	2.554412	0.875396	1.669983	0.182188	-0.024807	-0.112079	0.993390	-0.666343	0.742616	0.067145	-0.745233	-0.660272	-0.093105
02078	10.787921	3.109869	1.840231	1.052995	1.664131	-0.000925	-0.012473	-0.100990	0.994809	-0.674193	0.735581	0.066221	-0.738450	-0.669867	-0.077262
02079	11.149318	3.929664	0.953077	1.164500	1.631724	-0.186168	0.000703	-0.091346	0.995819	-0.682791	0.727515	0.067216	-0.730613	-0.679984	-0.061859
02080	11.469208	4.646992	-0.033054	1.126512	1.566845	-0.367426	0.014600	-0.083250	0.996422	-0.690987	0.719447	0.070234	-0.722720	-0.689540	-0.047020
02081	11.849447	4.712068	-0.933021	0.760071	1.409082	-0.509944	0.028209	-0.077150	0.996620	-0.696384	0.713743	0.074963	-0.717115	-0.696145	-0.033592
02082	12.144944	3.682422	-1.665779	0.099887	1.309265	-0.591645	0.041704	-0.072225	0.996516	-0.696929	0.712572	0.080812	-0.715927	-0.697871	-0.020618
02083	11.959822	2.254956	-2.243787	-0.290538	1.258540	-0.623026	0.054985	-0.067902	0.996176	-0.694581	0.714133	0.087016	-0.717310	-0.696709	-0.007897
02084	11.881338	1.592710	-2.422041	-0.407194	1.274961	-0.608670	0.068353	-0.063372	0.995646	-0.691316	0.716534	0.093067	-0.719312	-0.694668	0.005167
02085	12.168171	1.059627	-2.177724	-0.721895	1.353004	-0.530118	0.081690	-0.057822	0.994979	-0.685748	0.721183	0.098212	-0.723240	-0.690328	0.019262
02086	12.632090	0.292771	-1.959183	-1.141334	1.482487	-0.460477	0.095586	-0.050969	0.994115	-0.677084	0.728737	0.102465	-0.729672	-0.682894	0.035147
02087	13.046822	-0.773136	-1.670753	-1.328537	1.555400	-0.409713	0.109673	-0.043427	0.993019	-0.666959	0.737528	0.105916	-0.736979	-0.673919	0.051923
02088	13.510441	-0.575367	-1.089306	-1.024660	1.643764	-0.362356	0.124213	-0.035078	0.991635	-0.658996	0.744225	0.108872	-0.741819	-0.667007	0.069326
02089	13.582084	0.146781	-1.125814	-0.811867	1.700647	-0.309669	0.138813	-0.026099	0.989975	-0.652594	0.749494	0.111265	-0.744884	-0.661497	0.087007
02090	13.179834	0.468949	-1.357959	-0.728813	1.679717	-0.286731	0.153185	-0.017172	0.988048	-0.646778	0.754203	0.113383	-0.747136	-0.656416	0.104426
02091	13.074374	0.655038	-1.932812	-0.688152	1.728571	-0.287983	0.167897	-0.008051	0.985772	-0.641210	0.758637	0.115407	-0.748773	-0.651463	0.122210
02092	12.566562	0.447694	-2.242115	-0.603047	1.878712	-0.301028	0.183864	0.001869	0.982950	-0.636204	0.762512	0.117555	-0.749292	-0.646971	0.141388
02093	11.282177	0.135714	-2.218864	-0.711891	2.123946	-0.406653	0.202287	0.012438	0.979247	-0.630127	0.767097	0.120424	-0.749680	-0.641410	0.163011
02094	10.092916	-1.083017	-2.415946	-0.769031	2.236369	-0.492871	0.222109	0.022930	0.974752	-0.623358	0.772062	0.123878	-0.749729	-0.635133	0.185775
02095	9.469454	-1.010239	-2.000037	-0.669422	2.209507	-0.519368	0.241814	0.032876	0.969765	-0.617182	0.776409	0.127575	-0.748740	-0.629371	0.208037
02096	9.292228	-0.481814	-1.744802	-0.802861	2.090421	-0.466795	0.260286	0.042334	0.964603	-0.610044	0.781578	0.130312	-0.748396	-0.622369	0.229259
02097	9.044101	-0.407799	-2.146585	-0.998902	1.999523	-0.435830	0.277827	0.051270	0.959262	-0.601439	0.787925	0.132080	-0.749055	-0.613633	0.249743
02098	8.543605	-0.801232	-2.507185	-1.131823	1.945069	-0.433569	0.294947	0.059686	0.953648	-0.591759	0.795023	0.133263	-0.750218	-0.603635	0.269810
02099	8.311248	-1.621900	-3.011139	-1.104258	1.881338	-0.412722	0.311422	0.067654	0.947860	-0.582267	0.801867	0.134072	-0.750987	-0.593661	0.289112
02100	7.912273	-1.371780	-2.815575	-0.901169	1.831796	-0.395695	0.327405	0.075276	0.941881	-0.574287	0.807430	0.135096	-0.750334	-0.585141	0.307586
02101	7.577078	-1.337079	-2.813334	-0.810758	1.750065	-0.375158	0.342597	0.082411	0.935861	-0.567001	0.812408	0.136027	-0.749091	-0.577237	0.325056
02102	7.140047	-1.511919	-2.674481	-0.661296	1.675528	-0.354470	0.357065	0.089147	0.929816	-0.560865	0.816476	0.137102	-0.746950	-0.570456	0.341535
02103	6.505207	-1.522945	-2.519983	-0.492759	1.540002	-0.343954	0.370399	0.095080	0.923994	-0.555991	0.819560	0.138545	-0.744096	-0.565049	0.356428
02104	6.399282	-1.300952	-2.159042	-0.258245	1.336610	-0.322028	0.382034	0.099975	0.918725	-0.552916	0.821299	0.140546	-0.740496	-0.561670	0.369042
02105	6.373256	-1.101979	-1.585642	-0.220987	1.245328	-0.252023	0.392556	0.104883	0.913728	-0.550358	0.822764	0.142003	-0.736889	-0.558622	0.380704
02106	5.581850	-0.973534	-1.214717	-0.129291	1.019798	-0.220591	0.401187	0.108760	0.909517	-0.548587	0.823690	0.143485	-0.733554	-0.556513	0.390118
02107	5.668963	-0.588826	-0.675888	0.099556	0.773073	-0.155802	0.407631	0.111783	0.906279	-0.548737	0.823277	0.145269	-0.729880	-0.556525	0.396933
02108	5.718143	-0.508686	-0.290227	0.138600	0.620448	-0.038796	0.412279	0.114924	0.903780	-0.549643	0.822518	0.146141	-0.726580	-0.557007	0.402274
02109	5.323273	-0.731530	-0.429349	0.105085	0.388642	0.086866	0.414554	0.117808	0.902367	-0.550816	0.821800	0.145759	-0.724394	-0.557463	0.405571
02110	5.480098	-0.398020	-0.105786	0.271593	0.084093	0.130248	0.414356	0.119352	0.902255	-0.553377	0.820098	0.145651	-0.722554	-0.559639	0.405858
02111	6.551327	1.123813	1.240926	0.344077	-0.138294	0.117800	0.412637	0.119544	0.903017	-0.556399	0.817995	0.145960	-0.721215	-0.562667	0.404049
02112	7.120901	3.326423	3.757567	0.042812	-0.160973	0.043174	0.411145	0.118994	0.903770	-0.556942	0.817671	0.145707	-0.721648	-0.563254	0.402454
02113	8.028967	4.899682	5.761052	-0.317864	-0.372786	-0.004924	0.408409	0.116862	0.905288	-0.554674	0.819432	0.144455	-0.724940	-0.561137	0.399483
02114	9.741229	7.258972	8.729770	-0.497629	-0.579109	-0.073624	0.404516	0.113018	0.907521	-0.550809	0.822270	0.143115	-0.730052	-0.557763	0.394873
02115	11.617484	7.415347	12.326568	-1.557276	-0.606641	-0.170167	0.400914	0.108269	0.909695	-0.538722	0.831019	0.138516	-0.740977	-0.545606	0.391494
02116	11.649768	2.355987	12.070883	-2.726314	-0.303382	-0.187307	0.399557	0.105078	0.910666	-0.517609	0.845759	0.129514	-0.756595	-0.523117	0.392318
02117	9.916192	-3.192120	11.213134	-2.688600	0.190961	-0.110212	0.401506	0.105123	0.909803	-0.496704	0.859601	0.119879	-0.769466	-0.500035	0.397350
02118	7.444678	-4.775172	10.748563	-1.741848	0.440647	-0.016182	0.404923	0.107166	0.908049	-0.483232	0.868166	0.113027	-0.776225	-0.484565	0.403326
02119	6.619156	-3.753106	10.223388	-0.653960	0.472097	0.018089	0.408437	0.109607	0.906182	-0.478279	0.871268	0.110187	-0.777450	-0.478413	0.408280
02120	6.622330	-2.727574	8.843081	0.042151	0.545236	0.073165	0.412255	0.112881	0.904048	-0.478965	0.870957	0.109664	-0.775008	-0.478217	0.413123
02121	5.616516	-1.829133	6.618790	0.539857	0.579597	0.084504	0.416260	0.116410	0.901763	-0.483540	0.868240	0.111123	-0.770011	-0.482295	0.417702
02122	4.164892	-1.027725	4.491853	0.883579	0.215145	-0.038414	0.418038	0.117161	0.900843	-0.490221	0.863962	0.115124	-0.764805	-0.489739	0.418603
02123	3.553578	0.285078	0.778043	1.155372	-0.492928	-0.100619	0.414708	0.113863	0.902803	-0.498672	0.858330	0.120813	-0.761147	-0.500304	0.412737
02124	6.339762	0.257820	-1.043484	1.176324	-1.439893	-0.017360	0.403776	0.106464	0.908642	-0.507614	0.852366	0.125700	-0.761113	-0.511994	0.398207
02125	14.497386	1.207736	3.589413	1.024817	-1.472077	0.209728	0.391426	0.100641	0.914690	-0.516305	0.846820	0.127770	-0.761719	-0.522271	0.383429
02126	18.179469	4.406022	10.357454	0.211714	-0.246483	0.299859	0.387931	0.101922	0.916036	-0.519145	0.845379	0.125792	-0.761576	-0.524354	0.380861
02127	15.034716	3.958815	9.694698	-0.574642	0.078861	0.009861	0.388414	0.102425	0.915775	-0.514852	0.848339	0.123486	-0.764239	-0.519452	0.382240
02128	13.942086	1.095302	6.671529	-0.624147	-0.408789	-0.289605	0.386703	0.097884	0.916995	-0.509003	0.851826	0.123723	-0.769010	-0.514598	0.379227
02129	11.314481	-1.137078	3.444482	-0.167618	-0.560381	-0.551829	0.385118	0.090306	0.918439	-0.505635	0.853179	0.128133	-0.772022	-0.513741	0.374236
02130	8.558305	-1.721885	-0.202451	0.322685	-0.817132	-0.675220	0.382156	0.080373	0.920596	-0.505598	0.852064	0.135493	-0.773516	-0.517231	0.366258
02131	7.384993	-0.574573	-1.689546	0.917000	-1.019916	-0.601130	0.377257	0.069952	0.923463	-0.510458	0.847705	0.144320	-0.772729	-0.525835	0.355510
02132	7.502802	1.482582	-1.953930	1.403755	-0.992758	-0.375925	0.371471	0.061532	0.926403	-0.519933	0.840455	0.152661	-0.769207	-0.538377	0.344197
02133	7.963060	3.586219	-1.379753	1.277838	-0.871101	-0.193397	0.365732	0.055180	0.929083	-0.529079	0.833588	0.158763	-0.765712	-0.549623	0.334064
02134	8.496882	4.306083	-1.340602	0.632961	-0.901292	-0.240356	0.360035	0.048228	0.931692	-0.533112	0.830187	0.163038	-0.765615	-0.555395	0.324607
02135	9.598884	3.712738	-0.868883	0.066416	-1.120954	-0.359137	0.353277	0.039019	0.934705	-0.532392	0.829947	0.166575	-0.769256	-0.556476	0.313974
02136	10.023189	3.151589	-1.618770	0.046483	-1.229395	-0.363874	0.345654	0.029171	0.937908	-0.531535	0.829784	0.170082	-0.773300	-0.557321	0.302324
02137	9.873802	2.731879	-1.568369	0.045987	-1.215579	-0.322996	0.337877	0.019717	0.940984	-0.530839	0.829580	0.173225	-0.777206	-0.558040	0.290762
02138	9.899451	2.647911	-0.235841	-0.208151	-1.163296	-0.254962	0.330075	0.011129	0.943889	-0.528420	0.830753	0.174992	-0.782191	-0.556530	0.280092
02139	10.157198	1.716929	0.202371	-0.567672	-1.164036	-0.185624	0.321838	0.003137	0.946790	-0.523406	0.833886	0.175156	-0.788965	-0.551928	0.270018
02140	10.521539	0.589737	-0.069828	-0.569763	-1.183946	-0.213489	0.313484	-0.005144	0.949580	-0.518269	0.836990	0.175629	-0.795692	-0.547194	0.259717
02141	10.450406	0.459192	-0.208332	-0.182477	-1.169082	-0.294861	0.305610	-0.013995	0.952054	-0.515951	0.837934	0.177938	-0.800248	-0.545593	0.248860
02142	9.979031	0.630254	0.081903	0.133093	-1.136938	-0.313527	0.298023	-0.022821	0.954286	-0.516127	0.837124	0.181206	-0.802991	-0.546536	0.237704
02143	9.335144	1.059237	0.143229	0.271149	-1.122835	-0.255392	0.290246	-0.031100	0.956447	-0.517606	0.835547	0.184243	-0.804886	-0.548538	0.226417
02144	9.390703	1.377235	0.344375	0.270704	-1.097642	-0.151067	0.282090	-0.038385	0.958620	-0.519411	0.833983	0.186240	-0.806621	-0.550454	0.215321
02145	9.859646	1.027737	0.834278	0.166851	-1.039778	-0.054273	0.273905	-0.044561	0.960724	-0.520657	0.833017	0.187078	-0.808636	-0.551450	0.204966
02146	10.164283	0.397372	1.343353	0.106622	-0.974268	-0.022453	0.266036	-0.050116	0.962660	-0.521516	0.832395	0.187458	-0.810707	-0.551913	0.195310
02147	10.161471	1.092419	1.815725	0.311513	-0.910281	-0.052747	0.258857	-0.055584	0.964315	-0.523953	0.830621	0.188526	-0.811459	-0.554057	0.185889
02148	9.879565	2.332841	1.982306	0.499305	-0.876830	-0.088981	0.252112	-0.061188	0.965762	-0.527833	0.827770	0.190236	-0.811068	-0.557721	0.176394
02149	9.240949	2.874791	2.056985	0.613623	-0.859605	-0.155754	0.245900	-0.067284	0.966957	-0.532467	0.824210	0.192759	-0.809946	-0.562272	0.166847
02150	8.872931	3.445135	2.103106	0.684686	-0.890415	-0.202779	0.239681	-0.073975	0.968029	-0.537570	0.820177	0.195777	-0.808438	-0.567308	0.156814
02151	8.829666	3.615023	2.023762	0.635337	-0.899657	-0.202576	0.233436	-0.080753	0.969013	-0.542271	0.816378	0.198667	-0.807124	-0.571844	0.146782
02152	8.830668	3.431024	1.845726	0.547649	-0.889639	-0.145757	0.226957	-0.087042	0.970007	-0.546407	0.813091	0.200806	-0.806183	-0.575593	0.136976
02153	8.874368	3.021888	1.228922	0.545305	-0.917836	-0.084283	0.219952	-0.093023	0.971065	-0.550659	0.809844	0.202307	-0.805230	-0.579224	0.126903
02154	9.186085	2.718443	0.750947	0.580852	-0.935856	-0.034939	0.212520	-0.098743	0.972155	-0.555309	0.806412	0.203303	-0.804032	-0.583052	0.116546
02155	9.185326	2.578866	0.322955	0.632208	-0.938438	0.007572	0.204868	-0.104172	0.973230	-0.560450	0.802697	0.203895	-0.802449	-0.587218	0.106064
02156	9.047320	2.654892	-0.472165	0.668888	-0.977760	0.053143	0.196637	-0.109511	0.974342	-0.565968	0.798789	0.204000	-0.800633	-0.591561	0.095091
02157	9.292207	2.692055	-0.939534	0.632999	-1.004861	0.099341	0.187963	-0.114683	0.975458	-0.571268	0.795121	0.203559	-0.798951	-0.595509	0.083939
02158	9.610187	2.516882	-1.248168	0.546332	-0.997554	0.136810	0.179118	-0.119559	0.976536	-0.575930	0.791996	0.202603	-0.797635	-0.598706	0.073003
02159	9.884480	2.342657	-1.210150	0.456023	-0.987999	0.162352	0.170231	-0.124202	0.977546	-0.579893	0.789435	0.201285	-0.796709	-0.601137	0.062362
02160	10.124407	2.293265	-0.870669	0.379954	-0.952123	0.174886	0.161532	-0.128564	0.978457	-0.583258	0.787346	0.199742	-0.796064	-0.602957	0.052196
02161	10.022570	2.516186	-0.319308	0.307554	-0.894716	0.168476	0.153353	-0.132639	0.979229	-0.586014	0.785688	0.198197	-0.795657	-0.604237	0.042759
02162	9.891971	2.400351	0.053270	0.160419	-0.865126	0.126133	0.145628	-0.136887	0.979824	-0.587527	0.784866	0.196972	-0.795993	-0.604357	0.033874
02163	9.720018	2.246151	0.328871	0.058939	-0.817978	0.087025	0.138529	-0.141145	0.980249	-0.588163	0.784609	0.196095	-0.796790	-0.603711	0.025675
02164	9.643283	2.289917	0.597582	-0.010029	-0.798434	0.037588	0.131841	-0.145676	0.980508	-0.588180	0.784701	0.195673	-0.797911	-0.602513	0.017772
02165	9.672909	1.898968	0.588209	-0.117579	-0.793157	-0.001343	0.125441	-0.150458	0.980626	-0.587282	0.785385	0.195627	-0.799603	-0.600444	0.010158
02166	9.575251	1.600814	0.608274	-0.081388	-0.767660	-0.026147	0.119351	-0.155276	0.980635	-0.586645	0.785812	0.195826	-0.801002	-0.598656	0.002696
02167	9.575863	1.752409	0.816776	0.000554	-0.740502	-0.027471	0.113505	-0.159920	0.980583	-0.586659	0.785745	0.196052	-0.801840	-0.597521	-0.004633
02168	9.552610	1.773413	0.907009	0.070641	-0.707055	-0.015391	0.107825	-0.164273	0.980504	-0.587254	0.785277	0.196145	-0.802188	-0.596955	-0.011797
02169	9.508874	1.579163	0.935232	0.155241	-0.675830	0.004035	0.102308	-0.168276	0.980416	-0.588546	0.784336	0.196037	-0.801965	-0.597076	-0.018794
02170	9.199753	1.605452	1.007079	0.301027	-0.644092	0.029099	0.096877	-0.171905	0.980338	-0.591032	0.782566	0.195631	-0.800810	-0.598363	-0.025789
02171	9.085857	2.068464	0.965460	0.463417	-0.645132	0.063469	0.091268	-0.175278	0.980279	-0.594839	0.779877	0.194827	-0.798647	-0.600890	-0.033084
02172	9.135139	2.406099	0.694740	0.585037	-0.652840	0.104637	0.085343	-0.178405	0.980249	-0.599639	0.776517	0.193531	-0.795707	-0.604313	-0.040708
02173	9.274489	2.542727	0.213615	0.678650	-0.683743	0.147522	0.078952	-0.181409	0.980233	-0.605189	0.772647	0.191736	-0.792157	-0.608365	-0.048784
02174	9.491542	2.577359	-0.285250	0.701194	-0.733067	0.170758	0.072027	-0.184575	0.980176	-0.610902	0.768659	0.189636	-0.788423	-0.612450	-0.057393
02175	9.571108	2.580696	-0.434026	0.662951	-0.763777	0.193981	0.064755	-0.187781	0.980074	-0.616290	0.764927	0.187278	-0.784853	-0.616137	-0.066195
02176	9.731769	2.505435	-0.303244	0.571174	-0.780514	0.198448	0.057320	-0.191095	0.979896	-0.620926	0.761755	0.184876	-0.781770	-0.619041	-0.074992
02177	9.809247	2.285556	0.298455	0.442378	-0.768518	0.196634	0.050023	-0.194367	0.979653	-0.624524	0.759371	0.182552	-0.779402	-0.620948	-0.083400
02178	9.914489	2.322270	1.176701	0.375991	-0.748674	0.181659	0.042967	-0.197653	0.979330	-0.627575	0.757370	0.180390	-0.777370	-0.622354	-0.091500
02179	9.753330	2.294873	1.697763	0.335289	-0.699353	0.158966	0.036464	-0.200809	0.978951	-0.630279	0.755578	0.178466	-0.775512	-0.623520	-0.099015
02180	9.176753	2.288919	2.058075	0.428879	-0.662563	0.146548	0.030320	-0.203849	0.978533	-0.633688	0.753176	0.176538	-0.772995	-0.625437	-0.106340
02181	9.070492	2.399577	2.110507	0.570735	-0.666900	0.173554	0.024000	-0.206729	0.978104	-0.638174	0.749935	0.174162	-0.769518	-0.628380	-0.113931
02182	9.265613	2.347748	1.996033	0.639838	-0.634488	0.215817	0.017664	-0.209118	0.977731	-0.643167	0.746331	0.171246	-0.765522	-0.631869	-0.121315
02183	9.395138	2.213594	1.740048	0.710056	-0.587870	0.254164	0.011462	-0.210957	0.977428	-0.648660	0.742344	0.167826	-0.760992	-0.635942	-0.128330
02184	9.526832	2.223362	1.536775	0.732980	-0.530182	0.295859	0.005435	-0.212154	0.977221	-0.654282	0.738273	0.163917	-0.756231	-0.640269	-0.134796
02185	9.708029	2.346650	1.453518	0.765278	-0.458092	0.323963	-0.000221	-0.212718	0.977114	-0.660093	0.734023	0.159648	-0.751184	-0.644951	-0.140575
02186	9.614253	2.342702	0.753506	0.827359	-0.397290	0.367590	-0.005705	-0.212603	0.977122	-0.666310	0.729426	0.154819	-0.745653	-0.650183	-0.145822
02187	9.524211	2.376541	-0.111956	0.883639	-0.467990	0.414411	-0.012029	-0.212652	0.977054	-0.672870	0.724517	0.149404	-0.739663	-0.655633	-0.151803
02188	9.745291	2.488750	-0.400418	0.818864	-0.519774	0.423200	-0.018790	-0.213019	0.976867	-0.678872	0.720008	0.143950	-0.734016	-0.660463	-0.158142
02189	9.733033	2.606802	-0.300297	0.707884	-0.525771	0.404417	-0.025465	-0.213605	0.976588	-0.683994	0.716160	0.138807	-0.729043	-0.664446	-0.164341
02190	9.738825	2.699842	0.123624	0.560363	-0.536645	0.378142	-0.032028	-0.214480	0.976203	-0.687991	0.713216	0.134127	-0.725012	-0.667324	-0.170403
02191	9.921727	2.948330	0.817004	0.444083	-0.524317	0.344943	-0.038273	-0.215535	0.975746	-0.691114	0.710969	0.129940	-0.721731	-0.669379	-0.176170
02192	10.047958	3.317083	1.535050	0.339391	-0.471102	0.304932	-0.043841	-0.216530	0.975291	-0.693465	0.709332	0.126311	-0.719155	-0.670793	-0.181254
02193	10.114717	3.711034	2.375165	0.222092	-0.374555	0.270026	-0.048479	-0.217138	0.974936	-0.694967	0.708405	0.123219	-0.717405	-0.671575	-0.185246
02194	10.183387	4.189225	3.587776	0.067082	-0.259622	0.232186	-0.052011	-0.217239	0.974732	-0.695362	0.708437	0.120786	-0.716776	-0.671509	-0.187906
02195	9.993399	4.671262	4.833141	0.014863	-0.110650	0.215027	-0.054372	-0.216466	0.974775	-0.695385	0.708782	0.118610	-0.716578	-0.671394	-0.189065
02196	10.353454	4.058884	5.465303	-0.139887	0.008649	0.243439	-0.056047	-0.214680	0.975075	-0.694276	0.710223	0.116462	-0.717523	-0.670444	-0.188853
02197	10.937052	1.860076	5.495836	-0.390774	0.214147	0.303977	-0.056686	-0.211090	0.975821	-0.691326	0.713464	0.114178	-0.720316	-0.668139	-0.186376
02198	11.257814	-0.352170	5.929684	-0.479612	0.554113	0.386782	-0.055386	-0.204620	0.977273	-0.687675	0.717445	0.111244	-0.723903	-0.665886	-0.180448
02199	10.867798	-1.900824	5.024095	-0.203597	0.868228	0.514622	-0.052700	-0.195146	0.979357	-0.685953	0.719808	0.106516	-0.725735	-0.666179	-0.171795
02200	10.959277	-2.528202	4.022040	0.182161	1.020545	0.629172	-0.049645	-0.183783	0.981712	-0.686984	0.719758	0.100003	-0.724975	-0.669456	-0.161988
02201	11.516453	-2.136348	3.643210	0.708037	1.259000	0.670728	-0.045241	-0.170500	0.984318	-0.691815	0.716157	0.092253	-0.720656	-0.676793	-0.150355
02202	11.421462	-0.855997	3.217615	1.493877	1.507327	0.648664	-0.038999	-0.155556	0.987057	-0.702269	0.706978	0.083670	-0.710843	-0.689917	-0.136814
02203	11.606471	1.287093	2.250867	2.197073	1.578029	0.522723	-0.031683	-0.140881	0.989519	-0.717569	0.692373	0.075599	-0.695767	-0.707653	-0.123028
02204	12.658269	3.479662	1.055477	2.452995	1.681127	0.282605	-0.022204	-0.126860	0.991672	-0.734382	0.675125	0.069922	-0.678373	-0.726714	-0.108155
02205	13.240062	5.572918	0.072364	2.300789	1.825150	0.003019	-0.010070	-0.113429	0.993495	-0.749828	0.658176	0.067545	-0.661556	-0.744270	-0.091680
02206	13.303458	6.826554	-0.673244	1.735040	1.950392	-0.284982	0.004845	-0.100612	0.994914	-0.761234	0.644805	0.068914	-0.648459	-0.757696	-0.073465
02207	13.180518	7.388986	-1.529245	1.152291	1.901050	-0.538842	0.021137	-0.089586	0.995755	-0.768615	0.635477	0.073488	-0.639363	-0.766905	-0.055425
02208	13.694115	6.389907	-2.202279	0.389487	1.799528	-0.720426	0.038150	-0.080297	0.996041	-0.770916	0.631834	0.080464	-0.635793	-0.770933	-0.037798
02209	13.460465	4.521775	-2.906443	-0.345150	1.713101	-0.787542	0.055048	-0.072098	0.995877	-0.768383	0.633861	0.088362	-0.637619	-0.770079	-0.020506
02210	12.956698	2.539063	-3.382537	-1.019316	1.567293	-0.761796	0.070918	-0.064918	0.995367	-0.761399	0.641127	0.096062	-0.644393	-0.764684	-0.003961
02211	12.824352	1.103776	-2.883883	-1.320392	1.459939	-0.683033	0.085489	-0.058237	0.994636	-0.752331	0.650720	0.102763	-0.653214	-0.757081	0.011816
02212	12.997913	-0.163151	-2.483450	-1.525291	1.479853	-0.567130	0.099459	-0.050816	0.993743	-0.741798	0.661855	0.108088	-0.663207	-0.747907	0.028132
02213	12.596072	-1.492971	-2.798083	-1.625727	1.552796	-0.454560	0.113112	-0.042330	0.992680	-0.730485	0.673689	0.111964	-0.673497	-0.737802	0.045281
02214	12.741619	-1.982189	-2.154913	-1.528043	1.517909	-0.366984	0.126053	-0.033690	0.991451	-0.719717	0.684716	0.114772	-0.682729	-0.728031	0.062063
02215	13.720787	-1.036143	-1.126315	-1.131354	1.586823	-0.302200	0.139025	-0.024288	0.989991	-0.711596	0.692791	0.116927	-0.688697	-0.720729	0.079032
02216	13.408795	-0.465198	-1.165073	-0.957284	1.729252	-0.295123	0.153040	-0.013924	0.988122	-0.704587	0.699571	0.118984	-0.692918	-0.714428	0.097252
02217	12.857129	-0.249458	-1.729644	-0.869877	1.774495	-0.271828	0.167200	-0.003219	0.985918	-0.698150	0.705704	0.120702	-0.696155	-0.708499	0.115746
02218	11.972481	-0.500234	-1.625260	-0.890723	1.791536	-0.254624	0.181442	0.007622	0.983372	-0.691529	0.711959	0.122075	-0.699190	-0.702180	0.134450
02219	11.140034	-0.413534	-1.810910	-0.823840	1.762334	-0.300047	0.195779	0.017790	0.980487	-0.685234	0.717724	0.123802	-0.701516	-0.696101	0.152705
02220	10.539731	-0.234788	-2.071437	-0.785264	1.809214	-0.351862	0.210853	0.027803	0.977122	-0.679043	0.723213	0.125952	-0.703166	-0.690065	0.171371
02221	9.760827	-0.114674	-2.100928	-0.791048	2.027308	-0.445798	0.228059	0.038485	0.972886	-0.672541	0.728761	0.128826	-0.704044	-0.683686	0.192083
02222	8.807836	-0.031402	-1.750298	-0.897951	2.119190	-0.584862	0.246862	0.048621	0.967830	-0.664867	0.735088	0.132657	-0.704990	-0.676226	0.213792
02223	8.512309	0.181370	-1.614328	-1.023328	2.011438	-0.699546	0.265608	0.056963	0.962397	-0.655896	0.742300	0.137082	-0.706578	-0.667642	0.234523
02224	8.217882	0.785916	-1.407093	-1.222206	1.849588	-0.743991	0.283500	0.063670	0.956856	-0.645243	0.750813	0.141215	-0.709429	-0.657439	0.253938
02225	8.121092	0.567835	-1.953108	-1.494085	1.682799	-0.740448	0.300138	0.069028	0.951395	-0.632493	0.761002	0.144320	-0.714051	-0.645067	0.272066
02226	8.059255	-0.178198	-2.692318	-1.521508	1.652668	-0.721475	0.316443	0.074061	0.945716	-0.619416	0.771203	0.146867	-0.718462	-0.632266	0.289917
02227	7.563949	-0.297645	-2.689520	-1.436244	1.660292	-0.673676	0.332463	0.079226	0.939783	-0.606934	0.780680	0.148899	-0.721873	-0.619889	0.307632
02228	7.060771	-0.574298	-2.618624	-1.369053	1.615053	-0.613360	0.347774	0.084329	0.933778	-0.594993	0.789554	0.150294	-0.724594	-0.607860	0.324761
02229	6.669051	-0.735701	-2.468736	-1.197157	1.488633	-0.526898	0.361613	0.089117	0.928059	-0.584488	0.797192	0.151192	-0.726368	-0.597112	0.340363
02230	6.551905	-0.640123	-2.445392	-1.010133	1.322805	-0.435596	0.373687	0.093482	0.922832	-0.575632	0.803515	0.151698	-0.727328	-0.587899	0.354074
02231	6.230840	-0.274499	-2.407216	-0.777485	1.181822	-0.390520	0.384449	0.097241	0.918010	-0.568547	0.808398	0.152469	-0.727292	-0.580549	0.366074
02232	6.606123	-0.142629	-1.657917	-0.606388	1.082509	-0.301456	0.393949	0.101064	0.913559	-0.563056	0.812140	0.152960	-0.726479	-0.574644	0.376847
