// General information: 
//  MT Manager version: 2022.2.0 
//  XDA version: 2022.2.0 build 7381 rev 124627 built on 2023-07-19
// Device information: 
//  DeviceId: 00B4CBA7
//  ProductCode: MTW2-3A7G6
//  Firmware Version: 4.6.0
//  Hardware Version: 2.0.0
// Device settings: 
//  Filter Profile: human(46.1)
//  Option Flags: Orientation Smoother Disabled, Position/Velocity Smoother Disabled, Continuous Zero Rotation Update Disabled, AHS Disabled, ICC Disabled
// Coordinate system: ENU
PacketCounter	Acc_X	Acc_Y	Acc_Z	Gyr_X	Gyr_Y	Gyr_Z	Mat[1][1]	Mat[2][1]	Mat[3][1]	Mat[1][2]	Mat[2][2]	Mat[3][2]	Mat[1][3]	Mat[2][3]	Mat[3][3]
35906	9.345583	0.088092	-2.816404	0.000916	0.008678	0.006455	0.211077	0.202847	0.956190	0.668362	-0.743766	0.010244	0.713260	0.636918	-0.292567
35907	9.363445	0.112118	-2.845068	0.005245	0.010182	0.004286	0.211007	0.202773	0.956221	0.668395	-0.743737	0.010222	0.713250	0.636976	-0.292466
35908	9.315766	0.104064	-2.878923	0.009575	0.011684	0.002117	0.210916	0.202722	0.956252	0.668463	-0.743675	0.010216	0.713212	0.637065	-0.292365
35909	9.331241	0.187436	-2.899975	0.006919	0.007952	0.003674	0.210858	0.202666	0.956277	0.668510	-0.743634	0.010195	0.713186	0.637131	-0.292286
35910	9.313918	0.162424	-2.869557	0.006440	0.011062	0.000854	0.210764	0.202628	0.956306	0.668560	-0.743589	0.010210	0.713167	0.637195	-0.292191
35911	9.309871	0.175968	-2.900212	0.004597	0.003468	0.003138	0.210734	0.202606	0.956317	0.668590	-0.743561	0.010200	0.713147	0.637235	-0.292154
35912	9.314242	0.161640	-2.868550	-0.000139	0.003897	0.004943	0.210718	0.202582	0.956325	0.668583	-0.743568	0.010196	0.713158	0.637234	-0.292126
35913	9.335183	0.164838	-2.812421	-0.001861	0.000625	0.007619	0.210739	0.202544	0.956329	0.668558	-0.743591	0.010163	0.713176	0.637220	-0.292116
35914	9.297564	0.174179	-2.745792	0.004215	-0.001280	0.007296	0.210777	0.202536	0.956322	0.668572	-0.743578	0.010124	0.713151	0.637237	-0.292139
35915	9.303526	0.204772	-2.676150	0.006246	-0.010941	0.009114	0.210890	0.202561	0.956292	0.668602	-0.743552	0.010053	0.713089	0.637259	-0.292240
35916	9.273694	0.259235	-2.648769	0.008325	-0.015103	0.008866	0.211035	0.202629	0.956246	0.668647	-0.743513	0.009986	0.713004	0.637283	-0.292395
35917	9.303594	0.240968	-2.586192	0.007822	-0.024175	0.012634	0.211266	0.202712	0.956177	0.668681	-0.743484	0.009877	0.712904	0.637291	-0.292623
35918	9.360367	0.226250	-2.545634	-0.001079	-0.035828	0.016189	0.211607	0.202858	0.956071	0.668645	-0.743518	0.009768	0.712837	0.637205	-0.292973
35919	9.364613	0.217808	-2.572177	-0.003854	-0.043890	0.017356	0.212010	0.203031	0.955945	0.668585	-0.743573	0.009647	0.712773	0.637085	-0.293388
35920	9.346671	0.198377	-2.601536	-0.000930	-0.058616	0.022356	0.212554	0.203276	0.955772	0.668537	-0.743618	0.009479	0.712656	0.636954	-0.293957
35921	9.395897	0.224440	-2.734746	-0.007707	-0.060723	0.028935	0.213154	0.203471	0.955597	0.668425	-0.743722	0.009259	0.712582	0.636771	-0.294532
35922	9.385783	0.145054	-2.850000	-0.012270	-0.070900	0.030324	0.213839	0.203734	0.955388	0.668279	-0.743856	0.009048	0.712514	0.636530	-0.295216
35923	9.370973	0.079754	-2.997068	-0.021065	-0.071568	0.029759	0.214522	0.203991	0.955180	0.668070	-0.744046	0.008860	0.712505	0.636226	-0.295894
35924	9.383003	0.018519	-3.165136	-0.027535	-0.067747	0.029729	0.215180	0.204237	0.954979	0.667810	-0.744281	0.008702	0.712550	0.635873	-0.296546
35925	9.386831	0.016833	-3.248183	-0.041342	-0.061715	0.031017	0.215801	0.204421	0.954799	0.667454	-0.744602	0.008562	0.712696	0.635437	-0.297127
35926	9.401763	-0.071605	-3.275699	-0.043895	-0.054448	0.028453	0.216357	0.204592	0.954637	0.667082	-0.744936	0.008464	0.712875	0.634990	-0.297652
35927	9.438003	-0.075509	-3.401439	-0.039683	-0.045073	0.019301	0.216781	0.204757	0.954505	0.666762	-0.745223	0.008432	0.713046	0.634600	-0.298074
35928	9.436765	-0.075724	-3.404866	-0.029561	-0.026995	0.010240	0.217020	0.204889	0.954423	0.666533	-0.745427	0.008465	0.713187	0.634318	-0.298338
35929	9.373166	-0.055327	-3.427160	-0.022382	-0.018604	0.009350	0.217189	0.204961	0.954369	0.666358	-0.745584	0.008476	0.713299	0.634111	-0.298510
35930	9.357511	-0.034572	-3.359719	-0.019238	-0.005761	0.004033	0.217236	0.205005	0.954349	0.666216	-0.745710	0.008538	0.713417	0.633948	-0.298573
35931	9.375910	0.021389	-3.242164	-0.006478	0.003851	-0.000015	0.217183	0.205003	0.954361	0.666175	-0.745746	0.008591	0.713472	0.633906	-0.298531
35932	9.329567	0.052557	-3.182744	0.004937	0.014947	-0.005537	0.217018	0.204988	0.954402	0.666227	-0.745699	0.008671	0.713474	0.633967	-0.298399
35933	9.314201	0.066282	-3.058392	0.012603	0.020216	-0.003611	0.216824	0.204909	0.954463	0.666330	-0.745607	0.008702	0.713437	0.634100	-0.298203
35934	9.309820	0.073060	-3.033372	0.021452	0.026375	-0.005117	0.216581	0.204818	0.954538	0.666500	-0.745454	0.008728	0.713352	0.634308	-0.297963
35935	9.266880	0.155970	-2.987479	0.035518	0.028974	-0.005628	0.216311	0.204699	0.954624	0.666770	-0.745213	0.008710	0.713181	0.634631	-0.297685
35936	9.315177	0.155424	-2.896266	0.033562	0.025246	0.001599	0.216121	0.204565	0.954696	0.667010	-0.744999	0.008637	0.713014	0.634925	-0.297457
35937	9.291144	0.196019	-2.833676	0.028350	0.028794	0.000600	0.215894	0.204400	0.954783	0.667215	-0.744815	0.008581	0.712891	0.635193	-0.297180
35938	9.306512	0.167306	-2.845640	0.031367	0.025072	0.001461	0.215704	0.204268	0.954854	0.667443	-0.744612	0.008515	0.712735	0.635474	-0.296953
35939	9.309379	0.211314	-2.804549	0.039398	0.022875	0.005812	0.215553	0.204102	0.954924	0.667716	-0.744369	0.008377	0.712525	0.635812	-0.296734
35940	9.293196	0.296494	-2.780699	0.033034	0.018836	0.012762	0.215483	0.203924	0.954977	0.667926	-0.744182	0.008199	0.712349	0.636087	-0.296565
35941	9.276844	0.276867	-2.804001	0.015860	0.008928	0.016530	0.215504	0.203767	0.955006	0.668008	-0.744111	0.008028	0.712266	0.636222	-0.296477
35942	9.270591	0.243749	-2.873448	-0.003956	0.007502	0.015274	0.215531	0.203644	0.955026	0.667951	-0.744163	0.007936	0.712311	0.636201	-0.296414
35943	9.319670	0.151812	-2.939004	-0.018974	0.000471	0.026579	0.215680	0.203466	0.955031	0.667764	-0.744333	0.007773	0.712442	0.636059	-0.296404
35944	9.341575	0.056269	-2.983743	-0.034463	0.000545	0.023145	0.215809	0.203328	0.955031	0.667474	-0.744593	0.007696	0.712674	0.635798	-0.296406
35945	9.361364	0.020208	-3.020735	-0.033315	0.004135	0.027111	0.215934	0.203123	0.955046	0.667183	-0.744855	0.007569	0.712909	0.635556	-0.296360
35946	9.359402	-0.026452	-3.058887	-0.026814	0.012490	0.020556	0.215961	0.202928	0.955082	0.666951	-0.745064	0.007495	0.713118	0.635374	-0.296248
35947	9.313883	0.010563	-3.053331	-0.018163	0.015490	0.016204	0.215933	0.202731	0.955130	0.666792	-0.745207	0.007428	0.713276	0.635269	-0.296094
35948	9.318805	0.100208	-2.973970	-0.015960	0.015645	0.016344	0.215908	0.202547	0.955174	0.666648	-0.745336	0.007361	0.713417	0.635176	-0.295952
35949	9.360968	0.075049	-3.007852	-0.011100	0.019535	0.014925	0.215842	0.202335	0.955234	0.666541	-0.745432	0.007285	0.713537	0.635131	-0.295760
35950	9.329424	0.077288	-2.961879	-0.010642	0.023110	0.013226	0.215744	0.202127	0.955301	0.666441	-0.745523	0.007232	0.713660	0.635091	-0.295548
35951	9.379071	0.090447	-2.979234	-0.009223	0.020435	0.017160	0.215687	0.201892	0.955363	0.666343	-0.745611	0.007130	0.713769	0.635062	-0.295348
35952	9.335934	0.068161	-2.980471	-0.007979	0.026838	0.011668	0.215553	0.201671	0.955440	0.666262	-0.745684	0.007084	0.713885	0.635046	-0.295100
35953	9.346155	0.046506	-2.969532	-0.012380	0.026519	0.011385	0.215413	0.201441	0.955520	0.666154	-0.745781	0.007046	0.714028	0.635005	-0.294842
35954	9.338732	0.000289	-2.928943	-0.013107	0.029199	0.013119	0.215271	0.201195	0.955604	0.666040	-0.745883	0.007000	0.714178	0.634963	-0.294571
35955	9.369801	0.055631	-2.962392	-0.011917	0.030087	0.009687	0.215094	0.200955	0.955694	0.665938	-0.745974	0.006977	0.714325	0.634933	-0.294278
35956	9.327855	0.041055	-3.016940	-0.013120	0.035889	0.008604	0.214874	0.200700	0.955797	0.665831	-0.746070	0.006975	0.714492	0.634901	-0.293943
35957	9.321651	0.106667	-2.983251	-0.015705	0.030961	0.012614	0.214711	0.200432	0.955890	0.665697	-0.746190	0.006934	0.714666	0.634844	-0.293642
35958	9.298697	0.154832	-2.974139	-0.023509	0.036288	0.011102	0.214505	0.200156	0.955994	0.665507	-0.746359	0.006939	0.714904	0.634732	-0.293303
35959	9.323928	0.210550	-2.929774	-0.028381	0.039088	0.007999	0.214253	0.199871	0.956111	0.665292	-0.746551	0.006980	0.715180	0.634597	-0.292923
35960	9.336446	0.130322	-2.925596	-0.039161	0.034723	0.014643	0.214080	0.199579	0.956210	0.664986	-0.746823	0.006996	0.715516	0.634368	-0.292597
35961	9.332252	0.137162	-2.899534	-0.038500	0.033220	0.010453	0.213886	0.199313	0.956309	0.664692	-0.747084	0.007043	0.715847	0.634145	-0.292273
35962	9.373973	0.105804	-2.877499	-0.043344	0.037510	0.017207	0.213711	0.198985	0.956417	0.664352	-0.747386	0.007046	0.716215	0.633892	-0.291921
35963	9.358386	0.088198	-2.898509	-0.037816	0.039900	0.011613	0.213476	0.198668	0.956535	0.664061	-0.747644	0.007079	0.716554	0.633687	-0.291532
35964	9.364788	0.081199	-2.917558	-0.029010	0.040520	0.012196	0.213246	0.198358	0.956650	0.663834	-0.747847	0.007089	0.716834	0.633545	-0.291152
35965	9.387895	0.091381	-2.911940	-0.031135	0.039159	0.014503	0.213036	0.198024	0.956766	0.663584	-0.748068	0.007074	0.717127	0.633388	-0.290771
35966	9.372414	0.073878	-2.932756	-0.039531	0.043279	0.009770	0.212770	0.197714	0.956890	0.663282	-0.748335	0.007138	0.717486	0.633169	-0.290363
35967	9.373289	0.104446	-2.781865	-0.049987	0.031455	0.018801	0.212643	0.197397	0.956983	0.662888	-0.748685	0.007137	0.717888	0.632855	-0.290055
35968	9.426573	0.066870	-2.859645	-0.043725	0.037878	0.006977	0.212397	0.197143	0.957090	0.662560	-0.748974	0.007239	0.718263	0.632593	-0.289699
35969	9.372468	0.126476	-2.860283	-0.039320	0.038182	0.007273	0.212145	0.196870	0.957203	0.662267	-0.749232	0.007317	0.718608	0.632371	-0.289326
35970	9.340160	0.092453	-2.906464	-0.042258	0.032508	0.003500	0.211913	0.196675	0.957294	0.661961	-0.749501	0.007448	0.718958	0.632113	-0.289021
35971	9.382952	0.069788	-2.938685	-0.053381	0.034084	-0.002151	0.211628	0.196499	0.957393	0.661586	-0.749830	0.007656	0.719386	0.631778	-0.288686
35972	9.392692	-0.023294	-2.827191	-0.064837	0.029691	-0.001213	0.211386	0.196358	0.957476	0.661126	-0.750233	0.007897	0.719881	0.631343	-0.288406
35973	9.404854	0.002959	-2.776810	-0.073290	0.028288	-0.003910	0.211131	0.196232	0.957558	0.660611	-0.750684	0.008180	0.720428	0.630846	-0.288125
35974	9.459600	0.006430	-2.475428	-0.093069	0.020105	-0.000774	0.210961	0.196148	0.957612	0.659943	-0.751268	0.008497	0.721090	0.630177	-0.287934
35975	9.537849	-0.002078	-2.374287	-0.079617	0.013345	-0.009793	0.210774	0.196160	0.957651	0.659394	-0.751745	0.008854	0.721647	0.629603	-0.287795
35976	9.537384	0.067478	-2.419081	-0.046395	0.008072	-0.017455	0.210580	0.196277	0.957670	0.659101	-0.751998	0.009196	0.721971	0.629264	-0.287722
35977	9.449634	0.132009	-2.379294	-0.020649	-0.006019	-0.019760	0.210467	0.196487	0.957651	0.658998	-0.752085	0.009479	0.722098	0.629095	-0.287774
35978	9.460553	0.054840	-2.380893	-0.029201	-0.029233	-0.031190	0.210451	0.196942	0.957562	0.658858	-0.752202	0.009902	0.722230	0.628813	-0.288059
35979	9.518894	-0.014218	-2.349391	-0.029420	-0.048677	-0.044822	0.210482	0.197608	0.957418	0.658745	-0.752294	0.010450	0.722325	0.628494	-0.288518
35980	9.535718	-0.021434	-2.191038	-0.041012	-0.072288	-0.045217	0.210685	0.198438	0.957201	0.658546	-0.752459	0.011043	0.722446	0.628035	-0.289213
35981	9.631480	-0.031679	-1.989681	-0.036886	-0.096953	-0.056530	0.210988	0.199495	0.956915	0.658404	-0.752574	0.011725	0.722488	0.627562	-0.290132
35982	9.720368	0.091417	-1.519086	-0.028147	-0.133083	-0.065595	0.211494	0.200859	0.956518	0.658347	-0.752611	0.012474	0.722391	0.627083	-0.291408
35983	9.808616	0.311535	-0.950707	-0.018372	-0.178200	-0.076493	0.212252	0.202575	0.955988	0.658381	-0.752567	0.013293	0.722138	0.626583	-0.293105
35984	9.834164	0.516241	-0.501647	0.023618	-0.240108	-0.092238	0.213353	0.204806	0.955267	0.658754	-0.752225	0.014146	0.721473	0.626268	-0.295406
35985	9.848422	0.492211	-0.853128	0.111864	-0.302798	-0.122332	0.214703	0.207645	0.954351	0.659827	-0.751267	0.015016	0.720091	0.626483	-0.298309
35986	9.727764	0.464904	-1.575563	0.213032	-0.334200	-0.147804	0.216102	0.210880	0.953326	0.661679	-0.749621	0.015828	0.717970	0.627375	-0.301529
35987	9.592328	0.455389	-1.945403	0.239767	-0.376822	-0.134499	0.217886	0.214276	0.952162	0.663694	-0.747824	0.016416	0.715567	0.628367	-0.305154
35988	9.552460	0.479967	-2.048823	0.203325	-0.427835	-0.105326	0.220213	0.217782	0.950830	0.665384	-0.746311	0.016835	0.713281	0.628960	-0.309256
35989	9.635523	0.597152	-1.846751	0.133100	-0.476437	-0.081076	0.223041	0.221406	0.949332	0.666517	-0.745291	0.017224	0.711342	0.628905	-0.313801
35990	9.890586	0.577724	-1.548226	0.077159	-0.520828	-0.081131	0.226168	0.225313	0.947672	0.667256	-0.744616	0.017791	0.709660	0.628316	-0.318750
35991	10.204675	0.605709	-1.208140	0.050235	-0.585156	-0.075902	0.229783	0.229575	0.945778	0.667790	-0.744123	0.018382	0.707994	0.627357	-0.324295
35992	10.516068	0.543677	-0.956659	0.031360	-0.659750	-0.069636	0.233949	0.234255	0.943606	0.668178	-0.743759	0.018980	0.706262	0.626057	-0.330526
35993	10.743052	0.595401	-0.611806	0.048788	-0.733338	-0.070489	0.238624	0.239388	0.941144	0.668694	-0.743281	0.019515	0.704206	0.624681	-0.337442
35994	10.981914	0.589417	-0.441481	0.087327	-0.822493	-0.080226	0.243831	0.245141	0.938324	0.669508	-0.742535	0.020013	0.701645	0.623335	-0.345177
35995	11.198956	0.484241	-0.593955	0.106658	-0.899295	-0.096717	0.249454	0.251481	0.935163	0.670499	-0.741625	0.020580	0.698716	0.621892	-0.353619
35996	11.385074	0.220508	-0.765441	0.163014	-0.949013	-0.125189	0.255187	0.258325	0.931744	0.671955	-0.740289	0.021209	0.695239	0.620678	-0.362495
35997	11.647376	0.242229	-1.146037	0.314581	-0.989184	-0.200032	0.260668	0.265965	0.928070	0.674657	-0.737805	0.021947	0.690573	0.620408	-0.371757
35998	11.776934	0.028863	-1.380895	0.423052	-1.042585	-0.180905	0.266569	0.273784	0.924112	0.678047	-0.734687	0.022074	0.684977	0.620707	-0.381483
35999	12.032505	0.134732	-1.935718	0.735241	-1.059172	-0.184944	0.272498	0.281748	0.919980	0.683559	-0.729594	0.020971	0.677120	0.623146	-0.391404
36000	11.129276	1.386991	-2.179857	0.895098	-1.079938	-0.287742	0.277736	0.290599	0.915650	0.690367	-0.723179	0.020112	0.668024	0.626549	-0.401474
36001	10.930250	1.773341	-2.919672	0.823987	-1.098703	-0.243268	0.283314	0.299272	0.911136	0.696525	-0.717280	0.019017	0.659231	0.629242	-0.411666
36002	10.528993	1.997694	-3.474732	0.789389	-1.063869	-0.195690	0.288855	0.307387	0.906684	0.702255	-0.711708	0.017559	0.650692	0.631652	-0.421445
36003	10.163733	2.056545	-4.093229	0.698868	-1.022636	-0.110845	0.294661	0.314664	0.902309	0.707106	-0.706935	0.015616	0.642787	0.633427	-0.430807
36004	9.808443	1.859853	-4.665485	0.560650	-0.997626	-0.006523	0.300934	0.321044	0.897981	0.710714	-0.703355	0.013286	0.635865	0.634210	-0.439834
36005	9.429042	1.347540	-5.299960	0.469609	-0.992754	0.092014	0.307843	0.326716	0.893582	0.713413	-0.700666	0.010407	0.629503	0.634290	-0.448779
36006	8.981145	1.121674	-5.612749	0.423319	-0.937019	0.146500	0.314708	0.331651	0.889363	0.715616	-0.698457	0.007234	0.623581	0.634166	-0.457144
36007	8.337538	0.836169	-5.925696	0.389733	-0.873648	0.187332	0.321446	0.335905	0.885348	0.717448	-0.696602	0.003807	0.618013	0.633967	-0.464914
36008	7.900825	0.796033	-6.198607	0.355005	-0.837483	0.218730	0.328119	0.339709	0.881439	0.718930	-0.695082	0.000262	0.612762	0.633607	-0.472297
36009	7.442791	0.811890	-6.062723	0.279510	-0.740630	0.224532	0.334229	0.342861	0.877916	0.719902	-0.694069	-0.003010	0.608303	0.633020	-0.478804
36010	7.055877	0.515915	-5.684066	0.172132	-0.582728	0.174279	0.338969	0.345359	0.875115	0.720368	-0.693572	-0.005315	0.605120	0.632207	-0.483885
36011	6.837861	-0.255897	-5.018567	0.067759	-0.314797	0.036489	0.341107	0.347116	0.873588	0.720663	-0.693260	-0.005931	0.603565	0.631586	-0.486630
36012	6.873079	-1.391255	-4.730307	0.087808	0.020569	-0.152783	0.339832	0.348067	0.873707	0.721721	-0.692166	-0.004972	0.603019	0.632263	-0.486427
36013	7.096109	-2.513092	-4.568245	0.272061	0.377612	-0.338650	0.335080	0.348033	0.875554	0.724513	-0.689253	-0.003297	0.602331	0.635455	-0.483110
36014	7.651587	-3.692891	-4.882886	0.631895	0.702676	-0.506339	0.327126	0.347040	0.878949	0.729997	-0.683448	-0.001840	0.600077	0.642232	-0.476912
36015	8.369910	-3.845666	-4.484592	1.188065	1.020290	-0.666994	0.316103	0.344974	0.883782	0.739248	-0.673431	-0.001542	0.594635	0.653822	-0.467895
36016	8.623619	-2.724199	-3.750932	1.653010	1.318755	-0.848198	0.301949	0.341920	0.889898	0.751639	-0.659573	-0.001613	0.586401	0.669369	-0.456157
36017	8.372558	-1.128316	-3.538361	1.807141	1.538028	-1.053130	0.284983	0.338376	0.896820	0.765252	-0.643731	-0.000292	0.577212	0.686377	-0.442395
36018	8.079165	0.247766	-3.567071	1.617687	1.679340	-1.184308	0.266174	0.334262	0.904113	0.777797	-0.628506	0.003381	0.569370	0.702317	-0.427280
36019	8.191457	1.563774	-3.446729	1.091813	1.734832	-1.240992	0.246591	0.329714	0.911308	0.787180	-0.616640	0.010099	0.565279	0.714873	-0.411602
36020	8.211575	2.230795	-3.270670	0.379646	1.773886	-1.228975	0.226801	0.324510	0.918289	0.792243	-0.609883	0.019854	0.566491	0.723005	-0.395413
36021	8.299496	2.504736	-3.223000	-0.339473	1.822043	-1.228289	0.206653	0.318802	0.925019	0.792976	-0.608384	0.032521	0.573135	0.726797	-0.378527
36022	8.537792	2.168744	-3.125532	-0.959054	1.883835	-1.233073	0.185942	0.312644	0.931493	0.789849	-0.611455	0.047560	0.584435	0.726895	-0.360637
36023	8.844875	1.284939	-3.095986	-1.265905	1.973647	-1.222076	0.164624	0.305837	0.937743	0.784511	-0.616859	0.063460	0.597864	0.725223	-0.341483
36024	8.980316	0.828604	-2.915014	-1.271881	2.073929	-1.190044	0.142737	0.298203	0.943770	0.778652	-0.622473	0.078919	0.611005	0.723604	-0.321046
36025	8.980313	0.818111	-2.801040	-1.104255	2.152249	-1.144276	0.120553	0.289803	0.949464	0.773351	-0.627089	0.093213	0.622411	0.723031	-0.299717
36026	9.000882	1.122896	-2.648790	-0.891255	2.227349	-1.086916	0.098154	0.280539	0.954811	0.768949	-0.630431	0.106184	0.631731	0.723778	-0.277600
36027	8.920423	1.429392	-2.525707	-0.681218	2.282239	-1.029826	0.075722	0.270520	0.959732	0.765516	-0.632524	0.117891	0.638945	0.725764	-0.254983
36028	8.819091	1.721795	-2.546340	-0.502929	2.313127	-0.972980	0.053394	0.259873	0.964165	0.762914	-0.633596	0.128525	0.644292	0.728713	-0.232091
36029	8.621702	1.893195	-2.593393	-0.382996	2.330205	-0.913531	0.031345	0.248660	0.968084	0.760825	-0.634065	0.138230	0.648200	0.732209	-0.209062
36030	8.465888	1.847327	-2.696534	-0.285035	2.355628	-0.844272	0.009577	0.236736	0.971527	0.759140	-0.634104	0.147031	0.650857	0.736117	-0.185789
36031	8.228867	1.638080	-2.848515	-0.194186	2.376078	-0.768670	-0.011765	0.224086	0.974498	0.757864	-0.633761	0.154883	0.652306	0.740360	-0.162370
36032	8.117800	1.441417	-3.028718	-0.109044	2.387138	-0.687895	-0.032601	0.210734	0.977000	0.756993	-0.633072	0.161810	0.652610	0.744857	-0.138886
36033	8.084815	1.392950	-3.043243	-0.057804	2.388589	-0.616184	-0.052874	0.196805	0.979016	0.756348	-0.632244	0.167944	0.652029	0.749357	-0.115424
36034	8.106340	1.279549	-2.809358	-0.060518	2.355603	-0.562435	-0.072522	0.182680	0.980494	0.755593	-0.631628	0.173568	0.651015	0.753442	-0.092225
36035	8.235392	1.102320	-2.342882	-0.105937	2.294674	-0.557957	-0.091690	0.168894	0.981360	0.754440	-0.631444	0.179161	0.649933	0.756805	-0.069523
36036	7.978715	0.835078	-1.795949	-0.171880	2.219049	-0.549197	-0.110287	0.155563	0.981650	0.752759	-0.631853	0.184702	0.648991	0.759317	-0.047416
36037	8.273545	0.663132	-1.978370	-0.172255	2.132705	-0.528987	-0.128122	0.142709	0.981437	0.751006	-0.632372	0.189992	0.647746	0.761407	-0.026154
36038	8.465521	0.742552	-2.052465	-0.136094	2.034986	-0.479548	-0.144927	0.130251	0.980832	0.749460	-0.632753	0.194767	0.645992	0.763321	-0.005915
36039	8.776804	0.548499	-1.820087	-0.086391	1.909940	-0.425153	-0.160456	0.118363	0.979920	0.748246	-0.632883	0.198966	0.643725	0.765147	0.012985
36040	8.113607	0.876732	-0.032082	0.069055	1.691272	-0.423301	-0.174522	0.108104	0.978701	0.747969	-0.631873	0.203172	0.640378	0.767496	0.029417
36041	8.781403	-0.055928	-0.048627	0.091178	1.419218	-0.482957	-0.187227	0.100264	0.977186	0.747669	-0.630668	0.207962	0.637131	0.769549	0.043114
36042	10.317334	1.026578	1.533695	0.044165	1.166234	-0.547164	-0.198770	0.094753	0.975455	0.746883	-0.629793	0.213370	0.634552	0.770962	0.054415
36043	8.487625	0.510543	0.222201	0.226658	0.830497	-0.379504	-0.206890	0.090745	0.974147	0.747538	-0.627691	0.217235	0.631176	0.773155	0.062027
36044	7.971529	1.601554	0.316838	0.469839	0.234409	-0.086278	-0.209048	0.089491	0.973802	0.750303	-0.623973	0.218412	0.627172	0.776305	0.063295
36045	7.731986	1.452560	0.367869	0.849972	-0.255211	0.170175	-0.206202	0.090440	0.974321	0.755953	-0.617506	0.217307	0.621302	0.781350	0.058962
36046	8.257680	2.282835	0.287984	0.641496	-0.732453	0.406565	-0.198618	0.093696	0.975588	0.760739	-0.612857	0.213736	0.617922	0.784620	0.050446
36047	10.925338	4.446446	2.305540	0.277321	-0.762277	0.535767	-0.189855	0.096419	0.977066	0.763483	-0.611188	0.208667	0.617291	0.785590	0.042423
36048	12.293680	6.073136	4.456883	-0.223489	-0.475501	0.398804	-0.183909	0.097730	0.978073	0.762835	-0.613328	0.204722	0.619887	0.783758	0.038245
36049	12.252760	4.449685	4.003071	-0.292038	-0.417953	0.326644	-0.178851	0.099011	0.978881	0.761604	-0.615935	0.201453	0.622873	0.781550	0.034753
36050	11.128506	3.170481	2.314936	0.261788	-0.652543	0.451477	-0.171391	0.101357	0.979975	0.764012	-0.614340	0.197160	0.622021	0.782505	0.027854
36051	10.337423	3.010880	0.302629	0.768017	-0.835458	0.517884	-0.162270	0.104761	0.981169	0.769628	-0.608848	0.192292	0.617528	0.786339	0.018171
36052	9.521423	4.061776	-0.674934	0.844722	-0.908467	0.455957	-0.153208	0.109181	0.982144	0.775530	-0.602676	0.187974	0.612438	0.790482	0.007662
36053	9.472643	3.358241	-1.399302	0.320478	-0.906899	0.436530	-0.144297	0.113745	0.982975	0.778133	-0.600627	0.183728	0.611299	0.791397	-0.001840
36054	9.939568	1.384498	-2.687440	0.114097	-0.868993	0.498170	-0.135152	0.117651	0.983815	0.779516	-0.600300	0.178874	0.611628	0.791074	-0.010579
36055	10.072161	0.666062	-3.164813	0.158792	-0.819724	0.603637	-0.125457	0.120531	0.984750	0.781267	-0.599761	0.172942	0.611460	0.791049	-0.018922
36056	10.175330	1.022968	-3.105999	0.277714	-0.784796	0.701377	-0.115220	0.122564	0.985750	0.783797	-0.598414	0.166019	0.610235	0.791757	-0.027116
36057	10.326228	1.837326	-3.142138	0.112563	-0.810550	0.721817	-0.104640	0.124678	0.986664	0.785272	-0.598414	0.158899	0.610245	0.791426	-0.035288
36058	10.052319	1.727384	-3.094819	-0.193971	-0.805569	0.681019	-0.094411	0.126988	0.987401	0.784755	-0.600802	0.152303	0.612573	0.789247	-0.042932
36059	9.655774	1.102662	-2.933707	-0.385242	-0.781306	0.623274	-0.084754	0.129402	0.987963	0.782941	-0.604634	0.146360	0.616295	0.785922	-0.050069
36060	9.562767	0.575475	-2.401104	-0.405118	-0.744669	0.577150	-0.075678	0.131771	0.988387	0.780892	-0.608562	0.140923	0.620064	0.782489	-0.056844
36061	9.620823	0.344234	-1.850774	-0.287874	-0.691229	0.531787	-0.067262	0.133944	0.988704	0.779479	-0.611516	0.135873	0.622807	0.779813	-0.063274
36062	9.654102	0.316284	-1.531588	-0.155995	-0.652481	0.503036	-0.059311	0.135976	0.988935	0.778818	-0.613407	0.131051	0.624439	0.777974	-0.069518
36063	9.753500	0.644930	-1.397822	-0.028114	-0.639522	0.506427	-0.051401	0.137857	0.989118	0.778919	-0.614317	0.126097	0.625015	0.776924	-0.075803
36064	9.613072	1.247616	-1.076773	0.007938	-0.633256	0.510835	-0.043499	0.139665	0.989243	0.779205	-0.614961	0.121085	0.625257	0.776091	-0.082078
36065	9.402614	1.727548	-0.683102	-0.025871	-0.641582	0.519796	-0.035464	0.141460	0.989309	0.779245	-0.615890	0.115999	0.625715	0.775028	-0.088390
36066	9.371387	1.839222	-0.146901	-0.081304	-0.653989	0.537659	-0.027217	0.143240	0.989314	0.778900	-0.617282	0.110803	0.626557	0.773592	-0.094769
36067	9.192997	1.666949	0.343300	-0.128591	-0.696617	0.546561	-0.018622	0.145262	0.989218	0.778216	-0.619062	0.105556	0.627721	0.771791	-0.101517
36068	9.226610	1.449065	0.574709	-0.105514	-0.735188	0.550641	-0.009758	0.147547	0.989007	0.777627	-0.620679	0.100270	0.628650	0.770057	-0.108680
36069	9.326749	1.251280	0.557946	-0.069377	-0.777403	0.573028	-0.000443	0.149985	0.988688	0.777217	-0.622063	0.094715	0.629232	0.768467	-0.116295
36070	9.317110	1.029221	0.402997	0.005082	-0.806357	0.589866	0.009176	0.152534	0.988256	0.777220	-0.622914	0.088928	0.629162	0.767276	-0.124269
36071	9.269063	1.109619	0.147147	0.011218	-0.862425	0.619663	0.019388	0.155301	0.987677	0.777200	-0.623779	0.082826	0.628955	0.766016	-0.132794
36072	9.267507	0.765425	-0.333457	-0.012129	-0.890507	0.633507	0.029871	0.158189	0.986957	0.776964	-0.624862	0.076638	0.628835	0.764541	-0.141573
36073	9.620203	0.170590	-1.171970	-0.030996	-0.884372	0.604030	0.040094	0.161184	0.986110	0.776557	-0.626061	0.070758	0.628770	0.762933	-0.150270
36074	9.636498	-0.405524	-2.309137	0.004630	-0.853694	0.569479	0.049842	0.164151	0.985175	0.776328	-0.626949	0.065187	0.628356	0.761570	-0.158683
36075	9.616038	-0.666144	-3.304391	0.020401	-0.821514	0.554934	0.059279	0.166939	0.984184	0.776153	-0.627710	0.059724	0.627752	0.760336	-0.166780
36076	9.708043	-0.608399	-3.927527	-0.010032	-0.786868	0.549622	0.068444	0.169491	0.983152	0.775738	-0.628708	0.054382	0.627333	0.758946	-0.174512
36077	9.871784	-0.578089	-4.130890	-0.086801	-0.758437	0.521407	0.077215	0.171976	0.982070	0.774814	-0.630253	0.049448	0.627457	0.757103	-0.181915
36078	10.040626	-0.896852	-4.055278	-0.155580	-0.726504	0.477603	0.085438	0.174483	0.980946	0.773448	-0.632254	0.045094	0.628075	0.754858	-0.188972
36079	10.260693	-1.218729	-4.127100	-0.130731	-0.677459	0.406967	0.092811	0.177032	0.979819	0.772265	-0.633951	0.041390	0.628485	0.752838	-0.195553
36080	10.059016	-1.111955	-4.181736	-0.052860	-0.609798	0.370600	0.099472	0.179297	0.978753	0.771577	-0.635006	0.037910	0.628311	0.751412	-0.201506
36081	10.127653	-0.812009	-4.047193	-0.046263	-0.579215	0.351387	0.105792	0.181431	0.977697	0.770927	-0.635983	0.034601	0.628076	0.750072	-0.207151
36082	10.090018	-0.739958	-3.731977	0.014855	-0.523517	0.322918	0.111539	0.183331	0.976703	0.770670	-0.636457	0.031456	0.627397	0.749207	-0.212278
36083	10.059244	-0.575517	-3.367801	0.061668	-0.477006	0.287066	0.116712	0.185095	0.975765	0.770731	-0.636521	0.028555	0.626380	0.748720	-0.216948
36084	9.930671	-0.228126	-2.976929	0.123178	-0.424401	0.259303	0.121340	0.186654	0.974903	0.771195	-0.636077	0.025797	0.624928	0.748710	-0.221128
36085	9.890078	-0.162296	-2.648232	0.160994	-0.398771	0.235760	0.125619	0.188160	0.974072	0.771910	-0.635309	0.023174	0.623197	0.748985	-0.225049
36086	9.799386	-0.148971	-2.309401	0.214226	-0.364023	0.218333	0.129544	0.189533	0.973291	0.772966	-0.634112	0.020602	0.621081	0.749652	-0.228649
36087	9.645634	0.107468	-2.130270	0.248460	-0.352020	0.205792	0.133289	0.190889	0.972520	0.774238	-0.632636	0.018062	0.618699	0.750555	-0.232117
36088	9.504422	0.488990	-1.864238	0.246920	-0.342718	0.200677	0.136935	0.192225	0.971750	0.775494	-0.631162	0.015573	0.616326	0.751454	-0.235498
36089	9.416258	0.586816	-1.645153	0.132718	-0.378541	0.191663	0.140723	0.193879	0.970880	0.776048	-0.630531	0.013430	0.614774	0.751559	-0.239190
36090	9.285418	0.287037	-1.673666	0.136642	-0.385416	0.183196	0.144485	0.195652	0.969971	0.776628	-0.629857	0.011363	0.613166	0.751665	-0.242954
36091	9.171497	0.294295	-1.532479	0.114118	-0.406758	0.188656	0.148413	0.197540	0.968995	0.777053	-0.629366	0.009288	0.611688	0.751582	-0.246905
36092	9.265698	-0.008542	-1.601766	0.087630	-0.429659	0.204548	0.152601	0.199511	0.967940	0.777284	-0.629110	0.007129	0.610363	0.751276	-0.251079
36093	9.234671	0.067795	-1.668025	0.103446	-0.445797	0.217821	0.156982	0.201508	0.966825	0.777580	-0.628766	0.004794	0.608872	0.751032	-0.255394
36094	9.266947	0.034255	-1.861058	0.081916	-0.470246	0.221962	0.161541	0.203672	0.965620	0.777728	-0.628596	0.002478	0.607490	0.750590	-0.259945
36095	9.260781	-0.147603	-1.911942	0.072220	-0.489294	0.219970	0.166192	0.205979	0.964341	0.777809	-0.628501	0.000199	0.606130	0.750040	-0.264663
36096	9.303321	-0.114263	-1.913304	0.097416	-0.503325	0.211406	0.170855	0.208452	0.962993	0.778046	-0.628204	-0.002059	0.604527	0.749605	-0.269517
36097	9.306458	-0.010842	-1.822158	0.115004	-0.527200	0.213880	0.175672	0.211078	0.961554	0.778373	-0.627786	-0.004396	0.602722	0.749220	-0.274582
36098	9.357661	0.004820	-1.762273	0.135102	-0.553649	0.206776	0.180585	0.213955	0.960006	0.778822	-0.627210	-0.006718	0.600688	0.748887	-0.279897
36099	9.335191	0.056455	-1.687005	0.173008	-0.583356	0.202788	0.185633	0.217070	0.958343	0.779491	-0.626347	-0.009118	0.598275	0.748713	-0.285475
36100	9.262920	0.046850	-1.570207	0.187819	-0.622478	0.201805	0.190893	0.220493	0.956526	0.780237	-0.625378	-0.011553	0.595643	0.748522	-0.291417
36101	9.357648	0.035795	-1.497601	0.210729	-0.663302	0.207386	0.196424	0.224180	0.954548	0.781092	-0.624257	-0.014121	0.592717	0.748363	-0.297724
36102	9.310871	-0.071686	-1.362056	0.229472	-0.706587	0.217783	0.202272	0.228134	0.952387	0.782018	-0.623027	-0.016849	0.589519	0.748192	-0.304426
36103	9.492399	-0.082934	-1.168849	0.213640	-0.770258	0.199283	0.208331	0.232673	0.949980	0.782870	-0.621883	-0.019369	0.586270	0.747746	-0.311710
36104	9.577447	-0.288239	-1.215410	0.265043	-0.826547	0.199417	0.214691	0.237636	0.947331	0.784002	-0.620366	-0.022058	0.582450	0.747446	-0.319494
36105	9.512693	0.722802	-1.102252	0.327795	-0.876761	0.223343	0.221501	0.242824	0.944444	0.785422	-0.618447	-0.025198	0.577970	0.747369	-0.327706
36106	9.291846	0.754792	-1.013891	0.248535	-0.959586	0.250667	0.228963	0.248464	0.941191	0.786294	-0.617201	-0.028348	0.573861	0.746544	-0.336682
36107	9.109307	0.767215	-0.940318	0.218006	-1.045081	0.289806	0.237189	0.254490	0.937537	0.786871	-0.616298	-0.031781	0.569714	0.745259	-0.346430
36108	9.379530	0.591111	-0.860751	0.197669	-1.141372	0.282693	0.245856	0.261265	0.933432	0.787317	-0.615550	-0.035080	0.565409	0.743531	-0.357035
36109	9.495805	0.980032	-0.915786	0.197628	-1.228193	0.298640	0.255094	0.268565	0.928870	0.787688	-0.614867	-0.038545	0.560780	0.741492	-0.368395
36110	9.483067	0.959657	-1.017301	0.145356	-1.330002	0.327579	0.265063	0.276413	0.923763	0.787655	-0.614678	-0.042082	0.556185	0.738760	-0.380646
36111	9.410707	0.568401	-1.057822	0.103478	-1.434885	0.368778	0.275885	0.284739	0.918047	0.787237	-0.614943	-0.045845	0.551493	0.735369	-0.393811
36112	9.570807	-0.100814	-1.377042	0.081713	-1.539395	0.381090	0.287293	0.293701	0.911703	0.786621	-0.615440	-0.049616	0.546526	0.731419	-0.407843
36113	10.098014	-0.225492	-1.786015	0.161532	-1.618091	0.378912	0.299039	0.303191	0.904793	0.786396	-0.615385	-0.053696	0.540516	0.727583	-0.422453
36114	10.312160	0.441241	-1.885604	0.226451	-1.697937	0.408143	0.311324	0.313016	0.897273	0.786375	-0.614992	-0.058304	0.533565	0.723744	-0.437610
36115	10.459979	0.706233	-1.914959	0.188638	-1.807401	0.447446	0.324391	0.323322	0.888951	0.785961	-0.615046	-0.063109	0.526341	0.719153	-0.453634
36116	10.640379	0.627165	-2.334687	0.179850	-1.915885	0.448613	0.337880	0.334303	0.879817	0.785426	-0.615225	-0.067864	0.518598	0.713961	-0.470442
36117	10.769299	1.321320	-2.790967	0.247645	-1.957524	0.448686	0.351441	0.345488	0.870131	0.785163	-0.614979	-0.072944	0.509911	0.708829	-0.487393
36118	10.970981	1.904057	-2.904661	0.176979	-2.051375	0.499209	0.365681	0.356906	0.859591	0.784279	-0.615474	-0.078094	0.501184	0.702716	-0.504981
36119	11.001882	2.379937	-2.729342	0.076055	-2.105528	0.537681	0.380328	0.368332	0.848341	0.782662	-0.616882	-0.083046	0.492738	0.695549	-0.522897
36120	11.264081	2.486210	-2.875926	-0.021354	-2.177599	0.570598	0.395375	0.379873	0.836287	0.780357	-0.619155	-0.087690	0.484480	0.687273	-0.541235
36121	11.774721	3.095364	-2.937755	-0.017424	-2.196538	0.570824	0.410341	0.391353	0.823689	0.777986	-0.621465	-0.092301	0.475771	0.678693	-0.559479
36122	11.542549	3.598671	-2.066426	-0.109609	-2.246808	0.618867	0.425684	0.402648	0.810350	0.774896	-0.624650	-0.096682	0.467257	0.669094	-0.577914
36123	11.601429	2.914784	-1.902416	-0.236279	-2.348838	0.667295	0.441691	0.414071	0.795899	0.770921	-0.628932	-0.100624	0.458901	0.658020	-0.597009
36124	11.667344	2.575651	-1.933997	-0.373698	-2.421351	0.689025	0.457939	0.425510	0.780533	0.766138	-0.634249	-0.103731	0.450914	0.645499	-0.616447
36125	11.576642	2.168581	-2.496515	-0.570000	-2.465287	0.729339	0.474507	0.436617	0.764336	0.760202	-0.641020	-0.105766	0.443775	0.631236	-0.636085
36126	11.523107	1.533660	-3.148607	-0.825964	-2.513957	0.764003	0.491305	0.447358	0.747322	0.752889	-0.649532	-0.106146	0.437924	0.614800	-0.655929
36127	11.078870	0.542943	-3.984390	-1.008704	-2.486388	0.837144	0.508373	0.456964	0.729891	0.744327	-0.659416	-0.105587	0.433052	0.596955	-0.675360
36128	10.951051	-0.786583	-5.045076	-1.255056	-2.444405	0.921678	0.525666	0.465192	0.712230	0.734166	-0.671023	-0.103578	0.429739	0.577343	-0.694262
36129	10.965517	-1.885317	-6.230957	-1.294370	-2.355923	0.991549	0.542953	0.471869	0.694652	0.723342	-0.683000	-0.101424	0.426588	0.557540	-0.712160
36130	11.364800	-2.942918	-7.570753	-1.112402	-2.339035	0.968174	0.559764	0.478033	0.676867	0.713306	-0.693683	-0.099989	0.421733	0.538784	-0.729283
36131	11.183240	-3.738808	-8.197087	-0.688319	-2.216305	0.897100	0.575364	0.483566	0.659637	0.705355	-0.701638	-0.100886	0.414041	0.523324	-0.744783
36132	10.045616	-3.547658	-8.569286	-0.081804	-2.050215	0.734086	0.588834	0.489026	0.643527	0.700770	-0.705617	-0.105003	0.402735	0.512794	-0.758187
36133	8.852491	-2.542539	-7.886864	0.327362	-1.832006	0.568064	0.600041	0.494370	0.628927	0.698709	-0.706728	-0.111093	0.389559	0.506097	-0.769487
36134	7.282932	-2.025876	-8.335845	0.465963	-1.502060	0.411049	0.608610	0.499040	0.616890	0.698035	-0.706405	-0.117212	0.377281	0.501948	-0.778272
36135	5.935337	-1.480802	-8.207501	0.524798	-1.181646	0.309912	0.615141	0.502792	0.607290	0.698110	-0.705314	-0.123187	0.366392	0.499733	-0.784872
36136	4.664940	-2.159066	-9.231311	0.320133	-0.857767	0.241741	0.619880	0.505369	0.600293	0.697803	-0.704919	-0.127121	0.358915	0.497686	-0.789613
36137	3.969306	-3.050362	-9.705097	0.118713	-0.574248	0.206339	0.623342	0.506788	0.595492	0.696964	-0.705358	-0.129270	0.354523	0.495616	-0.792892
36138	5.282241	-2.823306	-7.317915	0.220350	-0.423790	0.117465	0.625597	0.508063	0.592031	0.697032	-0.704846	-0.131673	0.350392	0.495039	-0.795086
36139	6.444562	-3.233281	-6.699038	0.405796	0.138760	-0.142331	0.624093	0.508397	0.593330	0.699360	-0.702091	-0.134030	0.348431	0.498598	-0.793723
36140	6.454196	-3.099668	-7.193013	0.821457	0.565766	-0.426165	0.619079	0.508534	0.598444	0.704887	-0.695776	-0.137950	0.346230	0.507237	-0.789199
36141	5.579729	-1.745570	-6.849942	1.036016	0.969015	-0.673615	0.610930	0.508239	0.607007	0.712630	-0.687018	-0.142005	0.344852	0.519326	-0.781906
36142	5.443092	-1.447726	-7.150368	0.880102	1.367087	-0.833157	0.600173	0.506739	0.618877	0.720744	-0.678144	-0.143695	0.346872	0.532293	-0.772233
36143	5.298763	-1.775313	-7.571480	0.725464	1.647730	-0.927451	0.587672	0.504129	0.632847	0.728805	-0.669531	-0.143427	0.351405	0.545510	-0.760876
36144	6.053340	-1.753918	-7.221365	0.574204	1.903484	-1.088109	0.572882	0.500856	0.648806	0.737181	-0.660875	-0.140742	0.358289	0.558916	-0.747825
36145	6.266373	-1.820565	-6.931710	0.446216	2.219745	-1.275627	0.555338	0.496687	0.667009	0.746014	-0.651972	-0.135627	0.367507	0.572917	-0.732601
36146	6.313974	-2.074790	-6.934604	0.314153	2.491903	-1.449469	0.535098	0.491615	0.687012	0.755112	-0.642970	-0.128041	0.378781	0.587286	-0.715277
36147	6.466952	-2.283150	-6.875386	0.286265	2.743723	-1.613235	0.512250	0.485606	0.708369	0.764680	-0.633369	-0.118778	0.390980	0.602520	-0.695776
36148	6.385792	-2.168260	-6.980998	0.255397	2.965699	-1.741957	0.486992	0.478443	0.730706	0.774419	-0.623397	-0.107945	0.403874	0.618441	-0.674104
36149	6.374613	-1.773379	-6.851622	0.177670	3.128875	-1.826636	0.459883	0.470158	0.753299	0.783812	-0.613605	-0.095539	0.417310	0.634381	-0.650702
36150	6.333663	-1.414661	-6.637466	0.002085	3.296461	-1.874180	0.431047	0.460404	0.776033	0.792187	-0.604856	-0.081171	0.432017	0.649751	-0.625448
36151	6.336647	-1.259981	-6.485799	-0.179022	3.441818	-1.917296	0.400616	0.449331	0.798504	0.799386	-0.597297	-0.064950	0.447760	0.664332	-0.598476
36152	6.564019	-1.152747	-6.437408	-0.311192	3.569031	-1.964977	0.368506	0.437034	0.820490	0.805537	-0.590665	-0.047173	0.464019	0.678319	-0.569711
36153	6.743501	-0.986430	-6.395119	-0.401019	3.702731	-2.007863	0.334763	0.423482	0.841782	0.810715	-0.584760	-0.028228	0.480286	0.691895	-0.539079
36154	6.971493	-0.877536	-6.332745	-0.436106	3.804305	-2.023947	0.299669	0.408678	0.862079	0.815016	-0.579374	-0.008651	0.495931	0.705200	-0.506700
36155	7.124238	-0.683951	-6.301145	-0.432500	3.906576	-2.029233	0.263401	0.392592	0.881188	0.818561	-0.574311	0.011190	0.510469	0.718358	-0.472634
36156	7.300210	-0.533433	-6.179932	-0.363215	3.998010	-2.032650	0.225993	0.375217	0.898966	0.821662	-0.569132	0.030989	0.523257	0.731643	-0.436922
36157	7.486127	-0.230680	-6.127867	-0.237280	4.090724	-2.023566	0.187681	0.356482	0.915258	0.824599	-0.563470	0.050374	0.533677	0.745267	-0.399707
36158	7.595721	0.197437	-6.035452	-0.119744	4.183635	-2.004238	0.148558	0.336236	0.929987	0.827326	-0.557422	0.069376	0.541722	0.759096	-0.360986
36159	7.612734	0.731808	-6.076873	-0.041345	4.252980	-1.966972	0.109061	0.314578	0.942945	0.829637	-0.551328	0.087974	0.547547	0.772708	-0.321114
36160	7.754953	1.473807	-5.997262	-0.026260	4.299072	-1.901360	0.069572	0.291503	0.954036	0.831188	-0.545766	0.106144	0.551622	0.785598	-0.280264
36161	8.025153	2.017181	-5.610948	-0.149032	4.328985	-1.799910	0.030620	0.267050	0.963196	0.831264	-0.541911	0.123822	0.555034	0.796879	-0.238582
36162	8.489141	2.031412	-5.389257	-0.321770	4.358138	-1.707673	-0.007892	0.241351	0.970406	0.829660	-0.540147	0.141088	0.558214	0.806220	-0.195976
36163	8.902662	1.657533	-5.218416	-0.495839	4.362351	-1.636022	-0.045892	0.214872	0.975563	0.826441	-0.540426	0.157908	0.561150	0.813492	-0.152778
36164	9.068693	1.587602	-4.616972	-0.579053	4.310441	-1.547078	-0.082945	0.188059	0.978649	0.822177	-0.542036	0.173842	0.563156	0.819043	-0.109658
36165	9.582563	1.386942	-3.783003	-0.642332	4.196262	-1.440986	-0.118446	0.161450	0.979747	0.817099	-0.544789	0.188557	0.564198	0.822885	-0.067393
36166	9.578727	0.981024	-2.315771	-0.646106	4.025542	-1.343928	-0.152164	0.135622	0.979006	0.811622	-0.548119	0.202079	0.564018	0.825332	-0.026670
36167	8.665825	1.052520	0.125878	-0.520296	3.779215	-1.272103	-0.183766	0.111399	0.976637	0.806547	-0.550846	0.214593	0.561882	0.827139	0.011378
36168	8.954386	0.455453	1.349239	-0.263901	3.355761	-1.227973	-0.212486	0.090385	0.972975	0.802621	-0.551795	0.226542	0.557359	0.829067	0.044704
36169	10.121883	0.803304	-0.606168	0.039939	3.115269	-1.183248	-0.239249	0.071050	0.968355	0.800160	-0.550509	0.238085	0.550004	0.831800	0.074858
36170	9.592258	2.110222	1.281454	-0.164630	2.588298	-1.010510	-0.261544	0.055083	0.963619	0.796710	-0.551246	0.247752	0.544838	0.832522	0.100290
36171	8.261701	1.428585	1.772122	-0.251026	1.977697	-0.840011	-0.278993	0.043275	0.959318	0.793065	-0.552924	0.255585	0.541490	0.832107	0.119942
36172	7.002800	2.224752	2.450307	-0.003691	1.462454	-0.648212	-0.292072	0.034691	0.955767	0.791174	-0.552708	0.261835	0.537343	0.832653	0.133984
36173	6.214025	3.065024	2.770101	0.144929	0.987229	-0.416451	-0.300680	0.028779	0.953291	0.790704	-0.551370	0.266043	0.533272	0.833764	0.143030
36174	6.432419	3.409907	2.458086	0.125882	0.524401	-0.152876	-0.304735	0.025252	0.952102	0.790890	-0.550285	0.267731	0.530688	0.834595	0.147720
36175	6.379751	2.556697	1.242463	0.057688	0.084499	0.107790	-0.304360	0.023969	0.952256	0.791511	-0.549832	0.266822	0.529976	0.834931	0.148375
36176	6.547861	1.342037	-0.277269	0.049059	-0.287216	0.315214	-0.300398	0.024639	0.953496	0.792703	-0.549506	0.263940	0.530455	0.835126	0.145539
36177	6.503088	0.395446	-2.022816	0.122241	-0.541087	0.466259	-0.293855	0.026615	0.955479	0.794725	-0.548607	0.259697	0.531094	0.835657	0.140059
36178	6.522896	-0.460281	-3.586396	0.249587	-0.705680	0.560761	-0.285698	0.029451	0.957867	0.797656	-0.546683	0.254721	0.531151	0.836822	0.132694
36179	6.412150	-0.743474	-4.521943	0.367547	-0.806200	0.618488	-0.276503	0.032847	0.960451	0.801334	-0.543798	0.249293	0.530481	0.838573	0.124040
36180	6.404596	-0.854076	-5.100160	0.400458	-0.863618	0.677302	-0.266535	0.036434	0.963136	0.805278	-0.540676	0.243303	0.529609	0.840442	0.114769
36181	6.767923	-0.554417	-5.200605	0.384512	-0.912745	0.709517	-0.256007	0.040302	0.965834	0.809156	-0.537715	0.236915	0.528892	0.842163	0.105048
36182	8.670066	0.743122	-3.728466	0.264516	-0.877931	0.719586	-0.245574	0.043852	0.968386	0.812345	-0.535791	0.230266	0.528950	0.843211	0.095953
36183	12.202424	4.403486	2.218591	-0.100194	-0.523276	0.602978	-0.237930	0.045043	0.970237	0.813262	-0.536905	0.224360	0.531032	0.842439	0.091114
36184	15.256947	6.341007	4.078669	-0.278271	-0.228435	0.397386	-0.233526	0.044843	0.971316	0.812703	-0.539428	0.220296	0.533834	0.840837	0.089527
36185	17.420443	5.435934	1.578256	-0.149156	-0.519643	0.418212	-0.227377	0.046965	0.972674	0.812859	-0.540875	0.216134	0.536246	0.839791	0.084806
36186	15.887339	1.756010	1.373994	0.305133	-0.902853	0.587421	-0.217800	0.051398	0.974639	0.815788	-0.538602	0.210706	0.535773	0.840991	0.075378
36187	12.371776	-0.394743	-0.509352	1.212865	-1.142798	0.800222	-0.205190	0.056786	0.977073	0.823924	-0.528800	0.203761	0.528248	0.846844	0.061717
36188	11.675771	2.031592	-3.214953	1.893009	-1.440069	1.000767	-0.189414	0.063846	0.979819	0.835766	-0.513289	0.195013	0.515382	0.855837	0.043863
36189	10.657565	4.576753	-5.019743	1.921060	-1.459496	1.048633	-0.173195	0.071115	0.982317	0.847430	-0.497472	0.185428	0.501862	0.864560	0.025894
36190	7.698478	4.095330	-4.825815	1.152756	-1.368017	0.958853	-0.158263	0.078268	0.984290	0.854751	-0.488195	0.176255	0.494321	0.869218	0.010363
36191	8.584077	1.195879	-5.048175	0.387567	-1.319933	0.929396	-0.143819	0.085235	0.985927	0.858061	-0.485585	0.167146	0.492998	0.870024	-0.003300
36192	8.480969	0.451626	-4.348241	-0.123316	-1.196651	0.876434	-0.130421	0.091397	0.987237	0.858645	-0.487430	0.158559	0.495701	0.868365	-0.014906
36193	9.702703	0.281904	-3.661069	-0.518784	-1.101400	0.867329	-0.117520	0.096704	0.988351	0.857127	-0.492742	0.150129	0.501520	0.864785	-0.024981
36194	10.430409	0.070686	-2.738077	-0.714758	-1.050383	0.857797	-0.104910	0.101536	0.989285	0.854463	-0.499755	0.141906	0.508809	0.860195	-0.034329
36195	10.551698	-0.327029	-2.296255	-0.637833	-1.005123	0.809404	-0.092889	0.106103	0.990007	0.851993	-0.506068	0.134177	0.515248	0.855942	-0.043391
36196	9.879380	-0.045208	-1.764963	-0.392713	-0.969248	0.738047	-0.081626	0.110665	0.990500	0.850599	-0.510222	0.127102	0.519441	0.852893	-0.052484
36197	9.457550	0.587550	-1.044758	-0.268933	-0.964978	0.690196	-0.070762	0.115365	0.990799	0.849719	-0.513292	0.120452	0.522465	0.850425	-0.061706
36198	9.303645	1.015843	-0.289256	-0.205732	-0.950340	0.678391	-0.060056	0.119977	0.990959	0.849081	-0.515835	0.113910	0.524838	0.848245	-0.070891
36199	9.112253	1.293427	0.201759	-0.227405	-0.956792	0.688810	-0.049208	0.124533	0.990994	0.848257	-0.518602	0.107290	0.527293	0.845898	-0.080117
36200	9.225773	1.009747	0.282574	-0.334006	-0.986624	0.677168	-0.038283	0.129371	0.990857	0.846783	-0.522280	0.100908	0.530559	0.842904	-0.089554
36201	9.324997	0.384470	0.045940	-0.457451	-0.999439	0.693094	-0.027129	0.134154	0.990589	0.844570	-0.527039	0.094506	0.534758	0.839185	-0.099005
36202	9.413809	-0.391732	-0.517329	-0.475450	-0.985801	0.686518	-0.016080	0.138803	0.990190	0.842162	-0.531955	0.088244	0.538985	0.835319	-0.108341
36203	9.493691	-0.978732	-1.440895	-0.339371	-0.934759	0.648218	-0.005605	0.143151	0.989685	0.840396	-0.535697	0.082244	0.541944	0.832188	-0.117300
36204	9.614333	-1.230692	-2.273990	-0.127346	-0.868690	0.579022	0.003940	0.147293	0.989085	0.839707	-0.537593	0.076712	0.543025	0.830240	-0.125801
36205	9.890877	-1.301883	-2.809133	0.059901	-0.819212	0.525133	0.012765	0.151281	0.988408	0.839987	-0.537878	0.071477	0.542456	0.829338	-0.133941
36206	10.156934	-1.104900	-3.072673	0.122670	-0.774692	0.506875	0.021194	0.155007	0.987686	0.840564	-0.537635	0.066339	0.541297	0.828807	-0.141688
36207	10.037373	-0.828403	-3.235888	0.083295	-0.734340	0.496307	0.029307	0.158437	0.986934	0.840888	-0.537720	0.061352	0.540415	0.828103	-0.148987
36208	9.863979	-0.472593	-3.313239	0.053067	-0.712851	0.457942	0.036983	0.161903	0.986113	0.841022	-0.538011	0.056791	0.539735	0.827243	-0.156061
36209	9.792979	-0.091166	-2.983655	0.031025	-0.698198	0.406629	0.044138	0.165502	0.985221	0.841024	-0.538418	0.052768	0.539194	0.826266	-0.162956
36210	9.872806	0.119016	-2.664571	0.006986	-0.676017	0.388309	0.051024	0.169022	0.984291	0.840877	-0.539006	0.048968	0.538816	0.825169	-0.169629
36211	9.970980	0.003216	-2.448109	0.006325	-0.650639	0.373317	0.057636	0.172389	0.983341	0.840708	-0.539589	0.045319	0.538412	0.824091	-0.176029
36212	9.934515	-0.078244	-2.221073	0.041391	-0.634302	0.375169	0.064181	0.175619	0.982364	0.840703	-0.539897	0.041593	0.537680	0.823207	-0.182294
36213	9.922455	0.036804	-1.979831	0.142597	-0.619427	0.359368	0.070497	0.178793	0.981358	0.841227	-0.539357	0.037835	0.536067	0.822877	-0.188429
36214	9.892471	0.113485	-1.934201	0.243113	-0.589464	0.312376	0.076257	0.181992	0.980339	0.842299	-0.537916	0.034340	0.533589	0.823119	-0.194312
36215	9.736659	0.477180	-1.628323	0.317652	-0.584912	0.294995	0.081825	0.185240	0.979281	0.843756	-0.535839	0.030858	0.530453	0.823749	-0.200142
36216	9.542212	0.505828	-1.528060	0.293517	-0.594951	0.290189	0.087400	0.188620	0.978153	0.845065	-0.533959	0.027456	0.527472	0.824203	-0.206064
36217	9.382196	0.527691	-1.377826	0.247258	-0.612070	0.290182	0.093043	0.192133	0.976948	0.846105	-0.532470	0.024137	0.524833	0.824355	-0.212107
36218	9.197757	0.502514	-1.267851	0.199473	-0.636973	0.291547	0.098824	0.195862	0.975639	0.846871	-0.531387	0.020896	0.522535	0.824176	-0.218383
36219	9.179129	0.537202	-1.161321	0.150703	-0.663928	0.297183	0.104773	0.199768	0.974225	0.847356	-0.530729	0.017699	0.520586	0.823662	-0.224881
36220	9.127440	0.343526	-1.139244	0.103275	-0.701435	0.307679	0.111002	0.203939	0.972670	0.847563	-0.530496	0.014504	0.518956	0.822790	-0.231737
36221	9.220972	0.238501	-1.241482	0.095394	-0.728586	0.305515	0.117336	0.208324	0.970996	0.847711	-0.530338	0.011344	0.517319	0.821793	-0.238826
36222	9.138069	0.192215	-1.235707	0.109071	-0.757848	0.305807	0.123817	0.212954	0.969185	0.847907	-0.530082	0.008148	0.515483	0.820770	-0.246199
36223	9.086544	0.138287	-1.305457	0.116868	-0.783378	0.308995	0.130437	0.217757	0.967248	0.848118	-0.529784	0.004899	0.513499	0.819702	-0.253787
36224	9.107705	-0.003806	-1.536805	0.128636	-0.808564	0.321646	0.137283	0.222703	0.965172	0.848350	-0.529434	0.001495	0.511328	0.818598	-0.261612
36225	9.016079	-0.201239	-1.712046	0.157263	-0.821699	0.350232	0.144415	0.227587	0.962989	0.848661	-0.528932	-0.002265	0.508840	0.817579	-0.269530
36226	9.287558	-0.400757	-1.862437	0.178526	-0.853681	0.320879	0.151445	0.232891	0.960638	0.849096	-0.528207	-0.005805	0.506064	0.816553	-0.277741
36227	9.195497	-0.178920	-2.213618	0.224357	-0.865747	0.318101	0.158483	0.238293	0.958175	0.849738	-0.527120	-0.009455	0.502820	0.815697	-0.286026
36228	9.214003	-0.193139	-2.384294	0.206304	-0.885164	0.320923	0.165621	0.243843	0.955568	0.850256	-0.526207	-0.013090	0.499635	0.814645	-0.294479
36229	9.096379	-0.366611	-2.522705	0.196865	-0.897550	0.325495	0.172828	0.249452	0.952840	0.850689	-0.525402	-0.016750	0.496445	0.813466	-0.303011
36230	9.290157	-0.418295	-2.447448	0.171186	-0.923658	0.332566	0.180202	0.255237	0.949938	0.850954	-0.524844	-0.020406	0.493361	0.812030	-0.311773
36231	9.428271	-0.438134	-2.206577	0.139566	-0.960476	0.328849	0.187694	0.261317	0.946829	0.851040	-0.524556	-0.023933	0.490410	0.810281	-0.320847
36232	9.501831	-0.387213	-2.003760	0.150192	-0.992760	0.321665	0.195258	0.267688	0.943513	0.851163	-0.524185	-0.027428	0.487233	0.808439	-0.330197
36233	9.445287	-0.071422	-1.976730	0.181588	-1.017555	0.338229	0.203046	0.274147	0.940008	0.851376	-0.523629	-0.031188	0.483665	0.806633	-0.339723
36234	9.554063	0.223766	-2.289211	0.206359	-1.067220	0.331837	0.210985	0.281031	0.936220	0.851688	-0.522881	-0.034978	0.479701	0.804747	-0.349670
36235	9.485210	0.927785	-2.291205	0.232418	-1.096784	0.353844	0.219205	0.288013	0.932200	0.852042	-0.522013	-0.039075	0.475366	0.802840	-0.359827
36236	9.431226	0.801260	-2.173108	0.162037	-1.170784	0.380500	0.227960	0.295432	0.927768	0.851964	-0.521817	-0.043171	0.471371	0.800267	-0.370651
36237	9.275333	0.380656	-2.268756	0.134886	-1.238597	0.379819	0.236978	0.303358	0.922938	0.851721	-0.521870	-0.047160	0.467347	0.797262	-0.382048
36238	9.286233	0.128289	-2.476182	0.121344	-1.295321	0.380184	0.246211	0.311698	0.917728	0.851373	-0.522066	-0.051094	0.463189	0.793909	-0.393910
36239	9.321539	0.098406	-2.507442	0.130224	-1.346705	0.404126	0.255828	0.320270	0.912129	0.850966	-0.522304	-0.055280	0.458704	0.790333	-0.406159
36240	9.308271	0.342785	-2.497805	0.105859	-1.405748	0.450562	0.266044	0.329016	0.906073	0.850280	-0.522924	-0.059776	0.454141	0.786320	-0.418877
36241	9.472356	0.197134	-2.340260	0.044390	-1.483131	0.470842	0.276717	0.338193	0.899474	0.849211	-0.524139	-0.064183	0.449743	0.781604	-0.432235
36242	9.605220	-0.068324	-2.471831	0.044219	-1.554695	0.473227	0.287654	0.347839	0.892336	0.848081	-0.525409	-0.068580	0.444987	0.776501	-0.446132
36243	9.513388	-0.320212	-2.670132	0.130402	-1.620832	0.502362	0.299047	0.357758	0.884636	0.847193	-0.526163	-0.073603	0.439131	0.771468	-0.460437
36244	9.799459	0.231058	-2.678697	0.172570	-1.701268	0.453027	0.310262	0.368469	0.876338	0.846573	-0.526472	-0.078362	0.432494	0.766197	-0.475280
36245	10.126077	0.554276	-2.675611	0.177971	-1.785792	0.489096	0.322030	0.379539	0.867321	0.845800	-0.526933	-0.083454	0.425346	0.760455	-0.490703
36246	10.304765	0.552804	-2.865527	0.130183	-1.880006	0.499798	0.334145	0.391153	0.857523	0.844719	-0.527863	-0.088375	0.418087	0.753897	-0.506797
36247	10.882302	0.526637	-3.328639	0.119466	-1.962008	0.553760	0.346917	0.402963	0.846918	0.843338	-0.529155	-0.093679	0.410402	0.746737	-0.523406
36248	11.003924	1.295765	-3.340963	0.129309	-1.993512	0.526216	0.359411	0.415000	0.835822	0.842017	-0.530335	-0.098755	0.402283	0.739270	-0.540045
36249	11.676403	2.227842	-3.392987	0.104161	-2.061591	0.561695	0.372313	0.427189	0.823950	0.840387	-0.531923	-0.103957	0.393869	0.731141	-0.557046
36250	11.739414	2.849760	-3.520833	0.046160	-2.094552	0.600985	0.385476	0.439218	0.811477	0.838303	-0.534180	-0.109090	0.385560	0.722315	-0.574111
36251	11.424423	2.806116	-3.522789	-0.080841	-2.146287	0.640756	0.399001	0.451196	0.798261	0.835493	-0.537600	-0.113747	0.377823	0.712326	-0.591474
36252	11.153388	2.061798	-3.700975	-0.283325	-2.222559	0.689471	0.413023	0.463185	0.784138	0.831647	-0.542742	-0.117454	0.371181	0.700637	-0.609371
36253	11.073377	1.691846	-3.886873	-0.446550	-2.250982	0.736643	0.427393	0.474804	0.769348	0.826919	-0.549283	-0.120385	0.365430	0.687641	-0.627384
36254	10.809732	1.532339	-4.056585	-0.650215	-2.260240	0.799244	0.442137	0.485769	0.754018	0.821099	-0.557533	-0.122286	0.360987	0.673190	-0.645371
36255	10.731494	1.127216	-4.418858	-0.950628	-2.283461	0.841901	0.457205	0.496232	0.738050	0.813907	-0.567974	-0.122317	0.358495	0.656628	-0.663567
36256	10.292251	0.377107	-4.616669	-1.207738	-2.240096	0.868684	0.472210	0.505760	0.721959	0.805561	-0.580133	-0.120485	0.357896	0.638476	-0.681365
36257	9.750357	-0.676185	-5.120148	-1.377933	-2.223106	0.918070	0.487495	0.514369	0.705531	0.796236	-0.593466	-0.117501	0.358269	0.619050	-0.698870
36258	9.639303	-1.473101	-5.528044	-1.387218	-2.196308	0.931354	0.502682	0.522168	0.688950	0.786672	-0.606730	-0.114132	0.358410	0.599349	-0.715767
36259	9.939877	-2.230732	-5.910161	-1.278031	-2.144251	0.959573	0.517833	0.528951	0.672354	0.777217	-0.619296	-0.111387	0.357467	0.580244	-0.731801
36260	10.281164	-2.461621	-6.552280	-0.945078	-2.007426	0.956743	0.532319	0.534465	0.656494	0.768849	-0.629773	-0.110712	0.354270	0.563679	-0.746163
36261	10.330061	-2.112294	-6.799816	-0.592634	-1.847732	0.939455	0.545977	0.538818	0.641548	0.761718	-0.638098	-0.112325	0.348848	0.550005	-0.758814
36262	10.335442	-1.928316	-7.307038	-0.347424	-1.708219	0.914261	0.558761	0.542256	0.627491	0.755488	-0.644915	-0.115426	0.342088	0.538557	-0.770021
36263	9.866075	-1.724895	-7.636549	-0.049785	-1.543264	0.852709	0.570370	0.545000	0.614535	0.750524	-0.649800	-0.120311	0.333755	0.529845	-0.779661
36264	9.109588	-1.237251	-7.444221	0.237258	-1.330908	0.746271	0.580284	0.547158	0.603232	0.747033	-0.652607	-0.126672	0.324364	0.524140	-0.787442
36265	7.889620	-0.706501	-7.568817	0.355092	-1.037196	0.638490	0.588338	0.548425	0.594213	0.744458	-0.654232	-0.133278	0.315660	0.520778	-0.793189
36266	6.608758	-0.284764	-7.933741	0.368473	-0.807158	0.566278	0.595012	0.548916	0.587071	0.742280	-0.655406	-0.139511	0.308190	0.518782	-0.797424
36267	5.727296	-0.399352	-8.385427	0.189624	-0.515295	0.512364	0.600358	0.548243	0.582237	0.739817	-0.657217	-0.143998	0.303710	0.517199	-0.800166
36268	3.925719	-2.115931	-10.144621	-0.227534	-0.237863	0.514180	0.604822	0.546085	0.579639	0.736052	-0.661186	-0.145120	0.304002	0.514417	-0.801847
36269	4.078052	-2.582118	-8.710995	-0.218816	-0.245550	0.532595	0.609452	0.543833	0.576900	0.732173	-0.665194	-0.146420	0.304123	0.511627	-0.803584
36270	6.330871	-2.609189	-5.993959	0.012348	0.113800	0.333254	0.611491	0.541036	0.577372	0.730201	-0.666921	-0.148402	0.304770	0.512344	-0.802882
36271	6.848730	-2.724482	-6.254377	0.350515	0.764760	-0.040785	0.608828	0.537386	0.583563	0.731542	-0.664877	-0.150948	0.306880	0.518802	-0.797916
36272	6.347244	-1.847859	-6.142405	0.606367	1.171137	-0.372960	0.602430	0.533723	0.593479	0.735694	-0.659684	-0.153528	0.309567	0.529109	-0.790071
36273	5.991147	-1.823271	-6.877505	0.585055	1.569165	-0.576600	0.593248	0.529131	0.606693	0.740987	-0.653472	-0.154637	0.314634	0.541290	-0.779751
36274	5.410019	-2.225846	-7.571469	0.637938	1.833353	-0.695289	0.582197	0.523601	0.622004	0.747125	-0.646297	-0.155260	0.320705	0.555106	-0.767467
36275	5.329776	-1.618921	-7.670540	0.639718	2.000034	-0.794278	0.569727	0.517475	0.638459	0.753791	-0.638548	-0.155096	0.327429	0.569627	-0.753867
36276	5.329644	-1.235722	-7.246073	0.447321	2.251531	-0.928875	0.555161	0.510385	0.656737	0.760525	-0.631176	-0.152376	0.336746	0.584058	-0.738565
36277	5.383934	-1.309693	-7.094603	0.249503	2.479409	-1.083049	0.538365	0.502546	0.676470	0.767319	-0.624201	-0.146952	0.348402	0.598182	-0.721661
36278	5.649936	-1.624362	-6.993240	0.081237	2.737797	-1.254010	0.518912	0.493759	0.697805	0.774259	-0.617445	-0.138869	0.362288	0.612343	-0.702697
36279	5.879727	-2.249839	-7.297927	0.046634	2.997459	-1.426885	0.496699	0.483956	0.720470	0.781694	-0.610165	-0.129046	0.377153	0.627284	-0.681374
36280	5.882422	-2.399537	-7.575593	0.069654	3.172555	-1.547566	0.472279	0.473187	0.743671	0.789480	-0.602300	-0.118136	0.392013	0.642906	-0.658025
36281	6.020968	-2.090898	-7.592201	0.071385	3.288745	-1.629443	0.446189	0.461548	0.766739	0.797263	-0.594206	-0.106262	0.406556	0.658705	-0.633103
36282	6.436630	-2.005272	-8.148212	-0.061795	3.269127	-1.611693	0.419692	0.449294	0.788666	0.804001	-0.587263	-0.093296	0.421237	0.673244	-0.607702
36283	8.475186	-0.598960	-5.643431	-0.051431	3.245240	-1.534004	0.393389	0.436192	0.809309	0.810031	-0.580808	-0.080703	0.434851	0.687313	-0.581812
36284	7.403632	-0.512485	-6.463203	-0.178187	3.475292	-1.667977	0.364401	0.421698	0.830291	0.815576	-0.574877	-0.065968	0.449497	0.701204	-0.553413
36285	6.813072	-0.254779	-6.520986	-0.331157	3.404197	-1.776804	0.334284	0.407804	0.849676	0.820282	-0.569838	-0.049224	0.464104	0.713429	-0.525002
36286	7.465305	0.119244	-6.072064	-0.557223	3.438970	-1.779140	0.303370	0.393193	0.867967	0.823334	-0.566707	-0.031049	0.479674	0.724046	-0.495651
36287	7.714228	0.114239	-5.990752	-0.694282	3.439244	-1.699480	0.272564	0.377763	0.884875	0.824852	-0.565204	-0.012783	0.495306	0.733375	-0.465653
36288	7.655859	-0.391964	-6.037684	-0.686541	3.520999	-1.678823	0.240944	0.361256	0.900800	0.825717	-0.564059	0.005349	0.510036	0.742517	-0.434202
36289	7.457203	-0.986396	-6.076596	-0.447717	3.626659	-1.725976	0.207931	0.343867	0.915708	0.827287	-0.561311	0.022930	0.521882	0.752785	-0.401191
36290	7.467862	-1.154463	-6.290096	-0.041733	3.720941	-1.786137	0.173503	0.325601	0.929452	0.830477	-0.555642	0.039623	0.529343	0.765014	-0.366809
36291	7.806846	-0.572441	-6.033022	0.327141	3.774276	-1.789252	0.138528	0.306349	0.941786	0.835010	-0.547454	0.055256	0.532512	0.778746	-0.331642
36292	8.061521	0.196053	-5.625292	0.563618	3.823734	-1.756807	0.103389	0.285828	0.952687	0.840136	-0.537816	0.070182	0.532431	0.793131	-0.295739
36293	8.001702	1.016279	-5.218862	0.630038	3.843561	-1.749712	0.068185	0.264411	0.961997	0.844987	-0.527953	0.085220	0.530423	0.807064	-0.259422
36294	8.103143	1.536826	-4.671749	0.524487	3.825296	-1.765969	0.032925	0.242547	0.969581	0.848652	-0.519207	0.101065	0.527926	0.819509	-0.222932
36295	8.249200	1.815763	-4.153085	0.305206	3.791004	-1.728254	-0.001771	0.220211	0.975451	0.850528	-0.512685	0.117284	0.525926	0.829856	-0.186388
36296	8.621863	1.886195	-3.739336	0.005081	3.715694	-1.667063	-0.035537	0.197751	0.979608	0.850237	-0.509157	0.133627	0.525199	0.837648	-0.150041
36297	8.824874	1.722428	-3.305308	-0.265320	3.606760	-1.596999	-0.068083	0.175578	0.982108	0.848012	-0.508402	0.149678	0.525586	0.843030	-0.114279
36298	9.333832	1.566291	-3.344407	-0.407179	3.501982	-1.519313	-0.099416	0.153729	0.983099	0.844588	-0.509341	0.165055	0.526106	0.846723	-0.079201
36299	9.276725	1.555974	-3.083286	-0.415084	3.378711	-1.401325	-0.129029	0.132234	0.982785	0.840798	-0.510856	0.179124	0.525747	0.849436	-0.045267
36300	9.631315	2.111005	-1.573469	-0.386581	3.192774	-1.297211	-0.156733	0.111731	0.981301	0.836902	-0.512562	0.192030	0.524433	0.851350	-0.013172
36301	10.039629	2.238188	1.352299	-0.385618	2.920387	-1.176087	-0.181875	0.092906	0.978923	0.832884	-0.514643	0.203585	0.522710	0.852356	0.016221
36302	8.725056	1.612649	-0.199949	-0.053946	2.604015	-1.045434	-0.204178	0.076075	0.975973	0.830570	-0.514222	0.213841	0.518135	0.854276	0.041807
36303	8.352743	3.011286	0.051859	0.213781	2.097605	-0.759339	-0.221317	0.062038	0.973227	0.830047	-0.511870	0.221386	0.511899	0.856820	0.061791
36304	8.207608	2.506718	0.783662	-0.436405	1.527954	-0.572496	-0.233936	0.051909	0.970865	0.826493	-0.515283	0.226699	0.512038	0.855447	0.077640
36305	7.728921	0.995725	0.396077	-0.446382	1.119657	-0.483357	-0.243692	0.044854	0.968815	0.823041	-0.518865	0.231047	0.513048	0.853679	0.089526
36306	6.978635	1.241456	-0.439768	-0.309651	0.715940	-0.340119	-0.250216	0.040529	0.967341	0.820594	-0.521365	0.234102	0.513826	0.852371	0.097196
36307	6.842302	1.703675	-1.157144	-0.251450	0.308783	-0.094223	-0.252608	0.038406	0.966806	0.819053	-0.523471	0.234797	0.515113	0.851177	0.100777
36308	6.582468	1.543559	-2.040570	-0.260130	-0.036797	0.134093	-0.251372	0.038030	0.967143	0.818031	-0.525738	0.233290	0.517336	0.849796	0.101046
36309	6.347534	0.779862	-2.979146	-0.320567	-0.328494	0.283858	-0.247377	0.039337	0.968121	0.817065	-0.528571	0.230256	0.520778	0.847977	0.098615
36310	6.286743	0.034833	-3.838243	-0.352146	-0.553026	0.372495	-0.241493	0.042064	0.969491	0.816118	-0.531707	0.226359	0.525007	0.845883	0.094074
36311	6.209319	-0.364633	-4.144197	-0.379111	-0.745645	0.498630	-0.233523	0.045718	0.971276	0.815293	-0.535130	0.221208	0.529872	0.843532	0.087692
36312	7.156240	-0.456121	-3.150918	-0.422881	-0.968507	0.668602	-0.222959	0.050306	0.973529	0.814552	-0.539014	0.214403	0.535531	0.840793	0.079201
36313	11.305490	0.817582	-0.266407	-0.505747	-1.050711	0.818492	-0.210665	0.054707	0.976026	0.813593	-0.543689	0.206080	0.541928	0.837502	0.070027
36314	14.878259	3.718584	2.521669	-0.614547	-0.762579	0.704142	-0.200826	0.057256	0.977952	0.811679	-0.549218	0.198836	0.548494	0.833715	0.063824
36315	16.120391	1.452360	1.610865	-0.748422	-0.741517	0.499893	-0.192711	0.060675	0.979378	0.808521	-0.555737	0.193521	0.556018	0.829141	0.058040
36316	14.864578	-2.411878	-1.971823	-0.076341	-0.926447	0.562754	-0.183038	0.065244	0.980938	0.809142	-0.556724	0.188011	0.558379	0.828131	0.049110
36317	12.474698	-1.564982	-3.895810	1.048144	-1.218075	0.868174	-0.169249	0.070579	0.983043	0.816482	-0.548608	0.179961	0.552007	0.833095	0.035225
36318	10.958432	1.722202	-4.200685	1.641130	-1.272821	1.019675	-0.153948	0.075729	0.985173	0.827087	-0.535616	0.170418	0.540580	0.841059	0.019823
36319	8.946358	3.189082	-4.609161	1.701867	-1.171532	0.944243	-0.139859	0.080651	0.986881	0.837562	-0.521972	0.161355	0.528138	0.849141	0.005452
36320	8.573906	2.858499	-4.934071	1.040976	-1.111957	0.802425	-0.127311	0.085991	0.988128	0.844087	-0.513776	0.153464	0.520873	0.853604	-0.007175
36321	8.919815	1.566379	-5.052352	0.566925	-1.053170	0.777874	-0.115294	0.091025	0.989152	0.847968	-0.509620	0.145734	0.517357	0.855571	-0.018430
36322	9.101876	1.773424	-3.925366	0.191398	-0.986653	0.723582	-0.104079	0.095817	0.989943	0.849745	-0.508656	0.138572	0.516818	0.855622	-0.028480
36323	9.953302	1.169021	-2.929915	-0.061188	-0.949799	0.704617	-0.093205	0.100363	0.990576	0.850119	-0.509870	0.131648	0.518277	0.854377	-0.037798
36324	10.397850	0.552998	-2.161098	-0.182905	-0.918086	0.706938	-0.082454	0.104623	0.991088	0.849785	-0.512153	0.124764	0.520641	0.852499	-0.046678
36325	10.068615	0.194948	-1.587603	-0.206614	-0.908080	0.713436	-0.071686	0.108707	0.991486	0.849252	-0.514672	0.117831	0.523099	0.850468	-0.055425
36326	9.739932	-0.138983	-1.058308	-0.216208	-0.892827	0.689698	-0.061174	0.112771	0.991736	0.848572	-0.517270	0.111162	0.525531	0.848360	-0.064051
36327	9.649166	-0.094003	-0.610889	-0.227607	-0.883782	0.646329	-0.051068	0.116921	0.991827	0.847732	-0.519940	0.104942	0.527960	0.846163	-0.072565
36328	9.805747	0.027388	-0.450069	-0.268718	-0.879541	0.613751	-0.041237	0.121191	0.991772	0.846590	-0.522938	0.099101	0.530645	0.843711	-0.081035
36329	9.604111	0.174554	-0.393671	-0.259535	-0.865014	0.603897	-0.031558	0.125326	0.991614	0.845426	-0.525868	0.093368	0.533159	0.841283	-0.089359
36330	9.466634	0.245904	-0.567449	-0.173987	-0.843544	0.589657	-0.022093	0.129344	0.991354	0.844653	-0.528077	0.087723	0.534858	0.839288	-0.097584
36331	9.472259	0.431180	-0.819964	-0.133704	-0.841488	0.584721	-0.012681	0.133320	0.990992	0.844036	-0.529965	0.082098	0.536136	0.837474	-0.105807
36332	9.527701	0.360587	-1.266119	-0.144710	-0.833509	0.590632	-0.003246	0.137194	0.990539	0.843305	-0.531971	0.076443	0.537426	0.835574	-0.113970
36333	9.541338	0.079302	-1.727849	-0.143233	-0.817376	0.593528	0.006124	0.140867	0.990010	0.842524	-0.533990	0.070769	0.538624	0.833673	-0.121954
36334	9.712122	-0.313878	-2.220117	-0.100770	-0.780147	0.561442	0.015036	0.144399	0.989405	0.841920	-0.535627	0.065377	0.539393	0.832017	-0.129626
36335	9.855242	-0.614916	-2.557977	-0.037183	-0.734971	0.521661	0.023362	0.147727	0.988752	0.841618	-0.536696	0.060301	0.539568	0.830743	-0.136868
36336	9.936655	-0.819449	-2.670090	-0.007500	-0.705792	0.498733	0.031347	0.150945	0.988045	0.841441	-0.537500	0.055419	0.539439	0.829644	-0.143861
36337	10.018483	-0.745369	-2.824444	0.030913	-0.673628	0.473707	0.038934	0.153999	0.987304	0.841440	-0.537964	0.050729	0.538946	0.828782	-0.150526
36338	10.024741	-0.428522	-2.852113	0.025530	-0.655339	0.449564	0.046231	0.157045	0.986509	0.841387	-0.538448	0.046287	0.538453	0.827895	-0.157029
36339	9.934905	-0.331495	-2.788600	0.039392	-0.627820	0.420369	0.053115	0.159991	0.985688	0.841389	-0.538786	0.042113	0.537813	0.827111	-0.163233
36340	9.947111	-0.124288	-2.619671	0.066696	-0.604027	0.384732	0.059583	0.162951	0.984833	0.841532	-0.538852	0.038245	0.536912	0.826490	-0.169235
36341	9.849440	-0.012978	-2.408984	0.073074	-0.584161	0.363090	0.065742	0.165836	0.983960	0.841696	-0.538843	0.034579	0.535934	0.825922	-0.175008
36342	9.808693	-0.095302	-2.052528	0.081731	-0.566727	0.336671	0.071596	0.168740	0.983057	0.841904	-0.538727	0.031155	0.534857	0.825409	-0.180634
36343	9.778667	-0.066966	-1.939403	0.114950	-0.541104	0.311696	0.077080	0.171542	0.982157	0.842287	-0.538306	0.027916	0.533490	0.825106	-0.185980
36344	9.828404	0.162728	-1.762274	0.164181	-0.526170	0.283699	0.082260	0.174396	0.981234	0.842937	-0.537439	0.024854	0.531687	0.825073	-0.191214
36345	9.618711	0.306051	-1.517453	0.161728	-0.528379	0.274224	0.087346	0.177298	0.980274	0.843563	-0.536583	0.021885	0.529879	0.825011	-0.196430
36346	9.568962	0.534296	-1.441861	0.177171	-0.537770	0.268992	0.092446	0.180330	0.979252	0.844260	-0.535599	0.018929	0.527900	0.824994	-0.201760
36347	9.409616	0.848766	-1.192533	0.159157	-0.564466	0.268178	0.097655	0.183566	0.978145	0.844845	-0.534771	0.016013	0.526023	0.824817	-0.207308
36348	9.307872	0.586035	-0.927564	0.069916	-0.608908	0.275416	0.103166	0.187151	0.976899	0.844938	-0.534701	0.013206	0.524820	0.824057	-0.213294
36349	9.213851	0.319478	-0.840104	0.061258	-0.640904	0.278427	0.108847	0.190956	0.975545	0.844966	-0.534719	0.010390	0.523627	0.823171	-0.219554
36350	9.101961	0.328269	-0.660905	0.075988	-0.676681	0.281259	0.114747	0.195056	0.974057	0.845051	-0.534633	0.007511	0.522228	0.822266	-0.226179
36351	9.123926	0.156393	-0.625328	0.077559	-0.725248	0.299785	0.121031	0.199428	0.972409	0.845104	-0.534583	0.004450	0.520721	0.821249	-0.233238
36352	9.155653	0.213676	-0.614024	0.140810	-0.758525	0.305569	0.127538	0.204056	0.970616	0.845458	-0.534040	0.001181	0.518589	0.820465	-0.240631
36353	9.030117	0.100421	-0.703981	0.188749	-0.803657	0.308860	0.134276	0.209014	0.968650	0.846033	-0.533126	-0.002241	0.515944	0.819811	-0.248419
36354	9.089789	-0.356872	-0.967295	0.225145	-0.840110	0.328063	0.141356	0.214185	0.966511	0.846742	-0.531971	-0.005951	0.512881	0.819227	-0.256556
36355	9.196221	-0.106450	-1.245436	0.273047	-0.865751	0.329097	0.148537	0.219542	0.964229	0.847664	-0.530444	-0.009806	0.509316	0.818798	-0.264888
36356	9.145173	-0.137617	-1.549186	0.292297	-0.900204	0.340132	0.155970	0.225140	0.961762	0.848632	-0.528803	-0.013835	0.505467	0.818340	-0.273539
36357	9.114521	0.079653	-1.947276	0.298855	-0.920666	0.348082	0.163530	0.230849	0.959149	0.849584	-0.527147	-0.017975	0.501463	0.817817	-0.282330
36358	9.160938	-0.014648	-2.365384	0.236335	-0.956890	0.349126	0.171257	0.236861	0.956330	0.850184	-0.526027	-0.021964	0.497853	0.816819	-0.291462
36359	9.061109	-0.350800	-2.639176	0.219929	-0.969447	0.357947	0.179079	0.242907	0.953376	0.850653	-0.525085	-0.026000	0.494288	0.815648	-0.300662
36360	9.103801	-0.330422	-2.836247	0.183388	-0.994121	0.367525	0.187082	0.249109	0.950234	0.850887	-0.524490	-0.030025	0.490908	0.814159	-0.310087
36361	9.280456	-0.627916	-3.063758	0.123968	-0.999218	0.353812	0.194952	0.255394	0.946978	0.850823	-0.524368	-0.033738	0.487949	0.812288	-0.319522
36362	9.299431	-0.881571	-3.210174	0.105224	-1.004699	0.347665	0.202777	0.261751	0.943593	0.850648	-0.524408	-0.037333	0.485056	0.810236	-0.328996
36363	9.549251	-0.867536	-3.242711	0.110562	-1.008083	0.335718	0.210476	0.268162	0.940100	0.850494	-0.524397	-0.040831	0.482036	0.808144	-0.338443
36364	9.579927	-0.564440	-3.396559	0.139754	-1.009651	0.329455	0.218107	0.274613	0.936492	0.850465	-0.524157	-0.044370	0.478684	0.806131	-0.347871
36365	9.457513	-0.249251	-3.413552	0.131766	-1.021230	0.330353	0.225757	0.281118	0.932742	0.850366	-0.524008	-0.047889	0.475301	0.803983	-0.357351
36366	9.359742	-0.514571	-3.224414	0.096724	-1.049529	0.328175	0.233498	0.287851	0.928774	0.850076	-0.524159	-0.051263	0.472069	0.801498	-0.367085
36367	9.505063	-0.421516	-3.169115	0.143229	-1.063850	0.320683	0.241195	0.294699	0.924650	0.849995	-0.523939	-0.054734	0.468330	0.799150	-0.376864
36368	9.502450	0.029109	-2.789720	0.134246	-1.101958	0.328723	0.249108	0.301797	0.920252	0.849822	-0.523842	-0.058248	0.464488	0.796560	-0.386966
36369	9.366053	-0.092700	-2.648424	0.115047	-1.144788	0.338260	0.257246	0.309141	0.915563	0.849504	-0.523953	-0.061772	0.460616	0.793665	-0.397402
36370	9.426214	-0.117426	-2.546738	0.134576	-1.193549	0.327974	0.265481	0.316904	0.910545	0.849271	-0.523907	-0.065277	0.456354	0.790629	-0.408225
36371	9.292809	0.029688	-2.323301	0.203072	-1.254506	0.325819	0.273911	0.325113	0.905138	0.849321	-0.523342	-0.069042	0.451250	0.787664	-0.419474
36372	9.129304	0.305622	-1.987661	0.223084	-1.339885	0.348281	0.282853	0.333848	0.899188	0.849359	-0.522728	-0.073101	0.445626	0.784411	-0.431412
36373	9.185881	0.413152	-1.704710	0.213182	-1.433285	0.371502	0.292322	0.343138	0.892639	0.849243	-0.522309	-0.077331	0.439698	0.780673	-0.444089
36374	9.330252	0.401603	-1.672653	0.218246	-1.527665	0.396290	0.302328	0.352985	0.885437	0.849025	-0.521981	-0.081805	0.433305	0.776490	-0.457503
36375	9.693049	0.570374	-1.356781	0.168402	-1.642386	0.435625	0.313058	0.363438	0.877444	0.848418	-0.522228	-0.086395	0.426827	0.771486	-0.471835
36376	10.121124	0.736075	-1.360188	0.131731	-1.775616	0.479551	0.324613	0.374599	0.868506	0.847456	-0.522976	-0.091179	0.420053	0.765618	-0.487221
36377	10.403473	1.494976	-1.503166	0.158251	-1.887502	0.523447	0.336873	0.386265	0.858671	0.846393	-0.523751	-0.096452	0.412474	0.759265	-0.503370
36378	9.943352	2.169503	-1.573663	0.083217	-1.994466	0.554645	0.349680	0.398443	0.847919	0.844840	-0.525289	-0.101573	0.404931	0.751874	-0.520304
36379	10.201277	1.190965	-1.788515	-0.111399	-2.140015	0.608699	0.363379	0.411242	0.835964	0.842233	-0.528574	-0.106078	0.398245	0.742623	-0.538435
36380	10.635141	0.725068	-2.537908	-0.056750	-2.247016	0.619815	0.377413	0.424551	0.822992	0.839725	-0.531573	-0.110869	0.390411	0.732931	-0.557128
36381	11.098563	1.329428	-3.427776	-0.015712	-2.292710	0.608295	0.391336	0.438014	0.809321	0.837338	-0.534298	-0.115714	0.381734	0.722958	-0.575856
36382	11.188997	1.713920	-4.631211	-0.049718	-2.325509	0.655629	0.405548	0.451203	0.794950	0.834552	-0.537558	-0.120640	0.372899	0.712353	-0.594559
36383	10.903984	1.757599	-5.501006	-0.181624	-2.323044	0.716327	0.420053	0.463766	0.780049	0.830937	-0.542106	-0.125156	0.364826	0.700744	-0.613074
36384	10.473038	1.531983	-5.759996	-0.463187	-2.328109	0.781711	0.434906	0.475672	0.764587	0.825935	-0.548980	-0.128265	0.358731	0.687282	-0.631629
36385	10.105448	0.715670	-5.520299	-0.805566	-2.335238	0.823316	0.449984	0.486996	0.748564	0.819431	-0.558403	-0.129302	0.355031	0.671581	-0.650333
36386	10.296228	-0.331406	-5.725270	-1.055127	-2.332840	0.804531	0.464758	0.497937	0.732160	0.812032	-0.569346	-0.128250	0.352992	0.654143	-0.668949
36387	10.393390	-0.647712	-6.218611	-1.179036	-2.241514	0.754105	0.478725	0.508079	0.716016	0.804334	-0.580731	-0.125691	0.351952	0.636087	-0.686675
36388	9.896136	-1.061683	-6.711871	-1.333246	-2.128928	0.743114	0.492119	0.517073	0.700324	0.796049	-0.592883	-0.121639	0.352314	0.617354	-0.703384
36389	9.293768	-1.883381	-7.107076	-1.441779	-2.061399	0.755891	0.505349	0.525089	0.684766	0.787207	-0.605568	-0.116591	0.353452	0.597971	-0.719376
36390	8.711112	-2.624714	-7.135034	-1.411910	-1.986336	0.776869	0.518411	0.532036	0.669468	0.778251	-0.617967	-0.111542	0.354365	0.578839	-0.734419
36391	8.886602	-3.123920	-7.045651	-1.232402	-1.990005	0.751501	0.531244	0.538706	0.653892	0.769962	-0.628995	-0.107348	0.353466	0.560500	-0.748933
36392	9.277798	-3.412282	-6.856898	-0.911441	-1.915059	0.726596	0.543504	0.544694	0.638680	0.762870	-0.637950	-0.105115	0.350191	0.544360	-0.762259
36393	9.880920	-3.030622	-6.871184	-0.503457	-1.787788	0.670986	0.554785	0.550028	0.624247	0.757454	-0.644314	-0.105460	0.344205	0.531346	-0.774076
36394	10.203608	-2.382812	-6.697851	-0.106689	-1.563453	0.589542	0.564513	0.554461	0.611472	0.753812	-0.648115	-0.108234	0.336292	0.522034	-0.783829
36395	9.837813	-1.925998	-6.862253	0.183698	-1.362648	0.514866	0.572881	0.558210	0.600174	0.751512	-0.650009	-0.112777	0.327165	0.515646	-0.791879
36396	9.331431	-1.504103	-7.053464	0.409293	-1.137350	0.416856	0.579632	0.561350	0.590689	0.750450	-0.650221	-0.118478	0.317571	0.511957	-0.798154
36397	8.483811	-1.359272	-7.038251	0.540509	-0.962003	0.343269	0.585189	0.564055	0.582577	0.750160	-0.649373	-0.124796	0.307918	0.510056	-0.803138
36398	7.684012	-0.883913	-7.440857	0.613217	-0.791648	0.291447	0.589729	0.566205	0.575875	0.750331	-0.647874	-0.131386	0.298703	0.509579	-0.806912
36399	6.982159	-0.172702	-7.448660	0.701542	-0.602651	0.205110	0.593015	0.567973	0.570736	0.751202	-0.645441	-0.138209	0.289877	0.510698	-0.809419
36400	5.531635	-1.143348	-8.835279	0.346246	-0.281717	0.156740	0.594955	0.568406	0.568281	0.751291	-0.644542	-0.141871	0.285641	0.511351	-0.810512
36401	3.890241	-2.509031	-9.597486	0.056030	-0.208841	0.162747	0.596745	0.568443	0.566363	0.750500	-0.645164	-0.143226	0.283981	0.510525	-0.811615
36402	5.780420	-2.344209	-6.641626	0.143020	-0.150285	0.101318	0.597883	0.568562	0.565042	0.750323	-0.644990	-0.144925	0.282047	0.510613	-0.812234
36403	7.576222	-2.700887	-5.813778	0.350702	0.456253	-0.213375	0.594966	0.567614	0.569060	0.752605	-0.641961	-0.146536	0.282138	0.515461	-0.809134
36404	7.380310	-2.350445	-6.076660	0.670054	0.935485	-0.602845	0.587723	0.566599	0.577536	0.758085	-0.635035	-0.148447	0.282646	0.525067	-0.802755
36405	7.013543	-1.811982	-6.347185	0.797895	1.360221	-0.866260	0.577239	0.564851	0.589693	0.765413	-0.625877	-0.149737	0.284496	0.537793	-0.793625
36406	7.168539	-2.019496	-6.853409	0.875705	1.686587	-1.015628	0.564549	0.561958	0.604556	0.773739	-0.615359	-0.150538	0.287423	0.552754	-0.782209
36407	6.470601	-1.964534	-7.648450	0.996484	1.885469	-1.099194	0.550521	0.558096	0.620850	0.782764	-0.603594	-0.151509	0.290185	0.569388	-0.769149
36408	6.290458	-0.781772	-7.313762	0.996361	1.982871	-1.188555	0.535325	0.553735	0.637812	0.792146	-0.591208	-0.151586	0.293141	0.586388	-0.755127
36409	6.184153	-0.332593	-7.104680	0.710827	2.201039	-1.298179	0.518437	0.548267	0.656221	0.801108	-0.579811	-0.148475	0.299081	0.602679	-0.739817
36410	6.160984	-0.256099	-6.940814	0.402279	2.390711	-1.415349	0.499725	0.541804	0.675813	0.809556	-0.569621	-0.141951	0.308048	0.618045	-0.723275
36411	6.379471	-0.726375	-6.859900	0.146841	2.613833	-1.560540	0.478794	0.534287	0.696630	0.817668	-0.560290	-0.132264	0.319648	0.632940	-0.705133
36412	6.474036	-1.395786	-7.136728	0.078853	2.826153	-1.697298	0.455575	0.525604	0.718465	0.825875	-0.550771	-0.120758	0.332239	0.648377	-0.685000
36413	6.577980	-1.504677	-7.129068	0.146072	2.971615	-1.787010	0.430658	0.515860	0.740555	0.834302	-0.540490	-0.108678	0.344200	0.664650	-0.663149
36414	6.590857	-1.222542	-7.021888	0.188528	3.140454	-1.837901	0.404194	0.504546	0.762929	0.842651	-0.529826	-0.096042	0.355762	0.681702	-0.639309
36415	6.313726	-1.502250	-7.885373	0.115072	3.225706	-1.864283	0.376716	0.492084	0.784817	0.850359	-0.519726	-0.082305	0.367389	0.698382	-0.614237
36416	7.521515	-0.878985	-6.886747	0.159549	3.193908	-1.792304	0.349449	0.478735	0.805418	0.857475	-0.509883	-0.068965	0.377653	0.714726	-0.588681
36417	7.929326	-0.255079	-6.449484	0.177963	3.397847	-1.871279	0.320304	0.463621	0.826112	0.864433	-0.499764	-0.054691	0.387505	0.731636	-0.560846
36418	6.742704	-0.451961	-7.153333	0.094732	3.456778	-1.979689	0.289498	0.447836	0.845952	0.870852	-0.490027	-0.038605	0.397250	0.747875	-0.531860
36419	7.181895	-0.156471	-6.546741	-0.024301	3.484193	-1.987454	0.258090	0.431179	0.864566	0.876204	-0.481462	-0.021448	0.407008	0.763072	-0.502061
36420	7.492071	-0.070878	-6.419573	-0.147337	3.521974	-1.931619	0.226551	0.413275	0.881974	0.880285	-0.474430	-0.003809	0.416861	0.777251	-0.471283
36421	7.391329	-0.212645	-6.372914	-0.209832	3.605558	-1.878063	0.194753	0.393871	0.898297	0.883363	-0.468484	0.013899	0.426312	0.790815	-0.439170
36422	7.183822	-0.634031	-6.351858	-0.178920	3.728216	-1.894192	0.161880	0.372946	0.913623	0.885974	-0.462639	0.031870	0.434563	0.804286	-0.405312
36423	7.459713	-0.827542	-6.410997	-0.034071	3.794682	-1.909439	0.128300	0.350947	0.927564	0.888599	-0.455994	0.049616	0.440376	0.817867	-0.370355
36424	8.087945	-0.353313	-5.757184	0.131437	3.841655	-1.878890	0.094536	0.327755	0.940021	0.891273	-0.448527	0.066753	0.443503	0.831505	-0.334521
36425	7.973679	0.233980	-5.425891	0.219362	3.917509	-1.858689	0.060514	0.303192	0.951006	0.893690	-0.440815	0.083670	0.444586	0.844841	-0.297635
36426	7.552711	0.990657	-5.065569	0.163204	3.905682	-1.803764	0.026948	0.277845	0.960248	0.895201	-0.434181	0.100507	0.444847	0.856907	-0.260427
36427	7.610265	1.527781	-4.721523	-0.084099	3.876565	-1.711424	-0.005676	0.251839	0.967752	0.895007	-0.430367	0.117245	0.446015	0.866811	-0.222955
36428	7.950759	1.939742	-4.385779	-0.420762	3.817750	-1.587488	-0.037013	0.225435	0.973555	0.892779	-0.430239	0.133568	0.448972	0.874113	-0.185339
36429	8.249662	2.072562	-4.126211	-0.858551	3.747315	-1.452629	-0.066916	0.198889	0.977735	0.888141	-0.434676	0.149206	0.454674	0.878350	-0.147555
36430	8.598256	1.641776	-3.846851	-1.308531	3.653265	-1.329529	-0.095506	0.172623	0.980347	0.881045	-0.443707	0.163962	0.463291	0.879389	-0.109712
36431	8.774283	1.002066	-3.500362	-1.610251	3.551084	-1.221564	-0.122884	0.146926	0.981485	0.872162	-0.455903	0.177444	0.473533	0.877819	-0.072120
36432	8.620310	0.750900	-2.035892	-1.744651	3.387409	-1.123256	-0.148902	0.122455	0.981241	0.862269	-0.469677	0.189462	0.484066	0.874305	-0.035653
36433	9.346867	0.368783	-1.858409	-1.834660	3.191242	-1.031506	-0.173392	0.099568	0.979807	0.851620	-0.484525	0.199945	0.494649	0.869092	-0.000781
36434	9.794273	0.668070	-2.392383	-1.876164	3.022840	-0.884353	-0.196037	0.077758	0.977509	0.840595	-0.499989	0.208352	0.504944	0.862534	0.032653
36435	10.467638	1.615949	-0.740887	-1.905010	2.741607	-0.750778	-0.216322	0.058043	0.974595	0.829321	-0.515838	0.214799	0.515201	0.854717	0.063451
36436	9.152926	0.470305	-0.601086	-1.708832	2.444382	-0.623169	-0.234206	0.040518	0.971342	0.819025	-0.530074	0.219591	0.523781	0.846983	0.090961
36437	8.096653	0.459196	0.059421	-1.255656	1.967171	-0.511823	-0.248766	0.026670	0.968196	0.811167	-0.540502	0.223308	0.529268	0.840920	0.112825
36438	7.564019	1.001664	0.545990	-0.774488	1.525206	-0.432150	-0.260396	0.016239	0.965365	0.805943	-0.546910	0.226593	0.531648	0.837034	0.129326
36439	7.045921	1.338834	0.862578	-0.311420	1.121444	-0.364346	-0.269317	0.008873	0.963011	0.803312	-0.549471	0.229718	0.531185	0.835465	0.140854
36440	6.461328	1.519183	0.665693	0.152627	0.702896	-0.260850	-0.275178	0.004445	0.961383	0.803395	-0.548182	0.232492	0.528046	0.836347	0.147277
36441	6.296792	1.586782	-0.068025	0.336535	0.261476	-0.099086	-0.277381	0.002813	0.960756	0.804882	-0.545363	0.233975	0.524619	0.838195	0.149010
36442	6.152920	0.874379	-1.026101	0.524403	-0.119469	0.070243	-0.276233	0.003451	0.961084	0.807802	-0.540966	0.234119	0.520722	0.841037	0.146645
36443	6.160225	0.365795	-2.421667	0.722237	-0.432669	0.195111	-0.272440	0.006063	0.962154	0.812070	-0.534890	0.233313	0.516061	0.844900	0.140802
36444	6.261411	0.278115	-3.711054	0.810402	-0.714277	0.318215	-0.266218	0.010441	0.963856	0.817076	-0.528055	0.231397	0.511385	0.849146	0.132047
36445	6.390201	0.439364	-4.373413	0.738448	-0.990642	0.487278	-0.257206	0.016328	0.966219	0.822104	-0.521838	0.227661	0.507927	0.852888	0.120797
36446	7.595334	1.005155	-3.546835	0.399039	-1.212012	0.703163	-0.245292	0.023042	0.969175	0.825885	-0.518570	0.221355	0.507686	0.854724	0.108171
36447	11.760376	4.292377	1.623697	-0.264038	-0.962175	0.762110	-0.234120	0.027311	0.971824	0.826356	-0.521019	0.213717	0.512176	0.853108	0.099412
36448	14.200104	6.489024	4.806985	-0.931478	-0.526140	0.538571	-0.226995	0.028985	0.973465	0.822774	-0.529094	0.207610	0.521072	0.848068	0.096253
36449	16.072235	4.028117	2.618403	-0.983300	-0.664170	0.488298	-0.219525	0.032010	0.975082	0.818684	-0.537558	0.201961	0.530627	0.842619	0.091801
36450	15.916733	-0.850756	1.361007	-0.788729	-1.042415	0.651311	-0.208663	0.037272	0.977277	0.815847	-0.544412	0.194959	0.539308	0.837990	0.083190
36451	13.212758	-3.038827	-1.710260	0.493491	-1.298081	0.841502	-0.194818	0.043614	0.979869	0.820194	-0.540613	0.187134	0.537892	0.840140	0.069549
36452	11.274767	0.442012	-3.874075	1.584100	-1.473490	0.915576	-0.179443	0.051184	0.982436	0.830338	-0.527676	0.179154	0.527578	0.847902	0.052188
36453	9.900904	3.637438	-4.650317	2.186110	-1.385012	0.913592	-0.164631	0.058277	0.984632	0.843263	-0.509525	0.171151	0.511669	0.858480	0.034741
36454	8.147681	4.228056	-4.700400	1.611606	-1.260350	0.802438	-0.151479	0.065138	0.986312	0.852676	-0.496124	0.163720	0.499997	0.865805	0.019611
36455	8.276944	2.041202	-5.653226	0.919876	-1.250411	0.824207	-0.138244	0.071941	0.987782	0.858435	-0.488708	0.155735	0.493941	0.869476	0.005804
36456	8.994363	2.152410	-4.899049	0.420542	-1.186676	0.837831	-0.125216	0.078221	0.989041	0.861606	-0.485676	0.147493	0.491891	0.870632	-0.006581
36457	9.547059	1.601193	-3.827536	-0.233997	-1.107446	0.812772	-0.112779	0.083906	0.990071	0.861412	-0.488370	0.139512	0.495227	0.868593	-0.017200
36458	10.238412	0.022329	-3.074928	-0.613256	-1.061658	0.773894	-0.100854	0.089348	0.990881	0.859177	-0.494352	0.132024	0.501640	0.864658	-0.026908
36459	10.520603	-0.892702	-2.431633	-0.651193	-1.024079	0.756152	-0.089227	0.094432	0.991525	0.856603	-0.500664	0.124769	0.508203	0.860476	-0.036218
36460	10.209314	-1.124677	-1.717505	-0.501393	-0.988832	0.695201	-0.078248	0.099471	0.991959	0.854620	-0.505640	0.118119	0.513324	0.856991	-0.045445
36461	9.927454	-0.896319	-1.246115	-0.276052	-0.945363	0.612669	-0.068179	0.104469	0.992188	0.853643	-0.508627	0.112213	0.516376	0.854626	-0.054501
36462	9.558785	-0.177680	-0.809902	-0.074936	-0.897393	0.596910	-0.058460	0.109137	0.992306	0.853631	-0.509901	0.106371	0.517586	0.853282	-0.063354
36463	9.719999	0.202416	-0.511131	-0.035447	-0.892876	0.563789	-0.049053	0.113887	0.992282	0.853747	-0.510831	0.100835	0.518372	0.852104	-0.072173
36464	9.400328	0.403887	-0.496019	0.045522	-0.869310	0.527953	-0.040053	0.118638	0.992129	0.854217	-0.511053	0.095597	0.518372	0.851322	-0.080874
36465	9.509048	0.713278	-0.385110	0.046118	-0.872720	0.513347	-0.031174	0.123454	0.991860	0.854635	-0.511281	0.090499	0.518292	0.850500	-0.089569
36466	9.360166	0.707037	-0.260548	-0.000035	-0.876347	0.554282	-0.021908	0.128110	0.991518	0.854781	-0.511975	0.085037	0.518526	0.849394	-0.098290
36467	9.588082	0.415709	-0.383193	-0.129840	-0.901881	0.562617	-0.012450	0.132891	0.991052	0.854201	-0.513809	0.079628	0.519794	0.847549	-0.107119
36468	9.369233	0.156773	-0.711987	-0.134128	-0.896124	0.569058	-0.002942	0.137591	0.990485	0.853546	-0.515711	0.074174	0.521009	0.845642	-0.115923
36469	9.434961	-0.146812	-1.262928	-0.043921	-0.889142	0.540976	0.006278	0.142324	0.989800	0.853306	-0.516837	0.068904	0.521373	0.844170	-0.124691
36470	9.718097	-0.168123	-1.842669	0.057100	-0.869590	0.509891	0.015147	0.147067	0.989011	0.853549	-0.517090	0.063819	0.520793	0.843202	-0.133361
36471	9.830625	-0.236138	-2.258245	0.067508	-0.848468	0.499238	0.023793	0.151649	0.988148	0.853802	-0.517264	0.058825	0.520055	0.842283	-0.141786
36472	9.826551	-0.338345	-2.487678	0.017875	-0.847821	0.490743	0.032378	0.156287	0.987181	0.853757	-0.517866	0.053984	0.519664	0.841065	-0.150199
36473	9.753136	-0.565042	-2.697573	-0.018720	-0.824945	0.462553	0.040582	0.160836	0.986146	0.853490	-0.518754	0.049484	0.519526	0.839658	-0.158324
36474	9.656992	-0.629792	-2.795338	0.005170	-0.787609	0.419876	0.048245	0.165308	0.985061	0.853331	-0.519391	0.045368	0.519132	0.838395	-0.166120
36475	9.787036	-0.462353	-2.776128	0.035747	-0.752430	0.372933	0.055300	0.169688	0.983945	0.853324	-0.519714	0.041670	0.518441	0.837319	-0.173539
36476	9.764350	-0.278881	-2.679462	0.087925	-0.719758	0.346017	0.061972	0.173957	0.982801	0.853577	-0.519568	0.038140	0.517267	0.836533	-0.180685
36477	9.804224	-0.093686	-2.616844	0.144117	-0.693099	0.327364	0.068315	0.178068	0.981644	0.854109	-0.518936	0.034694	0.515588	0.836060	-0.187541
36478	9.806055	-0.075994	-2.555278	0.219331	-0.667376	0.308593	0.074379	0.182092	0.980464	0.855018	-0.517654	0.031276	0.513236	0.835989	-0.194194
36479	9.442034	0.170336	-2.390930	0.334380	-0.616600	0.316105	0.080207	0.185629	0.979341	0.856485	-0.515435	0.027553	0.509902	0.836581	-0.200330
36480	9.794729	0.558571	-2.209338	0.301615	-0.638554	0.312204	0.086123	0.189410	0.978114	0.857761	-0.513492	0.023911	0.506783	0.836929	-0.206692
36481	9.593114	0.502759	-2.089589	0.277318	-0.629273	0.303533	0.091877	0.193135	0.976861	0.858893	-0.511748	0.020396	0.503846	0.837145	-0.212900
36482	9.470929	0.269737	-1.940650	0.254726	-0.625652	0.292341	0.097526	0.196923	0.975556	0.859898	-0.510181	0.017020	0.501062	0.837219	-0.219090
36483	9.465776	0.277509	-1.718040	0.237953	-0.635110	0.281478	0.103090	0.200820	0.974189	0.860807	-0.508745	0.013781	0.498381	0.837168	-0.225314
36484	9.347431	0.336511	-1.725413	0.240792	-0.640114	0.288573	0.108750	0.204756	0.972753	0.861700	-0.507310	0.010450	0.495627	0.837085	-0.231608
36485	9.303649	0.174758	-1.589616	0.197398	-0.663677	0.288658	0.114488	0.208861	0.971221	0.862356	-0.506251	0.007215	0.493188	0.836712	-0.238072
36486	9.268337	-0.003768	-1.562294	0.197785	-0.689183	0.278852	0.120276	0.213258	0.969564	0.863004	-0.505180	0.004059	0.490670	0.836250	-0.244804
36487	9.217064	0.045269	-1.509265	0.224881	-0.694632	0.280721	0.126066	0.217663	0.967848	0.863761	-0.503901	0.000816	0.487877	0.835887	-0.251534
36488	9.235371	0.172087	-1.456836	0.205149	-0.733900	0.291764	0.132149	0.222368	0.965965	0.864385	-0.502824	-0.002501	0.485154	0.835297	-0.258659
36489	9.198607	0.088058	-1.529045	0.209694	-0.765180	0.297006	0.138387	0.227279	0.963947	0.865001	-0.501736	-0.005883	0.482310	0.834629	-0.266030
36490	9.174433	0.067845	-1.702865	0.226237	-0.787073	0.297368	0.144735	0.232395	0.961792	0.865671	-0.500527	-0.009329	0.479235	0.833946	-0.273621
36491	9.173307	0.054964	-1.846024	0.240180	-0.813124	0.302385	0.151205	0.237675	0.959504	0.866374	-0.499230	-0.012867	0.475956	0.833234	-0.281401
36492	9.095053	0.077192	-1.977976	0.230591	-0.841369	0.320924	0.157966	0.243120	0.957047	0.866975	-0.498076	-0.016572	0.472654	0.832354	-0.289458
36493	9.130994	-0.160801	-2.083593	0.199508	-0.874195	0.325879	0.164879	0.248783	0.954422	0.867392	-0.497213	-0.020239	0.469516	0.831196	-0.297772
36494	9.147787	-0.434446	-2.262801	0.189779	-0.897875	0.326364	0.171900	0.254656	0.951631	0.867735	-0.496453	-0.023895	0.466355	0.829870	-0.306314
36495	9.186461	-0.710887	-2.465295	0.195435	-0.913098	0.328068	0.178959	0.260613	0.948712	0.868072	-0.495672	-0.027585	0.463061	0.828487	-0.314935
36496	9.328501	-0.540941	-2.558181	0.174723	-0.936209	0.340957	0.186227	0.266708	0.945614	0.868259	-0.495119	-0.031346	0.459832	0.826876	-0.323777
36497	9.326315	-0.455047	-2.603104	0.155166	-0.953533	0.344924	0.193560	0.272891	0.942372	0.868320	-0.494762	-0.035077	0.456678	0.825070	-0.332723
36498	9.175273	-0.651496	-2.789968	0.126005	-0.986470	0.337563	0.200968	0.279384	0.938912	0.868232	-0.494650	-0.038651	0.453634	0.822962	-0.341979
36499	9.437640	-0.391536	-3.052467	0.170259	-0.990270	0.317998	0.208173	0.285965	0.935354	0.868357	-0.494143	-0.042188	0.450134	0.821004	-0.351187
36500	9.211412	-0.308386	-2.935898	0.141025	-1.023299	0.327318	0.215591	0.292772	0.931561	0.868300	-0.493927	-0.045719	0.446738	0.818731	-0.360700
36501	9.441881	-0.312846	-3.032761	0.134971	-1.050095	0.317064	0.222986	0.299804	0.927575	0.868212	-0.493756	-0.049127	0.443267	0.816286	-0.370394
36502	9.540265	-0.060500	-3.279220	0.139171	-1.066887	0.311608	0.230387	0.306994	0.923405	0.868125	-0.493561	-0.052507	0.439637	0.813728	-0.380219
36503	9.637131	0.038605	-3.634026	0.135954	-1.091080	0.301559	0.237750	0.314383	0.919042	0.868021	-0.493385	-0.055775	0.435907	0.811008	-0.390193
36504	9.366798	0.085787	-3.710655	0.087865	-1.121151	0.319923	0.245379	0.321911	0.914419	0.867635	-0.493685	-0.059029	0.432433	0.807867	-0.400442
36505	9.261047	0.059601	-3.709804	0.041844	-1.150115	0.328662	0.253153	0.329572	0.909558	0.867003	-0.494410	-0.062163	0.429207	0.804326	-0.410902
36506	9.044565	0.176119	-3.522685	-0.033441	-1.190132	0.351400	0.261274	0.337412	0.904372	0.865963	-0.495843	-0.065183	0.426433	0.800183	-0.421737
36507	9.590394	0.192884	-3.185483	-0.091111	-1.241024	0.348017	0.269530	0.345599	0.898841	0.864659	-0.497749	-0.067899	0.423932	0.795492	-0.432984
36508	9.446103	0.310609	-2.554549	-0.114360	-1.301050	0.374369	0.278246	0.354079	0.892865	0.863157	-0.499958	-0.070722	0.421354	0.790361	-0.444737
36509	9.595306	0.257522	-1.523261	-0.145065	-1.411234	0.391179	0.287515	0.363245	0.886221	0.861449	-0.502494	-0.073515	0.418617	0.784572	-0.457392
36510	10.328069	-0.062247	-0.684657	-0.139848	-1.550644	0.393673	0.297347	0.373407	0.878722	0.859723	-0.505028	-0.076309	0.415285	0.778147	-0.471196
36511	11.063340	0.791432	-0.286093	0.014179	-1.674748	0.414696	0.307790	0.384304	0.870388	0.858535	-0.506479	-0.079972	0.410100	0.771874	-0.485828
36512	11.465842	1.738373	0.084751	0.056130	-1.831125	0.435363	0.318953	0.396191	0.860989	0.857408	-0.507738	-0.083987	0.403882	0.765007	-0.501642
36513	12.274723	2.701824	-0.341422	0.161577	-1.974409	0.487216	0.330995	0.408764	0.850502	0.856481	-0.508457	-0.088949	0.396085	0.757881	-0.518395
36514	12.202745	3.967091	-0.625853	0.197622	-2.082108	0.560467	0.343915	0.421632	0.839017	0.855374	-0.509284	-0.094689	0.387374	0.750238	-0.535803
36515	12.029982	4.239965	-1.155888	0.133349	-2.207935	0.630959	0.357731	0.434896	0.826374	0.853681	-0.510979	-0.100639	0.378492	0.741462	-0.554056
36516	11.541396	4.400033	-1.293336	0.061752	-2.345793	0.725507	0.372646	0.448470	0.812410	0.851275	-0.513718	-0.106888	0.369413	0.731416	-0.573206
36517	11.575861	4.143588	-1.995591	-0.062499	-2.455293	0.801505	0.388388	0.462169	0.797217	0.848008	-0.517808	-0.112945	0.360606	0.719913	-0.593033
36518	11.697437	3.952086	-3.071137	-0.228683	-2.533114	0.879217	0.404807	0.475675	0.780938	0.843720	-0.523550	-0.118452	0.352516	0.706844	-0.613273
36519	11.595062	4.117968	-3.345783	-0.582196	-2.578714	0.998088	0.422184	0.488449	0.763661	0.837570	-0.532419	-0.122501	0.346752	0.691338	-0.633889
36520	11.199467	3.460664	-3.575710	-1.084787	-2.651090	1.140256	0.440789	0.500393	0.745192	0.828918	-0.545441	-0.124052	0.344384	0.672384	-0.655210
36521	10.959419	2.240581	-4.223722	-1.485462	-2.654062	1.229678	0.460033	0.511163	0.726004	0.818275	-0.561474	-0.123179	0.344669	0.650737	-0.676568
36522	10.995347	0.227507	-5.753875	-1.820569	-2.570154	1.206148	0.478663	0.520716	0.706920	0.806331	-0.579317	-0.119251	0.347435	0.627093	-0.697168
36523	10.748889	-2.135440	-7.234919	-2.083796	-2.368016	1.152312	0.496141	0.528508	0.688857	0.793436	-0.598159	-0.112541	0.352567	0.602400	-0.716108
36524	10.502342	-3.886445	-8.366311	-2.256301	-2.175787	1.110341	0.512560	0.534603	0.671925	0.779823	-0.617355	-0.103681	0.359387	0.577125	-0.733326
36525	10.177466	-5.310842	-9.562407	-2.174240	-2.188622	1.044995	0.528538	0.540431	0.654662	0.766525	-0.635229	-0.094461	0.364811	0.551741	-0.749996
36526	10.373132	-6.609927	-9.925804	-1.282330	-2.108962	0.943160	0.543342	0.545820	0.637856	0.756821	-0.647285	-0.090790	0.363319	0.532073	-0.764786
36527	9.639289	-5.643710	-9.111400	-0.165521	-1.838404	0.713982	0.555300	0.550881	0.623034	0.752323	-0.652055	-0.093992	0.354474	0.520916	-0.776527
36528	7.660854	-4.389500	-8.738809	0.361079	-1.507429	0.490722	0.564194	0.555492	0.610830	0.750857	-0.652882	-0.099796	0.343364	0.514950	-0.785448
36529	6.207094	-3.262644	-8.568492	0.629650	-1.238403	0.323392	0.570776	0.559763	0.600733	0.751165	-0.651435	-0.106698	0.331613	0.512150	-0.792298
36530	5.331210	-2.252677	-7.966996	0.711441	-0.936933	0.175825	0.575103	0.563420	0.593139	0.752500	-0.648762	-0.113363	0.320935	0.511533	-0.797079
36531	4.151157	-2.273201	-8.774179	0.488975	-0.523318	0.072695	0.577286	0.565647	0.588884	0.753653	-0.646653	-0.117673	0.314242	0.511746	-0.799605
36532	2.225545	-3.147852	-10.120676	0.196135	-0.229558	0.050051	0.578332	0.566503	0.587032	0.754000	-0.645913	-0.119501	0.311474	0.511733	-0.800695
36533	3.044416	-2.916843	-8.293676	0.268735	-0.178542	0.025141	0.579048	0.567275	0.585579	0.754706	-0.644662	-0.121778	0.308419	0.512455	-0.801416
36534	5.090237	-2.594874	-6.369631	0.497411	0.219510	-0.199970	0.576816	0.567436	0.587621	0.757411	-0.640948	-0.124553	0.305959	0.516915	-0.799492
36535	5.566905	-2.383135	-6.305048	0.620678	0.858382	-0.503785	0.570334	0.566195	0.595099	0.762219	-0.634839	-0.126495	0.306172	0.525740	-0.793635
36536	4.785326	-2.135446	-6.708710	0.810464	1.238058	-0.722312	0.560963	0.564170	0.605833	0.768811	-0.626427	-0.128524	0.307001	0.537868	-0.785142
36537	4.540265	-1.453072	-6.328470	0.805693	1.616805	-0.956081	0.548561	0.561320	0.619677	0.776618	-0.616639	-0.128923	0.309750	0.551975	-0.774196
36538	4.316138	-1.779407	-7.165452	0.746960	1.966572	-1.105616	0.533743	0.557075	0.636228	0.784954	-0.606255	-0.127681	0.314588	0.567559	-0.760862
36539	4.352724	-1.706654	-7.481030	0.698475	2.148306	-1.205868	0.517376	0.551973	0.653948	0.793526	-0.595530	-0.125140	0.320372	0.583670	-0.746118
36540	4.985200	-1.734209	-7.295121	0.581323	2.432602	-1.343885	0.498718	0.545501	0.673579	0.802259	-0.584694	-0.120475	0.328118	0.600467	-0.729231
36541	5.359326	-1.956815	-7.378193	0.515047	2.674359	-1.492926	0.477749	0.537871	0.694587	0.811277	-0.573452	-0.113943	0.337026	0.617938	-0.710328
36542	6.061853	-1.953911	-6.932191	0.447865	2.923239	-1.638271	0.454336	0.528841	0.716872	0.820461	-0.561887	-0.105480	0.347019	0.636089	-0.689179
36543	6.669067	-2.248103	-7.000223	0.398090	3.199199	-1.791916	0.428242	0.518165	0.740347	0.829787	-0.549920	-0.095092	0.357858	0.655053	-0.665465
36544	6.762644	-2.131570	-7.190818	0.428214	3.352744	-1.877342	0.400355	0.506079	0.763937	0.839135	-0.537440	-0.083730	0.368197	0.674568	-0.639835
36545	7.390927	-1.686380	-7.884647	0.334109	3.285003	-1.861841	0.372361	0.493532	0.785985	0.847588	-0.525835	-0.071366	0.378077	0.692765	-0.614113
36546	10.147588	0.511124	-4.912185	0.310443	3.173390	-1.722290	0.345514	0.480238	0.806220	0.854970	-0.515255	-0.059485	0.386842	0.709847	-0.588617
36547	9.126914	0.568780	-5.720891	0.180111	3.409365	-1.753276	0.317077	0.464709	0.826745	0.861495	-0.505663	-0.046174	0.396597	0.726877	-0.560678
36548	8.045467	1.325933	-5.753910	-0.059334	3.285761	-1.861278	0.287735	0.449913	0.845451	0.866895	-0.497573	-0.030246	0.407065	0.741620	-0.533196
36549	8.694404	1.655910	-4.995947	-0.450801	3.243300	-1.866010	0.258084	0.434915	0.862695	0.870132	-0.492675	-0.011934	0.419837	0.753738	-0.505584
36550	8.952137	1.487737	-4.845190	-0.667329	3.184640	-1.701628	0.229623	0.419104	0.878422	0.871441	-0.490462	0.006206	0.433433	0.764068	-0.477846
36551	8.713102	1.233859	-4.685231	-0.716011	3.190728	-1.592059	0.201673	0.402383	0.892981	0.871729	-0.489416	0.023661	0.446560	0.773666	-0.449472
36552	8.353063	0.493617	-4.968363	-0.555661	3.266142	-1.578254	0.173088	0.384651	0.906688	0.872178	-0.487523	0.040326	0.457543	0.783814	-0.419869
36553	8.422720	0.276196	-5.350339	-0.240030	3.308258	-1.546301	0.144298	0.366054	0.919338	0.873529	-0.483604	0.055449	0.464893	0.795067	-0.389542
36554	9.079020	0.617398	-5.201118	0.055917	3.339852	-1.423232	0.116200	0.346134	0.930961	0.875645	-0.478080	0.068456	0.468768	0.807237	-0.358644
36555	8.899725	1.294547	-5.022024	0.299696	3.388718	-1.298967	0.088873	0.324739	0.941619	0.878385	-0.471275	0.079625	0.469619	0.820027	-0.327129
36556	8.381815	2.027762	-4.870172	0.352295	3.413261	-1.225309	0.062016	0.302267	0.951204	0.880961	-0.464516	0.090175	0.469107	0.832382	-0.295093
36557	8.206051	2.420967	-4.660729	0.179511	3.399669	-1.151343	0.035880	0.279116	0.959587	0.882367	-0.459658	0.100709	0.469192	0.843094	-0.262776
36558	8.182734	2.377000	-4.480198	-0.143006	3.366539	-1.059743	0.010643	0.255454	0.966763	0.881937	-0.458033	0.111321	0.471247	0.851439	-0.230169
36559	8.364869	2.269150	-4.095910	-0.507697	3.308785	-0.954179	-0.013462	0.231577	0.972723	0.879518	-0.460042	0.121694	0.475675	0.857166	-0.197483
36560	8.479828	1.678086	-3.948452	-0.874549	3.256228	-0.871412	-0.036766	0.207652	0.977512	0.875102	-0.465637	0.131829	0.482540	0.860269	-0.164597
36561	8.499670	0.771041	-3.558769	-1.152304	3.204894	-0.839241	-0.059721	0.184020	0.981107	0.869084	-0.473908	0.141790	0.491047	0.861132	-0.131627
36562	8.457266	-0.092797	-3.228553	-1.311312	3.119992	-0.837163	-0.082487	0.161183	0.983471	0.861980	-0.483749	0.151579	0.500186	0.860236	-0.099034
36563	8.296547	0.019925	-3.362106	-1.334733	3.066792	-0.815199	-0.104988	0.138827	0.984736	0.854477	-0.493995	0.160743	0.508770	0.858310	-0.066761
36564	8.203618	-0.229451	-2.754191	-1.375893	2.951164	-0.763212	-0.126668	0.117365	0.984977	0.846526	-0.504806	0.169013	0.517059	0.855217	-0.035410
36565	8.377908	-0.591011	-2.138115	-1.261833	2.805568	-0.756553	-0.147678	0.097288	0.984239	0.838913	-0.514764	0.176756	0.523847	0.851794	-0.005597
36566	8.843438	-0.745218	-2.410089	-1.135746	2.683343	-0.800730	-0.168540	0.078651	0.982552	0.831657	-0.523715	0.184579	0.529095	0.848255	0.022857
36567	8.918969	-0.474369	-2.384797	-0.968401	2.518379	-0.794054	-0.188519	0.061533	0.980140	0.825090	-0.531358	0.192056	0.532623	0.844910	0.049401
36568	8.512123	-0.171752	-2.236504	-0.695676	2.321789	-0.798882	-0.207509	0.046228	0.977140	0.819788	-0.536798	0.199489	0.533749	0.842443	0.073493
36569	8.142646	0.366010	-1.759143	-0.410378	2.097793	-0.797053	-0.225243	0.032875	0.973748	0.815865	-0.539939	0.206952	0.532568	0.841062	0.094796
36570	8.280950	0.845411	-0.498849	-0.137532	1.847531	-0.779171	-0.241434	0.021569	0.970177	0.813306	-0.540885	0.214421	0.529380	0.840820	0.113046
36571	7.282905	0.845723	-0.594795	0.366128	1.574603	-0.684528	-0.255314	0.012018	0.966783	0.813521	-0.537690	0.221524	0.522492	0.843057	0.127503
36572	6.898340	1.273120	-0.141640	0.825335	1.178763	-0.520749	-0.265691	0.004857	0.964046	0.816425	-0.530671	0.227680	0.512697	0.847564	0.137029
36573	6.403884	1.611160	0.095196	1.238160	0.789870	-0.344895	-0.272548	-0.000037	0.962142	0.821758	-0.520131	0.232761	0.500432	0.854086	0.141791
36574	6.340231	1.305427	-0.250180	1.249728	0.395284	-0.179712	-0.276016	-0.002479	0.961150	0.827437	-0.509421	0.236303	0.489044	0.860514	0.142660
36575	6.375335	1.015267	-1.162146	1.373471	-0.006626	0.009882	-0.275932	-0.002458	0.961174	0.834091	-0.497557	0.238177	0.477654	0.867428	0.139343
36576	6.360297	1.128681	-2.003700	1.356849	-0.426579	0.262815	-0.271744	-0.000013	0.962370	0.841212	-0.485740	0.237526	0.467458	0.874103	0.132008
36577	6.501637	1.096165	-2.305274	1.144210	-0.884605	0.550951	-0.263018	0.005108	0.964777	0.847982	-0.475724	0.233696	0.460162	0.879580	0.120793
36578	8.925734	2.197487	-0.708959	0.689597	-1.162382	0.820255	-0.250735	0.011499	0.967987	0.853243	-0.469716	0.226593	0.457284	0.882743	0.107963
36579	13.174914	6.491436	5.353370	-0.142111	-0.784501	0.809295	-0.240256	0.014627	0.970599	0.854567	-0.471078	0.218633	0.460426	0.881970	0.100680
36580	15.013427	7.303400	4.801074	-0.568688	-0.485549	0.571557	-0.233155	0.016221	0.972304	0.853275	-0.476174	0.212556	0.466434	0.879201	0.097181
36581	15.392703	4.754994	2.640269	-0.453360	-0.774878	0.592213	-0.224499	0.020206	0.974265	0.852493	-0.480265	0.206400	0.472076	0.876890	0.090594
36582	13.921715	-0.553084	1.268516	-0.235836	-1.200428	0.858011	-0.211522	0.026619	0.977011	0.853234	-0.482533	0.197871	0.476707	0.875473	0.079354
36583	11.166733	-1.004698	-2.224787	0.962896	-1.393608	1.017531	-0.196231	0.033993	0.979968	0.859864	-0.474393	0.188637	0.471303	0.879656	0.063862
36584	10.366106	2.151220	-4.353450	1.540433	-1.523800	1.034606	-0.180215	0.042632	0.982703	0.868984	-0.461188	0.179368	0.460857	0.886278	0.046066
36585	9.321671	3.102036	-5.005450	1.317400	-1.424720	0.948257	-0.165468	0.050990	0.984896	0.876627	-0.449922	0.170572	0.451824	0.891611	0.029749
36586	8.284230	0.983940	-5.425168	0.812887	-1.290147	0.833625	-0.152370	0.058822	0.986571	0.881598	-0.443118	0.162577	0.446731	0.894531	0.015661
36587	9.133656	-0.483976	-5.730402	0.484244	-1.219508	0.806064	-0.139850	0.066194	0.987958	0.884926	-0.439288	0.154698	0.444238	0.895904	0.002858
36588	10.085855	0.259433	-5.934901	0.167714	-1.142387	0.838024	-0.127372	0.072791	0.989180	0.886786	-0.438365	0.146445	0.444282	0.895845	-0.008715
36589	10.443464	0.961821	-4.685361	-0.275654	-1.055173	0.872456	-0.114960	0.078406	0.990271	0.886608	-0.441492	0.137882	0.448007	0.893833	-0.018762
36590	10.411063	-0.014367	-3.991100	-0.529485	-0.978608	0.794871	-0.103522	0.083655	0.991103	0.885086	-0.446856	0.130166	0.453770	0.890686	-0.027783
36591	10.301707	-0.677045	-3.302347	-0.474686	-0.898545	0.718893	-0.093096	0.088427	0.991723	0.883621	-0.451696	0.123224	0.458854	0.887779	-0.036085
36592	9.904915	-0.699179	-2.627833	-0.246800	-0.807485	0.631708	-0.083810	0.092778	0.992153	0.883042	-0.454453	0.117089	0.461750	0.885926	-0.043840
36593	9.953031	-0.161531	-1.837151	0.044197	-0.716895	0.527701	-0.075869	0.096741	0.992414	0.883663	-0.454561	0.111866	0.461935	0.885446	-0.050999
36594	9.872519	0.420853	-1.068639	0.153223	-0.677741	0.472487	-0.068570	0.100650	0.992556	0.884710	-0.453666	0.107124	0.461071	0.885470	-0.057938
36595	10.016672	0.816999	-0.363865	0.096376	-0.682980	0.492024	-0.061100	0.104477	0.992649	0.885469	-0.453317	0.102215	0.460664	0.885205	-0.064813
36596	9.646465	0.938277	0.087464	-0.068954	-0.700791	0.546657	-0.053033	0.108248	0.992708	0.885462	-0.454504	0.096865	0.461676	0.884143	-0.071746
36597	9.357894	0.780146	0.079113	-0.191585	-0.712003	0.572829	-0.044701	0.111939	0.992709	0.884852	-0.456827	0.091356	0.463723	0.882484	-0.078629
36598	9.315930	0.657676	-0.202254	-0.114462	-0.710472	0.555286	-0.036495	0.115715	0.992612	0.884545	-0.458464	0.085968	0.465025	0.881147	-0.085623
36599	9.366860	1.020795	-0.340690	0.019854	-0.717086	0.549105	-0.028335	0.119524	0.992427	0.884813	-0.458934	0.080534	0.465084	0.880394	-0.092753
36600	9.518222	1.088132	-0.341703	0.053855	-0.745142	0.578760	-0.019755	0.123476	0.992151	0.885202	-0.459159	0.074769	0.464788	0.879731	-0.100230
36601	9.470554	0.702429	-0.334943	-0.025169	-0.770825	0.601241	-0.010881	0.127501	0.991779	0.885175	-0.460134	0.068865	0.465132	0.878647	-0.107854
36602	9.634125	0.242044	-0.552406	-0.116234	-0.805930	0.588287	-0.001930	0.131914	0.991259	0.884671	-0.461914	0.063192	0.466212	0.877060	-0.115809
36603	9.649858	-0.072383	-0.959453	-0.168293	-0.813300	0.560180	0.006789	0.136458	0.990623	0.883870	-0.464139	0.057877	0.467684	0.875188	-0.123762
36604	9.724009	-0.249058	-1.495441	-0.176223	-0.812329	0.534400	0.015308	0.141121	0.989874	0.882985	-0.466417	0.052840	0.469151	0.873235	-0.131748
36605	9.589972	-0.134575	-1.789544	-0.174040	-0.813564	0.516981	0.023661	0.145813	0.989029	0.882066	-0.468675	0.047995	0.470532	0.871253	-0.139706
36606	9.564001	-0.383347	-1.987048	-0.200532	-0.814268	0.514739	0.032030	0.150528	0.988087	0.880978	-0.471179	0.043223	0.472072	0.869098	-0.147704
36607	9.568160	-0.551598	-2.126381	-0.174154	-0.797376	0.491417	0.040094	0.155142	0.987078	0.879977	-0.473440	0.038668	0.473321	0.867056	-0.155503
36608	9.589234	-0.626849	-1.998175	-0.106627	-0.789074	0.462051	0.047891	0.159834	0.985982	0.879270	-0.475088	0.034307	0.473911	0.865300	-0.163290
36609	9.753918	-0.507135	-1.942257	-0.007576	-0.768044	0.436392	0.055334	0.164413	0.984838	0.879008	-0.475858	0.030054	0.473585	0.864018	-0.170851
36610	9.739083	-0.414899	-1.918444	0.121160	-0.742877	0.399177	0.062353	0.168979	0.983645	0.879348	-0.475473	0.025939	0.472080	0.863349	-0.178238
36611	9.542389	0.081726	-2.009996	0.255420	-0.704977	0.418188	0.069319	0.173092	0.982463	0.880275	-0.473981	0.021398	0.469372	0.863355	-0.185225
36612	9.741536	0.204684	-2.073481	0.228287	-0.713419	0.393591	0.076123	0.177436	0.981184	0.881059	-0.472696	0.017127	0.466840	0.863177	-0.192315
36613	9.572801	0.184350	-2.065406	0.212663	-0.712784	0.382486	0.082781	0.181795	0.979846	0.881747	-0.471544	0.012994	0.464403	0.862900	-0.199332
36614	9.569459	0.320850	-2.035260	0.196933	-0.712045	0.371432	0.089353	0.186236	0.978434	0.882341	-0.470525	0.008982	0.462050	0.862509	-0.206367
36615	9.484932	0.211990	-2.017974	0.137926	-0.714616	0.374381	0.095920	0.190649	0.976961	0.882632	-0.470038	0.005067	0.460175	0.861810	-0.213359
36616	9.428953	0.103232	-2.018983	0.103201	-0.721102	0.370444	0.102500	0.195167	0.975399	0.882740	-0.469860	0.001252	0.458545	0.860896	-0.220443
36617	9.441620	-0.025877	-2.009178	0.085056	-0.734480	0.361031	0.109017	0.199803	0.973753	0.882750	-0.469838	-0.002423	0.457021	0.859844	-0.227596
36618	9.548308	-0.228803	-2.099593	0.069975	-0.735835	0.346380	0.115429	0.204546	0.972027	0.882682	-0.469933	-0.005930	0.455574	0.858676	-0.234793
36619	9.440464	-0.052427	-2.199265	0.102130	-0.728571	0.334539	0.121663	0.209239	0.970267	0.882753	-0.469744	-0.009389	0.453813	0.857648	-0.241856
36620	9.268036	-0.245513	-2.142928	0.068563	-0.744604	0.333583	0.127977	0.214100	0.968392	0.882649	-0.469859	-0.012766	0.452274	0.856384	-0.249106
36621	9.346173	-0.546977	-2.170432	0.060284	-0.760966	0.328572	0.134281	0.219080	0.966423	0.882493	-0.470050	-0.016063	0.450748	0.855019	-0.256455
36622	9.310195	-0.492625	-2.215938	0.075189	-0.756987	0.320004	0.140507	0.224089	0.964387	0.882395	-0.470113	-0.019324	0.449040	0.853685	-0.263789
36623	9.315420	-0.680082	-2.351008	0.113312	-0.755099	0.307512	0.146571	0.229098	0.962305	0.882464	-0.469838	-0.022555	0.446960	0.852506	-0.271036
36624	9.097898	-0.235677	-2.364728	0.184579	-0.748934	0.341156	0.152917	0.233923	0.960154	0.882779	-0.469051	-0.026318	0.444205	0.851629	-0.278228
36625	9.469673	-0.178287	-2.478529	0.177807	-0.762004	0.335117	0.159218	0.238851	0.957914	0.883047	-0.468325	-0.030000	0.441450	0.850660	-0.285482
36626	9.250250	0.125061	-2.205646	0.180608	-0.782376	0.345115	0.165705	0.243931	0.955531	0.883284	-0.467618	-0.033801	0.438578	0.849606	-0.292947
36627	9.388741	-0.135776	-2.194084	0.134714	-0.819689	0.358132	0.172420	0.249228	0.952973	0.883272	-0.467352	-0.037584	0.436007	0.848214	-0.300717
36628	9.476709	-0.148012	-2.199098	0.144835	-0.834620	0.360345	0.179226	0.254661	0.950277	0.883271	-0.467028	-0.041431	0.433255	0.846778	-0.308638
36629	9.548827	-0.174455	-2.170976	0.102823	-0.863323	0.374243	0.186228	0.260229	0.947418	0.883036	-0.467116	-0.045270	0.430773	0.845035	-0.316782
36630	9.618987	-0.227396	-2.253183	0.104735	-0.888489	0.397414	0.193547	0.265914	0.944367	0.882735	-0.467272	-0.049341	0.428156	0.843176	-0.325171
36631	9.382354	-0.290247	-2.372889	0.078401	-0.929828	0.402145	0.201033	0.271876	0.941100	0.882282	-0.467687	-0.053357	0.425634	0.841042	-0.333892
36632	9.312496	-0.407996	-2.474844	0.099083	-0.965180	0.401748	0.208664	0.278145	0.937601	0.881883	-0.467955	-0.057442	0.422778	0.838841	-0.342936
36633	9.158467	-0.097673	-2.607090	0.130586	-0.987738	0.410799	0.216414	0.284509	0.933927	0.881566	-0.468010	-0.061707	0.419531	0.836672	-0.352098
36634	9.184587	-0.035697	-2.581377	0.086884	-1.042039	0.415477	0.224422	0.291308	0.929932	0.881018	-0.468475	-0.065864	0.416464	0.834069	-0.361784
36635	9.346743	-0.194092	-2.710195	0.057759	-1.079540	0.411868	0.232497	0.298378	0.925697	0.880323	-0.469202	-0.069864	0.413493	0.831156	-0.371757
36636	9.424655	-0.110921	-2.795184	0.062763	-1.116192	0.413463	0.240722	0.305735	0.921183	0.879608	-0.469924	-0.073893	0.410295	0.828068	-0.382048
36637	9.208192	0.022239	-2.722008	0.046311	-1.159043	0.431572	0.249222	0.313295	0.916370	0.878747	-0.470870	-0.078005	0.407053	0.824698	-0.392659
36638	9.171703	-0.022384	-2.491204	0.007043	-1.217134	0.447216	0.258072	0.321238	0.911156	0.877647	-0.472225	-0.082093	0.403899	0.820859	-0.403801
36639	9.192498	-0.049139	-2.242692	0.009717	-1.281563	0.458954	0.267220	0.329573	0.905525	0.876488	-0.473631	-0.086269	0.400452	0.816735	-0.415431
36640	9.315352	0.062310	-2.127316	0.034946	-1.345039	0.472637	0.276704	0.338323	0.899429	0.875348	-0.474918	-0.090654	0.396485	0.812398	-0.427562
36641	9.478869	0.162377	-1.799066	0.034393	-1.423728	0.494542	0.286613	0.347516	0.892796	0.874099	-0.476327	-0.095203	0.392178	0.807679	-0.440285
36642	9.850625	0.202094	-1.369524	0.031527	-1.531490	0.537739	0.297260	0.357312	0.885418	0.872659	-0.477961	-0.100095	0.387430	0.802422	-0.453890
36643	10.131802	0.630826	-1.355767	0.113747	-1.622073	0.551394	0.308274	0.367659	0.877379	0.871436	-0.479040	-0.105448	0.381531	0.797087	-0.468067
36644	10.430208	1.400076	-1.013574	0.160780	-1.743733	0.589637	0.319979	0.378709	0.868443	0.870200	-0.479956	-0.111328	0.374653	0.791342	-0.483128
36645	10.439611	1.044233	-0.864754	0.086055	-1.909476	0.664324	0.332810	0.390572	0.858307	0.868361	-0.481823	-0.117455	0.367677	0.784411	-0.499513
36646	10.948106	1.528196	-0.586623	0.111579	-2.054448	0.655240	0.345937	0.403470	0.847077	0.866553	-0.483544	-0.123574	0.359741	0.776786	-0.516904
36647	11.743017	2.052832	-1.071139	0.160841	-2.163812	0.684614	0.359519	0.416889	0.834835	0.864720	-0.485099	-0.130147	0.350721	0.768689	-0.534894
36648	12.162204	3.254297	-1.767323	0.246874	-2.240532	0.749233	0.373696	0.430398	0.821650	0.862839	-0.486375	-0.137655	0.340383	0.760393	-0.553120
36649	12.239860	4.094895	-2.290339	0.189081	-2.318086	0.835764	0.388636	0.443858	0.807436	0.860298	-0.488587	-0.145497	0.329923	0.751181	-0.571733
36650	11.977760	3.906710	-2.799785	0.005094	-2.419084	0.916156	0.404319	0.457419	0.792019	0.856697	-0.492667	-0.152805	0.320306	0.740302	-0.591064
36651	11.603908	3.458638	-3.175654	-0.261253	-2.502345	1.008716	0.420820	0.470794	0.775412	0.851722	-0.499253	-0.159111	0.312218	0.727392	-0.611081
36652	11.683494	3.163484	-3.524707	-0.622274	-2.568504	1.120243	0.438215	0.483646	0.757664	0.845003	-0.509066	-0.163774	0.306492	0.711996	-0.631762
36653	11.665635	2.782364	-4.038095	-1.015443	-2.591571	1.212359	0.456283	0.495630	0.739024	0.836498	-0.522128	-0.166297	0.303444	0.694070	-0.652831
36654	11.526735	1.948105	-5.044537	-1.412277	-2.555126	1.255887	0.474416	0.506461	0.720019	0.826389	-0.538067	-0.166026	0.303333	0.673781	-0.673801
36655	10.529085	0.161409	-6.146850	-1.803562	-2.451430	1.321003	0.492698	0.515489	0.701085	0.814518	-0.556754	-0.163049	0.306282	0.651380	-0.694187
36656	9.853085	-1.673344	-7.309569	-2.110638	-2.392304	1.386636	0.511224	0.522929	0.682052	0.801061	-0.577433	-0.157709	0.311369	0.626990	-0.714096
36657	9.914638	-2.993650	-7.889217	-2.245166	-2.330157	1.353666	0.529268	0.529302	0.663110	0.786979	-0.598332	-0.150539	0.317079	0.601530	-0.733228
36658	10.313316	-4.310184	-8.610343	-2.165241	-2.267333	1.273674	0.546385	0.534922	0.644455	0.773235	-0.617848	-0.142731	0.321825	0.576301	-0.751203
36659	10.621372	-5.234459	-9.210775	-1.736998	-2.148332	1.136323	0.562007	0.539970	0.626563	0.761352	-0.633755	-0.136740	0.323252	0.553883	-0.767282
36660	9.910205	-5.192219	-8.871426	-0.698813	-1.915184	0.937674	0.575189	0.544461	0.610508	0.753804	-0.642642	-0.137078	0.317704	0.539049	-0.780058
36661	8.697325	-4.204937	-8.195070	-0.118369	-1.582178	0.686156	0.585281	0.548510	0.597145	0.749471	-0.647007	-0.140268	0.309419	0.529639	-0.789774
36662	7.081186	-3.621826	-8.255836	0.234846	-1.310824	0.473699	0.592764	0.552354	0.586119	0.747421	-0.648359	-0.144886	0.299988	0.523961	-0.797165
36663	5.947154	-3.134897	-8.018420	0.363862	-1.034185	0.319882	0.598183	0.555701	0.577384	0.746611	-0.648214	-0.149635	0.291116	0.520590	-0.802644
36664	5.534686	-2.674967	-7.802451	0.440076	-0.680718	0.165924	0.601325	0.558173	0.571710	0.746907	-0.646830	-0.154083	0.283794	0.519668	-0.805858
36665	3.698453	-3.031397	-9.193967	0.245623	-0.266933	0.064178	0.602531	0.559165	0.569466	0.747233	-0.645895	-0.156408	0.280357	0.519764	-0.806998
36666	2.556436	-3.777555	-10.126733	0.031374	-0.125073	0.065564	0.603318	0.559396	0.568404	0.746951	-0.646079	-0.156993	0.279412	0.519286	-0.807633
36667	4.315362	-3.457063	-7.550658	0.202326	-0.114951	-0.000043	0.603611	0.560014	0.567484	0.747534	-0.645010	-0.158605	0.277212	0.519949	-0.807964
36668	6.170597	-3.330139	-6.290470	0.470725	0.443015	-0.316601	0.599964	0.559739	0.571607	0.750767	-0.640757	-0.160560	0.276390	0.525474	-0.804665
36669	5.873708	-2.697219	-6.520856	0.691055	1.035358	-0.648465	0.592183	0.558397	0.580958	0.756565	-0.633447	-0.162336	0.277358	0.535665	-0.797581
36670	5.286530	-1.803230	-6.476554	0.714161	1.371902	-0.934612	0.581204	0.556845	0.593402	0.764064	-0.624346	-0.162476	0.280014	0.547828	-0.788338
36671	5.220685	-1.837533	-6.824726	0.601584	1.710648	-1.176280	0.567304	0.554665	0.608698	0.772538	-0.614456	-0.160091	0.285221	0.561062	-0.777083
36672	4.737228	-2.656621	-7.532692	0.654939	1.961809	-1.330546	0.551258	0.551615	0.625968	0.781891	-0.603352	-0.156886	0.291139	0.575923	-0.763905
36673	4.868081	-2.248145	-7.491372	0.747141	2.137253	-1.473459	0.533349	0.547948	0.644431	0.792096	-0.590870	-0.153154	0.296855	0.592136	-0.749168
36674	5.170722	-1.877207	-7.045863	0.724542	2.399754	-1.666969	0.512796	0.543267	0.664757	0.803013	-0.577401	-0.147571	0.303661	0.609483	-0.732339
36675	5.393206	-2.001499	-6.943412	0.689875	2.680548	-1.863922	0.489445	0.537327	0.686821	0.814493	-0.563045	-0.139935	0.311520	0.627901	-0.713228
36676	5.681176	-2.165131	-6.793293	0.683705	2.921477	-2.028921	0.463521	0.529966	0.710130	0.826339	-0.547838	-0.130526	0.319862	0.647310	-0.691866
36677	5.947218	-2.276168	-6.872745	0.694813	3.168581	-2.165982	0.435190	0.520839	0.734395	0.838340	-0.531872	-0.119578	0.328323	0.667712	-0.668106
36678	5.982003	-1.948154	-6.930978	0.757861	3.322409	-2.246196	0.405134	0.510057	0.758754	0.850312	-0.515134	-0.107733	0.335910	0.688824	-0.642406
36679	6.066825	-1.436927	-7.195707	0.725655	3.403803	-2.250533	0.374282	0.497677	0.782451	0.861560	-0.498703	-0.094923	0.342969	0.709657	-0.615434
36680	6.692435	-0.877133	-7.359252	0.496123	3.341435	-2.181567	0.343736	0.484366	0.804510	0.871127	-0.484406	-0.080556	0.350690	0.728520	-0.588451
36681	8.605068	0.460881	-5.474491	0.332939	3.357621	-2.068997	0.313683	0.469515	0.825323	0.879120	-0.472068	-0.065577	0.358819	0.746128	-0.560840
36682	7.342839	0.415438	-6.136868	0.107064	3.545361	-2.128090	0.281951	0.452688	0.845918	0.885858	-0.461432	-0.048331	0.368455	0.762991	-0.531118
36683	7.351093	0.591478	-6.131363	-0.209880	3.493476	-2.198455	0.249317	0.435843	0.864802	0.890921	-0.453268	-0.028409	0.379605	0.777553	-0.501309
36684	7.697381	0.642431	-5.909889	-0.488846	3.546614	-2.150099	0.216378	0.417717	0.882436	0.894048	-0.447913	-0.007198	0.392247	0.790498	-0.470378
36685	8.040170	0.654485	-5.779160	-0.680047	3.548356	-2.013775	0.184172	0.398465	0.898502	0.895375	-0.445098	0.013860	0.405444	0.801944	-0.438750
36686	7.927607	0.191961	-5.730053	-0.749784	3.639176	-1.935639	0.151788	0.377680	0.913410	0.895541	-0.443630	0.034615	0.418290	0.812742	-0.405565
36687	7.771805	-0.410958	-5.895560	-0.653016	3.748511	-1.933099	0.118556	0.355578	0.927097	0.895390	-0.441876	0.054975	0.429210	0.823596	-0.370768
36688	8.113484	-0.482764	-5.724404	-0.432048	3.827170	-1.894660	0.084954	0.332182	0.939382	0.895447	-0.438936	0.074235	0.436988	0.834860	-0.334741
36689	8.605419	-0.003741	-5.161040	-0.227884	3.878720	-1.804255	0.051717	0.307471	0.950151	0.895679	-0.435072	0.092038	0.441683	0.846270	-0.297896
36690	8.736991	0.496273	-4.519597	-0.114216	3.899085	-1.698273	0.019179	0.281613	0.959336	0.895772	-0.431037	0.108623	0.444099	0.857264	-0.260528
36691	8.618188	1.001171	-3.975173	-0.076532	3.918981	-1.658238	-0.013130	0.254940	0.966868	0.895481	-0.427242	0.124814	0.444907	0.867450	-0.222684
36692	8.722013	1.672377	-3.402874	-0.198562	3.870249	-1.593427	-0.044676	0.227995	0.972637	0.894130	-0.425121	0.140723	0.445573	0.875951	-0.184864
36693	9.093560	1.940722	-2.958418	-0.516636	3.759714	-1.466509	-0.074599	0.201203	0.976705	0.890943	-0.426511	0.155911	0.447945	0.881820	-0.147443
36694	9.457160	1.865619	-2.840204	-0.870036	3.616993	-1.338417	-0.102828	0.174999	0.979184	0.885830	-0.431678	0.170174	0.452472	0.884890	-0.110631
36695	9.627720	1.727946	-2.083637	-1.161479	3.432213	-1.199816	-0.129089	0.149857	0.980244	0.879141	-0.440008	0.183042	0.458746	0.885401	-0.074945
36696	9.522990	1.176203	-0.280732	-1.321845	3.140556	-1.067883	-0.153008	0.126836	0.980052	0.871512	-0.450225	0.194330	0.465892	0.883861	-0.041651
36697	10.435954	0.746527	-1.314415	-1.446701	2.985757	-0.992156	-0.175671	0.105027	0.978830	0.863078	-0.461839	0.204452	0.473535	0.880723	-0.009515
36698	11.240137	1.632534	-0.334091	-1.584433	2.765575	-0.806074	-0.195854	0.084522	0.976984	0.853998	-0.474994	0.212292	0.482005	0.875921	0.020848
36699	9.368400	1.207439	-0.269741	-1.608055	2.350837	-0.576484	-0.212219	0.066790	0.974937	0.844990	-0.488597	0.217405	0.490871	0.869950	0.047253
36700	8.827975	1.150548	0.436714	-1.718623	1.889724	-0.392537	-0.224936	0.052378	0.972965	0.835594	-0.503253	0.220270	0.501185	0.862550	0.069433
36701	8.046150	0.494519	0.854310	-1.602935	1.496118	-0.279789	-0.234865	0.040970	0.971164	0.826828	-0.516891	0.221764	0.511072	0.855070	0.087525
36702	7.675198	0.119963	0.749591	-1.167174	1.162696	-0.211801	-0.242634	0.032178	0.969584	0.820304	-0.526764	0.222759	0.517910	0.849402	0.101415
36703	7.396238	0.786437	0.657542	-0.695205	0.851544	-0.073560	-0.247692	0.025364	0.968507	0.816500	-0.532638	0.222766	0.521514	0.845963	0.111220
36704	6.996052	1.020010	0.375887	-0.369852	0.508449	0.090717	-0.249648	0.020594	0.968118	0.814781	-0.535788	0.221504	0.523267	0.844102	0.116978
36705	6.612858	0.638408	-0.268212	-0.096241	0.218720	0.231391	-0.248937	0.017522	0.968361	0.814843	-0.536646	0.219183	0.523508	0.843625	0.119313
36706	6.443357	-0.237474	-1.105323	0.186069	-0.018837	0.315660	-0.246302	0.016002	0.969061	0.816585	-0.535132	0.216384	0.522038	0.844617	0.118737
36707	6.481810	-0.872908	-2.519771	0.556708	-0.201695	0.351666	-0.242405	0.015849	0.970046	0.820329	-0.530480	0.213660	0.517976	0.847549	0.115590
36708	6.611672	-1.208780	-3.993913	0.894921	-0.341475	0.374688	-0.237596	0.016792	0.971219	0.825824	-0.522938	0.211068	0.511432	0.852205	0.110381
36709	6.523925	-1.221119	-4.661600	1.120902	-0.450901	0.391891	-0.232090	0.018631	0.972516	0.832421	-0.513426	0.208492	0.503199	0.857932	0.103652
36710	6.576589	-0.883858	-4.720037	1.193550	-0.551241	0.408328	-0.225951	0.021319	0.973905	0.839302	-0.503233	0.205738	0.494488	0.863888	0.095812
36711	6.858697	-0.172584	-4.115589	1.167985	-0.666170	0.463411	-0.218810	0.024798	0.975452	0.846050	-0.493219	0.202322	0.486129	0.869552	0.086941
36712	10.301348	1.561033	-0.329495	0.847632	-0.714138	0.533344	-0.210848	0.028435	0.977105	0.851287	-0.485973	0.197841	0.480472	0.873511	0.078260
36713	14.255267	5.375434	1.184636	0.916513	-0.381150	0.414505	-0.205522	0.029787	0.978199	0.856512	-0.478070	0.194513	0.473442	0.877816	0.072741
36714	15.879963	8.031853	3.241969	0.734033	-0.331938	0.192070	-0.202329	0.031821	0.978801	0.860353	-0.471673	0.193178	0.467821	0.881199	0.068056
36715	16.140744	2.153929	0.873058	0.415267	-0.736963	0.270387	-0.196591	0.037063	0.979785	0.862822	-0.468105	0.190830	0.465715	0.882895	0.060047
36716	14.554782	0.495919	-2.872428	1.511865	-1.381133	0.763235	-0.183635	0.045804	0.981927	0.871229	-0.455024	0.184158	0.455235	0.889301	0.043653
36717	12.714392	4.716430	-3.570344	2.142225	-1.640280	1.147709	-0.166264	0.055359	0.984526	0.882811	-0.436460	0.173628	0.439318	0.898019	0.023696
36718	7.462473	6.040733	-5.055838	2.110999	-1.565710	1.191602	-0.148946	0.064422	0.986745	0.893787	-0.418128	0.162213	0.423036	0.906101	0.004698
36719	6.562067	5.529329	-4.047414	1.118749	-1.532045	0.996094	-0.133624	0.074224	0.988249	0.899877	-0.408662	0.152368	0.415169	0.909663	-0.012186
