// General information: 
//  MT Manager version: 2022.2.0 
//  XDA version: 2022.2.0 build 7381 rev 124627 built on 2023-07-19
// Device information: 
//  DeviceId: 00B4CBA7
//  ProductCode: MTW2-3A7G6
//  Firmware Version: 4.6.0
//  Hardware Version: 2.0.0
// Device settings: 
//  Filter Profile: human(46.1)
//  Option Flags: Orientation Smoother Disabled, Position/Velocity Smoother Disabled, Continuous Zero Rotation Update Disabled, AHS Disabled, ICC Disabled
// Coordinate system: ENU
PacketCounter	Acc_X	Acc_Y	Acc_Z	Gyr_X	Gyr_Y	Gyr_Z	Mat[1][1]	Mat[2][1]	Mat[3][1]	Mat[1][2]	Mat[2][2]	Mat[3][2]	Mat[1][3]	Mat[2][3]	Mat[3][3]
33281	9.438627	-1.917837	-0.647261	-0.059097	-0.131168	-0.024442	-0.138357	-0.015541	0.990260	-0.945474	0.299747	-0.127395	-0.294848	-0.953892	-0.056166
33282	9.442736	-1.884727	-0.564667	-0.046498	-0.133630	-0.041888	-0.138324	-0.017004	0.990241	-0.945401	0.300187	-0.126906	-0.295100	-0.953729	-0.057599
33283	9.664862	-1.857477	-0.540034	-0.059878	-0.142816	-0.058647	-0.138147	-0.018551	0.990238	-0.945312	0.300745	-0.126245	-0.295467	-0.953524	-0.059083
33284	10.084620	-2.051238	-0.953514	-0.092441	-0.135192	-0.071139	-0.137845	-0.020116	0.990249	-0.945142	0.301616	-0.125439	-0.296151	-0.953217	-0.060589
33285	10.461965	-2.023767	-1.890561	-0.101392	-0.110743	-0.097503	-0.137207	-0.021475	0.990310	-0.944982	0.302559	-0.124366	-0.296956	-0.952889	-0.061806
33286	10.597859	-1.530089	-2.935433	-0.079225	-0.065640	-0.090511	-0.136522	-0.022437	0.990383	-0.944875	0.303297	-0.123377	-0.297612	-0.952632	-0.062607
33287	10.412822	-0.885427	-3.527527	-0.096825	-0.018849	-0.075121	-0.135823	-0.022854	0.990470	-0.944696	0.304199	-0.122527	-0.298500	-0.952334	-0.062907
33288	10.207941	-1.025352	-3.706446	-0.168587	0.045634	-0.074065	-0.134964	-0.022717	0.990590	-0.944296	0.305791	-0.121643	-0.300150	-0.951828	-0.062723
33289	10.129413	-1.306801	-3.803923	-0.181546	0.131285	-0.106076	-0.133522	-0.021802	0.990806	-0.943898	0.307492	-0.120434	-0.302039	-0.951301	-0.061636
33290	9.780112	-1.753827	-3.386304	-0.146027	0.198941	-0.135388	-0.131621	-0.020410	0.991090	-0.943640	0.308857	-0.118959	-0.303678	-0.950889	-0.059912
33291	9.419333	-2.093373	-2.724230	-0.080267	0.252612	-0.158432	-0.129313	-0.018507	0.991431	-0.943609	0.309587	-0.117296	-0.304763	-0.950691	-0.057497
33292	9.215707	-2.278821	-1.802850	-0.006962	0.281389	-0.173406	-0.126803	-0.016459	0.991791	-0.943813	0.309629	-0.115531	-0.305186	-0.950715	-0.054796
33293	9.183372	-2.364753	-0.792131	0.059667	0.284674	-0.191912	-0.124078	-0.014355	0.992169	-0.944242	0.309029	-0.113613	-0.304978	-0.950944	-0.051898
33294	9.190632	-2.237661	0.013219	0.115280	0.276984	-0.222852	-0.121119	-0.012498	0.992559	-0.944869	0.307909	-0.111422	-0.304225	-0.951334	-0.049103
33295	9.190048	-1.846385	0.634429	0.158151	0.246201	-0.237880	-0.118078	-0.010895	0.992945	-0.945640	0.306373	-0.109091	-0.303023	-0.951849	-0.046479
33296	9.159822	-1.308298	1.196218	0.169913	0.200183	-0.240179	-0.115193	-0.009809	0.993295	-0.946436	0.304736	-0.106749	-0.301646	-0.952386	-0.044387
33297	9.119590	-0.853992	1.511820	0.159132	0.153669	-0.236739	-0.112443	-0.009074	0.993617	-0.947190	0.303196	-0.104421	-0.300313	-0.952885	-0.042687
33298	9.193888	-0.558713	1.582328	0.125826	0.102333	-0.225333	-0.109992	-0.008860	0.993893	-0.947820	0.301981	-0.102201	-0.299231	-0.953273	-0.041613
33299	9.290412	-0.391165	1.555480	0.102233	0.044526	-0.219246	-0.107735	-0.009105	0.994138	-0.948370	0.300984	-0.100019	-0.298309	-0.953586	-0.041061
33300	9.411707	-0.323014	1.503014	0.063602	-0.018102	-0.212845	-0.105756	-0.009990	0.994342	-0.948789	0.300361	-0.097894	-0.297683	-0.953773	-0.041243
33301	9.603883	-0.361794	1.278312	0.009833	-0.062107	-0.208919	-0.103913	-0.011218	0.994523	-0.949043	0.300242	-0.095775	-0.297524	-0.953797	-0.041846
33302	9.672339	-0.456980	0.932194	-0.046110	-0.112798	-0.213406	-0.102206	-0.013002	0.994678	-0.949128	0.300659	-0.093596	-0.297842	-0.953643	-0.043069
33303	9.738584	-0.557021	0.484232	-0.099918	-0.141948	-0.214159	-0.100551	-0.015009	0.994819	-0.949052	0.301579	-0.091376	-0.298645	-0.953323	-0.044568
33304	9.866620	-0.526823	-0.317328	-0.156954	-0.158239	-0.209792	-0.099014	-0.017214	0.994937	-0.948795	0.303043	-0.089179	-0.299974	-0.952821	-0.046338
33305	9.849769	-0.538964	-0.991595	-0.199024	-0.150517	-0.204046	-0.097485	-0.019276	0.995050	-0.948402	0.304899	-0.087009	-0.301712	-0.952190	-0.048005
33306	9.837756	-0.713729	-1.535202	-0.234585	-0.140361	-0.194095	-0.096048	-0.021270	0.995149	-0.947883	0.307093	-0.084923	-0.303798	-0.951442	-0.049657
33307	9.879890	-0.926609	-1.907182	-0.250773	-0.125320	-0.184504	-0.094637	-0.023040	0.995245	-0.947299	0.309434	-0.082914	-0.306053	-0.950642	-0.051109
33308	9.950684	-1.106388	-2.133395	-0.233981	-0.090315	-0.192014	-0.093075	-0.024562	0.995356	-0.946764	0.311613	-0.080842	-0.308181	-0.949891	-0.052258
33309	9.952138	-1.206783	-2.211296	-0.200076	-0.057027	-0.208354	-0.091234	-0.025764	0.995496	-0.946342	0.313458	-0.078617	-0.310021	-0.949253	-0.052979
33310	9.834639	-1.231923	-2.162883	-0.159537	-0.023478	-0.211825	-0.089285	-0.026725	0.995648	-0.946041	0.314917	-0.076383	-0.311505	-0.948743	-0.053400
33311	9.795144	-1.200705	-1.944188	-0.114788	0.010140	-0.219659	-0.087130	-0.027331	0.995822	-0.945881	0.315944	-0.074089	-0.312599	-0.948384	-0.053380
33312	9.682242	-1.122696	-1.697090	-0.081860	0.037000	-0.228238	-0.084841	-0.027779	0.996007	-0.945823	0.316658	-0.071734	-0.313401	-0.948133	-0.053140
33313	9.643264	-1.042273	-1.425023	-0.052078	0.061680	-0.231315	-0.082414	-0.027937	0.996207	-0.945858	0.317084	-0.069357	-0.313944	-0.947986	-0.052557
33314	9.606472	-1.010069	-1.124644	-0.023297	0.075736	-0.239566	-0.079898	-0.028059	0.996408	-0.945981	0.317239	-0.066921	-0.314222	-0.947930	-0.051890
33315	9.591355	-0.954361	-0.873652	0.004680	0.077058	-0.244327	-0.077299	-0.028113	0.996612	-0.946192	0.317123	-0.064443	-0.314237	-0.947968	-0.051113
33316	9.645142	-0.823539	-0.651388	0.037032	0.078586	-0.244826	-0.074724	-0.028225	0.996805	-0.946497	0.316704	-0.061986	-0.313942	-0.948104	-0.050380
33317	9.626323	-0.745215	-0.449809	0.045839	0.070736	-0.244813	-0.072140	-0.028338	0.996992	-0.946825	0.316197	-0.059522	-0.313559	-0.948270	-0.049641
33318	9.631230	-0.665908	-0.249794	0.053669	0.060708	-0.241504	-0.069652	-0.028606	0.997161	-0.947166	0.315619	-0.057106	-0.313090	-0.948455	-0.049078
33319	9.631943	-0.539442	-0.101810	0.050813	0.041751	-0.246516	-0.067141	-0.028996	0.997322	-0.947497	0.315063	-0.054626	-0.312635	-0.948628	-0.048628
33320	9.677647	-0.388603	-0.030924	0.034940	0.028596	-0.247146	-0.064699	-0.029582	0.997466	-0.947771	0.314659	-0.052143	-0.312319	-0.948744	-0.048395
33321	9.698249	-0.238831	0.038836	0.002029	0.008235	-0.245259	-0.062303	-0.030285	0.997598	-0.947937	0.314563	-0.049652	-0.312304	-0.948753	-0.048306
33322	9.719848	-0.166196	0.011927	-0.036323	-0.008191	-0.240141	-0.060040	-0.031195	0.997708	-0.947972	0.314833	-0.047203	-0.312639	-0.948634	-0.048475
33323	9.721261	-0.194214	-0.060889	-0.070576	-0.020117	-0.243802	-0.057746	-0.032163	0.997813	-0.947899	0.315422	-0.044690	-0.313295	-0.948406	-0.048702
33324	9.745709	-0.196259	-0.136800	-0.091605	-0.037879	-0.241048	-0.055566	-0.033359	0.997898	-0.947750	0.316211	-0.042203	-0.314138	-0.948102	-0.049187
33325	9.695230	-0.205627	-0.285260	-0.108535	-0.046946	-0.236353	-0.053429	-0.034562	0.997973	-0.947540	0.317156	-0.039745	-0.315139	-0.947743	-0.049694
33326	9.673464	-0.260417	-0.385225	-0.110178	-0.063704	-0.238205	-0.051358	-0.035996	0.998031	-0.947319	0.318114	-0.037275	-0.316146	-0.947369	-0.050438
33327	9.603775	-0.317841	-0.460740	-0.109779	-0.071997	-0.229441	-0.049367	-0.037419	0.998080	-0.947090	0.319066	-0.034883	-0.317148	-0.946993	-0.051190
33328	9.630566	-0.344022	-0.516483	-0.097474	-0.083842	-0.228346	-0.047455	-0.039015	0.998111	-0.946893	0.319900	-0.032516	-0.318027	-0.946648	-0.052124
33329	9.673332	-0.272638	-0.625472	-0.089844	-0.085272	-0.227363	-0.045529	-0.040560	0.998139	-0.946716	0.320656	-0.030153	-0.318836	-0.946327	-0.052998
33330	9.692678	-0.201366	-0.685099	-0.077791	-0.088653	-0.224259	-0.043673	-0.042192	0.998155	-0.946569	0.321297	-0.027835	-0.319529	-0.946038	-0.053970
33331	9.740405	-0.176671	-0.720134	-0.063313	-0.096320	-0.214651	-0.041904	-0.043803	0.998161	-0.946461	0.321799	-0.025612	-0.320086	-0.945794	-0.054943
33332	9.752066	-0.008940	-0.759171	-0.058596	-0.100405	-0.199553	-0.040321	-0.045469	0.998152	-0.946358	0.322261	-0.023548	-0.320595	-0.945558	-0.056024
33333	9.773361	0.010721	-0.842646	-0.065322	-0.094130	-0.199549	-0.038689	-0.047012	0.998145	-0.946230	0.322782	-0.021474	-0.321174	-0.945305	-0.056973
33334	9.702056	-0.025534	-0.896768	-0.065254	-0.093986	-0.195242	-0.037127	-0.048606	0.998128	-0.946096	0.323303	-0.019448	-0.321752	-0.945047	-0.057989
33335	9.699318	-0.034280	-1.026977	-0.057762	-0.089290	-0.187883	-0.035592	-0.050067	0.998111	-0.945980	0.323751	-0.017493	-0.322264	-0.944817	-0.058885
33336	9.706128	-0.113498	-1.057190	-0.050480	-0.082319	-0.187035	-0.034071	-0.051526	0.998090	-0.945885	0.324129	-0.015556	-0.322709	-0.944608	-0.059781
33337	9.612098	-0.126359	-1.012080	-0.035499	-0.079134	-0.187352	-0.032509	-0.052891	0.998071	-0.945835	0.324363	-0.013618	-0.323017	-0.944453	-0.060570
33338	9.600335	-0.203973	-0.894580	-0.021333	-0.082325	-0.188655	-0.030973	-0.054357	0.998041	-0.945828	0.324459	-0.011682	-0.323188	-0.944337	-0.061462
33339	9.578689	-0.159800	-0.755694	-0.005173	-0.079231	-0.183602	-0.029447	-0.055710	0.998013	-0.945869	0.324402	-0.009800	-0.323211	-0.944277	-0.062247
33340	9.623216	-0.088367	-0.742281	0.003734	-0.084873	-0.183704	-0.027967	-0.057184	0.997972	-0.945935	0.324258	-0.007929	-0.323147	-0.944239	-0.063161
33341	9.752144	0.060906	-0.881032	0.005814	-0.080533	-0.177328	-0.026505	-0.058529	0.997934	-0.946004	0.324096	-0.006117	-0.323069	-0.944212	-0.063959
33342	9.769888	0.127957	-0.915398	-0.003780	-0.079160	-0.167442	-0.025159	-0.059896	0.997887	-0.946037	0.324028	-0.004403	-0.323080	-0.944150	-0.064817
33343	9.759336	0.188892	-1.046161	-0.006863	-0.077495	-0.155524	-0.023893	-0.061142	0.997843	-0.946055	0.323994	-0.002801	-0.323124	-0.944081	-0.065585
33344	9.690776	0.174214	-0.976981	-0.010878	-0.080038	-0.146771	-0.022746	-0.062451	0.997789	-0.946056	0.324000	-0.001287	-0.323204	-0.943993	-0.066451
33345	9.691170	0.215492	-0.887875	-0.015034	-0.082364	-0.144500	-0.021599	-0.063706	0.997735	-0.946041	0.324046	0.000210	-0.323326	-0.943894	-0.067268
33346	9.700697	0.210807	-0.700382	-0.018026	-0.086697	-0.143306	-0.020506	-0.065068	0.997670	-0.946015	0.324118	0.001695	-0.323473	-0.943776	-0.068201
33347	9.654850	0.248069	-0.561036	-0.016708	-0.090750	-0.142209	-0.019409	-0.066395	0.997605	-0.945991	0.324177	0.003171	-0.323611	-0.943663	-0.069101
33348	9.722548	0.318748	-0.550277	-0.024826	-0.099687	-0.139761	-0.018390	-0.067867	0.997525	-0.945939	0.324312	0.004625	-0.323823	-0.943513	-0.070162
33349	9.691429	0.351692	-0.632674	-0.033004	-0.104660	-0.130874	-0.017446	-0.069288	0.997444	-0.945857	0.324528	0.006000	-0.324115	-0.943335	-0.071199
33350	9.737037	0.342587	-0.742337	-0.042163	-0.111779	-0.123015	-0.016625	-0.070820	0.997351	-0.945743	0.324833	0.007301	-0.324490	-0.943116	-0.072378
33351	9.780205	0.331428	-0.901218	-0.040786	-0.112048	-0.111162	-0.015892	-0.072248	0.997260	-0.945630	0.325133	0.008486	-0.324855	-0.942904	-0.073486
33352	9.748393	0.361640	-0.984698	-0.040215	-0.116660	-0.098155	-0.015321	-0.073745	0.997159	-0.945517	0.325434	0.009539	-0.325213	-0.942685	-0.074713
33353	9.790619	0.374214	-1.095927	-0.038998	-0.116695	-0.092786	-0.014779	-0.075156	0.997062	-0.945405	0.325727	0.010540	-0.325562	-0.942472	-0.075867
33354	9.841824	0.339754	-1.132755	-0.048958	-0.109151	-0.085061	-0.014308	-0.076541	0.996964	-0.945260	0.326117	0.011472	-0.326005	-0.942226	-0.077017
33355	9.854033	0.397542	-1.242678	-0.064510	-0.101666	-0.084752	-0.013793	-0.077785	0.996875	-0.945063	0.326653	0.012412	-0.326598	-0.941938	-0.078018
33356	9.831688	0.328478	-1.346748	-0.071391	-0.091788	-0.078199	-0.013331	-0.078985	0.996787	-0.944842	0.327257	0.013295	-0.327256	-0.941628	-0.078992
33357	9.759723	0.252831	-1.471568	-0.069725	-0.081250	-0.074037	-0.012853	-0.080003	0.996712	-0.944624	0.327849	0.014134	-0.327902	-0.941337	-0.079786
33358	9.758692	0.235365	-1.527034	-0.065966	-0.068585	-0.067787	-0.012415	-0.080953	0.996641	-0.944418	0.328407	0.014911	-0.328511	-0.941061	-0.080530
33359	9.729424	0.238342	-1.604795	-0.060063	-0.057697	-0.065898	-0.011937	-0.081722	0.996584	-0.944230	0.328913	0.015662	-0.329070	-0.940817	-0.081091
33360	9.693750	0.194326	-1.459789	-0.052060	-0.042784	-0.057617	-0.011511	-0.082398	0.996533	-0.944068	0.329348	0.016327	-0.329551	-0.940606	-0.081581
33361	9.678401	0.175985	-1.339981	-0.036070	-0.037610	-0.054869	-0.011072	-0.082943	0.996493	-0.943956	0.329636	0.016949	-0.329886	-0.940458	-0.081944
33362	9.679820	0.258666	-1.149554	-0.027587	-0.034902	-0.055134	-0.010645	-0.083539	0.996448	-0.943873	0.329841	0.017570	-0.330137	-0.940333	-0.082361
33363	9.657383	0.312780	-1.005455	-0.031277	-0.024877	-0.049716	-0.010212	-0.083947	0.996418	-0.943776	0.330088	0.018137	-0.330428	-0.940210	-0.082598
33364	9.607224	0.311494	-1.029338	-0.039819	-0.025549	-0.047306	-0.009828	-0.084429	0.996381	-0.943651	0.330414	0.018690	-0.330796	-0.940052	-0.082919
33365	9.517071	0.281747	-0.952395	-0.042022	-0.021797	-0.040789	-0.009470	-0.084779	0.996355	-0.943517	0.330768	0.019177	-0.331189	-0.939896	-0.083123
33366	9.509492	0.333526	-0.979389	-0.038489	-0.022030	-0.031156	-0.009227	-0.085176	0.996323	-0.943394	0.331095	0.019569	-0.331545	-0.939745	-0.083409
33367	9.677390	0.483240	-0.749885	-0.048223	-0.037623	-0.026423	-0.009057	-0.085627	0.996286	-0.943238	0.331520	0.019918	-0.331994	-0.939554	-0.083769
33368	9.855789	0.534945	-0.544697	-0.066877	-0.047616	-0.019318	-0.009009	-0.086225	0.996235	-0.943019	0.332123	0.020217	-0.332616	-0.939287	-0.084304
33369	9.903660	0.497050	-0.234701	-0.088291	-0.081123	-0.007626	-0.009162	-0.087022	0.996164	-0.942727	0.332939	0.020414	-0.333439	-0.938924	-0.085089
33370	10.117605	0.380197	0.209965	-0.079681	-0.121687	0.017284	-0.009706	-0.088191	0.996056	-0.942462	0.333694	0.020361	-0.334174	-0.938547	-0.086356
33371	10.361024	0.463604	1.109346	-0.073614	-0.163437	0.062800	-0.010800	-0.089525	0.995926	-0.942210	0.334434	0.019846	-0.334849	-0.938157	-0.087963
33372	10.143205	0.289671	1.963560	-0.108677	-0.196478	0.053263	-0.011932	-0.091268	0.995755	-0.941842	0.335493	0.019465	-0.335845	-0.937611	-0.089964
33373	9.429875	-0.195629	2.141436	-0.150419	-0.239022	0.020207	-0.012881	-0.093451	0.995541	-0.941334	0.336915	0.019446	-0.337230	-0.936886	-0.092309
33374	9.143162	-0.479457	2.381379	-0.152363	-0.348078	-0.008421	-0.013947	-0.096807	0.995205	-0.940822	0.338326	0.019725	-0.338613	-0.936036	-0.095797
33375	9.669500	0.019675	1.471121	-0.104193	-0.416615	0.013940	-0.015446	-0.100668	0.994800	-0.940468	0.339308	0.019734	-0.339530	-0.935273	-0.099916
33376	9.986849	0.396243	0.936584	-0.087953	-0.449951	0.048013	-0.017393	-0.104769	0.994344	-0.940164	0.340171	0.019397	-0.340279	-0.934509	-0.104417
33377	10.260946	0.420879	0.303864	-0.094780	-0.509647	0.086237	-0.019895	-0.109246	0.993816	-0.939826	0.341142	0.018687	-0.341073	-0.933642	-0.109459
33378	10.689926	0.879686	-0.158980	-0.044089	-0.560756	0.113372	-0.022837	-0.114144	0.993202	-0.939654	0.341671	0.017661	-0.341364	-0.932862	-0.115058
33379	10.802365	1.028413	0.135940	-0.048276	-0.591810	0.099447	-0.025747	-0.119333	0.992520	-0.939466	0.342230	0.016776	-0.341672	-0.932008	-0.120921
33380	10.610303	0.725813	0.262256	-0.068126	-0.651176	0.063560	-0.028530	-0.125228	0.991718	-0.939219	0.342933	0.016284	-0.342132	-0.930975	-0.127400
33381	10.459244	0.529775	0.405010	-0.050019	-0.693644	0.030085	-0.031141	-0.131590	0.990815	-0.939041	0.343429	0.016097	-0.342393	-0.929914	-0.134263
33382	10.476089	0.453663	0.599134	-0.066405	-0.746580	0.010270	-0.033751	-0.138534	0.989782	-0.938812	0.344051	0.016142	-0.342772	-0.928675	-0.141670
33383	10.876305	0.496062	0.766138	-0.132584	-0.800680	0.009562	-0.036544	-0.145942	0.988618	-0.938356	0.345286	0.016286	-0.343733	-0.927081	-0.149563
33384	11.411393	0.429225	0.881760	-0.194804	-0.830449	0.026152	-0.039628	-0.153570	0.987343	-0.937617	0.347283	0.016384	-0.345404	-0.925100	-0.157752
33385	11.480332	0.013962	0.705321	-0.265441	-0.847881	0.040276	-0.042898	-0.161275	0.985977	-0.936684	0.349790	0.016461	-0.347540	-0.922842	-0.166069
33386	11.373546	-0.167317	0.029858	-0.281554	-0.885708	0.042098	-0.046358	-0.169308	0.984472	-0.935624	0.352607	0.016583	-0.349940	-0.920328	-0.174755
33387	11.077777	-0.542785	-0.497325	-0.248960	-0.898591	0.077287	-0.050189	-0.177304	0.982875	-0.934717	0.355019	0.016313	-0.351832	-0.917891	-0.183548
33388	11.095265	-0.811361	-0.950359	-0.137015	-0.913794	0.111488	-0.054430	-0.185296	0.981174	-0.934117	0.356630	0.015530	-0.352794	-0.915686	-0.192499
33389	11.119276	-0.815498	-1.281953	0.010294	-0.929823	0.150907	-0.059072	-0.193275	0.979365	-0.934071	0.356811	0.014076	-0.352168	-0.913964	-0.201610
33390	10.848012	-0.592468	-1.412748	0.121950	-0.967077	0.188254	-0.064214	-0.201439	0.977394	-0.934325	0.356220	0.012032	-0.350591	-0.912431	-0.211083
33391	10.712647	-0.195383	-1.243667	0.239391	-0.985782	0.226844	-0.069731	-0.209633	0.975291	-0.935012	0.354492	0.009345	-0.347692	-0.911257	-0.220728
33392	10.111689	0.243140	-0.906187	0.252770	-1.024238	0.265120	-0.075745	-0.218019	0.973001	-0.935637	0.352909	0.006240	-0.344741	-0.909903	-0.230718
33393	10.537172	0.843019	-1.952186	0.137711	-1.049982	0.305819	-0.082170	-0.226497	0.970540	-0.935873	0.352325	0.002988	-0.342622	-0.908057	-0.240923
33394	10.660309	1.267621	-2.341590	-0.024642	-1.000970	0.385353	-0.089191	-0.234206	0.968087	-0.935402	0.353586	-0.000638	-0.342153	-0.905607	-0.250614
33395	10.611111	1.333338	-2.961332	-0.234020	-0.925115	0.479993	-0.096804	-0.240877	0.965716	-0.934158	0.356829	-0.004638	-0.343479	-0.902580	-0.259559
33396	10.171102	1.162832	-3.375424	-0.441276	-0.825033	0.570278	-0.104960	-0.246249	0.963506	-0.932002	0.362343	-0.008922	-0.346922	-0.898927	-0.267536
33397	9.679118	1.001061	-3.962890	-0.604131	-0.770371	0.647059	-0.113627	-0.250803	0.961346	-0.929191	0.369356	-0.013466	-0.351701	-0.894804	-0.275013
33398	9.145148	0.845914	-4.478040	-0.706266	-0.705863	0.696482	-0.122576	-0.254496	0.959274	-0.925805	0.377567	-0.018130	-0.357576	-0.890323	-0.281895
33399	8.699239	0.679580	-4.828379	-0.773747	-0.611288	0.708881	-0.131287	-0.257231	0.957390	-0.922120	0.386239	-0.022676	-0.363948	-0.885806	-0.287905
33400	8.321697	0.312365	-4.785047	-0.803822	-0.411057	0.692233	-0.139153	-0.258157	0.956029	-0.918170	0.395272	-0.026906	-0.370945	-0.881541	-0.292036
33401	7.881934	-0.186853	-4.177246	-0.757548	-0.063712	0.642163	-0.145231	-0.256167	0.955660	-0.914428	0.403576	-0.030786	-0.377795	-0.878354	-0.292858
33402	7.262050	-0.792769	-3.245151	-0.623650	0.395765	0.556046	-0.148786	-0.250435	0.956632	-0.911172	0.410603	-0.034225	-0.384225	-0.876748	-0.289281
33403	6.381818	-1.543009	-1.876767	-0.485016	0.850812	0.454693	-0.149586	-0.241110	0.958900	-0.908624	0.415960	-0.037152	-0.389906	-0.876837	-0.281300
33404	6.855693	-2.908320	-2.210022	-0.355454	1.217242	0.367070	-0.148128	-0.228899	0.962114	-0.906618	0.420087	-0.039640	-0.395098	-0.878141	-0.269751
33405	7.134649	-3.874746	-2.104227	-0.077877	1.553273	0.303136	-0.144671	-0.213974	0.966067	-0.905873	0.421431	-0.042314	-0.398077	-0.881255	-0.254802
33406	7.521717	-4.628405	-2.446338	0.206951	1.739338	0.240065	-0.139875	-0.197624	0.970247	-0.906363	0.420086	-0.045100	-0.398674	-0.885705	-0.237878
33407	8.433132	-4.797946	-2.551845	0.576773	1.954599	0.172627	-0.133629	-0.179545	0.974632	-0.908426	0.415275	-0.048051	-0.396112	-0.891802	-0.218596
33408	8.466492	-4.471048	-2.171106	0.815968	2.140188	0.079247	-0.125923	-0.160056	0.979043	-0.911471	0.408254	-0.050490	-0.391617	-0.898727	-0.197295
33409	8.462459	-4.399268	-1.904510	1.010010	2.292385	-0.000995	-0.116966	-0.139385	0.983306	-0.915402	0.399128	-0.052312	-0.385173	-0.906239	-0.174277
33410	8.663088	-3.714266	-1.355053	1.077674	2.358031	-0.082738	-0.107216	-0.118251	0.987179	-0.919543	0.389369	-0.053229	-0.378082	-0.913460	-0.150484
33411	9.366488	-3.403929	-0.926428	1.062141	2.395072	-0.154186	-0.096782	-0.096898	0.990578	-0.923682	0.379458	-0.053128	-0.370734	-0.920121	-0.126227
33412	10.041926	-2.640685	-0.410089	1.008652	2.409529	-0.214778	-0.085942	-0.075470	0.993438	-0.927585	0.369957	-0.052140	-0.363594	-0.925978	-0.101800
33413	9.798562	-1.220009	0.331444	0.835209	2.401257	-0.287012	-0.074569	-0.054240	0.995740	-0.930832	0.362012	-0.049989	-0.357759	-0.930594	-0.077484
33414	9.701845	0.346268	0.856419	0.537688	2.378557	-0.326939	-0.063051	-0.033248	0.997456	-0.932973	0.356855	-0.047080	-0.354382	-0.933568	-0.053520
33415	9.877549	1.782850	1.404300	0.117319	2.360868	-0.309332	-0.051749	-0.012309	0.998584	-0.933570	0.355685	-0.043996	-0.354640	-0.934525	-0.029898
33416	10.315731	2.808915	2.086575	-0.381527	2.329939	-0.211339	-0.041451	0.008695	0.999103	-0.932307	0.359244	-0.041806	-0.359285	-0.933203	-0.006784
33417	10.301973	3.275341	2.518695	-0.843849	2.286332	-0.074668	-0.032397	0.029709	0.999033	-0.929268	0.367117	-0.041052	-0.367982	-0.929700	0.015715
33418	9.870770	3.083480	2.587920	-1.239928	2.197625	0.070566	-0.024806	0.050347	0.998424	-0.924611	0.378583	-0.042063	-0.380104	-0.924197	0.037160
33419	9.523199	2.534378	2.554459	-1.505237	2.056812	0.229681	-0.018913	0.070157	0.997357	-0.918733	0.392305	-0.045018	-0.394426	-0.917156	0.057036
33420	9.397595	1.738913	2.466569	-1.695254	1.876370	0.370315	-0.014714	0.088775	0.995943	-0.911851	0.407491	-0.049794	-0.410258	-0.908884	0.074953
33421	9.294556	0.980670	2.413135	-1.813953	1.687126	0.476774	-0.011937	0.105999	0.994295	-0.904195	0.423434	-0.055996	-0.426953	-0.899705	0.090789
33422	9.010560	0.238143	2.587366	-1.851816	1.479923	0.532085	-0.010237	0.121544	0.992533	-0.896075	0.439403	-0.063050	-0.443785	-0.890029	0.104414
33423	9.032145	-0.611924	3.138241	-1.839066	1.218708	0.573512	-0.009799	0.134881	0.990813	-0.887705	0.454950	-0.070712	-0.460309	-0.880243	0.115276
33424	9.497262	-0.622417	2.541192	-1.623171	0.892684	0.594538	-0.010830	0.145453	0.989306	-0.880056	0.468337	-0.078492	-0.474746	-0.871495	0.122935
33425	8.564212	-1.952087	2.205270	-1.419723	0.536906	0.576624	-0.013260	0.152829	0.988164	-0.873159	0.479802	-0.085922	-0.487254	-0.863964	0.127082
33426	8.394821	-2.545047	0.779868	-1.074078	0.106406	0.584384	-0.017773	0.156587	0.987504	-0.867787	0.488152	-0.093024	-0.496618	-0.858597	0.127208
33427	7.928040	-3.093733	0.197677	-0.593176	-0.251797	0.568100	-0.023908	0.157195	0.987278	-0.864710	0.492352	-0.099333	-0.501703	-0.856084	0.124157
33428	7.584481	-2.936904	-0.695995	-0.089028	-0.586791	0.521540	-0.031320	0.154752	0.987457	-0.864121	0.492303	-0.104561	-0.502309	-0.856557	0.118305
33429	7.537724	-1.765839	-1.714518	0.360481	-0.871298	0.490397	-0.039881	0.149662	0.987933	-0.865753	0.488469	-0.108947	-0.498879	-0.859651	0.110090
33430	7.335185	-0.822190	-2.457397	0.603909	-1.082342	0.485631	-0.049427	0.142701	0.988531	-0.868534	0.482556	-0.113087	-0.493160	-0.864162	0.100089
33431	7.094357	-0.279063	-3.078541	0.736804	-1.224569	0.487111	-0.059619	0.134403	0.989132	-0.871879	0.475499	-0.117162	-0.486078	-0.869388	0.088834
33432	6.917190	0.210506	-3.928986	0.766433	-1.283515	0.478620	-0.069962	0.125468	0.989628	-0.875268	0.468197	-0.121237	-0.478552	-0.874671	0.077062
33433	6.427976	-0.173286	-4.133901	0.711815	-1.269593	0.439556	-0.079803	0.116359	0.989996	-0.878324	0.461426	-0.125035	-0.471358	-0.879515	0.065377
33434	5.950058	-0.466622	-4.208890	0.762757	-1.201965	0.360994	-0.088576	0.107395	0.990263	-0.881588	0.454298	-0.128124	-0.463635	-0.884353	0.054438
33435	6.082527	-0.757212	-5.045775	0.848219	-1.074939	0.229565	-0.095499	0.098880	0.990506	-0.885279	0.446542	-0.129931	-0.455150	-0.889282	0.044892
33436	6.602410	-1.829560	-5.641828	0.974984	-0.834117	0.074583	-0.099901	0.091740	0.990759	-0.889599	0.437781	-0.130237	-0.445683	-0.894389	0.037877
33437	7.396160	-2.426666	-6.264647	1.234047	-0.537559	-0.080852	-0.101501	0.086551	0.991063	-0.895115	0.426782	-0.128946	-0.434128	-0.900203	0.034155
33438	8.418715	-2.782776	-5.174307	1.338034	-0.162390	-0.142692	-0.100912	0.084436	0.991306	-0.900987	0.414827	-0.127051	-0.421948	-0.905974	0.034215
33439	9.795035	-5.461306	2.725499	1.428483	0.155434	0.086492	-0.101003	0.086188	0.991146	-0.906841	0.401772	-0.127350	-0.409191	-0.911675	0.037579
33440	21.378405	0.736383	6.421154	2.227365	-0.543455	0.544648	-0.108141	0.083293	0.990640	-0.915152	0.380908	-0.131927	-0.388332	-0.920853	0.035034
33441	27.356775	3.897881	3.724001	1.791376	-0.763459	0.473096	-0.115340	0.077984	0.990260	-0.921432	0.363967	-0.135986	-0.371027	-0.928141	0.029878
33442	12.789028	3.877676	4.367912	0.175798	-1.256965	-0.210472	-0.118026	0.065505	0.990848	-0.922329	0.362490	-0.133829	-0.367939	-0.929683	0.017633
33443	11.251556	2.267452	-4.909224	0.274964	-1.457022	-0.320313	-0.120355	0.050776	0.991431	-0.923723	0.360118	-0.130579	-0.363663	-0.931524	0.003561
33444	9.313947	5.322089	-5.537736	0.451648	-1.206467	-0.171609	-0.123090	0.038864	0.991634	-0.925566	0.355987	-0.128840	-0.358016	-0.933682	-0.007847
33445	8.112016	4.249841	-6.671721	0.152312	-0.856444	0.108899	-0.127109	0.031239	0.991397	-0.925980	0.354526	-0.129893	-0.355533	-0.934524	-0.016136
33446	6.411353	1.688188	-5.334591	0.095210	-0.494410	0.392828	-0.132456	0.027935	0.990795	-0.925815	0.353526	-0.133736	-0.354008	-0.935008	-0.020964
33447	7.255553	-0.357728	-3.365632	-0.043239	-0.552042	0.488424	-0.138884	0.024489	0.990006	-0.925007	0.353801	-0.138518	-0.353658	-0.935000	-0.026485
33448	9.953652	-1.952073	-2.169426	-0.209491	-0.556288	0.423632	-0.144726	0.020703	0.989255	-0.923672	0.355672	-0.142575	-0.354802	-0.934382	-0.032352
33449	12.198740	-2.266481	-1.608920	-0.372029	-0.482118	0.329207	-0.149437	0.017367	0.988619	-0.921870	0.359082	-0.145655	-0.357525	-0.933144	-0.037650
33450	12.442739	-2.061327	-1.619601	-0.634572	-0.300260	0.228608	-0.152583	0.015303	0.988172	-0.919247	0.364968	-0.147592	-0.362910	-0.930894	-0.041621
33451	10.763815	-3.076981	-1.981104	-0.897511	-0.215241	0.119740	-0.154427	0.013733	0.987909	-0.915778	0.373290	-0.148340	-0.370813	-0.927613	-0.045070
33452	9.734925	-4.143804	-2.705297	-0.934710	-0.208596	0.036013	-0.155502	0.011841	0.987765	-0.912225	0.381949	-0.148189	-0.379030	-0.924108	-0.048592
33453	9.664305	-5.076106	-3.427698	-0.665826	-0.233919	0.005322	-0.156400	0.009690	0.987646	-0.909682	0.388091	-0.147861	-0.384730	-0.921570	-0.051883
33454	8.963853	-4.970052	-2.963264	-0.135337	-0.207676	-0.022053	-0.156977	0.007591	0.987573	-0.909201	0.389350	-0.147512	-0.385631	-0.921059	-0.054218
33455	8.889598	-3.820222	-2.249981	0.316602	-0.266257	-0.015182	-0.157817	0.005065	0.987455	-0.910449	0.386431	-0.147492	-0.382331	-0.922304	-0.056374
33456	9.479184	-2.201218	-1.485116	0.582681	-0.314426	0.044429	-0.159406	0.002230	0.987211	-0.912593	0.381060	-0.148218	-0.376517	-0.924548	-0.058708
33457	10.077965	-0.872528	-0.871567	0.637656	-0.341455	0.094071	-0.161496	-0.000588	0.986873	-0.914830	0.375154	-0.149483	-0.370141	-0.926962	-0.061123
33458	10.326847	0.048951	-0.740767	0.502180	-0.325371	0.102880	-0.163625	-0.003325	0.986517	-0.916512	0.370507	-0.150765	-0.365010	-0.928824	-0.063672
33459	10.241099	-0.004657	-0.990342	0.264467	-0.287911	0.093247	-0.165482	-0.005668	0.986196	-0.917329	0.368051	-0.151811	-0.362110	-0.929788	-0.066106
33460	9.937865	-0.825798	-1.263703	0.097262	-0.235015	0.077313	-0.167027	-0.007673	0.985922	-0.917556	0.367162	-0.152587	-0.360822	-0.930125	-0.068367
33461	9.620100	-1.646564	-1.236834	0.024109	-0.205231	0.046578	-0.168150	-0.009423	0.985716	-0.917573	0.366939	-0.153018	-0.360256	-0.930197	-0.070347
33462	9.640631	-1.925788	-0.895217	0.041807	-0.214507	0.027799	-0.169162	-0.011422	0.985522	-0.917682	0.366564	-0.153269	-0.359506	-0.930323	-0.072490
33463	9.651289	-1.865242	-0.157592	0.077681	-0.232741	0.013949	-0.170081	-0.013548	0.985337	-0.917945	0.365840	-0.153418	-0.358398	-0.930579	-0.074659
33464	9.452315	-1.692357	0.589386	0.078820	-0.262168	0.007257	-0.171072	-0.016064	0.985128	-0.918219	0.365118	-0.153499	-0.357222	-0.930823	-0.077212
33465	9.414897	-1.524528	1.056613	0.067708	-0.311900	0.010464	-0.172236	-0.018941	0.984874	-0.918452	0.364487	-0.153610	-0.356064	-0.931016	-0.080175
33466	9.146287	-1.196210	1.533310	0.052400	-0.363227	0.020288	-0.173698	-0.022346	0.984545	-0.918607	0.364012	-0.153803	-0.354950	-0.931126	-0.083755
33467	9.034184	-0.731680	1.949816	-0.040825	-0.434347	0.045142	-0.175609	-0.026237	0.984110	-0.918393	0.364400	-0.154167	-0.354565	-0.930873	-0.088088
33468	8.992086	-0.640314	2.180639	-0.189208	-0.492929	0.053542	-0.177830	-0.030716	0.983582	-0.917632	0.366184	-0.154470	-0.355427	-0.930036	-0.093304
33469	9.163685	-1.000385	1.919867	-0.329031	-0.546973	0.055554	-0.180244	-0.035607	0.982977	-0.916369	0.369256	-0.154655	-0.357464	-0.928645	-0.099185
33470	9.300364	-1.382431	1.553458	-0.386387	-0.594709	0.063710	-0.182934	-0.040967	0.982271	-0.914874	0.372871	-0.154831	-0.359918	-0.926978	-0.105691
33471	9.356614	-1.509009	0.944012	-0.409039	-0.662030	0.062898	-0.185856	-0.046874	0.981458	-0.913290	0.376683	-0.154957	-0.362435	-0.925155	-0.112819
33472	9.392727	-1.601469	0.157712	-0.420555	-0.708530	0.055351	-0.188909	-0.053284	0.980548	-0.911664	0.380602	-0.154955	-0.364941	-0.923203	-0.120476
33473	9.410493	-1.901573	-0.836022	-0.407662	-0.741088	0.053347	-0.192064	-0.059927	0.979551	-0.910080	0.384387	-0.154926	-0.367242	-0.921225	-0.128365
33474	9.457284	-2.119997	-1.933771	-0.360094	-0.754630	0.041202	-0.195187	-0.066780	0.978490	-0.908682	0.387730	-0.154800	-0.369052	-0.919351	-0.136362
33475	9.495894	-2.415798	-2.692980	-0.291681	-0.746835	0.022723	-0.198110	-0.073565	0.977415	-0.907569	0.390420	-0.154568	-0.370231	-0.917693	-0.144111
33476	9.532508	-2.692745	-3.181850	-0.223646	-0.737406	-0.002454	-0.200793	-0.080406	0.976328	-0.906753	0.392471	-0.154162	-0.370785	-0.916243	-0.151714
33477	9.628782	-2.717241	-3.272047	-0.133857	-0.719171	-0.029017	-0.203152	-0.087118	0.975264	-0.906325	0.393667	-0.153627	-0.370545	-0.915116	-0.158932
33478	9.707280	-2.624509	-3.179894	-0.073354	-0.701820	-0.055147	-0.205230	-0.093827	0.974206	-0.906173	0.394290	-0.152923	-0.369772	-0.914184	-0.165944
33479	9.650881	-2.356986	-2.910512	-0.022796	-0.678149	-0.086109	-0.206909	-0.100377	0.973197	-0.906277	0.394409	-0.152001	-0.368580	-0.913437	-0.172576
33480	9.736662	-2.001366	-2.579151	-0.005200	-0.659004	-0.105283	-0.208364	-0.106885	0.972194	-0.906482	0.394349	-0.150925	-0.367252	-0.912724	-0.179057
33481	9.597902	-1.856874	-2.049413	-0.012616	-0.642823	-0.123822	-0.209554	-0.113251	0.971216	-0.906705	0.394321	-0.149654	-0.366022	-0.911968	-0.185317
33482	9.587029	-1.822621	-1.343885	-0.020859	-0.650786	-0.142776	-0.210623	-0.119822	0.970196	-0.906935	0.394346	-0.148187	-0.364837	-0.911117	-0.191729
33483	9.700036	-1.628991	-0.453222	-0.012631	-0.675445	-0.165538	-0.211538	-0.126639	0.969131	-0.907249	0.394250	-0.146513	-0.363525	-0.910236	-0.198292
33484	9.833173	-1.123544	0.667647	-0.036406	-0.736316	-0.195048	-0.212425	-0.134177	0.967922	-0.907537	0.394327	-0.144509	-0.362287	-0.909122	-0.205536
33485	9.917783	-0.896927	1.505683	-0.113161	-0.800081	-0.209048	-0.213380	-0.142283	0.966553	-0.907583	0.395057	-0.142206	-0.361610	-0.907571	-0.213431
33486	9.933202	-0.981937	2.235763	-0.204269	-0.894153	-0.216644	-0.214626	-0.151308	0.964905	-0.907316	0.396589	-0.139627	-0.361544	-0.905441	-0.222402
33487	10.106097	-0.676551	2.697573	-0.282490	-0.987650	-0.237042	-0.216005	-0.161193	0.962995	-0.906815	0.398763	-0.136656	-0.361979	-0.902776	-0.232307
33488	10.008469	-0.594637	2.918410	-0.415929	-1.120493	-0.256784	-0.217712	-0.172364	0.960673	-0.905872	0.402077	-0.133152	-0.363314	-0.899235	-0.243677
33489	10.237953	-0.526437	2.982230	-0.504827	-1.253009	-0.265541	-0.219828	-0.184692	0.957896	-0.904625	0.406122	-0.129299	-0.365142	-0.894960	-0.256354
33490	10.413388	-0.237930	3.055505	-0.566484	-1.384380	-0.273803	-0.222385	-0.198197	0.954601	-0.903167	0.410645	-0.125143	-0.367199	-0.889994	-0.270326
33491	10.589796	0.320685	3.057349	-0.652423	-1.527694	-0.273927	-0.225498	-0.212895	0.950698	-0.901387	0.415858	-0.120676	-0.369664	-0.884159	-0.285676
33492	10.421546	0.705144	2.899938	-0.731200	-1.664601	-0.270135	-0.229193	-0.228704	0.946132	-0.899300	0.421690	-0.115915	-0.372464	-0.877423	-0.302322
33493	10.262553	1.101794	2.509702	-0.821417	-1.805794	-0.253790	-0.233625	-0.245573	0.940805	-0.896826	0.428251	-0.110920	-0.375662	-0.869652	-0.320286
33494	10.519601	1.860020	1.329268	-0.897105	-1.916383	-0.223839	-0.238790	-0.263124	0.934743	-0.893983	0.435429	-0.105807	-0.379174	-0.860911	-0.339205
33495	10.481388	1.950202	0.806268	-1.045355	-2.013067	-0.191443	-0.244717	-0.281211	0.927919	-0.890471	0.443841	-0.100332	-0.383634	-0.850838	-0.359026
33496	10.671666	1.534672	0.396799	-1.122996	-2.092468	-0.202832	-0.250916	-0.299803	0.920413	-0.886654	0.452727	-0.094247	-0.388440	-0.839736	-0.379418
33497	11.028868	0.953209	0.846329	-1.129731	-2.163997	-0.227131	-0.257318	-0.318902	0.912189	-0.882830	0.461429	-0.087720	-0.392936	-0.827880	-0.400270
33498	12.265068	0.521527	2.126908	-1.082685	-2.270815	-0.242097	-0.264060	-0.338673	0.903090	-0.879204	0.469509	-0.081003	-0.396575	-0.815391	-0.421742
33499	13.216773	0.984528	4.203231	-1.000520	-2.382649	-0.278839	-0.271049	-0.359284	0.892999	-0.875983	0.476611	-0.074127	-0.398981	-0.802345	-0.443911
33500	13.931978	2.492838	4.188749	-1.084404	-2.532609	-0.313156	-0.278345	-0.380892	0.881729	-0.872521	0.484052	-0.066336	-0.401535	-0.787791	-0.467070
33501	13.570883	3.548685	2.498248	-1.205120	-2.606810	-0.302189	-0.286180	-0.402714	0.869438	-0.868530	0.492245	-0.057879	-0.404668	-0.771697	-0.490640
33502	13.257882	3.991659	-0.311761	-1.370310	-2.632200	-0.215275	-0.294900	-0.423816	0.856396	-0.863600	0.501785	-0.049056	-0.408936	-0.754050	-0.513984
33503	13.357841	2.302260	-1.891785	-1.571447	-2.585211	-0.094883	-0.304689	-0.443564	0.842861	-0.857427	0.513051	-0.039956	-0.414708	-0.734867	-0.536645
33504	13.845328	-0.348817	-2.707217	-1.695008	-2.540407	-0.024737	-0.314960	-0.462051	0.829041	-0.850437	0.525199	-0.030378	-0.421375	-0.714615	-0.558362
33505	13.332874	-4.500455	-2.631618	-1.638150	-2.474803	-0.057693	-0.324932	-0.479813	0.814984	-0.843685	0.536445	-0.020550	-0.427334	-0.694267	-0.579119
33506	12.022805	-8.058121	-3.329754	-1.319782	-2.499527	-0.163102	-0.334142	-0.497742	0.800376	-0.838581	0.544658	-0.011378	-0.430268	-0.674982	-0.599390
33507	10.696439	-10.922904	-5.271213	-0.676307	-2.545544	-0.292722	-0.342565	-0.516334	0.784888	-0.836688	0.547658	-0.004900	-0.427320	-0.658385	-0.619619
33508	10.072671	-10.599637	-9.595100	0.222574	-2.634703	-0.411305	-0.350119	-0.535678	0.768418	-0.839069	0.544017	-0.003065	-0.416391	-0.645828	-0.639941
33509	10.046667	-9.846228	-11.056017	0.891088	-2.684591	-0.449986	-0.357241	-0.555336	0.750986	-0.844312	0.535824	-0.005406	-0.399394	-0.635998	-0.660296
33510	9.618047	-8.351493	-9.838381	1.548728	-2.562476	-0.528894	-0.362616	-0.574267	0.733980	-0.852246	0.523007	-0.011843	-0.377076	-0.629826	-0.679067
33511	9.338277	-6.406515	-9.876035	1.939151	-2.362920	-0.639953	-0.365703	-0.592422	0.717842	-0.861662	0.507068	-0.020498	-0.351851	-0.626034	-0.695904
33512	8.919896	-5.108615	-8.660722	2.217968	-2.079535	-0.704832	-0.366563	-0.608846	0.703519	-0.871768	0.488931	-0.031093	-0.325042	-0.624702	-0.709996
33513	8.256427	-3.239991	-7.808603	2.404346	-1.773052	-0.738974	-0.365560	-0.623488	0.691107	-0.881975	0.469320	-0.043119	-0.297466	-0.625302	-0.721465
33514	8.030339	-1.421493	-6.513932	2.375632	-1.399116	-0.706657	-0.363213	-0.635406	0.681422	-0.891324	0.449953	-0.055527	-0.271325	-0.627536	-0.729782
33515	8.000195	0.752728	-6.480145	2.223968	-1.044217	-0.628173	-0.360255	-0.644762	0.674164	-0.899385	0.431910	-0.067534	-0.247634	-0.630663	-0.735487
33516	6.366269	1.526001	-8.213545	1.534201	-0.569978	-0.702422	-0.355220	-0.651254	0.670587	-0.905593	0.417619	-0.074128	-0.231774	-0.633611	-0.738118
33517	4.532881	1.165572	-8.162403	0.761638	-0.273679	-0.647909	-0.349920	-0.655681	0.669057	-0.909630	0.408522	-0.075385	-0.223896	-0.634974	-0.739378
33518	6.334681	0.569178	-7.142670	0.401530	0.105202	-0.428336	-0.345720	-0.656661	0.670280	-0.912030	0.403116	-0.075485	-0.220632	-0.637412	-0.738260
33519	7.511446	0.481999	-4.872956	0.130469	0.693719	-0.325781	-0.341168	-0.653544	0.675636	-0.913454	0.400116	-0.074224	-0.221824	-0.642485	-0.733490
33520	7.497308	0.106634	-4.525220	-0.257321	1.262484	-0.342897	-0.335123	-0.646666	0.685212	-0.914052	0.399509	-0.070010	-0.228475	-0.649781	-0.724971
33521	6.661771	-0.279468	-4.722354	-0.578245	1.754551	-0.358100	-0.327701	-0.636635	0.698075	-0.913902	0.400963	-0.063344	-0.239575	-0.658730	-0.713217
33522	6.026179	-1.070252	-4.980605	-0.802891	2.120273	-0.356174	-0.319143	-0.623894	0.713375	-0.913090	0.404011	-0.055156	-0.253800	-0.668978	-0.698608
33523	5.811144	-1.827251	-5.342887	-0.901443	2.412336	-0.306534	-0.309989	-0.608879	0.730187	-0.911710	0.408173	-0.046690	-0.269614	-0.680192	-0.681651
33524	5.839742	-1.962243	-5.165887	-0.952028	2.646116	-0.209616	-0.300651	-0.591476	0.748174	-0.909718	0.413415	-0.038738	-0.286393	-0.692275	-0.662370
33525	6.627151	-2.208759	-4.911234	-0.978773	2.835193	-0.086822	-0.291453	-0.572048	0.766691	-0.907102	0.419718	-0.031667	-0.303679	-0.704696	-0.641235
33526	7.591592	-2.362703	-4.886190	-0.928647	3.102228	-0.011246	-0.281592	-0.549911	0.786323	-0.904247	0.426233	-0.025738	-0.321004	-0.718278	-0.617279
33527	7.865816	-2.333834	-4.745920	-0.849426	3.365028	-0.008955	-0.270379	-0.525549	0.806656	-0.901486	0.432322	-0.020500	-0.337961	-0.732732	-0.590666
33528	8.017977	-2.125623	-4.883004	-0.825585	3.475689	-0.022915	-0.258069	-0.499808	0.826796	-0.898700	0.438288	-0.015562	-0.354597	-0.747058	-0.562286
33529	8.070740	-1.995302	-5.168878	-0.801490	3.542612	0.024225	-0.245395	-0.473007	0.846195	-0.895744	0.444425	-0.011339	-0.370707	-0.760757	-0.532752
33530	8.187678	-1.890350	-5.444369	-0.748852	3.559232	0.106738	-0.232820	-0.445087	0.864692	-0.892666	0.450640	-0.008392	-0.385930	-0.773836	-0.502232
33531	8.329761	-1.914884	-5.364503	-0.627692	3.612576	0.238419	-0.220709	-0.415834	0.882253	-0.889671	0.456543	-0.007382	-0.399716	-0.786544	-0.470718
33532	8.269829	-1.556586	-5.176567	-0.471118	3.690770	0.367444	-0.208937	-0.384745	0.899064	-0.886979	0.461731	-0.008536	-0.411841	-0.799235	-0.437733
33533	7.868898	-1.129789	-5.282601	-0.336179	3.797496	0.445821	-0.196999	-0.352103	0.914995	-0.884682	0.466063	-0.011126	-0.422528	-0.811671	-0.403313
33534	7.615538	-1.228977	-5.556628	-0.178131	3.891304	0.505783	-0.184798	-0.317773	0.929984	-0.882964	0.469197	-0.015131	-0.431538	-0.823938	-0.367289
33535	7.541126	-1.449204	-6.068319	0.012005	3.976382	0.558119	-0.172380	-0.282161	0.943753	-0.882028	0.470757	-0.020360	-0.438533	-0.835927	-0.330023
33536	7.729033	-1.658898	-6.206305	0.214732	4.033955	0.606961	-0.159898	-0.245209	0.956193	-0.881974	0.470535	-0.026821	-0.443345	-0.847626	-0.291505
33537	7.916553	-1.486621	-6.017007	0.397679	4.067431	0.637818	-0.147392	-0.207524	0.967062	-0.882771	0.468573	-0.033993	-0.446085	-0.858704	-0.252260
33538	8.035757	-1.219829	-5.515597	0.481316	4.070893	0.649863	-0.134904	-0.169196	0.976306	-0.884010	0.465626	-0.041457	-0.447579	-0.868657	-0.212385
33539	8.364975	-0.935428	-5.102206	0.501490	4.072253	0.622669	-0.122125	-0.130773	0.983862	-0.885463	0.462173	-0.048480	-0.448375	-0.877094	-0.172237
33540	8.944654	-0.260785	-4.164581	0.383845	4.070668	0.596863	-0.109103	-0.092065	0.989758	-0.886501	0.459448	-0.054984	-0.449680	-0.883421	-0.131742
33541	9.305620	0.082106	-3.245805	0.117500	4.082937	0.570483	-0.095690	-0.053315	0.993982	-0.886453	0.458817	-0.060729	-0.452818	-0.886930	-0.091166
33542	9.557736	-0.028298	-2.753943	-0.235904	4.045608	0.546989	-0.082071	-0.014795	0.996517	-0.884895	0.461087	-0.066032	-0.458504	-0.887232	-0.050934
33543	9.695012	-0.488221	-2.765231	-0.576205	3.962076	0.540548	-0.068474	0.022797	0.997392	-0.881827	0.466169	-0.071195	-0.466576	-0.884402	-0.011818
33544	10.057528	-1.072406	-2.671712	-0.835208	3.822254	0.553858	-0.055300	0.059205	0.996713	-0.877547	0.473299	-0.076802	-0.476291	-0.878910	0.025782
33545	10.178172	-1.283408	-2.103102	-0.933167	3.647596	0.594793	-0.042906	0.093957	0.994651	-0.872767	0.481014	-0.083086	-0.486248	-0.871663	0.061364
33546	10.519641	-1.631361	-0.178326	-1.036617	3.385889	0.691883	-0.032266	0.126774	0.991407	-0.867412	0.489238	-0.090791	-0.496544	-0.862887	0.094180
33547	10.759347	-0.480782	0.993434	-0.613097	2.877806	0.825614	-0.024993	0.155545	0.987513	-0.864115	0.493346	-0.099578	-0.502674	-0.855813	0.122079
33548	8.988314	-1.197013	1.784398	-0.606007	2.264355	0.784191	-0.020289	0.178821	0.983672	-0.860872	0.497198	-0.108141	-0.508418	-0.849010	0.143854
33549	8.030210	0.470482	1.370978	-0.344666	1.382559	0.780035	-0.019903	0.194395	0.980721	-0.858959	0.498668	-0.116276	-0.511658	-0.844714	0.157052
33550	7.478962	-0.056409	2.429725	-0.113309	0.757422	0.790554	-0.022789	0.204812	0.978536	-0.858208	0.498042	-0.124229	-0.512796	-0.842619	0.164421
33551	7.844039	-0.080948	1.508948	0.111789	0.044085	0.762299	-0.029064	0.208952	0.977494	-0.858585	0.495531	-0.131455	-0.511846	-0.843083	0.165001
33552	7.623911	0.785779	-1.668383	0.449142	-0.476254	0.723465	-0.037685	0.208581	0.977279	-0.860633	0.490222	-0.137816	-0.507829	-0.846272	0.161038
33553	6.685662	-0.092006	-2.400308	0.788620	-0.955085	0.732488	-0.048776	0.204014	0.977752	-0.864296	0.482022	-0.143693	-0.500613	-0.852076	0.152817
33554	6.400772	0.174128	-4.035097	1.109951	-1.304611	0.752406	-0.061737	0.196506	0.978557	-0.869379	0.471008	-0.149434	-0.490273	-0.859963	0.141760
33555	5.609697	0.023628	-4.768589	1.241747	-1.489674	0.743617	-0.075395	0.187072	0.979449	-0.874888	0.458857	-0.154987	-0.478420	-0.868593	0.129071
33556	4.888549	-0.466818	-6.227700	1.290515	-1.532994	0.676246	-0.088549	0.176810	0.980254	-0.880427	0.446357	-0.160041	-0.465840	-0.877214	0.116144
33557	4.519063	-0.535502	-8.144313	1.334932	-1.540110	0.588947	-0.100780	0.165810	0.980995	-0.886006	0.433587	-0.164307	-0.452590	-0.885726	0.103211
33558	4.506144	-0.964916	-10.365168	1.368087	-1.503225	0.445391	-0.111430	0.154372	0.981709	-0.891630	0.420697	-0.167360	-0.438838	-0.893970	0.090765
33559	3.822786	-1.913277	-12.656339	1.362020	-1.284934	0.228368	-0.118980	0.143769	0.982433	-0.897258	0.408134	-0.168391	-0.425173	-0.901531	0.080438
33560	3.429099	-3.045036	-14.350745	1.409088	-0.798502	0.000318	-0.122333	0.136548	0.983051	-0.903149	0.395384	-0.167310	-0.411529	-0.908309	0.074955
33561	3.398631	-3.869106	-12.819410	1.535409	-0.242721	-0.200417	-0.121454	0.133544	0.983572	-0.909610	0.381665	-0.164142	-0.397315	-0.914603	0.075118
33562	4.688760	-7.119950	-5.241375	1.482623	-0.081889	-0.201900	-0.119967	0.132004	0.983963	-0.915636	0.368338	-0.161051	-0.383691	-0.920273	0.076679
33563	15.178833	-0.466005	9.919657	3.919808	-1.155739	0.461831	-0.128402	0.122884	0.984080	-0.929374	0.331378	-0.162643	-0.346088	-0.935462	0.071656
33564	57.920572	4.469213	4.555772	1.832938	-2.734597	0.663447	-0.143805	0.099295	0.984612	-0.934617	0.313416	-0.168110	-0.325286	-0.944410	0.047732
33565	8.184671	5.790744	8.215901	2.525827	-1.171223	-1.001214	-0.138017	0.085151	0.986763	-0.943931	0.290376	-0.157083	-0.299908	-0.953116	0.040300
33566	3.064620	6.930207	-7.404997	1.437247	-3.850731	-0.897274	-0.140707	0.045753	0.988993	-0.949357	0.277218	-0.147893	-0.280934	-0.959717	0.004429
33567	10.066112	6.134909	-9.655866	2.523482	-3.779618	-0.384079	-0.147064	0.008301	0.989092	-0.956635	0.253002	-0.144361	-0.251440	-0.967430	-0.029266
33568	11.671929	12.168288	-13.039493	2.141539	-2.811781	0.320283	-0.156842	-0.018246	0.987455	-0.961271	0.232247	-0.148391	-0.226626	-0.972486	-0.053965
33569	11.975452	12.301738	-10.703973	0.303641	-0.754128	0.992526	-0.168026	-0.023296	0.985507	-0.960348	0.229496	-0.158312	-0.222482	-0.973031	-0.060933
33570	5.650175	4.346093	-0.412195	-0.701202	0.209107	1.141360	-0.178443	-0.018697	0.983773	-0.956796	0.236563	-0.169054	-0.229564	-0.971436	-0.060102
33571	4.804855	-0.503880	-2.862119	-1.863285	-1.546500	0.751411	-0.189232	-0.031842	0.981416	-0.951007	0.254805	-0.175102	-0.244494	-0.966468	-0.078500
33572	9.968892	-5.254368	-6.030322	-2.135296	-0.984306	0.456024	-0.195994	-0.040217	0.979780	-0.944724	0.275554	-0.177670	-0.262837	-0.960444	-0.092001
33573	10.302947	-5.094264	-3.109904	-2.491318	-0.808156	0.154850	-0.199619	-0.047512	0.978721	-0.937607	0.299454	-0.176696	-0.284686	-0.952927	-0.104324
33574	12.207325	-5.827199	-4.872360	-2.825233	-0.729363	-0.060348	-0.201178	-0.054728	0.978025	-0.929342	0.326229	-0.172909	-0.309597	-0.943705	-0.116491
33575	13.149974	-7.589038	-6.500449	-2.722116	-0.410225	-0.172143	-0.200861	-0.059174	0.977831	-0.920939	0.351688	-0.167892	-0.333956	-0.934245	-0.125136
33576	9.931061	-9.101865	-7.836524	-2.176556	-0.179412	-0.398940	-0.197791	-0.062406	0.978256	-0.914259	0.371705	-0.161139	-0.353567	-0.926251	-0.130575
33577	8.152954	-8.412683	-8.576706	-1.322780	-0.344807	-0.496355	-0.194457	-0.067477	0.978587	-0.910490	0.383596	-0.154475	-0.364958	-0.921033	-0.136030
33578	9.176024	-6.816717	-8.295551	-0.366541	-0.490401	-0.378359	-0.192811	-0.073579	0.978473	-0.909884	0.386713	-0.150216	-0.367336	-0.919260	-0.141511
33579	10.146834	-4.357365	-6.573498	0.324512	-0.559422	-0.243519	-0.192593	-0.079674	0.978039	-0.911548	0.383537	-0.148256	-0.363302	-0.920082	-0.146493
33580	10.822164	-2.181647	-4.729697	0.628189	-0.571178	-0.185976	-0.192972	-0.085786	0.977447	-0.914168	0.377609	-0.147339	-0.356454	-0.921983	-0.151290
33581	11.067737	-0.714169	-3.539158	0.641199	-0.513350	-0.177290	-0.193117	-0.091200	0.976928	-0.916783	0.371528	-0.146545	-0.349592	-0.923931	-0.155359
33582	10.816706	0.193064	-2.772953	0.484017	-0.401391	-0.164895	-0.193019	-0.095668	0.976520	-0.918781	0.366911	-0.145661	-0.344361	-0.925323	-0.158719
33583	10.196586	0.495981	-2.156619	0.275822	-0.278919	-0.126322	-0.192770	-0.098724	0.976265	-0.919980	0.364229	-0.144824	-0.341286	-0.926062	-0.161036
33584	9.554152	0.285084	-0.988761	0.085625	-0.206621	-0.072938	-0.192820	-0.101054	0.976017	-0.920414	0.363375	-0.144212	-0.340087	-0.926146	-0.163077
33585	9.538858	-0.277782	-0.005150	-0.057624	-0.233700	-0.037198	-0.193228	-0.103365	0.975694	-0.920299	0.363864	-0.143710	-0.340166	-0.925699	-0.165435
33586	10.240689	-0.977671	0.648221	-0.089099	-0.298963	-0.028820	-0.193991	-0.106384	0.975218	-0.920054	0.364670	-0.143237	-0.340395	-0.925040	-0.168622
33587	10.215395	-1.632898	0.829488	-0.005655	-0.374557	-0.074173	-0.194538	-0.110131	0.974693	-0.920188	0.364635	-0.142459	-0.339718	-0.924615	-0.172276
33588	9.962351	-1.635177	1.048428	0.079731	-0.455815	-0.119851	-0.194987	-0.114921	0.974050	-0.920695	0.363773	-0.141387	-0.338085	-0.924371	-0.176738
33589	9.734823	-0.949304	1.021375	0.058793	-0.528954	-0.142406	-0.195415	-0.120338	0.973310	-0.921181	0.363055	-0.140061	-0.336510	-0.923964	-0.181800
33590	9.562946	-0.509457	0.805090	-0.079341	-0.556122	-0.155448	-0.195856	-0.126168	0.972482	-0.921222	0.363603	-0.138359	-0.336141	-0.922970	-0.187443
33591	9.356971	-0.460308	0.660367	-0.279407	-0.611156	-0.162114	-0.196378	-0.132407	0.971547	-0.920608	0.365962	-0.136206	-0.337515	-0.921162	-0.193762
33592	9.043413	-0.870103	0.448696	-0.418160	-0.655173	-0.176581	-0.196970	-0.139206	0.970476	-0.919543	0.369575	-0.133620	-0.340063	-0.918714	-0.200801
33593	8.925914	-1.381292	-0.028533	-0.464744	-0.710985	-0.198860	-0.197526	-0.146479	0.969292	-0.918358	0.373546	-0.130697	-0.342931	-0.915974	-0.208305
33594	8.913134	-1.697079	-0.503914	-0.418785	-0.760776	-0.205661	-0.198251	-0.154324	0.967926	-0.917329	0.377070	-0.127768	-0.345258	-0.913237	-0.216321
33595	8.815896	-2.075430	-1.120858	-0.338464	-0.809459	-0.227931	-0.198917	-0.162581	0.966436	-0.916621	0.379786	-0.124773	-0.346754	-0.910675	-0.224571
33596	8.738170	-2.257744	-1.640559	-0.234563	-0.852612	-0.243125	-0.199642	-0.171371	0.964767	-0.916297	0.381515	-0.121844	-0.347193	-0.908338	-0.233194
33597	8.971163	-2.280360	-2.098881	-0.158981	-0.880895	-0.262168	-0.200253	-0.180378	0.962997	-0.916279	0.382487	-0.118895	-0.346887	-0.906183	-0.241870
33598	9.219084	-2.278803	-2.466154	-0.107334	-0.898421	-0.283159	-0.200768	-0.189700	0.961096	-0.916481	0.382934	-0.115865	-0.346057	-0.904088	-0.250737
33599	9.571358	-2.156656	-2.809350	-0.085738	-0.899324	-0.293148	-0.201144	-0.198957	0.959144	-0.916784	0.383128	-0.112788	-0.345035	-0.902014	-0.259464
33600	9.665087	-2.084442	-2.746577	-0.082350	-0.888086	-0.302002	-0.201434	-0.208220	0.957115	-0.917113	0.383253	-0.109639	-0.343988	-0.899867	-0.268162
33601	9.483221	-1.827617	-2.003483	-0.062778	-0.885040	-0.319510	-0.201498	-0.217412	0.955055	-0.917551	0.383126	-0.106370	-0.342780	-0.897745	-0.276686
33602	9.299293	-1.325814	-0.463254	-0.064680	-0.923826	-0.330719	-0.201625	-0.227063	0.952780	-0.918002	0.382967	-0.102998	-0.341496	-0.895421	-0.285660
33603	9.169554	-0.933513	1.367253	-0.115654	-1.009022	-0.339496	-0.201905	-0.237398	0.950198	-0.918303	0.383200	-0.099388	-0.340522	-0.892637	-0.295373
33604	9.362767	-0.701461	3.307093	-0.185873	-1.138608	-0.351592	-0.202547	-0.248981	0.947092	-0.918387	0.383995	-0.095460	-0.339911	-0.889132	-0.306438
33605	9.971677	0.002529	5.341379	-0.289552	-1.307532	-0.368009	-0.203568	-0.262007	0.943352	-0.918160	0.385609	-0.091032	-0.339914	-0.884680	-0.319062
33606	10.928194	0.658866	6.792999	-0.517276	-1.518544	-0.381512	-0.205228	-0.276944	0.938714	-0.917185	0.389132	-0.085718	-0.341545	-0.878566	-0.333870
33607	11.238156	1.362217	7.870767	-0.730347	-1.725317	-0.405834	-0.207385	-0.293638	0.933149	-0.915527	0.394348	-0.079378	-0.344677	-0.870785	-0.350615
33608	11.394300	1.878493	8.187832	-0.960604	-1.969814	-0.414001	-0.210405	-0.312385	0.926361	-0.913067	0.401397	-0.072028	-0.349339	-0.860985	-0.369685
33609	11.691443	2.677293	8.307266	-1.097158	-2.221426	-0.405988	-0.214480	-0.333043	0.918194	-0.910079	0.409454	-0.064069	-0.354620	-0.849370	-0.390915
33610	12.389923	3.145175	9.048734	-1.203718	-2.531853	-0.386794	-0.219962	-0.355991	0.908233	-0.906628	0.418245	-0.055638	-0.360058	-0.835668	-0.414750
33611	13.720531	3.934856	10.024156	-1.230126	-2.837449	-0.386253	-0.226708	-0.381130	0.896294	-0.903043	0.426987	-0.046848	-0.364851	-0.820013	-0.440978
33612	15.469919	5.536458	8.155713	-1.429382	-3.069092	-0.409709	-0.234227	-0.407772	0.882530	-0.898743	0.436942	-0.036641	-0.370673	-0.801750	-0.468826
33613	16.902297	5.891868	4.444590	-1.508939	-3.189021	-0.411774	-0.242408	-0.434859	0.867258	-0.894098	0.447133	-0.025710	-0.376599	-0.781646	-0.497195
33614	16.634716	6.613249	2.069350	-1.337871	-3.167932	-0.392887	-0.250794	-0.461038	0.851203	-0.890014	0.455673	-0.015422	-0.380760	-0.761450	-0.524610
33615	15.764764	5.585250	0.215924	-1.317488	-3.197475	-0.290728	-0.260401	-0.486403	0.834029	-0.885729	0.464165	-0.005844	-0.384285	-0.740245	-0.551690
33616	15.010074	1.396254	-1.328770	-1.306611	-3.207827	-0.177865	-0.271078	-0.510580	0.815981	-0.881173	0.472783	0.003097	-0.387363	-0.718181	-0.578070
33617	14.679318	-3.850894	-1.985855	-1.238874	-3.160779	-0.124645	-0.282218	-0.533541	0.797300	-0.876719	0.480866	0.011458	-0.389508	-0.695774	-0.603475
33618	14.376845	-8.049982	-4.526062	-1.136113	-3.212415	-0.154245	-0.293265	-0.556209	0.777578	-0.872745	0.487777	0.019754	-0.390272	-0.672834	-0.628477
33619	15.066552	-11.430695	-8.406578	-0.604640	-3.073781	-0.172529	-0.303655	-0.577442	0.757861	-0.870926	0.490778	0.024984	-0.386369	-0.652455	-0.651937
33620	13.336818	-12.592466	-10.881861	0.143686	-2.985789	-0.234058	-0.312889	-0.597742	0.738109	-0.872208	0.488453	0.025830	-0.375971	-0.635702	-0.674187
33621	11.739803	-11.910760	-12.707733	0.935090	-2.938901	-0.421971	-0.319949	-0.618293	0.717877	-0.876993	0.479975	0.022528	-0.358492	-0.622365	-0.695806
33622	11.671233	-11.022697	-13.002142	1.879715	-2.717571	-0.586050	-0.324105	-0.637779	0.698708	-0.885395	0.464645	0.013424	-0.333213	-0.614282	-0.715281
33623	10.119357	-8.370595	-11.316787	2.752451	-2.343667	-0.797326	-0.324390	-0.655781	0.681705	-0.896727	0.442583	-0.000956	-0.301084	-0.611614	-0.731626
33624	8.812438	-5.879439	-10.007429	3.139338	-1.944181	-0.969209	-0.321100	-0.671755	0.667563	-0.908780	0.416904	-0.017605	-0.266483	-0.612321	-0.744345
33625	7.669696	-2.806349	-8.505210	3.343241	-1.397194	-1.087748	-0.314585	-0.684738	0.657397	-0.920578	0.388952	-0.035397	-0.231458	-0.616320	-0.752713
33626	6.663513	0.523343	-9.906458	2.943216	-0.939690	-1.203264	-0.305430	-0.694980	0.650934	-0.930692	0.362402	-0.049773	-0.201309	-0.621022	-0.757500
33627	4.577533	0.660497	-9.457319	2.025932	-0.603298	-1.170234	-0.295603	-0.702867	0.646990	-0.938092	0.341577	-0.057526	-0.180564	-0.623941	-0.760325
33628	4.770681	0.223138	-8.433798	1.444615	-0.343649	-0.910220	-0.287585	-0.707967	0.645041	-0.943263	0.326083	-0.062650	-0.165983	-0.626460	-0.761576
33629	5.788562	0.449797	-6.308211	1.031695	0.071252	-0.742056	-0.280412	-0.709907	0.646066	-0.947047	0.314306	-0.065683	-0.156434	-0.630273	-0.760450
33630	6.733867	0.422642	-5.497254	0.603351	0.568344	-0.763819	-0.272237	-0.708587	0.650993	-0.950102	0.305026	-0.065309	-0.152292	-0.636290	-0.756269
33631	6.687553	0.345244	-5.593378	0.268628	1.069975	-0.764806	-0.263285	-0.704049	0.659542	-0.952572	0.297869	-0.062291	-0.152601	-0.644661	-0.749082
33632	5.795300	-0.177520	-6.225889	0.019203	1.434157	-0.677610	-0.254555	-0.696642	0.670740	-0.954369	0.292958	-0.057925	-0.156146	-0.654879	-0.739427
33633	5.108547	-0.637932	-6.404226	-0.175195	1.688201	-0.514461	-0.246911	-0.687002	0.683420	-0.955392	0.290523	-0.053126	-0.162051	-0.666052	-0.728090
33634	5.180817	-0.932862	-6.824138	-0.275755	1.947416	-0.297362	-0.240786	-0.674679	0.697732	-0.955672	0.290314	-0.049079	-0.169449	-0.678621	-0.714675
33635	5.195464	-0.636973	-6.411830	-0.318518	2.260470	-0.143281	-0.235446	-0.659605	0.713784	-0.955472	0.291510	-0.045785	-0.177875	-0.692780	-0.698868
33636	5.445652	-0.351467	-6.164491	-0.474900	2.557879	-0.102982	-0.229723	-0.641893	0.731574	-0.954853	0.294130	-0.041761	-0.188372	-0.708139	-0.680482
33637	5.433109	-0.079516	-5.979245	-0.641074	2.827790	-0.127435	-0.222957	-0.622028	0.750581	-0.953904	0.297886	-0.036487	-0.200891	-0.724117	-0.659771
33638	5.402615	-0.338727	-5.978823	-0.858581	3.017116	-0.126746	-0.215408	-0.600221	0.770282	-0.952404	0.303365	-0.029950	-0.215700	-0.740070	-0.637000
33639	5.602196	-1.059599	-5.751497	-1.054936	3.118013	-0.060812	-0.207799	-0.577105	0.789791	-0.950179	0.310866	-0.022847	-0.232334	-0.755190	-0.612951
33640	5.756792	-2.022753	-5.910263	-1.167791	3.178950	0.033835	-0.200400	-0.552661	0.808953	-0.947304	0.319932	-0.016102	-0.249911	-0.769551	-0.587652
33641	5.987668	-2.437476	-6.228139	-1.127594	3.273667	0.138308	-0.193201	-0.526798	0.827742	-0.944126	0.329409	-0.010721	-0.267018	-0.783564	-0.561006
33642	6.308320	-2.606405	-6.494762	-1.012276	3.387370	0.244797	-0.186144	-0.499096	0.846318	-0.940887	0.338644	-0.007236	-0.282989	-0.797636	-0.532629
33643	6.486291	-2.865256	-6.950120	-0.810639	3.498005	0.340550	-0.179153	-0.469788	0.864409	-0.937923	0.346794	-0.005914	-0.296994	-0.811808	-0.502754
33644	6.428790	-3.294299	-7.050853	-0.522811	3.609545	0.405386	-0.171988	-0.438699	0.882022	-0.935637	0.352897	-0.006919	-0.308228	-0.826442	-0.471157
33645	6.124254	-3.393189	-7.239314	-0.168691	3.695017	0.428294	-0.164414	-0.406374	0.898793	-0.934398	0.356093	-0.009925	-0.316020	-0.841462	-0.438262
33646	5.798230	-3.087935	-7.100801	0.145914	3.728232	0.441426	-0.156641	-0.373046	0.914494	-0.934161	0.356555	-0.014562	-0.320635	-0.856566	-0.404336
33647	5.737085	-2.486053	-7.061006	0.369198	3.749989	0.476213	-0.148979	-0.338963	0.928929	-0.934629	0.355042	-0.020339	-0.322915	-0.871234	-0.369699
33648	5.586502	-1.833250	-6.868233	0.472527	3.781728	0.499389	-0.141400	-0.303890	0.942155	-0.935438	0.352480	-0.026700	-0.323977	-0.885104	-0.334111
33649	5.807555	-1.065525	-6.557685	0.469714	3.797230	0.515114	-0.133857	-0.268241	0.954007	-0.936260	0.349751	-0.033026	-0.324806	-0.897620	-0.297960
33650	6.190527	-0.188797	-6.164707	0.346584	3.821467	0.545613	-0.126513	-0.231742	0.964516	-0.936684	0.347970	-0.039256	-0.326525	-0.908412	-0.261091
33651	6.677191	0.259092	-5.680234	0.156748	3.864343	0.586275	-0.119276	-0.194435	0.973637	-0.936484	0.347776	-0.045274	-0.329805	-0.917195	-0.223566
33652	7.019016	0.661088	-5.315172	-0.100334	3.932224	0.612803	-0.111931	-0.156025	0.981391	-0.935445	0.349761	-0.051084	-0.335282	-0.923755	-0.185102
33653	7.102726	0.358036	-5.285114	-0.398439	3.993548	0.637759	-0.104294	-0.116814	0.987662	-0.933409	0.354312	-0.056659	-0.343322	-0.927802	-0.145988
33654	7.232533	0.049070	-5.602644	-0.653127	4.012928	0.672615	-0.096579	-0.077080	0.992336	-0.930460	0.361021	-0.062514	-0.353435	-0.929367	-0.106587
33655	7.491940	-0.607018	-6.079580	-0.863997	3.997698	0.753510	-0.089166	-0.037198	0.995322	-0.926660	0.369474	-0.069206	-0.365171	-0.928496	-0.067414
33656	7.290071	-1.010876	-5.829553	-0.900234	4.010143	0.824805	-0.081914	0.003115	0.996635	-0.922615	0.377956	-0.077012	-0.376924	-0.925818	-0.028086
33657	6.861538	-0.920680	-5.091123	-0.927579	3.863021	0.885813	-0.075238	0.042172	0.996273	-0.918373	0.386323	-0.085708	-0.388498	-0.921399	0.009663
33658	6.967124	-0.323383	-4.400617	-0.898906	3.623038	0.966823	-0.069834	0.079256	0.994405	-0.914129	0.393992	-0.095598	-0.399364	-0.915690	0.044936
33659	7.229324	0.583078	-3.411984	-0.930771	3.341153	1.031502	-0.065672	0.113828	0.991328	-0.909666	0.401490	-0.106363	-0.410115	-0.908762	0.077179
33660	7.778324	0.963382	-2.651566	-1.087246	3.000204	1.085267	-0.063047	0.145388	0.987364	-0.904441	0.409921	-0.118112	-0.421913	-0.900459	0.105651
33661	8.434168	0.508851	-1.247229	-1.283389	2.614275	1.130904	-0.061993	0.173483	0.982884	-0.898238	0.419620	-0.130719	-0.435115	-0.890967	0.129815
33662	8.657403	-0.272881	-1.487518	-1.336623	2.141744	1.095488	-0.062346	0.197117	0.978396	-0.891648	0.429440	-0.143337	-0.448416	-0.881321	0.148985
33663	7.555273	-1.758443	-0.483128	-1.175501	1.686525	0.989215	-0.063434	0.216183	0.974290	-0.885691	0.437713	-0.154788	-0.459922	-0.872739	0.163705
33664	6.935198	-2.324177	-0.054018	-0.837255	1.023106	0.878798	-0.066463	0.228947	0.971167	-0.881230	0.443046	-0.164754	-0.467992	-0.866772	0.172309
33665	7.213337	-3.433399	1.795037	-0.411735	0.381231	0.838639	-0.072008	0.235953	0.969093	-0.878719	0.444669	-0.173560	-0.471877	-0.864058	0.175316
33666	7.166137	-2.481962	-0.594790	0.204364	-0.343102	0.657491	-0.079420	0.235895	0.968528	-0.879177	0.441357	-0.179590	-0.469831	-0.865770	0.172341
33667	5.633776	-2.094739	-2.296729	0.787725	-0.955887	0.423858	-0.087564	0.229430	0.969378	-0.882498	0.433538	-0.182325	-0.462093	-0.871440	0.164509
33668	5.438136	-2.198178	-4.730314	1.415765	-1.435593	0.279514	-0.096596	0.218039	0.971148	-0.888678	0.420516	-0.182806	-0.448242	-0.880696	0.153146
33669	5.228957	-2.377182	-7.423834	2.106062	-1.848193	0.146487	-0.105955	0.202233	0.973589	-0.897758	0.401535	-0.181109	-0.427556	-0.893237	0.139011
33670	5.816887	-2.973361	-9.937080	2.824265	-2.128821	0.044837	-0.115201	0.183206	0.976301	-0.909383	0.376015	-0.177865	-0.399689	-0.908322	0.123287
33671	8.169599	-4.559813	-7.572100	3.713897	-2.080103	0.067921	-0.123714	0.164365	0.978611	-0.923476	0.341849	-0.174160	-0.363163	-0.925269	0.109496
33672	14.794990	-3.223412	4.990002	5.367155	-1.682427	0.066695	-0.130060	0.148797	0.980277	-0.941477	0.291554	-0.169167	-0.310976	-0.944910	0.102170
33673	33.355582	3.603590	12.176357	5.848776	-1.985514	0.102691	-0.136588	0.130113	0.982046	-0.957838	0.235600	-0.164437	-0.252765	-0.963101	0.092447
33674	24.173651	10.153742	-6.893630	4.845253	-2.464170	0.050627	-0.142721	0.106296	0.984039	-0.968797	0.188551	-0.160877	-0.202642	-0.976294	0.076069
33675	9.695937	15.136670	0.511762	2.993877	-3.258003	0.384590	-0.152462	0.075016	0.985458	-0.973797	0.158848	-0.162750	-0.168747	-0.984449	0.048832
33676	7.567499	12.250235	-6.061668	1.383422	-3.348221	0.207669	-0.159813	0.042255	0.986242	-0.975679	0.145085	-0.164318	-0.150032	-0.988516	0.018041
33677	8.870558	13.822465	-9.766852	0.578914	-3.046699	0.632178	-0.170344	0.013008	0.985299	-0.975481	0.139181	-0.170484	-0.139353	-0.990181	-0.011020
33678	9.242917	8.420721	-12.959290	-1.479805	-2.194176	0.977219	-0.182982	-0.007338	0.983089	-0.971624	0.153802	-0.179700	-0.149882	-0.988075	-0.035272
33679	9.417834	2.783849	-8.406178	-1.894922	-0.680090	0.970096	-0.193417	-0.012466	0.981037	-0.966805	0.172589	-0.188418	-0.166968	-0.984915	-0.045434
33680	6.332620	-4.797675	-2.894527	-2.440009	-0.859871	0.961053	-0.204143	-0.019248	0.978752	-0.960568	0.196735	-0.196481	-0.188772	-0.980268	-0.058651
33681	8.350314	-6.621363	-6.805515	-2.542452	-1.388800	0.680103	-0.213380	-0.031405	0.976464	-0.954086	0.221756	-0.201357	-0.210213	-0.974596	-0.077281
33682	9.582561	-8.332984	-6.040254	-2.374953	-0.835664	0.350144	-0.218503	-0.038827	0.975064	-0.948102	0.244976	-0.202706	-0.230996	-0.968752	-0.090340
33683	11.023974	-8.462134	-5.571777	-2.252950	-0.916098	0.067436	-0.221300	-0.047508	0.974048	-0.942542	0.266758	-0.201132	-0.250280	-0.962592	-0.103811
33684	12.100129	-8.499459	-6.331330	-1.903950	-0.690513	-0.118052	-0.221946	-0.054590	0.973530	-0.937891	0.284991	-0.197840	-0.266647	-0.956974	-0.114452
33685	9.964345	-8.516831	-7.230049	-1.551719	-0.664699	-0.298379	-0.220924	-0.061815	0.973330	-0.934323	0.299624	-0.193041	-0.279700	-0.952053	-0.123949
33686	9.271949	-7.392014	-7.942199	-1.083831	-0.687396	-0.416866	-0.218978	-0.069756	0.973233	-0.932166	0.309667	-0.187543	-0.288296	-0.948283	-0.132834
33687	9.767874	-6.175922	-7.510228	-0.638926	-0.691560	-0.415295	-0.217073	-0.077612	0.973065	-0.931226	0.315407	-0.182583	-0.292741	-0.945777	-0.140741
33688	10.341960	-5.176470	-7.047203	-0.232126	-0.663336	-0.353163	-0.215740	-0.085151	0.972731	-0.931311	0.317333	-0.178775	-0.293456	-0.944484	-0.147763
33689	10.097800	-3.932084	-5.825106	0.061948	-0.668928	-0.306067	-0.214800	-0.092447	0.972273	-0.932161	0.316470	-0.175847	-0.291438	-0.944087	-0.154153
33690	10.070948	-3.076749	-4.806063	0.260762	-0.677026	-0.276098	-0.214206	-0.099871	0.971669	-0.933507	0.313762	-0.173544	-0.287540	-0.944235	-0.160440
33691	10.224499	-2.113762	-3.692573	0.397931	-0.670703	-0.240473	-0.213826	-0.106965	0.970998	-0.935166	0.309748	-0.171814	-0.282386	-0.944783	-0.166262
33692	10.166420	-1.012240	-2.654262	0.398092	-0.623687	-0.206809	-0.213662	-0.113662	0.970273	-0.936721	0.305776	-0.170453	-0.277313	-0.945295	-0.171802
33693	10.229041	-0.215110	-2.166719	0.230406	-0.564687	-0.164799	-0.213629	-0.119511	0.969577	-0.937719	0.303399	-0.169212	-0.273946	-0.945339	-0.176882
33694	10.121285	0.094522	-1.895334	0.030362	-0.468228	-0.152259	-0.213503	-0.124564	0.968969	-0.938126	0.302944	-0.167762	-0.272646	-0.944832	-0.181537
33695	9.851050	-0.409623	-1.919938	-0.128560	-0.425072	-0.141259	-0.213292	-0.129016	0.968432	-0.938087	0.303971	-0.166113	-0.272944	-0.943905	-0.185863
33696	10.299080	-1.243331	-2.103457	-0.156457	-0.457313	-0.098940	-0.213631	-0.133799	0.967709	-0.937871	0.305335	-0.164827	-0.273421	-0.942798	-0.190715
33697	10.622251	-1.466370	-1.580484	-0.077651	-0.461054	-0.064511	-0.214241	-0.138350	0.966933	-0.937808	0.305970	-0.164009	-0.273162	-0.941935	-0.195297
33698	10.530458	-1.194544	-0.980181	-0.001021	-0.463011	-0.068065	-0.214880	-0.143083	0.966102	-0.937952	0.305901	-0.163314	-0.272164	-0.941250	-0.199936
33699	10.301938	-1.243254	-1.010368	-0.002303	-0.501684	-0.102683	-0.215235	-0.148126	0.965263	-0.938177	0.305764	-0.162274	-0.271106	-0.940514	-0.204779
33700	9.818906	-1.252715	-0.695229	-0.005923	-0.539508	-0.127331	-0.215512	-0.153748	0.964322	-0.938436	0.305642	-0.160996	-0.269985	-0.939651	-0.210152
33701	9.185964	-0.949884	-0.262094	-0.047434	-0.565701	-0.165936	-0.215435	-0.159577	0.963392	-0.938677	0.305819	-0.159252	-0.269210	-0.938621	-0.215675
33702	8.422228	-1.046244	-0.102308	-0.132138	-0.589273	-0.202332	-0.215130	-0.165878	0.962395	-0.938759	0.306742	-0.156977	-0.269168	-0.937227	-0.221709
33703	8.268843	-1.291562	-0.211007	-0.250364	-0.637325	-0.228960	-0.214655	-0.172559	0.961325	-0.938586	0.308689	-0.154167	-0.270147	-0.935379	-0.228223
33704	8.433198	-1.904279	-0.477867	-0.348694	-0.660023	-0.228686	-0.214304	-0.179583	0.960116	-0.938134	0.311555	-0.151123	-0.271989	-0.933104	-0.235241
33705	8.585812	-2.460489	-1.153820	-0.359639	-0.671558	-0.236897	-0.213871	-0.186593	0.958876	-0.937670	0.314462	-0.147948	-0.273924	-0.930751	-0.242217
33706	8.883152	-2.518902	-1.639790	-0.363747	-0.694829	-0.248871	-0.213455	-0.193981	0.957501	-0.937205	0.317378	-0.144632	-0.275834	-0.928247	-0.249545
33707	9.422073	-2.516964	-1.741611	-0.351798	-0.715745	-0.254101	-0.213009	-0.201435	0.956060	-0.936784	0.320126	-0.141266	-0.277603	-0.925712	-0.256891
33708	9.657868	-2.223124	-1.711032	-0.315597	-0.744925	-0.273050	-0.212534	-0.209338	0.954467	-0.936489	0.322488	-0.137801	-0.278958	-0.923135	-0.264582
33709	9.918803	-1.750330	-1.520050	-0.289035	-0.785551	-0.297311	-0.211900	-0.217551	0.952770	-0.936323	0.324506	-0.134146	-0.279996	-0.920525	-0.272461
33710	10.430439	-0.949633	-0.828335	-0.276385	-0.828621	-0.293793	-0.211482	-0.226257	0.950833	-0.936173	0.326399	-0.130552	-0.280812	-0.917753	-0.280844
33711	10.493774	-0.334737	0.440019	-0.299363	-0.879223	-0.304044	-0.211064	-0.235319	0.948724	-0.935984	0.328427	-0.126768	-0.281756	-0.914746	-0.289574
33712	10.081077	-0.136990	2.158313	-0.353100	-0.971440	-0.326888	-0.210752	-0.245391	0.946238	-0.935680	0.330867	-0.122595	-0.282995	-0.911214	-0.299339
33713	9.936847	0.065445	3.880613	-0.396676	-1.127077	-0.348074	-0.210648	-0.256805	0.943228	-0.935299	0.333586	-0.118055	-0.284330	-0.907068	-0.310459
33714	10.128853	0.633304	5.417043	-0.437583	-1.331517	-0.362588	-0.211047	-0.270174	0.939396	-0.934822	0.336586	-0.113216	-0.285599	-0.902062	-0.323600
33715	10.489226	1.252954	6.815838	-0.586537	-1.566209	-0.376604	-0.211973	-0.285539	0.934631	-0.933948	0.340797	-0.107701	-0.287766	-0.895726	-0.338919
33716	10.813693	1.942103	7.909641	-0.782898	-1.820131	-0.373473	-0.213737	-0.303139	0.928667	-0.932484	0.346671	-0.101454	-0.291187	-0.887652	-0.356769
33717	11.274223	2.788818	8.406152	-1.001290	-2.071425	-0.335010	-0.216655	-0.322610	0.921403	-0.930275	0.354445	-0.094640	-0.296055	-0.877663	-0.376908
33718	11.748365	3.505598	8.812279	-1.240215	-2.325038	-0.291660	-0.220865	-0.343981	0.912631	-0.927212	0.364269	-0.087097	-0.302484	-0.865439	-0.399398
33719	12.770565	4.269394	9.700895	-1.460103	-2.596779	-0.220051	-0.226740	-0.367093	0.902126	-0.923242	0.375999	-0.079046	-0.310181	-0.850804	-0.424170
33720	13.618047	5.478752	8.337907	-1.662686	-2.866809	-0.195084	-0.233899	-0.392014	0.889728	-0.918474	0.389245	-0.069954	-0.318899	-0.833555	-0.451099
33721	14.194419	6.243594	5.266446	-1.851929	-3.062706	-0.197309	-0.241964	-0.418040	0.875612	-0.912960	0.403681	-0.059557	-0.328570	-0.813809	-0.479329
33722	14.601122	6.317009	3.287153	-1.932695	-3.215822	-0.167736	-0.251071	-0.444559	0.859843	-0.906943	0.418454	-0.048473	-0.338256	-0.791999	-0.508252
33723	16.008285	5.348548	3.389547	-1.883607	-3.260119	-0.131504	-0.261009	-0.470583	0.842868	-0.900839	0.432534	-0.037471	-0.346935	-0.769068	-0.536815
33724	15.887144	4.080631	3.416207	-1.642385	-3.273898	-0.064660	-0.271774	-0.495663	0.824898	-0.895278	0.444640	-0.027788	-0.353009	-0.746065	-0.564598
33725	14.835346	-0.146492	0.160558	-1.659425	-3.295104	-0.102363	-0.282544	-0.520328	0.805870	-0.889670	0.456276	-0.017320	-0.358687	-0.721852	-0.591839
33726	13.841529	-3.981992	-4.887831	-1.362746	-3.249093	-0.151342	-0.292778	-0.544074	0.786298	-0.885213	0.465122	-0.007771	-0.361496	-0.698316	-0.617799
33727	13.249767	-6.981920	-9.249906	-1.026476	-3.176714	-0.139804	-0.302979	-0.566576	0.766287	-0.881935	0.471372	-0.000183	-0.361103	-0.675871	-0.642498
33728	12.456302	-9.119448	-12.409843	-0.569027	-3.122690	-0.099791	-0.313195	-0.587799	0.745924	-0.880215	0.474555	0.004376	-0.356555	-0.655202	-0.666017
33729	11.525855	-10.913828	-13.287690	0.071863	-3.037185	-0.117771	-0.322789	-0.608006	0.725353	-0.880857	0.473358	0.004789	-0.346263	-0.637386	-0.688361
33730	11.044159	-11.506171	-12.376344	0.796236	-2.943055	-0.293640	-0.330058	-0.627897	0.704845	-0.884522	0.466496	0.001373	-0.329670	-0.622998	-0.709360
33731	10.880948	-10.737994	-10.949609	1.665660	-2.730913	-0.525110	-0.334029	-0.647211	0.685232	-0.891575	0.452820	-0.006921	-0.305808	-0.613247	-0.728292
33732	10.048001	-8.762984	-10.378573	2.338252	-2.437097	-0.740704	-0.334426	-0.665329	0.667455	-0.900878	0.433651	-0.019113	-0.276726	-0.607688	-0.744404
33733	8.285547	-6.515393	-9.811689	2.691876	-2.035444	-0.882961	-0.331700	-0.681422	0.652410	-0.910866	0.411344	-0.033468	-0.245559	-0.605359	-0.757127
33734	6.632144	-4.169827	-9.106620	2.798984	-1.567993	-0.925196	-0.326787	-0.694568	0.640926	-0.920371	0.387989	-0.048805	-0.214774	-0.605838	-0.766050
33735	5.876073	-1.542245	-10.080893	2.443386	-1.144830	-0.922731	-0.320522	-0.705007	0.632638	-0.928300	0.366680	-0.061692	-0.188482	-0.607051	-0.771987
33736	5.489000	-0.633400	-11.110640	1.786080	-0.685970	-0.885317	-0.313460	-0.712299	0.627992	-0.934320	0.349509	-0.069932	-0.169676	-0.608666	-0.775072
33737	3.665380	0.123761	-9.609494	1.009706	-0.201798	-0.813243	-0.306132	-0.716335	0.627014	-0.938516	0.337509	-0.072631	-0.159595	-0.610697	-0.775615
33738	4.236345	-0.022177	-8.514691	0.299427	0.120070	-0.671393	-0.299588	-0.717801	0.628497	-0.941038	0.330823	-0.070738	-0.157146	-0.612632	-0.774589
33739	5.748472	-0.661854	-7.761175	-0.228670	0.666083	-0.696113	-0.291927	-0.716009	0.634121	-0.942747	0.327204	-0.064549	-0.161269	-0.616659	-0.770535
33740	6.376361	-1.106080	-7.571167	-0.561666	1.291729	-0.799714	-0.282196	-0.710561	0.644568	-0.944125	0.324946	-0.055129	-0.170277	-0.624110	-0.762557
33741	5.747923	-1.279120	-7.547387	-0.820470	1.768901	-0.826152	-0.271223	-0.702127	0.658373	-0.944975	0.324237	-0.043507	-0.182922	-0.633946	-0.751433
33742	4.988890	-1.651407	-7.631719	-0.975523	2.106740	-0.734151	-0.260232	-0.690990	0.674398	-0.945081	0.325328	-0.031349	-0.197739	-0.645519	-0.737703
33743	4.553133	-1.922895	-7.383757	-1.108189	2.363079	-0.568565	-0.249948	-0.677457	0.691793	-0.944261	0.328628	-0.019347	-0.214236	-0.658069	-0.721837
33744	4.320411	-1.919835	-7.315516	-1.115310	2.654409	-0.368844	-0.240515	-0.660978	0.710817	-0.942693	0.333546	-0.008814	-0.231264	-0.672201	-0.703322
33745	4.073426	-1.529070	-6.403879	-1.064158	2.951304	-0.219271	-0.231329	-0.641657	0.731275	-0.940670	0.339323	0.000171	-0.248249	-0.687849	-0.682082
33746	4.181818	-1.217763	-5.798392	-1.047960	3.192572	-0.161490	-0.221578	-0.619939	0.752714	-0.938355	0.345571	0.008389	-0.265317	-0.704455	-0.658294
33747	4.284424	-0.987676	-5.283457	-0.979546	3.447658	-0.139160	-0.210794	-0.595844	0.774942	-0.935986	0.351682	0.015805	-0.281951	-0.722004	-0.631834
33748	4.238314	-1.251382	-5.423286	-0.892788	3.657053	-0.117912	-0.199059	-0.569479	0.797539	-0.933650	0.357497	0.022238	-0.297782	-0.740196	-0.602857
33749	4.218946	-1.742664	-5.218960	-0.743257	3.773077	-0.024115	-0.187284	-0.541302	0.819705	-0.931439	0.362906	0.026836	-0.312002	-0.758480	-0.572156
33750	4.667137	-2.341131	-5.213325	-0.563733	3.800359	0.103735	-0.176136	-0.511709	0.840910	-0.929467	0.367755	0.029101	-0.324141	-0.776473	-0.540391
33751	5.418873	-2.424333	-5.371510	-0.306309	3.808669	0.242341	-0.165817	-0.480910	0.860947	-0.928054	0.371340	0.028683	-0.333498	-0.794249	-0.507885
33752	5.955527	-1.836406	-5.162215	-0.048620	3.861073	0.355031	-0.156088	-0.448531	0.880032	-0.927327	0.373359	0.025816	-0.340147	-0.812049	-0.474212
33753	6.547170	-1.270633	-5.130192	0.067369	3.910488	0.436938	-0.146688	-0.414815	0.898004	-0.926905	0.374671	0.021663	-0.345442	-0.829187	-0.439453
33754	6.946803	-1.220497	-5.538345	0.209192	4.022495	0.498963	-0.137331	-0.379205	0.915065	-0.926930	0.374882	0.016240	-0.349199	-0.845971	-0.402979
33755	6.785644	-1.766294	-6.085691	0.358460	4.144710	0.536779	-0.127744	-0.341802	0.931049	-0.927482	0.373736	0.009950	-0.351368	-0.862260	-0.364758
33756	6.597137	-2.337183	-6.586404	0.581628	4.203992	0.547544	-0.118056	-0.303138	0.945606	-0.928858	0.370425	0.002784	-0.351119	-0.878005	-0.325303
33757	6.554800	-2.106432	-6.699059	0.854317	4.245612	0.552697	-0.108310	-0.263514	0.958556	-0.931225	0.364409	-0.005043	-0.347977	-0.893178	-0.284860
33758	6.358267	-1.279368	-6.443710	0.980619	4.263355	0.534652	-0.098569	-0.223170	0.969783	-0.934067	0.356868	-0.012815	-0.343225	-0.907105	-0.243632
33759	6.729444	-0.365338	-5.997642	0.902419	4.248909	0.527770	-0.088971	-0.182517	0.979169	-0.936655	0.349687	-0.019926	-0.338766	-0.918916	-0.202067
33760	7.486272	0.484316	-5.240101	0.699963	4.293390	0.538542	-0.079553	-0.140965	0.986813	-0.938565	0.344083	-0.026512	-0.335808	-0.928297	-0.159677
33761	8.208493	1.398371	-4.141646	0.323245	4.352028	0.561226	-0.070157	-0.098507	0.992660	-0.939235	0.341736	-0.032469	-0.336029	-0.934619	-0.116496
33762	8.772364	1.687224	-3.662294	-0.265905	4.367675	0.583601	-0.060855	-0.055608	0.996596	-0.937953	0.344668	-0.038042	-0.341380	-0.937076	-0.073133
33763	9.494867	1.339306	-3.888327	-0.922209	4.430057	0.600244	-0.051058	-0.012042	0.998623	-0.934421	0.353503	-0.043513	-0.352492	-0.935356	-0.029301
33764	9.939793	1.262128	-3.538320	-1.491399	4.490843	0.646729	-0.040907	0.032175	0.998645	-0.928746	0.367345	-0.049879	-0.368452	-0.929528	0.014855
33765	10.313333	0.252258	-2.912978	-2.007162	4.450110	0.719955	-0.030673	0.076025	0.996634	-0.920892	0.385517	-0.057750	-0.388609	-0.919564	0.058186
33766	10.811666	-0.243970	-1.550353	-2.250163	4.325713	0.830675	-0.021016	0.118802	0.992696	-0.911685	0.405258	-0.067800	-0.410353	-0.906450	0.099793
33767	12.036808	-2.247560	2.031430	-2.548192	4.126364	1.012888	-0.012726	0.160076	0.987023	-0.900754	0.426744	-0.080823	-0.434144	-0.890093	0.138758
33768	11.530035	-0.665345	2.995431	-2.007034	3.408743	1.051453	-0.007052	0.194726	0.980832	-0.891747	0.442603	-0.094283	-0.452479	-0.875319	0.170525
33769	9.213071	-1.861710	3.972189	-1.879578	2.614644	0.946442	-0.003357	0.221674	0.975115	-0.883036	0.456964	-0.106922	-0.469294	-0.861420	0.194212
33770	8.227704	-0.016355	4.094182	-1.526767	1.570612	0.901659	-0.003822	0.239280	0.970943	-0.875729	0.467965	-0.118773	-0.482787	-0.850737	0.207756
33771	7.416764	0.253012	5.264920	-1.065102	0.711375	0.840255	-0.007648	0.249252	0.968408	-0.870491	0.474947	-0.129119	-0.492126	-0.843978	0.213339
33772	7.221652	0.598729	3.644444	-0.536929	-0.184779	0.780037	-0.015348	0.251404	0.967761	-0.867741	0.477528	-0.137813	-0.496780	-0.841880	0.210825
33773	6.689681	0.066705	2.396358	0.131376	-0.945479	0.758806	-0.026582	0.247025	0.968644	-0.868236	0.474539	-0.144844	-0.495440	-0.844862	0.201862
33774	7.131187	1.049264	-1.532095	0.770078	-1.616250	0.784532	-0.041357	0.236995	0.970630	-0.871753	0.466112	-0.150953	-0.488198	-0.852392	0.187324
33775	6.603807	-0.210884	-2.395626	1.365563	-2.102275	0.796933	-0.058414	0.222602	0.973158	-0.877937	0.452573	-0.156221	-0.475200	-0.863496	0.168994
33776	6.778722	0.057751	-4.835948	1.849303	-2.450248	0.733550	-0.076310	0.204521	0.975883	-0.886062	0.434920	-0.160434	-0.457243	-0.876936	0.148029
33777	6.206468	-0.434134	-6.161308	2.069153	-2.569295	0.620767	-0.093279	0.184435	0.978408	-0.894789	0.415430	-0.163617	-0.436637	-0.890731	0.126280
33778	5.579366	-1.108078	-8.319088	2.277880	-2.668835	0.446306	-0.108644	0.162255	0.980750	-0.904019	0.394215	-0.165363	-0.413457	-0.904582	0.103853
33779	5.153393	-1.033271	-10.642288	2.466456	-2.691355	0.263033	-0.121776	0.138720	0.982816	-0.913606	0.371344	-0.165614	-0.387936	-0.918074	0.081514
33780	4.729794	-1.482143	-12.403967	2.528566	-2.493892	0.049278	-0.131593	0.115795	0.984518	-0.923017	0.347919	-0.164294	-0.361557	-0.930346	0.061097
33781	4.607246	-2.186314	-14.018070	2.574516	-2.134874	-0.183405	-0.137281	0.095188	0.985948	-0.932235	0.324021	-0.161085	-0.334801	-0.941249	0.044256
33782	6.726356	-4.075512	-10.967408	2.463425	-1.105305	-0.320072	-0.137882	0.083652	0.986910	-0.940615	0.301026	-0.156929	-0.310213	-0.949940	0.037178
33783	10.022231	-4.294525	3.284989	3.986342	0.066724	-0.200660	-0.135743	0.083716	0.987201	-0.952514	0.263099	-0.153284	-0.272564	-0.961130	0.044027
33784	36.542410	8.895516	5.214498	3.231794	-2.462446	0.240349	-0.144375	0.060431	0.987676	-0.960425	0.231716	-0.154569	-0.238201	-0.970905	0.024586
33785	23.455803	4.410965	1.449526	2.241542	-1.136310	0.009533	-0.146996	0.049383	0.987904	-0.965497	0.209884	-0.154154	-0.214958	-0.976478	0.016827
33786	6.955521	8.404063	-2.530105	0.469541	-2.939197	-0.141988	-0.151822	0.020269	0.988200	-0.966697	0.205355	-0.152730	-0.206028	-0.978478	-0.011583
33787	8.905418	6.205626	-9.627576	0.380115	-3.038673	-0.008414	-0.157828	-0.009501	0.987421	-0.967485	0.201633	-0.152702	-0.197645	-0.979415	-0.041016
33788	9.685496	8.716488	-10.232957	-0.063294	-2.199580	0.095997	-0.163062	-0.030952	0.986130	-0.967209	0.202284	-0.153584	-0.194725	-0.978838	-0.062922
33789	9.570344	7.284551	-9.260425	-1.011146	-1.032835	0.256545	-0.167548	-0.040522	0.985031	-0.964783	0.212257	-0.155372	-0.202784	-0.976373	-0.074658
33790	7.499181	0.378600	-4.286703	-1.520695	-0.335307	0.424129	-0.172303	-0.042996	0.984105	-0.960878	0.227273	-0.158307	-0.216854	-0.972882	-0.080474
33791	7.794285	-3.360132	-5.195580	-1.651257	-1.087529	0.414993	-0.178671	-0.052582	0.982503	-0.956462	0.243496	-0.160904	-0.230775	-0.968476	-0.093798
33792	10.249018	-6.279442	-6.898953	-1.411262	-0.862733	0.299928	-0.183548	-0.060318	0.981159	-0.952584	0.257323	-0.162383	-0.242680	-0.964441	-0.104689
33793	10.408416	-6.669626	-5.270969	-1.102428	-0.805503	0.111233	-0.186552	-0.067787	0.980104	-0.949662	0.268003	-0.162221	-0.251674	-0.961030	-0.114371
33794	11.636309	-6.362964	-5.673962	-0.834992	-0.766161	-0.006473	-0.188431	-0.075316	0.979194	-0.947550	0.276030	-0.161111	-0.258153	-0.958194	-0.123378
33795	10.763679	-5.902505	-4.724501	-0.642812	-0.611393	-0.099721	-0.189035	-0.081453	0.978586	-0.946072	0.282098	-0.159274	-0.263084	-0.955922	-0.130387
33796	9.900710	-5.119816	-4.900321	-0.641471	-0.649675	-0.206459	-0.188810	-0.088409	0.978026	-0.944761	0.288066	-0.156348	-0.267913	-0.953521	-0.137915
33797	10.198475	-4.603788	-5.482612	-0.584185	-0.631781	-0.273170	-0.187892	-0.095228	0.977562	-0.943707	0.293372	-0.152806	-0.272238	-0.951244	-0.144990
33798	10.534604	-3.967027	-5.400672	-0.466146	-0.563601	-0.307617	-0.186547	-0.101664	0.977172	-0.943007	0.297517	-0.149071	-0.275570	-0.949288	-0.151371
33799	10.531587	-3.508237	-4.828346	-0.302941	-0.494679	-0.310699	-0.184940	-0.107294	0.976875	-0.942755	0.300059	-0.145524	-0.277507	-0.947867	-0.156645
33800	10.326279	-3.078876	-4.310641	-0.106027	-0.475440	-0.320501	-0.183259	-0.112938	0.976556	-0.943050	0.300728	-0.142192	-0.277619	-0.946999	-0.161617
33801	10.226845	-2.318953	-3.717136	0.073179	-0.472835	-0.298740	-0.181704	-0.118321	0.976209	-0.943807	0.299682	-0.139350	-0.276064	-0.946674	-0.166125
33802	10.260799	-1.286744	-2.831955	0.175571	-0.439057	-0.258498	-0.180495	-0.123430	0.975801	-0.944757	0.297724	-0.137093	-0.273598	-0.946639	-0.170349
33803	9.770007	-0.311780	-1.983335	0.212049	-0.390984	-0.207402	-0.179554	-0.127755	0.975417	-0.945717	0.295448	-0.135390	-0.270888	-0.946778	-0.173869
33804	9.361374	-0.043227	-1.351263	0.201024	-0.375694	-0.159321	-0.179082	-0.131963	0.974944	-0.946544	0.293353	-0.134159	-0.268299	-0.946853	-0.177443
33805	9.331438	-0.054728	-0.613921	0.202519	-0.402285	-0.106599	-0.179102	-0.136092	0.974372	-0.947284	0.291284	-0.133439	-0.265659	-0.946907	-0.181087
33806	9.807725	-0.332744	0.077276	0.203912	-0.448580	-0.091117	-0.179443	-0.140782	0.973643	-0.947987	0.289242	-0.132892	-0.262909	-0.946847	-0.185362
33807	10.118551	-0.466249	0.583878	0.221342	-0.478120	-0.108911	-0.179615	-0.145631	0.972898	-0.948770	0.286981	-0.132203	-0.259951	-0.946802	-0.189716
33808	10.222506	-0.613319	0.725093	0.155450	-0.535271	-0.143479	-0.179652	-0.151280	0.972029	-0.949431	0.285309	-0.131071	-0.257500	-0.946421	-0.194886
33809	9.997398	-0.818660	0.552015	0.086904	-0.583418	-0.160563	-0.179578	-0.157265	0.971092	-0.949951	0.284230	-0.129639	-0.255626	-0.945770	-0.200435
33810	9.508555	-0.896221	0.666280	-0.010955	-0.643561	-0.175378	-0.179563	-0.164009	0.969978	-0.950240	0.284063	-0.127878	-0.254562	-0.944674	-0.206855
33811	9.012325	-0.833158	0.697881	-0.119710	-0.698162	-0.203136	-0.179365	-0.171185	0.968774	-0.950308	0.284843	-0.125613	-0.254445	-0.943165	-0.213769
33812	8.837020	-0.783185	0.340467	-0.238967	-0.773153	-0.212504	-0.179322	-0.179231	0.967326	-0.950083	0.286730	-0.122999	-0.255316	-0.941096	-0.221702
33813	8.782001	-0.928580	0.015522	-0.343699	-0.828825	-0.210619	-0.179400	-0.187636	0.965717	-0.949589	0.289563	-0.120142	-0.257093	-0.938587	-0.230125
33814	8.791755	-1.083247	-0.454707	-0.403434	-0.876977	-0.205838	-0.179714	-0.196602	0.963873	-0.948920	0.292955	-0.117171	-0.259335	-0.935695	-0.239207
33815	8.932750	-1.379005	-0.853984	-0.420847	-0.921924	-0.202433	-0.180150	-0.205819	0.961865	-0.948196	0.296467	-0.114152	-0.261667	-0.932602	-0.248565
33816	9.044823	-1.566950	-1.161528	-0.401463	-0.958487	-0.211154	-0.180668	-0.215514	0.959642	-0.947526	0.299764	-0.111067	-0.263729	-0.929352	-0.258363
33817	9.363958	-1.897583	-1.420317	-0.359281	-0.994674	-0.229331	-0.181082	-0.225441	0.957280	-0.946999	0.302579	-0.107879	-0.265332	-0.926079	-0.268285
33818	9.863129	-1.873698	-1.502150	-0.279752	-1.020534	-0.253847	-0.181393	-0.235784	0.954727	-0.946720	0.304581	-0.104651	-0.266117	-0.922841	-0.278470
33819	10.347689	-1.134851	-1.044032	-0.240287	-1.061575	-0.259048	-0.181722	-0.246363	0.951989	-0.946559	0.306157	-0.101456	-0.266463	-0.919550	-0.288833
33820	10.482422	-0.548881	-0.234922	-0.286890	-1.111140	-0.264556	-0.182184	-0.257503	0.948947	-0.946279	0.308122	-0.098061	-0.267141	-0.915834	-0.299805
33821	10.358597	-0.029111	0.244573	-0.402726	-1.172717	-0.281580	-0.182618	-0.269099	0.945641	-0.945723	0.311046	-0.094120	-0.268811	-0.911502	-0.311296
33822	10.226651	0.176193	0.921209	-0.512971	-1.240293	-0.282403	-0.183295	-0.281379	0.941928	-0.944859	0.314928	-0.089788	-0.271375	-0.906447	-0.323588
33823	10.009729	0.168098	2.071950	-0.584067	-1.332489	-0.291581	-0.184133	-0.294354	0.937790	-0.943810	0.319351	-0.085076	-0.274442	-0.900761	-0.336617
33824	10.200804	0.055911	3.401684	-0.643017	-1.490374	-0.308051	-0.185331	-0.308830	0.932886	-0.942610	0.324186	-0.079942	-0.277740	-0.894163	-0.351188
33825	10.517431	0.449421	5.081630	-0.670930	-1.658158	-0.336288	-0.186750	-0.324704	0.927195	-0.941370	0.329078	-0.074362	-0.280974	-0.886721	-0.367123
33826	10.739529	1.014787	6.870971	-0.777319	-1.886612	-0.371253	-0.188575	-0.342672	0.920335	-0.939875	0.334686	-0.067963	-0.284734	-0.877816	-0.385182
33827	10.860222	1.713131	8.182137	-0.893591	-2.148626	-0.396478	-0.190971	-0.362770	0.912101	-0.938074	0.341067	-0.060757	-0.289047	-0.867220	-0.405439
33828	11.283843	2.728395	8.847668	-1.072715	-2.419504	-0.407119	-0.194181	-0.385066	0.902229	-0.935737	0.348764	-0.052542	-0.294432	-0.854452	-0.428044
33829	12.350381	3.747030	9.788548	-1.285604	-2.680187	-0.368205	-0.198679	-0.409079	0.890607	-0.932641	0.358169	-0.043539	-0.301177	-0.839267	-0.452684
33830	13.935990	4.851260	10.817653	-1.540520	-2.961183	-0.352237	-0.204388	-0.434980	0.876936	-0.928657	0.369453	-0.033186	-0.309552	-0.821156	-0.479459
33831	15.506410	5.462068	11.671090	-1.814567	-3.245713	-0.359381	-0.211227	-0.462653	0.861009	-0.923705	0.382526	-0.021062	-0.319614	-0.799766	-0.508154
33832	16.272240	6.425833	11.212560	-1.960695	-3.480961	-0.414686	-0.218637	-0.491689	0.842876	-0.918236	0.395968	-0.007198	-0.330213	-0.775532	-0.538060
33833	16.783641	4.992575	5.443543	-2.090684	-3.574593	-0.491226	-0.226102	-0.520934	0.823107	-0.912318	0.409395	0.008494	-0.341401	-0.749015	-0.567822
33834	16.403259	1.455050	0.070557	-1.744929	-3.413129	-0.471243	-0.233500	-0.547996	0.803230	-0.907382	0.419700	0.022560	-0.349479	-0.723569	-0.595242
33835	14.123337	-2.122310	-1.497538	-1.378216	-3.439081	-0.394404	-0.241979	-0.574137	0.782185	-0.903485	0.427260	0.034112	-0.353781	-0.698438	-0.622112
33836	14.595946	-4.558158	-6.876670	-1.086237	-3.689659	-0.289149	-0.252331	-0.600629	0.758666	-0.900361	0.432981	0.043329	-0.354513	-0.672140	-0.650037
33837	15.113056	-6.676347	-10.819429	-0.712926	-3.596753	-0.142233	-0.263709	-0.624990	0.734742	-0.898223	0.436782	0.049154	-0.351643	-0.647000	-0.676564
33838	14.775489	-8.853393	-12.771636	-0.289973	-3.585694	-0.059694	-0.275563	-0.647976	0.710065	-0.897384	0.438218	0.051642	-0.344626	-0.622970	-0.702240
33839	14.631949	-9.274847	-13.644988	0.299396	-3.438204	-0.037882	-0.286817	-0.669213	0.685485	-0.898518	0.436103	0.049798	-0.332268	-0.601638	-0.726381
33840	14.082193	-9.460510	-13.073364	0.977911	-3.072249	-0.115241	-0.295642	-0.687891	0.662873	-0.902028	0.429491	0.043395	-0.314549	-0.585101	-0.747473
33841	12.551417	-8.049953	-12.865531	1.750638	-2.575859	-0.283423	-0.300833	-0.704045	0.643288	-0.908189	0.417333	0.032035	-0.291019	-0.574590	-0.764954
33842	10.411225	-6.950212	-12.191069	2.318779	-2.068702	-0.450533	-0.302403	-0.717666	0.627303	-0.915993	0.400834	0.017002	-0.263645	-0.569463	-0.778590
33843	8.265130	-4.765710	-11.802126	2.823020	-1.494971	-0.558506	-0.300933	-0.728379	0.615552	-0.924705	0.380680	-0.001616	-0.233151	-0.569690	-0.788095
33844	7.309043	-0.976749	-12.585345	2.863167	-0.954118	-0.630719	-0.297110	-0.736108	0.608170	-0.932860	0.359659	-0.020413	-0.203708	-0.573403	-0.793544
33845	5.771559	0.882466	-12.814992	2.308906	-0.447801	-0.663307	-0.291718	-0.741025	0.604800	-0.939266	0.341429	-0.034711	-0.180775	-0.578194	-0.795620
33846	3.599253	0.811877	-11.198697	1.602994	0.000942	-0.573315	-0.286271	-0.742882	0.605124	-0.943714	0.327823	-0.043998	-0.165689	-0.583659	-0.794915
33847	4.166002	0.256116	-10.119510	0.956391	0.310120	-0.365696	-0.282269	-0.742259	0.607763	-0.946313	0.319464	-0.049345	-0.157532	-0.589062	-0.792584
33848	4.842804	-0.737705	-8.215865	0.557256	0.862177	-0.364452	-0.277424	-0.738247	0.614839	-0.948216	0.313420	-0.051520	-0.154668	-0.597293	-0.786968
33849	5.137564	-1.134251	-6.990934	0.347496	1.523314	-0.493550	-0.270332	-0.730599	0.627014	-0.950120	0.307663	-0.051146	-0.155541	-0.609564	-0.777327
33850	4.269308	-1.522549	-7.097792	0.119185	2.029886	-0.565367	-0.261708	-0.719745	0.643021	-0.951824	0.302788	-0.048475	-0.159809	-0.624730	-0.764313
33851	3.309181	-2.211033	-7.787321	-0.059920	2.324023	-0.508944	-0.253026	-0.706578	0.660853	-0.953049	0.299503	-0.044675	-0.166361	-0.641129	-0.749185
33852	2.535557	-2.454733	-7.901617	-0.018123	2.613423	-0.356390	-0.245149	-0.690593	0.680429	-0.953918	0.297093	-0.042153	-0.173040	-0.659407	-0.731601
33853	1.846414	-2.286118	-7.729677	-0.050380	2.848686	-0.205308	-0.238111	-0.672151	0.701082	-0.954336	0.295998	-0.040341	-0.180404	-0.678673	-0.711939
33854	1.356005	-1.784066	-7.302964	-0.146311	3.053463	-0.111135	-0.231374	-0.651402	0.722593	-0.954338	0.296235	-0.038529	-0.188959	-0.698513	-0.690199
33855	1.509301	-1.299700	-6.541233	-0.315986	3.262684	-0.082225	-0.224208	-0.628539	0.744762	-0.953922	0.297916	-0.035750	-0.199406	-0.718460	-0.666372
33856	1.803122	-0.771300	-5.634909	-0.473191	3.510934	-0.098485	-0.216021	-0.603204	0.767776	-0.953177	0.300725	-0.031921	-0.211634	-0.738722	-0.639923
33857	2.083876	-0.018970	-5.364790	-0.730142	3.715934	-0.142539	-0.206478	-0.575826	0.791070	-0.951889	0.305322	-0.026207	-0.226440	-0.758421	-0.611164
33858	2.226097	-0.292909	-5.401679	-0.969930	3.910594	-0.165811	-0.195683	-0.546260	0.814437	-0.949952	0.311811	-0.019105	-0.243515	-0.777415	-0.579937
33859	2.371447	-0.700685	-5.655865	-1.125481	4.052968	-0.123846	-0.184220	-0.514785	0.837293	-0.947352	0.319980	-0.011704	-0.261892	-0.795367	-0.546629
33860	2.658349	-1.140396	-5.637832	-1.260832	4.143961	-0.035590	-0.172605	-0.481554	0.859252	-0.944000	0.329912	-0.004735	-0.281197	-0.811951	-0.511531
33861	3.135183	-1.222798	-5.470404	-1.333745	4.202828	0.071081	-0.160998	-0.446880	0.879988	-0.940008	0.341150	0.001265	-0.300773	-0.826992	-0.474995
33862	4.162642	-1.074064	-5.137719	-1.427125	4.241105	0.205995	-0.149731	-0.410770	0.899360	-0.935260	0.353910	0.005936	-0.320731	-0.840247	-0.437169
33863	5.553104	-1.337225	-5.532677	-1.457853	4.305169	0.384762	-0.139038	-0.372963	0.917369	-0.929891	0.367735	0.008570	-0.340545	-0.851862	-0.397945
33864	6.707877	-2.025605	-6.590278	-1.314612	4.402222	0.543718	-0.128678	-0.333159	0.934049	-0.924574	0.380907	0.008490	-0.358615	-0.862505	-0.357044
33865	7.440885	-2.801200	-7.675841	-0.952291	4.524301	0.684544	-0.118396	-0.291262	0.949289	-0.920251	0.391294	0.005283	-0.372989	-0.872958	-0.314362
33866	7.538896	-3.003122	-7.874444	-0.414517	4.711600	0.769592	-0.107679	-0.246810	0.963063	-0.917822	0.396992	-0.000881	-0.382111	-0.884015	-0.269275
33867	7.014567	-2.698220	-7.346163	0.066050	4.840232	0.772551	-0.096121	-0.200686	0.974929	-0.917294	0.398121	-0.008487	-0.386436	-0.895112	-0.222356
33868	6.790924	-1.939955	-6.677107	0.431112	4.833974	0.723903	-0.084088	-0.154275	0.984443	-0.918313	0.395513	-0.016457	-0.386821	-0.905411	-0.174931
33869	7.285049	-0.678708	-5.673980	0.617633	4.789827	0.696638	-0.071963	-0.107964	0.991547	-0.920157	0.390798	-0.024230	-0.384879	-0.914123	-0.127467
33870	8.433857	0.612248	-4.516727	0.531120	4.684826	0.740531	-0.060815	-0.062111	0.996215	-0.921708	0.386549	-0.032167	-0.383088	-0.920175	-0.080756
33871	9.882108	1.468040	-3.653678	0.236876	4.654796	0.830120	-0.050581	-0.016018	0.998592	-0.922157	0.384687	-0.040538	-0.383495	-0.922908	-0.034229
33872	10.735860	1.822900	-2.621805	-0.135867	4.673310	0.892867	-0.040831	0.030531	0.998700	-0.921225	0.385873	-0.049459	-0.386881	-0.922047	0.012370
33873	11.273094	1.205293	-1.450145	-0.584129	4.600851	0.901803	-0.031119	0.076341	0.996596	-0.918622	0.390765	-0.058617	-0.393909	-0.917319	0.057969
33874	12.596512	-0.583305	1.268189	-1.121014	4.539117	0.956419	-0.021759	0.121549	0.992347	-0.913887	0.400056	-0.069040	-0.405386	-0.908395	0.102377
33875	13.564423	-2.485515	4.537612	-0.822436	4.160424	1.102437	-0.014732	0.163585	0.986419	-0.910319	0.405923	-0.080912	-0.413646	-0.899148	0.142935
33876	12.412306	-2.538952	3.758654	-0.964774	3.151640	0.923498	-0.009957	0.195541	0.980645	-0.906166	0.412899	-0.091533	-0.422806	-0.889538	0.173081
33877	10.254557	-0.729465	4.234784	-0.410090	2.133254	0.857897	-0.008617	0.217989	0.975913	-0.904345	0.414768	-0.100632	-0.426715	-0.883430	0.193563
33878	8.469778	-0.421393	5.076162	-0.021387	1.126336	0.792052	-0.010988	0.231194	0.972846	-0.904171	0.413185	-0.108405	-0.427028	-0.880810	0.204499
33879	7.277963	0.914259	5.113273	0.487412	0.023529	0.746165	-0.017598	0.234448	0.971969	-0.906137	0.407159	-0.114617	-0.422618	-0.882754	0.205277
33880	6.613190	1.846739	3.930402	1.066578	-0.922545	0.742605	-0.028206	0.229255	0.972958	-0.910418	0.395994	-0.119700	-0.412728	-0.889174	0.197548
33881	6.698946	2.377196	2.063946	1.564853	-1.803850	0.812941	-0.042899	0.216266	0.975392	-0.916473	0.380198	-0.124606	-0.397790	-0.899266	0.181892
33882	7.548256	4.054416	-3.026059	1.900242	-2.449855	0.888010	-0.060584	0.197377	0.978454	-0.923393	0.361162	-0.130030	-0.379045	-0.911375	0.160376
33883	6.711771	1.062259	-4.147847	2.100862	-2.700658	0.978763	-0.079562	0.176015	0.981167	-0.930450	0.340062	-0.136455	-0.357675	-0.923784	0.136717
33884	6.091939	0.739578	-6.430365	2.350106	-2.899434	0.964676	-0.098585	0.152201	0.983420	-0.937709	0.316625	-0.143006	-0.333141	-0.936260	0.111506
33885	5.424930	-0.250812	-8.095892	2.368536	-2.913947	0.925188	-0.116586	0.127563	0.984955	-0.944309	0.293023	-0.149724	-0.307713	-0.947558	0.086296
33886	4.246031	0.562925	-10.514546	2.449200	-2.932513	0.838573	-0.133161	0.101945	0.985837	-0.950470	0.268731	-0.156173	-0.280846	-0.957805	0.061112
33887	3.266906	1.042148	-12.229760	2.113890	-2.974802	0.652388	-0.147327	0.075007	0.986240	-0.955243	0.247821	-0.161544	-0.256528	-0.965898	0.035140
33888	3.126299	0.508728	-14.579901	1.653258	-2.544457	0.331491	-0.156780	0.051091	0.986311	-0.958817	0.231606	-0.164407	-0.236835	-0.971467	0.012676
33889	6.055397	0.405952	-10.867638	1.070581	-1.170799	0.108297	-0.160476	0.039940	0.986231	-0.961123	0.221140	-0.165346	-0.224699	-0.974424	0.002899
33890	9.373279	-0.790703	-4.389413	2.074616	-0.349681	0.050353	-0.161719	0.036536	0.986160	-0.965490	0.200872	-0.165772	-0.204149	-0.978936	0.002790
33891	31.923938	3.514570	9.463349	1.123309	-2.083250	0.228421	-0.167986	0.016555	0.985650	-0.967334	0.189798	-0.168052	-0.189857	-0.981684	-0.015869
33892	22.993019	-2.815456	-2.082191	0.110870	-1.598010	0.088255	-0.171837	0.000944	0.985125	-0.967394	0.188715	-0.168925	-0.186067	-0.982031	-0.031515
33893	7.280992	-2.048679	-4.600256	-0.105686	-2.550269	-0.002634	-0.176468	-0.024104	0.984011	-0.967212	0.189750	-0.168807	-0.182647	-0.981537	-0.056798
33894	7.086159	1.764769	-11.134208	0.603377	-2.832221	0.033319	-0.181803	-0.051939	0.981962	-0.968223	0.183851	-0.169535	-0.171730	-0.981581	-0.083713
33895	8.236466	6.517950	-11.180628	0.073873	-2.697823	0.110434	-0.187383	-0.078200	0.979169	-0.968153	0.183194	-0.170645	-0.166033	-0.979962	-0.110037
33896	10.429693	4.432218	-9.213002	-0.574058	-1.219433	0.174114	-0.191097	-0.089938	0.977442	-0.966865	0.188975	-0.171641	-0.169275	-0.977855	-0.123070
33897	6.728523	0.541393	-4.729793	-0.881117	-0.682258	0.194990	-0.194114	-0.096228	0.976248	-0.964975	0.197756	-0.172380	-0.176471	-0.975517	-0.131245
33898	9.085512	-2.411314	-6.522943	-1.415467	-1.291894	0.178339	-0.198161	-0.108580	0.974137	-0.962054	0.211736	-0.172102	-0.187573	-0.971277	-0.146418
33899	11.181657	-4.733651	-6.889281	-1.061290	-1.078763	0.217734	-0.202274	-0.118571	0.972124	-0.959595	0.222265	-0.172557	-0.195609	-0.967749	-0.158739
33900	11.878873	-4.986620	-6.316229	-0.830130	-1.003715	0.154280	-0.205730	-0.128074	0.970192	-0.957636	0.230496	-0.172640	-0.201514	-0.964608	-0.170068
33901	11.287007	-4.646302	-5.906677	-0.620777	-0.814737	0.066855	-0.207984	-0.135772	0.968663	-0.956244	0.236556	-0.172161	-0.205769	-0.962085	-0.179031
33902	9.868628	-4.682479	-5.567950	-0.618021	-0.747021	-0.025275	-0.209288	-0.143171	0.967316	-0.955015	0.242479	-0.170738	-0.210109	-0.959534	-0.187479
33903	9.490431	-4.682081	-5.602249	-0.651992	-0.741178	-0.132078	-0.209557	-0.150604	0.966129	-0.953916	0.248523	-0.168168	-0.214779	-0.956846	-0.195743
33904	9.832196	-4.934826	-6.219628	-0.616736	-0.745159	-0.209877	-0.209175	-0.158419	0.964961	-0.953019	0.254111	-0.164868	-0.219089	-0.954113	-0.204130
33905	10.068049	-4.679589	-5.913729	-0.431216	-0.678888	-0.250675	-0.208238	-0.165537	0.963968	-0.952602	0.257805	-0.161511	-0.221780	-0.951911	-0.211376
33906	10.545301	-3.989674	-4.984577	-0.247757	-0.634799	-0.258112	-0.207202	-0.172417	0.962985	-0.952588	0.259744	-0.158459	-0.222808	-0.950161	-0.218062
33907	11.018435	-2.868392	-4.283376	-0.050459	-0.564753	-0.254706	-0.205986	-0.178448	0.962146	-0.953012	0.259766	-0.155852	-0.222122	-0.949040	-0.223572
33908	11.042452	-1.754955	-3.826720	0.051938	-0.525062	-0.265295	-0.204636	-0.184295	0.961332	-0.953671	0.258810	-0.153390	-0.220534	-0.948184	-0.228718
33909	10.651249	-0.917921	-3.574211	0.158752	-0.522191	-0.244369	-0.203404	-0.189881	0.960506	-0.954528	0.256837	-0.151365	-0.217953	-0.947618	-0.233489
33910	9.934181	-0.489951	-2.852665	0.235968	-0.531896	-0.203465	-0.202628	-0.195619	0.959518	-0.955451	0.254226	-0.149939	-0.214604	-0.947155	-0.238418
33911	9.679222	-0.144485	-1.974996	0.334512	-0.555822	-0.154618	-0.202285	-0.201280	0.958419	-0.956485	0.250741	-0.149218	-0.210280	-0.946898	-0.243242
33912	9.718506	-0.092296	-1.188651	0.353860	-0.595155	-0.111141	-0.202471	-0.207368	0.957081	-0.957446	0.247179	-0.148993	-0.205674	-0.946520	-0.248591
33913	9.892974	-0.340082	-0.633039	0.325895	-0.635223	-0.091325	-0.202844	-0.213609	0.955628	-0.958304	0.243892	-0.148895	-0.201264	-0.945985	-0.254175
33914	10.075948	-0.560874	-0.490472	0.256636	-0.668081	-0.090660	-0.203314	-0.220318	0.954004	-0.959001	0.241283	-0.148657	-0.197433	-0.945115	-0.260342
33915	10.237689	-0.861247	-0.819150	0.143962	-0.684411	-0.109215	-0.203562	-0.227051	0.952371	-0.959516	0.239667	-0.147952	-0.194659	-0.943932	-0.266647
33916	10.279884	-1.067427	-1.231191	0.065959	-0.670794	-0.126051	-0.203655	-0.233845	0.950706	-0.959902	0.238767	-0.146896	-0.192646	-0.942500	-0.273095
33917	9.818507	-0.980298	-1.029990	-0.005408	-0.684815	-0.152750	-0.203458	-0.240664	0.949045	-0.960212	0.238442	-0.145387	-0.191303	-0.940864	-0.279602
33918	9.182488	-1.016792	-0.888644	-0.096918	-0.736142	-0.184010	-0.203098	-0.248181	0.947184	-0.960404	0.238914	-0.143332	-0.190724	-0.938790	-0.286877
33919	8.735353	-0.982520	-0.730090	-0.157428	-0.795934	-0.194760	-0.202699	-0.256116	0.945155	-0.960509	0.239886	-0.140988	-0.190620	-0.936408	-0.294626
33920	8.623290	-0.826276	-0.504544	-0.215800	-0.837101	-0.193629	-0.202435	-0.264562	0.942882	-0.960492	0.241408	-0.138479	-0.190983	-0.933664	-0.302979
33921	8.857269	-0.628267	-0.674993	-0.321970	-0.874561	-0.176685	-0.202369	-0.273149	0.940445	-0.960243	0.243920	-0.135783	-0.192304	-0.930534	-0.311651
33922	9.169141	-0.622389	-0.804484	-0.414301	-0.897172	-0.150264	-0.202656	-0.281997	0.937768	-0.959750	0.247357	-0.133024	-0.194451	-0.926980	-0.320775
33923	9.463776	-0.588715	-0.914747	-0.482363	-0.927917	-0.122433	-0.203253	-0.290892	0.934917	-0.959063	0.251453	-0.130265	-0.197195	-0.923121	-0.330093
33924	9.703565	-0.514787	-0.890305	-0.507604	-0.962880	-0.101039	-0.204189	-0.300157	0.931779	-0.958265	0.255833	-0.127581	-0.200086	-0.918942	-0.339868
33925	9.687515	-0.441782	-0.420951	-0.504806	-1.027359	-0.093693	-0.205316	-0.309824	0.928361	-0.957450	0.260159	-0.124926	-0.202817	-0.914509	-0.350055
33926	9.485124	-0.378887	0.217397	-0.494068	-1.129734	-0.114499	-0.206512	-0.320559	0.924443	-0.956683	0.264306	-0.122064	-0.205207	-0.909607	-0.361256
33927	9.330872	-0.565865	1.384448	-0.494360	-1.238636	-0.135538	-0.207726	-0.332161	0.920065	-0.955954	0.268330	-0.118957	-0.207368	-0.904250	-0.373270
33928	9.786310	-0.681057	2.939965	-0.456733	-1.385185	-0.145658	-0.209199	-0.345159	0.914932	-0.955314	0.271951	-0.115839	-0.208833	-0.898281	-0.386627
33929	10.115029	-0.235165	5.150824	-0.435880	-1.569125	-0.162530	-0.210886	-0.359654	0.908942	-0.954753	0.275261	-0.112598	-0.209700	-0.891561	-0.401430
33930	10.877270	0.819217	7.238806	-0.541877	-1.824078	-0.162733	-0.213146	-0.376394	0.901608	-0.953966	0.279464	-0.108856	-0.210994	-0.883305	-0.418633
33931	11.783257	2.378358	9.302783	-0.751324	-2.079210	-0.132151	-0.216256	-0.395036	0.892849	-0.952664	0.285533	-0.104411	-0.213692	-0.873165	-0.438085
33932	12.516243	3.867241	10.842696	-1.065933	-2.365427	-0.063880	-0.220723	-0.415797	0.882266	-0.950509	0.294501	-0.099003	-0.218664	-0.860454	-0.460222
33933	12.734053	5.228507	11.995790	-1.406607	-2.634730	0.003441	-0.226571	-0.438265	0.869822	-0.947384	0.306490	-0.092348	-0.226119	-0.844978	-0.484646
33934	13.472177	6.724749	11.566098	-1.722832	-2.956469	0.042008	-0.233733	-0.462877	0.855052	-0.943322	0.321058	-0.084059	-0.235612	-0.826237	-0.511683
33935	14.005215	7.119475	10.021095	-2.016699	-3.220434	0.085807	-0.242266	-0.488863	0.838046	-0.938263	0.337885	-0.074137	-0.246921	-0.804268	-0.540540
33936	13.769804	7.036593	6.822664	-2.060125	-3.384953	0.087087	-0.251537	-0.515388	0.819210	-0.932863	0.354621	-0.063332	-0.257868	-0.780141	-0.569987
33937	13.890759	5.936426	2.534828	-2.023007	-3.492877	0.116475	-0.261757	-0.541780	0.798722	-0.927259	0.370734	-0.052409	-0.267720	-0.754341	-0.599413
33938	15.966239	1.115009	-3.079015	-2.081511	-3.474524	0.136793	-0.272390	-0.566995	0.777380	-0.921233	0.386886	-0.040613	-0.277731	-0.727211	-0.627718
33939	17.263303	-4.196334	-6.249289	-1.776827	-3.255677	0.169567	-0.283065	-0.589600	0.756470	-0.915775	0.400532	-0.030497	-0.285009	-0.701389	-0.653317
33940	15.767912	-8.182983	-7.739217	-1.373604	-3.280743	0.091576	-0.293197	-0.611808	0.734661	-0.911590	0.410515	-0.021942	-0.288165	-0.676143	-0.678079
33941	14.559278	-10.697739	-10.021971	-0.699010	-3.358113	0.050477	-0.303230	-0.633923	0.711473	-0.909452	0.415443	-0.017449	-0.284515	-0.652341	-0.702497
33942	13.377715	-11.091612	-11.728883	0.225856	-3.285087	-0.072183	-0.311631	-0.655292	0.688098	-0.910319	0.413495	-0.018491	-0.272408	-0.632151	-0.725382
33943	14.473145	-11.424028	-12.628589	0.919365	-3.121014	-0.242314	-0.317596	-0.675766	0.665186	-0.913517	0.406116	-0.023588	-0.254203	-0.615150	-0.746305
33944	14.104201	-10.611290	-12.232468	1.713554	-2.686852	-0.470675	-0.319717	-0.693983	0.645112	-0.919182	0.392413	-0.033405	-0.229968	-0.603656	-0.763358
33945	12.852976	-9.247950	-12.743025	2.461467	-2.228332	-0.670130	-0.318280	-0.709945	0.628232	-0.926629	0.372891	-0.048064	-0.200139	-0.597436	-0.776540
33946	11.088386	-7.240389	-12.054820	3.182375	-1.692619	-0.783425	-0.314023	-0.722832	0.615551	-0.934936	0.348232	-0.068033	-0.165178	-0.596865	-0.785155
33947	8.799290	-3.651511	-11.886986	3.646480	-1.105655	-0.854092	-0.307576	-0.732322	0.607537	-0.942943	0.320139	-0.091487	-0.127498	-0.601012	-0.789005
33948	7.112597	1.105587	-12.776241	3.211153	-0.628177	-0.951581	-0.299221	-0.738985	0.603629	-0.949422	0.293705	-0.111067	-0.095212	-0.606332	-0.789491
33949	5.277096	1.463334	-11.341452	2.257211	-0.139570	-0.973439	-0.290028	-0.742602	0.603677	-0.954206	0.272711	-0.122965	-0.073315	-0.611695	-0.787689
33950	4.732829	1.416531	-9.293275	1.403121	0.248471	-0.804938	-0.282114	-0.743165	0.606727	-0.957464	0.258060	-0.129107	-0.060624	-0.617342	-0.784356
33951	6.067636	0.818451	-7.686373	0.530674	0.708728	-0.708506	-0.274859	-0.740573	0.613192	-0.959763	0.249475	-0.128908	-0.057510	-0.623951	-0.779345
33952	7.108811	-0.404956	-6.937288	-0.221352	1.310943	-0.754049	-0.266766	-0.734152	0.624385	-0.961687	0.245259	-0.122501	-0.063201	-0.633142	-0.771451
33953	6.805342	-1.002111	-7.278633	-0.656945	1.938260	-0.800295	-0.257682	-0.723723	0.640176	-0.963345	0.243591	-0.112383	-0.074607	-0.645670	-0.759963
33954	5.491579	-1.651045	-7.979262	-0.964171	2.373336	-0.722066	-0.248710	-0.709936	0.658888	-0.964395	0.244667	-0.100407	-0.089926	-0.660400	-0.745510
33955	4.667716	-2.185956	-8.416361	-1.182936	2.600725	-0.556977	-0.240722	-0.693942	0.678599	-0.964600	0.248626	-0.087929	-0.107700	-0.675744	-0.729227
33956	4.366043	-2.297113	-8.676867	-1.272896	2.837318	-0.349172	-0.233971	-0.675366	0.699384	-0.963950	0.254901	-0.076332	-0.126722	-0.692031	-0.710658
33957	4.079342	-2.302799	-8.408058	-1.275926	3.116487	-0.164032	-0.228093	-0.653958	0.721327	-0.962598	0.262720	-0.066203	-0.146213	-0.709448	-0.689423
33958	4.072936	-2.099995	-7.471586	-1.171140	3.419757	-0.084315	-0.221903	-0.629549	0.744599	-0.960976	0.270562	-0.057630	-0.165180	-0.728330	-0.665020
33959	4.462200	-1.897515	-6.537185	-1.057180	3.743233	-0.117850	-0.214199	-0.602236	0.769045	-0.959400	0.277614	-0.049819	-0.183494	-0.748493	-0.637250
33960	4.284231	-1.293850	-5.825001	-1.091386	3.967212	-0.175733	-0.204811	-0.572584	0.793852	-0.957674	0.284829	-0.041637	-0.202272	-0.768778	-0.606684
33961	4.131095	-1.667060	-5.779393	-1.185241	4.048672	-0.167013	-0.194584	-0.541558	0.817834	-0.955504	0.293098	-0.033254	-0.221697	-0.787914	-0.574493
33962	4.173907	-2.327381	-6.038376	-1.103967	4.091935	-0.045334	-0.184658	-0.509029	0.840709	-0.953051	0.301632	-0.026703	-0.239992	-0.806169	-0.540829
33963	3.979899	-2.251869	-6.054491	-0.904547	4.158910	0.101059	-0.175257	-0.474828	0.862452	-0.950634	0.309478	-0.022792	-0.256087	-0.823870	-0.505626
33964	3.973820	-1.737341	-6.007891	-0.746114	4.216400	0.225973	-0.166263	-0.438979	0.882980	-0.948292	0.316697	-0.021114	-0.270368	-0.840834	-0.468935
33965	4.410061	-1.451554	-6.211918	-0.617473	4.287036	0.336236	-0.157537	-0.401516	0.902201	-0.946046	0.323331	-0.021297	-0.283158	-0.856879	-0.430789
33966	4.850508	-1.616153	-6.757002	-0.517144	4.367344	0.407440	-0.148734	-0.362393	0.920081	-0.943935	0.329337	-0.022874	-0.294727	-0.871899	-0.391059
33967	5.138888	-2.070119	-7.108726	-0.372926	4.475010	0.464641	-0.139657	-0.321523	0.936546	-0.942155	0.334187	-0.025764	-0.304697	-0.885970	-0.349596
33968	5.199392	-2.722330	-7.353833	-0.191969	4.563801	0.520117	-0.130440	-0.279009	0.951388	-0.940866	0.337444	-0.030037	-0.312660	-0.899047	-0.306526
33969	5.136282	-3.154087	-7.561158	0.066855	4.593220	0.565429	-0.121232	-0.235529	0.964276	-0.940372	0.338280	-0.035600	-0.317811	-0.911094	-0.262496
33970	5.276963	-3.037828	-7.997807	0.366726	4.580399	0.596741	-0.112265	-0.191488	0.975053	-0.940791	0.336343	-0.042266	-0.319859	-0.922066	-0.217910
33971	5.150090	-1.829402	-7.746470	0.558707	4.527285	0.639258	-0.103763	-0.147393	0.983620	-0.941892	0.332237	-0.049576	-0.319488	-0.931608	-0.173303
33972	5.857614	0.070641	-6.817902	0.428038	4.403467	0.710884	-0.096401	-0.103839	0.989911	-0.942495	0.329282	-0.057243	-0.320016	-0.938505	-0.129611
33973	7.071482	1.315284	-5.523947	0.038475	4.439651	0.774981	-0.089366	-0.059539	0.994218	-0.941904	0.329548	-0.064928	-0.323776	-0.942260	-0.085530
33974	7.625670	1.696822	-4.822647	-0.521274	4.582636	0.761439	-0.081492	-0.013820	0.996578	-0.939485	0.334899	-0.072179	-0.332755	-0.942153	-0.040275
33975	7.465166	1.600568	-4.846297	-1.175802	4.616506	0.746876	-0.072747	0.032113	0.996833	-0.934915	0.345883	-0.079371	-0.347337	-0.937728	0.004861
33976	7.372525	0.786630	-5.015464	-1.765645	4.477981	0.782651	-0.064045	0.076662	0.994998	-0.928073	0.361942	-0.087624	-0.366849	-0.929043	0.047968
33977	8.174371	0.126378	-4.732675	-2.107363	4.226891	0.935225	-0.056667	0.119147	0.991258	-0.919548	0.380485	-0.098301	-0.388871	-0.917080	0.088001
33978	9.098426	-0.516852	-3.802414	-2.203581	3.896078	1.118907	-0.051320	0.158930	0.985955	-0.910126	0.398994	-0.111688	-0.411140	-0.903075	0.124170
33979	9.324548	-1.482520	-1.728732	-2.160625	3.540848	1.208611	-0.047281	0.195558	0.979552	-0.900419	0.416209	-0.126554	-0.432447	-0.887990	0.156405
33980	8.843755	-2.032109	0.622893	-1.953803	2.957185	1.172242	-0.044721	0.226519	0.972980	-0.891241	0.430958	-0.141295	-0.451319	-0.873478	0.182610
33981	8.623534	-1.946407	1.951273	-1.699442	2.209500	1.078074	-0.044092	0.250376	0.967144	-0.882959	0.443133	-0.154973	-0.467376	-0.860781	0.201533
33982	8.064002	-1.523306	3.050750	-1.379709	1.474631	0.971396	-0.045657	0.267293	0.962533	-0.875980	0.452443	-0.167194	-0.480181	-0.850794	0.213487
33983	7.141077	-0.616138	1.930243	-1.098642	0.650155	0.852944	-0.049907	0.276675	0.959667	-0.870246	0.459444	-0.177716	-0.490082	-0.844016	0.217846
33984	6.281603	-0.905254	1.319079	-0.669649	-0.074222	0.776323	-0.057021	0.279579	0.958428	-0.866524	0.462944	-0.186596	-0.495867	-0.841141	0.215864
33985	5.862328	-0.429974	-0.263216	-0.155643	-0.725446	0.682504	-0.066489	0.276613	0.958679	-0.865334	0.462367	-0.193424	-0.496765	-0.842438	0.208620
33986	5.426789	-0.987385	-1.193594	0.249558	-1.242726	0.590146	-0.077758	0.268779	0.960058	-0.866139	0.458668	-0.198561	-0.493717	-0.846984	0.197135
33987	5.820496	-1.322099	-3.508446	0.815905	-1.691694	0.464031	-0.090024	0.256474	0.962350	-0.869749	0.450515	-0.201428	-0.485214	-0.855136	0.182511
33988	4.895723	-1.713537	-5.981004	1.442133	-1.947642	0.246986	-0.101500	0.240745	0.965267	-0.876400	0.437506	-0.201273	-0.470765	-0.866389	0.166582
33989	5.066800	-0.904815	-8.708686	2.027005	-2.250806	0.070217	-0.112444	0.221372	0.968685	-0.885669	0.419649	-0.198710	-0.450496	-0.880278	0.148875
33990	5.747716	-2.517350	-10.203211	2.361851	-2.202862	-0.059662	-0.121598	0.201499	0.971912	-0.896094	0.398833	-0.194799	-0.426883	-0.894612	0.132065
33991	6.910268	-4.877149	-10.118473	2.793807	-1.942210	-0.133930	-0.128369	0.183451	0.974611	-0.907810	0.373899	-0.189949	-0.399252	-0.909145	0.118542
33992	9.939229	-5.258037	-7.240133	3.110389	-1.475594	-0.162919	-0.132585	0.169247	0.976615	-0.919961	0.345713	-0.184806	-0.368907	-0.922950	0.109864
33993	18.806773	-2.607770	3.027946	3.928175	-0.403857	-0.082790	-0.133189	0.165211	0.977224	-0.933846	0.309332	-0.179573	-0.331954	-0.936493	0.113082
33994	37.986507	10.359288	23.122688	5.207031	-0.164726	0.160923	-0.135254	0.164011	0.977142	-0.949627	0.259921	-0.175072	-0.282694	-0.951599	0.120594
33995	19.965038	12.153951	3.007567	1.920585	-1.823603	0.121703	-0.141333	0.146885	0.979004	-0.954695	0.241386	-0.174040	-0.261882	-0.959248	0.106115
33996	9.019945	10.382086	0.022872	0.037502	-3.191152	0.254279	-0.152030	0.116728	0.981459	-0.954420	0.240710	-0.176470	-0.256846	-0.963552	0.074813
33997	7.929015	7.693919	-5.186777	-0.345666	-3.356249	-0.015947	-0.160421	0.084299	0.983442	-0.953568	0.244064	-0.176469	-0.254899	-0.966088	0.041232
33998	8.566857	7.711617	-9.413019	-0.382726	-3.122648	0.234382	-0.170559	0.054584	0.983834	-0.952213	0.247621	-0.178815	-0.253379	-0.967318	0.009741
33999	9.071590	4.292940	-13.538493	-0.937614	-2.261030	0.661646	-0.182587	0.034387	0.982588	-0.948654	0.256391	-0.185255	-0.258297	-0.965961	-0.014192
34000	8.680165	-0.378935	-9.536384	-0.939771	-0.777453	0.682283	-0.191040	0.028528	0.981168	-0.944925	0.265270	-0.191697	-0.265743	-0.963752	-0.023720
34001	6.600977	-5.747583	-4.228514	-0.907986	-0.855178	0.702248	-0.199920	0.022182	0.979561	-0.941118	0.273832	-0.198275	-0.272633	-0.961522	-0.033869
34002	8.392397	-6.954150	-6.550632	-0.914807	-1.412550	0.575971	-0.209186	0.010065	0.977824	-0.937427	0.282556	-0.203453	-0.278338	-0.959198	-0.049671
34003	10.663264	-7.411566	-6.441699	-0.896286	-1.083470	0.343663	-0.215407	0.000664	0.976524	-0.934186	0.291122	-0.206265	-0.284424	-0.956686	-0.062089
34004	12.452269	-6.201235	-5.598117	-0.925241	-0.963293	0.131468	-0.219388	-0.008275	0.975603	-0.931190	0.300161	-0.206855	-0.291126	-0.953853	-0.073558
34005	12.394522	-3.933575	-4.851094	-1.122209	-0.687861	-0.060148	-0.220818	-0.015017	0.975199	-0.928016	0.310836	-0.205347	-0.300044	-0.950345	-0.082574
34006	10.113658	-4.110650	-5.045073	-1.523820	-0.540779	-0.243967	-0.220212	-0.021053	0.975225	-0.923829	0.325431	-0.201581	-0.313124	-0.945331	-0.091113
34007	9.659414	-5.503788	-6.725614	-1.581953	-0.492041	-0.397545	-0.218077	-0.027025	0.975557	-0.919650	0.340245	-0.196155	-0.326627	-0.939949	-0.099053
34008	10.116217	-5.847829	-7.100514	-1.138267	-0.449168	-0.404403	-0.215861	-0.032780	0.975874	-0.916695	0.350992	-0.190981	-0.336264	-0.935804	-0.105815
34009	10.153538	-5.214089	-6.118742	-0.583177	-0.477131	-0.328191	-0.214426	-0.038411	0.975985	-0.915438	0.356323	-0.187100	-0.340579	-0.933573	-0.111568
34010	10.111410	-4.550052	-5.271432	-0.084450	-0.538390	-0.241730	-0.214069	-0.044453	0.975806	-0.915605	0.357203	-0.184590	-0.340356	-0.932968	-0.117168
34011	9.911161	-3.851630	-4.341431	0.335500	-0.556555	-0.212534	-0.213960	-0.050416	0.975541	-0.917205	0.353967	-0.182873	-0.336089	-0.933898	-0.121976
34012	9.851768	-2.858225	-3.117742	0.584682	-0.548609	-0.213161	-0.213863	-0.056453	0.975231	-0.919543	0.348580	-0.181473	-0.329701	-0.935577	-0.126459
34013	9.880633	-1.669211	-1.806286	0.635437	-0.486122	-0.172285	-0.213818	-0.061611	0.974929	-0.921995	0.342522	-0.180563	-0.322810	-0.937487	-0.130043
34014	9.549295	-0.751555	-0.682160	0.489968	-0.386656	-0.135903	-0.213840	-0.065862	0.974646	-0.923792	0.338032	-0.179840	-0.317617	-0.938827	-0.133127
34015	9.497213	-0.554218	-0.220143	0.255097	-0.358291	-0.124597	-0.213776	-0.069657	0.974396	-0.924875	0.335546	-0.178924	-0.314492	-0.939445	-0.136156
34016	9.929567	-0.876287	-0.053422	0.123068	-0.384686	-0.120306	-0.213904	-0.073832	0.974061	-0.925458	0.334496	-0.177877	-0.312686	-0.939501	-0.139878
34017	10.117318	-1.340643	0.236767	0.087852	-0.409534	-0.127764	-0.213954	-0.078116	0.973715	-0.926016	0.333568	-0.176713	-0.310996	-0.939484	-0.143705
34018	9.935285	-1.319571	0.708115	0.064809	-0.457886	-0.147519	-0.214041	-0.083062	0.973287	-0.926473	0.333031	-0.175325	-0.309572	-0.939250	-0.148237
34019	9.623995	-1.368649	0.751670	0.029134	-0.491571	-0.173065	-0.213912	-0.088264	0.972857	-0.926944	0.332603	-0.173640	-0.308249	-0.938927	-0.152964
34020	9.309696	-1.297565	0.668970	-0.020004	-0.550303	-0.186555	-0.213907	-0.094196	0.972302	-0.927222	0.332809	-0.171747	-0.307413	-0.938278	-0.158531
34021	9.106182	-0.989071	0.688494	-0.085546	-0.597639	-0.194596	-0.213894	-0.100460	0.971677	-0.927386	0.333415	-0.169673	-0.306927	-0.937413	-0.164480
34022	8.784377	-0.915328	0.726297	-0.210562	-0.638697	-0.205955	-0.213977	-0.107270	0.970931	-0.927122	0.335359	-0.167271	-0.307668	-0.935963	-0.171212
34023	8.687292	-1.312797	0.389950	-0.300461	-0.684684	-0.222677	-0.213980	-0.114433	0.970112	-0.926682	0.337915	-0.164540	-0.308987	-0.934194	-0.178350
34024	8.820779	-1.730002	-0.038255	-0.341845	-0.734985	-0.225455	-0.214198	-0.122190	0.969118	-0.926047	0.341021	-0.161681	-0.310734	-0.932081	-0.186200
34025	9.110388	-2.500829	-0.524607	-0.326753	-0.778725	-0.230530	-0.214444	-0.130240	0.968014	-0.925534	0.343765	-0.158783	-0.312089	-0.929980	-0.194260
34026	9.441666	-2.775516	-0.709759	-0.253669	-0.806175	-0.237429	-0.214799	-0.138676	0.966763	-0.925192	0.345982	-0.155934	-0.312859	-0.927936	-0.202618
34027	9.727674	-2.628428	-0.919841	-0.160197	-0.842036	-0.243161	-0.215138	-0.147335	0.965406	-0.925225	0.347111	-0.153209	-0.312530	-0.926178	-0.210995
34028	9.683049	-2.179221	-0.750944	-0.107264	-0.884724	-0.262888	-0.215503	-0.156557	0.963872	-0.925397	0.347882	-0.150396	-0.311768	-0.924374	-0.219847
34029	9.832824	-1.715540	-0.374373	-0.095996	-0.949111	-0.278742	-0.215832	-0.166303	0.962164	-0.925710	0.348309	-0.147452	-0.310609	-0.922510	-0.229125
34030	9.986022	-1.224358	0.094836	-0.098106	-1.000458	-0.292258	-0.216267	-0.176656	0.960219	-0.925978	0.348887	-0.144369	-0.309504	-0.920364	-0.239033
34031	10.346456	-0.402574	0.561687	-0.122350	-1.071945	-0.303333	-0.216725	-0.187580	0.958042	-0.926268	0.349449	-0.141117	-0.308316	-0.917987	-0.249483
34032	10.423473	0.371667	1.508542	-0.192605	-1.152662	-0.305840	-0.217481	-0.199322	0.955496	-0.926280	0.350794	-0.137653	-0.307745	-0.914994	-0.260919
34033	10.449055	0.952128	2.715166	-0.351901	-1.272441	-0.307139	-0.218511	-0.212033	0.952520	-0.925877	0.353364	-0.133739	-0.308229	-0.911140	-0.273531
34034	10.579871	0.853407	3.662829	-0.522896	-1.405289	-0.312587	-0.219996	-0.226010	0.948958	-0.924888	0.357599	-0.129248	-0.310135	-0.906114	-0.287704
34035	10.760581	0.715667	4.562458	-0.626172	-1.548739	-0.322721	-0.221791	-0.241172	0.944799	-0.923662	0.362488	-0.124299	-0.312501	-0.900244	-0.303157
34036	10.822426	0.864534	5.718469	-0.698419	-1.737612	-0.336883	-0.224162	-0.258063	0.939763	-0.922165	0.368073	-0.118889	-0.315220	-0.893267	-0.320485
34037	10.723526	1.369529	6.853450	-0.783375	-1.954076	-0.344873	-0.227127	-0.276732	0.933720	-0.920473	0.374103	-0.113030	-0.318028	-0.885137	-0.339693
34038	10.796343	2.116634	7.665362	-0.900206	-2.209336	-0.336026	-0.231120	-0.297505	0.926323	-0.918308	0.381219	-0.106686	-0.321392	-0.875308	-0.361308
34039	11.315340	3.277474	7.717743	-1.062835	-2.460227	-0.295971	-0.236319	-0.320050	0.917454	-0.915574	0.389530	-0.099949	-0.325387	-0.863617	-0.385083
34040	12.148207	4.182161	7.179810	-1.273286	-2.672957	-0.229035	-0.243004	-0.343883	0.907024	-0.911889	0.399828	-0.092719	-0.330769	-0.849636	-0.410743
34041	13.003190	5.472720	5.054226	-1.500446	-2.868654	-0.188495	-0.250829	-0.368804	0.895024	-0.907353	0.411765	-0.084612	-0.337334	-0.833327	-0.437918
34042	13.902883	6.082051	3.083408	-1.672257	-2.996363	-0.128991	-0.259879	-0.394046	0.881584	-0.901919	0.425199	-0.075821	-0.344972	-0.814821	-0.465898
34043	13.980546	5.901507	3.354432	-1.825042	-3.110401	-0.102538	-0.269773	-0.419533	0.866727	-0.895832	0.439446	-0.066121	-0.353140	-0.794279	-0.494381
34044	15.204740	5.044393	5.547486	-1.810833	-3.231442	-0.044670	-0.280810	-0.445084	0.850321	-0.889510	0.453420	-0.056418	-0.360442	-0.772211	-0.523232
34045	15.899000	5.241434	6.521818	-1.738144	-3.343398	-0.038468	-0.292576	-0.470710	0.832365	-0.883317	0.466442	-0.046709	-0.366264	-0.748908	-0.552256
34046	15.286849	2.132317	3.137140	-1.899523	-3.385793	-0.042862	-0.304599	-0.495862	0.813229	-0.876441	0.480201	-0.035475	-0.372922	-0.723553	-0.580862
34047	13.738161	-2.712749	-2.031366	-1.788660	-3.275309	-0.104415	-0.315950	-0.519675	0.793797	-0.870060	0.492362	-0.023969	-0.378379	-0.698225	-0.607710
34048	13.776849	-6.349745	-8.155413	-1.578321	-3.250459	-0.139247	-0.326975	-0.542661	0.773697	-0.864525	0.502422	-0.012969	-0.381684	-0.673121	-0.633424
34049	13.941324	-9.296548	-12.787203	-1.129983	-3.069808	-0.087326	-0.337891	-0.563439	0.753900	-0.860521	0.509391	-0.004977	-0.381226	-0.650429	-0.656970
34050	13.009320	-12.086818	-14.049130	-0.487478	-2.887040	-0.063356	-0.348169	-0.582264	0.734675	-0.858910	0.512126	-0.001161	-0.375570	-0.631423	-0.678419
34051	12.505647	-12.718569	-13.762827	0.325996	-2.898920	-0.211099	-0.357011	-0.601443	0.714709	-0.860874	0.508815	-0.001845	-0.362545	-0.615933	-0.699420
34052	12.107690	-12.472446	-12.047996	1.269087	-2.735530	-0.495347	-0.362287	-0.620635	0.695385	-0.867143	0.498006	-0.007297	-0.341777	-0.605642	-0.718601
34053	10.473472	-10.280227	-11.355780	2.226233	-2.428122	-0.775497	-0.363437	-0.639099	0.677839	-0.877270	0.479656	-0.018124	-0.313546	-0.601234	-0.734987
34054	9.359317	-7.455853	-11.728881	2.739791	-2.054634	-0.941330	-0.361182	-0.655837	0.662891	-0.888857	0.457059	-0.032107	-0.281923	-0.600812	-0.748027
34055	7.853888	-5.748358	-11.006596	2.926084	-1.580303	-0.969901	-0.356667	-0.669687	0.651389	-0.900140	0.432979	-0.047729	-0.250074	-0.603364	-0.757241
34056	6.347835	-2.780641	-11.336738	3.121597	-1.037928	-0.927175	-0.350652	-0.679855	0.644081	-0.910746	0.407752	-0.065430	-0.218142	-0.609537	-0.762154
34057	5.829349	-0.001975	-11.448118	2.737410	-0.596498	-0.892022	-0.343666	-0.687062	0.640187	-0.919460	0.384842	-0.080564	-0.191019	-0.616313	-0.763983
34058	3.509451	2.007410	-10.331752	1.954854	-0.113741	-0.859296	-0.335896	-0.690974	0.640100	-0.925950	0.366769	-0.089978	-0.172596	-0.622925	-0.763004
34059	2.535385	2.373970	-8.805419	0.972430	0.154751	-0.687277	-0.329215	-0.692503	0.641917	-0.929889	0.355902	-0.092956	-0.164087	-0.627513	-0.761119
34060	4.282539	1.490307	-7.784154	0.245656	0.491638	-0.507873	-0.323632	-0.691187	0.646160	-0.931965	0.350803	-0.091530	-0.163410	-0.631821	-0.757694
34061	5.293883	0.538792	-6.486461	-0.208622	1.038215	-0.537445	-0.316852	-0.686485	0.654479	-0.933355	0.348393	-0.086433	-0.168681	-0.638248	-0.751124
34062	5.063619	-0.331394	-6.262021	-0.581075	1.544581	-0.580189	-0.308697	-0.678568	0.666521	-0.934176	0.348130	-0.078239	-0.178946	-0.646800	-0.741369
34063	4.442414	-1.186847	-6.548330	-0.852628	1.856418	-0.530371	-0.300250	-0.668336	0.680571	-0.934221	0.350081	-0.068366	-0.192564	-0.656331	-0.729486
34064	4.183391	-1.939860	-6.532737	-0.944298	2.063933	-0.372758	-0.292589	-0.655982	0.695759	-0.933452	0.353825	-0.058950	-0.207507	-0.666705	-0.715853
34065	3.832640	-2.290456	-6.426815	-0.833805	2.313139	-0.181149	-0.285887	-0.641077	0.712242	-0.932199	0.358228	-0.051740	-0.221976	-0.678743	-0.700025
34066	3.299654	-2.371505	-6.062948	-0.794463	2.479944	-0.013408	-0.280031	-0.624121	0.729421	-0.930430	0.363554	-0.046128	-0.236395	-0.691593	-0.682508
34067	3.459697	-2.430285	-5.840967	-0.717039	2.663273	0.107011	-0.274498	-0.605139	0.747300	-0.928401	0.369191	-0.042061	-0.250444	-0.705340	-0.663154
34068	3.672544	-2.108172	-5.636375	-0.581567	2.898657	0.148666	-0.268382	-0.583911	0.766172	-0.926516	0.374190	-0.039373	-0.263703	-0.720437	-0.641429
