// General information: 
//  MT Manager version: 2022.2.0 
//  XDA version: 2022.2.0 build 7381 rev 124627 built on 2023-07-19
// Device information: 
//  DeviceId: 00B4CB9F
//  ProductCode: MTW2-3A7G6
//  Firmware Version: 4.6.0
//  Hardware Version: 2.0.0
// Device settings: 
//  Filter Profile: human(46.1)
//  Option Flags: Orientation Smoother Disabled, Position/Velocity Smoother Disabled, Continuous Zero Rotation Update Disabled, AHS Disabled, ICC Disabled
// Coordinate system: ENU
PacketCounter	Acc_X	Acc_Y	Acc_Z	Gyr_X	Gyr_Y	Gyr_Z	Mat[1][1]	Mat[2][1]	Mat[3][1]	Mat[1][2]	Mat[2][2]	Mat[3][2]	Mat[1][3]	Mat[2][3]	Mat[3][3]
53823	10.004909	-2.659996	-0.425595	-0.657823	-0.902937	-0.107035	0.032250	-0.117217	0.992583	-0.018862	-0.992994	-0.116652	0.999302	-0.014960	-0.034235
53824	9.810756	-2.256367	-0.751572	-0.520387	-0.939795	-0.096382	0.041691	-0.116457	0.992320	-0.024092	-0.993012	-0.115526	0.998840	-0.019090	-0.044205
53825	9.086521	-1.623790	-0.879547	-0.567853	-0.983839	-0.104015	0.051578	-0.115680	0.991946	-0.029672	-0.993008	-0.114261	0.998228	-0.023540	-0.054650
53826	8.894304	-1.897821	-1.525557	-0.538753	-1.044509	-0.143188	0.062079	-0.114567	0.991474	-0.035027	-0.993028	-0.112553	0.997456	-0.027741	-0.065659
53827	9.342532	-2.409608	-1.794416	-0.276963	-1.077425	-0.264432	0.072952	-0.112294	0.990993	-0.037569	-0.993245	-0.109784	0.996628	-0.029222	-0.076678
53828	9.481311	-2.488985	-1.363599	-0.016681	-0.964704	-0.337608	0.082724	-0.109263	0.990565	-0.037530	-0.993608	-0.106464	0.995866	-0.028369	-0.086295
53829	9.268439	-1.947774	-1.439427	0.120573	-0.888973	-0.409444	0.091759	-0.105482	0.990179	-0.035932	-0.994077	-0.102568	0.995133	-0.026168	-0.095005
53830	9.108097	-1.624857	-1.679617	0.080452	-0.817010	-0.433188	0.100073	-0.101430	0.989797	-0.034782	-0.994539	-0.098400	0.994372	-0.024580	-0.103054
53831	9.107191	-1.959090	-1.834806	0.128266	-0.876689	-0.401926	0.108958	-0.097684	0.989235	-0.033048	-0.994966	-0.094610	0.993497	-0.022384	-0.111638
53832	9.740260	-1.671594	-1.561018	0.313445	-0.901464	-0.359991	0.118057	-0.094337	0.988516	-0.029606	-0.995369	-0.091455	0.992565	-0.018469	-0.120303
53833	9.782464	-0.656292	-0.871095	0.474506	-0.825116	-0.331175	0.126368	-0.091216	0.987781	-0.024455	-0.995747	-0.088823	0.991682	-0.012932	-0.128061
53834	9.560885	0.408965	-0.169190	0.488633	-0.827034	-0.314090	0.134670	-0.088224	0.986955	-0.019275	-0.996073	-0.086409	0.990703	-0.007386	-0.135842
53835	10.003402	0.771892	-0.263242	0.247075	-0.883899	-0.238298	0.143500	-0.085947	0.985911	-0.016460	-0.996291	-0.084456	0.989513	-0.004108	-0.144383
53836	10.405550	0.605494	-0.733943	-0.123800	-0.758022	-0.195218	0.151066	-0.084087	0.984941	-0.017456	-0.996447	-0.082392	0.988369	-0.004747	-0.151998
53837	9.974003	0.004457	-0.822355	-0.499079	-0.626374	-0.162623	0.157322	-0.082556	0.984091	-0.022099	-0.996544	-0.080068	0.987300	-0.009151	-0.158602
53838	9.628347	-0.963705	-0.836965	-0.672158	-0.642895	-0.141810	0.163735	-0.081274	0.983151	-0.028576	-0.996573	-0.077625	0.986090	-0.015384	-0.165497
53839	9.673410	-1.179721	-1.564457	-0.671415	-0.653842	-0.141388	0.170258	-0.080032	0.982144	-0.034921	-0.996560	-0.075153	0.984781	-0.021501	-0.172467
53840	9.564122	-1.035301	-2.420957	-0.641165	-0.587998	-0.156204	0.176138	-0.078675	0.981216	-0.041039	-0.996521	-0.072536	0.983510	-0.027492	-0.178754
53841	9.732974	-1.582243	-2.566923	-0.623250	-0.527871	-0.193383	0.181445	-0.076955	0.980385	-0.046784	-0.996480	-0.069560	0.982288	-0.033246	-0.184407
53842	9.812918	-2.050717	-2.292917	-0.501602	-0.454488	-0.212880	0.186046	-0.075053	0.979670	-0.051389	-0.996457	-0.066580	0.981196	-0.037957	-0.189243
53843	9.765128	-1.745052	-1.521095	-0.355335	-0.514668	-0.189598	0.191227	-0.073414	0.978797	-0.054481	-0.996456	-0.064094	0.980033	-0.041070	-0.194549
53844	9.865381	-1.621980	-1.102219	-0.216626	-0.573400	-0.094328	0.196931	-0.072772	0.977713	-0.056470	-0.996428	-0.062791	0.978790	-0.042846	-0.200337
53845	9.738855	-1.438918	-0.724212	-0.252707	-0.649767	-0.002537	0.203321	-0.073079	0.976381	-0.058903	-0.996317	-0.062305	0.977339	-0.044844	-0.206876
53846	10.103811	-1.305115	-0.602736	-0.445753	-0.670887	0.049716	0.209874	-0.073950	0.974928	-0.063426	-0.996065	-0.061900	0.975669	-0.048844	-0.213739
53847	10.347160	-1.451017	-0.828699	-0.626841	-0.566380	0.057927	0.215390	-0.074867	0.973654	-0.069627	-0.995697	-0.061160	0.974043	-0.054619	-0.219676
53848	10.539897	-1.598186	-1.185308	-0.687543	-0.454826	0.019338	0.219833	-0.075386	0.972620	-0.076422	-0.995277	-0.059869	0.972540	-0.061168	-0.224556
53849	10.566491	-1.764765	-1.336869	-0.768331	-0.345983	-0.008734	0.223235	-0.075571	0.971831	-0.083837	-0.994784	-0.058098	0.971153	-0.068506	-0.228406
53850	10.201517	-1.725828	-1.549307	-0.845027	-0.268599	-0.022960	0.225890	-0.075603	0.971215	-0.092044	-0.994180	-0.055982	0.969795	-0.076749	-0.231534
53851	9.988066	-1.680046	-1.692835	-0.938263	-0.235537	-0.032509	0.228235	-0.075520	0.970673	-0.101031	-0.993442	-0.053536	0.968350	-0.085849	-0.234368
53852	9.710232	-1.331531	-1.793671	-1.010415	-0.204420	-0.058512	0.230303	-0.075190	0.970210	-0.110723	-0.992560	-0.050639	0.966799	-0.095762	-0.236914
53853	9.454802	-0.715388	-1.999802	-1.076089	-0.194910	-0.095718	0.232326	-0.074486	0.969782	-0.120864	-0.991546	-0.047203	0.965099	-0.106245	-0.239365
53854	9.421018	-0.274833	-2.417787	-1.154211	-0.224287	-0.125549	0.234673	-0.073560	0.969287	-0.131749	-0.990339	-0.043260	0.963105	-0.117550	-0.242097
53855	9.614913	-0.174716	-3.010333	-1.254496	-0.262406	-0.139848	0.237419	-0.072550	0.968694	-0.143455	-0.988892	-0.038903	0.960757	-0.129727	-0.245189
53856	9.911608	-0.464762	-3.486421	-1.270605	-0.260108	-0.146062	0.240158	-0.071528	0.968095	-0.155342	-0.987261	-0.034408	0.958224	-0.142122	-0.248210
53857	10.195887	-0.771615	-3.514124	-1.165042	-0.227242	-0.155059	0.242610	-0.070384	0.967567	-0.166086	-0.985653	-0.030055	0.955801	-0.153408	-0.250819
53858	10.728989	-1.038270	-3.311360	-0.997943	-0.248216	-0.154907	0.245269	-0.069322	0.966973	-0.175289	-0.984171	-0.026093	0.953476	-0.163100	-0.253538
53859	10.871276	-0.753601	-2.801524	-0.885876	-0.207299	-0.178293	0.247590	-0.067966	0.966478	-0.183257	-0.982815	-0.022169	0.951376	-0.171625	-0.255790
53860	10.880392	-0.852998	-2.138565	-0.842895	-0.140978	-0.207025	0.249343	-0.066249	0.966147	-0.190788	-0.981465	-0.018061	0.949436	-0.179826	-0.257361
53861	10.990263	-1.118033	-1.523082	-0.667684	-0.037230	-0.222655	0.250153	-0.064185	0.966076	-0.196536	-0.980393	-0.014245	0.948049	-0.186306	-0.257863
53862	11.106802	-1.119031	-0.860990	-0.473018	0.094375	-0.201253	0.249681	-0.062106	0.966334	-0.200564	-0.979617	-0.011138	0.947330	-0.191031	-0.257048
53863	10.868818	-1.676940	-0.148248	-0.448137	0.302485	-0.139162	0.247123	-0.060210	0.967112	-0.204433	-0.978842	-0.008702	0.947173	-0.195559	-0.254204
53864	10.561229	-2.770495	0.012880	-0.506829	0.487054	-0.087049	0.242710	-0.058466	0.968335	-0.209068	-0.977879	-0.006640	0.947303	-0.200836	-0.249564
53865	10.641350	-3.745482	-0.904542	-0.516181	0.554987	-0.072890	0.237631	-0.056676	0.969701	-0.213753	-0.976876	-0.004714	0.947545	-0.206156	-0.244251
53866	10.887698	-3.966231	-2.036749	-0.360749	0.577136	-0.086300	0.232364	-0.054706	0.971089	-0.217008	-0.976165	-0.003066	0.948111	-0.210022	-0.238697
53867	10.880821	-3.079340	-2.545806	-0.150146	0.568685	-0.055963	0.227116	-0.053013	0.972424	-0.218273	-0.975885	-0.002222	0.949092	-0.211749	-0.233211
53868	11.198613	-1.800203	-2.935910	0.030230	0.534657	-0.051622	0.222168	-0.051453	0.973650	-0.217902	-0.975969	-0.001854	0.950347	-0.211749	-0.228041
53869	10.986991	-0.578692	-3.167184	0.296873	0.557103	-0.091765	0.217092	-0.049437	0.974899	-0.214845	-0.976647	-0.001683	0.952215	-0.209087	-0.222643
53870	10.334415	0.214339	-2.594855	0.519307	0.592919	-0.118634	0.211708	-0.047128	0.976196	-0.209669	-0.977771	-0.001733	0.954578	-0.204311	-0.216884
53871	9.765251	0.173442	-1.349503	0.649625	0.686832	-0.133557	0.205444	-0.044491	0.977657	-0.203148	-0.979146	-0.001869	0.957353	-0.198225	-0.210198
53872	9.160713	-0.213354	-0.225475	0.753986	0.800894	-0.174311	0.198130	-0.041298	0.979305	-0.195595	-0.980683	-0.001784	0.960462	-0.191194	-0.202380
53873	8.864941	-0.556809	0.614977	0.816709	0.892379	-0.210732	0.189974	-0.037609	0.981068	-0.187295	-0.982303	-0.001389	0.963758	-0.183486	-0.193656
53874	8.875789	-0.799966	1.476504	0.778456	1.021939	-0.213333	0.180517	-0.033746	0.982993	-0.179401	-0.983776	-0.000828	0.967072	-0.176200	-0.183643
53875	8.871044	-0.974059	2.221956	0.651626	1.163765	-0.166928	0.169566	-0.030139	0.985058	-0.172762	-0.984964	-0.000397	0.970258	-0.170113	-0.172223
53876	8.782479	-1.352825	2.501552	0.554109	1.268414	-0.067062	0.157369	-0.027423	0.987159	-0.167287	-0.985908	-0.000720	0.973268	-0.165026	-0.159739
53877	8.625634	-1.638913	2.427320	0.590315	1.370289	0.017078	0.144011	-0.025419	0.989250	-0.161523	-0.986867	-0.001844	0.976305	-0.159521	-0.146226
53878	8.805261	-1.773361	2.594227	0.652481	1.561088	0.093351	0.128609	-0.023968	0.991406	-0.155296	-0.987861	-0.003737	0.979461	-0.153481	-0.130770
53879	9.194299	-1.942529	2.965485	0.772451	1.839771	0.168034	0.110332	-0.022923	0.993630	-0.147880	-0.988985	-0.006395	0.982832	-0.146232	-0.112506
53880	9.477657	-1.907434	3.562905	0.876150	2.121676	0.250081	0.089091	-0.022450	0.995770	-0.139522	-0.990170	-0.009841	0.986203	-0.138055	-0.091348
53881	10.408339	-1.832923	3.761177	0.934005	2.342759	0.358050	0.065496	-0.022916	0.997590	-0.130533	-0.991342	-0.014203	0.989278	-0.129288	-0.067920
53882	12.009244	-2.008519	2.923435	0.922116	2.651514	0.468735	0.038642	-0.024317	0.998957	-0.121660	-0.992381	-0.019451	0.991819	-0.120781	-0.041306
53883	13.296419	-2.403568	0.261171	0.812716	2.998718	0.558220	0.008247	-0.026397	0.999618	-0.113680	-0.993195	-0.025290	0.993483	-0.113428	-0.011192
53884	13.532045	-1.392136	-2.882071	1.119094	3.015594	0.476936	-0.022244	-0.027935	0.999362	-0.102548	-0.994273	-0.030075	0.994479	-0.103152	0.019252
53885	13.141766	0.192768	-2.582727	1.161749	2.719972	0.345379	-0.049600	-0.028762	0.998355	-0.090823	-0.995314	-0.033186	0.994631	-0.092320	0.046755
53886	13.396478	1.051775	-1.793103	0.898455	2.320832	0.342063	-0.072966	-0.030184	0.996878	-0.081680	-0.996003	-0.036136	0.993984	-0.084061	0.070209
53887	14.056122	1.705900	-1.670732	0.736143	2.155343	0.343299	-0.094612	-0.031913	0.995003	-0.074032	-0.996493	-0.039000	0.992758	-0.077352	0.091917
53888	14.583332	2.169904	-2.870343	0.771961	2.189957	0.307546	-0.116540	-0.033418	0.992624	-0.066053	-0.996960	-0.041319	0.990987	-0.070381	0.113978
53889	12.715690	2.460724	-3.177739	0.975221	2.339520	0.375354	-0.139892	-0.035667	0.989524	-0.055869	-0.997475	-0.043852	0.988589	-0.061418	0.137546
53890	10.538904	2.748581	-2.223832	0.820236	2.128007	0.434282	-0.161108	-0.038823	0.986173	-0.047120	-0.997784	-0.046978	0.985811	-0.054037	0.158922
53891	10.351196	2.018853	-1.849454	0.390872	1.849796	0.687034	-0.179589	-0.044755	0.982723	-0.042051	-0.997702	-0.053122	0.982842	-0.050865	0.177295
53892	10.737621	0.855367	-1.226672	-0.056418	1.819330	0.789648	-0.197748	-0.051739	0.978887	-0.041118	-0.997289	-0.061018	0.979390	-0.052316	0.195084
53893	11.641917	0.216720	-0.738600	-0.505324	1.720115	0.777872	-0.214861	-0.058590	0.974886	-0.044400	-0.996581	-0.069680	0.975635	-0.058257	0.211525
53894	11.503750	-1.100620	-1.052811	-0.491221	1.769635	0.718163	-0.232398	-0.064703	0.970466	-0.047579	-0.995834	-0.077788	0.971456	-0.064252	0.228351
53895	9.584780	-1.221382	-1.010648	-0.031722	1.747863	0.580949	-0.249581	-0.069400	0.965864	-0.046433	-0.995424	-0.083522	0.967240	-0.065693	0.245216
53896	8.193901	-0.456329	-0.737272	0.409097	1.534411	0.527036	-0.264598	-0.073704	0.961538	-0.041121	-0.995306	-0.087608	0.963482	-0.062720	0.260325
53897	7.815725	-0.185631	-0.730943	0.727125	1.290972	0.492105	-0.277164	-0.077881	0.957661	-0.032739	-0.995365	-0.090423	0.960265	-0.056415	0.273330
53898	7.991139	0.389646	-0.982076	1.016062	1.135095	0.374428	-0.288121	-0.081061	0.954157	-0.021935	-0.995591	-0.091204	0.957343	-0.047208	0.285072
53899	7.954318	0.973080	-1.259848	1.142311	1.047331	0.268691	-0.298141	-0.083344	0.950876	-0.010173	-0.995847	-0.090475	0.954468	-0.036648	0.296055
53900	7.573795	0.935957	-1.519156	1.195402	0.928190	0.238547	-0.306964	-0.085469	0.947876	0.001947	-0.996014	-0.089178	0.951719	-0.025529	0.305907
53901	6.801811	0.909629	-1.614662	1.337700	0.741424	0.188053	-0.313960	-0.087246	0.945419	0.015302	-0.996105	-0.086842	0.949313	-0.012798	0.314072
53902	6.183830	1.516030	-1.618062	1.444366	0.511374	0.087450	-0.318751	-0.088121	0.943733	0.029282	-0.996109	-0.083122	0.947386	0.001139	0.320092
53903	5.784632	2.101665	-1.467026	1.391494	0.307127	0.010575	-0.321619	-0.088296	0.942743	0.042545	-0.995985	-0.078769	0.945913	0.014775	0.324084
53904	5.492987	2.304500	-1.181614	1.240312	0.100714	0.000685	-0.322527	-0.088355	0.942427	0.054279	-0.995722	-0.074775	0.945003	0.027037	0.325944
53905	5.436242	2.343265	-0.797000	1.039618	-0.092325	0.024329	-0.321603	-0.088611	0.942719	0.064237	-0.995360	-0.071645	0.944693	0.037516	0.325803
53906	5.675368	2.601115	-0.041953	0.732387	-0.255738	0.017784	-0.319129	-0.088708	0.943551	0.071214	-0.995039	-0.069462	0.945032	0.045026	0.323863
53907	6.345986	2.764531	0.763688	0.243808	-0.344204	0.028032	-0.315816	-0.088870	0.944649	0.073664	-0.994895	-0.068970	0.945957	0.047805	0.320750
53908	7.151955	2.586950	0.808970	-0.196161	-0.224662	0.024348	-0.313622	-0.089038	0.945364	0.071908	-0.994962	-0.069854	0.946821	0.046071	0.318444
53909	6.980534	2.826805	0.513780	-0.389598	0.045963	0.016454	-0.314008	-0.089266	0.945215	0.068326	-0.995113	-0.071280	0.946959	0.042200	0.318572
53910	6.220031	3.061701	0.382161	-0.460502	0.028006	-0.016970	-0.314235	-0.089123	0.945152	0.063904	-0.995311	-0.072607	0.947192	0.037583	0.318457
53911	6.602541	3.657556	0.791144	-0.467820	-0.399965	-0.072856	-0.310451	-0.088300	0.946479	0.059297	-0.995536	-0.073427	0.948738	0.033328	0.314301
53912	7.987716	4.099263	1.213866	-0.904026	-0.803762	-0.027574	-0.302779	-0.087805	0.949008	0.050619	-0.995823	-0.075986	0.951716	0.025030	0.305958
53913	9.482720	-0.153578	2.777577	-2.032964	-0.948124	0.612014	-0.293444	-0.093798	0.951363	0.033112	-0.995575	-0.087944	0.955403	0.005695	0.295251
53914	10.513006	-6.838398	5.465656	-2.686438	-0.826416	1.534535	-0.285142	-0.109135	0.952252	0.011834	-0.993822	-0.110355	0.958412	-0.020198	0.284672
53915	10.091087	-14.595020	7.021822	-2.010828	-0.588423	1.188750	-0.279416	-0.121159	0.952495	-0.004045	-0.991849	-0.127352	0.960162	-0.039437	0.276648
53916	10.722086	-12.389917	8.709974	0.420630	-0.815951	0.630361	-0.271535	-0.127737	0.953914	0.001735	-0.991216	-0.132239	0.962427	-0.034252	0.269372
53917	9.629783	-7.470556	9.492477	1.367185	-0.621020	0.801887	-0.265442	-0.135897	0.954501	0.017112	-0.990524	-0.136268	0.963975	-0.019838	0.265252
53918	7.312381	-4.205641	9.922058	1.638323	-0.653555	0.723061	-0.258913	-0.143165	0.955232	0.034810	-0.989695	-0.138895	0.965273	-0.002710	0.261228
53919	7.141858	-0.807137	11.341334	1.553619	-0.637151	0.217976	-0.252629	-0.145332	0.956586	0.050426	-0.989289	-0.136983	0.966248	0.013631	0.257251
53920	6.062642	2.440199	11.540357	1.165528	-0.224352	-0.282062	-0.250591	-0.142529	0.957544	0.060965	-0.989463	-0.131326	0.966172	0.025468	0.256639
53921	3.776899	4.650213	8.615022	0.414141	-0.521336	-0.299642	-0.245700	-0.139462	0.959261	0.064279	-0.989762	-0.127433	0.967212	0.030350	0.252149
53922	4.710141	5.374511	3.540199	-0.809121	-1.335046	0.011001	-0.232738	-0.139233	0.962521	0.056444	-0.989965	-0.129554	0.970900	0.024177	0.238262
53923	8.276017	4.956277	-1.867315	-1.324962	-1.702829	0.056585	-0.216100	-0.139517	0.966352	0.043730	-0.990128	-0.133170	0.975391	0.013480	0.220068
53924	12.601171	4.194884	-1.982554	-1.247395	-1.755300	-0.313182	-0.199040	-0.136290	0.970468	0.030877	-0.990663	-0.132794	0.979505	0.003533	0.201390
53925	20.585385	1.111670	2.435064	-1.331366	-1.562707	-0.338021	-0.183751	-0.133017	0.973931	0.017218	-0.991085	-0.132111	0.982822	-0.007507	0.184404
53926	26.655482	-6.626918	5.375067	-0.510354	-0.443572	0.243598	-0.179332	-0.135496	0.974413	0.012633	-0.990705	-0.135437	0.983708	-0.011979	0.179377
53927	17.866856	-11.066080	3.317440	1.961622	0.568735	0.258647	-0.184827	-0.138089	0.973021	0.032438	-0.990397	-0.134393	0.982236	0.006723	0.187531
53928	7.609930	-1.991850	-2.885882	3.627887	-0.336063	-0.168480	-0.181591	-0.136360	0.973874	0.067724	-0.989722	-0.125952	0.981039	0.043083	0.188959
53929	4.319864	4.571968	-11.832532	2.015672	-1.350536	-1.008684	-0.169070	-0.125690	0.977557	0.085790	-0.989948	-0.112446	0.981863	0.064853	0.178153
53930	5.688527	10.481228	-8.925761	-0.415327	-0.741230	-0.731459	-0.162360	-0.117997	0.979651	0.080475	-0.991100	-0.106039	0.983444	0.061621	0.170411
53931	7.085997	7.690813	-0.663866	-1.885119	-1.035117	0.543195	-0.151736	-0.122878	0.980753	0.062811	-0.991436	-0.114498	0.986423	0.044228	0.158155
53932	11.233418	2.448030	-0.936641	-2.530740	-1.307677	1.071340	-0.138229	-0.133087	0.981418	0.039347	-0.990886	-0.128829	0.989618	0.020808	0.142205
53933	12.975634	-2.421089	-3.655295	-2.521404	-1.397333	1.194390	-0.124013	-0.144829	0.981654	0.015976	-0.989454	-0.143962	0.992152	-0.002170	0.125019
53934	11.773053	-6.734723	-4.121358	-1.756753	-1.261469	0.366039	-0.111421	-0.148590	0.982602	-0.001063	-0.988740	-0.149639	0.993773	-0.017717	0.110008
53935	10.912220	-3.859707	-1.564067	-0.339436	-1.118897	-0.514930	-0.100243	-0.143750	0.984524	-0.004935	-0.989424	-0.144968	0.994951	-0.019390	0.098473
53936	9.595738	-0.916361	0.935637	-0.093118	-0.787430	-0.456130	-0.092336	-0.139408	0.985921	-0.006325	-0.990049	-0.140584	0.995708	-0.019217	0.090535
53937	8.139502	-1.366155	1.338079	-0.042060	-0.836456	-0.202402	-0.083955	-0.137607	0.986922	-0.006875	-0.990315	-0.138665	0.996446	-0.018427	0.082196
53938	8.651425	-2.516986	0.406832	-0.109515	-0.990484	-0.094843	-0.074030	-0.136872	0.987819	-0.008063	-0.990422	-0.137837	0.997223	-0.018169	0.072217
53939	8.745323	-4.176931	0.045806	-0.355790	-1.048779	0.058735	-0.063537	-0.137701	0.988434	-0.011525	-0.990268	-0.138697	0.997913	-0.020204	0.061332
53940	8.874651	-4.818985	-0.505596	-0.574253	-1.154953	-0.009075	-0.051964	-0.137893	0.989083	-0.017291	-0.990148	-0.138950	0.998499	-0.024323	0.049067
53941	9.843809	-3.974864	-0.119858	-0.549654	-1.122888	-0.194681	-0.040674	-0.136307	0.989831	-0.022825	-0.990266	-0.137304	0.998912	-0.028178	0.037167
53942	10.163405	-3.633478	0.754314	-0.309287	-1.022729	-0.368926	-0.030321	-0.132982	0.990655	-0.026063	-0.990668	-0.133781	0.999200	-0.029876	0.026572
53943	9.768508	-3.007341	0.853683	0.087338	-0.960899	-0.543660	-0.020543	-0.127917	0.991572	-0.025284	-0.991398	-0.128418	0.999469	-0.027709	0.017132
53944	9.198593	-1.731307	-0.105718	0.294276	-0.983501	-0.650795	-0.010512	-0.121749	0.992505	-0.022467	-0.992281	-0.121960	0.999692	-0.023581	0.007695
53945	9.247891	-0.975863	-1.091904	0.391872	-1.023342	-0.645649	-0.000113	-0.115601	0.993296	-0.018540	-0.993125	-0.115583	0.999828	-0.018429	-0.002031
53946	9.431701	-0.447304	-1.019537	0.495440	-1.060547	-0.547808	0.010626	-0.110358	0.993835	-0.013583	-0.993815	-0.110211	0.999851	-0.012328	-0.012059
53947	9.855572	-0.044908	-0.273283	0.412835	-1.042621	-0.362949	0.021128	-0.106897	0.994046	-0.009354	-0.994245	-0.106720	0.999733	-0.007044	-0.022006
53948	10.042119	-0.051486	0.082988	0.122763	-0.982173	-0.189725	0.031010	-0.105105	0.993977	-0.008103	-0.994449	-0.104903	0.999486	-0.004801	-0.031690
53949	10.082391	-0.679676	-0.081305	-0.191924	-0.918814	-0.120937	0.040239	-0.103997	0.993763	-0.009936	-0.994561	-0.103678	0.999141	-0.005702	-0.041054
53950	10.454747	-1.485347	-0.381252	-0.333758	-0.833613	-0.113228	0.048628	-0.102966	0.993496	-0.013240	-0.994651	-0.102437	0.998729	-0.008173	-0.049731
53951	10.554738	-1.878207	-0.244295	-0.212637	-0.718156	-0.135979	0.055854	-0.101722	0.993244	-0.015251	-0.994767	-0.101021	0.998322	-0.009506	-0.057113
53952	9.986933	-1.475434	0.156950	-0.070629	-0.605712	-0.143170	0.061970	-0.100395	0.993016	-0.015888	-0.994901	-0.099594	0.997952	-0.009605	-0.063249
53953	8.833894	-0.961094	0.248021	-0.125271	-0.603710	-0.134966	0.068052	-0.099158	0.992742	-0.017009	-0.995019	-0.098220	0.997537	-0.010202	-0.069400
53954	8.214564	-1.144819	-0.099841	-0.269533	-0.760974	-0.181481	0.075720	-0.097477	0.992353	-0.019592	-0.995164	-0.096259	0.996937	-0.012154	-0.077264
53955	8.537258	-1.810136	-0.554373	-0.380273	-0.949801	-0.272277	0.085279	-0.094942	0.991823	-0.023123	-0.995370	-0.093294	0.996089	-0.014977	-0.087079
53956	9.192134	-2.279841	-1.133593	-0.462156	-1.056324	-0.346822	0.095929	-0.091710	0.991154	-0.027434	-0.995612	-0.089467	0.995010	-0.018609	-0.098024
53957	9.872641	-2.460843	-1.579642	-0.463821	-1.057749	-0.361300	0.106589	-0.088374	0.990368	-0.031641	-0.995839	-0.085457	0.993800	-0.022228	-0.108942
53958	9.675124	-2.603012	-1.504332	-0.380743	-0.942474	-0.314250	0.116101	-0.085514	0.989549	-0.035097	-0.996018	-0.081955	0.992617	-0.025215	-0.118640
53959	9.360576	-2.782693	-1.276190	-0.116065	-0.939137	-0.318357	0.125565	-0.082627	0.988638	-0.035826	-0.996253	-0.078714	0.991438	-0.025535	-0.128055
53960	10.007638	-2.514254	-1.010493	0.227351	-0.964037	-0.394266	0.135300	-0.078980	0.987652	-0.033085	-0.996622	-0.075165	0.990252	-0.022507	-0.137456
53961	10.501372	-2.015722	-0.725551	0.476741	-0.856464	-0.437073	0.143944	-0.074838	0.986752	-0.027719	-0.997050	-0.071576	0.989197	-0.017049	-0.145594
53962	9.948852	-1.642224	-0.429679	0.600973	-0.710697	-0.396384	0.151115	-0.071036	0.985961	-0.021226	-0.997418	-0.068608	0.988288	-0.010560	-0.152232
53963	9.275529	-0.902867	-0.200644	0.550323	-0.726756	-0.356842	0.158394	-0.067577	0.985061	-0.015202	-0.997704	-0.065999	0.987259	-0.004521	-0.159057
53964	9.463486	-0.445095	-0.531433	0.308724	-0.790138	-0.292072	0.166275	-0.064736	0.983952	-0.011700	-0.997902	-0.063677	0.986010	-0.000924	-0.166684
53965	9.840349	-0.754288	-1.247335	0.089762	-0.724087	-0.183149	0.173467	-0.062955	0.982826	-0.010469	-0.998016	-0.062081	0.984784	0.000480	-0.173782
53966	9.734996	-0.901988	-1.650753	-0.007726	-0.681343	-0.125172	0.180231	-0.061754	0.981684	-0.010343	-0.998091	-0.060888	0.983570	0.000820	-0.180526
53967	9.615272	-0.862698	-2.170784	-0.135608	-0.715857	-0.113414	0.187315	-0.060665	0.980425	-0.011433	-0.998158	-0.059578	0.982233	-0.000049	-0.187664
53968	9.875948	-0.877647	-2.874763	-0.312010	-0.724786	-0.146960	0.194493	-0.059263	0.979112	-0.014242	-0.998239	-0.057592	0.980800	-0.002743	-0.194995
53969	10.214036	-0.925685	-3.088295	-0.441603	-0.643934	-0.180284	0.200869	-0.057540	0.977927	-0.018180	-0.998321	-0.055005	0.979449	-0.006729	-0.201578
53970	9.967877	-1.015894	-2.844020	-0.471292	-0.554206	-0.173954	0.206376	-0.055907	0.976874	-0.022454	-0.998374	-0.052394	0.978215	-0.011121	-0.207296
53971	9.559030	-0.974398	-2.792903	-0.386828	-0.540216	-0.153946	0.211729	-0.054486	0.975808	-0.025880	-0.998407	-0.050132	0.976986	-0.014640	-0.212802
53972	9.571930	-0.732202	-2.686674	-0.340234	-0.586959	-0.134415	0.217544	-0.053295	0.974594	-0.028928	-0.998422	-0.048140	0.975622	-0.017720	-0.218742
53973	9.792203	-0.393426	-2.149374	-0.424358	-0.577618	-0.101385	0.223241	-0.052442	0.973352	-0.032809	-0.998390	-0.046266	0.974211	-0.021606	-0.224602
53974	9.858603	-0.507548	-1.778056	-0.609410	-0.536486	-0.053714	0.228530	-0.052095	0.972142	-0.038640	-0.998266	-0.044411	0.972770	-0.027415	-0.230146
53975	9.967375	-0.939048	-1.444531	-0.766526	-0.504034	-0.043534	0.233481	-0.051864	0.970977	-0.045959	-0.998049	-0.042259	0.971275	-0.034758	-0.235409
53976	10.282766	-1.462183	-1.145435	-0.883134	-0.436802	-0.052674	0.237793	-0.051567	0.969946	-0.054422	-0.997728	-0.039702	0.969790	-0.043346	-0.240059
53977	10.627201	-1.898436	-1.353029	-0.983926	-0.341334	-0.081882	0.241182	-0.050962	0.969141	-0.063729	-0.997296	-0.036582	0.968385	-0.052940	-0.243777
53978	10.827196	-2.083427	-2.045791	-1.014758	-0.169629	-0.100554	0.242935	-0.050118	0.968747	-0.073325	-0.996756	-0.033179	0.967267	-0.062973	-0.245822
53979	10.540183	-1.248104	-2.113960	-0.981835	-0.015194	-0.120991	0.243208	-0.048971	0.968737	-0.082492	-0.996151	-0.029646	0.966460	-0.072703	-0.246312
53980	10.556306	-0.861486	-1.301532	-1.013515	-0.044596	-0.088048	0.243756	-0.048193	0.968638	-0.092100	-0.995401	-0.026348	0.965453	-0.082789	-0.247074
53981	10.800222	-0.625218	-0.638862	-0.984889	-0.038343	-0.113400	0.244267	-0.047147	0.968561	-0.101296	-0.994593	-0.022868	0.964403	-0.092525	-0.247722
53982	10.463730	-0.058785	-0.790412	-1.030871	0.061316	-0.167467	0.243892	-0.045486	0.968735	-0.110837	-0.993662	-0.018751	0.963448	-0.102799	-0.247388
53983	10.335740	-0.744422	-1.197419	-1.102860	0.063203	-0.148340	0.243486	-0.043993	0.968906	-0.121064	-0.992537	-0.014643	0.962319	-0.113734	-0.246994
53984	10.590995	-1.154534	-1.696249	-1.039876	0.078864	-0.194848	0.243008	-0.042030	0.969113	-0.130599	-0.991382	-0.010247	0.961192	-0.124075	-0.246403
53985	10.553887	-1.002780	-2.009379	-1.026779	0.152602	-0.223765	0.241874	-0.039665	0.969497	-0.139890	-0.990151	-0.005610	0.960171	-0.134266	-0.245040
53986	10.515221	-1.411847	-2.286546	-0.927122	0.203137	-0.222757	0.240279	-0.037243	0.969989	-0.148256	-0.988948	-0.001246	0.959315	-0.143507	-0.243145
53987	10.601113	-1.906545	-2.400850	-0.698096	0.246391	-0.241648	0.238310	-0.034543	0.970575	-0.154342	-0.988014	0.002733	0.958847	-0.150452	-0.240785
53988	10.677328	-2.089509	-2.633107	-0.517288	0.288837	-0.245639	0.235958	-0.031741	0.971245	-0.158729	-0.987302	0.006296	0.958712	-0.155651	-0.238001
53989	10.860537	-2.034234	-2.657586	-0.356438	0.343804	-0.242650	0.233078	-0.028856	0.972030	-0.161547	-0.986820	0.009442	0.958946	-0.159229	-0.234668
53990	11.056961	-2.136023	-2.575590	-0.178751	0.415532	-0.214217	0.229472	-0.026145	0.972964	-0.162775	-0.986592	0.011879	0.959608	-0.161100	-0.230651
53991	10.939623	-2.335610	-2.264522	0.084760	0.476841	-0.189580	0.225229	-0.023559	0.974021	-0.161499	-0.986781	0.013476	0.960828	-0.160339	-0.226056
53992	10.893491	-2.151901	-1.967488	0.351603	0.487824	-0.172854	0.220846	-0.021150	0.975079	-0.157738	-0.987377	0.014309	0.962469	-0.156967	-0.221395
53993	10.726385	-1.690279	-1.725223	0.522580	0.560103	-0.151501	0.215713	-0.018839	0.976275	-0.152340	-0.988220	0.014590	0.964500	-0.151873	-0.216042
53994	10.306689	-1.214017	-1.346201	0.605077	0.689700	-0.118075	0.209261	-0.016718	0.977717	-0.146254	-0.989142	0.014390	0.966861	-0.146006	-0.209434
53995	9.837554	-0.944118	-0.414982	0.706790	0.796323	-0.077606	0.201691	-0.014865	0.979336	-0.139218	-0.990168	0.013642	0.969505	-0.139093	-0.201777
53996	9.648944	-0.653401	0.380973	0.835085	0.901541	-0.045382	0.193030	-0.013270	0.981103	-0.131017	-0.991303	0.012370	0.972406	-0.130929	-0.193090
53997	9.650157	-0.196353	1.005172	0.877427	1.050354	-0.001144	0.182831	-0.011978	0.983071	-0.122435	-0.992419	0.010678	0.975491	-0.122314	-0.182912
53998	9.599203	0.267334	1.734282	0.762708	1.301363	0.047447	0.170089	-0.010977	0.985368	-0.115066	-0.993319	0.008796	0.978688	-0.114879	-0.170216
53999	9.160624	0.415462	2.362251	0.547725	1.595833	0.119975	0.154341	-0.010428	0.987963	-0.109856	-0.993925	0.006671	0.981891	-0.109563	-0.154549
54000	8.950286	0.297467	2.613520	0.433527	1.687803	0.215094	0.137537	-0.010821	0.990437	-0.105906	-0.994369	0.003843	0.984818	-0.105422	-0.137909
54001	9.128048	0.131992	3.119584	0.275388	1.822117	0.305157	0.119280	-0.012008	0.992788	-0.103545	-0.994625	0.000411	0.987447	-0.102847	-0.119882
54002	9.557598	0.002905	3.613441	0.170663	1.990063	0.394320	0.099221	-0.013964	0.994967	-0.102298	-0.994747	-0.003760	0.989793	-0.101411	-0.100129
54003	10.713946	-0.186704	2.775608	0.016590	2.245914	0.484327	0.076504	-0.016552	0.996932	-0.102520	-0.994693	-0.008648	0.991785	-0.101544	-0.077795
54004	11.384066	-0.786996	-0.086660	0.034088	2.642995	0.592032	0.049677	-0.019821	0.998569	-0.102545	-0.994621	-0.014641	0.993487	-0.101670	-0.051442
54005	10.928956	-0.857786	-1.692495	0.443478	2.742757	0.617628	0.021818	-0.023278	0.999491	-0.098314	-0.994933	-0.021026	0.994916	-0.097805	-0.023996
54006	11.435779	-0.175558	-1.960838	0.744573	2.506212	0.578327	-0.003660	-0.026731	0.999636	-0.090953	-0.995490	-0.026953	0.995848	-0.091019	0.001212
54007	12.608811	0.324973	-2.380304	0.632659	2.357821	0.539404	-0.027584	-0.030071	0.999167	-0.084523	-0.995898	-0.032306	0.996040	-0.085344	0.024929
54008	13.244948	-0.033094	-4.631474	0.813412	2.312059	0.523944	-0.051012	-0.033463	0.998137	-0.076210	-0.996394	-0.037299	0.995786	-0.077971	0.048278
54009	12.709775	0.755327	-4.055590	1.275579	2.155052	0.419111	-0.072727	-0.036138	0.996697	-0.063204	-0.997168	-0.040767	0.995347	-0.065960	0.070237
54010	12.161077	1.253265	-1.511780	1.194098	2.096424	0.374416	-0.093770	-0.038663	0.994843	-0.051007	-0.997747	-0.043584	0.994286	-0.054831	0.091587
54011	11.913059	2.438741	-0.618704	1.029057	2.090229	0.282754	-0.114631	-0.040486	0.992583	-0.040441	-0.998151	-0.045383	0.992585	-0.045343	0.112782
54012	11.565811	3.136754	-0.617027	0.580721	2.009770	0.288920	-0.134635	-0.042560	0.989981	-0.034315	-0.998278	-0.047584	0.990301	-0.040377	0.132943
54013	11.637885	2.868471	-0.767871	0.125210	1.893497	0.398674	-0.153460	-0.045827	0.987092	-0.032452	-0.998151	-0.051386	0.987622	-0.039919	0.151689
54014	11.516073	1.616126	-1.131381	-0.175688	1.821026	0.491448	-0.171546	-0.050030	0.983905	-0.033365	-0.997842	-0.056556	0.984611	-0.042530	0.169506
54015	10.816754	0.517223	-1.212002	-0.277774	1.708811	0.550797	-0.188498	-0.054815	0.980543	-0.035053	-0.997429	-0.062497	0.981448	-0.046152	0.186092
54016	9.959580	-0.043927	-1.110300	-0.337484	1.632986	0.559180	-0.204665	-0.059643	0.977013	-0.037257	-0.996944	-0.068664	0.978123	-0.050454	0.201818
54017	8.546040	-0.444358	-1.134756	-0.400767	1.527752	0.628087	-0.219791	-0.065142	0.973370	-0.039785	-0.996339	-0.075663	0.974735	-0.055356	0.216395
54018	7.820283	-1.016638	-1.541680	-0.270674	1.300295	0.663500	-0.232676	-0.071046	0.969956	-0.040920	-0.995730	-0.082749	0.971693	-0.058944	0.228775
54019	7.773547	-0.896933	-1.634142	0.062102	1.089475	0.594496	-0.243452	-0.076369	0.966902	-0.038849	-0.995328	-0.088395	0.969135	-0.059083	0.239347
54020	7.686255	-0.594538	-1.674590	0.400481	0.929756	0.528303	-0.252603	-0.081133	0.964163	-0.033653	-0.995139	-0.092556	0.966985	-0.055827	0.248644
54021	7.288917	-0.350527	-1.724289	0.734688	0.786922	0.460441	-0.260307	-0.085349	0.961746	-0.025321	-0.995139	-0.095166	0.965194	-0.049125	0.256880
54022	6.745843	-0.050965	-1.647925	1.050122	0.628764	0.383986	-0.266401	-0.088934	0.959751	-0.014168	-0.995265	-0.096157	0.963758	-0.039214	0.263880
54023	6.412361	0.390570	-1.499469	1.250038	0.461401	0.320488	-0.270835	-0.092017	0.958218	-0.001212	-0.995387	-0.095929	0.962625	-0.027142	0.269474
54024	6.540513	0.723930	-1.141427	1.318832	0.352681	0.265406	-0.274163	-0.094625	0.957017	0.012215	-0.995410	-0.094922	0.961606	-0.014335	0.274060
54025	6.665928	0.948193	-0.448054	1.262219	0.336311	0.231987	-0.277316	-0.096953	0.955875	0.025039	-0.995287	-0.093686	0.960452	-0.002046	0.278436
54026	6.718219	1.210608	0.436132	1.145366	0.293537	0.215271	-0.280015	-0.099135	0.954863	0.036628	-0.995033	-0.092564	0.959297	0.009056	0.282255
54027	7.076701	1.260132	1.098663	0.918718	0.269565	0.237680	-0.282464	-0.101580	0.953884	0.046159	-0.994665	-0.092255	0.958167	0.017972	0.285646
54028	7.000174	2.003936	0.846871	0.728178	0.247359	0.186427	-0.284685	-0.103515	0.953016	0.053660	-0.994315	-0.091972	0.957118	0.024955	0.288622
54029	7.351650	3.304888	1.009294	0.498454	0.367717	0.093706	-0.288112	-0.104591	0.951868	0.058750	-0.994075	-0.091446	0.955793	0.029576	0.292550
54030	6.644160	4.332180	2.098639	0.133600	0.411292	0.118013	-0.291915	-0.105912	0.950562	0.060371	-0.993909	-0.092202	0.954537	0.030471	0.296530
54031	5.421192	4.486024	2.717760	-0.596448	-0.073957	0.330833	-0.290979	-0.109224	0.950474	0.055695	-0.993711	-0.097142	0.955107	0.024670	0.295232
54032	5.560633	1.797243	2.251304	-1.554517	-0.613834	0.571701	-0.284774	-0.114815	0.951694	0.042468	-0.993338	-0.107131	0.957653	0.009909	0.287753
54033	6.234923	-1.994373	2.149404	-2.369655	-0.847085	1.067905	-0.276263	-0.125473	0.952856	0.022787	-0.992018	-0.124023	0.960812	-0.012550	0.276917
54034	6.282603	-6.998697	2.386398	-2.625423	-0.865671	1.344394	-0.267721	-0.139030	0.953413	0.001179	-0.989581	-0.143973	0.963496	-0.037421	0.265096
54035	5.845665	-10.962319	3.551288	-1.478695	-0.881442	0.544042	-0.259212	-0.144845	0.954897	-0.011597	-0.988152	-0.153038	0.965751	-0.050744	0.254461
54036	7.337208	-8.773488	5.093909	0.418181	-1.277418	0.082013	-0.246813	-0.146300	0.957956	-0.007337	-0.988228	-0.152813	0.969035	-0.044745	0.242834
54037	8.921138	-7.339491	5.442884	1.354874	-1.408438	0.039816	-0.233105	-0.147261	0.961237	0.005964	-0.988666	-0.150017	0.972433	-0.029236	0.231341
54038	11.030616	-5.458339	5.593306	2.218527	-1.367109	-0.116408	-0.219766	-0.146381	0.964508	0.027295	-0.989214	-0.143912	0.975171	-0.005301	0.221391
54039	12.850533	-2.706095	6.727990	2.656549	-0.938295	-0.334638	-0.210707	-0.143035	0.967028	0.052547	-0.989464	-0.134904	0.976136	0.022390	0.216003
54040	12.652432	0.389313	9.190789	2.514368	-0.135931	-0.468222	-0.209638	-0.138394	0.967935	0.076083	-0.989240	-0.124961	0.974814	0.047447	0.217912
54041	9.659274	2.877105	12.073310	1.884732	0.462155	-0.269714	-0.214327	-0.136030	0.967243	0.093913	-0.988537	-0.118215	0.972237	0.065499	0.224646
54042	5.616242	4.354885	10.678903	1.027413	0.030428	0.162217	-0.214426	-0.137690	0.966987	0.104245	-0.987585	-0.117508	0.971162	0.075606	0.226117
54043	4.095659	5.314320	3.954618	0.469919	-1.072645	-0.124046	-0.204090	-0.135664	0.969506	0.108605	-0.987376	-0.115302	0.972909	0.081761	0.216248
54044	9.370103	7.943001	-2.911258	-0.056752	-1.925923	-0.965736	-0.186325	-0.124554	0.974561	0.106149	-0.988677	-0.106064	0.976737	0.083687	0.197436
54045	16.503295	10.870314	0.109458	-1.645063	-1.478029	-0.687898	-0.172486	-0.116658	0.978079	0.088862	-0.990756	-0.102499	0.980995	0.069235	0.181258
54046	20.824970	3.974757	4.702094	-2.873088	-1.051305	0.548147	-0.161707	-0.121527	0.979327	0.061535	-0.991699	-0.112902	0.984918	0.042006	0.167842
54047	20.691542	-6.602444	5.495582	-2.302600	-0.098954	1.928028	-0.159695	-0.140645	0.977096	0.041988	-0.989871	-0.135621	0.986273	0.019368	0.163982
54048	8.406359	-14.813243	-1.137280	0.191916	0.133133	1.131010	-0.160484	-0.151878	0.975284	0.045690	-0.988175	-0.146367	0.985980	0.021071	0.165525
54049	4.526385	-3.928179	-6.662132	2.749159	-1.740438	-0.620089	-0.143638	-0.145168	0.978925	0.071920	-0.988098	-0.135975	0.987013	0.050873	0.152369
54050	6.698130	3.629096	-13.099877	0.981996	-1.919965	-1.669881	-0.125895	-0.127589	0.983805	0.079376	-0.989811	-0.118210	0.988863	0.063208	0.134740
54051	10.401564	8.255472	-5.703179	-0.309533	-0.724186	-0.807383	-0.119315	-0.119185	0.985677	0.075372	-0.990991	-0.110704	0.989991	0.061084	0.127223
54052	10.281576	5.395227	-1.048689	-1.375306	-0.958996	0.467059	-0.109441	-0.123309	0.986315	0.062264	-0.991177	-0.117008	0.992041	0.048607	0.116153
54053	11.712697	1.250947	-2.760942	-1.665024	-1.124264	0.962205	-0.097712	-0.132426	0.986365	0.046773	-0.990623	-0.128364	0.994115	0.033593	0.102990
54054	11.809768	-1.907404	-4.065240	-1.361323	-1.119895	0.668907	-0.086252	-0.138759	0.986563	0.033829	-0.990090	-0.136297	0.995699	0.021618	0.090091
54055	11.199517	-2.229496	-3.363216	-0.639636	-1.025206	-0.188643	-0.076058	-0.136739	0.987683	0.027351	-0.990466	-0.135018	0.996728	0.016744	0.079073
54056	10.181953	0.538862	-0.839378	-0.318560	-0.779013	-0.502462	-0.068364	-0.131659	0.988935	0.023805	-0.991187	-0.130313	0.997376	0.014633	0.070896
54057	8.876516	0.568485	0.657552	-0.595323	-0.697304	-0.296207	-0.061431	-0.128682	0.989781	0.017720	-0.991639	-0.127824	0.997954	0.009686	0.063198
54058	8.644679	-1.702133	0.406579	-0.933275	-0.820372	-0.103062	-0.053201	-0.127632	0.990394	0.008321	-0.991820	-0.127369	0.998549	0.001465	0.053828
54059	9.348696	-3.983333	-0.172946	-0.959413	-0.924034	0.115878	-0.043931	-0.128852	0.990690	-0.001160	-0.991640	-0.129027	0.999034	-0.006817	0.043414
54060	9.212739	-5.916393	-0.553617	-0.810937	-0.931785	0.208319	-0.034578	-0.131034	0.990775	-0.009205	-0.991284	-0.131423	0.999360	-0.013664	0.033070
54061	9.159590	-5.851081	-0.008442	-0.302244	-1.035967	-0.089901	-0.024177	-0.130338	0.991175	-0.012207	-0.991352	-0.130659	0.999633	-0.015258	0.022377
54062	10.146781	-3.563767	0.446335	0.002901	-0.989530	-0.206139	-0.014206	-0.128468	0.991612	-0.012239	-0.991615	-0.128644	0.999824	-0.013964	0.012514
54063	10.065004	-2.166428	1.176014	0.011011	-0.794982	-0.201244	-0.006196	-0.126625	0.991931	-0.012106	-0.991868	-0.126692	0.999908	-0.012793	0.004613
54064	9.428347	-1.103016	1.267362	-0.131850	-0.772083	-0.266565	0.001613	-0.124114	0.992267	-0.013438	-0.992181	-0.124081	0.999908	-0.013134	-0.003268
54065	9.297888	-1.017060	0.842664	-0.398793	-0.837721	-0.267631	0.010067	-0.121626	0.992525	-0.017366	-0.992447	-0.121440	0.999799	-0.016014	-0.012103
54066	9.334489	-1.962719	-0.053900	-0.486981	-0.871347	-0.314394	0.018893	-0.118695	0.992751	-0.022201	-0.992733	-0.118271	0.999575	-0.019805	-0.021391
54067	9.274725	-2.192586	-0.716107	-0.418330	-0.879628	-0.396673	0.027816	-0.114990	0.992977	-0.026246	-0.993103	-0.114270	0.999268	-0.022884	-0.030642
54068	9.456692	-2.271145	-1.143965	-0.400385	-0.863453	-0.421616	0.036615	-0.111050	0.993140	-0.030122	-0.993478	-0.109977	0.998875	-0.025888	-0.039721
54069	9.694030	-2.680616	-1.505803	-0.310991	-0.808554	-0.410865	0.044854	-0.107231	0.993222	-0.033018	-0.993838	-0.105807	0.998448	-0.028048	-0.048119
54070	9.575045	-2.760228	-1.659385	-0.125744	-0.769311	-0.368078	0.052712	-0.103829	0.993197	-0.034104	-0.994187	-0.102123	0.998027	-0.028489	-0.055947
54071	9.489891	-2.269500	-1.877082	0.045930	-0.817680	-0.345878	0.061023	-0.100664	0.993047	-0.033408	-0.994550	-0.098763	0.997577	-0.027149	-0.064053
54072	9.756080	-1.572237	-1.851532	0.213941	-0.876703	-0.359778	0.069939	-0.097352	0.992790	-0.031050	-0.994957	-0.095377	0.997068	-0.024156	-0.072609
54073	10.012371	-0.687072	-1.259794	0.319995	-0.861608	-0.421013	0.078686	-0.093399	0.992515	-0.027507	-0.995426	-0.091492	0.996520	-0.020102	-0.080895
54074	9.893598	0.262550	-0.675574	0.274561	-0.825988	-0.484834	0.087098	-0.088766	0.992237	-0.024382	-0.995914	-0.086955	0.995901	-0.016619	-0.088906
54075	9.814800	0.828098	-0.191355	0.013748	-0.872112	-0.475287	0.095930	-0.084219	0.991819	-0.023771	-0.996324	-0.082302	0.995104	-0.015681	-0.097579
54076	9.526150	0.319130	-0.055592	-0.386196	-0.912668	-0.323828	0.105147	-0.081191	0.991137	-0.027306	-0.996521	-0.078735	0.994082	-0.018786	-0.106998
54077	9.338254	-0.633847	-0.950577	-0.568008	-0.955006	-0.280416	0.114754	-0.078645	0.990276	-0.032603	-0.996622	-0.075371	0.992859	-0.023637	-0.116930
54078	9.483350	-0.864660	-1.749995	-0.623988	-0.921683	-0.269442	0.124052	-0.076246	0.989342	-0.038473	-0.996663	-0.071986	0.991530	-0.029133	-0.126572
54079	9.512332	-1.336916	-1.922525	-0.648014	-0.881193	-0.265448	0.132928	-0.073929	0.988365	-0.044515	-0.996653	-0.068562	0.990126	-0.034884	-0.135774
54080	9.165923	-1.971260	-1.449000	-0.568663	-0.858904	-0.269441	0.141610	-0.071609	0.987329	-0.049777	-0.996634	-0.065144	0.988670	-0.039921	-0.144698
54081	9.245574	-2.142296	-1.205718	-0.458990	-0.942513	-0.318722	0.151120	-0.068874	0.986113	-0.053808	-0.996664	-0.061365	0.987050	-0.043788	-0.154322
54082	9.696000	-1.566546	-1.079371	-0.381442	-0.929119	-0.364030	0.160542	-0.065714	0.984839	-0.057007	-0.996733	-0.057214	0.985381	-0.046957	-0.163763
54083	9.532159	-1.313381	-1.079742	-0.424144	-0.827945	-0.363409	0.168941	-0.062543	0.983640	-0.060549	-0.996758	-0.052977	0.983765	-0.050608	-0.172180
54084	9.572600	-1.336829	-1.100122	-0.447839	-0.808162	-0.391326	0.177184	-0.059116	0.982401	-0.064277	-0.996758	-0.048387	0.982076	-0.054573	-0.180410
54085	9.749129	-1.453600	-1.325887	-0.457367	-0.789133	-0.401953	0.185226	-0.055604	0.981122	-0.068002	-0.996730	-0.043650	0.980340	-0.058633	-0.188402
54086	9.593488	-1.667518	-1.526804	-0.453174	-0.779466	-0.374649	0.193177	-0.052393	0.979764	-0.071735	-0.996655	-0.039152	0.978538	-0.062720	-0.196290
54087	9.657118	-1.848888	-1.724785	-0.440914	-0.827827	-0.336936	0.201550	-0.049618	0.978221	-0.075347	-0.996542	-0.035023	0.976576	-0.066647	-0.204592
54088	10.114286	-1.782396	-1.883128	-0.402870	-0.825840	-0.301422	0.209893	-0.047234	0.976583	-0.078665	-0.996410	-0.031285	0.974555	-0.070257	-0.212855
54089	10.467693	-1.604988	-1.673408	-0.404080	-0.765962	-0.254170	0.217586	-0.045301	0.974989	-0.082023	-0.996237	-0.027984	0.972588	-0.073883	-0.220483
54090	10.670154	-1.571625	-1.436445	-0.450004	-0.681747	-0.223350	0.224451	-0.043650	0.973507	-0.085904	-0.995993	-0.024852	0.970692	-0.078051	-0.227301
54091	10.614822	-1.771984	-1.042245	-0.454307	-0.564409	-0.187152	0.230121	-0.042287	0.972243	-0.089853	-0.995711	-0.022040	0.969005	-0.082287	-0.232933
54092	10.208986	-1.743257	-0.804238	-0.432241	-0.480494	-0.144531	0.234956	-0.041311	0.971128	-0.093707	-0.995405	-0.019672	0.967478	-0.086379	-0.237748
54093	10.090126	-1.647005	-0.929516	-0.500760	-0.480222	-0.145428	0.239769	-0.040338	0.969992	-0.098171	-0.995022	-0.017113	0.965854	-0.091122	-0.242536
54094	10.259308	-1.158555	-1.330211	-0.616918	-0.432427	-0.187856	0.244180	-0.038935	0.968948	-0.103663	-0.994516	-0.013838	0.964173	-0.097065	-0.246877
54095	10.272237	-0.459614	-1.889808	-0.786408	-0.339609	-0.245643	0.247745	-0.036884	0.968123	-0.110604	-0.993819	-0.009559	0.962491	-0.104710	-0.250294
54096	10.571391	-0.198531	-2.051754	-0.927614	-0.280988	-0.261776	0.250794	-0.034650	0.967420	-0.118860	-0.992900	-0.004749	0.960716	-0.113797	-0.253132
54097	11.105476	-0.585714	-1.920783	-0.960286	-0.245764	-0.244952	0.253484	-0.032560	0.966791	-0.127429	-0.991848	0.000007	0.958909	-0.123199	-0.255567
54098	10.818123	-0.713770	-1.627496	-0.800848	-0.170072	-0.272544	0.255515	-0.030134	0.966335	-0.134404	-0.990916	0.004638	0.957417	-0.131064	-0.257244
54099	10.650735	-1.106726	-1.213036	-0.673939	-0.169743	-0.284105	0.257558	-0.027599	0.965869	-0.140093	-0.990097	0.009066	0.956053	-0.137647	-0.258874
54100	10.718968	-1.384067	-0.798015	-0.587703	-0.177969	-0.305574	0.259736	-0.024886	0.965359	-0.144910	-0.989353	0.013485	0.954745	-0.143392	-0.260577
54101	10.925674	-1.550128	-1.025293	-0.619171	-0.057768	-0.319053	0.260786	-0.021866	0.965149	-0.149958	-0.988526	0.018124	0.953679	-0.149458	-0.261073
54102	10.803187	-1.803522	-1.103819	-0.616286	0.088589	-0.313334	0.260459	-0.018697	0.965304	-0.155006	-0.987653	0.022694	0.952961	-0.155539	-0.260141
54103	10.998995	-1.902715	-0.959661	-0.562897	0.147305	-0.295409	0.259548	-0.015599	0.965604	-0.159571	-0.986819	0.026950	0.952456	-0.161077	-0.258616
54104	11.639675	-1.727672	-1.048774	-0.490359	0.241284	-0.284020	0.257745	-0.012465	0.966133	-0.163482	-0.986063	0.030891	0.952282	-0.165907	-0.256191
54105	12.192421	-1.366953	-1.162072	-0.445278	0.412932	-0.242461	0.254240	-0.009432	0.967095	-0.167072	-0.985347	0.034311	0.952601	-0.170298	-0.252091
54106	12.527829	-1.288407	-1.123366	-0.349311	0.583330	-0.160030	0.248984	-0.006919	0.968483	-0.169981	-0.984765	0.036665	0.953474	-0.173753	-0.246367
54107	12.718492	-1.509792	-0.713294	-0.160269	0.751647	-0.061689	0.241944	-0.005051	0.970277	-0.171329	-0.984496	0.037597	0.955044	-0.175333	-0.239058
54108	13.020404	-1.883506	-0.256613	0.104033	0.908452	0.010397	0.233270	-0.003630	0.972405	-0.170322	-0.984687	0.037183	0.957379	-0.174296	-0.230316
54109	12.281572	-1.953026	0.026564	0.368451	1.140104	0.045252	0.222288	-0.002161	0.974979	-0.166860	-0.985328	0.035859	0.960597	-0.170656	-0.219387
54110	11.083980	-1.995851	0.305610	0.566669	1.341644	0.109267	0.209222	-0.001055	0.977868	-0.161617	-0.986284	0.033515	0.964420	-0.165052	-0.206523
54111	9.834487	-1.837348	0.891235	0.804872	1.509964	0.173191	0.194381	-0.000383	0.980926	-0.154153	-0.987586	0.030162	0.968738	-0.157076	-0.192028
54112	8.837415	-1.011097	1.602285	1.106483	1.585856	0.176677	0.178743	0.000206	0.983896	-0.143692	-0.989273	0.026312	0.973346	-0.146081	-0.176796
54113	8.764089	-0.080762	2.122301	1.156696	1.668810	0.174806	0.162250	0.000767	0.986749	-0.132671	-0.990903	0.022585	0.977790	-0.134577	-0.160672
54114	8.483310	0.172297	3.130105	0.794958	2.152109	0.270954	0.140832	0.000822	0.990033	-0.125265	-0.991948	0.018642	0.982077	-0.126642	-0.139595
54115	7.911362	0.169294	2.425309	0.477477	2.211001	0.298424	0.118743	0.000558	0.992925	-0.120918	-0.992549	0.015018	0.985535	-0.121845	-0.117790
54116	8.991313	0.415327	1.358489	0.430237	2.046891	0.379038	0.098108	-0.000824	0.995175	-0.117039	-0.993069	0.010716	0.988270	-0.117526	-0.097524
54117	10.503890	0.683375	1.067614	0.153456	2.174438	0.505011	0.076038	-0.003350	0.997099	-0.115922	-0.993243	0.005503	0.990344	-0.116004	-0.075912
54118	11.403840	0.895690	0.585220	-0.005418	2.399692	0.610848	0.051559	-0.006700	0.998647	-0.116324	-0.993211	-0.000657	0.991872	-0.116133	-0.051989
54119	11.877698	1.034474	-1.142817	0.077393	2.571421	0.648759	0.025317	-0.010214	0.999627	-0.115764	-0.993251	-0.007217	0.992954	-0.115538	-0.026329
54120	12.115552	1.465585	-3.086767	0.298627	2.575046	0.600798	-0.000933	-0.013309	0.999911	-0.112828	-0.993525	-0.013329	0.993614	-0.112831	-0.000574
54121	11.944361	2.025655	-3.897465	0.503020	2.449777	0.593064	-0.025901	-0.016545	0.999528	-0.107706	-0.993997	-0.019244	0.993845	-0.108153	0.023964
54122	11.203077	1.694184	-3.595997	0.203959	2.129268	0.576979	-0.047652	-0.020060	0.998663	-0.105417	-0.994114	-0.024999	0.993286	-0.106467	0.045257
54123	11.537073	1.166317	-3.902789	-0.269822	1.793692	0.553278	-0.066016	-0.023672	0.997538	-0.107735	-0.993705	-0.030711	0.991985	-0.109497	0.063050
54124	11.561025	-0.116146	-4.510064	-0.411639	1.796309	0.650519	-0.084506	-0.028189	0.996024	-0.111280	-0.993080	-0.037547	0.990190	-0.114010	0.080784
54125	10.939919	-0.356783	-3.661646	-0.013068	1.823630	0.552679	-0.103131	-0.031642	0.994164	-0.110843	-0.992903	-0.043100	0.988473	-0.114641	0.098892
54126	11.247328	-0.689884	-2.243968	0.234522	1.746559	0.536539	-0.120936	-0.035047	0.992041	-0.107869	-0.992995	-0.048231	0.986782	-0.112843	0.116308
54127	11.862380	-0.801189	-0.993592	0.600143	1.714764	0.466384	-0.138300	-0.037840	0.989667	-0.101298	-0.993489	-0.052142	0.985196	-0.107462	0.133566
54128	11.344825	-0.039571	-0.289998	0.913993	1.747175	0.469258	-0.155915	-0.040766	0.986929	-0.091550	-0.994251	-0.055532	0.983519	-0.099011	0.151287
54129	9.855167	0.606179	0.131209	0.957582	1.691742	0.492460	-0.172931	-0.044113	0.983945	-0.081281	-0.994950	-0.058892	0.981574	-0.090160	0.168473
54130	8.716338	0.691514	-0.755805	0.908316	1.555783	0.548049	-0.188566	-0.048292	0.980872	-0.071331	-0.995479	-0.062724	0.979466	-0.081794	0.184269
54131	7.973032	0.504275	-1.697462	0.837009	1.405081	0.609867	-0.202687	-0.053317	0.977791	-0.061897	-0.995822	-0.067131	0.977285	-0.074129	0.198540
54132	7.726332	0.425997	-1.888708	0.783614	1.260925	0.613996	-0.215306	-0.058604	0.974787	-0.052906	-0.996032	-0.071567	0.975112	-0.066980	0.211351
54133	7.852200	0.658226	-1.535798	0.775328	1.137477	0.518485	-0.226604	-0.063095	0.971941	-0.044155	-0.996208	-0.074965	0.972986	-0.059904	0.222959
54134	7.965749	0.712091	-1.309222	0.744165	1.052116	0.435291	-0.236957	-0.066896	0.969214	-0.035860	-0.996344	-0.077535	0.970858	-0.053128	0.233692
54135	7.708495	0.380500	-1.090568	0.784835	0.992244	0.397235	-0.246671	-0.070410	0.966538	-0.027234	-0.996460	-0.079540	0.968717	-0.045943	0.243880
54136	7.436507	0.213558	-1.104172	0.867083	0.838055	0.385552	-0.254817	-0.073959	0.964157	-0.017818	-0.996542	-0.081152	0.966825	-0.037858	0.252618
54137	7.409221	0.583173	-1.242417	0.935998	0.610823	0.361126	-0.260729	-0.077400	0.962304	-0.007790	-0.996580	-0.082268	0.965381	-0.028946	0.259234
54138	7.717443	0.811744	-1.497144	0.903020	0.379114	0.367225	-0.264341	-0.081030	0.961019	0.001963	-0.996507	-0.083482	0.964427	-0.020181	0.263577
54139	7.950927	0.558531	-1.376751	0.893277	0.234598	0.427710	-0.266538	-0.085300	0.960042	0.011765	-0.996290	-0.085255	0.963753	-0.011429	0.266552
54140	8.009420	0.416442	-0.881321	0.952738	0.111936	0.455213	-0.267478	-0.089884	0.959363	0.022226	-0.995950	-0.087116	0.963308	-0.001979	0.268392
54141	8.096880	0.963347	-0.172069	0.916894	0.022583	0.439804	-0.267539	-0.094310	0.958921	0.032288	-0.995517	-0.088901	0.963006	0.007177	0.269384
54142	8.154638	1.606060	0.507588	0.678061	0.012658	0.429156	-0.267440	-0.098637	0.958513	0.040029	-0.995025	-0.091225	0.962743	0.013971	0.270058
54143	7.839564	2.249626	0.922835	0.381662	0.080952	0.421152	-0.268003	-0.102884	0.957909	0.044885	-0.994535	-0.094260	0.962372	0.017733	0.271156
54144	7.550279	3.023312	0.970328	0.158385	0.175322	0.328631	-0.269473	-0.106227	0.957131	0.047334	-0.994157	-0.097010	0.961844	0.019163	0.272927
54145	7.039448	3.624616	0.501481	-0.090954	0.227559	0.223967	-0.271518	-0.108540	0.956293	0.047119	-0.993928	-0.099433	0.961279	0.018062	0.274984
54146	6.588480	3.683329	0.239090	-0.284510	0.087430	0.205704	-0.272197	-0.110640	0.955860	0.044995	-0.993744	-0.102213	0.961189	0.015187	0.275472
54147	6.907736	2.688346	0.317655	-0.476456	-0.153665	0.278289	-0.270562	-0.113431	0.955997	0.041223	-0.993489	-0.106212	0.961820	0.010672	0.273476
54148	7.247710	1.672008	1.002278	-0.719208	-0.330056	0.318962	-0.267195	-0.116611	0.956561	0.035209	-0.993170	-0.111239	0.962999	0.003957	0.269476
54149	7.555306	0.131141	2.282051	-1.214652	-0.442052	0.537339	-0.262736	-0.122000	0.957124	0.024980	-0.992502	-0.119652	0.964544	-0.007528	0.263814
54150	7.815744	-2.303195	3.937683	-1.684991	-0.483027	0.931474	-0.257837	-0.131350	0.957219	0.011191	-0.991056	-0.132979	0.966124	-0.023575	0.257001
54151	8.105569	-5.959405	5.233685	-1.654623	-0.498474	1.138972	-0.252928	-0.142829	0.956884	-0.001844	-0.988970	-0.148106	0.967483	-0.039225	0.249875
54152	8.818836	-9.350351	6.329388	-0.383252	-0.732027	0.744796	-0.245797	-0.150525	0.957563	-0.003657	-0.987718	-0.156204	0.969314	-0.041896	0.242228
54153	10.917580	-6.899559	7.178089	1.115286	-0.975959	0.607284	-0.236274	-0.156915	0.958933	0.008684	-0.987176	-0.159397	0.971648	-0.029334	0.234607
54154	11.550537	-4.954130	8.055020	1.228243	-0.777945	0.737961	-0.228533	-0.164422	0.959551	0.022401	-0.986262	-0.163664	0.973278	-0.015908	0.229076
54155	9.770061	-3.962876	10.199052	1.141212	-0.599974	0.590038	-0.222484	-0.170343	0.959940	0.034897	-0.985378	-0.166769	0.974312	-0.003604	0.225175
54156	5.777023	-2.177849	12.792985	0.881237	-0.442664	0.412088	-0.217954	-0.174444	0.960242	0.044436	-0.984650	-0.168792	0.974947	0.005881	0.222360
54157	1.897907	-0.259625	11.662531	-0.045886	-0.719005	0.049513	-0.210878	-0.174931	0.961733	0.044147	-0.984558	-0.169402	0.976515	0.006734	0.215345
54158	2.785447	2.029443	7.102805	-0.791716	-1.614645	-0.737604	-0.195333	-0.167644	0.966302	0.034954	-0.985846	-0.163969	0.980114	0.001748	0.198428
54159	9.836777	4.769103	-1.944712	-1.143804	-2.554842	-2.072530	-0.170758	-0.147270	0.974245	0.019971	-0.989081	-0.146012	0.985111	-0.005476	0.171835
54160	20.884451	9.752916	-5.149883	-0.791982	-1.623020	-2.423288	-0.155050	-0.123440	0.980164	0.008260	-0.992290	-0.123660	0.987872	-0.011077	0.154874
54161	26.022367	4.690358	1.618841	-1.501645	0.073607	-0.485820	-0.155743	-0.118651	0.980646	-0.007279	-0.992595	-0.121252	0.987771	-0.026022	0.153726
54162	21.194555	-7.593525	4.274398	-0.809384	1.138790	2.162678	-0.167143	-0.139769	0.975975	-0.011723	-0.989549	-0.143721	0.985863	-0.035463	0.163758
54163	6.289145	-15.540451	-0.174577	1.553796	0.649485	1.567716	-0.173549	-0.155131	0.972530	0.006310	-0.987670	-0.156420	0.984805	-0.021010	0.172388
54164	3.955900	-2.833125	-5.114901	3.697014	-1.598589	-0.795804	-0.157935	-0.147333	0.976396	0.041487	-0.988923	-0.142513	0.986578	0.018000	0.162298
54165	6.715340	5.126890	-12.722373	2.174387	-1.504595	-2.423015	-0.144263	-0.122933	0.981873	0.059342	-0.991542	-0.115424	0.987758	0.041615	0.150338
54166	9.970346	10.528079	-5.732647	0.980671	-0.041645	-1.187765	-0.144545	-0.111173	0.983233	0.067369	-0.992468	-0.102313	0.987202	0.051451	0.150946
54167	8.361638	5.764519	0.818067	-0.831770	-0.913773	0.768535	-0.134986	-0.118404	0.983748	0.060274	-0.991977	-0.111124	0.989013	0.044294	0.141040
54168	12.107989	0.595560	-2.811170	-1.465527	-1.648257	1.538805	-0.117764	-0.133063	0.984086	0.047764	-0.990594	-0.128227	0.991892	0.031903	0.123012
54169	12.977206	-3.829571	-5.357616	-1.101207	-0.980934	0.960080	-0.107577	-0.142347	0.983954	0.037963	-0.989563	-0.139008	0.993472	0.022399	0.111858
54170	9.777200	-1.413028	-1.578810	0.456884	-0.806533	-0.722356	-0.099780	-0.135021	0.985806	0.041801	-0.990444	-0.131426	0.994131	0.028094	0.104471
54171	9.280660	3.103229	0.310277	0.748921	-0.998649	-1.326430	-0.090406	-0.121593	0.988454	0.048035	-0.991896	-0.117623	0.994746	0.036847	0.095514
54172	9.377064	4.772366	1.793844	-0.127062	-0.898768	-0.750132	-0.081743	-0.113847	0.990130	0.046179	-0.992820	-0.110343	0.995583	0.036704	0.086414
54173	8.847162	1.629631	0.543476	-1.635123	-1.215879	0.341700	-0.069460	-0.116927	0.990709	0.030193	-0.992899	-0.115069	0.997128	0.021919	0.072497
54174	9.630393	-2.596310	-2.447546	-2.022755	-1.264192	0.995987	-0.056573	-0.126674	0.990330	0.010684	-0.991938	-0.126269	0.998341	0.003438	0.057470
54175	9.529542	-6.697837	-2.988714	-1.838723	-0.899940	0.745833	-0.047536	-0.134159	0.989819	-0.007244	-0.990867	-0.134649	0.998843	-0.013570	0.046130
54176	9.078057	-7.754086	-1.562451	-0.826365	-0.913204	-0.090107	-0.038331	-0.133449	0.990314	-0.015494	-0.990844	-0.134120	0.999145	-0.020484	0.035912
54177	9.961285	-5.037304	-0.599775	0.072211	-0.981167	-0.302544	-0.028444	-0.130688	0.991015	-0.014828	-0.991252	-0.131145	0.999485	-0.018425	0.026257
54178	9.509605	-3.371302	0.075915	0.375673	-0.879131	-0.288916	-0.019542	-0.128000	0.991582	-0.011077	-0.991682	-0.128231	0.999748	-0.013489	0.017962
54179	8.839324	-1.719627	0.252998	0.505962	-0.991334	-0.440307	-0.009556	-0.123780	0.992264	-0.006038	-0.992284	-0.123841	0.999936	-0.007174	0.008735
54180	9.707146	-0.250377	0.550456	0.437737	-1.094265	-0.568359	0.001481	-0.118220	0.992986	-0.001642	-0.992986	-0.118218	0.999998	-0.001456	-0.001665
54181	10.380854	0.328837	0.688109	0.172576	-0.957695	-0.398153	0.011098	-0.114311	0.993383	0.000152	-0.993444	-0.114320	0.999938	0.001420	-0.011007
54182	10.057367	-0.895050	0.551005	-0.263479	-0.801699	-0.166510	0.019188	-0.112686	0.993445	-0.002416	-0.993631	-0.112660	0.999813	-0.000239	-0.019338
54183	9.721446	-2.367464	-0.002170	-0.400526	-0.780546	-0.173009	0.027036	-0.111026	0.993450	-0.006338	-0.993812	-0.110894	0.999614	-0.003298	-0.027572
54184	9.800260	-2.658774	-0.642791	-0.346200	-0.769723	-0.227884	0.034819	-0.108830	0.993450	-0.009688	-0.994043	-0.108555	0.999347	-0.005844	-0.035666
54185	9.967306	-2.332608	-0.526101	-0.245464	-0.712080	-0.198177	0.041992	-0.106953	0.993377	-0.012022	-0.994236	-0.106537	0.999046	-0.007469	-0.043035
54186	10.029657	-1.858375	-0.428347	-0.136940	-0.665914	-0.137819	0.048736	-0.105672	0.993206	-0.013252	-0.994369	-0.105145	0.998724	-0.008038	-0.049862
54187	9.800522	-1.389007	-0.402701	-0.011626	-0.611128	-0.099652	0.054888	-0.104774	0.992980	-0.013276	-0.994468	-0.104197	0.998404	-0.007463	-0.055975
54188	9.359886	-1.090735	-0.214926	0.000512	-0.589470	-0.090677	0.060855	-0.103951	0.992719	-0.013179	-0.994559	-0.103336	0.998060	-0.006795	-0.061894
54189	9.047390	-1.246180	-0.451952	-0.101691	-0.623137	-0.132625	0.067127	-0.102721	0.992443	-0.014069	-0.994685	-0.102001	0.997645	-0.007115	-0.068215
54190	9.200620	-1.756523	-1.023001	-0.214530	-0.676122	-0.195759	0.073971	-0.100863	0.992147	-0.016032	-0.994864	-0.099944	0.997132	-0.008513	-0.075208
54191	9.468641	-1.991094	-1.552194	-0.297603	-0.676849	-0.255755	0.080798	-0.098430	0.991859	-0.018761	-0.995086	-0.097222	0.996554	-0.010753	-0.082248
54192	9.525001	-1.796311	-1.745030	-0.319984	-0.653862	-0.296974	0.087443	-0.095591	0.991573	-0.021661	-0.995332	-0.094043	0.995934	-0.013255	-0.089105
54193	9.460251	-1.433842	-1.526731	-0.260090	-0.660455	-0.328777	0.094129	-0.092458	0.991257	-0.023913	-0.995601	-0.090592	0.995273	-0.015177	-0.095926
54194	9.316774	-1.381825	-1.216839	-0.180996	-0.679683	-0.339106	0.101046	-0.089228	0.990872	-0.025346	-0.995878	-0.087094	0.994559	-0.016315	-0.102891
54195	9.370610	-1.374994	-0.845720	-0.122880	-0.730769	-0.338280	0.108433	-0.086026	0.990375	-0.026175	-0.996150	-0.083662	0.993759	-0.016851	-0.110268
54196	9.752877	-1.455733	-0.568943	-0.055345	-0.773614	-0.337858	0.116277	-0.082830	0.989757	-0.026309	-0.996424	-0.080297	0.992868	-0.016703	-0.118041
54197	10.034216	-1.482791	-0.337407	0.015660	-0.772704	-0.318504	0.124064	-0.079828	0.989058	-0.025733	-0.996682	-0.077215	0.991940	-0.015872	-0.125707
54198	10.112669	-1.481870	-0.196468	0.027412	-0.766821	-0.284534	0.131809	-0.077151	0.988268	-0.025062	-0.996907	-0.074482	0.990958	-0.014951	-0.133335
54199	10.015441	-1.457350	-0.312629	0.060374	-0.784207	-0.238570	0.139670	-0.074930	0.987359	-0.024103	-0.997095	-0.072260	0.989905	-0.013706	-0.141070
54200	9.879177	-1.098430	-0.506314	0.152284	-0.785321	-0.201408	0.147554	-0.073063	0.986352	-0.022273	-0.997260	-0.070539	0.988803	-0.011560	-0.148777
54201	9.734415	-0.833000	-0.679527	0.173066	-0.764028	-0.183818	0.155179	-0.071355	0.985306	-0.020248	-0.997408	-0.069043	0.987679	-0.009236	-0.156222
54202	9.462231	-1.176522	-0.410382	0.113331	-0.725402	-0.164777	0.162439	-0.069815	0.984246	-0.018834	-0.997531	-0.067649	0.986539	-0.007548	-0.163353
54203	9.390361	-1.610673	-0.546811	0.020678	-0.739443	-0.178589	0.169798	-0.068132	0.983121	-0.018298	-0.997653	-0.065979	0.985309	-0.006786	-0.170646
54204	9.746708	-1.486015	-1.181054	-0.014927	-0.720428	-0.224829	0.176998	-0.065979	0.981997	-0.018021	-0.997800	-0.063793	0.984046	-0.006406	-0.177798
54205	10.184322	-1.053336	-1.495317	-0.195614	-0.647886	-0.257721	0.183453	-0.063500	0.980975	-0.019446	-0.997951	-0.060962	0.982836	-0.007892	-0.184312
54206	10.259285	-0.685298	-1.713957	-0.325222	-0.535502	-0.227725	0.188825	-0.061321	0.980094	-0.022184	-0.998060	-0.058171	0.981760	-0.010759	-0.189819
54207	9.836197	-0.394881	-1.462198	-0.396183	-0.520629	-0.156577	0.194006	-0.059869	0.979172	-0.025738	-0.998103	-0.055927	0.980663	-0.014351	-0.195179
54208	9.489935	-0.715494	-1.323755	-0.482913	-0.576856	-0.096238	0.199750	-0.059049	0.978066	-0.030249	-0.998078	-0.054079	0.979380	-0.018783	-0.201152
54209	9.469986	-1.014148	-1.513846	-0.580293	-0.565719	-0.115633	0.205359	-0.058062	0.976963	-0.035661	-0.998020	-0.051818	0.978037	-0.024198	-0.207023
54210	9.846415	-1.220203	-1.724485	-0.705003	-0.470590	-0.142385	0.210076	-0.056816	0.976033	-0.042224	-0.997906	-0.049001	0.976773	-0.030918	-0.212035
54211	9.988963	-1.301978	-1.906724	-0.844628	-0.395452	-0.175878	0.214051	-0.055247	0.975259	-0.050063	-0.997708	-0.045530	0.975539	-0.039078	-0.216326
54212	10.007411	-1.242695	-2.058725	-0.966858	-0.389711	-0.198715	0.218019	-0.053481	0.974478	-0.059028	-0.997392	-0.041533	0.974158	-0.048466	-0.220607
54213	9.861547	-1.168470	-1.991102	-1.012210	-0.358557	-0.217137	0.221681	-0.051555	0.973755	-0.068371	-0.996965	-0.037219	0.972719	-0.058326	-0.224533
54214	9.442968	-1.039667	-2.027583	-1.070559	-0.353787	-0.236953	0.225352	-0.049466	0.973021	-0.078216	-0.996405	-0.032540	0.971133	-0.068773	-0.228411
54215	9.498961	-0.749240	-2.068668	-1.172553	-0.412440	-0.266030	0.229608	-0.047172	0.972139	-0.088955	-0.995661	-0.027303	0.969210	-0.080207	-0.232808
54216	10.265215	-0.609064	-2.386483	-1.231014	-0.405870	-0.276990	0.233856	-0.044815	0.971238	-0.100201	-0.994729	-0.021773	0.967094	-0.092227	-0.237114
54217	10.890368	-0.614933	-2.561764	-1.229342	-0.289294	-0.225169	0.236920	-0.042910	0.970581	-0.111516	-0.993622	-0.016707	0.965108	-0.104277	-0.240195
54218	11.248680	-0.989807	-2.461945	-1.190357	-0.184543	-0.160644	0.238944	-0.041569	0.970143	-0.122581	-0.992382	-0.012330	0.963265	-0.115975	-0.242219
54219	11.683719	-1.781213	-2.274275	-1.068009	-0.065066	-0.092882	0.239718	-0.040776	0.969986	-0.132608	-0.991129	-0.008893	0.961743	-0.126496	-0.242999
54220	12.392989	-2.616073	-2.031093	-0.814991	0.084140	-0.034817	0.239012	-0.040368	0.970177	-0.140277	-0.990090	-0.006638	0.960831	-0.134507	-0.242306
54221	13.101183	-2.625700	-1.668323	-0.536581	0.283307	-0.046364	0.236385	-0.039571	0.970853	-0.145292	-0.989377	-0.004950	0.960735	-0.139887	-0.239623
54222	12.848000	-1.933491	-0.980855	-0.460385	0.480670	-0.045172	0.231886	-0.038489	0.971981	-0.149521	-0.988752	-0.003482	0.961183	-0.144524	-0.235033
54223	12.672590	-1.490635	-0.400321	-0.499786	0.595195	-0.043032	0.226257	-0.037239	0.973356	-0.154197	-0.988038	-0.001958	0.961785	-0.149645	-0.229293
54224	12.585355	-1.053333	0.056619	-0.465174	0.743566	-0.047016	0.219223	-0.035702	0.975021	-0.158538	-0.987353	-0.000508	0.962708	-0.154466	-0.222111
54225	11.967553	-1.271512	0.808220	-0.283442	0.912582	0.009555	0.210444	-0.034424	0.977000	-0.161257	-0.986912	-0.000039	0.964214	-0.157540	-0.213241
54226	10.942938	-1.738632	1.224799	0.128824	1.046150	0.015065	0.200364	-0.032989	0.979166	-0.160014	-0.987115	-0.000514	0.966566	-0.156577	-0.203061
54227	10.094637	-1.651524	1.031304	0.506417	1.124816	-0.033075	0.189555	-0.030978	0.981381	-0.155013	-0.987912	-0.001243	0.969556	-0.151891	-0.192066
54228	9.693651	-1.239285	0.716129	0.656896	1.242085	-0.069861	0.177638	-0.028500	0.983683	-0.148473	-0.988915	-0.001839	0.972831	-0.145724	-0.179900
54229	9.291607	-0.875177	0.645539	0.575660	1.388298	-0.050415	0.164212	-0.026066	0.986081	-0.142743	-0.989757	-0.002392	0.976042	-0.140363	-0.166251
54230	9.030702	-0.842058	0.798604	0.474437	1.520390	-0.001621	0.149389	-0.024010	0.988487	-0.138069	-0.990417	-0.003190	0.979091	-0.136003	-0.151272
54231	8.841890	-0.899772	0.949388	0.396384	1.632863	0.071878	0.133310	-0.022580	0.990817	-0.134247	-0.990938	-0.004521	0.981940	-0.132412	-0.135133
54232	8.727837	-0.933611	1.692599	0.351882	1.745786	0.132873	0.116003	-0.021674	0.993012	-0.130861	-0.991380	-0.006352	0.984591	-0.129209	-0.117840
54233	9.154599	-0.644493	2.705457	0.396359	1.790181	0.224064	0.098096	-0.021665	0.994941	-0.127155	-0.991841	-0.009061	0.987020	-0.125623	-0.100051
54234	10.617520	-0.319450	2.648375	0.373949	2.025959	0.300519	0.077731	-0.022196	0.996727	-0.123687	-0.992243	-0.012451	0.989272	-0.122314	-0.079873
54235	10.907050	-0.506813	-0.757376	0.482208	2.564269	0.273172	0.052032	-0.021875	0.998406	-0.119048	-0.992767	-0.015548	0.991524	-0.118049	-0.054260
54236	9.879077	0.065494	-2.221293	1.024955	2.685073	0.170814	0.025213	-0.020593	0.999470	-0.108900	-0.993895	-0.017731	0.993733	-0.108395	-0.027301
54237	9.912138	0.796457	-1.791478	1.285771	2.384528	0.198662	0.001324	-0.020180	0.999795	-0.096095	-0.995172	-0.019960	0.995371	-0.096049	-0.003257
54238	11.025160	0.682890	-1.782205	1.094940	2.189605	0.308817	-0.020727	-0.021327	0.999558	-0.085120	-0.996105	-0.023018	0.996155	-0.085559	0.018831
54239	11.887943	1.075834	-1.482607	0.873875	2.118521	0.250279	-0.042001	-0.022144	0.998872	-0.076291	-0.996764	-0.025305	0.996201	-0.077267	0.040176
54240	11.532167	0.930316	-1.766472	0.626652	2.055199	0.250241	-0.062616	-0.023169	0.997769	-0.069875	-0.997176	-0.027540	0.995589	-0.071443	0.060820
54241	11.139954	1.294626	-1.942756	0.296691	1.844991	0.250162	-0.081112	-0.024417	0.996406	-0.066696	-0.997326	-0.029869	0.994471	-0.068879	0.079266
54242	10.986417	1.135648	-2.176455	0.037817	1.694957	0.378783	-0.098167	-0.027083	0.994801	-0.065935	-0.997256	-0.033656	0.992983	-0.068896	0.096112
54243	11.065237	0.967424	-2.180452	-0.034811	1.595792	0.507978	-0.114300	-0.031091	0.992960	-0.065693	-0.997086	-0.038782	0.991272	-0.069663	0.111925
54244	11.400010	0.716292	-1.958182	-0.197216	1.517917	0.621592	-0.129700	-0.036266	0.990890	-0.066841	-0.996738	-0.045229	0.989298	-0.072098	0.126853
54245	11.149662	-0.663747	-1.932987	-0.234605	1.530993	0.654544	-0.145238	-0.041711	0.988517	-0.068210	-0.996312	-0.052062	0.987043	-0.074988	0.141857
54246	11.256605	-1.640120	-1.973046	-0.103355	1.462604	0.586412	-0.160010	-0.046498	0.986020	-0.068286	-0.995976	-0.058049	0.984751	-0.076620	0.156191
54247	10.767861	-2.310671	-2.117909	0.262347	1.539324	0.490750	-0.175444	-0.050270	0.983205	-0.064832	-0.995938	-0.062489	0.982352	-0.074706	0.171472
54248	9.347947	-1.799184	-1.736286	0.880852	1.540464	0.309283	-0.190690	-0.052340	0.980254	-0.055497	-0.996406	-0.063999	0.980080	-0.066605	0.187100
54249	8.638795	-0.204244	-0.952787	1.304791	1.423727	0.184317	-0.204685	-0.053365	0.977372	-0.042307	-0.997097	-0.063302	0.977913	-0.054306	0.201833
54250	8.352921	0.938516	-0.669416	1.452085	1.306640	0.165462	-0.217446	-0.054477	0.974551	-0.027645	-0.997697	-0.061939	0.975681	-0.040410	0.215439
54251	8.217442	1.641662	-0.660940	1.374067	1.174832	0.192497	-0.228900	-0.056047	0.971835	-0.013772	-0.998055	-0.060803	0.973353	-0.027302	0.227683
54252	8.393346	1.599648	-0.752175	1.177983	1.051655	0.297010	-0.239086	-0.058836	0.969214	-0.001575	-0.998138	-0.060980	0.970997	-0.016105	0.238548
54253	8.450005	1.083527	-0.735469	1.025344	0.952007	0.316688	-0.248271	-0.061935	0.966709	0.009195	-0.998060	-0.061583	0.968647	-0.006400	0.248359
54254	8.292639	0.864328	-0.596998	0.959889	0.821853	0.303115	-0.256110	-0.065022	0.964458	0.019374	-0.997880	-0.062131	0.966453	0.002773	0.256827
54255	8.020372	1.073836	-0.499152	0.903792	0.650796	0.287848	-0.262288	-0.067986	0.962592	0.028901	-0.997621	-0.062585	0.964557	0.011404	0.263629
54256	7.734451	1.385629	-0.408390	0.777955	0.468812	0.298493	-0.266634	-0.071108	0.961171	0.037311	-0.997289	-0.063429	0.963075	0.018950	0.268564
54257	7.509669	1.569538	-0.524091	0.618358	0.284552	0.311856	-0.269209	-0.074324	0.960210	0.044153	-0.996922	-0.064787	0.962069	0.024955	0.271662
54258	7.566380	1.352593	-0.489481	0.458178	0.094518	0.341698	-0.269881	-0.077826	0.959743	0.049602	-0.996529	-0.066861	0.961615	0.029561	0.272805
54259	7.808842	0.916013	-0.115185	0.343020	-0.034540	0.395814	-0.269306	-0.081803	0.959574	0.054022	-0.996100	-0.069756	0.961538	0.033053	0.272675
54260	7.943769	0.749265	0.339375	0.218780	-0.082847	0.415362	-0.268198	-0.085977	0.959520	0.057359	-0.995668	-0.073184	0.961655	0.035409	0.271968
54261	7.908579	0.953573	0.737066	0.071756	-0.045153	0.409261	-0.267487	-0.090079	0.959342	0.059199	-0.995276	-0.076947	0.961741	0.036210	0.271556
54262	7.742531	1.772346	0.803080	-0.078496	0.028017	0.353727	-0.267463	-0.093679	0.959004	0.059521	-0.994968	-0.080592	0.961728	0.035525	0.271693
54263	7.415296	2.353079	0.986103	-0.238333	0.134172	0.346343	-0.268511	-0.097214	0.958359	0.058211	-0.994714	-0.084593	0.961516	0.033073	0.272751
54264	7.285129	2.373060	1.449377	-0.381654	0.084241	0.417172	-0.268999	-0.101451	0.957782	0.055780	-0.994409	-0.089664	0.961524	0.029305	0.273154
54265	7.340155	1.711282	1.585225	-0.482200	-0.088442	0.474880	-0.267854	-0.106193	0.957589	0.052471	-0.994040	-0.095558	0.962030	0.024650	0.271829
54266	7.921159	0.428209	2.510100	-0.627263	-0.108301	0.560305	-0.266444	-0.111798	0.957345	0.048055	-0.993556	-0.102653	0.962652	0.018654	0.270100
54267	8.406159	-1.276592	4.356107	-1.021397	0.047930	0.789739	-0.266519	-0.119693	0.956369	0.040379	-0.992775	-0.112997	0.962983	0.008501	0.269426
54268	8.514275	-3.243774	5.806537	-1.326508	0.240081	0.943394	-0.268412	-0.129123	0.954611	0.030263	-0.991617	-0.125619	0.962829	-0.004829	0.270069
54269	7.947928	-4.792360	6.017151	-0.994582	0.271873	0.745667	-0.270795	-0.136532	0.952906	0.022754	-0.990522	-0.135455	0.962368	-0.014999	0.271335
54270	7.678431	-5.137815	6.009677	-0.245361	0.106522	0.551055	-0.271617	-0.142034	0.951867	0.022004	-0.989708	-0.141401	0.962154	-0.017462	0.271946
54271	7.272579	-5.186986	6.479067	0.487162	-0.239412	0.642603	-0.269114	-0.148472	0.951595	0.028484	-0.988841	-0.146228	0.962687	-0.012247	0.270340
54272	7.367759	-5.474762	6.809840	1.134505	-0.678697	0.680877	-0.262263	-0.155306	0.952417	0.041329	-0.987866	-0.149706	0.964111	0.000100	0.265499
54273	7.627598	-4.236934	6.898510	1.507759	-0.953610	0.501770	-0.252775	-0.160226	0.954166	0.057225	-0.986942	-0.150570	0.965831	0.016542	0.258644
54274	7.989022	-2.016803	7.290394	1.190135	-0.949951	0.303878	-0.243338	-0.163049	0.956139	0.069533	-0.986166	-0.150474	0.967446	0.029867	0.251308
54275	8.115803	-0.033832	7.352922	0.269064	-0.749677	0.112193	-0.235960	-0.163961	0.957831	0.072460	-0.985888	-0.150913	0.969057	0.033795	0.244511
54276	7.572113	1.067416	6.412811	-0.643913	-0.663974	-0.000001	-0.229455	-0.163816	0.959435	0.066314	-0.986075	-0.152505	0.971058	0.028631	0.237123
54277	7.447444	0.928990	4.263252	-1.094770	-0.855333	-0.003544	-0.221102	-0.163620	0.961427	0.055713	-0.986335	-0.155046	0.973658	0.019283	0.227196
54278	7.489578	-0.043815	1.007225	-1.088080	-1.114841	-0.031265	-0.210187	-0.163205	0.963943	0.045133	-0.986537	-0.157189	0.976619	0.010467	0.214723
54279	8.876003	-1.430354	-2.888870	-0.830720	-1.344540	0.056533	-0.196974	-0.163706	0.966644	0.037175	-0.986499	-0.159494	0.979704	0.004519	0.200400
54280	10.567703	-1.936244	-4.283362	-0.287373	-1.265170	0.064792	-0.184485	-0.164336	0.968999	0.034528	-0.986397	-0.160712	0.982229	0.003809	0.187650
54281	11.377687	-1.934024	-1.294986	0.256016	-1.318133	-0.015335	-0.171491	-0.164148	0.971415	0.037070	-0.986399	-0.160136	0.984488	0.008548	0.175243
54282	14.206240	-2.144939	2.809379	0.721162	-1.302989	-0.192116	-0.158658	-0.162140	0.973929	0.043968	-0.986605	-0.157088	0.986354	0.017898	0.163662
54283	18.102909	-2.095442	5.767688	1.513255	-0.931258	-0.456989	-0.149664	-0.157431	0.976123	0.058245	-0.986932	-0.150244	0.987020	0.034368	0.156878
54284	18.108534	-1.086325	4.509363	2.532733	-0.501492	-0.638788	-0.145097	-0.150946	0.977835	0.082398	-0.986704	-0.140089	0.985981	0.060245	0.155605
54285	13.112945	1.905053	1.209250	2.892161	-0.303538	-0.843154	-0.142876	-0.142445	0.979436	0.109718	-0.985769	-0.127361	0.983640	0.089265	0.156472
54286	7.893633	4.228702	-2.922175	2.311671	-0.732023	-1.071971	-0.136903	-0.131191	0.981859	0.131042	-0.984879	-0.113323	0.981878	0.113151	0.152025
54287	6.736751	6.842945	-4.209068	1.034175	-1.069457	-0.752743	-0.127381	-0.122547	0.984254	0.140251	-0.984592	-0.104438	0.981888	0.124739	0.142606
54288	6.814633	5.989451	-1.068725	-0.829664	-1.122328	0.283180	-0.115893	-0.124000	0.985491	0.132488	-0.985241	-0.108388	0.984386	0.118004	0.130611
54289	8.051641	1.671712	-1.363808	-1.755393	-1.261217	0.845209	-0.102362	-0.130983	0.986086	0.116146	-0.986087	-0.118926	0.987943	0.102357	0.116151
54290	9.767680	-0.824719	-2.267945	-1.950591	-1.433147	0.948040	-0.087087	-0.139025	0.986452	0.097853	-0.986619	-0.130410	0.991383	0.085171	0.099525
54291	11.030707	-2.359111	-3.362145	-1.797367	-1.486557	0.416326	-0.071916	-0.142027	0.987247	0.080387	-0.987415	-0.136195	0.994166	0.069567	0.082428
54292	11.881756	-1.815937	-2.384209	-1.298200	-1.453249	0.032619	-0.057358	-0.141438	0.988284	0.067535	-0.988196	-0.137506	0.996067	0.058857	0.066233
54293	11.245093	-1.717704	-0.947917	-1.066056	-1.148046	-0.011235	-0.045882	-0.140745	0.988982	0.056950	-0.988783	-0.138075	0.997322	0.049987	0.053383
54294	10.135142	-2.260330	-0.684160	-0.624687	-0.819747	-0.119038	-0.037694	-0.139201	0.989546	0.050713	-0.989241	-0.137227	0.998002	0.045010	0.044347
54295	9.091147	-2.363435	-0.807207	-0.097472	-0.632611	-0.209598	-0.031445	-0.136886	0.990088	0.049712	-0.989566	-0.135235	0.998268	0.044967	0.037922
54296	8.821564	-2.190450	-0.885473	0.130924	-0.691491	-0.270935	-0.024603	-0.133910	0.990688	0.050988	-0.989866	-0.132533	0.998396	0.047252	0.031181
54297	9.179639	-2.699678	-0.982527	-0.046928	-0.773292	-0.207926	-0.016948	-0.131527	0.991168	0.050520	-0.990156	-0.130529	0.998579	0.047862	0.023426
54298	9.536323	-3.389557	-0.532654	-0.131904	-0.818747	-0.111514	-0.008749	-0.130057	0.991468	0.049232	-0.990359	-0.129477	0.998749	0.047679	0.015068
54299	9.853289	-3.802290	-0.259390	-0.015100	-0.785884	-0.093046	-0.000907	-0.128801	0.991670	0.049120	-0.990479	-0.128601	0.998792	0.048594	0.007225
54300	9.818339	-3.466955	-0.208260	0.206758	-0.717264	-0.186824	0.006252	-0.126630	0.991930	0.051327	-0.990602	-0.126784	0.998662	0.051706	0.000307
54301	9.845647	-2.258228	-0.473420	0.321536	-0.705605	-0.251922	0.013203	-0.123798	0.992220	0.054606	-0.990736	-0.124340	0.998421	0.055823	-0.006321
54302	10.148472	-0.994685	-0.577180	0.253834	-0.742947	-0.315837	0.020522	-0.120271	0.992529	0.057234	-0.990969	-0.121265	0.998150	0.059295	-0.013453
54303	10.334175	-0.063815	-0.487424	0.095610	-0.747306	-0.343466	0.027821	-0.116460	0.992806	0.058313	-0.991310	-0.117918	0.997911	0.061174	-0.020788
54304	9.484890	-0.058993	-0.392801	-0.113053	-0.748842	-0.242869	0.035232	-0.113624	0.992899	0.057302	-0.991652	-0.115514	0.997735	0.060965	-0.028427
54305	8.965781	-0.611489	-0.677289	-0.301697	-0.883042	-0.215026	0.043961	-0.111004	0.992847	0.054419	-0.992066	-0.113326	0.997550	0.059012	-0.037571
54306	9.410037	-1.447939	-1.108830	-0.325331	-0.966232	-0.239772	0.053550	-0.108093	0.992697	0.051331	-0.992512	-0.110842	0.997245	0.056892	-0.047600
54307	9.899773	-1.967996	-1.415100	-0.240132	-0.926122	-0.266867	0.062689	-0.104967	0.992498	0.049133	-0.992924	-0.108115	0.996823	0.055542	-0.057088
54308	9.981470	-2.023207	-1.635662	-0.119459	-0.807807	-0.253916	0.070695	-0.102027	0.992266	0.048150	-0.993247	-0.105558	0.996335	0.055240	-0.065305
54309	9.804188	-1.644566	-1.713686	-0.014951	-0.674590	-0.227307	0.077344	-0.099437	0.992033	0.048210	-0.993477	-0.103341	0.995838	0.055819	-0.072045
54310	9.314951	-1.190194	-1.347620	0.042148	-0.643493	-0.215152	0.083733	-0.096970	0.991759	0.048927	-0.993653	-0.101286	0.995286	0.057005	-0.078458
54311	9.094368	-0.964409	-0.648720	0.063630	-0.729893	-0.244811	0.090914	-0.094160	0.991397	0.049813	-0.993844	-0.098960	0.994612	0.058381	-0.085664
54312	9.149231	-0.822766	-0.232529	-0.007973	-0.814098	-0.300720	0.098938	-0.090723	0.990949	0.050057	-0.994121	-0.096011	0.993834	0.059103	-0.093815
54313	9.225653	-0.959477	-0.303228	-0.173106	-0.893976	-0.330760	0.107694	-0.086953	0.990374	0.048718	-0.994510	-0.092613	0.992990	0.058223	-0.102867
54314	9.575552	-1.329435	-0.620489	-0.301281	-0.949082	-0.340934	0.117038	-0.083049	0.989649	0.046234	-0.994961	-0.088963	0.992051	0.056167	-0.112609
54315	9.899483	-1.528606	-0.833981	-0.368845	-0.901486	-0.335409	0.125866	-0.079262	0.988876	0.043021	-0.995429	-0.085263	0.991114	0.053275	-0.121881
54316	9.975003	-1.469880	-0.863464	-0.302689	-0.779888	-0.305112	0.133549	-0.075848	0.988136	0.040544	-0.995814	-0.081917	0.990213	0.051003	-0.129914
54317	9.654870	-1.320869	-0.541149	-0.202802	-0.688586	-0.277795	0.140292	-0.072778	0.987432	0.038954	-0.996117	-0.078953	0.989344	0.049541	-0.136912
54318	9.329158	-1.588278	-0.177683	-0.147536	-0.686846	-0.237820	0.147070	-0.070104	0.986639	0.037872	-0.996355	-0.076440	0.988401	0.048608	-0.143879
54319	9.434781	-1.999580	-0.050189	-0.106147	-0.768267	-0.223082	0.154613	-0.067554	0.985663	0.037197	-0.996554	-0.074135	0.987275	0.048126	-0.151568
54320	9.981509	-1.853801	-0.436831	-0.131959	-0.804152	-0.249907	0.162535	-0.064709	0.984579	0.036418	-0.996774	-0.071522	0.986030	0.047481	-0.159655
54321	10.168129	-1.359437	-0.775285	-0.222040	-0.760798	-0.263355	0.169977	-0.061772	0.983510	0.034703	-0.997039	-0.068620	0.984837	0.045795	-0.167330
54322	10.037563	-1.153857	-0.941220	-0.326853	-0.719435	-0.245765	0.177054	-0.059032	0.982429	0.032042	-0.997325	-0.065702	0.983679	0.043112	-0.174688
54323	9.787568	-1.133176	-0.902881	-0.419960	-0.693848	-0.221182	0.183846	-0.056584	0.981325	0.028348	-0.997621	-0.062834	0.982546	0.039370	-0.181805
54324	9.737017	-1.192370	-1.144267	-0.522567	-0.739427	-0.220141	0.191125	-0.054143	0.980071	0.023764	-0.997930	-0.059763	0.981278	0.034713	-0.189442
54325	9.956400	-1.823538	-1.275115	-0.542779	-0.749382	-0.226686	0.198462	-0.051683	0.978745	0.018917	-0.998221	-0.056547	0.979926	0.029738	-0.197131
54326	10.109167	-2.330874	-1.498002	-0.473102	-0.694154	-0.217458	0.205293	-0.049359	0.977455	0.014756	-0.998458	-0.053518	0.978589	0.025411	-0.204248
54327	9.891072	-2.193479	-1.667623	-0.407250	-0.644419	-0.211737	0.211604	-0.047137	0.976218	0.011248	-0.998653	-0.050659	0.977291	0.021700	-0.210789
54328	9.674352	-1.737208	-1.767184	-0.464255	-0.617031	-0.178440	0.217685	-0.045265	0.974969	0.007230	-0.998822	-0.047987	0.975992	0.017495	-0.217102
54329	9.790760	-1.530467	-1.955616	-0.574442	-0.616419	-0.163465	0.223726	-0.043586	0.973677	0.002021	-0.998977	-0.045183	0.974650	0.012077	-0.223409
54330	9.963495	-1.345963	-2.099733	-0.642221	-0.589702	-0.144546	0.229541	-0.042121	0.972387	-0.003782	-0.999094	-0.042385	0.973292	0.006051	-0.229492
54331	9.786975	-0.986950	-2.039134	-0.692761	-0.559325	-0.132724	0.235026	-0.040825	0.971131	-0.010180	-0.999166	-0.039540	0.971936	-0.000593	-0.235245
54332	9.896855	-0.812667	-1.747701	-0.715961	-0.546750	-0.118186	0.240418	-0.039711	0.969857	-0.016822	-0.999183	-0.036742	0.970524	-0.007482	-0.240890
54333	9.980070	-0.700788	-1.329714	-0.673578	-0.487270	-0.119871	0.245203	-0.038611	0.968703	-0.023033	-0.999157	-0.033995	0.969198	-0.013976	-0.245885
54334	10.001295	-0.858579	-0.969836	-0.644492	-0.442038	-0.124219	0.249583	-0.037479	0.967628	-0.028846	-0.999095	-0.031258	0.967924	-0.020111	-0.250438
54335	10.284499	-1.104252	-1.077113	-0.694449	-0.376006	-0.143719	0.253300	-0.036178	0.966711	-0.035171	-0.998984	-0.028170	0.966748	-0.026865	-0.254315
54336	10.008366	-1.226733	-1.432240	-0.825544	-0.242959	-0.167383	0.255776	-0.034615	0.966116	-0.042599	-0.998792	-0.024508	0.965797	-0.034887	-0.256941
54337	9.757617	-1.382647	-1.755824	-0.965473	-0.176900	-0.188382	0.257606	-0.032851	0.965692	-0.051405	-0.998473	-0.020253	0.964882	-0.044424	-0.258901
54338	10.032904	-1.352087	-1.865754	-1.038368	-0.188131	-0.213540	0.259600	-0.030847	0.965223	-0.060736	-0.998033	-0.015560	0.963804	-0.054584	-0.260963
54339	10.626633	-0.973103	-1.984241	-1.060078	-0.239618	-0.253732	0.262106	-0.028506	0.964618	-0.070254	-0.997475	-0.010388	0.962478	-0.065046	-0.263447
54340	10.818049	-0.527382	-2.198326	-0.986360	-0.210400	-0.288842	0.264403	-0.025810	0.964067	-0.078858	-0.996873	-0.005061	0.961183	-0.074686	-0.265612
54341	11.047670	-0.688014	-2.230201	-0.807622	-0.193688	-0.287418	0.266532	-0.023146	0.963548	-0.085823	-0.996310	-0.000193	0.959997	-0.082643	-0.267535
54342	11.883316	-1.008615	-2.214578	-0.473201	-0.150210	-0.284429	0.268278	-0.020476	0.963124	-0.089468	-0.995983	0.003747	0.959178	-0.087174	-0.269032
54343	12.298239	-1.213816	-1.909683	-0.246453	0.017198	-0.230885	0.268353	-0.018210	0.963149	-0.091183	-0.995812	0.006577	0.958996	-0.089587	-0.268890
54344	12.145919	-1.659679	-1.128787	-0.104416	0.221202	-0.145022	0.266416	-0.016607	0.963715	-0.091675	-0.995755	0.008185	0.959488	-0.090529	-0.266808
54345	11.786118	-1.887039	-0.118082	-0.050435	0.362877	-0.090393	0.263047	-0.015426	0.964660	-0.091890	-0.995727	0.009134	0.960397	-0.091046	-0.263341
54346	11.773612	-1.980549	0.295105	-0.124213	0.487306	-0.053656	0.258463	-0.014500	0.965912	-0.092915	-0.995625	0.009916	0.961542	-0.092311	-0.258679
54347	11.809295	-2.134968	0.191226	-0.227543	0.625765	-0.038765	0.252509	-0.013578	0.967499	-0.094975	-0.995421	0.010818	0.962922	-0.094620	-0.252643
54348	12.051463	-2.139854	-0.167880	-0.225811	0.767149	-0.014190	0.245174	-0.012748	0.969395	-0.096985	-0.995220	0.011442	0.964616	-0.096822	-0.245238
54349	12.340534	-2.133770	-0.525380	-0.068322	0.952029	0.005369	0.236005	-0.011925	0.971679	-0.097626	-0.995157	0.011499	0.966835	-0.097575	-0.236027
54350	11.589758	-2.044728	-0.350938	0.214705	1.174052	0.041667	0.224637	-0.011256	0.974377	-0.095510	-0.995373	0.010521	0.969750	-0.095427	-0.224673
54351	10.466597	-1.904466	0.238274	0.525356	1.333531	0.086323	0.211634	-0.010926	0.977288	-0.090562	-0.995855	0.008478	0.973144	-0.090300	-0.211746
54352	9.633597	-1.472669	1.278392	0.867173	1.468510	0.109935	0.197258	-0.010812	0.980292	-0.082196	-0.996601	0.005548	0.976900	-0.081670	-0.197476
54353	9.104087	-0.633843	2.107853	1.075120	1.531477	0.091674	0.182230	-0.010605	0.983199	-0.071813	-0.997415	0.002552	0.980630	-0.071071	-0.182520
54354	9.276458	-0.045837	3.235486	0.951371	1.905399	0.110454	0.163467	-0.010500	0.986493	-0.062522	-0.998044	-0.000263	0.984566	-0.061635	-0.163803
54355	8.572940	0.244263	3.590415	0.637409	2.312867	0.124752	0.140608	-0.010439	0.990010	-0.056387	-0.998406	-0.002519	0.988458	-0.055470	-0.140973
54356	8.780911	0.440107	3.186876	0.580553	2.234384	0.231933	0.118390	-0.011641	0.992899	-0.050798	-0.998693	-0.005652	0.991667	-0.049769	-0.118827
54357	9.662737	0.368902	2.647746	0.301639	2.290284	0.418991	0.095474	-0.014765	0.995322	-0.048213	-0.998785	-0.010191	0.994264	-0.047014	-0.096070
54358	10.815954	0.356532	1.542819	-0.037864	2.490472	0.507721	0.070463	-0.018716	0.997339	-0.048974	-0.998683	-0.015281	0.996311	-0.047767	-0.071287
54359	11.435548	0.164893	-1.813333	-0.042451	2.756370	0.583466	0.042725	-0.023261	0.998816	-0.049686	-0.998541	-0.021129	0.997851	-0.048725	-0.043818
54360	10.973667	0.104102	-3.685028	0.359527	2.776583	0.566519	0.014757	-0.027677	0.999508	-0.046113	-0.998572	-0.026970	0.998827	-0.045692	-0.016012
54361	11.171053	0.660551	-3.384395	0.577323	2.421883	0.522089	-0.009630	-0.031893	0.999445	-0.040315	-0.998666	-0.032257	0.999141	-0.040603	0.008331
54362	12.176514	1.069202	-3.155670	0.380200	2.145308	0.492287	-0.031220	-0.036047	0.998862	-0.036265	-0.998651	-0.037173	0.998854	-0.037384	0.029871
54363	12.480151	1.191938	-3.345878	0.028678	2.066069	0.491867	-0.051991	-0.040229	0.997837	-0.035729	-0.998474	-0.042116	0.998008	-0.037841	0.050474
54364	12.970035	0.565891	-4.609434	-0.090297	1.984833	0.467319	-0.071920	-0.044203	0.996430	-0.036193	-0.998244	-0.046896	0.996754	-0.039436	0.070193
54365	12.394213	-0.435192	-4.607395	0.154087	1.986298	0.497888	-0.091843	-0.048443	0.994594	-0.034203	-0.998073	-0.051771	0.995186	-0.038773	0.090009
54366	11.352096	-0.367560	-2.866953	0.584674	1.913994	0.410806	-0.110958	-0.051925	0.992468	-0.027835	-0.998080	-0.055331	0.993435	-0.033765	0.109300
54367	11.258402	0.505610	-1.091401	0.672255	1.837536	0.415380	-0.129260	-0.055551	0.990054	-0.020616	-0.998063	-0.058691	0.991396	-0.027997	0.127864
54368	11.423494	-0.021281	-0.620127	0.605699	1.784952	0.452910	-0.146964	-0.059694	0.987339	-0.013856	-0.997955	-0.062399	0.989045	-0.022851	0.145836
54369	11.229918	0.258915	-0.414328	0.664012	1.765868	0.399735	-0.164411	-0.063375	0.984354	-0.006624	-0.997840	-0.065350	0.986370	-0.017265	0.163636
54370	9.962858	0.335194	-0.925427	0.749739	1.770279	0.369009	-0.181802	-0.066886	0.981058	0.001531	-0.997702	-0.067737	0.983334	-0.010813	0.181487
54371	8.558288	0.513021	-1.444738	0.903842	1.660688	0.312862	-0.198050	-0.069939	0.977694	0.011050	-0.997547	-0.069121	0.980130	-0.002886	0.198337
54372	7.884955	0.973243	-1.640041	0.887040	1.490408	0.278779	-0.212532	-0.072815	0.974437	0.020441	-0.997333	-0.070068	0.976940	0.005027	0.213454
54373	7.683827	1.327262	-1.505021	0.776639	1.327350	0.266395	-0.225377	-0.075629	0.971332	0.028653	-0.997066	-0.070984	0.973850	0.011833	0.226883
54374	7.839743	1.787369	-1.341636	0.585000	1.181180	0.224085	-0.236728	-0.078112	0.968431	0.035000	-0.996802	-0.071845	0.970945	0.016887	0.238705
54375	7.885359	1.742922	-1.272714	0.320873	1.049229	0.269889	-0.246765	-0.081037	0.965681	0.038817	-0.996524	-0.073706	0.968298	0.019297	0.249053
54376	7.786875	0.667847	-1.394621	0.194258	0.877418	0.334433	-0.255048	-0.084624	0.963218	0.041682	-0.996199	-0.076484	0.966030	0.020642	0.257606
54377	7.426007	0.198291	-1.659725	0.310924	0.700018	0.305450	-0.261633	-0.087864	0.961160	0.045526	-0.995863	-0.078644	0.964093	0.023182	0.264550
54378	7.160773	0.552285	-1.787657	0.417217	0.475026	0.245143	-0.266019	-0.090499	0.959710	0.050327	-0.995529	-0.079926	0.962653	0.027037	0.269385
54379	7.187691	0.556533	-1.832116	0.473618	0.273870	0.231970	-0.268494	-0.092932	0.958788	0.055558	-0.995173	-0.080901	0.961678	0.031547	0.272361
54380	7.316429	0.403227	-1.458658	0.521621	0.127306	0.265546	-0.269484	-0.095693	0.958239	0.061426	-0.994732	-0.082062	0.961044	0.036747	0.273942
54381	7.479424	0.420861	-0.771342	0.528784	0.005705	0.286456	-0.269316	-0.098588	0.957992	0.067333	-0.994240	-0.083389	0.960695	0.042047	0.274403
54382	7.691241	0.644523	-0.124968	0.411808	-0.065254	0.307449	-0.268391	-0.101689	0.957928	0.072258	-0.993736	-0.085245	0.960596	0.046339	0.274058
54383	7.518907	0.946909	0.207924	0.233169	-0.061712	0.320169	-0.267523	-0.104884	0.957826	0.075410	-0.993288	-0.087705	0.960596	0.048767	0.273637
54384	7.366538	1.909557	0.259934	0.126319	0.016581	0.249749	-0.267406	-0.107441	0.957575	0.077426	-0.992947	-0.089788	0.960468	0.050132	0.273839
54385	7.038566	2.568463	0.608600	-0.012924	0.089912	0.233510	-0.268049	-0.109848	0.957122	0.077982	-0.992692	-0.092091	0.960244	0.049953	0.274657
54386	7.222151	2.807577	0.879044	-0.245401	-0.014359	0.291907	-0.267596	-0.112811	0.956904	0.076561	-0.992472	-0.095594	0.960485	0.047681	0.274219
54387	7.448121	1.903118	1.041803	-0.498259	-0.138860	0.381098	-0.265938	-0.116574	0.956916	0.072844	-0.992253	-0.100634	0.961234	0.042943	0.272370
54388	8.228272	-0.155073	2.247673	-0.732245	-0.091061	0.519365	-0.264608	-0.121757	0.956639	0.067331	-0.991909	-0.107623	0.962003	0.035934	0.270665
54389	8.549593	-2.705951	3.941201	-0.972448	0.046422	0.784764	-0.264516	-0.129598	0.955634	0.060104	-0.991218	-0.117787	0.962506	0.026281	0.269983
54390	7.664889	-5.283810	4.272899	-0.983734	-0.036574	0.751833	-0.263649	-0.137108	0.954825	0.052769	-0.990415	-0.127648	0.963174	0.016730	0.268357
54391	6.793609	-6.277825	4.481855	-0.235060	-0.364557	0.316701	-0.259933	-0.140231	0.955390	0.051387	-0.990006	-0.131331	0.964258	0.014957	0.264541
54392	7.299991	-3.690528	5.283560	0.635482	-0.824539	0.213890	-0.251770	-0.142265	0.957273	0.058210	-0.989572	-0.131756	0.966035	0.022551	0.257426
54393	8.567971	-3.261504	5.887126	0.823429	-1.177813	0.350218	-0.240120	-0.145450	0.959785	0.067090	-0.988834	-0.133068	0.968422	0.032440	0.247197
54394	10.134804	-3.876027	6.572020	1.184059	-1.164072	0.340626	-0.228503	-0.148426	0.962162	0.079492	-0.987854	-0.133511	0.970292	0.045977	0.237526
54395	10.953796	-2.834710	7.860066	1.355544	-0.824572	0.256185	-0.220238	-0.150559	0.963757	0.093278	-0.986739	-0.132834	0.970976	0.060642	0.231361
54396	10.745501	-1.158614	9.447802	0.880363	-0.295409	0.222225	-0.217076	-0.152625	0.964149	0.102436	-0.985810	-0.132990	0.970765	0.069895	0.229630
54397	9.688596	-0.002171	10.496552	-0.101315	0.077147	0.276594	-0.217502	-0.155447	0.963602	0.102106	-0.985444	-0.135923	0.970705	0.068826	0.230208
54398	7.350762	-0.130762	8.439015	-0.860436	-0.085609	0.395898	-0.216213	-0.159358	0.963253	0.094730	-0.985359	-0.141751	0.971740	0.060601	0.228143
54399	5.317251	-0.219535	4.411676	-0.866215	-0.577805	0.308786	-0.210272	-0.162115	0.964108	0.087015	-0.985345	-0.146708	0.973763	0.053043	0.221296
54400	5.252779	0.047644	0.320676	-0.469706	-1.128737	0.097153	-0.199119	-0.162556	0.966399	0.082766	-0.985412	-0.148701	0.976474	0.050376	0.209669
54401	7.480105	0.947625	-2.090703	-0.123672	-1.463143	-0.108302	-0.184860	-0.160786	0.969523	0.081401	-0.985641	-0.147939	0.979388	0.051572	0.195293
54402	10.023181	1.788372	-2.312983	-0.196475	-1.500189	-0.236995	-0.170271	-0.157732	0.972691	0.079177	-0.986104	-0.146047	0.982211	0.052148	0.180393
54403	12.027043	0.838795	-0.446573	-0.291380	-1.405649	-0.230347	-0.156585	-0.154775	0.975462	0.075986	-0.986606	-0.144345	0.984737	0.051519	0.166248
54404	16.244228	-1.535498	2.904664	0.037804	-1.160383	-0.252226	-0.145273	-0.151726	0.977688	0.076095	-0.986958	-0.141858	0.986461	0.053789	0.154924
54405	21.096168	-4.422958	4.340837	1.109289	-0.616333	-0.283901	-0.139384	-0.148599	0.979025	0.086683	-0.986712	-0.137425	0.986437	0.065710	0.150413
54406	19.474157	-3.395714	3.977949	2.853158	0.101329	-0.474505	-0.140792	-0.144052	0.979503	0.114236	-0.985114	-0.128457	0.983426	0.093809	0.155152
54407	11.903889	0.447921	1.238356	3.618563	0.138929	-0.303008	-0.142512	-0.141268	0.979660	0.149357	-0.981498	-0.119806	0.978459	0.129245	0.160975
54408	5.831418	3.415359	-3.725910	2.895279	-0.641594	-0.688328	-0.137302	-0.133653	0.981471	0.176797	-0.978251	-0.108481	0.974624	0.158626	0.157945
54409	5.315503	8.082513	-7.824994	0.866160	-0.959494	-1.316097	-0.130278	-0.119246	0.984280	0.183526	-0.978486	-0.094253	0.974344	0.168362	0.149360
54410	7.239923	11.264766	-2.983342	-1.500872	-0.388700	-0.383019	-0.127083	-0.114903	0.985214	0.168507	-0.981331	-0.092714	0.977474	0.154233	0.144073
54411	7.320506	6.403374	0.302870	-2.797099	-0.899638	0.713370	-0.117114	-0.120686	0.985758	0.142007	-0.984424	-0.103651	0.982913	0.127846	0.132428
54412	9.251494	2.219205	-0.812153	-3.259622	-1.428616	1.237376	-0.101382	-0.131302	0.986145	0.111367	-0.986520	-0.119902	0.988594	0.097668	0.114638
54413	11.238364	-2.085182	-4.313429	-3.790674	-1.834952	1.779701	-0.081488	-0.147436	0.985709	0.075462	-0.987072	-0.141401	0.993813	0.062862	0.091560
54414	11.764831	-8.581210	-6.180688	-3.758497	-1.404469	1.308187	-0.066671	-0.159734	0.984906	0.039147	-0.986761	-0.157385	0.997007	0.028063	0.072041
54415	10.718926	-9.661396	-4.107030	-1.634397	-1.202522	-0.137835	-0.054678	-0.158166	0.985898	0.022804	-0.987315	-0.157128	0.998244	0.013891	0.057591
54416	10.278188	-5.191804	-2.083767	0.084942	-1.101216	-0.454472	-0.043699	-0.153550	0.987174	0.023576	-0.988001	-0.152635	0.998767	0.016604	0.046795
54417	9.263666	-3.949783	-1.056010	0.672617	-0.686149	-0.229825	-0.036869	-0.151183	0.987818	0.030247	-0.988206	-0.150113	0.998862	0.024344	0.041008
54418	8.769717	-3.382777	-0.524514	0.900239	-0.624781	-0.292941	-0.030637	-0.148145	0.988491	0.039286	-0.988370	-0.146909	0.998758	0.034333	0.036101
54419	9.039424	-3.041686	0.031768	0.608283	-0.690120	-0.271160	-0.023821	-0.145247	0.989109	0.045332	-0.988529	-0.144070	0.998688	0.041406	0.030132
54420	9.598123	-3.257493	-0.018040	0.346194	-0.775439	-0.242269	-0.016097	-0.142552	0.989656	0.048881	-0.988713	-0.141621	0.998675	0.046096	0.022883
54421	9.847281	-2.458322	0.067917	0.333523	-0.741770	-0.279181	-0.008791	-0.139477	0.990186	0.052221	-0.988937	-0.138837	0.998597	0.050488	0.015978
54422	9.375116	-1.402415	0.714018	0.404099	-0.696111	-0.326149	-0.001925	-0.135921	0.990718	0.056370	-0.989159	-0.135598	0.998408	0.055585	0.009566
54423	9.031644	-0.511071	0.798941	0.399001	-0.760093	-0.418511	0.005458	-0.131382	0.991317	0.060404	-0.989478	-0.131471	0.998159	0.060597	0.002536
54424	9.427582	0.115070	0.476706	0.254810	-0.862131	-0.453822	0.013873	-0.126389	0.991884	0.063122	-0.989890	-0.127018	0.997909	0.064371	-0.005755
54425	10.203983	0.158148	-0.161949	-0.067632	-0.926419	-0.371536	0.022923	-0.122154	0.992246	0.062558	-0.990387	-0.123371	0.997778	0.064901	-0.015061
54426	10.316976	-0.485462	-0.551989	-0.335179	-0.865155	-0.237349	0.031500	-0.119284	0.992360	0.059406	-0.990874	-0.120991	0.997737	0.062763	-0.024127
54427	9.590196	-1.138766	-0.516970	-0.394836	-0.897066	-0.195584	0.040377	-0.116838	0.992330	0.055579	-0.991339	-0.118983	0.997638	0.059957	-0.033534
54428	9.364689	-1.569309	-0.775053	-0.456347	-0.975544	-0.167333	0.050109	-0.114642	0.992142	0.051238	-0.991787	-0.117189	0.997429	0.056708	-0.043823
54429	9.314590	-2.146112	-1.089788	-0.466424	-1.002284	-0.174173	0.060058	-0.112406	0.991846	0.046724	-0.992234	-0.115280	0.997101	0.053267	-0.054340
54430	9.401866	-2.568447	-1.341068	-0.318729	-0.961551	-0.222159	0.069632	-0.109730	0.991519	0.043823	-0.992636	-0.112931	0.996610	0.051315	-0.064311
54431	9.697143	-2.488957	-0.907282	-0.154548	-0.867366	-0.280411	0.078192	-0.106547	0.991228	0.042531	-0.993011	-0.110093	0.996031	0.050766	-0.073114
54432	9.905733	-2.534121	-0.277297	-0.048653	-0.753950	-0.303211	0.085658	-0.103183	0.990967	0.042422	-0.993343	-0.107097	0.995421	0.051212	-0.080711
54433	9.977203	-3.006211	0.265847	0.083012	-0.671564	-0.311132	0.092246	-0.099786	0.990724	0.043564	-0.993609	-0.104133	0.994783	0.052766	-0.087309
54434	9.497670	-3.254839	0.740820	0.183692	-0.659190	-0.289613	0.098758	-0.096584	0.990413	0.045787	-0.993783	-0.101478	0.994058	0.055370	-0.093722
54435	9.501784	-2.883589	0.372706	0.183326	-0.719618	-0.300505	0.105806	-0.093233	0.990006	0.047955	-0.993958	-0.098731	0.993230	0.057922	-0.100696
54436	9.675698	-2.208463	-0.563190	0.163059	-0.729621	-0.311016	0.112982	-0.089745	0.989536	0.050049	-0.994134	-0.095876	0.992336	0.060358	-0.107828
54437	9.886899	-1.413037	-1.035297	0.183858	-0.669643	-0.317645	0.119501	-0.086217	0.989084	0.052280	-0.994294	-0.092988	0.991457	0.062822	-0.114311
54438	9.821444	-0.757139	-0.936538	0.176554	-0.606237	-0.342987	0.125409	-0.082453	0.988673	0.054579	-0.994458	-0.089859	0.990603	0.065230	-0.120213
54439	9.437429	-0.428253	-0.378647	0.082670	-0.620466	-0.355050	0.131395	-0.078556	0.988213	0.055892	-0.994683	-0.086502	0.989753	0.066599	-0.126306
54440	9.527761	-0.311712	-0.456994	-0.079749	-0.768043	-0.425940	0.138836	-0.073840	0.987559	0.055798	-0.995049	-0.082244	0.988742	0.066523	-0.134029
54441	9.363156	-0.294944	-1.348881	-0.290763	-0.831797	-0.469511	0.146838	-0.068666	0.986774	0.053632	-0.995568	-0.077259	0.987705	0.064268	-0.142505
54442	9.149518	-0.179977	-1.945127	-0.550620	-0.849817	-0.456109	0.155073	-0.063629	0.985852	0.049001	-0.996200	-0.072005	0.986687	0.059473	-0.151366
54443	9.138609	-0.250388	-2.052465	-0.645793	-0.875629	-0.396755	0.163563	-0.059223	0.984754	0.043300	-0.996804	-0.067140	0.985582	0.053622	-0.160476
54444	9.078110	-0.939626	-2.021590	-0.676420	-0.865067	-0.351791	0.172020	-0.055308	0.983540	0.037351	-0.997338	-0.062616	0.984385	0.047508	-0.169497
54445	9.126180	-1.660306	-2.132832	-0.547641	-0.881249	-0.341471	0.180608	-0.051548	0.982203	0.032601	-0.997763	-0.058360	0.983015	0.042561	-0.178523
54446	9.359380	-1.710551	-2.047357	-0.255530	-0.972981	-0.345267	0.190132	-0.047726	0.980598	0.030868	-0.998033	-0.054560	0.981273	0.040643	-0.188285
54447	10.065988	-0.995089	-1.714535	-0.030870	-1.067265	-0.331785	0.200529	-0.044024	0.978698	0.031248	-0.998194	-0.051303	0.979189	0.040870	-0.198791
54448	10.570808	-0.659707	-1.538204	-0.056222	-0.986520	-0.297861	0.210162	-0.040676	0.976820	0.031430	-0.998337	-0.048334	0.977161	0.040860	-0.208534
54449	10.508915	-0.860370	-1.650487	-0.183942	-0.832864	-0.240596	0.218256	-0.037984	0.975152	0.030183	-0.998501	-0.045649	0.975425	0.039396	-0.216783
54450	10.441523	-1.171531	-1.451179	-0.272775	-0.768770	-0.188763	0.225769	-0.035831	0.973522	0.028072	-0.998669	-0.043267	0.973776	0.037097	-0.224462
54451	10.140509	-1.249797	-1.032713	-0.378907	-0.711123	-0.124780	0.232692	-0.034378	0.971943	0.024703	-0.998844	-0.041244	0.972237	0.033607	-0.231574
54452	9.878377	-1.482903	-0.701443	-0.622798	-0.642910	-0.086242	0.238991	-0.033349	0.970449	0.018965	-0.999059	-0.039002	0.970836	0.027726	-0.238134
54453	9.641966	-2.051898	-0.644302	-0.906732	-0.551863	-0.085139	0.244370	-0.032414	0.969140	0.010405	-0.999296	-0.036046	0.969626	0.018892	-0.243861
54454	10.081588	-2.470425	-0.770453	-1.097975	-0.537824	-0.134707	0.249643	-0.031024	0.967841	0.000217	-0.999485	-0.032095	0.968338	0.008222	-0.249508
54455	10.605709	-2.229859	-1.246300	-1.166739	-0.448937	-0.199583	0.254033	-0.029064	0.966759	-0.010541	-0.999572	-0.027280	0.967138	-0.003260	-0.254231
54456	10.555162	-1.566365	-1.627507	-1.203414	-0.298455	-0.207947	0.257017	-0.027046	0.966028	-0.021527	-0.999521	-0.022256	0.966167	-0.015075	-0.257475
54457	10.633164	-1.288278	-1.397745	-1.148047	-0.229434	-0.188253	0.259317	-0.025258	0.965462	-0.032097	-0.999331	-0.017523	0.965259	-0.026444	-0.259954
54458	10.818262	-1.274281	-0.944983	-1.034117	-0.171803	-0.189026	0.261106	-0.023458	0.965025	-0.041463	-0.999055	-0.013066	0.964419	-0.036601	-0.261832
54459	10.973736	-1.516484	-0.741256	-0.958796	-0.077642	-0.214292	0.261986	-0.021396	0.964834	-0.050116	-0.998707	-0.008539	0.963769	-0.046117	-0.262720
54460	10.459230	-1.817491	-0.456728	-0.895184	0.006791	-0.215059	0.262095	-0.019283	0.964850	-0.058063	-0.998304	-0.004179	0.963294	-0.054927	-0.262770
54461	11.118500	-2.314396	-0.413552	-0.813026	-0.079219	-0.227532	0.263031	-0.017106	0.964636	-0.065265	-0.997868	0.000100	0.962578	-0.062983	-0.263586
54462	12.449739	-2.017657	-1.277551	-0.723645	-0.035626	-0.269938	0.263611	-0.014477	0.964520	-0.071404	-0.997437	0.004544	0.961983	-0.070069	-0.263969
54463	12.876324	-1.535404	-2.269508	-0.651870	0.210035	-0.230892	0.261794	-0.012069	0.965048	-0.077039	-0.996992	0.008430	0.962044	-0.076553	-0.261936
54464	12.895563	-1.457966	-2.498184	-0.464002	0.403597	-0.157156	0.258083	-0.010226	0.966069	-0.080973	-0.996655	0.011082	0.962723	-0.081086	-0.258048
54465	12.347423	-1.180322	-1.772297	-0.141623	0.546516	-0.101942	0.252933	-0.008812	0.967444	-0.082047	-0.996552	0.012374	0.963998	-0.082505	-0.252784
54466	11.903100	-1.111669	-0.242305	0.121914	0.618127	-0.046390	0.247055	-0.007890	0.968969	-0.080646	-0.996665	0.012446	0.965640	-0.081219	-0.246868
54467	12.335468	-1.489323	0.641936	0.316708	0.682084	-0.026182	0.240515	-0.007135	0.970619	-0.077490	-0.996922	0.011874	0.967547	-0.078069	-0.240328
54468	12.054603	-1.438271	0.639357	0.434449	0.914198	-0.047958	0.231738	-0.006010	0.972760	-0.073043	-0.997265	0.011239	0.970032	-0.073658	-0.231543
54469	11.143592	-1.436284	0.485700	0.454618	1.171600	-0.039286	0.220416	-0.004830	0.975394	-0.068505	-0.997595	0.010540	0.972997	-0.069142	-0.220217
54470	10.387086	-1.377861	0.864937	0.656307	1.378568	-0.029870	0.207038	-0.003677	0.978326	-0.061928	-0.998037	0.009355	0.976371	-0.062522	-0.206859
54471	9.814327	-0.842637	1.545506	0.906430	1.500285	-0.025433	0.192411	-0.002600	0.981311	-0.052977	-0.998566	0.007741	0.979883	-0.053476	-0.192273
54472	9.604985	-0.215928	2.527286	0.949708	1.779708	-0.007627	0.174978	-0.001713	0.984571	-0.043518	-0.999035	0.005996	0.983610	-0.043895	-0.174883
54473	8.716885	0.077672	2.756863	0.563686	2.157357	0.069693	0.153722	-0.001570	0.988113	-0.038041	-0.999267	0.004330	0.987382	-0.038254	-0.153669
54474	8.394479	0.093099	1.821770	0.381127	1.997311	0.187131	0.133934	-0.002774	0.990986	-0.034416	-0.999406	0.001854	0.990393	-0.034354	-0.133950
54475	9.599683	0.080125	1.011083	0.224912	2.031358	0.330195	0.113713	-0.005445	0.993499	-0.032556	-0.999468	-0.001752	0.992980	-0.032145	-0.113830
54476	10.462880	0.118374	1.452389	0.027731	2.342989	0.438893	0.090304	-0.009143	0.995872	-0.032606	-0.999449	-0.006219	0.995380	-0.031910	-0.090552
54477	10.895038	0.367579	1.441815	-0.094543	2.506149	0.498209	0.065202	-0.013354	0.997783	-0.033895	-0.999363	-0.011161	0.997296	-0.033092	-0.065613
54478	11.316537	0.465738	-0.044657	-0.153803	2.626117	0.591556	0.038814	-0.018438	0.999076	-0.035612	-0.999220	-0.017057	0.998612	-0.034917	-0.039440
54479	10.824646	-0.018071	-2.413916	0.002138	2.590333	0.645404	0.012741	-0.024023	0.999630	-0.035715	-0.999084	-0.023555	0.999281	-0.035401	-0.013587
54480	10.640636	0.263736	-4.576566	0.345176	2.268435	0.545296	-0.010087	-0.028769	0.999535	-0.032151	-0.999060	-0.029080	0.999432	-0.032429	0.009152
54481	11.377624	0.947082	-5.398350	0.417151	1.925607	0.479758	-0.029438	-0.033020	0.999021	-0.027842	-0.999039	-0.033841	0.999179	-0.028811	0.028491
54482	11.633270	0.940517	-5.035288	0.251728	1.816389	0.563112	-0.047693	-0.038208	0.998131	-0.024994	-0.998910	-0.039432	0.998549	-0.026828	0.046686
54483	11.616007	0.384126	-4.062443	0.131847	1.781319	0.557749	-0.065571	-0.043353	0.996906	-0.023316	-0.998716	-0.044965	0.997575	-0.026192	0.064476
54484	11.449635	0.288346	-3.569896	0.363832	1.801886	0.461306	-0.083589	-0.047580	0.995364	-0.019238	-0.998596	-0.049350	0.996315	-0.023274	0.082557
54485	11.101819	0.373448	-2.476764	0.510949	1.841163	0.441814	-0.101955	-0.051649	0.993447	-0.013693	-0.998484	-0.053316	0.994695	-0.019039	0.101094
54486	11.391448	-0.064634	-1.410635	0.531903	1.751798	0.457235	-0.119359	-0.055989	0.991271	-0.007786	-0.998325	-0.057325	0.992821	-0.014560	0.118724
54487	11.517232	-0.381875	-0.997795	0.717343	1.707577	0.463338	-0.136276	-0.060465	0.988824	-0.000030	-0.998135	-0.061038	0.990671	-0.008348	0.136021
54488	10.728375	0.145752	-0.659208	0.921387	1.725482	0.450136	-0.153271	-0.064958	0.986047	0.009862	-0.997888	-0.064205	0.988135	-0.000116	0.153588
54489	9.365657	0.619987	-0.814358	1.017050	1.729550	0.430611	-0.170234	-0.069376	0.982959	0.020645	-0.997551	-0.066830	0.985187	0.008916	0.171249
54490	8.370384	1.203864	-1.052667	0.993342	1.595730	0.367047	-0.185773	-0.073317	0.979854	0.031182	-0.997150	-0.068700	0.982098	0.017791	0.187530
54491	7.957040	1.555945	-1.214311	0.840544	1.406706	0.381516	-0.199393	-0.077468	0.976853	0.040211	-0.996677	-0.070832	0.979094	0.025157	0.201846
54492	8.116151	1.556053	-1.178562	0.674262	1.221353	0.369423	-0.211110	-0.081556	0.974054	0.047669	-0.996186	-0.073077	0.976299	0.031004	0.214193
54493	8.504036	1.518611	-1.116540	0.551403	1.103306	0.300920	-0.221676	-0.084964	0.971412	0.053749	-0.995747	-0.074828	0.973638	0.035625	0.225300
54494	8.626940	1.184172	-1.164884	0.467783	1.031449	0.248600	-0.231498	-0.087893	0.968857	0.058977	-0.995346	-0.076204	0.971046	0.039499	0.235605
54495	8.253588	0.712658	-1.136105	0.516375	0.937947	0.222220	-0.240418	-0.090539	0.966438	0.064563	-0.994927	-0.077147	0.968520	0.043848	0.245044
54496	7.870104	0.693131	-1.056831	0.641104	0.756344	0.167781	-0.247548	-0.092625	0.964438	0.071290	-0.994463	-0.077211	0.966249	0.049641	0.252781
54497	7.825372	1.059135	-1.071860	0.639931	0.549204	0.151482	-0.252698	-0.094464	0.962923	0.077900	-0.993978	-0.077067	0.964404	0.055537	0.258535
54498	7.880628	1.080549	-0.925664	0.568420	0.408286	0.193535	-0.256399	-0.096685	0.961723	0.083983	-0.993450	-0.077484	0.962916	0.060901	0.262840
54499	7.946493	0.709477	-0.433304	0.520996	0.326796	0.278243	-0.259263	-0.099698	0.960647	0.089768	-0.992840	-0.078812	0.961626	0.065802	0.266356
54500	7.848588	0.665870	0.186013	0.520760	0.296970	0.333462	-0.261727	-0.103266	0.959601	0.095749	-0.992133	-0.080652	0.960381	0.070772	0.269556
54501	7.513266	0.851785	0.457333	0.373972	0.245793	0.374946	-0.263679	-0.107206	0.958635	0.100378	-0.991459	-0.083267	0.959374	0.074270	0.272188
54502	7.121893	0.541059	0.193281	0.203247	0.156144	0.427479	-0.264658	-0.111613	0.957861	0.103560	-0.990825	-0.086840	0.958766	0.076213	0.273789
54503	6.691055	0.627025	0.115966	0.188437	0.149752	0.451481	-0.265579	-0.116243	0.957056	0.106617	-0.990157	-0.090677	0.958176	0.077957	0.275358
54504	6.676886	1.456859	0.106670	0.138933	0.116696	0.457857	-0.266118	-0.120917	0.956327	0.109269	-0.989491	-0.094704	0.957727	0.079294	0.276533
54505	6.436332	1.906674	0.004355	0.018454	0.045981	0.465678	-0.266005	-0.125602	0.955754	0.110739	-0.988893	-0.099136	0.957590	0.079468	0.276960
54506	6.487861	1.783998	0.354908	-0.083365	-0.158407	0.483394	-0.263864	-0.130304	0.955718	0.111327	-0.988326	-0.104014	0.958114	0.078952	0.275290
54507	6.875422	0.754831	0.987808	-0.362414	-0.326798	0.499909	-0.260139	-0.135033	0.956082	0.109216	-0.987933	-0.109815	0.959375	0.075852	0.271748
54508	7.901080	-1.335109	2.912184	-0.985573	-0.381106	0.696508	-0.255654	-0.141690	0.956329	0.101660	-0.987657	-0.119155	0.961408	0.066758	0.266903
54509	8.826650	-4.142884	4.635678	-1.538457	-0.302511	1.006296	-0.251741	-0.151489	0.955865	0.089458	-0.987087	-0.132878	0.963651	0.052059	0.262042
54510	9.152355	-7.761660	5.067758	-1.145672	-0.241497	0.807367	-0.248638	-0.159391	0.955392	0.080530	-0.986354	-0.143599	0.965243	0.041234	0.258081
54511	9.408109	-7.514809	4.958515	0.603080	-0.381694	0.022556	-0.244895	-0.159487	0.956342	0.086462	-0.986040	-0.142299	0.965687	0.047839	0.255266
54512	8.852030	-2.901189	6.185430	1.987268	-0.461933	-0.134226	-0.240481	-0.157947	0.957717	0.105410	-0.985086	-0.135992	0.964913	0.068249	0.253544
54513	7.971266	-0.059027	7.456157	2.224404	-0.621490	-0.092018	-0.234553	-0.156588	0.959409	0.126697	-0.983447	-0.129536	0.963812	0.091171	0.250510
54514	7.921449	1.882061	8.449540	1.713181	-0.777113	-0.129423	-0.227159	-0.154590	0.961510	0.143005	-0.981913	-0.124085	0.963301	0.109314	0.245158
54515	7.702656	3.614114	8.842219	0.844306	-0.542104	-0.295265	-0.222328	-0.151114	0.963190	0.150527	-0.981390	-0.119224	0.963282	0.118479	0.240938
54516	6.714661	4.734987	8.199988	-0.518786	-0.480110	-0.212341	-0.217943	-0.148516	0.964595	0.145149	-0.982294	-0.118445	0.965108	0.114196	0.235641
54517	5.622233	3.185030	5.349061	-2.418344	-0.924194	0.509755	-0.208274	-0.152616	0.966090	0.122884	-0.984007	-0.128955	0.970320	0.091859	0.223697
54518	6.310277	-1.145483	2.320755	-3.274848	-1.342937	1.308527	-0.193720	-0.164506	0.967166	0.093730	-0.984435	-0.148670	0.976569	0.061852	0.206123
54519	8.277539	-4.852565	1.552119	-2.310154	-1.418253	1.491200	-0.178546	-0.178486	0.967607	0.073942	-0.983062	-0.167693	0.981149	0.041606	0.188719
54520	11.679686	-7.249822	2.079772	-0.478438	-1.346934	0.186006	-0.165118	-0.179811	0.969744	0.069649	-0.982912	-0.170393	0.983811	0.039406	0.174820
54521	18.272088	-4.614828	3.348864	1.125001	-1.366276	-0.954552	-0.152338	-0.169835	0.973627	0.079260	-0.984051	-0.159252	0.985145	0.052909	0.163370
54522	23.184055	-4.153431	2.399571	2.109274	-0.649375	-1.074172	-0.146838	-0.158891	0.976316	0.098507	-0.984457	-0.145401	0.984243	0.074824	0.160208
54523	19.137275	-2.566581	0.984843	3.256840	0.148070	-0.721777	-0.149074	-0.151968	0.977079	0.129484	-0.982612	-0.133073	0.980312	0.106678	0.166159
54524	10.358391	0.877215	-2.873491	3.113759	0.108953	-0.580350	-0.150912	-0.146449	0.977639	0.159157	-0.979663	-0.122184	0.975651	0.137159	0.171152
54525	6.000061	4.454430	-7.353732	2.472425	-0.620614	-0.988644	-0.146509	-0.135885	0.979832	0.181819	-0.977344	-0.108353	0.972356	0.162277	0.167896
54526	6.384029	8.857963	-6.546865	1.430851	-0.520283	-0.820409	-0.142925	-0.127023	0.981549	0.194617	-0.975975	-0.097963	0.970411	0.177025	0.164212
54527	6.330234	9.543388	-1.151367	-0.378011	-0.593815	0.278326	-0.136576	-0.128735	0.982229	0.191384	-0.976269	-0.101343	0.971967	0.174142	0.157973
54528	8.238491	5.723505	-3.060614	-1.871572	-1.458441	0.735435	-0.120940	-0.133520	0.983639	0.174172	-0.978394	-0.111394	0.977260	0.157850	0.141583
54529	11.587863	2.986614	-3.414886	-2.742316	-1.637947	0.949154	-0.103306	-0.140475	0.984680	0.148397	-0.981073	-0.124392	0.983517	0.133273	0.122197
54530	12.811572	-0.245575	-2.113577	-3.005917	-1.324547	0.984005	-0.088839	-0.148572	0.984903	0.119795	-0.983229	-0.137514	0.988816	0.105769	0.105148
54531	11.880106	-3.512489	-1.755851	-2.483680	-1.042869	0.809670	-0.077593	-0.155595	0.984769	0.095911	-0.984330	-0.147968	0.992361	0.082969	0.091301
54532	9.845525	-5.727121	-0.758040	-1.532977	-0.803746	0.353686	-0.069210	-0.158481	0.984933	0.081044	-0.984931	-0.152786	0.994305	0.069249	0.081010
54533	8.773460	-6.675212	-0.377637	-0.738564	-0.876454	-0.001161	-0.060450	-0.157931	0.985598	0.073742	-0.985412	-0.153378	0.995444	0.063408	0.071215
54534	8.535542	-6.686833	-1.521100	-0.211538	-0.911350	-0.183253	-0.051420	-0.155572	0.986485	0.071636	-0.985822	-0.151733	0.996105	0.062866	0.061835
54535	8.856624	-5.644022	-2.603750	0.085155	-1.000045	-0.226419	-0.041579	-0.152741	0.987391	0.072425	-0.986107	-0.149493	0.996507	0.065296	0.052064
54536	9.884606	-4.611149	-2.695287	0.240577	-1.060651	-0.219196	-0.031079	-0.149891	0.988214	0.074836	-0.986265	-0.147242	0.996711	0.069378	0.041869
54537	9.905315	-3.644426	-2.013455	0.501798	-0.932897	-0.185442	-0.021884	-0.147428	0.988831	0.079833	-0.986167	-0.145264	0.996568	0.075763	0.033351
54538	9.325300	-2.656120	-1.239493	0.655956	-0.843866	-0.214863	-0.013559	-0.144665	0.989388	0.086423	-0.985946	-0.142978	0.996166	0.083567	0.025871
54539	9.134492	-1.437447	-0.247594	0.727341	-0.854011	-0.354125	-0.005332	-0.140466	0.990071	0.093677	-0.985801	-0.139356	0.995588	0.092004	0.018415
54540	9.687857	-0.252600	0.604266	0.573378	-0.901290	-0.550287	0.003205	-0.134208	0.990948	0.099472	-0.985995	-0.133859	0.995035	0.099001	0.010190
54541	10.413389	0.262516	0.895371	0.231612	-0.819405	-0.547323	0.010847	-0.128026	0.991711	0.101858	-0.986469	-0.128464	0.994740	0.102408	0.002340
54542	10.126640	-0.295434	0.794162	-0.045033	-0.723156	-0.370116	0.017758	-0.123656	0.992166	0.101547	-0.986968	-0.124825	0.994672	0.102968	-0.004970
54543	9.645545	-1.228191	0.632298	-0.136759	-0.770952	-0.305840	0.025159	-0.119885	0.992469	0.100295	-0.987471	-0.121824	0.994640	0.102605	-0.012820
54544	9.086530	-1.754272	0.408345	-0.273654	-0.849146	-0.251750	0.033449	-0.116557	0.992621	0.097732	-0.988035	-0.119312	0.994651	0.101001	-0.021658
54545	9.006777	-2.334775	-0.019437	-0.291995	-1.002765	-0.209149	0.043262	-0.113527	0.992593	0.094950	-0.988558	-0.117204	0.994542	0.099317	-0.031988
54546	9.497268	-2.290169	-0.577715	-0.114419	-1.098019	-0.265993	0.054020	-0.109829	0.992481	0.094023	-0.988957	-0.114557	0.994103	0.099505	-0.043097
54547	9.818692	-1.661387	-0.855596	0.022508	-1.059131	-0.318519	0.064286	-0.105659	0.992322	0.094477	-0.989269	-0.111454	0.993449	0.100916	-0.053614
54548	9.480429	-1.149811	-0.738913	0.013426	-0.949673	-0.310844	0.073515	-0.101644	0.992101	0.094914	-0.989564	-0.108417	0.992767	0.102135	-0.063101
54549	9.084947	-1.126433	-0.212183	-0.059532	-0.949281	-0.315709	0.082678	-0.097589	0.991787	0.094610	-0.989930	-0.105293	0.992075	0.102538	-0.072612
54550	9.383917	-1.736616	0.334018	-0.157612	-1.017748	-0.395982	0.092488	-0.092650	0.991394	0.093469	-0.990457	-0.101282	0.991317	0.102032	-0.082945
54551	9.606584	-2.383880	0.237356	-0.101702	-1.038393	-0.482585	0.102368	-0.086851	0.990948	0.092971	-0.990986	-0.096458	0.990392	0.102004	-0.093370
54552	9.713801	-2.480152	-0.250778	-0.078106	-1.005592	-0.527525	0.111920	-0.080619	0.990441	0.092847	-0.991495	-0.091197	0.989370	0.102166	-0.103483
54553	9.870463	-2.249079	-0.632503	0.045748	-0.923850	-0.499468	0.120630	-0.074758	0.989879	0.093918	-0.991828	-0.086351	0.988245	0.103384	-0.112623
54554	9.879815	-1.287308	0.044550	0.219060	-0.850148	-0.479724	0.128655	-0.069135	0.989277	0.096760	-0.991932	-0.081904	0.986958	0.106260	-0.120927
54555	10.219180	-0.641725	0.697851	0.222772	-0.796293	-0.397603	0.136159	-0.064375	0.988593	0.099521	-0.991950	-0.078300	0.985675	0.109047	-0.128657
54556	10.487524	-0.622842	1.062642	0.132619	-0.698916	-0.250881	0.142876	-0.061143	0.987850	0.101252	-0.991951	-0.076041	0.984548	0.110886	-0.135535
54557	10.169970	-1.243310	1.208993	-0.025776	-0.626988	-0.129038	0.148957	-0.059208	0.987070	0.101223	-0.992049	-0.074782	0.983649	0.111053	-0.141779
54558	9.814682	-1.695483	1.159394	-0.159703	-0.637519	-0.075255	0.155228	-0.057783	0.986187	0.099839	-0.992259	-0.073853	0.982821	0.109924	-0.148258
54559	9.757940	-2.067286	0.567550	-0.330989	-0.658694	-0.064982	0.161677	-0.056465	0.985227	0.096726	-0.992648	-0.072763	0.982092	0.107061	-0.155026
54560	9.931869	-2.132611	-0.510643	-0.437291	-0.592738	-0.085867	0.167491	-0.055017	0.984337	0.092659	-0.993144	-0.071275	0.981510	0.103146	-0.161245
54561	9.749544	-1.891827	-1.359407	-0.531240	-0.468196	-0.101576	0.172035	-0.053578	0.983633	0.087654	-0.993727	-0.069458	0.981183	0.098168	-0.166259
54562	9.466848	-1.487775	-2.172777	-0.611685	-0.453306	-0.144248	0.176434	-0.051741	0.982952	0.081985	-0.994375	-0.067058	0.980892	0.092419	-0.171199
54563	9.298829	-1.189304	-2.293361	-0.679747	-0.523671	-0.183986	0.181464	-0.049486	0.982152	0.075683	-0.995068	-0.064120	0.980481	0.085968	-0.176824
54564	9.029204	-1.222915	-2.230898	-0.691992	-0.637318	-0.160066	0.187668	-0.047396	0.981088	0.069275	-0.995709	-0.061354	0.979786	0.079479	-0.183580
54565	9.371619	-1.281760	-2.766450	-0.465370	-0.749560	-0.212775	0.194904	-0.044740	0.979801	0.065160	-0.996162	-0.058448	0.978655	0.075235	-0.191241
54566	9.471176	-0.529576	-3.116451	-0.328214	-0.719682	-0.296190	0.201829	-0.041288	0.978550	0.062611	-0.996524	-0.054960	0.977417	0.072360	-0.198542
54567	9.117394	-0.040132	-3.025619	-0.339269	-0.751169	-0.314299	0.209012	-0.037666	0.977187	0.059976	-0.996883	-0.051254	0.976072	0.069321	-0.206102
54568	9.158707	-0.286363	-2.619494	-0.566933	-0.877571	-0.238086	0.217508	-0.034738	0.975440	0.055016	-0.997341	-0.047785	0.974507	0.064059	-0.215019
54569	9.498336	-1.169534	-2.582750	-0.679907	-0.930344	-0.198558	0.226502	-0.032234	0.973477	0.048870	-0.997817	-0.044411	0.972784	0.057633	-0.224432
54570	9.904221	-1.062839	-2.456192	-0.580613	-0.869175	-0.218726	0.234922	-0.029605	0.971563	0.043801	-0.998198	-0.041008	0.971027	0.052189	-0.233202
54571	10.058115	-0.697990	-2.276894	-0.502999	-0.692968	-0.216104	0.241594	-0.027146	0.969998	0.039467	-0.998507	-0.037774	0.969575	0.047409	-0.240162
54572	10.251456	-0.482301	-0.859907	-0.427819	-0.535039	-0.208461	0.246773	-0.024853	0.968754	0.035903	-0.998750	-0.034768	0.968408	0.043361	-0.245573
54573	10.134459	-0.699481	0.406492	-0.514551	-0.378157	-0.170947	0.250414	-0.023035	0.967865	0.031378	-0.998999	-0.031894	0.967630	0.038356	-0.249440
54574	10.061063	-1.233257	-0.010336	-0.788866	-0.264887	-0.155186	0.253003	-0.021425	0.967228	0.024207	-0.999302	-0.028468	0.967163	0.030616	-0.252308
54575	10.228181	-1.644388	-0.704906	-1.157126	-0.146356	-0.127305	0.254431	-0.020161	0.966881	0.013370	-0.999614	-0.024362	0.966998	0.019126	-0.254063
54576	10.530050	-1.918604	-1.275963	-1.440225	-0.066276	-0.115293	0.255129	-0.019035	0.966720	-0.000191	-0.999807	-0.019636	0.966907	0.004825	-0.255084
54577	11.011011	-1.520649	-1.861712	-1.553324	-0.029688	-0.133465	0.255462	-0.017747	0.966656	-0.014837	-0.999786	-0.014435	0.966705	-0.010655	-0.255670
54578	11.804907	-1.531644	-2.436797	-1.500892	0.029694	-0.092403	0.255258	-0.016857	0.966726	-0.029045	-0.999530	-0.009759	0.966437	-0.025588	-0.255628
54579	12.775039	-2.046797	-2.895798	-1.189129	0.045694	-0.056418	0.254870	-0.016325	0.966838	-0.040361	-0.999166	-0.006231	0.966133	-0.037435	-0.255316
54580	13.088135	-1.570423	-3.013041	-0.807020	0.142305	-0.098950	0.253601	-0.015320	0.967188	-0.047834	-0.998850	-0.003279	0.966126	-0.045433	-0.254042
54581	12.817956	-0.988606	-2.357927	-0.596374	0.254322	-0.081563	0.251218	-0.014429	0.967823	-0.053359	-0.998575	-0.001037	0.966459	-0.051382	-0.251630
54582	13.052720	-0.976668	-1.584217	-0.404437	0.361347	-0.083979	0.247829	-0.013442	0.968711	-0.056982	-0.998375	0.000725	0.967127	-0.055379	-0.248192
54583	13.004506	-1.015471	-0.841888	-0.235699	0.548213	-0.086828	0.242607	-0.012312	0.970047	-0.059019	-0.998255	0.002090	0.968328	-0.057758	-0.242910
54584	12.064419	-1.195410	-0.177564	-0.070136	0.733240	-0.065593	0.235593	-0.011277	0.971786	-0.059463	-0.998227	0.002832	0.970031	-0.058452	-0.235846
54585	11.256451	-1.187259	0.641418	0.142602	0.857079	-0.051282	0.227334	-0.010317	0.973762	-0.057927	-0.998316	0.002946	0.972092	-0.057077	-0.227549
54586	10.639693	-0.903322	1.514955	0.307798	1.014100	-0.020232	0.217526	-0.009599	0.976007	-0.054817	-0.998494	0.002397	0.974514	-0.054023	-0.217725
54587	9.946248	-0.576565	1.929171	0.329883	1.188957	0.023479	0.205945	-0.009258	0.978520	-0.051614	-0.998666	0.001415	0.977201	-0.050797	-0.206148
54588	9.442038	-0.721073	1.873340	0.225908	1.363987	0.124427	0.192584	-0.009871	0.981231	-0.049587	-0.998770	-0.000315	0.980027	-0.048596	-0.192836
54589	9.149651	-1.153789	1.816585	0.162404	1.590254	0.223452	0.176899	-0.011389	0.984163	-0.048371	-0.998825	-0.002864	0.983040	-0.047099	-0.177242
54590	8.748952	-1.180315	1.782150	0.150409	1.765886	0.288071	0.159421	-0.013497	0.987118	-0.047313	-0.998862	-0.006017	0.986076	-0.045744	-0.159878
54591	9.030140	-0.895861	1.543769	0.172691	1.806258	0.353716	0.141453	-0.016265	0.989811	-0.046103	-0.998888	-0.009825	0.988871	-0.044244	-0.142046
54592	9.821364	-0.383481	1.421145	0.258837	2.008325	0.392375	0.121427	-0.019373	0.992411	-0.043985	-0.998932	-0.014119	0.991625	-0.041937	-0.122149
54593	10.159874	0.128131	1.818742	0.303206	2.248691	0.416618	0.098955	-0.022668	0.994834	-0.041394	-0.998969	-0.018645	0.994231	-0.039336	-0.099791
54594	10.885207	0.472923	2.567506	0.213905	2.413642	0.455007	0.074786	-0.026336	0.996852	-0.039599	-0.998941	-0.023420	0.996413	-0.037723	-0.075750
54595	12.083974	0.711994	1.646642	0.076802	2.604047	0.502907	0.048654	-0.030425	0.998352	-0.039103	-0.998828	-0.028534	0.998050	-0.037650	-0.049786
54596	12.650437	0.409406	-4.580091	0.442421	2.951001	0.507116	0.019026	-0.034487	0.999224	-0.034784	-0.998823	-0.033810	0.999214	-0.034114	-0.020204
54597	10.576277	0.978335	-7.212748	1.727118	2.804036	0.280658	-0.009040	-0.036609	0.999289	-0.017490	-0.999171	-0.036763	0.999806	-0.017810	0.008393
54598	10.662162	2.162019	-4.337165	1.858667	2.119890	0.054621	-0.030196	-0.037017	0.998858	0.001163	-0.999315	-0.036998	0.999543	0.000044	0.030218
54599	12.024230	2.894405	-1.039158	0.699339	1.926661	0.182924	-0.049401	-0.038952	0.998019	0.008269	-0.999221	-0.038589	0.998745	0.006346	0.049684
54600	12.235126	2.036466	-1.610455	-0.031680	1.928863	0.303101	-0.068583	-0.042143	0.996755	0.008206	-0.999097	-0.041677	0.997612	0.005321	0.068867
54601	11.526330	1.898197	-1.750520	-0.233874	1.994363	0.286662	-0.088407	-0.045127	0.995062	0.006147	-0.998979	-0.044758	0.996065	0.002159	0.088594
54602	10.500036	1.728582	-1.678265	-0.395751	1.939306	0.336071	-0.107643	-0.048524	0.993005	0.002602	-0.998819	-0.048526	0.994186	-0.002640	0.107642
54603	10.172039	1.008940	-2.165696	-0.344195	1.792108	0.417746	-0.125400	-0.052656	0.990708	-0.000281	-0.998589	-0.053111	0.992106	-0.006938	0.125208
54604	10.677414	0.461871	-1.668878	-0.298659	1.677627	0.416421	-0.141979	-0.056711	0.988244	-0.002611	-0.998333	-0.057665	0.989866	-0.010767	0.141594
54605	11.054236	-0.136148	-1.492416	-0.359525	1.661713	0.412353	-0.158388	-0.060656	0.985512	-0.005495	-0.998042	-0.062311	0.987362	-0.015285	0.157744
54606	10.710906	-0.248785	-1.355519	-0.269811	1.665997	0.340635	-0.174781	-0.063813	0.982537	-0.007524	-0.997782	-0.066141	0.984579	-0.018953	0.173913
54607	9.632632	-0.015649	-1.270862	-0.172681	1.684570	0.313356	-0.191330	-0.066643	0.979261	-0.008596	-0.997540	-0.069566	0.981488	-0.021728	0.190287
54608	8.342965	-0.344038	-1.021627	-0.180278	1.575967	0.418565	-0.206752	-0.070493	0.975851	-0.009469	-0.997210	-0.074043	0.978348	-0.024548	0.205508
54609	7.270435	-0.923955	-1.030121	-0.035653	1.402628	0.499426	-0.220464	-0.075166	0.972495	-0.008697	-0.996835	-0.079019	0.975356	-0.025879	0.219112
54610	6.952338	-1.064343	-0.863817	0.298762	1.154324	0.425664	-0.231674	-0.079163	0.969567	-0.004764	-0.996579	-0.082507	0.972782	-0.023734	0.230504
54611	7.487188	-0.705641	-0.880215	0.664810	0.956331	0.319191	-0.240934	-0.082192	0.967055	0.002504	-0.996457	-0.084067	0.970538	-0.017833	0.240286
54612	7.746397	-0.466433	-0.898807	0.960080	0.865023	0.244465	-0.249235	-0.084552	0.964745	0.012468	-0.996379	-0.084103	0.968363	-0.008933	0.249387
54613	7.674655	0.037155	-0.831826	1.208058	0.759324	0.190101	-0.256508	-0.086467	0.962667	0.024689	-0.996252	-0.082905	0.966227	0.002501	0.257682
54614	7.580583	0.727923	-0.601296	1.286851	0.616098	0.152652	-0.262337	-0.088079	0.960948	0.037561	-0.996003	-0.081038	0.964245	0.014834	0.264597
54615	7.625261	1.292138	-0.545630	1.199090	0.454959	0.138624	-0.266623	-0.089598	0.959627	0.049534	-0.995628	-0.079197	0.962527	0.026418	0.269895
54616	7.753408	1.471289	-0.250754	1.088668	0.337867	0.131556	-0.269726	-0.091048	0.958623	0.060411	-0.995159	-0.077521	0.961040	0.037002	0.273920
54617	7.881054	1.476390	0.094667	0.964824	0.229408	0.083416	-0.271836	-0.092018	0.957934	0.069958	-0.994674	-0.075695	0.959797	0.046438	0.276826
54618	7.944982	1.949814	0.666961	0.765667	0.247352	0.021795	-0.274115	-0.092389	0.957249	0.077415	-0.994264	-0.073793	0.958576	0.053878	0.279695
54619	7.626626	3.030773	1.410286	0.338425	0.404432	-0.037061	-0.277979	-0.092288	0.956144	0.080609	-0.994104	-0.072517	0.957199	0.056916	0.283779
54620	7.362328	4.303458	0.927827	-0.089054	0.494223	-0.225523	-0.282808	-0.090350	0.954912	0.079179	-0.994355	-0.070632	0.955903	0.055634	0.288365
