// General information: 
//  MT Manager version: 2022.2.0 
//  XDA version: 2022.2.0 build 7381 rev 124627 built on 2023-07-19
// Device information: 
//  DeviceId: 00B4CB9F
//  ProductCode: MTW2-3A7G6
//  Firmware Version: 4.6.0
//  Hardware Version: 2.0.0
// Device settings: 
//  Filter Profile: human(46.1)
//  Option Flags: Orientation Smoother Disabled, Position/Velocity Smoother Disabled, Continuous Zero Rotation Update Disabled, AHS Disabled, ICC Disabled
// Coordinate system: ENU
PacketCounter	Acc_X	Acc_Y	Acc_Z	Gyr_X	Gyr_Y	Gyr_Z	Mat[1][1]	Mat[2][1]	Mat[3][1]	Mat[1][2]	Mat[2][2]	Mat[3][2]	Mat[1][3]	Mat[2][3]	Mat[3][3]
14541	9.664364	0.402949	-0.698474	0.003631	0.024882	-0.009511	-0.023889	0.147156	0.988825	0.601005	-0.788297	0.131833	0.798888	0.597438	-0.069610
14542	9.574449	0.443164	-0.674224	0.103322	0.038885	-0.013326	-0.024215	0.147012	0.988838	0.601843	-0.787657	0.131840	0.798247	0.598318	-0.069406
14543	9.587809	0.711272	-0.748063	0.198102	0.063021	-0.010262	-0.024738	0.146701	0.988871	0.603440	-0.786446	0.131767	0.797025	0.599984	-0.069071
14544	9.635856	1.419158	-0.596558	0.259517	0.069865	-0.013494	-0.025311	0.146371	0.988906	0.605519	-0.784863	0.131668	0.795428	0.602134	-0.068765
14545	9.704460	1.740499	-0.706989	0.204917	0.070488	-0.012276	-0.025834	0.146057	0.988939	0.607253	-0.783537	0.131585	0.794089	0.603935	-0.068452
14546	9.704884	1.980990	-0.845812	0.169785	0.063058	-0.011963	-0.026342	0.145754	0.988970	0.608613	-0.782489	0.131534	0.793030	0.605365	-0.068095
14547	9.775723	2.102378	-0.852198	0.093363	0.054307	-0.024007	-0.026851	0.145671	0.988969	0.609307	-0.781918	0.131716	0.792479	0.606122	-0.067764
14548	9.545769	2.076396	-0.845300	-0.007982	0.057509	-0.028008	-0.027412	0.145526	0.988975	0.609253	-0.781922	0.131946	0.792502	0.606152	-0.067228
14549	9.723047	1.835436	-0.867028	-0.090712	0.026889	-0.028240	-0.027733	0.145631	0.988950	0.608516	-0.782438	0.132285	0.793057	0.605461	-0.066919
14550	9.680473	1.486444	-0.891417	-0.167285	0.053333	-0.019743	-0.028212	0.145447	0.988964	0.607199	-0.783417	0.132539	0.794049	0.604237	-0.066214
14551	9.699972	1.204231	-0.918732	-0.196025	0.041275	-0.006582	-0.028516	0.145261	0.988982	0.605707	-0.784544	0.132699	0.795176	0.602818	-0.065614
14552	9.699509	0.957089	-0.959115	-0.181360	0.031852	-0.005889	-0.028740	0.145100	0.988999	0.604279	-0.785624	0.132822	0.796254	0.601449	-0.065102
14553	9.659321	0.905630	-1.000203	-0.111715	0.026892	-0.008484	-0.028918	0.144973	0.989013	0.603541	-0.786180	0.132888	0.796807	0.600753	-0.064762
14554	9.646102	1.022442	-0.871993	-0.058708	0.010782	-0.009297	-0.028995	0.144965	0.989012	0.603087	-0.786515	0.132965	0.797148	0.600316	-0.064621
14555	9.582176	1.040915	-0.807502	-0.021412	0.011068	-0.014095	-0.029160	0.144904	0.989016	0.603070	-0.786519	0.133016	0.797155	0.600325	-0.064452
14556	9.607502	1.095495	-0.681396	-0.006217	0.008788	-0.018355	-0.029276	0.144979	0.989002	0.603032	-0.786526	0.133148	0.797179	0.600298	-0.064401
14557	9.696686	1.075008	-0.536094	-0.000774	0.018498	-0.023015	-0.029494	0.145029	0.988988	0.603121	-0.786430	0.133312	0.797104	0.600412	-0.064275
14558	9.743253	1.085298	-0.375151	0.006781	0.029324	-0.018188	-0.029772	0.144980	0.988987	0.603187	-0.786359	0.133434	0.797044	0.600517	-0.064038
14559	9.757313	1.287597	-0.345045	0.028715	0.046058	-0.019151	-0.030272	0.144877	0.988986	0.603321	-0.786221	0.133641	0.796924	0.600722	-0.063607
14560	9.829143	1.525767	-0.303180	0.027288	0.045326	-0.014537	-0.030656	0.144703	0.989000	0.603551	-0.786032	0.133715	0.796735	0.601011	-0.063239
14561	9.802730	1.608262	-0.423143	-0.013744	0.044614	-0.022169	-0.031077	0.144605	0.989001	0.603469	-0.786064	0.133896	0.796780	0.600993	-0.062836
14562	9.715905	1.681347	-0.412362	-0.022715	0.035702	-0.028133	-0.031467	0.144595	0.988990	0.603297	-0.786156	0.134135	0.796896	0.600875	-0.062496
14563	9.735622	1.582791	-0.503049	-0.058297	0.026393	-0.034530	-0.031849	0.144724	0.988959	0.602813	-0.786463	0.134504	0.797246	0.600442	-0.062194
14564	9.718935	1.279269	-0.595341	-0.074309	0.021189	-0.031666	-0.032144	0.144830	0.988934	0.602228	-0.786860	0.134811	0.797677	0.599897	-0.061928
14565	9.760073	1.202445	-0.547607	-0.036086	0.028118	-0.030512	-0.032433	0.144891	0.988916	0.602079	-0.786933	0.135043	0.797777	0.599786	-0.061713
14566	9.668111	1.194749	-0.464871	-0.014070	0.025986	-0.022537	-0.032711	0.144896	0.988906	0.601977	-0.786981	0.135222	0.797843	0.599722	-0.061481
14567	9.673104	1.094278	-0.477413	0.001570	0.023191	-0.015962	-0.032923	0.144789	0.988915	0.602204	-0.786803	0.135246	0.797663	0.599981	-0.061289
14568	9.716692	1.246168	-0.337425	0.060120	0.042007	-0.005635	-0.033227	0.144565	0.988937	0.602699	-0.786430	0.135212	0.797277	0.600524	-0.060998
14569	9.737591	1.576047	-0.229004	0.061554	0.058102	-0.008884	-0.033728	0.144289	0.988961	0.603138	-0.786085	0.135259	0.796924	0.601042	-0.060513
14570	9.612016	1.767918	-0.300113	0.048749	0.041694	-0.014551	-0.034084	0.144136	0.988971	0.603539	-0.785766	0.135321	0.796605	0.601495	-0.060210
14571	9.696170	1.900525	-0.406982	0.008757	0.036613	-0.024680	-0.034493	0.144089	0.988963	0.603639	-0.785655	0.135521	0.796511	0.601651	-0.059879
14572	9.602484	1.778390	-0.579846	-0.040190	0.032669	-0.027960	-0.034857	0.144096	0.988950	0.603327	-0.785852	0.135769	0.796732	0.601392	-0.059545
14573	9.655736	1.604275	-0.702362	-0.083332	0.020182	-0.022188	-0.035119	0.144110	0.988938	0.602704	-0.786293	0.135983	0.797192	0.600813	-0.059242
14574	9.710662	1.296164	-0.826590	-0.097650	0.013668	-0.013424	-0.035245	0.144117	0.988933	0.601938	-0.786855	0.136121	0.797764	0.600074	-0.059017
14575	9.702008	1.060919	-0.760944	-0.083529	0.010723	-0.005228	-0.035284	0.144061	0.988940	0.601401	-0.787263	0.136139	0.798168	0.599553	-0.058860
14576	9.664521	0.989771	-0.760082	-0.044647	0.005354	0.002979	-0.035245	0.143989	0.988952	0.601064	-0.787530	0.136083	0.798424	0.599219	-0.058790
14577	9.699151	1.145622	-0.698632	0.010973	0.000561	-0.000373	-0.035163	0.144024	0.988949	0.601149	-0.787470	0.136056	0.798363	0.599290	-0.058890
14578	9.715588	1.443599	-0.579838	0.019815	-0.002350	-0.006003	-0.035116	0.144069	0.988944	0.601323	-0.787338	0.136051	0.798234	0.599452	-0.058984
14579	9.708282	1.622149	-0.482626	-0.006944	-0.014317	-0.019616	-0.035058	0.144303	0.988912	0.601299	-0.787329	0.136205	0.798254	0.599407	-0.059167
14580	9.645871	1.622617	-0.375687	-0.055744	-0.016788	-0.022632	-0.034996	0.144566	0.988876	0.600864	-0.787626	0.136409	0.798585	0.598954	-0.059301
14581	9.625700	1.536005	-0.411389	-0.073377	-0.021303	-0.022717	-0.034916	0.144798	0.988845	0.600395	-0.787954	0.136581	0.798941	0.598467	-0.059424
14582	9.684558	1.440737	-0.401817	-0.072479	-0.014715	-0.016804	-0.034835	0.145001	0.988818	0.599829	-0.788358	0.136737	0.799370	0.597885	-0.059514
14583	9.643868	1.454505	-0.342226	-0.057635	-0.009612	-0.010229	-0.034778	0.145172	0.988795	0.599304	-0.788733	0.136878	0.799766	0.597349	-0.059572
14584	9.723155	1.322417	-0.320809	-0.065731	0.001045	-0.004691	-0.034750	0.145186	0.988794	0.598795	-0.789114	0.136911	0.800148	0.596842	-0.059515
14585	9.824980	0.954971	-0.394501	-0.058380	0.025736	0.001308	-0.034871	0.145078	0.988806	0.598319	-0.789471	0.136931	0.800499	0.596396	-0.059273
14586	9.769171	1.208130	-0.390649	0.044873	0.041649	0.004493	-0.035113	0.144777	0.988841	0.598698	-0.789205	0.136807	0.800205	0.596821	-0.058967
14587	9.774395	1.531548	-0.599595	0.066799	0.030390	-0.004894	-0.035292	0.144668	0.988851	0.599272	-0.788773	0.136785	0.799767	0.597418	-0.058858
14588	9.800085	1.695610	-0.823663	0.072564	0.015065	-0.017471	-0.035453	0.144700	0.988840	0.599864	-0.788310	0.136862	0.799316	0.598022	-0.058852
14589	9.615007	1.802362	-0.850403	0.029315	0.008734	-0.027726	-0.035666	0.144837	0.988813	0.600112	-0.788083	0.137081	0.799121	0.598287	-0.058810
14590	9.473615	1.630092	-0.940962	0.003144	-0.020323	-0.025912	-0.035595	0.145146	0.988770	0.600146	-0.788022	0.137282	0.799098	0.598293	-0.059059
14591	9.564078	1.410032	-0.906127	-0.013144	-0.031508	-0.016409	-0.035361	0.145433	0.988736	0.600170	-0.787988	0.137370	0.799091	0.598267	-0.059420
14592	9.635093	1.280660	-0.754493	-0.015547	-0.033848	0.005119	-0.034996	0.145579	0.988727	0.600066	-0.788084	0.137276	0.799185	0.598106	-0.059777
14593	9.651968	1.269538	-0.604277	-0.008586	-0.029573	0.011882	-0.034639	0.145686	0.988724	0.599993	-0.788160	0.137153	0.799255	0.597979	-0.060109
14594	9.767057	1.282052	-0.501803	0.003173	-0.021535	0.012905	-0.034325	0.145696	0.988734	0.600042	-0.788155	0.136971	0.799232	0.597983	-0.060370
14595	9.855341	1.382765	-0.334587	0.000231	-0.001757	0.009026	-0.034196	0.145705	0.988737	0.599964	-0.788226	0.136907	0.799296	0.597888	-0.060463
14596	9.873915	1.480384	-0.321213	-0.019943	0.018564	0.002893	-0.034263	0.145555	0.988757	0.599824	-0.788345	0.136838	0.799398	0.597768	-0.060296
14597	9.851980	1.469061	-0.480932	-0.030034	0.017512	-0.010922	-0.034407	0.145589	0.988747	0.599520	-0.788552	0.136974	0.799620	0.597486	-0.060151
14598	9.855694	1.380062	-0.726572	-0.033199	0.021028	-0.019478	-0.034628	0.145601	0.988737	0.599265	-0.788717	0.137134	0.799801	0.597265	-0.059942
14599	9.749758	1.297895	-0.857739	-0.038556	0.031392	-0.021931	-0.034956	0.145524	0.988737	0.599130	-0.788796	0.137278	0.799889	0.597180	-0.059614
14600	9.622521	1.201352	-0.940020	-0.035959	0.039338	-0.015824	-0.035301	0.145397	0.988743	0.598855	-0.788983	0.137403	0.800079	0.596964	-0.059220
14601	9.529682	1.259783	-0.960978	-0.014408	0.032751	-0.008668	-0.035585	0.145289	0.988749	0.598698	-0.789085	0.137497	0.800184	0.596855	-0.058905
14602	9.555488	1.362442	-0.891503	-0.024396	0.022814	-0.000774	-0.035708	0.145143	0.988766	0.598521	-0.789225	0.137466	0.800311	0.596706	-0.058689
14603	9.660126	1.456242	-0.777601	-0.049035	0.008968	0.002317	-0.035805	0.145032	0.988779	0.598124	-0.789526	0.137465	0.800603	0.596334	-0.058478
14604	9.693556	1.440544	-0.890122	-0.081251	-0.002732	0.006152	-0.035682	0.144983	0.988790	0.597494	-0.790014	0.137399	0.801079	0.595699	-0.058437
14605	9.649245	1.421720	-0.815833	-0.105768	-0.009446	-0.003449	-0.035640	0.144998	0.988790	0.596742	-0.790575	0.137441	0.801641	0.594951	-0.058350
14606	9.631957	1.375418	-0.887746	-0.133210	-0.029757	-0.014001	-0.035421	0.145269	0.988758	0.595687	-0.791342	0.137604	0.802435	0.593864	-0.058504
14607	9.707373	1.213558	-0.854596	-0.161260	-0.028604	-0.014090	-0.035073	0.145528	0.988732	0.594682	-0.792085	0.137679	0.803196	0.592810	-0.058762
14608	9.761950	0.853368	-0.716638	-0.192319	-0.010054	-0.013752	-0.035010	0.145680	0.988712	0.593150	-0.793198	0.137875	0.804330	0.591282	-0.058640
14609	9.661868	0.606086	-0.574924	-0.162420	0.021743	-0.007241	-0.035177	0.145582	0.988721	0.591908	-0.794106	0.137985	0.805237	0.590086	-0.058237
14610	9.632407	0.653520	-0.470872	-0.085487	0.037861	0.000350	-0.035416	0.145339	0.988748	0.591239	-0.794606	0.137979	0.805718	0.589473	-0.057788
14611	9.728925	1.106187	-0.308237	0.019631	0.057323	0.001111	-0.035832	0.145001	0.988782	0.591387	-0.794502	0.137941	0.805591	0.589696	-0.057283
14612	9.765869	1.656375	-0.154522	0.056961	0.058089	-0.005071	-0.036266	0.144682	0.988813	0.591863	-0.794153	0.137907	0.805222	0.590244	-0.056831
14613	9.889672	1.843199	-0.210776	0.023427	0.055466	-0.015067	-0.036806	0.144490	0.988821	0.591931	-0.794075	0.138066	0.805148	0.590396	-0.056302
14614	9.858695	1.961035	-0.208310	-0.014304	0.060699	-0.031154	-0.037416	0.144362	0.988817	0.591823	-0.794110	0.138330	0.805199	0.590381	-0.055725
14615	9.774571	1.895996	-0.384978	-0.077470	0.056945	-0.036982	-0.037981	0.144288	0.988807	0.591394	-0.794377	0.138633	0.805488	0.590040	-0.055160
14616	9.738245	1.708772	-0.614814	-0.132303	0.055802	-0.036406	-0.038582	0.144232	0.988792	0.590333	-0.795099	0.139013	0.806237	0.589080	-0.054468
14617	9.709038	1.465249	-0.709228	-0.170454	0.062586	-0.028717	-0.039193	0.144056	0.988793	0.589030	-0.796012	0.139317	0.807160	0.587889	-0.053655
14618	9.622460	1.239937	-0.686842	-0.169683	0.069731	-0.025741	-0.039844	0.143834	0.988799	0.587669	-0.796966	0.139609	0.808120	0.586649	-0.052773
14619	9.562587	1.051064	-0.704021	-0.116549	0.066519	-0.019240	-0.040409	0.143555	0.988817	0.586879	-0.797520	0.139766	0.808665	0.585964	-0.052022
14620	9.572938	1.142241	-0.526884	-0.060641	0.060381	-0.015004	-0.040921	0.143303	0.988832	0.586403	-0.797848	0.139893	0.808985	0.585579	-0.051384
14621	9.579876	1.261462	-0.417917	-0.031340	0.056154	-0.015517	-0.041399	0.143068	0.988847	0.586265	-0.797932	0.139991	0.809061	0.585522	-0.050842
14622	9.603773	1.259327	-0.415699	-0.034606	0.040190	-0.020168	-0.041779	0.142976	0.988844	0.585997	-0.798100	0.140156	0.809235	0.585315	-0.050440
14623	9.739300	1.244435	-0.505259	-0.038993	0.029132	-0.025350	-0.042077	0.142980	0.988831	0.585808	-0.798206	0.140344	0.809357	0.585170	-0.050173
14624	9.730432	1.149220	-0.649318	-0.041534	0.038681	-0.032698	-0.042518	0.142997	0.988809	0.585478	-0.798396	0.140636	0.809572	0.584906	-0.049776
14625	9.670895	1.135760	-0.702892	-0.021347	0.039442	-0.038069	-0.042924	0.143092	0.988778	0.585425	-0.798379	0.140953	0.809589	0.584906	-0.049500
14626	9.636328	1.108707	-0.737474	-0.011131	0.029872	-0.034168	-0.043302	0.143173	0.988750	0.585341	-0.798390	0.141243	0.809630	0.584872	-0.049233
14627	9.620368	0.994926	-0.704480	0.000808	0.024389	-0.035768	-0.043684	0.143268	0.988719	0.585371	-0.798315	0.141541	0.809587	0.584951	-0.048991
14628	9.649872	1.050860	-0.521224	0.031461	0.030890	-0.027879	-0.044034	0.143292	0.988700	0.585635	-0.798085	0.141749	0.809378	0.585259	-0.048774
14629	9.690353	1.201219	-0.377566	0.047231	0.029892	-0.022464	-0.044348	0.143213	0.988698	0.586179	-0.797670	0.141836	0.808967	0.585844	-0.048573
14630	9.736416	1.363955	-0.202048	0.054442	0.040130	-0.022247	-0.044740	0.143137	0.988691	0.586630	-0.797313	0.141976	0.808618	0.586348	-0.048297
14631	9.787393	1.459849	-0.320577	0.033817	0.037596	-0.023489	-0.045163	0.143088	0.988679	0.586867	-0.797104	0.142170	0.808423	0.586644	-0.047974
14632	9.814454	1.559928	-0.435677	0.030203	0.051429	-0.028370	-0.045681	0.142994	0.988669	0.587119	-0.796880	0.142383	0.808211	0.586971	-0.047552
14633	9.705104	1.572630	-0.528568	0.023214	0.047801	-0.038206	-0.046164	0.142984	0.988648	0.587518	-0.796541	0.142634	0.807893	0.587433	-0.047234
14634	9.697072	1.583231	-0.601022	0.008185	0.041813	-0.048199	-0.046721	0.143104	0.988604	0.587583	-0.796418	0.143054	0.807814	0.587571	-0.046876
14635	9.715976	1.387190	-0.576877	-0.001060	0.044968	-0.051887	-0.047296	0.143240	0.988557	0.587678	-0.796269	0.143494	0.807711	0.587740	-0.046519
14636	9.809827	1.151231	-0.493016	0.014956	0.050300	-0.054568	-0.047959	0.143361	0.988508	0.587794	-0.796096	0.143973	0.807588	0.587944	-0.046087
14637	9.736840	1.212764	-0.327799	0.035277	0.067011	-0.053557	-0.048738	0.143333	0.988474	0.588238	-0.795694	0.144383	0.807218	0.588495	-0.045533
14638	9.691332	1.197068	-0.249041	0.038336	0.067067	-0.055224	-0.049540	0.143359	0.988430	0.588542	-0.795383	0.144858	0.806947	0.588909	-0.044970
14639	9.679334	1.387231	-0.164617	0.061304	0.061933	-0.055576	-0.050290	0.143475	0.988375	0.589001	-0.794950	0.145366	0.806566	0.589465	-0.044529
14640	9.689977	1.549081	0.171388	0.065910	0.061867	-0.057324	-0.051062	0.143548	0.988325	0.589526	-0.794473	0.145850	0.806134	0.590091	-0.044058
14641	9.677280	1.469419	0.192650	0.058818	0.036573	-0.060560	-0.051719	0.143764	0.988260	0.589950	-0.794059	0.146388	0.805782	0.590595	-0.043745
14642	9.778741	1.393829	0.342268	0.077747	0.037486	-0.057963	-0.052300	0.143985	0.988197	0.590568	-0.793509	0.146874	0.805291	0.591279	-0.043533
14643	9.603174	1.396546	0.111303	0.109347	0.023583	-0.057239	-0.052707	0.144224	0.988140	0.591698	-0.792599	0.147245	0.804435	0.592441	-0.043562
14644	9.948595	1.513338	-0.068858	0.154509	0.003519	-0.055112	-0.052997	0.144623	0.988067	0.592933	-0.791596	0.147669	0.803506	0.593683	-0.043799
14645	9.929018	1.604371	-0.137458	0.123117	0.054353	-0.053208	-0.053684	0.144726	0.988014	0.593898	-0.790791	0.148107	0.802747	0.594730	-0.043500
14646	9.450405	1.575222	-0.606665	0.160906	0.026147	-0.061748	-0.054197	0.145041	0.987940	0.595178	-0.789736	0.148593	0.801764	0.596053	-0.043524
14647	9.486298	1.588208	-0.976625	0.186160	-0.002590	-0.069893	-0.054528	0.145574	0.987844	0.596725	-0.788466	0.149131	0.800591	0.597603	-0.043874
14648	9.483939	1.670897	-1.106508	0.180942	-0.008507	-0.069281	-0.054809	0.146153	0.987742	0.598157	-0.787276	0.149682	0.799502	0.599029	-0.044273
14649	9.504760	1.786658	-1.065398	0.137469	-0.009935	-0.058564	-0.055029	0.146636	0.987659	0.599297	-0.786322	0.150134	0.798633	0.600163	-0.044608
14650	9.627945	1.794708	-1.072494	0.083595	-0.019632	-0.056876	-0.055149	0.147184	0.987571	0.599955	-0.785730	0.150605	0.798130	0.600804	-0.044972
14651	9.754071	1.775423	-1.011046	0.029792	-0.013381	-0.048972	-0.055284	0.147617	0.987498	0.600241	-0.785433	0.151015	0.797906	0.601086	-0.045184
14652	9.753230	1.779897	-1.011293	-0.032127	0.007893	-0.042534	-0.055538	0.147887	0.987444	0.599984	-0.785556	0.151396	0.798082	0.600859	-0.045102
14653	9.871215	1.716146	-0.962473	-0.101084	0.020661	-0.037476	-0.055842	0.148094	0.987396	0.599217	-0.786066	0.151786	0.798637	0.600140	-0.044845
14654	9.800032	1.469856	-1.030868	-0.141889	0.033989	-0.031791	-0.056239	0.148123	0.987369	0.598088	-0.786863	0.152110	0.799455	0.599088	-0.044338
14655	9.792467	1.168319	-1.124691	-0.150270	0.029188	-0.035528	-0.056659	0.148211	0.987331	0.596876	-0.787708	0.152497	0.800330	0.597955	-0.043833
14656	9.690064	1.212127	-0.967797	-0.097072	0.033870	-0.042831	-0.057121	0.148329	0.987287	0.596097	-0.788217	0.152909	0.800878	0.597254	-0.043395
14657	9.570010	1.350134	-0.640123	-0.072306	0.015764	-0.048865	-0.057418	0.148721	0.987211	0.595527	-0.788547	0.153430	0.801280	0.596721	-0.043291
14658	9.531204	1.356711	-0.293165	-0.040290	-0.006497	-0.060680	-0.057663	0.149222	0.987121	0.595192	-0.788690	0.153993	0.801512	0.596407	-0.043337
14659	9.670283	1.460246	0.189859	-0.003930	-0.021210	-0.057124	-0.057707	0.149771	0.987035	0.595364	-0.788471	0.154450	0.801381	0.596558	-0.043668
14660	9.713095	1.491119	0.566470	0.025799	-0.020707	-0.056576	-0.057814	0.150324	0.986945	0.595561	-0.788225	0.154944	0.801227	0.596744	-0.043957
14661	9.900369	1.560529	0.847342	0.031818	-0.003433	-0.059647	-0.058076	0.150803	0.986856	0.595843	-0.787909	0.155467	0.800998	0.597040	-0.044096
14662	9.843021	1.891200	0.800555	0.006114	0.044123	-0.060256	-0.058724	0.150997	0.986788	0.595880	-0.787775	0.156005	0.800924	0.597169	-0.043715
14663	9.657209	1.924629	0.427952	-0.033042	0.045465	-0.066328	-0.059455	0.151204	0.986713	0.595597	-0.787867	0.156621	0.801080	0.596995	-0.043214
14664	9.788849	1.779100	0.021736	-0.078827	0.061692	-0.073910	-0.060325	0.151402	0.986630	0.594944	-0.788218	0.157331	0.801500	0.596481	-0.042526
14665	9.639878	1.437798	-0.425457	-0.097663	0.081069	-0.077189	-0.061330	0.151498	0.986553	0.594290	-0.788570	0.158040	0.801909	0.595991	-0.041671
14666	9.691190	0.856990	-0.768804	-0.093928	0.085617	-0.070173	-0.062369	0.151524	0.986484	0.593517	-0.789016	0.158717	0.802401	0.595394	-0.040722
14667	9.662528	0.561410	-0.857168	0.042696	0.112777	-0.066653	-0.063590	0.151284	0.986443	0.594030	-0.788528	0.159225	0.801926	0.596101	-0.039725
14668	9.577634	0.872260	-0.901449	0.166713	0.118654	-0.060577	-0.064836	0.151036	0.986400	0.595351	-0.787434	0.159703	0.800846	0.597608	-0.038865
14669	9.652217	1.465761	-0.996820	0.257738	0.088728	-0.064994	-0.065888	0.150941	0.986345	0.597456	-0.785746	0.160154	0.799190	0.599849	-0.038410
14670	9.655681	1.972798	-1.182711	0.231362	0.074933	-0.071427	-0.066849	0.151035	0.986266	0.599280	-0.784241	0.160716	0.797744	0.601793	-0.038087
14671	9.615698	2.215592	-1.424704	0.142074	0.050297	-0.068440	-0.067611	0.151193	0.986189	0.600467	-0.783224	0.161243	0.796786	0.603076	-0.037832
14672	9.544249	2.064758	-1.668272	0.015108	0.019907	-0.060614	-0.068069	0.151531	0.986106	0.600571	-0.783033	0.161782	0.796669	0.603239	-0.037704
14673	9.576653	2.034641	-1.524064	-0.061913	0.011489	-0.058047	-0.068475	0.151834	0.986031	0.600131	-0.783266	0.162287	0.796966	0.602860	-0.037486
14674	9.492613	2.054458	-1.116576	-0.155471	0.010213	-0.053523	-0.068813	0.152174	0.985955	0.598879	-0.784114	0.162819	0.797878	0.601672	-0.037177
14675	9.535592	1.913861	-0.699829	-0.210134	-0.010923	-0.051072	-0.068894	0.152670	0.985873	0.597392	-0.785140	0.163332	0.798984	0.600206	-0.037112
14676	9.772192	1.735529	-0.280860	-0.226837	-0.025985	-0.047186	-0.068903	0.153179	0.985793	0.595571	-0.786420	0.163828	0.800342	0.598398	-0.037042
14677	9.864414	1.507233	-0.009102	-0.214670	-0.010013	-0.046001	-0.069041	0.153597	0.985719	0.593877	-0.787597	0.164321	0.801588	0.596740	-0.036841
14678	9.756427	1.251909	0.021934	-0.174366	0.007339	-0.047077	-0.069315	0.153907	0.985651	0.592471	-0.788556	0.164796	0.802605	0.595392	-0.036527
14679	9.782726	1.027733	0.114744	-0.146834	0.038792	-0.043328	-0.069791	0.153973	0.985607	0.591468	-0.789229	0.165176	0.803302	0.594483	-0.035989
14680	9.769858	0.647654	0.280017	-0.135663	0.101389	-0.040563	-0.070781	0.153673	0.985583	0.590375	-0.789965	0.165570	0.804020	0.593583	-0.034810
14681	9.655716	0.397017	0.242669	-0.041911	0.139479	-0.033027	-0.072005	0.153075	0.985588	0.590188	-0.790051	0.165824	0.804048	0.593622	-0.033455
14682	9.619984	1.172469	0.344797	0.157968	0.154202	-0.019655	-0.073296	0.152296	0.985613	0.591469	-0.789074	0.165912	0.802990	0.595120	-0.032243
14683	9.767085	2.150495	0.523242	0.172557	0.157108	-0.008607	-0.074514	0.151348	0.985668	0.593063	-0.787897	0.165814	0.801701	0.596918	-0.031050
14684	9.772435	2.797283	0.459324	0.135258	0.142792	-0.016484	-0.075691	0.150607	0.985692	0.594160	-0.787056	0.165882	0.800778	0.598214	-0.029912
14685	9.809924	3.192303	-0.241453	0.058437	0.125717	-0.034614	-0.076779	0.150108	0.985684	0.594856	-0.786483	0.166108	0.800157	0.599093	-0.028907
14686	9.301058	3.046023	-0.432306	-0.083334	0.148149	-0.030460	-0.078081	0.149443	0.985683	0.594191	-0.786928	0.166378	0.800525	0.598675	-0.027354
14687	9.666428	2.689240	-1.052287	-0.214495	0.149416	-0.034033	-0.079429	0.148780	0.985675	0.592513	-0.788123	0.166708	0.801636	0.597266	-0.025554
14688	9.558561	2.110568	-1.378658	-0.357018	0.170616	-0.047390	-0.081014	0.148119	0.985646	0.589636	-0.790172	0.167209	0.803596	0.594718	-0.023322
14689	9.528865	1.380224	-1.430691	-0.451281	0.145022	-0.048199	-0.082416	0.147628	0.985603	0.586025	-0.792740	0.167744	0.806091	0.591413	-0.021179
14690	9.468002	0.609749	-1.508576	-0.462331	0.102458	-0.042437	-0.083427	0.147343	0.985561	0.582284	-0.795395	0.168202	0.808694	0.587908	-0.019438
14691	9.344241	0.558054	-1.122395	-0.298433	0.054632	-0.028744	-0.083913	0.147257	0.985532	0.580112	-0.796924	0.168469	0.810203	0.585856	-0.018553
14692	9.496157	1.014072	-0.604380	-0.198990	-0.001876	-0.010445	-0.083894	0.147333	0.985523	0.578517	-0.798064	0.168555	0.811344	0.584283	-0.018282
14693	9.643731	1.428696	-0.373276	-0.137763	-0.044713	0.000769	-0.083412	0.147591	0.985525	0.577637	-0.798713	0.168504	0.812021	0.583331	-0.018632
14694	9.955732	1.351301	-0.070681	-0.192121	-0.039055	0.000383	-0.083027	0.147797	0.985527	0.576104	-0.799824	0.168482	0.813149	0.581754	-0.018739
14695	9.960932	0.993593	0.252409	-0.172396	0.021616	-0.012392	-0.083236	0.147771	0.985513	0.574688	-0.800814	0.168615	0.814128	0.580397	-0.018266
14696	9.830603	1.020345	0.433327	-0.069159	0.067496	-0.021261	-0.083843	0.147531	0.985497	0.574135	-0.801175	0.168783	0.814457	0.579960	-0.017530
14697	9.652034	1.607074	0.653490	0.070623	0.099912	-0.030850	-0.084753	0.147171	0.985473	0.574826	-0.800633	0.169003	0.813875	0.580799	-0.016742
14698	9.567129	2.317761	0.924672	0.080051	0.078251	-0.027877	-0.085485	0.146920	0.985448	0.575481	-0.800118	0.169211	0.813335	0.581571	-0.016152
14699	9.691608	2.672021	1.004181	-0.007897	0.070360	-0.019309	-0.086115	0.146620	0.985437	0.575465	-0.800104	0.169334	0.813280	0.581667	-0.015474
14700	9.660795	2.410318	0.762600	-0.072551	0.080422	-0.007602	-0.086748	0.146195	0.985445	0.574896	-0.800506	0.169366	0.813615	0.581221	-0.014604
14701	9.690752	2.188121	0.592169	-0.064202	0.087368	-0.006348	-0.087407	0.145704	0.985460	0.574560	-0.800749	0.169355	0.813782	0.581009	-0.013725
14702	9.538662	2.337100	0.324748	-0.031386	0.112068	-0.016041	-0.088346	0.145162	0.985456	0.574319	-0.800899	0.169464	0.813851	0.580937	-0.012613
14703	9.410469	2.393041	0.201979	-0.019669	0.110417	-0.041720	-0.089362	0.144785	0.985420	0.574462	-0.800738	0.169745	0.813639	0.581254	-0.011618
14704	9.391006	2.414909	-0.367007	-0.052660	0.111122	-0.048551	-0.090480	0.144509	0.985358	0.574018	-0.800964	0.170175	0.813829	0.581011	-0.010480
14705	9.382307	2.142605	-0.639932	-0.128942	0.094387	-0.047085	-0.091496	0.144340	0.985289	0.572846	-0.801704	0.170641	0.814541	0.580031	-0.009332
14706	9.463695	1.992043	-0.915160	-0.176393	0.063409	-0.040017	-0.092176	0.144275	0.985235	0.571400	-0.802659	0.170998	0.815479	0.578725	-0.008452
14707	9.438899	1.833329	-0.954368	-0.224909	0.019658	-0.038828	-0.092475	0.144451	0.985181	0.569697	-0.803798	0.171331	0.816635	0.577099	-0.007962
14708	9.694236	1.223087	-0.457366	-0.312610	-0.024639	-0.036842	-0.092418	0.144870	0.985125	0.567137	-0.805535	0.171665	0.818422	0.574565	-0.007715
14709	9.660377	0.813542	0.105779	-0.249345	-0.037712	-0.033381	-0.092173	0.145273	0.985089	0.565416	-0.806700	0.171871	0.819640	0.572827	-0.007784
14710	9.696606	0.974030	0.631906	-0.163622	-0.071037	-0.016162	-0.091617	0.145790	0.985064	0.564088	-0.807604	0.171990	0.820616	0.571420	-0.008248
14711	9.868150	1.485603	1.048116	-0.069179	-0.070714	0.001890	-0.090949	0.146179	0.985069	0.563680	-0.807901	0.171931	0.820971	0.570900	-0.008921
14712	9.796298	1.837276	1.128088	-0.079921	-0.048292	0.010233	-0.090429	0.146352	0.985091	0.563062	-0.808363	0.171784	0.821452	0.570201	-0.009306
14713	9.874362	1.671705	0.804740	-0.062204	-0.042252	0.012673	-0.089906	0.146526	0.985113	0.562827	-0.808560	0.171632	0.821671	0.569879	-0.009774
14714	10.044430	1.388449	0.588170	-0.005020	0.009803	0.021096	-0.089803	0.146280	0.985159	0.562834	-0.808610	0.171371	0.821677	0.569870	-0.009716
14715	9.768611	1.542620	0.291656	0.134157	0.053735	0.011494	-0.090122	0.145837	0.985195	0.564015	-0.807828	0.171176	0.820832	0.571092	-0.009452
14716	9.578408	1.973713	0.012606	0.271302	0.047321	0.003432	-0.090425	0.145519	0.985214	0.566273	-0.806271	0.171062	0.819243	0.573369	-0.009496
14717	9.562797	2.364084	-0.185352	0.321233	0.048152	-0.002322	-0.090739	0.145212	0.985231	0.569152	-0.804264	0.170957	0.817210	0.576258	-0.009670
14718	9.503417	2.519826	-0.572010	0.311849	0.051188	-0.006089	-0.091126	0.144946	0.985234	0.571722	-0.802444	0.170933	0.815371	0.578856	-0.009745
14719	9.467856	2.513112	-1.032487	0.303380	0.044544	-0.008841	-0.091473	0.144706	0.985238	0.574289	-0.800614	0.170908	0.813526	0.581445	-0.009869
14720	9.492047	2.376706	-1.471954	0.238305	0.009292	-0.005375	-0.091513	0.144676	0.985238	0.576251	-0.799208	0.170883	0.812133	0.583383	-0.010231
14721	9.699389	1.925368	-1.573273	0.112078	-0.008635	0.003272	-0.091390	0.144726	0.985242	0.577177	-0.798549	0.170840	0.811489	0.584272	-0.010553
14722	9.686736	1.592184	-1.188659	0.044384	-0.018889	0.015254	-0.091083	0.144696	0.985275	0.577580	-0.798302	0.170631	0.811237	0.584617	-0.010862
14723	9.437987	1.581847	-0.228864	0.011511	-0.046066	0.029067	-0.090452	0.144617	0.985345	0.577907	-0.798159	0.170194	0.811074	0.584832	-0.011380
14724	9.637246	1.720210	0.838828	0.017994	-0.087929	0.032564	-0.089485	0.144852	0.985399	0.578112	-0.798090	0.169817	0.811036	0.584867	-0.012324
14725	9.697067	1.746723	1.536506	0.041601	-0.087698	0.038284	-0.088486	0.145057	0.985459	0.578590	-0.797834	0.169392	0.810804	0.585166	-0.013331
14726	9.741201	1.024033	1.982657	0.003223	-0.076512	0.035365	-0.087595	0.145204	0.985517	0.578677	-0.797857	0.168989	0.810839	0.585099	-0.014138
14727	9.789397	0.405628	2.316255	0.092623	-0.052584	0.039696	-0.086856	0.145195	0.985583	0.579652	-0.797246	0.168531	0.810222	0.585933	-0.014917
14728	9.614052	0.377432	2.624392	0.192191	-0.019791	0.050301	-0.086338	0.144891	0.985674	0.581282	-0.796181	0.167952	0.809109	0.587454	-0.015482
14729	9.413093	0.658854	2.429168	0.394102	0.006150	0.050573	-0.085960	0.144453	0.985771	0.584906	-0.793659	0.167305	0.806533	0.590965	-0.016268
14730	9.435162	1.266843	2.020894	0.654616	0.023956	0.053977	-0.085769	0.143865	0.985873	0.590249	-0.789840	0.166609	0.802652	0.596201	-0.017172
14731	9.599691	2.000438	1.946757	0.788048	0.036998	0.064418	-0.085569	0.143088	0.986004	0.596910	-0.785006	0.165722	0.797732	0.602736	-0.018238
14732	9.573114	1.992237	0.949065	0.819412	0.030912	0.051743	-0.085438	0.142479	0.986104	0.603500	-0.780104	0.165003	0.792772	0.609211	-0.019336
14733	9.591484	1.848319	-0.231392	0.851739	0.016003	0.043625	-0.085191	0.141967	0.986199	0.610494	-0.774798	0.164271	0.787426	0.616063	-0.020664
14734	9.495745	2.053715	-1.290053	0.883953	-0.001896	0.042833	-0.084846	0.141632	0.986277	0.617496	-0.769371	0.163604	0.781984	0.622903	-0.022179
14735	9.361815	3.113262	-1.783310	0.844979	-0.034562	0.041021	-0.084240	0.141538	0.986342	0.624310	-0.763992	0.162951	0.776621	0.629511	-0.024005
14736	9.103985	3.765806	-1.867805	0.578543	-0.098536	0.048107	-0.083108	0.141779	0.986404	0.628863	-0.760393	0.162277	0.773062	0.633799	-0.025965
14737	9.098024	3.491579	-1.474178	0.325196	-0.204691	0.069224	-0.081023	0.142605	0.986458	0.631623	-0.758269	0.161495	0.771030	0.636154	-0.028635
14738	9.361402	2.619870	-0.994456	0.154449	-0.268867	0.091500	-0.078304	0.143608	0.986532	0.632915	-0.757404	0.160491	0.770251	0.636958	-0.031584
14739	9.296036	2.160171	-0.407689	0.149213	-0.297521	0.097485	-0.075310	0.144796	0.986591	0.634394	-0.756389	0.159437	0.769333	0.637895	-0.034894
14740	9.493879	1.977539	0.165385	0.183096	-0.357738	0.089142	-0.071926	0.146392	0.986608	0.635896	-0.755338	0.158435	0.768416	0.638776	-0.038762
14741	9.351143	1.922798	0.842876	0.222284	-0.351488	0.089198	-0.068625	0.148052	0.986596	0.637759	-0.753961	0.157503	0.767173	0.640019	-0.042681
14742	9.577904	1.375455	1.407421	0.255742	-0.361775	0.097366	-0.065162	0.149624	0.986593	0.639812	-0.752455	0.156373	0.765764	0.641424	-0.046700
14743	9.703224	1.383139	1.576518	0.557787	-0.313603	0.102513	-0.062039	0.150910	0.986599	0.644340	-0.748853	0.155062	0.762218	0.645325	-0.050779
14744	9.906076	2.000357	2.158900	0.767617	-0.284625	0.097678	-0.059176	0.152013	0.986606	0.650260	-0.744015	0.153637	0.757404	0.650641	-0.054820
14745	9.978246	2.993404	2.576142	0.844797	-0.249945	0.065403	-0.056828	0.153142	0.986569	0.656623	-0.738645	0.152480	0.752075	0.656469	-0.058580
14746	9.710162	3.788438	2.851588	0.831278	-0.150299	0.040327	-0.055367	0.153825	0.986546	0.662902	-0.733213	0.151528	0.746657	0.662372	-0.061375
14747	10.017833	4.262600	2.917395	0.686676	-0.114966	0.048054	-0.054165	0.154270	0.986543	0.668045	-0.728716	0.150631	0.742147	0.667214	-0.063589
14748	10.486269	3.509432	2.733683	0.293011	0.042439	0.081457	-0.053866	0.153383	0.986698	0.670287	-0.726870	0.149585	0.740145	0.669428	-0.063658
14749	10.267243	2.418632	2.435494	0.035610	0.210928	0.122179	-0.054561	0.151184	0.986999	0.670783	-0.726658	0.148387	0.739644	0.670158	-0.061765
14750	9.664199	1.281933	1.571320	-0.172491	0.298382	0.170354	-0.055559	0.147936	0.987435	0.669627	-0.728055	0.146753	0.740617	0.669366	-0.058613
14751	8.920159	1.000612	0.957562	-0.100202	0.300039	0.200894	-0.056448	0.144517	0.987891	0.668832	-0.729159	0.144884	0.741267	0.668911	-0.055498
14752	8.598213	1.796939	0.636181	0.004174	0.225496	0.225087	-0.056545	0.141356	0.988343	0.669017	-0.729439	0.142602	0.741094	0.669281	-0.053324
14753	8.618437	2.814754	0.648185	0.000222	0.162545	0.223332	-0.056228	0.138694	0.988738	0.669095	-0.729790	0.140421	0.741047	0.669455	-0.051765
14754	8.892156	3.308830	1.100436	-0.111355	0.140158	0.240119	-0.055593	0.135992	0.989149	0.668430	-0.730852	0.138048	0.741695	0.668851	-0.050271
14755	9.173523	3.134959	1.756527	-0.226749	0.156508	0.279950	-0.054889	0.132956	0.989601	0.666777	-0.732846	0.135444	0.743233	0.667278	-0.048427
14756	9.626674	2.924770	2.480922	-0.220955	0.195665	0.313873	-0.054185	0.129338	0.990119	0.665331	-0.734717	0.132386	0.744580	0.665930	-0.046242
14757	10.279491	3.490047	2.845638	-0.165495	0.299451	0.302461	-0.054390	0.125214	0.990638	0.664248	-0.736205	0.129524	0.745531	0.665074	-0.043131
14758	10.652337	3.741741	2.904830	-0.362027	0.454860	0.257300	-0.056012	0.120285	0.991158	0.661713	-0.738911	0.127067	0.747662	0.662980	-0.038207
14759	11.153197	3.097503	3.235779	-0.673472	0.579613	0.200369	-0.058976	0.115059	0.991606	0.656898	-0.743488	0.125338	0.751669	0.658777	-0.031734
14760	11.899768	2.132197	3.813570	-0.920051	0.688511	0.139423	-0.063191	0.109492	0.991977	0.650069	-0.749664	0.124157	0.757243	0.652699	-0.023805
14761	13.150716	1.425768	4.837306	-1.015770	0.818253	0.085798	-0.068941	0.103641	0.992223	0.642045	-0.756631	0.123643	0.763561	0.645576	-0.014380
14762	13.448024	1.627054	5.463418	-0.914295	1.081288	0.030214	-0.076964	0.096451	0.992358	0.635090	-0.762523	0.123367	0.768594	0.639731	-0.002568
14763	12.999515	2.076073	5.003308	-0.859148	1.265477	-0.018595	-0.086785	0.088673	0.992273	0.628434	-0.767981	0.123593	0.773006	0.634304	0.010925
14764	13.260726	1.890446	4.580358	-1.059799	1.416744	-0.021974	-0.097844	0.079892	0.991990	0.620221	-0.774634	0.123562	0.778301	0.627343	0.026243
14765	12.828957	1.667922	4.328114	-1.359538	1.701777	0.023071	-0.111109	0.069243	0.991393	0.609217	-0.783408	0.122994	0.785181	0.617639	0.044860
14766	11.437855	1.179588	3.702707	-1.619445	1.894876	0.119616	-0.125271	0.056691	0.990502	0.596611	-0.793377	0.120863	0.792693	0.606085	0.065565
14767	11.628577	1.141505	2.074741	-1.450623	1.828219	0.154367	-0.138893	0.044615	0.989302	0.585111	-0.802274	0.118327	0.798971	0.595286	0.085326
14768	11.695924	1.314045	1.045829	-1.279751	1.911606	0.197319	-0.153001	0.031720	0.987717	0.575175	-0.809892	0.115105	0.803595	0.585721	0.105669
14769	11.142312	1.554151	0.552958	-1.133397	1.877137	0.208717	-0.166952	0.019250	0.985777	0.566161	-0.816673	0.111834	0.807210	0.576780	0.125447
14770	10.857432	2.021196	0.692688	-1.072049	1.714169	0.174517	-0.179770	0.007988	0.983676	0.557826	-0.822819	0.108626	0.810255	0.568248	0.143462
14771	10.887401	2.590588	-0.409468	-0.914131	1.569836	0.047040	-0.192191	-0.001148	0.981357	0.550418	-0.828027	0.106827	0.812467	0.560687	0.159771
14772	11.047123	4.044552	-1.102244	-0.326173	1.495052	-0.134845	-0.205005	-0.008411	0.978725	0.547535	-0.829842	0.107556	0.811282	0.557936	0.174726
14773	11.153877	5.137665	-0.919072	-0.356749	1.382687	-0.223768	-0.217446	-0.014140	0.975970	0.544049	-0.831922	0.109161	0.810387	0.554712	0.188591
14774	11.728076	4.461470	-1.822083	-0.990127	1.260558	-0.210271	-0.228748	-0.019343	0.973293	0.535578	-0.837392	0.109232	0.812915	0.546261	0.201912
14775	11.658625	3.205994	-1.884336	-1.711217	1.271499	-0.212304	-0.240191	-0.024392	0.970419	0.521123	-0.846659	0.107703	0.818987	0.531577	0.216071
14776	10.701145	2.202166	-2.401047	-2.135380	1.308936	-0.207299	-0.251960	-0.029483	0.967288	0.503077	-0.857853	0.104894	0.826698	0.513049	0.230977
14777	9.479673	1.140141	-2.519858	-2.169145	1.312196	-0.210536	-0.263890	-0.034272	0.963944	0.484513	-0.868846	0.101749	0.834032	0.493894	0.245885
14778	8.766441	-0.386261	-2.607098	-2.082384	1.315489	-0.160048	-0.275602	-0.039272	0.960469	0.466684	-0.878981	0.097973	0.840387	0.475237	0.260577
14779	8.429402	-1.834854	-2.763751	-1.868758	1.335534	-0.079040	-0.287203	-0.044829	0.956820	0.450724	-0.887732	0.093698	0.845200	0.458172	0.275165
14780	8.193770	-2.518103	-2.930458	-1.436468	1.432612	0.008979	-0.299226	-0.051403	0.952797	0.438632	-0.894198	0.089511	0.847388	0.444711	0.290114
14781	8.314671	-2.422169	-2.274727	-0.869408	1.381383	0.030675	-0.310780	-0.057783	0.948724	0.431374	-0.898006	0.086614	0.846955	0.436173	0.304009
14782	8.555007	-1.251018	-1.705073	-0.417754	1.294098	0.022449	-0.321569	-0.063628	0.944746	0.427952	-0.899790	0.085065	0.844660	0.431660	0.316574
14783	7.423658	-0.542117	-1.505515	-0.150619	1.211425	0.002878	-0.331745	-0.068897	0.940850	0.426707	-0.900432	0.084520	0.841348	0.429506	0.328113
14784	7.149906	-0.152713	-1.154327	-0.096529	0.988609	-0.033333	-0.340130	-0.072863	0.937551	0.425825	-0.900854	0.084472	0.838442	0.427964	0.337434
14785	7.179869	-0.766339	-0.840318	-0.307870	0.782716	0.015670	-0.346590	-0.076367	0.934903	0.423326	-0.902145	0.083246	0.837060	0.424621	0.345003
14786	7.611746	-2.444187	-0.697984	-0.690240	0.597578	0.148789	-0.350909	-0.080257	0.932964	0.418106	-0.904920	0.079415	0.837884	0.417945	0.351101
14787	7.863188	-3.549509	-0.336881	-0.812340	0.611942	0.280183	-0.354841	-0.085358	0.931022	0.412309	-0.908043	0.073892	0.839100	0.410088	0.357405
14788	7.557228	-3.028691	0.506314	-0.663107	0.707770	0.343345	-0.359313	-0.091388	0.928731	0.408012	-0.910421	0.068268	0.839297	0.403463	0.364414
14789	6.927126	-1.798509	1.395873	-0.543725	0.649763	0.401821	-0.363094	-0.097686	0.926618	0.404911	-0.912218	0.062495	0.839172	0.397889	0.370775
14790	6.946234	-0.697077	1.682755	-0.511763	0.428305	0.421865	-0.364928	-0.103261	0.925292	0.402193	-0.913801	0.056643	0.839684	0.392816	0.375003
14791	7.297600	0.262121	1.900687	-0.484594	0.219143	0.387515	-0.365176	-0.107696	0.924688	0.399539	-0.915286	0.051185	0.840842	0.388141	0.377269
14792	7.396001	1.198377	2.109666	-0.462943	0.035399	0.327876	-0.364110	-0.110866	0.924734	0.396881	-0.916698	0.046367	0.842561	0.383892	0.377779
14793	7.390218	1.522529	1.793845	-0.452820	-0.157821	0.292044	-0.361581	-0.112977	0.925470	0.394130	-0.918099	0.041910	0.844938	0.379909	0.376495
14794	7.438649	1.201364	1.255016	-0.377407	-0.380864	0.225007	-0.357415	-0.113634	0.927007	0.391787	-0.919255	0.038373	0.847796	0.376904	0.373076
14795	8.260027	1.001538	1.215518	-0.395228	-0.595971	0.182437	-0.351594	-0.113107	0.929295	0.389100	-0.920524	0.035174	0.851459	0.373956	0.367661
14796	9.008695	0.680817	1.222594	-0.577396	-0.686563	0.159004	-0.345058	-0.112052	0.931869	0.384766	-0.922475	0.031551	0.856090	0.369438	0.361421
14797	8.686666	0.019630	1.217803	-0.615237	-0.715727	0.104608	-0.338464	-0.110423	0.934478	0.379878	-0.924602	0.028335	0.860892	0.364578	0.354892
14798	8.237321	-0.251919	2.184346	-0.659526	-0.777776	0.101469	-0.331307	-0.108579	0.937255	0.374565	-0.926863	0.025029	0.865989	0.359355	0.347746
14799	8.132903	-0.603589	2.867511	-0.744359	-0.809336	0.128135	-0.323748	-0.106916	0.940083	0.368558	-0.929362	0.021228	0.871408	0.353348	0.340284
14800	8.173847	-0.597260	3.004034	-0.793798	-0.908612	0.151706	-0.315191	-0.105179	0.943182	0.362143	-0.931966	0.017092	0.877215	0.346954	0.331837
14801	9.126467	-0.969116	3.127451	-0.898262	-1.020485	0.187249	-0.305484	-0.103457	0.946560	0.354849	-0.934842	0.012344	0.883607	0.339657	0.322291
14802	9.579811	-1.566857	3.402146	-0.895955	-0.953039	0.191082	-0.296305	-0.102078	0.949623	0.347521	-0.937641	0.007644	0.889625	0.332279	0.313302
14803	9.145961	-2.437078	3.052744	-0.737434	-0.931262	0.127750	-0.287505	-0.100250	0.952518	0.341335	-0.939933	0.004102	0.894892	0.326307	0.304454
14804	9.049003	-3.497795	2.137459	-0.370069	-1.007812	0.006579	-0.278385	-0.097070	0.955552	0.338073	-0.941115	0.002889	0.899004	0.323851	0.294809
14805	9.136053	-3.643599	1.692319	0.299177	-1.085241	-0.121400	-0.268980	-0.092438	0.958700	0.340432	-0.940257	0.004854	0.900975	0.327678	0.284379
14806	8.978663	-2.715923	1.356681	1.007788	-1.187071	-0.237199	-0.259046	-0.086293	0.962002	0.348923	-0.937099	0.009898	0.900638	0.338229	0.272861
14807	8.605563	-1.090886	1.063637	1.551224	-1.226881	-0.370825	-0.249277	-0.078636	0.965234	0.361910	-0.932048	0.017533	0.898266	0.353698	0.260797
14808	8.104943	0.480873	0.481893	1.922785	-1.315415	-0.520100	-0.239351	-0.069060	0.968474	0.377911	-0.925436	0.027406	0.894368	0.372557	0.247602
14809	8.421843	2.267215	0.223858	2.129673	-1.448341	-0.609169	-0.228731	-0.057953	0.971763	0.395461	-0.917682	0.038355	0.889546	0.393068	0.232820
14810	10.074319	3.703115	-0.192668	1.959048	-1.607779	-0.547210	-0.216610	-0.046510	0.975150	0.411664	-0.910069	0.048037	0.885219	0.411839	0.216277
14811	12.377304	3.303650	-0.817122	1.141058	-1.726639	-0.319552	-0.202603	-0.036443	0.978583	0.421096	-0.905439	0.053463	0.884099	0.422909	0.198790
14812	14.856328	1.955204	0.285167	0.165558	-1.562607	-0.103487	-0.189144	-0.028910	0.981524	0.422393	-0.904758	0.054748	0.886459	0.424944	0.183341
14813	15.680131	-0.324402	3.631234	-1.101331	-1.013513	0.092605	-0.179672	-0.025523	0.983395	0.412798	-0.909347	0.051820	0.892925	0.415254	0.173920
14814	13.571149	-2.678563	7.111610	-1.585343	-0.491018	0.110489	-0.174759	-0.024557	0.984305	0.398814	-0.915777	0.047961	0.900226	0.400936	0.169834
14815	11.012870	-1.516510	10.155466	-0.865216	-0.235161	-0.018156	-0.172647	-0.023500	0.984703	0.390980	-0.919218	0.046612	0.904062	0.393047	0.167888
14816	9.269919	-0.115383	9.535562	-0.251009	-0.363142	-0.038385	-0.169449	-0.021755	0.985299	0.388677	-0.920199	0.046526	0.905658	0.390847	0.164382
14817	10.223451	-0.350208	6.195887	0.266226	-0.461010	-0.144715	-0.165787	-0.018677	0.985985	0.390805	-0.919206	0.048299	0.905420	0.393335	0.159692
14818	10.671053	0.136696	3.961172	0.650267	-0.402394	-0.291352	-0.163233	-0.014438	0.986482	0.396240	-0.916665	0.052150	0.903520	0.399396	0.155351
14819	10.391102	0.348867	2.363203	0.711649	-0.439013	-0.382960	-0.160752	-0.009234	0.986952	0.401982	-0.913876	0.056924	0.901426	0.405888	0.150620
14820	9.826750	-0.237012	0.715219	0.943039	-0.458839	-0.485904	-0.158534	-0.002950	0.987349	0.409726	-0.910026	0.063069	0.898327	0.414541	0.145479
14821	8.981035	0.312048	-0.129048	1.477039	-0.461172	-0.568351	-0.156718	0.004078	0.987635	0.421997	-0.903837	0.070695	0.892949	0.427858	0.139927
14822	8.514993	0.836542	-0.671331	1.632314	-0.469386	-0.523803	-0.154726	0.010809	0.987898	0.435738	-0.896682	0.078057	0.886675	0.442543	0.134030
14823	8.860667	0.820950	-0.194625	1.292813	-0.480316	-0.413519	-0.152249	0.016593	0.988203	0.446481	-0.890866	0.083746	0.881746	0.453964	0.128225
14824	9.947664	0.706089	-0.239779	0.942085	-0.494606	-0.325410	-0.149299	0.021725	0.988553	0.454312	-0.886476	0.088095	0.878243	0.462264	0.122480
14825	10.495949	0.937903	-1.195934	0.825513	-0.486428	-0.230745	-0.146031	0.025971	0.988939	0.461161	-0.882609	0.091275	0.875217	0.469389	0.116911
14826	10.494002	1.000081	-0.929314	0.600603	-0.486359	-0.143955	-0.142383	0.029509	0.989372	0.466235	-0.879724	0.093336	0.873128	0.474569	0.111499
14827	10.307905	1.412218	0.030787	0.392755	-0.444395	-0.090326	-0.138868	0.032361	0.989782	0.469497	-0.877854	0.094573	0.871945	0.477833	0.106712
14828	9.553153	2.325805	1.027000	0.458385	-0.450178	-0.080236	-0.135261	0.035200	0.990185	0.473411	-0.875617	0.095796	0.870395	0.481721	0.101773
14829	9.563494	2.644350	1.912841	0.248008	-0.509886	-0.076183	-0.131122	0.038278	0.990627	0.475443	-0.874414	0.096718	0.869920	0.483668	0.096456
14830	9.782349	1.669514	1.738312	0.086872	-0.485780	-0.124336	-0.127424	0.041691	0.990972	0.476068	-0.873933	0.097982	0.870128	0.484255	0.091512
14831	9.782043	1.656518	1.790913	0.086630	-0.367847	-0.202054	-0.125124	0.045190	0.991111	0.476544	-0.873446	0.099987	0.870201	0.484819	0.087754
14832	9.244432	0.943040	1.046372	0.107697	-0.374836	-0.262468	-0.123050	0.049276	0.991176	0.477185	-0.872789	0.102631	0.870145	0.485603	0.083883
14833	9.887410	0.030009	0.499886	0.193997	-0.352955	-0.272003	-0.121218	0.053316	0.991193	0.478517	-0.871728	0.105410	0.869671	0.487081	0.080157
14834	10.149866	-0.320065	0.811116	0.414456	-0.212968	-0.241165	-0.120462	0.056432	0.991113	0.481856	-0.869560	0.108077	0.867931	0.490593	0.077557
14835	9.437014	0.327152	0.473603	0.677301	-0.181404	-0.216807	-0.119879	0.059157	0.991025	0.487434	-0.866119	0.110663	0.864891	0.496325	0.074994
14836	9.340492	1.261529	0.067973	0.824995	-0.293337	-0.192914	-0.118230	0.062266	0.991032	0.494353	-0.861868	0.113127	0.861183	0.503295	0.071117
14837	9.643720	2.434311	0.409323	0.699697	-0.333011	-0.181305	-0.116206	0.065459	0.991066	0.500128	-0.858237	0.115328	0.858119	0.509061	0.066995
14838	9.568545	3.325476	0.459080	0.428632	-0.376358	-0.167429	-0.113756	0.068794	0.991124	0.503638	-0.855926	0.117215	0.856393	0.512502	0.062719
14839	9.654263	3.172741	0.179799	0.150533	-0.450265	-0.143811	-0.110562	0.072290	0.991237	0.504750	-0.855072	0.118659	0.856156	0.513446	0.058050
14840	9.769218	2.742910	-0.025710	-0.002683	-0.459713	-0.147379	-0.107304	0.075887	0.991326	0.504594	-0.854967	0.120067	0.856662	0.513101	0.053449
14841	9.933729	2.528029	0.176429	-0.051140	-0.431081	-0.155775	-0.104333	0.079393	0.991368	0.503990	-0.855118	0.121522	0.857385	0.512319	0.049204
14842	9.804015	2.319225	0.369164	-0.088822	-0.387572	-0.152167	-0.101710	0.082655	0.991374	0.503099	-0.855440	0.122937	0.858223	0.511264	0.045423
14843	9.510151	2.160930	0.529715	0.003818	-0.376253	-0.147451	-0.099161	0.085806	0.991365	0.502990	-0.855302	0.124341	0.858585	0.510976	0.041653
14844	9.477029	2.407533	0.594911	0.098374	-0.379518	-0.142054	-0.096553	0.088938	0.991346	0.503723	-0.854666	0.125737	0.858453	0.511504	0.037721
14845	9.341303	2.819703	0.552021	0.138709	-0.368820	-0.129788	-0.093983	0.091907	0.991323	0.504803	-0.853839	0.127019	0.858103	0.512360	0.033852
14846	9.394214	2.970915	0.201377	0.097887	-0.381367	-0.116963	-0.091237	0.094838	0.991303	0.505562	-0.853219	0.128158	0.857953	0.512857	0.029899
14847	9.277542	2.524216	-0.548202	0.102079	-0.421391	-0.122697	-0.088184	0.098024	0.991269	0.506351	-0.852570	0.129354	0.857806	0.513337	0.025549
14848	9.660729	2.613736	-0.507722	0.078590	-0.414687	-0.128538	-0.085213	0.101226	0.991207	0.506941	-0.852031	0.130594	0.857759	0.513612	0.021289
14849	9.071474	3.209007	-0.626279	-0.024234	-0.427371	-0.143204	-0.082216	0.104624	0.991108	0.506648	-0.851994	0.131967	0.858224	0.512992	0.017040
14850	8.909568	3.248400	-0.457767	-0.297730	-0.568828	-0.130273	-0.077922	0.108622	0.991024	0.504012	-0.853370	0.133163	0.860175	0.509864	0.011750
14851	9.226241	2.060492	-0.053257	-0.616322	-0.644243	-0.095197	-0.072792	0.112693	0.990960	0.498678	-0.856364	0.134018	0.863725	0.503925	0.006139
14852	9.779193	0.594619	0.571758	-0.769192	-0.688664	-0.039999	-0.066962	0.116458	0.990936	0.492016	-0.860159	0.134337	0.868007	0.496552	0.000299
14853	10.286298	-0.054644	1.091935	-0.724355	-0.637336	0.042975	-0.061155	0.119221	0.990983	0.485789	-0.863760	0.133894	0.871934	0.489596	-0.005093
14854	10.314590	0.258703	1.733777	-0.573761	-0.603239	0.078557	-0.055441	0.121453	0.991048	0.480848	-0.866641	0.133107	0.875049	0.483923	-0.010353
14855	10.145955	0.807062	1.763785	-0.491078	-0.536582	0.069208	-0.050353	0.123420	0.991076	0.476617	-0.869077	0.132443	0.877668	0.479033	-0.015063
14856	9.860022	1.028522	1.438007	-0.442185	-0.444257	0.018705	-0.046296	0.125351	0.991032	0.472766	-0.871203	0.132280	0.879971	0.474650	-0.018928
14857	9.606925	0.779310	0.368873	-0.118351	-0.362911	-0.024375	-0.043162	0.127261	0.990930	0.471739	-0.871726	0.132500	0.880681	0.473179	-0.022408
14858	9.346074	1.097730	0.250164	0.191843	-0.314515	-0.059337	-0.040610	0.129243	0.990781	0.473428	-0.870735	0.132989	0.879896	0.474464	-0.025827
14859	9.216758	1.490789	-0.085884	0.322847	-0.317385	-0.074898	-0.038121	0.131379	0.990599	0.476258	-0.869098	0.133593	0.878479	0.476873	-0.029439
14860	9.160399	1.714592	-0.416113	0.350364	-0.344115	-0.073841	-0.035389	0.133641	0.990398	0.479331	-0.867319	0.134161	0.876921	0.479476	-0.033364
14861	9.352342	1.430308	-0.921576	0.326754	-0.383538	-0.050193	-0.032217	0.135894	0.990199	0.482194	-0.865679	0.134494	0.875472	0.481801	-0.037638
14862	9.383651	1.217556	-1.204444	0.390172	-0.381795	-0.014300	-0.028883	0.137839	0.990033	0.485627	-0.863769	0.134427	0.873689	0.484669	-0.041990
14863	9.318918	1.286831	-1.398645	0.373579	-0.409981	0.001197	-0.025245	0.139797	0.989858	0.488907	-0.861951	0.134202	0.871971	0.487337	-0.046588
14864	9.344958	1.443619	-1.036190	0.298771	-0.411633	0.009307	-0.021548	0.141703	0.989675	0.491536	-0.860500	0.133910	0.870591	0.489346	-0.051110
14865	8.959619	2.015215	-0.524288	0.242391	-0.436564	0.015130	-0.017621	0.143694	0.989465	0.493675	-0.859325	0.133586	0.869468	0.490828	-0.055796
14866	9.581897	2.544130	-0.614778	0.236864	-0.580166	0.055059	-0.012243	0.146048	0.989202	0.495765	-0.858236	0.132848	0.868371	0.492038	-0.061899
14867	10.195146	2.754848	-0.306799	0.081147	-0.570128	0.072898	-0.006878	0.148214	0.988931	0.496512	-0.857930	0.132034	0.868003	0.491924	-0.067689
14868	9.228960	2.087711	-0.453661	0.021919	-0.612075	0.060653	-0.001199	0.150679	0.988582	0.496727	-0.857908	0.131364	0.867906	0.491213	-0.073818
14869	9.655751	1.596018	-0.348832	0.057827	-0.698936	0.069052	0.005260	0.153507	0.988133	0.497267	-0.857712	0.130599	0.867582	0.490679	-0.080846
14870	9.977403	1.482797	0.091392	0.118785	-0.622603	0.093419	0.011190	0.155738	0.987735	0.498311	-0.857269	0.129522	0.866926	0.490750	-0.087199
14871	9.592463	1.538485	0.609046	0.198614	-0.597363	0.093279	0.016881	0.157861	0.987317	0.500053	-0.856425	0.128383	0.865830	0.491544	-0.093396
14872	9.896125	1.750655	1.152116	0.307492	-0.607542	0.083180	0.022619	0.160117	0.986839	0.502718	-0.855039	0.127210	0.864154	0.493225	-0.099834
14873	9.840231	2.191547	1.827409	0.354669	-0.540025	0.054623	0.027605	0.162305	0.986354	0.505794	-0.853364	0.126266	0.862213	0.495406	-0.105650
14874	9.238320	2.413509	1.926240	0.374553	-0.562614	0.041175	0.032724	0.164725	0.985797	0.509028	-0.851567	0.125398	0.860128	0.497694	-0.111716
14875	9.895329	2.143932	1.780003	0.318833	-0.604995	0.042876	0.038187	0.167358	0.985156	0.511772	-0.850042	0.124567	0.858272	0.499419	-0.118110
14876	10.179428	1.585442	1.290378	0.305257	-0.515276	0.038377	0.042867	0.169587	0.984582	0.514394	-0.848576	0.123765	0.856482	0.501158	-0.123611
14877	9.934280	1.342095	1.078136	0.364078	-0.403012	0.033360	0.046532	0.171306	0.984118	0.517505	-0.846803	0.122934	0.854414	0.503566	-0.128055
14878	9.381662	1.225370	1.125275	0.402607	-0.342466	0.040601	0.049730	0.172670	0.983724	0.520941	-0.844836	0.121956	0.852143	0.506397	-0.131964
14879	9.235923	1.074170	0.632843	0.473102	-0.363315	0.061250	0.053185	0.173969	0.983314	0.524935	-0.842545	0.120672	0.849479	0.509758	-0.136134
14880	9.310430	0.967904	0.193310	0.606301	-0.394237	0.088205	0.057059	0.175224	0.982874	0.530045	-0.839591	0.118909	0.846047	0.514183	-0.140783
14881	9.338250	1.393735	-0.294177	0.775861	-0.433383	0.092501	0.061253	0.176655	0.982365	0.536529	-0.835755	0.116837	0.841656	0.519910	-0.145973
14882	9.097275	1.854827	-0.429510	0.762838	-0.461274	0.081182	0.065629	0.178368	0.981773	0.542899	-0.831907	0.114849	0.837229	0.525466	-0.151433
14883	8.980968	2.619494	-0.050158	0.751622	-0.521403	0.078168	0.070453	0.180438	0.981060	0.549111	-0.828092	0.112871	0.832774	0.530759	-0.157422
14884	9.658544	3.466720	0.677210	0.697508	-0.598450	0.094610	0.076012	0.182827	0.980202	0.554853	-0.824542	0.110765	0.828468	0.535449	-0.164117
14885	11.639673	3.933143	1.213770	0.626760	-0.650536	0.121866	0.082108	0.185288	0.979248	0.559928	-0.821410	0.108474	0.824463	0.539402	-0.171192
14886	13.833671	3.619857	1.601998	0.431062	-0.430541	0.173098	0.086690	0.186177	0.978684	0.563347	-0.819396	0.105975	0.821660	0.542152	-0.175916
14887	15.021892	2.894271	1.806828	0.140327	0.062236	0.173240	0.087191	0.184387	0.978979	0.564336	-0.818970	0.103988	0.820928	0.543406	-0.175463
14888	14.531919	2.758535	3.080813	-0.136110	0.600716	0.130909	0.083060	0.180031	0.980148	0.563123	-0.819944	0.102884	0.822188	0.543398	-0.169484
14889	13.305371	2.464834	4.666664	-0.627472	0.853573	0.088025	0.076549	0.174640	0.981652	0.557851	-0.823524	0.103007	0.826403	0.539730	-0.160463
14890	12.161518	1.428672	5.372461	-0.938370	0.973052	0.076815	0.068971	0.168763	0.983241	0.550030	-0.828687	0.103653	0.832292	0.533663	-0.149980
14891	11.078485	0.871801	5.304288	-0.877603	1.068046	0.124275	0.060758	0.161995	0.984919	0.542561	-0.833599	0.103637	0.837816	0.528082	-0.138540
14892	11.072269	0.657256	4.848748	-0.762733	1.104258	0.185854	0.052549	0.154615	0.986576	0.536066	-0.837898	0.102761	0.842539	0.523470	-0.126914
14893	11.092007	0.620851	4.214786	-0.678759	1.300559	0.247818	0.042908	0.145663	0.988403	0.530121	-0.841878	0.101056	0.846835	0.519638	-0.113342
14894	11.094107	0.808508	3.636577	-0.557067	1.472918	0.291725	0.032014	0.135546	0.990254	0.525305	-0.845170	0.098704	0.850312	0.517025	-0.098260
14895	11.070443	0.797262	3.224200	-0.513030	1.671755	0.328492	0.019508	0.124039	0.992086	0.520730	-0.848326	0.095825	0.853498	0.514740	-0.081140
14896	11.706834	0.985476	2.875797	-0.494336	1.793196	0.318576	0.005896	0.112097	0.993680	0.516485	-0.851235	0.092963	0.856276	0.512673	-0.062915
14897	12.170469	1.117090	2.405611	-0.569929	1.984470	0.276373	-0.009695	0.099485	0.994992	0.511464	-0.854534	0.090424	0.859250	0.509779	-0.042599
14898	11.962058	1.815561	1.560687	-0.537980	2.047963	0.160795	-0.026433	0.087672	0.995799	0.506887	-0.857412	0.088943	0.861607	0.507108	-0.021776
14899	11.262216	2.596943	0.806481	-0.545698	2.117645	0.053312	-0.044427	0.076400	0.996087	0.502053	-0.860309	0.088378	0.863695	0.504015	-0.000136
14900	11.188107	3.304088	-0.146139	-0.516077	2.012141	-0.064958	-0.062082	0.066824	0.995832	0.497582	-0.862847	0.088920	0.865193	0.501028	0.020317
14901	11.508295	3.708864	-0.788042	-0.685919	1.967899	-0.117755	-0.079711	0.057934	0.995133	0.491425	-0.866278	0.089796	0.867264	0.496191	0.040582
14902	11.416882	3.522374	-1.402367	-0.972517	1.916285	-0.095043	-0.096759	0.049297	0.994086	0.482918	-0.871008	0.090198	0.870303	0.488790	0.060472
14903	11.214194	3.225803	-1.678356	-1.228510	1.892751	-0.095509	-0.113730	0.040897	0.992670	0.471995	-0.876974	0.090207	0.874235	0.478794	0.080435
14904	11.131548	2.963855	-1.857340	-1.230494	1.815870	-0.086636	-0.129978	0.033030	0.990967	0.461138	-0.882762	0.089908	0.877757	0.468658	0.099508
14905	11.065363	1.939688	-2.379493	-1.427219	1.638847	-0.012786	-0.144461	0.025501	0.989182	0.448484	-0.889406	0.088426	0.882039	0.456406	0.117048
14906	11.128642	0.442337	-3.140810	-1.594397	1.485414	0.080942	-0.157179	0.018074	0.987405	0.434534	-0.896580	0.085582	0.886834	0.442512	0.133070
14907	10.697156	-0.751790	-3.929193	-1.400211	1.538045	0.106092	-0.170394	0.010355	0.985322	0.422208	-0.902737	0.082501	0.890341	0.430068	0.149449
14908	9.993048	-0.935818	-3.761960	-0.974634	1.626965	0.065745	-0.184553	0.002804	0.982819	0.413672	-0.906881	0.080267	0.891524	0.421378	0.166208
14909	9.655585	-0.834603	-3.385424	-0.671789	1.630334	0.042071	-0.198908	-0.004446	0.980008	0.407722	-0.909715	0.078626	0.891178	0.415210	0.182762
14910	9.940128	-0.965135	-3.045950	-0.461459	1.574741	0.017460	-0.212800	-0.011141	0.977032	0.403681	-0.911609	0.077528	0.889808	0.410907	0.198487
14911	10.279016	-1.074032	-2.787540	-0.236523	1.578420	0.007081	-0.226786	-0.017716	0.973784	0.401563	-0.912596	0.076917	0.887308	0.408479	0.214078
14912	9.857695	-0.700845	-2.274646	0.068810	1.624005	-0.010030	-0.241143	-0.024292	0.970186	0.402183	-0.912306	0.077121	0.883232	0.408789	0.229766
14913	9.308752	0.041713	-1.680112	0.317286	1.587438	-0.041448	-0.255273	-0.030464	0.966389	0.404852	-0.911030	0.078223	0.878026	0.411213	0.244895
14914	8.886781	0.772756	-1.270407	0.408607	1.512672	-0.081301	-0.268783	-0.036000	0.962528	0.408251	-0.909358	0.079992	0.872403	0.414453	0.259117
14915	8.473134	1.276198	-1.148268	0.376102	1.432168	-0.111045	-0.281671	-0.040982	0.958636	0.411210	-0.907844	0.082013	0.866930	0.417301	0.272565
14916	8.177258	1.529608	-1.009030	0.183136	1.353056	-0.117980	-0.293796	-0.045596	0.954780	0.412490	-0.907117	0.083608	0.862285	0.418401	0.285315
14917	8.239749	1.317639	-0.860899	-0.234833	1.247037	-0.056515	-0.304737	-0.050314	0.951107	0.410314	-0.908120	0.083426	0.859522	0.415675	0.297382
14918	8.227137	0.160146	-1.010598	-0.729963	1.188223	0.068746	-0.314606	-0.055866	0.947577	0.404293	-0.911079	0.080516	0.858819	0.408429	0.309218
14919	8.305322	-0.643827	-0.646500	-1.071845	1.174401	0.132310	-0.324135	-0.061837	0.943988	0.395538	-0.915312	0.075856	0.859352	0.397971	0.321143
14920	7.734637	-0.859678	0.034106	-1.318940	1.174017	0.112265	-0.333735	-0.067497	0.940247	0.384603	-0.920391	0.070441	0.860640	0.385130	0.333126
14921	7.367049	-1.188316	0.194896	-1.311523	1.016768	0.071156	-0.342189	-0.072034	0.936866	0.373581	-0.925296	0.065305	0.862174	0.372342	0.343537
14922	6.896560	-1.152136	0.432355	-1.011215	0.891595	0.049337	-0.349639	-0.075800	0.933813	0.365069	-0.928961	0.061283	0.862831	0.362333	0.352474
14923	6.115025	-0.735097	0.890940	-0.539974	0.749482	0.008112	-0.356037	-0.078602	0.931160	0.360473	-0.930886	0.059251	0.862147	0.356754	0.359764
14924	6.036531	-0.169286	0.983369	0.034736	0.531586	-0.032766	-0.360676	-0.080228	0.929234	0.360695	-0.930775	0.059640	0.860123	0.356681	0.364646
14925	6.244162	0.489775	1.228005	0.500130	0.356008	-0.080398	-0.363985	-0.080790	0.927894	0.364730	-0.929035	0.062183	0.857022	0.361064	0.367621
14926	6.798709	1.041370	1.710080	0.744274	0.215003	-0.136303	-0.366268	-0.080343	0.927035	0.370638	-0.926419	0.066148	0.853508	0.367822	0.369096
14927	7.499208	1.530387	2.042019	0.727145	0.101473	-0.177446	-0.367753	-0.079109	0.926552	0.376221	-0.923848	0.070446	0.850421	0.374495	0.369511
14928	8.133916	1.708850	2.169947	0.483073	0.005623	-0.189339	-0.368459	-0.077415	0.926415	0.379668	-0.922163	0.073944	0.848581	0.378975	0.369172
14929	8.677017	1.375951	2.064255	0.163493	-0.073121	-0.170902	-0.368445	-0.075591	0.926571	0.380476	-0.921654	0.076104	0.848225	0.380578	0.368339
14930	9.475283	0.689489	1.807954	-0.049062	-0.116082	-0.140154	-0.367935	-0.073890	0.926911	0.379584	-0.921932	0.077182	0.848846	0.380238	0.367259
14931	9.841724	0.057088	2.082685	-0.059997	-0.119141	-0.093727	-0.367233	-0.072600	0.927291	0.378789	-0.922206	0.077809	0.849505	0.379822	0.366165
14932	9.807137	0.022700	2.384597	0.008339	-0.190261	-0.060910	-0.365789	-0.071348	0.927959	0.378677	-0.922205	0.078363	0.850178	0.380061	0.364351
14933	9.160666	0.676705	2.295330	0.179747	-0.297166	-0.047764	-0.363395	-0.069803	0.929016	0.380092	-0.921531	0.079436	0.850573	0.381978	0.361412
14934	8.569714	1.010684	2.351196	0.207254	-0.478246	0.009504	-0.359231	-0.068091	0.930761	0.381930	-0.920718	0.080051	0.851518	0.384242	0.356757
14935	8.735999	1.044889	2.224221	0.142453	-0.643957	0.051629	-0.353494	-0.066112	0.933097	0.383393	-0.920110	0.080052	0.853260	0.386041	0.350601
14936	8.804864	1.088559	2.188042	0.061305	-0.706791	-0.002661	-0.347408	-0.063388	0.935569	0.383946	-0.919862	0.080248	0.855507	0.387087	0.343905
14937	8.958384	1.292377	1.913491	-0.169312	-0.790579	-0.053342	-0.340784	-0.059866	0.938234	0.382382	-0.920521	0.080153	0.858866	0.386079	0.336590
14938	9.152747	1.591047	1.636127	-0.497403	-0.761938	-0.058821	-0.334388	-0.056430	0.940744	0.377939	-0.922453	0.079006	0.863334	0.381963	0.329785
14939	8.576711	2.491055	2.182875	-0.906875	-0.692491	-0.044715	-0.328503	-0.053422	0.942991	0.370017	-0.925874	0.076448	0.869007	0.374036	0.323920
14940	8.086757	2.656134	2.954537	-1.460714	-0.801724	-0.013203	-0.321495	-0.050387	0.945570	0.357261	-0.931237	0.071846	0.876930	0.360914	0.317389
14941	8.210616	0.399118	3.315988	-1.960010	-0.950492	-0.024734	-0.313145	-0.046829	0.948550	0.339994	-0.938114	0.065928	0.886760	0.343147	0.309688
14942	9.210264	-2.266828	3.539364	-1.864609	-1.025391	-0.026722	-0.304036	-0.043182	0.951681	0.323328	-0.944355	0.060445	0.896114	0.326082	0.301080
14943	11.189402	-3.315588	5.441178	-1.543500	-0.974293	0.030285	-0.295120	-0.040385	0.954606	0.309609	-0.949240	0.055559	0.903906	0.311951	0.292643
14944	12.225388	-2.486191	6.147267	-1.496340	-0.662262	0.173848	-0.288530	-0.040057	0.956633	0.296579	-0.953724	0.049516	0.910380	0.298005	0.287058
14945	9.483954	-2.555063	3.955188	-1.295620	-0.440385	0.220232	-0.283822	-0.040910	0.958004	0.285427	-0.957405	0.043677	0.915411	0.285836	0.283410
14946	7.461541	-1.780019	1.426151	0.040659	-0.867034	-0.037392	-0.275927	-0.038109	0.960423	0.285732	-0.957294	0.044105	0.917726	0.286593	0.275032
14947	9.473672	-0.285762	-0.513742	1.030948	-1.305615	-0.262212	-0.264656	-0.031834	0.963817	0.294510	-0.954373	0.049347	0.918271	0.296914	0.261956
14948	12.002216	0.167702	0.362684	0.902758	-1.174487	-0.275005	-0.254633	-0.025711	0.966696	0.302124	-0.951723	0.054268	0.918631	0.305881	0.250108
14949	11.952516	0.136529	3.025401	0.302790	-0.652575	-0.341374	-0.249620	-0.020497	0.968127	0.304073	-0.950865	0.058270	0.919364	0.308927	0.243587
14950	9.702823	0.879242	4.954373	0.330629	-0.317687	-0.483642	-0.248118	-0.014951	0.968614	0.305945	-0.949915	0.063708	0.919149	0.312149	0.240265
14951	7.834201	1.726479	5.252810	0.728472	-0.452962	-0.517857	-0.245506	-0.008648	0.969356	0.311379	-0.947674	0.070408	0.918025	0.319123	0.235353
14952	8.060140	1.865594	3.644387	0.956674	-0.751792	-0.425186	-0.239893	-0.002228	0.970797	0.319160	-0.944592	0.076700	0.916836	0.328239	0.227312
14953	10.016236	1.867331	2.076015	0.889162	-0.979773	-0.303175	-0.231844	0.003850	0.972745	0.326615	-0.941631	0.081573	0.916281	0.336626	0.217054
14954	11.984026	2.053553	2.122754	0.360919	-0.934968	-0.216015	-0.223924	0.009011	0.974565	0.329466	-0.940388	0.084396	0.917230	0.339984	0.207607
14955	12.298388	1.694969	2.810796	-0.333797	-0.680031	-0.195642	-0.218271	0.013118	0.975800	0.325998	-0.941489	0.085577	0.919828	0.336787	0.201224
14956	11.316593	-0.055092	3.516267	-0.846772	-0.517790	-0.172966	-0.213998	0.016436	0.976696	0.317853	-0.944274	0.085533	0.923675	0.328749	0.196849
14957	10.882754	-1.828690	3.466226	-0.797812	-0.467706	-0.137001	-0.210054	0.019214	0.977501	0.310204	-0.946838	0.085270	0.927174	0.321136	0.192927
14958	10.071538	-2.297595	2.539618	-0.390002	-0.474632	-0.133553	-0.206002	0.021958	0.978305	0.306340	-0.948049	0.085785	0.929365	0.317366	0.188574
14959	9.826654	-1.129946	1.583225	0.090595	-0.574495	-0.188631	-0.201193	0.025524	0.979219	0.306795	-0.947723	0.087738	0.930268	0.318072	0.182845
14960	9.540977	0.796229	1.373193	0.400549	-0.617629	-0.246633	-0.196151	0.029798	0.980121	0.310065	-0.946367	0.090825	0.930261	0.321716	0.176391
14961	9.185990	2.253738	1.304955	0.445080	-0.687427	-0.315879	-0.190694	0.034960	0.981027	0.313584	-0.944834	0.094626	0.930216	0.325679	0.169211
14962	9.534337	1.782988	0.966303	0.277452	-0.765890	-0.330709	-0.184550	0.040550	0.981986	0.315578	-0.943796	0.098282	0.930780	0.328031	0.161381
14963	9.856124	0.380538	0.810367	0.259507	-0.722354	-0.329116	-0.178818	0.045986	0.982807	0.317397	-0.942806	0.101863	0.931281	0.330155	0.153995
14964	10.021692	-1.112727	0.754705	0.377115	-0.644116	-0.328854	-0.173811	0.051185	0.983448	0.320361	-0.941390	0.105616	0.931214	0.333415	0.147226
14965	10.070435	-1.970363	0.474115	0.599795	-0.576537	-0.316654	-0.169416	0.056051	0.983949	0.325392	-0.939214	0.109528	0.930279	0.338725	0.140880
14966	10.252651	-2.095532	0.546036	0.859208	-0.519102	-0.267180	-0.165414	0.060299	0.984379	0.332961	-0.936110	0.113293	0.928319	0.346500	0.134768
14967	9.694813	-0.682947	1.272287	1.187260	-0.361879	-0.235026	-0.162801	0.063710	0.984600	0.343548	-0.931806	0.117098	0.924917	0.357321	0.129811
14968	9.093195	1.849404	1.553124	1.355528	-0.370091	-0.213604	-0.160073	0.067006	0.984828	0.355743	-0.926734	0.120876	0.920773	0.369695	0.124508
14969	9.184337	3.216757	1.795266	0.968442	-0.387667	-0.165021	-0.157047	0.069924	0.985113	0.364352	-0.923022	0.123602	0.917924	0.378339	0.119481
14970	9.384509	3.280952	1.065617	0.519172	-0.417225	-0.102084	-0.153535	0.072420	0.985486	0.368986	-0.920968	0.125165	0.916666	0.382848	0.114679
14971	9.796968	3.780753	1.001620	0.304393	-0.373986	-0.099077	-0.150419	0.074717	0.985795	0.371606	-0.919744	0.126413	0.916124	0.385343	0.110582
14972	9.730382	3.739964	0.291001	-0.025943	-0.348405	-0.110419	-0.147577	0.077041	0.986045	0.371234	-0.919755	0.127423	0.916737	0.384858	0.107134
14973	10.088953	1.838919	-0.840636	-0.331224	-0.403523	-0.122915	-0.144275	0.079676	0.986325	0.368018	-0.920935	0.128226	0.918557	0.381485	0.103545
14974	10.493121	0.248957	-1.581215	-0.150710	-0.327924	-0.166931	-0.141814	0.082429	0.986455	0.366424	-0.921368	0.129668	0.919577	0.379849	0.100459
14975	10.182840	0.223244	-1.737047	0.305824	-0.315705	-0.223950	-0.139679	0.085654	0.986485	0.368930	-0.920019	0.132121	0.918902	0.382398	0.096907
14976	10.103173	0.271232	-1.879557	0.624839	-0.403257	-0.259489	-0.136882	0.089559	0.986531	0.374337	-0.917381	0.135220	0.917134	0.387804	0.092048
14977	9.961122	0.539187	-1.706801	0.873164	-0.466362	-0.280864	-0.133613	0.093917	0.986573	0.381967	-0.913707	0.138711	0.914467	0.395372	0.086209
14978	9.360968	0.936372	-1.012679	0.870317	-0.504956	-0.280715	-0.130024	0.098461	0.986610	0.389573	-0.909959	0.142153	0.911771	0.402839	0.079959
14979	8.895423	1.689877	0.001508	0.875800	-0.608955	-0.226472	-0.125307	0.102957	0.986761	0.397275	-0.906172	0.144997	0.909104	0.410185	0.072648
14980	9.525520	2.372691	0.716406	0.716204	-0.706046	-0.138768	-0.119390	0.107098	0.987054	0.403638	-0.903064	0.146807	0.907096	0.415940	0.064588
14981	10.013721	2.464530	0.797418	0.624388	-0.691858	-0.049753	-0.113259	0.110409	0.987412	0.409262	-0.900396	0.147622	0.905360	0.420830	0.056792
14982	9.842859	2.914434	1.025294	0.582863	-0.650412	-0.010081	-0.107356	0.113221	0.987753	0.414551	-0.897914	0.147980	0.903672	0.425360	0.049460
14983	9.831307	3.238641	0.842561	0.433746	-0.633376	-0.005948	-0.101598	0.115951	0.988045	0.418492	-0.896050	0.148187	0.902520	0.428545	0.042512
14984	9.172050	2.831125	0.445681	0.335285	-0.540045	-0.005350	-0.096687	0.118290	0.988261	0.421538	-0.894599	0.148321	0.901641	0.430930	0.036632
14985	9.221324	2.677309	-0.050524	0.427077	-0.565239	-0.022663	-0.091629	0.120915	0.988425	0.425405	-0.892713	0.148643	0.900353	0.434101	0.030361
14986	9.458279	2.658591	-0.183989	0.419508	-0.498550	-0.044838	-0.087274	0.123458	0.988505	0.429165	-0.890826	0.149149	0.899000	0.437249	0.024762
14987	9.169086	2.828217	-0.363734	0.397210	-0.456874	-0.076161	-0.083438	0.126125	0.988499	0.432719	-0.888971	0.149951	0.897659	0.440254	0.019597
14988	9.103836	2.706232	-0.651921	0.344869	-0.496826	-0.111013	-0.079401	0.129276	0.988425	0.435748	-0.887303	0.151054	0.896560	0.442698	0.014121
14989	9.332331	2.379317	-0.934715	0.273145	-0.523634	-0.126722	-0.075203	0.132713	0.988297	0.438160	-0.885900	0.152304	0.895745	0.444487	0.008473
14990	9.519711	2.086224	-0.900706	0.218998	-0.519234	-0.112477	-0.070985	0.135992	0.988164	0.440065	-0.884771	0.153375	0.895156	0.445743	0.002960
14991	9.582383	1.878210	-0.511570	0.134446	-0.504729	-0.076507	-0.066747	0.138917	0.988052	0.441287	-0.884035	0.154103	0.894880	0.446300	-0.002295
14992	9.273036	1.824123	0.111564	0.024923	-0.501215	-0.050778	-0.062423	0.141574	0.987958	0.441502	-0.883850	0.154551	0.895086	0.445833	-0.007333
14993	9.267770	1.893495	1.044136	-0.074246	-0.573401	-0.025495	-0.057344	0.144351	0.987864	0.440896	-0.884111	0.154783	0.895724	0.444421	-0.012945
14994	9.806872	1.475958	1.513513	-0.191548	-0.609254	0.000558	-0.051818	0.147017	0.987776	0.439204	-0.884958	0.154755	0.896892	0.441854	-0.018714
14995	10.039455	1.041436	1.864944	-0.149700	-0.567079	0.019592	-0.046587	0.149340	0.987688	0.437938	-0.885618	0.154564	0.897797	0.439747	-0.024143
14996	9.896973	1.088743	1.736095	-0.019540	-0.514283	0.023238	-0.041805	0.151365	0.987593	0.437797	-0.885737	0.154286	0.898101	0.438816	-0.029239
14997	9.697663	1.225155	1.496698	0.097927	-0.480249	0.023084	-0.037336	0.153259	0.987480	0.438740	-0.885321	0.153992	0.897838	0.438997	-0.034186
14998	9.496702	1.269831	0.815145	0.247221	-0.458191	0.006202	-0.033134	0.155191	0.987329	0.440984	-0.884241	0.153787	0.896903	0.440492	-0.039138
14999	9.452036	1.594347	0.514662	0.446628	-0.451891	-0.003996	-0.029048	0.157210	0.987138	0.445030	-0.882245	0.153601	0.895045	0.443767	-0.044335
15000	9.357090	1.695174	0.069317	0.472392	-0.421986	-0.004366	-0.025232	0.159101	0.986940	0.449275	-0.880131	0.153369	0.893037	0.447277	-0.049272
15001	8.929926	1.774641	-0.888045	0.651736	-0.429302	-0.002196	-0.021360	0.161036	0.986717	0.455127	-0.877181	0.153012	0.890170	0.452350	-0.054555
15002	9.118620	2.017405	-1.173656	0.673334	-0.477240	0.013187	-0.016995	0.163065	0.986469	0.461136	-0.874137	0.152441	0.887167	0.457487	-0.060339
15003	9.156366	2.173132	-1.710198	0.670113	-0.520101	0.034872	-0.012173	0.165143	0.986194	0.467123	-0.871093	0.151635	0.884109	0.462520	-0.066538
15004	9.333982	2.604948	-1.281805	0.563823	-0.564051	0.040595	-0.006939	0.167384	0.985867	0.472126	-0.868539	0.150787	0.881504	0.466500	-0.072999
15005	9.480533	2.716284	-0.541894	0.373988	-0.637584	0.047086	-0.001048	0.169954	0.985451	0.475478	-0.866845	0.150004	0.879727	0.468718	-0.079901
15006	9.397689	2.119457	-0.365125	0.216572	-0.735238	0.045357	0.005696	0.172983	0.984908	0.477402	-0.865904	0.149321	0.878666	0.469347	-0.087515
15007	9.339013	1.486665	0.359359	0.155769	-0.801972	0.045912	0.013011	0.176351	0.984241	0.478826	-0.865225	0.148697	0.877813	0.469346	-0.095699
15008	9.387306	0.572750	0.984823	0.170415	-0.844313	0.049380	0.020719	0.179861	0.983474	0.480334	-0.864511	0.147986	0.876841	0.469329	-0.104305
15009	9.322219	0.202511	1.525766	0.333745	-0.790688	0.072019	0.028043	0.182951	0.982722	0.483288	-0.863052	0.146881	0.875012	0.470819	-0.112621
15010	9.754964	0.457825	1.979707	0.618718	-0.779474	0.091371	0.035359	0.185824	0.981947	0.488683	-0.860293	0.145205	0.871745	0.474726	-0.121228
15011	10.031225	1.127682	2.233306	0.780391	-0.704691	0.110561	0.042084	0.188222	0.981224	0.495454	-0.856766	0.143098	0.867614	0.480129	-0.129312
15012	9.889599	1.877987	2.125109	0.956805	-0.635002	0.088167	0.048083	0.190515	0.980506	0.503710	-0.852304	0.140904	0.862534	0.487116	-0.136945
15013	9.226746	3.294851	1.975535	1.147024	-0.624122	0.058165	0.053795	0.193062	0.979711	0.513548	-0.846782	0.138668	0.856373	0.495669	-0.144699
15014	9.009523	4.238891	1.728670	0.918410	-0.646600	0.051172	0.059645	0.195832	0.978822	0.521379	-0.842297	0.136747	0.851238	0.502181	-0.152342
15015	10.158616	4.123110	2.123054	0.522317	-0.627629	0.049104	0.065282	0.198557	0.977913	0.525795	-0.839764	0.135407	0.848102	0.505342	-0.159222
15016	10.549762	3.696390	2.093372	0.277776	-0.455794	0.036685	0.069402	0.200533	0.977226	0.528141	-0.838430	0.134543	0.846316	0.506775	-0.164099
15017	10.227134	3.845396	2.151292	0.167962	-0.330583	0.049947	0.072504	0.201767	0.976746	0.529532	-0.837682	0.133733	0.845186	0.507522	-0.167578
15018	10.122295	3.790169	1.997661	-0.042123	-0.284998	0.075003	0.075375	0.202561	0.976364	0.529137	-0.838046	0.133016	0.845182	0.506604	-0.170351
15019	10.364750	2.945772	1.489293	-0.257249	-0.197825	0.101433	0.077621	0.202685	0.976163	0.526885	-0.839557	0.132425	0.846385	0.504047	-0.171959
15020	10.583747	2.058583	1.140714	-0.311193	-0.079129	0.105993	0.078913	0.202169	0.976166	0.524182	-0.841334	0.131870	0.847942	0.501283	-0.172366
15021	11.363538	2.149328	1.233192	-0.121056	0.027597	0.088007	0.079174	0.201259	0.976333	0.523079	-0.842129	0.131176	0.848599	0.500314	-0.171949
15022	12.486231	3.052695	1.606814	0.113918	0.172104	0.065071	0.078120	0.199826	0.976712	0.524011	-0.841687	0.130290	0.848121	0.501630	-0.170463
15023	13.530661	3.638757	2.401917	0.133793	0.371778	0.070734	0.075370	0.197325	0.977437	0.525073	-0.841173	0.129328	0.847713	0.503479	-0.167009
15024	14.136551	3.313036	3.094988	-0.053587	0.623166	0.109052	0.070722	0.193245	0.978598	0.524556	-0.841654	0.128293	0.848433	0.504257	-0.160891
15025	13.787385	2.032226	3.812553	-0.334601	0.934931	0.185672	0.063777	0.186925	0.980302	0.521557	-0.843719	0.126949	0.850829	0.503187	-0.151302
15026	12.885968	1.574533	4.456063	-0.536467	1.208094	0.267097	0.054929	0.178579	0.982391	0.516842	-0.846898	0.125051	0.854317	0.500872	-0.138816
15027	12.323364	1.018568	4.737573	-0.828493	1.395287	0.365366	0.044872	0.168455	0.984687	0.509501	-0.851707	0.122488	0.859299	0.496203	-0.124046
15028	12.085464	0.319417	4.437738	-1.208856	1.606248	0.452811	0.033363	0.156651	0.987090	0.498914	-0.858392	0.119363	0.866009	0.488491	-0.106794
15029	11.740641	-0.209469	3.427941	-1.124773	1.790751	0.443412	0.020009	0.144061	0.989366	0.488927	-0.864577	0.116003	0.872095	0.481407	-0.087735
15030	11.502450	0.033176	2.911645	-0.778294	1.959569	0.411296	0.004941	0.131077	0.991360	0.482093	-0.868870	0.112478	0.876106	0.477371	-0.067484
15031	10.954373	0.367202	1.949908	-0.535857	2.068242	0.361546	-0.011458	0.117979	0.992950	0.477280	-0.871951	0.109110	0.878676	0.475166	-0.046319
15032	10.392103	0.992472	1.143220	-0.398763	2.104984	0.285074	-0.028550	0.105474	0.994012	0.473853	-0.874157	0.106366	0.880141	0.474052	-0.025022
15033	10.570637	0.961003	0.007019	-0.345675	1.978784	0.197069	-0.045037	0.094279	0.994527	0.470748	-0.876073	0.104367	0.881117	0.472872	-0.004926
15034	11.396679	1.293748	-1.486937	-0.006023	1.834037	0.083658	-0.060731	0.084832	0.994543	0.470763	-0.876170	0.103482	0.880167	0.474479	0.013275
15035	11.538546	1.990020	-2.386984	0.119081	1.885391	0.034314	-0.077141	0.075469	0.994160	0.471707	-0.875710	0.103079	0.878374	0.476904	0.031954
15036	11.246793	1.793201	-2.743677	0.169943	1.799567	0.033274	-0.092707	0.066544	0.993467	0.473251	-0.874913	0.102765	0.876036	0.479687	0.049618
15037	11.959819	2.452813	-3.066147	0.131696	1.707997	0.036974	-0.107468	0.057931	0.992519	0.474336	-0.874369	0.102395	0.873760	0.481792	0.066488
15038	11.408232	2.258562	-2.945602	-0.212749	1.685797	0.082047	-0.121739	0.049072	0.991348	0.472599	-0.875428	0.101370	0.872829	0.480851	0.083382
15039	11.503338	2.244648	-3.246596	-0.488242	1.559281	0.117670	-0.134790	0.040509	0.990046	0.468412	-0.877868	0.099691	0.873168	0.477186	0.099353
15040	11.792061	1.853911	-3.683745	-0.710754	1.517331	0.157809	-0.147251	0.031897	0.988585	0.462452	-0.881287	0.097318	0.874331	0.471503	0.115020
15041	11.627940	1.320173	-3.371857	-0.919102	1.578743	0.145978	-0.160389	0.023175	0.986782	0.454587	-0.885655	0.094688	0.876143	0.463765	0.131514
15042	10.863387	0.915034	-3.166611	-0.803248	1.639035	0.092186	-0.174279	0.014784	0.984585	0.447729	-0.889361	0.092605	0.877021	0.456967	0.148378
15043	10.031289	1.368175	-2.661515	-0.548856	1.680585	0.039180	-0.188823	0.006755	0.981988	0.442968	-0.891875	0.091312	0.876427	0.452231	0.165414
15044	9.341095	1.459141	-2.127022	-0.434779	1.651180	-0.026203	-0.203338	-0.000475	0.979109	0.439140	-0.893822	0.090765	0.875106	0.448422	0.181956
15045	8.992241	0.947180	-1.809714	-0.334799	1.575699	-0.037316	-0.217256	-0.007214	0.976088	0.436139	-0.895321	0.090458	0.873260	0.445363	0.197660
15046	9.038783	0.916368	-1.449036	-0.204707	1.505838	-0.047149	-0.230531	-0.013512	0.972971	0.434281	-0.896225	0.090450	0.870779	0.443394	0.212476
15047	8.768347	0.933201	-1.163847	-0.168932	1.465354	-0.051477	-0.243470	-0.019560	0.969711	0.432713	-0.896973	0.090550	0.868034	0.441653	0.226850
15048	8.876557	0.958535	-1.155604	-0.189113	1.345421	-0.097544	-0.255492	-0.024643	0.966497	0.430864	-0.897816	0.091006	0.865494	0.439680	0.240003
15049	8.916102	1.074409	-1.262401	-0.236845	1.299432	-0.132543	-0.267263	-0.029171	0.963182	0.428510	-0.898874	0.091679	0.863105	0.437236	0.252736
15050	8.643386	1.285609	-1.180600	-0.354307	1.226654	-0.161288	-0.278468	-0.033092	0.959875	0.425050	-0.900455	0.092267	0.861271	0.433688	0.264813
15051	8.543983	1.482486	-0.975135	-0.551047	1.154115	-0.172026	-0.289094	-0.036533	0.956603	0.419878	-0.902864	0.092410	0.860306	0.428372	0.276352
15052	8.542179	1.269479	-0.763647	-0.756002	1.086203	-0.152709	-0.299015	-0.039796	0.953418	0.412961	-0.906121	0.091693	0.860263	0.421142	0.287378
15053	8.585700	0.599835	-0.570327	-0.953583	1.052103	-0.130499	-0.308564	-0.043010	0.950231	0.404438	-0.910113	0.090137	0.860940	0.412122	0.298223
15054	8.490206	-0.402780	-0.243717	-1.119411	1.055060	-0.094299	-0.317972	-0.046473	0.946960	0.394535	-0.914697	0.087588	0.862111	0.401460	0.309183
15055	8.377825	-1.533750	-0.106820	-1.253134	1.045136	-0.031328	-0.327069	-0.050337	0.943659	0.383711	-0.919631	0.083938	0.863593	0.389546	0.320097
15056	8.180101	-2.369098	0.053838	-1.220172	1.033976	0.036860	-0.335807	-0.054677	0.940342	0.373326	-0.924281	0.079577	0.864790	0.377777	0.330792
15057	7.418419	-2.575144	0.382748	-1.031866	0.988788	0.062235	-0.344084	-0.058961	0.937086	0.364694	-0.928060	0.075517	0.865219	0.367734	0.340834
15058	6.927503	-2.493711	0.617060	-0.730085	0.842140	0.073744	-0.351046	-0.062747	0.934253	0.358673	-0.930662	0.072266	0.864939	0.360461	0.349211
15059	6.773126	-2.473215	0.655117	-0.383999	0.653778	0.096583	-0.356305	-0.066018	0.932035	0.355763	-0.931952	0.069991	0.863991	0.356521	0.355545
15060	6.493868	-2.033408	0.800892	0.022060	0.481867	0.119027	-0.359983	-0.068879	0.930413	0.356419	-0.931781	0.068920	0.862194	0.356427	0.359976
15061	6.256399	-1.360432	0.750402	0.391133	0.280211	0.128831	-0.361884	-0.071113	0.929507	0.360304	-0.930272	0.069105	0.859780	0.359913	0.362273
15062	6.824713	-0.646975	0.887013	0.671393	0.094496	0.108557	-0.362245	-0.072499	0.929259	0.366500	-0.927744	0.070488	0.857005	0.366107	0.362641
15063	7.542562	0.043400	1.012777	0.957969	0.085084	0.004114	-0.362905	-0.072884	0.928972	0.374754	-0.924175	0.073891	0.853147	0.374951	0.362701
15064	7.886705	0.870399	1.273182	1.249929	0.069551	-0.124187	-0.363911	-0.072036	0.928644	0.384974	-0.919494	0.079535	0.848153	0.386448	0.362346
15065	7.966376	1.719494	1.337282	1.331078	-0.052238	-0.193919	-0.364170	-0.070082	0.928692	0.395578	-0.914386	0.086116	0.843148	0.398731	0.360715
15066	8.204889	2.017227	1.450701	1.108290	-0.201863	-0.220847	-0.363297	-0.067284	0.929241	0.404139	-0.910048	0.092108	0.839456	0.409005	0.357810
15067	8.636443	2.326815	1.506763	0.880650	-0.266070	-0.236021	-0.361970	-0.064066	0.929986	0.410733	-0.906537	0.097415	0.836825	0.417237	0.354453
15068	9.122702	2.671416	1.958501	0.689633	-0.286188	-0.247879	-0.360543	-0.060650	0.930769	0.415641	-0.903779	0.102112	0.835016	0.423681	0.351060
15069	9.082021	2.516027	2.944104	0.504130	-0.251148	-0.266036	-0.359496	-0.057200	0.931392	0.418977	-0.901749	0.106336	0.833799	0.428459	0.348140
15070	8.477117	2.441438	3.613166	0.523102	-0.292890	-0.288390	-0.358210	-0.053369	0.932115	0.422340	-0.899641	0.110794	0.832655	0.433356	0.344800
15071	8.569502	3.059570	5.013678	0.514977	-0.442490	-0.222046	-0.355406	-0.049464	0.933402	0.425931	-0.897466	0.114619	0.832027	0.438301	0.340033
15072	9.121210	3.000984	5.845608	0.114153	-0.558553	-0.099821	-0.351121	-0.046146	0.935192	0.426567	-0.897000	0.115895	0.833519	0.439616	0.334640
15073	9.620838	2.555344	5.790751	-0.389617	-0.648872	0.015587	-0.345575	-0.043460	0.937384	0.423467	-0.898653	0.114450	0.837409	0.436502	0.328956
15074	9.952875	2.260244	5.631644	-1.008757	-0.661221	0.171256	-0.339239	-0.042175	0.939754	0.415611	-0.902926	0.109508	0.843910	0.427722	0.323836
15075	10.039223	1.364113	5.036540	-1.617314	-0.562052	0.312835	-0.333136	-0.042663	0.941913	0.403043	-0.909552	0.101352	0.852395	0.413396	0.320199
15076	9.911855	0.310933	5.123350	-1.885413	-0.416578	0.385834	-0.327982	-0.044531	0.943634	0.388202	-0.917005	0.091654	0.861236	0.396381	0.318048
15077	10.764922	-0.887740	6.024088	-2.002993	-0.319132	0.452842	-0.323445	-0.047484	0.945055	0.372428	-0.924518	0.081011	0.869874	0.378168	0.316715
15078	11.295531	-1.133771	5.462322	-1.839614	-0.221500	0.465231	-0.319754	-0.051015	0.946126	0.357891	-0.931079	0.070749	0.877309	0.361233	0.315974
15079	10.141075	-1.457293	4.436433	-1.538258	-0.102916	0.468187	-0.317152	-0.055049	0.946776	0.345908	-0.936255	0.061436	0.883041	0.346982	0.315977
15080	8.089553	-1.882746	2.215996	-0.718991	-0.158335	0.309002	-0.314634	-0.057436	0.947474	0.340562	-0.938541	0.056198	0.886015	0.340356	0.314858
15081	7.435806	-1.583310	0.109678	0.219278	-0.639522	0.043057	-0.308770	-0.055687	0.949505	0.342687	-0.937753	0.056441	0.887258	0.342810	0.308633
15082	8.185739	-1.030845	-1.789245	0.885301	-1.023410	-0.123539	-0.300061	-0.051012	0.952555	0.350203	-0.934733	0.060259	0.887311	0.351669	0.298341
15083	9.180139	0.419517	-1.826378	1.023202	-1.053401	-0.247142	-0.291540	-0.044980	0.955500	0.358593	-0.931188	0.065578	0.886801	0.361754	0.287608
15084	9.707151	1.975017	-0.529191	0.605067	-0.991458	-0.328757	-0.283873	-0.038339	0.958095	0.363051	-0.929107	0.070389	0.887474	0.367819	0.277667
15085	10.558433	1.606537	0.452328	0.132704	-0.942537	-0.345560	-0.276695	-0.031680	0.960435	0.363326	-0.928716	0.074038	0.889626	0.369437	0.268481
15086	10.684046	0.249940	1.517500	-0.092831	-0.837342	-0.301338	-0.270269	-0.025823	0.962438	0.361710	-0.929135	0.076645	0.892256	0.368839	0.260457
15087	10.150351	-0.770901	2.383853	-0.174739	-0.838207	-0.203439	-0.263451	-0.020870	0.964447	0.359678	-0.929800	0.078131	0.895112	0.367474	0.252463
15088	10.548274	-0.782894	3.229814	-0.182551	-0.856445	-0.133775	-0.256195	-0.016519	0.966484	0.357729	-0.930484	0.078923	0.897995	0.365959	0.244294
15089	10.718591	0.299624	3.759379	0.026533	-0.787598	-0.113150	-0.249459	-0.012609	0.968303	0.357739	-0.930384	0.080047	0.899885	0.366369	0.236603
15090	10.639413	1.909340	4.046305	0.102301	-0.766656	-0.116453	-0.242913	-0.008746	0.970009	0.358409	-0.930012	0.081368	0.901408	0.367425	0.229047
15091	11.410456	1.724852	4.413603	-0.257458	-0.760432	-0.084091	-0.236290	-0.005206	0.971669	0.355936	-0.930944	0.081568	0.904144	0.365126	0.221826
15092	11.882587	-0.242134	3.930534	-0.615605	-0.652716	-0.046981	-0.230484	-0.002438	0.973073	0.350283	-0.933167	0.080631	0.907843	0.359436	0.215934
15093	11.443085	-2.318708	3.028406	-0.449674	-0.554685	-0.046486	-0.225546	-0.000051	0.974232	0.346134	-0.934761	0.080085	0.910670	0.355277	0.210850
15094	10.718529	-2.407393	2.418214	0.217417	-0.495306	-0.121681	-0.221399	0.002816	0.975179	0.347876	-0.933976	0.081677	0.911024	0.357324	0.205802
15095	9.635357	-0.672558	2.080751	0.921195	-0.504549	-0.200225	-0.217456	0.006468	0.976049	0.355836	-0.930634	0.085444	0.908897	0.365893	0.200070
15096	8.765371	1.239796	1.461155	1.354693	-0.597620	-0.282190	-0.212997	0.011278	0.976988	0.367550	-0.925559	0.090815	0.905284	0.378435	0.192996
15097	8.339859	2.344495	0.815446	1.437990	-0.708480	-0.372670	-0.207931	0.017405	0.977989	0.379769	-0.919970	0.097115	0.901410	0.391603	0.184681
15098	8.788041	1.935096	0.675754	1.003953	-0.814113	-0.387242	-0.202029	0.024153	0.979082	0.388047	-0.915904	0.102666	0.899224	0.400671	0.175666
15099	9.868719	0.303148	0.493093	0.522454	-0.833431	-0.306124	-0.195671	0.030278	0.980202	0.392161	-0.913710	0.106509	0.898845	0.405238	0.166912
15100	9.866072	-0.127583	1.085025	0.531038	-0.723147	-0.236880	-0.190047	0.035356	0.981138	0.396508	-0.911460	0.109649	0.898145	0.409867	0.159201
15101	9.649321	0.467842	1.315179	0.660751	-0.696296	-0.174245	-0.184432	0.039781	0.982040	0.402134	-0.908664	0.112332	0.896813	0.415629	0.151590
15102	9.442789	0.532152	0.574285	0.768443	-0.640420	-0.082523	-0.178970	0.043183	0.982906	0.408899	-0.905402	0.114231	0.894858	0.422353	0.144382
15103	9.491636	0.306117	-0.414662	0.836754	-0.644246	-0.030577	-0.173275	0.046169	0.983791	0.416343	-0.901822	0.115653	0.892544	0.429634	0.137041
15104	9.822873	1.505706	0.031221	0.917150	-0.573445	-0.076398	-0.168425	0.049314	0.984480	0.424416	-0.897801	0.117581	0.889665	0.437633	0.130282
15105	9.348138	2.996257	0.850198	0.651852	-0.552149	-0.160875	-0.164139	0.053156	0.985004	0.429966	-0.894843	0.119939	0.887799	0.443205	0.124024
15106	9.563319	2.566218	0.315113	0.179191	-0.661345	-0.195088	-0.159046	0.057807	0.985577	0.431272	-0.893932	0.122028	0.888093	0.444460	0.117245
15107	10.626362	1.525685	-0.363591	0.016761	-0.610127	-0.194911	-0.154400	0.062235	0.986046	0.431154	-0.893728	0.123921	0.888970	0.444271	0.111158
15108	10.801261	1.091753	0.061995	-0.009479	-0.412346	-0.165316	-0.151384	0.065516	0.986301	0.430847	-0.893657	0.125491	0.889637	0.443942	0.107058
15109	10.035536	0.749907	-0.006641	0.089104	-0.368624	-0.152291	-0.148694	0.068491	0.986509	0.431455	-0.893144	0.127041	0.889796	0.444525	0.103254
15110	9.927458	0.344136	-0.111165	0.321387	-0.440842	-0.166484	-0.145432	0.071914	0.986751	0.434098	-0.891588	0.128958	0.889049	0.447101	0.098448
15111	9.679149	0.351549	-0.008165	0.563354	-0.461545	-0.193586	-0.142109	0.075689	0.986953	0.438867	-0.888898	0.131360	0.887243	0.451809	0.093103
15112	9.253160	1.062476	0.016906	0.776632	-0.540685	-0.222031	-0.138239	0.080091	0.987155	0.445465	-0.885184	0.134200	0.884563	0.458295	0.086689
15113	9.343749	1.583288	0.203520	0.813988	-0.627240	-0.218716	-0.133611	0.084896	0.987391	0.452400	-0.881232	0.136986	0.881750	0.464998	0.079335
15114	9.507614	2.281259	0.406110	0.861759	-0.643530	-0.174776	-0.128681	0.089421	0.987646	0.459784	-0.877035	0.139312	0.878658	0.472031	0.071743
15115	9.525173	3.336175	0.754901	0.859629	-0.620102	-0.129239	-0.123771	0.093483	0.987898	0.467209	-0.872811	0.141128	0.875441	0.479023	0.064353
15116	9.761844	3.627737	0.825851	0.688942	-0.600925	-0.095604	-0.118904	0.097185	0.988138	0.473144	-0.869394	0.142441	0.872924	0.484468	0.057392
15117	9.687640	3.078510	0.597423	0.569745	-0.559498	-0.079024	-0.114334	0.100584	0.988337	0.478080	-0.866516	0.143492	0.870843	0.488911	0.050985
15118	9.646505	2.627524	0.303253	0.540416	-0.510477	-0.082431	-0.110226	0.103779	0.988474	0.482715	-0.863772	0.144515	0.868813	0.493081	0.045115
15119	9.454751	2.484058	0.256802	0.570631	-0.474243	-0.094421	-0.106503	0.106938	0.988545	0.487635	-0.860812	0.145657	0.866527	0.497562	0.039532
15120	9.293764	2.734650	0.365673	0.568809	-0.442928	-0.098263	-0.103088	0.109972	0.988574	0.492480	-0.857856	0.146786	0.864197	0.501985	0.034276
15121	9.192149	3.054340	0.490022	0.474081	-0.430212	-0.074921	-0.099680	0.112783	0.988607	0.496574	-0.855344	0.147649	0.862252	0.505634	0.029255
15122	9.143179	3.132721	0.280079	0.336680	-0.443419	-0.050159	-0.096045	0.115435	0.988661	0.499452	-0.853575	0.148183	0.861001	0.508021	0.024327
15123	9.068511	2.890058	-0.111906	0.256291	-0.482342	-0.026331	-0.091963	0.118122	0.988731	0.501720	-0.852193	0.148476	0.860128	0.509720	0.019106
15124	9.087944	2.420999	-0.490501	0.194803	-0.546533	-0.001353	-0.087206	0.120899	0.988827	0.503419	-0.851191	0.148469	0.859630	0.510742	0.013366
15125	9.356063	1.856927	-0.980681	0.145484	-0.613438	0.007127	-0.081837	0.123988	0.988903	0.504772	-0.850403	0.148395	0.859365	0.511314	0.007009
15126	9.584712	1.434482	-1.169973	0.144402	-0.644674	0.011683	-0.076174	0.127163	0.988952	0.506047	-0.849673	0.148233	0.859136	0.511748	0.000373
15127	9.513640	1.371388	-0.707090	0.118260	-0.667920	0.004720	-0.070351	0.130561	0.988941	0.507168	-0.849015	0.148167	0.858971	0.511983	-0.006487
15128	9.577694	1.239808	0.191639	-0.092358	-0.691646	0.026266	-0.064210	0.133850	0.988919	0.506416	-0.849517	0.147863	0.859895	0.510299	-0.013237
15129	9.951384	0.922929	1.064944	-0.251179	-0.688100	0.074786	-0.057848	0.136735	0.988917	0.504401	-0.850839	0.147149	0.861530	0.507323	-0.019750
15130	9.929338	0.973297	1.602001	-0.280347	-0.624313	0.122882	-0.051781	0.138822	0.988963	0.502075	-0.852421	0.145944	0.863273	0.504090	-0.025560
15131	9.973294	0.724284	1.889555	-0.252813	-0.580161	0.151221	-0.045950	0.140462	0.989019	0.500053	-0.853854	0.144498	0.864775	0.501202	-0.031003
15132	9.769554	0.581630	1.828786	-0.015123	-0.509462	0.143583	-0.040762	0.141763	0.989061	0.500008	-0.854128	0.143030	0.865061	0.500368	-0.036067
15133	9.458662	0.849921	1.701101	0.256585	-0.479735	0.111927	-0.035994	0.143217	0.989037	0.502341	-0.852964	0.141795	0.863920	0.501937	-0.041243
15134	9.543722	0.994952	1.312517	0.462744	-0.457580	0.085263	-0.031551	0.144772	0.988962	0.506385	-0.850752	0.140695	0.861730	0.505235	-0.046468
15135	9.382806	1.407486	0.889718	0.579070	-0.424118	0.054138	-0.027567	0.146463	0.988832	0.511441	-0.847863	0.139841	0.858876	0.509585	-0.051534
15136	8.937541	1.935372	0.095813	0.672217	-0.446288	0.036329	-0.023490	0.148418	0.988646	0.517235	-0.844470	0.139064	0.855521	0.514629	-0.056930
15137	9.060107	2.417574	-0.647831	0.670505	-0.482511	0.047989	-0.019062	0.150507	0.988425	0.523025	-0.841046	0.138152	0.852104	0.519605	-0.062687
15138	9.327020	2.562265	-0.889472	0.416008	-0.487231	0.069474	-0.014486	0.152440	0.988207	0.526599	-0.838979	0.137140	0.849990	0.522375	-0.068122
15139	8.948113	2.057235	-1.184230	0.207402	-0.506722	0.078992	-0.009708	0.154432	0.987956	0.528432	-0.837982	0.136181	0.848920	0.523390	-0.073472
15140	9.140438	1.499796	-1.077296	0.166603	-0.665488	0.083052	-0.003556	0.157199	0.987561	0.529873	-0.837234	0.135179	0.848070	0.523762	-0.080318
15141	9.280303	1.455236	-0.815859	0.281642	-0.766234	0.078503	0.003409	0.160569	0.987019	0.532326	-0.835845	0.134137	0.846533	0.524958	-0.088324
15142	8.728385	1.773071	-0.094467	0.364809	-0.930516	0.066528	0.011697	0.164884	0.986244	0.535426	-0.834031	0.133086	0.844501	0.526503	-0.098039
15143	9.018352	1.228970	0.191171	0.332394	-1.103316	0.072968	0.021451	0.170100	0.985193	0.538283	-0.832364	0.131993	0.842491	0.527481	-0.109417
15144	9.487099	0.342163	0.849169	0.358915	-1.118510	0.110679	0.031524	0.175065	0.984052	0.541293	-0.830656	0.130435	0.840243	0.528548	-0.120947
15145	9.742289	0.042666	1.448110	0.624911	-1.058454	0.128897	0.041154	0.179613	0.982876	0.546538	-0.827541	0.128342	0.836423	0.531897	-0.132222
15146	10.159914	0.483057	2.128253	0.791127	-0.980261	0.121794	0.050065	0.183824	0.981683	0.553099	-0.823532	0.126002	0.831610	0.536659	-0.142903
15147	10.434447	0.926898	3.622132	0.690310	-0.792081	0.092514	0.057206	0.187322	0.980631	0.558805	-0.819971	0.124034	0.827324	0.540886	-0.151583
15148	10.424948	1.538762	4.799307	0.765247	-0.611217	0.053186	0.062613	0.190189	0.979749	0.565103	-0.815909	0.122270	0.822641	0.546004	-0.158563
15149	10.614322	2.881841	5.086295	0.948386	-0.535736	0.053632	0.067365	0.192667	0.978949	0.572842	-0.810811	0.120156	0.816893	0.552689	-0.164988
15150	10.716330	4.469242	5.373154	0.908092	-0.368890	0.042282	0.070678	0.194358	0.978381	0.580223	-0.805840	0.118167	0.811385	0.559327	-0.169726
15151	10.720946	4.851933	5.453658	0.340916	-0.190577	0.033973	0.072470	0.195110	0.978100	0.582938	-0.804020	0.117194	0.809278	0.561679	-0.172005
15152	10.528443	3.728362	4.158946	-0.040210	-0.007986	0.065168	0.072980	0.194613	0.978161	0.582582	-0.804369	0.116570	0.809489	0.561352	-0.172081
15153	10.929770	3.466268	3.226981	0.070670	0.163880	0.098648	0.072272	0.192847	0.978564	0.583043	-0.804200	0.115425	0.809221	0.562202	-0.170559
15154	12.249896	3.892767	2.626731	0.225077	0.371143	0.121388	0.070045	0.189763	0.979328	0.584793	-0.803161	0.113800	0.808153	0.564733	-0.167229
15155	13.950816	3.896466	2.494191	0.180164	0.648470	0.141479	0.065672	0.184898	0.980561	0.586102	-0.802451	0.112060	0.807572	0.567349	-0.161068
15156	14.746770	3.577386	3.199258	-0.046990	0.993773	0.212524	0.058953	0.177529	0.982348	0.585606	-0.803098	0.109991	0.808449	0.568785	-0.151307
15157	14.649848	3.238610	3.404369	-0.390916	1.216735	0.256150	0.050625	0.168489	0.984403	0.582236	-0.805817	0.107980	0.811442	0.567688	-0.138894
15158	13.721525	2.659656	3.628013	-0.672662	1.350319	0.303023	0.041459	0.158378	0.986508	0.576641	-0.810115	0.105825	0.815945	0.564473	-0.124914
15159	13.086459	2.623051	3.720141	-0.888141	1.389639	0.351980	0.032121	0.147631	0.988521	0.569156	-0.815711	0.103329	0.821602	0.559304	-0.110227
15160	11.811547	2.828272	3.032736	-1.026311	1.586187	0.363889	0.021160	0.135809	0.990509	0.560614	-0.821929	0.100719	0.827807	0.553162	-0.093529
15161	10.688177	3.474987	2.035342	-0.800953	1.712509	0.317231	0.008726	0.123674	0.992284	0.553819	-0.826828	0.098182	0.832591	0.548690	-0.075708
15162	10.675742	3.917143	1.706228	-0.961086	1.783827	0.241250	-0.004782	0.111917	0.993706	0.545807	-0.832350	0.096371	0.837897	0.542833	-0.057105
15163	10.844241	3.199071	0.983753	-1.436271	1.825075	0.196866	-0.019075	0.100376	0.994767	0.533647	-0.840351	0.095028	0.845492	0.532667	-0.037536
15164	11.018467	2.380388	0.033030	-1.648709	1.901730	0.162354	-0.034313	0.088968	0.995443	0.519705	-0.849180	0.093809	0.853657	0.520555	-0.017099
15165	11.643523	1.712743	-0.690369	-1.568840	1.899784	0.136237	-0.049901	0.077955	0.995707	0.506225	-0.857426	0.092499	0.860957	0.508668	0.003324
15166	12.420423	1.704361	0.209476	-1.803756	1.908952	0.121302	-0.065744	0.067310	0.995564	0.490718	-0.866554	0.090993	0.868835	0.494523	0.023941
15167	11.954832	1.160064	-0.876405	-2.073774	1.802991	0.120509	-0.080911	0.057429	0.995065	0.472616	-0.876760	0.089030	0.877546	0.477488	0.043798
15168	12.780060	0.850830	-3.361345	-1.570482	1.758947	0.102919	-0.095856	0.048210	0.994227	0.458906	-0.884203	0.087119	0.883299	0.464607	0.062632
15169	12.282874	0.450025	-3.512782	-1.068655	1.871214	0.096720	-0.111976	0.038680	0.992958	0.449484	-0.889204	0.085327	0.886242	0.455873	0.082183
15170	12.953602	0.823799	-3.390314	-0.680145	1.780217	0.049874	-0.127477	0.030141	0.991384	0.443540	-0.892294	0.084160	0.887142	0.450447	0.100378
15171	13.584871	1.096660	-3.304121	-0.879195	1.949234	0.127291	-0.144220	0.020243	0.989339	0.435861	-0.896282	0.081877	0.888384	0.443023	0.120439
15172	12.681588	0.180752	-2.828865	-1.242571	2.082770	0.213969	-0.161764	0.009176	0.986787	0.425165	-0.901741	0.078083	0.890543	0.432179	0.141968
15173	11.552294	-1.073898	-2.897154	-1.137180	2.103943	0.175328	-0.179771	-0.001437	0.983707	0.415305	-0.906621	0.074572	0.891742	0.421944	0.163581
15174	10.496131	-1.312553	-2.706013	-0.745071	2.154765	0.099946	-0.198504	-0.011393	0.980034	0.408884	-0.909722	0.072243	0.890736	0.415061	0.185242
15175	9.975528	-1.244574	-2.922064	-0.226119	2.004068	-0.012787	-0.216362	-0.019611	0.976116	0.406830	-0.910672	0.071880	0.887512	0.412665	0.205014
15176	9.934559	-0.465661	-2.788699	0.133571	1.948057	-0.048342	-0.233741	-0.027249	0.971917	0.407936	-0.910120	0.072591	0.882583	0.413447	0.223849
15177	9.441266	-0.216397	-3.056383	0.393550	1.872839	-0.078259	-0.250514	-0.034345	0.967503	0.411202	-0.908517	0.074221	0.876445	0.416433	0.241719
15178	8.765938	0.253954	-3.108830	0.693882	1.835600	-0.139105	-0.267049	-0.040809	0.962818	0.416932	-0.905648	0.077256	0.868822	0.422061	0.258867
15179	8.365219	0.883411	-2.993287	0.891711	1.745815	-0.193479	-0.282929	-0.046522	0.958012	0.424124	-0.901933	0.081457	0.860273	0.429363	0.274914
15180	7.468923	1.410162	-2.954247	0.960694	1.674640	-0.209447	-0.298097	-0.051923	0.953122	0.431774	-0.897861	0.086128	0.851299	0.437208	0.290069
15181	7.358093	1.844687	-2.703461	0.807204	1.494968	-0.246095	-0.311797	-0.056325	0.948478	0.437905	-0.894420	0.090839	0.843221	0.443667	0.303542
15182	7.788921	2.081479	-2.401970	0.462951	1.257255	-0.311479	-0.323670	-0.059170	0.944318	0.440842	-0.892524	0.095176	0.837195	0.447101	0.314968
15183	7.617232	2.415370	-2.123353	-0.016006	1.158340	-0.296068	-0.334604	-0.061719	0.940336	0.439809	-0.892739	0.097904	0.833432	0.446327	0.325858
15184	6.746545	1.870889	-1.923390	-0.492966	1.030693	-0.222664	-0.344102	-0.064331	0.936726	0.434986	-0.895053	0.098321	0.832095	0.441295	0.335972
15185	6.370522	0.749475	-1.572639	-0.817799	0.881509	-0.147463	-0.352022	-0.066878	0.933599	0.427772	-0.898676	0.096919	0.832521	0.433485	0.344962
15186	6.401625	-0.405351	-1.081754	-1.039390	0.747317	-0.069507	-0.358486	-0.069484	0.930946	0.418901	-0.903164	0.093899	0.834272	0.423636	0.352878
15187	6.420162	-1.354429	-0.746227	-1.091436	0.660670	0.004213	-0.363929	-0.072302	0.928616	0.409919	-0.907673	0.089978	0.836374	0.413403	0.359966
15188	6.284266	-1.708714	-0.344421	-1.005890	0.571646	0.033386	-0.368523	-0.074972	0.926591	0.401658	-0.911745	0.085976	0.838369	0.403857	0.366112
15189	6.199574	-1.606557	0.048978	-0.871922	0.439959	0.060257	-0.371913	-0.077300	0.925044	0.394681	-0.915133	0.082209	0.840183	0.395672	0.370859
15190	6.143090	-1.345443	0.154147	-0.711993	0.271526	0.074814	-0.373847	-0.079083	0.924113	0.389011	-0.917854	0.078826	0.841967	0.388959	0.373901
15191	6.220329	-0.794895	0.522884	-0.514465	0.099492	0.084101	-0.374294	-0.080261	0.923830	0.385103	-0.919729	0.076121	0.843564	0.384261	0.375158
15192	6.516400	-0.407724	1.015240	-0.370120	-0.109007	0.080751	-0.373007	-0.080620	0.924319	0.382319	-0.921067	0.073948	0.845398	0.380968	0.374387
15193	7.217198	0.065867	1.410475	-0.226255	-0.283647	0.069436	-0.370274	-0.080203	0.925454	0.380773	-0.921825	0.072459	0.847295	0.379218	0.371867
15194	7.899755	0.462911	1.920590	-0.162316	-0.426371	0.061002	-0.366368	-0.079184	0.927095	0.379661	-0.922378	0.071253	0.849489	0.378087	0.367993
15195	8.632943	0.316532	2.345839	-0.147417	-0.489738	0.030492	-0.362017	-0.077637	0.928933	0.378631	-0.922864	0.070428	0.851811	0.377219	0.363488
15196	8.984734	-0.082515	2.480650	-0.035992	-0.517563	0.012130	-0.357501	-0.075829	0.930829	0.378408	-0.922977	0.070145	0.853815	0.377310	0.358659
15197	9.267979	-0.392277	2.849098	0.150894	-0.587802	-0.039568	-0.352557	-0.073261	0.932918	0.379669	-0.922390	0.071045	0.855310	0.379248	0.353010
15198	9.416049	-0.859289	3.447456	0.338611	-0.613333	-0.065404	-0.347500	-0.070353	0.935037	0.382377	-0.921134	0.072801	0.856173	0.382835	0.346996
15199	9.843262	-0.897186	4.201073	0.602198	-0.632205	-0.074377	-0.342304	-0.067251	0.937180	0.387378	-0.918820	0.075556	0.856018	0.388906	0.340567
15200	11.097128	-0.726669	5.624988	0.818700	-0.535794	-0.087441	-0.338005	-0.064375	0.938940	0.394122	-0.915648	0.079100	0.854646	0.396793	0.334865
15201	11.870153	0.452312	7.050701	1.083410	-0.363070	-0.142537	-0.335407	-0.061637	0.940055	0.402969	-0.911349	0.084022	0.851539	0.406994	0.330510
15202	11.378063	2.282945	7.564759	1.146808	-0.203867	-0.183764	-0.334366	-0.059156	0.940585	0.412134	-0.906718	0.089482	0.847552	0.417567	0.327556
15203	10.098685	4.538534	8.010046	0.693926	-0.201255	-0.114057	-0.333072	-0.057300	0.941159	0.417699	-0.903835	0.092794	0.845335	0.424028	0.324976
15204	9.355884	5.133330	7.622081	-0.250791	-0.341098	-0.015750	-0.330192	-0.055744	0.942266	0.415562	-0.904891	0.092089	0.847515	0.421977	0.321952
15205	9.445879	4.444095	6.411087	-1.133397	-0.432300	-0.014225	-0.326516	-0.053832	0.943657	0.405954	-0.909591	0.088576	0.853574	0.412003	0.318849
15206	8.679756	3.749538	5.276573	-1.631005	-0.403762	-0.038428	-0.323149	-0.051878	0.944925	0.391882	-0.916199	0.083716	0.861396	0.397352	0.316399
15207	7.499301	2.267055	3.466685	-1.953685	-0.474375	-0.018260	-0.319059	-0.049885	0.946421	0.374997	-0.923762	0.077729	0.870390	0.379705	0.313441
15208	6.444172	-0.234135	1.705688	-1.924009	-0.549470	0.056047	-0.313990	-0.048400	0.948192	0.358381	-0.930859	0.071161	0.879189	0.362158	0.309626
15209	6.415288	-1.845287	1.129580	-1.273380	-0.658749	-0.004206	-0.308141	-0.046031	0.950226	0.347224	-0.935365	0.067287	0.885711	0.350675	0.304207
15210	7.177007	-1.551098	1.256994	-0.674412	-0.884655	-0.097734	-0.300563	-0.042074	0.952833	0.340974	-0.937743	0.066149	0.890729	0.344773	0.296197
15211	9.627728	-1.787476	-0.965077	-0.506149	-1.231247	-0.098197	-0.289844	-0.036956	0.956360	0.336241	-0.939488	0.065601	0.896065	0.340582	0.284731
15212	11.095982	-2.406865	-3.897460	-0.038723	-1.324399	-0.140446	-0.278366	-0.031159	0.959969	0.335532	-0.939658	0.066795	0.899961	0.340694	0.272024
15213	12.538406	-1.733899	-2.913231	0.355969	-1.168303	-0.255430	-0.268642	-0.024782	0.962921	0.338118	-0.938484	0.070177	0.901947	0.344433	0.260495
15214	13.576355	-1.512467	1.589585	-0.211179	-0.672437	-0.265725	-0.263407	-0.020011	0.964477	0.335540	-0.939259	0.072150	0.904450	0.342625	0.254122
15215	11.319625	-1.976865	5.407132	-0.765669	-0.169706	-0.258015	-0.262660	-0.017034	0.964738	0.327997	-0.941879	0.072670	0.907429	0.335519	0.252982
15216	7.808400	-1.440205	5.764080	-0.341589	-0.247608	-0.273275	-0.261246	-0.013667	0.965175	0.324215	-0.943053	0.074402	0.909195	0.332362	0.250800
15217	7.531595	0.271423	3.470780	0.538105	-0.642617	-0.240056	-0.256127	-0.009287	0.966599	0.328528	-0.941267	0.078009	0.909103	0.337535	0.244135
15218	9.809469	1.570337	1.737056	0.859028	-0.842369	-0.110112	-0.248781	-0.005409	0.968545	0.336092	-0.938332	0.081088	0.908378	0.345693	0.235257
15219	12.023185	1.978592	0.563897	0.537936	-0.860072	0.027783	-0.240813	-0.002708	0.970568	0.341088	-0.936447	0.082017	0.908663	0.350800	0.226432
15220	12.658513	2.020939	0.691542	0.138319	-0.692459	0.012449	-0.234417	-0.000425	0.972136	0.342410	-0.935951	0.082159	0.909837	0.352129	0.219548
15221	11.720365	1.433415	1.877797	0.010507	-0.508001	-0.114628	-0.230121	0.002410	0.973159	0.342296	-0.935896	0.083260	0.910976	0.352269	0.214545
15222	10.511734	1.338319	2.948245	0.210001	-0.421605	-0.212260	-0.226951	0.005851	0.973889	0.343759	-0.935137	0.085726	0.911221	0.354239	0.210219
15223	9.025640	1.902305	2.812663	0.520863	-0.521158	-0.305055	-0.223195	0.010533	0.974717	0.347876	-0.933235	0.089743	0.910585	0.359111	0.204629
15224	8.580530	2.787258	2.352923	0.684148	-0.717445	-0.384532	-0.217956	0.016683	0.975816	0.353289	-0.930696	0.094821	0.909770	0.365412	0.196957
15225	9.632744	2.763137	2.393923	0.320919	-0.846038	-0.402429	-0.211620	0.023507	0.977069	0.355413	-0.929416	0.099338	0.910439	0.368285	0.188328
15226	11.045340	0.388332	1.839675	-0.406586	-0.872382	-0.277867	-0.204587	0.029254	0.978411	0.351160	-0.930824	0.101259	0.913691	0.364295	0.180162
15227	11.099153	-2.954413	1.427467	-0.600645	-0.687315	-0.109276	-0.198615	0.032736	0.979531	0.345511	-0.932938	0.101237	0.917156	0.358546	0.173985
15228	9.872593	-4.054902	2.095577	-0.018125	-0.505466	-0.143840	-0.194415	0.035856	0.980264	0.345095	-0.932946	0.102568	0.918211	0.358225	0.169005
15229	8.988981	-1.926041	2.506892	0.633699	-0.467403	-0.146882	-0.190574	0.038879	0.980903	0.350662	-0.930596	0.105013	0.916907	0.363978	0.163714
15230	8.980413	0.678972	2.415333	0.989575	-0.490055	-0.150728	-0.186564	0.042051	0.981542	0.359471	-0.926881	0.108035	0.914316	0.372991	0.157806
15231	8.479827	3.673304	1.459089	1.165981	-0.511694	-0.250948	-0.182745	0.046269	0.982071	0.369667	-0.922360	0.112244	0.911016	0.383552	0.151453
15232	8.588154	5.443907	1.528245	0.625032	-0.613094	-0.298771	-0.178217	0.051357	0.982650	0.374851	-0.919792	0.116056	0.909794	0.389030	0.144671
15233	9.628353	4.598923	0.334069	-0.093119	-0.685882	-0.333380	-0.173157	0.057061	0.983240	0.373461	-0.919961	0.119158	0.911342	0.387834	0.137988
15234	10.651044	2.359014	-1.032506	-0.507063	-0.637543	-0.319543	-0.168464	0.062428	0.983729	0.368318	-0.921718	0.121567	0.914310	0.382805	0.132283
15235	11.280739	-0.388545	-2.030145	-0.542456	-0.424102	-0.260716	-0.165473	0.066428	0.983975	0.362983	-0.923589	0.123393	0.916985	0.377584	0.128717
15236	10.676153	-1.618980	-2.381671	0.027975	-0.278630	-0.264864	-0.163820	0.069894	0.984011	0.362835	-0.923298	0.125987	0.917341	0.377673	0.125894
15237	10.058007	-0.988184	-2.331598	0.569350	-0.377823	-0.287186	-0.161338	0.073958	0.984124	0.367651	-0.920906	0.129480	0.915862	0.382704	0.121386
15238	10.017037	-1.046249	-2.273587	0.695816	-0.477835	-0.309624	-0.158054	0.078616	0.984296	0.373554	-0.917980	0.133304	0.914044	0.388757	0.115723
15239	9.479193	0.125110	-1.451628	0.951249	-0.539249	-0.310622	-0.154232	0.083559	0.984495	0.381812	-0.913972	0.137388	0.911280	0.397082	0.109060
15240	9.360940	1.938267	0.024687	0.890376	-0.701958	-0.273877	-0.148840	0.088840	0.984862	0.389531	-0.910161	0.140971	0.908907	0.404617	0.100863
15241	9.391136	3.117482	0.358938	0.758454	-0.805237	-0.204166	-0.142254	0.093959	0.985361	0.396186	-0.906860	0.143671	0.907083	0.410824	0.091779
15242	9.427461	3.913132	0.445809	0.605351	-0.871882	-0.157016	-0.134917	0.098954	0.985903	0.401486	-0.904202	0.145695	0.905873	0.415483	0.082264
15243	9.911400	3.398465	0.437364	0.286853	-0.857997	-0.099550	-0.127471	0.103416	0.986436	0.404035	-0.902876	0.146867	0.905818	0.417276	0.073307
15244	10.007956	2.155939	-0.082625	0.206036	-0.732787	-0.059762	-0.121015	0.106988	0.986868	0.405857	-0.901948	0.147550	0.905890	0.418383	0.065727
15245	9.418413	1.372097	-0.430843	0.500917	-0.733221	-0.077750	-0.114621	0.110767	0.987215	0.410392	-0.899721	0.148599	0.904677	0.422177	0.057669
15246	9.469541	2.038988	-0.298875	0.726255	-0.701981	-0.106956	-0.108659	0.114683	0.987442	0.416863	-0.896508	0.149994	0.902451	0.427926	0.049607
15247	9.320134	2.909655	0.263040	0.800451	-0.615709	-0.114804	-0.103520	0.118366	0.987559	0.424050	-0.892882	0.151469	0.899703	0.434454	0.042238
15248	9.203018	3.477063	0.572934	0.697472	-0.575782	-0.089457	-0.098667	0.121653	0.987656	0.430254	-0.889721	0.152572	0.897299	0.439997	0.035445
15249	9.423692	3.210921	0.548976	0.471889	-0.561643	-0.054405	-0.093796	0.124626	0.987760	0.434539	-0.887521	0.153242	0.895756	0.443593	0.029091
15250	9.415370	2.587560	0.229970	0.332981	-0.547524	-0.041131	-0.089012	0.127399	0.987849	0.437509	-0.885983	0.153684	0.894797	0.445873	0.023125
15251	9.546703	1.680184	-0.096019	0.222288	-0.572973	-0.024301	-0.083924	0.130187	0.987931	0.439591	-0.884906	0.153953	0.894269	0.447206	0.017036
15252	9.527479	0.990824	-0.710433	0.289936	-0.557570	-0.020955	-0.078970	0.132844	0.987986	0.442192	-0.883575	0.154149	0.893437	0.449053	0.011034
15253	9.343174	0.723549	-0.237422	0.417315	-0.559098	-0.011678	-0.073961	0.135482	0.988015	0.446022	-0.881624	0.154281	0.891961	0.452088	0.004778
15254	9.385244	0.971640	-0.101260	0.514503	-0.603595	-0.002104	-0.068530	0.138214	0.988029	0.450631	-0.879282	0.154258	0.890076	0.455808	-0.002026
15255	9.643633	1.552382	0.094638	0.558558	-0.631996	0.018594	-0.062757	0.140959	0.988024	0.455718	-0.876697	0.154023	0.887909	0.459926	-0.009219
15256	9.829509	2.178827	0.458621	0.460294	-0.616375	0.036314	-0.057061	0.143460	0.988010	0.459848	-0.874620	0.153554	0.886162	0.463096	-0.016063
15257	9.612362	2.337312	0.475803	0.241222	-0.575644	0.051636	-0.051654	0.145695	0.987980	0.462120	-0.873523	0.152977	0.885312	0.464467	-0.022207
15258	9.669200	2.702035	0.099115	0.189347	-0.544836	0.029319	-0.046634	0.147947	0.987895	0.463835	-0.872682	0.152588	0.884693	0.465337	-0.027926
15259	9.060293	2.092002	0.675005	0.082153	-0.445025	0.051816	-0.042390	0.149586	0.987840	0.464695	-0.872321	0.152034	0.884456	0.465489	-0.032535
15260	9.478245	2.124718	0.541419	0.235753	-0.529076	0.028707	-0.037516	0.151776	0.987703	0.466815	-0.871261	0.151614	0.883559	0.466763	-0.038165
15261	9.765138	1.892514	0.588627	0.128913	-0.445419	0.008560	-0.033476	0.153803	0.987534	0.468066	-0.870617	0.151461	0.883059	0.467301	-0.042845
15262	9.661877	1.147892	0.746165	0.064755	-0.370176	-0.009577	-0.030189	0.155591	0.987360	0.468659	-0.870296	0.151473	0.882863	0.467308	-0.046645
15263	9.687431	0.855267	0.754450	0.040626	-0.349544	-0.008743	-0.027080	0.157319	0.987176	0.469118	-0.870040	0.151521	0.882720	0.467205	-0.050240
15264	9.311486	0.788977	0.006350	0.263414	-0.383317	0.006667	-0.023604	0.159030	0.986991	0.471467	-0.868814	0.151264	0.881568	0.468904	-0.054470
15265	9.313652	1.124382	-0.633266	0.508257	-0.458565	0.021466	-0.019401	0.161017	0.986761	0.476039	-0.866409	0.150738	0.879210	0.472661	-0.059842
15266	9.377776	1.503079	-1.199956	0.666303	-0.505816	0.021759	-0.014794	0.163208	0.986481	0.481914	-0.863275	0.150051	0.876093	0.477619	-0.065881
15267	9.361103	2.148255	-1.001809	0.692425	-0.554006	0.032506	-0.009727	0.165604	0.986144	0.488065	-0.859956	0.149227	0.872753	0.482754	-0.072461
15268	8.885764	2.585753	-0.590400	0.591487	-0.658272	0.040357	-0.003729	0.168425	0.985707	0.493245	-0.857152	0.148325	0.869883	0.486748	-0.079878
15269	8.672043	2.804438	-0.287831	0.482109	-0.816777	0.034622	0.003601	0.172137	0.985066	0.497530	-0.854805	0.147556	0.867440	0.489568	-0.088721
15270	8.844005	2.483489	0.420651	0.288110	-0.856052	0.048541	0.011326	0.175894	0.984344	0.500045	-0.853474	0.146755	0.865925	0.490554	-0.097621
15271	9.325237	2.065464	1.038637	0.194410	-0.858136	0.066112	0.019143	0.179566	0.983560	0.501816	-0.852583	0.145887	0.864762	0.490774	-0.106431
15272	9.627421	1.869312	1.436911	0.236332	-0.779376	0.084251	0.026365	0.182653	0.982824	0.503861	-0.851571	0.144744	0.863382	0.491390	-0.114484
15273	10.183740	1.856498	1.714272	0.254209	-0.707746	0.083031	0.032947	0.185450	0.982101	0.506119	-0.850424	0.143606	0.861834	0.492329	-0.121879
15274	9.947180	1.564572	1.707274	0.199709	-0.591926	0.040430	0.038314	0.188000	0.981422	0.507845	-0.849512	0.142905	0.860596	0.492935	-0.128023
15275	9.810449	1.856463	1.490506	0.370858	-0.584764	-0.002280	0.043384	0.190923	0.980646	0.511110	-0.847635	0.142415	0.858420	0.495039	-0.134356
15276	9.329863	2.198709	1.177806	0.436018	-0.574148	-0.005033	0.048344	0.193793	0.979851	0.514870	-0.845458	0.141811	0.855904	0.497640	-0.140651
15277	9.383962	2.728773	1.489046	0.426805	-0.590573	-0.012959	0.053377	0.196860	0.978978	0.518590	-0.843267	0.141295	0.853355	0.500146	-0.147101
15278	9.835452	2.952237	2.043184	0.287067	-0.570340	-0.043728	0.058076	0.200063	0.978060	0.521081	-0.841740	0.141237	0.851529	0.501446	-0.153134
15279	10.084667	1.813110	2.237044	0.062866	-0.473908	-0.068985	0.061798	0.203027	0.977221	0.521716	-0.841254	0.141786	0.850878	0.501070	-0.157911
15280	10.056899	0.297412	2.109660	0.083467	-0.342419	-0.075769	0.064380	0.205358	0.976567	0.522493	-0.840679	0.142338	0.850209	0.501086	-0.161421
15281	9.918176	-0.217484	1.757285	0.359800	-0.160346	-0.079732	0.065371	0.206829	0.976191	0.525638	-0.838689	0.142496	0.848193	0.503808	-0.163543
15282	9.632103	0.777669	1.290893	0.823234	-0.054181	-0.090307	0.065416	0.207838	0.975973	0.532681	-0.834324	0.141969	0.843784	0.510595	-0.165289
15283	10.794801	2.938190	0.436394	1.132447	-0.096686	-0.085579	0.065818	0.209029	0.975692	0.542274	-0.828308	0.140873	0.837620	0.519820	-0.167869
15284	12.904027	4.982490	-0.461226	1.280707	-0.044903	-0.057385	0.065943	0.209718	0.975536	0.553012	-0.821460	0.139213	0.830559	0.530303	-0.170147
15285	14.515767	5.890197	-0.404246	1.111474	0.158211	0.009192	0.064730	0.208783	0.975817	0.562223	-0.815526	0.137193	0.824448	0.539747	-0.170172
15286	15.033987	5.593682	0.795828	0.746075	0.522703	0.057659	0.060822	0.205455	0.976775	0.568342	-0.811589	0.135320	0.820542	0.546911	-0.166131
15287	14.186032	5.231288	2.284387	0.244480	0.876260	0.104777	0.054269	0.199791	0.978335	0.570312	-0.810446	0.133869	0.819633	0.550691	-0.157925
15288	12.899761	3.797026	3.894807	-0.626504	1.045042	0.126264	0.046465	0.193008	0.980096	0.565120	-0.814130	0.133533	0.823699	0.547667	-0.146901
15289	11.989847	2.064281	5.139507	-1.300450	1.222828	0.142137	0.037170	0.185186	0.982000	0.554314	-0.821461	0.133930	0.831477	0.539358	-0.133185
15290	11.139649	0.286637	5.541872	-1.721607	1.343691	0.204541	0.027115	0.176308	0.983961	0.539868	-0.831011	0.134025	0.841313	0.527575	-0.117716
15291	10.969306	-0.979583	4.925871	-1.604745	1.493515	0.253388	0.015860	0.166357	0.985938	0.526223	-0.839843	0.133241	0.850199	0.516710	-0.100860
15292	11.232653	-0.751167	4.029503	-1.037115	1.683359	0.245900	0.002848	0.155615	0.987814	0.517375	-0.845562	0.131714	0.855754	0.510695	-0.082920
15293	11.400254	-0.359086	3.256857	-0.604048	1.929520	0.253946	-0.012362	0.143571	0.989563	0.512152	-0.849063	0.129584	0.858806	0.508408	-0.063034
15294	11.315448	-0.007748	2.331236	-0.273946	2.092240	0.259956	-0.028948	0.130696	0.991000	0.509875	-0.850807	0.127101	0.859761	0.508965	-0.042009
15295	11.202779	0.143481	1.268551	-0.003009	2.139957	0.230670	-0.046142	0.117741	0.991972	0.509855	-0.851168	0.124744	0.859022	0.511517	-0.020756
15296	12.060976	0.999270	-0.018010	0.277509	2.140247	0.170936	-0.063562	0.105266	0.992411	0.512354	-0.849925	0.122968	0.856419	0.516282	0.000090
15297	11.564255	1.793803	-0.485385	0.245573	2.193810	0.186006	-0.081347	0.092241	0.992408	0.514501	-0.848899	0.121075	0.853622	0.520445	0.021597
15298	10.859123	2.366621	-1.176150	-0.014894	1.950468	0.194372	-0.096917	0.080402	0.992040	0.514574	-0.849135	0.119091	0.851951	0.522020	0.040922
15299	11.834180	2.915618	-1.966589	-0.182517	1.785054	0.185866	-0.111145	0.069443	0.991375	0.513139	-0.850282	0.117089	0.851079	0.521727	0.058871
15300	11.683833	3.135027	-3.090762	-0.038227	1.854736	0.223538	-0.125702	0.057835	0.990381	0.513107	-0.850613	0.114798	0.849071	0.522601	0.077248
15301	11.485807	3.790463	-3.530230	-0.236360	1.742794	0.229752	-0.139297	0.046733	0.989147	0.511358	-0.852003	0.112266	0.848003	0.521446	0.094784
15302	11.302121	3.445158	-3.226838	-0.584248	1.720398	0.213719	-0.152739	0.035952	0.987612	0.506744	-0.855115	0.109499	0.848458	0.517191	0.112391
15303	11.552564	3.401704	-2.978022	-0.802478	1.717843	0.189487	-0.166353	0.025467	0.985737	0.500221	-0.859309	0.106618	0.849768	0.510823	0.130210
15304	11.351533	2.742681	-3.073026	-1.033161	1.730688	0.198916	-0.180029	0.014962	0.983547	0.491806	-0.864571	0.103172	0.851890	0.502289	0.148289
15305	10.768380	1.159568	-3.021305	-1.283396	1.684946	0.206257	-0.193383	0.004782	0.981112	0.481262	-0.870957	0.099104	0.854980	0.491337	0.166127
15306	10.273872	-0.422497	-2.990292	-1.187566	1.624293	0.145234	-0.206536	-0.004409	0.978429	0.471417	-0.876718	0.095561	0.857385	0.480985	0.183152
15307	10.025225	-0.100329	-2.837381	-0.762145	1.700826	0.034771	-0.220925	-0.012852	0.975206	0.465000	-0.880334	0.093740	0.857302	0.474181	0.200464
15308	9.518607	0.014167	-2.704493	-0.338206	1.652268	-0.049609	-0.235241	-0.020249	0.971726	0.462025	-0.881927	0.093472	0.855099	0.470951	0.216821
15309	9.258399	0.358773	-2.312319	0.021039	1.601149	-0.108754	-0.249364	-0.026842	0.968038	0.462002	-0.881824	0.094560	0.851100	0.470815	0.232296
15310	8.832357	0.851806	-1.754143	0.186726	1.540406	-0.137611	-0.263014	-0.032916	0.964230	0.463269	-0.880971	0.096293	0.846289	0.472024	0.246956
15311	8.712231	1.371650	-1.319211	0.121030	1.478605	-0.145327	-0.276121	-0.038629	0.960346	0.463977	-0.880411	0.097990	0.841714	0.472635	0.261023
15312	8.671038	1.482053	-1.205557	-0.043283	1.396514	-0.138944	-0.288434	-0.044025	0.956487	0.463257	-0.880658	0.099163	0.837973	0.471702	0.274407
15313	8.690992	1.546243	-1.201491	-0.255579	1.325323	-0.141060	-0.300121	-0.049022	0.952641	0.460802	-0.881875	0.099792	0.835218	0.468928	0.287259
15314	8.769812	1.594896	-1.131375	-0.531385	1.251304	-0.126262	-0.311083	-0.053767	0.948861	0.456019	-0.884403	0.099391	0.833831	0.463618	0.299641
15315	8.754474	1.418361	-1.034046	-0.838460	1.210205	-0.100649	-0.321570	-0.058442	0.945081	0.448830	-0.888251	0.097789	0.833753	0.455626	0.311865
15316	8.520920	0.837391	-0.839181	-1.100876	1.177254	-0.077727	-0.331678	-0.063079	0.941282	0.439430	-0.893241	0.094982	0.834800	0.445131	0.323987
15317	8.234320	-0.080722	-0.581876	-1.260738	1.146739	-0.066565	-0.341484	-0.067524	0.937459	0.428810	-0.898752	0.091464	0.836367	0.433226	0.335865
15318	8.172322	-0.597784	-0.279097	-1.279985	1.098888	-0.070224	-0.350923	-0.071613	0.933662	0.417891	-0.904253	0.087710	0.837986	0.420948	0.347249
15319	7.657635	-0.917044	0.278536	-1.247776	1.019823	-0.065538	-0.359676	-0.075261	0.930037	0.407340	-0.909411	0.083940	0.839468	0.409032	0.357750
15320	7.244236	-1.207923	0.526081	-1.143713	0.853483	-0.035953	-0.366935	-0.078406	0.926936	0.397640	-0.914039	0.080093	0.840976	0.397976	0.366570
15321	7.090899	-1.623639	0.561558	-0.914794	0.638307	-0.010168	-0.372273	-0.080840	0.924596	0.390049	-0.917584	0.076820	0.842184	0.389236	0.373123
15322	7.095729	-1.612106	0.570279	-0.590735	0.450683	-0.014585	-0.376070	-0.082478	0.922913	0.385060	-0.919864	0.074699	0.842793	0.383469	0.377692
15323	6.947863	-1.456653	0.658211	-0.270665	0.270821	-0.023440	-0.378365	-0.083315	0.921899	0.382829	-0.920859	0.073899	0.842782	0.380891	0.380316
15324	6.864205	-1.246829	0.641821	0.017984	0.096147	-0.025871	-0.379218	-0.083474	0.921534	0.382925	-0.920797	0.074168	0.842355	0.381004	0.381147
15325	6.839197	-1.056594	0.760464	0.238999	-0.072160	-0.016186	-0.378593	-0.083069	0.921828	0.385009	-0.919841	0.075232	0.841686	0.383394	0.380227
15326	6.999278	-0.733168	1.030258	0.389625	-0.205805	-0.012503	-0.376853	-0.082192	0.922619	0.388282	-0.918336	0.076787	0.840963	0.387173	0.377991
15327	7.247182	-0.457041	1.319018	0.494025	-0.292786	-0.009581	-0.374346	-0.080983	0.923746	0.392527	-0.916364	0.078735	0.840111	0.392070	0.374826
15328	7.563960	-0.083837	1.605397	0.592806	-0.335643	-0.004781	-0.371490	-0.079644	0.925014	0.397528	-0.914012	0.080953	0.839027	0.397792	0.371207
15329	8.039671	0.258968	1.854811	0.585050	-0.388084	0.024536	-0.368053	-0.078332	0.926500	0.402652	-0.911593	0.082883	0.838098	0.403562	0.367055
15330	8.916538	0.360214	2.265233	0.543257	-0.386760	0.054173	-0.364536	-0.077283	0.927977	0.407443	-0.909329	0.084325	0.837319	0.408837	0.362972
15331	9.800218	0.057976	2.677874	0.601131	-0.279159	0.040886	-0.361945	-0.076522	0.929053	0.412748	-0.906765	0.086114	0.835843	0.414634	0.359784
15332	10.050012	-0.159562	2.928968	0.727558	-0.202230	-0.009786	-0.360240	-0.075617	0.929790	0.418827	-0.903716	0.088775	0.833553	0.421401	0.357225
15333	10.110887	0.166953	3.363996	0.820594	-0.164951	-0.017708	-0.358853	-0.074773	0.930394	0.425716	-0.900183	0.091854	0.830657	0.429045	0.354866
15334	9.814684	1.271697	4.631047	0.866099	-0.057825	-0.009924	-0.358358	-0.074461	0.930610	0.432900	-0.896425	0.094975	0.827150	0.436896	0.353475
15335	9.520232	2.505401	5.746508	0.829142	0.032570	-0.060551	-0.358802	-0.074079	0.930469	0.439645	-0.892759	0.098457	0.823391	0.444403	0.352892
15336	8.868811	3.746214	6.061859	0.805307	0.098389	-0.177592	-0.360338	-0.072963	0.929964	0.445662	-0.889266	0.102913	0.819476	0.451533	0.352953
15337	8.038627	4.669393	6.598955	0.660707	0.086894	-0.275975	-0.362200	-0.070922	0.929398	0.450191	-0.886401	0.107805	0.816173	0.457454	0.352983
15338	7.735191	4.575557	6.169105	0.207111	-0.129355	-0.264301	-0.362277	-0.068013	0.929586	0.450964	-0.885619	0.110953	0.815712	0.459406	0.351511
15339	7.883008	3.432728	5.558411	-0.211880	-0.336795	-0.178809	-0.360252	-0.064895	0.930595	0.448718	-0.886643	0.111877	0.817845	0.457879	0.348534
15340	8.244385	2.410764	5.506232	-0.542572	-0.445971	-0.039105	-0.356711	-0.062542	0.932119	0.444170	-0.889124	0.110322	0.821870	0.453372	0.344940
15341	9.055511	1.332680	5.588316	-0.850143	-0.489586	0.096845	-0.352173	-0.061212	0.933931	0.437634	-0.892823	0.106508	0.827315	0.446229	0.341217
15342	9.655355	0.208936	4.882911	-0.952859	-0.462123	0.189294	-0.347457	-0.060890	0.935717	0.430426	-0.896905	0.101464	0.833071	0.438011	0.337844
15343	9.840583	-0.676463	4.185686	-0.974225	-0.426520	0.282652	-0.342615	-0.061592	0.937455	0.423379	-0.900901	0.095543	0.838669	0.429633	0.334738
15344	9.422086	-1.201094	3.525138	-0.691118	-0.350426	0.292403	-0.338379	-0.062763	0.938915	0.418604	-0.903653	0.090457	0.842775	0.423642	0.332050
15345	9.591194	-0.981764	2.909066	-0.305710	-0.384963	0.238635	-0.334063	-0.063309	0.940422	0.416932	-0.904745	0.087198	0.845322	0.421222	0.328638
15346	9.740309	-0.308731	2.045238	-0.203477	-0.443523	0.188031	-0.329468	-0.063174	0.942051	0.415874	-0.905467	0.084724	0.847644	0.419688	0.324595
15347	9.859765	0.124012	0.778191	-0.324269	-0.549977	0.163327	-0.324049	-0.062369	0.943982	0.413752	-0.906678	0.082128	0.850765	0.417188	0.319613
15348	9.689607	0.092561	-0.651725	-0.501809	-0.739255	0.160860	-0.317022	-0.060788	0.946468	0.410027	-0.908647	0.078980	0.855205	0.413116	0.312986
15349	9.782208	0.150185	-1.128706	-0.514203	-0.904329	0.085712	-0.308840	-0.057865	0.949352	0.405991	-0.910664	0.076569	0.860110	0.409075	0.304742
15350	10.077469	0.163860	0.130191	-0.505756	-0.899446	-0.025367	-0.301126	-0.054002	0.952054	0.401590	-0.912723	0.075249	0.864898	0.404995	0.296531
15351	9.946041	0.012443	2.107995	-0.452376	-0.796030	-0.167779	-0.294814	-0.049271	0.954284	0.397283	-0.914584	0.075514	0.869052	0.401384	0.289206
15352	9.211093	-0.030243	3.552913	-0.328795	-0.721585	-0.298660	-0.289653	-0.043680	0.956135	0.393586	-0.916025	0.077386	0.872463	0.398737	0.282521
15353	8.589648	-0.538049	3.073394	-0.137363	-0.750028	-0.352252	-0.284401	-0.037478	0.957973	0.391484	-0.916669	0.080361	0.875132	0.397886	0.275374
15354	8.623674	-1.117846	1.476815	0.269487	-0.868843	-0.340229	-0.278067	-0.030921	0.960064	0.392926	-0.915697	0.084313	0.876520	0.400679	0.266775
15355	9.443899	-0.495914	0.763981	0.699739	-0.932508	-0.315891	-0.271064	-0.024280	0.962255	0.398290	-0.912916	0.089162	0.876293	0.407425	0.257129
15356	10.100395	1.136152	1.388663	0.793917	-0.923076	-0.303739	-0.264138	-0.017745	0.964322	0.404469	-0.909703	0.094048	0.875577	0.414880	0.247465
