// General information: 
//  MT Manager version: 2022.2.0 
//  XDA version: 2022.2.0 build 7381 rev 124627 built on 2023-07-19
// Device information: 
//  DeviceId: 00B4CAF0
//  ProductCode: MTW2-3A7G6
//  Firmware Version: 4.6.0
//  Hardware Version: 2.0.0
// Device settings: 
//  Filter Profile: human(46.1)
//  Option Flags: Orientation Smoother Disabled, Position/Velocity Smoother Disabled, Continuous Zero Rotation Update Disabled, AHS Disabled, ICC Disabled
// Coordinate system: ENU
PacketCounter	Acc_X	Acc_Y	Acc_Z	Gyr_X	Gyr_Y	Gyr_Z	Mat[1][1]	Mat[2][1]	Mat[3][1]	Mat[1][2]	Mat[2][2]	Mat[3][2]	Mat[1][3]	Mat[2][3]	Mat[3][3]
57006	4.469955	-0.994846	9.188865	0.003887	-0.006535	0.003623	0.808525	-0.388313	0.442154	0.472335	0.876388	-0.094043	-0.350981	0.284881	0.891995
57007	4.474260	-0.998375	9.212400	0.000112	-0.009976	0.002619	0.808474	-0.388276	0.442280	0.472349	0.876378	-0.094069	-0.351080	0.284963	0.891930
57008	4.471410	-0.994757	9.188166	0.003887	-0.006534	0.003623	0.808465	-0.388240	0.442328	0.472327	0.876389	-0.094073	-0.351128	0.284978	0.891906
57009	4.489160	-1.023318	9.181108	0.008875	-0.001337	0.003547	0.808449	-0.388219	0.442376	0.472303	0.876407	-0.094025	-0.351199	0.284950	0.891887
57010	4.471620	-0.993790	9.188169	0.006088	0.003146	0.002977	0.808468	-0.388221	0.442339	0.472286	0.876418	-0.094008	-0.351178	0.284913	0.891907
57011	4.469032	-1.020262	9.209596	0.010089	0.000419	0.002468	0.808453	-0.388216	0.442372	0.472266	0.876436	-0.093945	-0.351240	0.284867	0.891898
57012	4.452466	-1.021044	9.261944	0.010640	0.006285	0.000618	0.808472	-0.388248	0.442309	0.472252	0.876450	-0.093877	-0.351214	0.284778	0.891936
57013	4.454525	-0.993103	9.240929	0.010279	0.000499	0.004643	0.808467	-0.388223	0.442339	0.472214	0.876477	-0.093821	-0.351277	0.284730	0.891927
57014	4.483934	-0.974166	9.239300	0.011966	-0.001934	0.002160	0.808458	-0.388231	0.442348	0.472197	0.876493	-0.093750	-0.351319	0.284669	0.891930
57015	4.441504	-1.007548	9.190703	0.013180	-0.000178	0.001081	0.808434	-0.388236	0.442388	0.472178	0.876514	-0.093653	-0.351400	0.284598	0.891920
57016	4.474524	-0.992032	9.212957	0.010999	-0.001706	0.003348	0.808429	-0.388237	0.442396	0.472161	0.876529	-0.093597	-0.351436	0.284549	0.891922
57017	4.454720	-0.989313	9.241242	0.010279	0.000502	0.004643	0.808424	-0.388213	0.442427	0.472123	0.876556	-0.093541	-0.351498	0.284501	0.891913
57018	4.478907	-1.035995	9.155768	0.007471	-0.003167	0.002454	0.808417	-0.388206	0.442445	0.472109	0.876567	-0.093510	-0.351532	0.284477	0.891907
57019	4.516670	-0.966615	9.135441	0.012840	0.002191	0.006725	0.808428	-0.388168	0.442459	0.472045	0.876608	-0.093440	-0.351593	0.284400	0.891908
57020	4.458697	-1.032166	9.184379	0.017203	0.005249	0.002190	0.808451	-0.388178	0.442407	0.471992	0.876650	-0.093321	-0.351611	0.284258	0.891946
57021	4.546572	-1.018402	9.098694	0.019786	0.015092	0.005889	0.808504	-0.388184	0.442306	0.471910	0.876708	-0.093186	-0.351600	0.284070	0.892010
57022	4.568136	-1.022030	9.095510	0.026238	0.024032	0.004838	0.808602	-0.388234	0.442083	0.471813	0.876780	-0.092998	-0.351505	0.283779	0.892140
57023	4.543226	-1.044692	9.146620	0.032879	0.033057	0.005962	0.808718	-0.388290	0.441822	0.471685	0.876876	-0.092747	-0.351410	0.283407	0.892296
57024	4.541878	-1.014632	9.127519	0.039108	0.048182	0.006420	0.808907	-0.388396	0.441382	0.471532	0.876989	-0.092452	-0.351180	0.282911	0.892544
57025	4.561507	-1.047101	9.171294	0.044406	0.057288	0.004384	0.809100	-0.388534	0.440906	0.471377	0.877111	-0.092090	-0.350944	0.282343	0.892816
57026	4.563337	-0.962376	9.110444	0.042186	0.062041	0.010335	0.809352	-0.388652	0.440340	0.471190	0.877243	-0.091786	-0.350612	0.281771	0.893127
57027	4.531016	-0.979759	9.139691	0.056787	0.077529	0.005763	0.809622	-0.388834	0.439681	0.470981	0.877404	-0.091320	-0.350270	0.281016	0.893499
57028	4.550043	-0.983669	9.163829	0.061082	0.093163	0.008596	0.809983	-0.389033	0.438840	0.470720	0.877594	-0.090836	-0.349785	0.280146	0.893962
57029	4.413487	-1.028617	9.229736	0.057311	0.089758	0.007600	0.810304	-0.389232	0.438070	0.470494	0.877763	-0.090372	-0.349346	0.279338	0.894387
57030	4.347721	-0.990636	9.297147	0.054035	0.090320	0.006813	0.810643	-0.389447	0.437252	0.470283	0.877920	-0.089943	-0.348844	0.278544	0.894830
57031	4.346553	-0.993018	9.349223	0.045874	0.081283	0.000349	0.810899	-0.389685	0.436563	0.470156	0.878029	-0.089550	-0.348419	0.277869	0.895206
57032	4.428731	-0.977293	9.267263	0.039664	0.074335	0.001504	0.811159	-0.389897	0.435893	0.470033	0.878127	-0.089226	-0.347980	0.277260	0.895565
57033	4.435000	-0.968908	9.195080	0.041067	0.076213	0.002607	0.811407	-0.390100	0.435247	0.469905	0.878230	-0.088885	-0.347573	0.276647	0.895913
57034	4.445535	-0.894535	9.206564	0.044367	0.083922	0.005016	0.811709	-0.390320	0.434487	0.469754	0.878347	-0.088536	-0.347073	0.275967	0.896316
57035	4.402390	-0.932128	9.209744	0.046494	0.083591	0.004835	0.811993	-0.390523	0.433773	0.469589	0.878473	-0.088156	-0.346631	0.275277	0.896699
57036	4.411705	-0.957162	9.207508	0.047848	0.091773	0.009610	0.812341	-0.390726	0.432939	0.469393	0.878614	-0.087795	-0.346082	0.274538	0.897138
57037	4.403669	-0.983162	9.257516	0.052241	0.094887	0.005103	0.812664	-0.390956	0.432122	0.469207	0.878756	-0.087364	-0.345574	0.273752	0.897573
57038	4.263562	-0.925483	9.312468	0.046524	0.091919	0.006456	0.813009	-0.391158	0.431290	0.469009	0.878898	-0.086998	-0.345030	0.273009	0.898009
57039	4.238703	-0.923010	9.368345	0.037013	0.077259	0.005195	0.813272	-0.391338	0.430631	0.468875	0.878999	-0.086704	-0.344594	0.272426	0.898354
57040	3.877812	-0.753107	9.591894	0.004417	0.042199	0.005519	0.813434	-0.391424	0.430246	0.468845	0.879014	-0.086713	-0.344251	0.272254	0.898537
57041	4.305987	-0.914398	9.363253	0.002053	0.028657	0.010330	0.813553	-0.391427	0.430019	0.468790	0.879039	-0.086755	-0.344045	0.272168	0.898642
57042	4.405454	-0.955909	9.270136	-0.001011	0.014745	0.006436	0.813620	-0.391442	0.429877	0.468785	0.879036	-0.086818	-0.343893	0.272157	0.898704
57043	4.336412	-0.912817	9.261088	-0.000837	0.014838	0.008612	0.813684	-0.391422	0.429776	0.468753	0.879046	-0.086878	-0.343787	0.272150	0.898746
57044	4.358674	-0.918878	9.257664	-0.001409	0.008945	0.010479	0.813752	-0.391382	0.429684	0.468711	0.879061	-0.086961	-0.343683	0.272163	0.898782
57045	4.351044	-0.912672	9.210238	0.000314	0.014701	0.009610	0.813819	-0.391353	0.429583	0.468667	0.879079	-0.087016	-0.343583	0.272147	0.898825
57046	4.323279	-0.934429	9.236335	0.000737	0.016789	0.011890	0.813925	-0.391310	0.429421	0.468594	0.879111	-0.087085	-0.343431	0.272104	0.898896
57047	4.268711	-0.947445	9.242415	-0.002538	0.017300	0.011074	0.814009	-0.391275	0.429295	0.468548	0.879127	-0.087171	-0.343297	0.272103	0.898948
57048	4.287658	-0.980694	9.260695	-0.004663	0.017672	0.011256	0.814108	-0.391253	0.429126	0.468513	0.879134	-0.087288	-0.343107	0.272113	0.899017
57049	4.353583	-1.025069	9.271113	-0.002787	0.015308	0.010972	0.814184	-0.391213	0.429018	0.468469	0.879148	-0.087376	-0.342988	0.272122	0.899060
57050	4.326527	-0.947541	9.310907	-0.008056	0.011784	0.004598	0.814232	-0.391236	0.428907	0.468503	0.879119	-0.087495	-0.342829	0.272185	0.899102
57051	4.362855	-0.979491	9.277209	-0.000759	0.016752	0.006543	0.814292	-0.391240	0.428790	0.468488	0.879122	-0.087546	-0.342707	0.272170	0.899152
57052	4.340510	-0.947350	9.260398	-0.000683	0.018657	0.004470	0.814369	-0.391266	0.428618	0.468480	0.879121	-0.087596	-0.342534	0.272134	0.899229
57053	4.374689	-0.936177	9.307700	0.002169	0.016060	0.003007	0.814410	-0.391299	0.428511	0.468484	0.879118	-0.087605	-0.342432	0.272097	0.899280
57054	4.340114	-0.920697	9.240401	-0.000759	0.016756	0.006543	0.814491	-0.391302	0.428354	0.468458	0.879126	-0.087664	-0.342274	0.272067	0.899349
57055	4.370966	-0.906314	9.263793	0.001865	0.020379	0.006571	0.814564	-0.391315	0.428204	0.468434	0.879136	-0.087692	-0.342135	0.272016	0.899417
57056	4.336025	-0.890905	9.196662	-0.000260	0.020752	0.006751	0.814652	-0.391344	0.428010	0.468423	0.879136	-0.087749	-0.341939	0.271975	0.899504
57057	4.340304	-0.897888	9.245554	0.001139	0.022611	0.007854	0.814738	-0.391352	0.427839	0.468391	0.879149	-0.087789	-0.341778	0.271921	0.899581
57058	4.263778	-0.977807	9.220447	0.000912	0.028836	0.009345	0.814872	-0.391366	0.427571	0.468340	0.879171	-0.087845	-0.341528	0.271831	0.899704
57059	4.448679	-1.053085	9.236330	-0.005229	0.035670	0.003667	0.814983	-0.391446	0.427286	0.468364	0.879150	-0.087924	-0.341231	0.271781	0.899831
57060	4.249937	-0.929638	9.255735	-0.002714	0.017232	0.008901	0.815066	-0.391449	0.427124	0.468348	0.879150	-0.088013	-0.341053	0.271779	0.899899
57061	4.263371	-1.016311	9.316909	-0.000283	0.012542	0.005159	0.815105	-0.391453	0.427046	0.468342	0.879148	-0.088054	-0.340968	0.271777	0.899932
57062	4.265603	-0.920045	9.355432	0.002422	0.018071	0.003117	0.815168	-0.391501	0.426881	0.468347	0.879144	-0.088071	-0.340810	0.271721	0.900009
57063	4.302016	-0.951321	9.321872	0.002740	0.010034	0.005875	0.815202	-0.391492	0.426825	0.468326	0.879154	-0.088088	-0.340759	0.271703	0.900034
57064	4.333712	-0.936761	9.344923	0.001342	0.008176	0.004771	0.815234	-0.391510	0.426747	0.468333	0.879146	-0.088123	-0.340672	0.271701	0.900067
57065	4.323970	-0.956933	9.318717	0.002967	0.003809	0.004384	0.815239	-0.391497	0.426749	0.468323	0.879151	-0.088132	-0.340673	0.271704	0.900066
57066	4.340763	-0.955748	9.267106	0.001819	0.003949	0.003385	0.815253	-0.391513	0.426708	0.468335	0.879142	-0.088155	-0.340623	0.271711	0.900083
57067	4.310845	-0.973463	9.268679	0.006320	0.005202	0.003133	0.815258	-0.391515	0.426698	0.468324	0.879151	-0.088128	-0.340628	0.271680	0.900090
57068	4.345972	-0.961782	9.315625	0.004104	0.007387	-0.000938	0.815263	-0.391575	0.426633	0.468362	0.879132	-0.088113	-0.340563	0.271654	0.900123
57069	4.282870	-0.963743	9.249268	0.004695	0.009571	0.003520	0.815284	-0.391585	0.426583	0.468353	0.879138	-0.088103	-0.340526	0.271620	0.900147
57070	4.294269	-0.946781	9.300145	0.002490	0.008039	0.005771	0.815325	-0.391585	0.426505	0.468337	0.879143	-0.088130	-0.340448	0.271603	0.900182
57071	4.331334	-0.978247	9.266308	-0.001204	0.006460	0.002668	0.815331	-0.391594	0.426484	0.468355	0.879130	-0.088169	-0.340408	0.271633	0.900188
57072	4.310178	-0.945806	9.248938	0.003047	0.005716	0.002312	0.815353	-0.391607	0.426432	0.468355	0.879130	-0.088176	-0.340359	0.271616	0.900211
57073	4.318667	-0.925403	9.275746	0.004445	0.007574	0.003416	0.815366	-0.391613	0.426400	0.468347	0.879135	-0.088167	-0.340336	0.271591	0.900227
57074	4.335173	-0.954336	9.269868	0.002821	0.011944	0.003803	0.815409	-0.391641	0.426292	0.468349	0.879132	-0.088184	-0.340230	0.271559	0.900277
57075	4.313889	-0.951982	9.298129	0.002150	0.007854	0.001417	0.815415	-0.391665	0.426259	0.468366	0.879123	-0.088187	-0.340195	0.271554	0.900292
57076	4.309849	-0.948413	9.274599	0.004946	0.011573	0.003626	0.815466	-0.391674	0.426153	0.468339	0.879138	-0.088181	-0.340109	0.271493	0.900343
57077	4.314975	-0.924427	9.277561	0.007548	0.006971	0.002063	0.815471	-0.391690	0.426128	0.468332	0.879146	-0.088138	-0.340106	0.271443	0.900359
57078	4.284805	-0.941930	9.279247	0.004445	0.007577	0.003417	0.815508	-0.391689	0.426060	0.468307	0.879159	-0.088136	-0.340052	0.271402	0.900392
57079	4.281332	-0.968626	9.301008	0.002966	0.003812	0.004385	0.815513	-0.391676	0.426061	0.468296	0.879164	-0.088144	-0.340053	0.271406	0.900390
57080	4.336696	-0.929237	9.274630	0.004194	0.005578	0.003313	0.815533	-0.391691	0.426011	0.468297	0.879163	-0.088147	-0.340007	0.271386	0.900414
57081	4.277279	-0.964979	9.277492	0.001818	0.003952	0.003385	0.815534	-0.391687	0.426012	0.468299	0.879161	-0.088161	-0.340001	0.271399	0.900412
57082	4.342247	-0.935707	9.322926	0.000978	-0.000233	-0.001177	0.815516	-0.391718	0.426018	0.468339	0.879138	-0.088173	-0.339990	0.271427	0.900408
57083	4.303379	-0.973739	9.297893	0.002069	0.005951	0.003490	0.815524	-0.391719	0.426001	0.468339	0.879137	-0.088185	-0.339969	0.271430	0.900415
57084	4.302870	-0.943551	9.252571	0.001486	0.000048	0.005354	0.815550	-0.391665	0.426002	0.468293	0.879158	-0.088217	-0.339971	0.271439	0.900411
57085	4.332783	-0.955903	9.296601	-0.000753	-0.005997	-0.000313	0.815500	-0.391667	0.426096	0.468334	0.879135	-0.088239	-0.340035	0.271514	0.900365
57086	4.335984	-0.928935	9.274993	0.004589	-0.000557	0.004000	0.815507	-0.391648	0.426099	0.468315	0.879145	-0.088239	-0.340044	0.271508	0.900363
57087	4.353603	-0.957959	9.268605	0.000815	-0.004043	0.002969	0.815479	-0.391626	0.426172	0.468323	0.879138	-0.088261	-0.340099	0.271561	0.900326
57088	4.333038	-0.925479	9.250946	0.002966	0.003813	0.004385	0.815492	-0.391638	0.426137	0.468332	0.879131	-0.088280	-0.340057	0.271566	0.900341
57089	4.376468	-0.933209	9.219524	0.002797	0.003719	0.002208	0.815487	-0.391644	0.426142	0.468340	0.879127	-0.088281	-0.340058	0.271571	0.900339
57090	4.332096	-0.925181	9.251417	0.004615	0.007672	0.005594	0.815525	-0.391643	0.426070	0.468318	0.879138	-0.088288	-0.339996	0.271537	0.900372
57091	4.325220	-0.948515	9.249340	0.004866	0.009672	0.005698	0.815556	-0.391634	0.426017	0.468290	0.879153	-0.088285	-0.339959	0.271501	0.900397
57092	4.307119	-0.949292	9.301541	0.006741	0.007301	0.005417	0.815588	-0.391642	0.425949	0.468273	0.879163	-0.088274	-0.339907	0.271456	0.900430
57093	4.314639	-0.998132	9.269177	0.006654	0.009112	0.001167	0.815596	-0.391672	0.425906	0.468277	0.879165	-0.088235	-0.339882	0.271406	0.900455
57094	4.319865	-0.974220	9.272084	0.003299	0.007719	0.002417	0.815617	-0.391701	0.425839	0.468288	0.879158	-0.088242	-0.339815	0.271387	0.900486
57095	4.252145	-0.960468	9.307711	0.004671	0.001349	0.001928	0.815603	-0.391703	0.425864	0.468292	0.879158	-0.088224	-0.339844	0.271385	0.900475
57096	4.252189	-0.960135	9.307725	0.004168	-0.002650	0.001720	0.815582	-0.391719	0.425891	0.468316	0.879146	-0.088221	-0.339862	0.271403	0.900463
57097	4.322895	-0.976603	9.296200	0.003748	-0.004744	-0.000560	0.815535	-0.391726	0.425974	0.468344	0.879133	-0.088201	-0.339937	0.271433	0.900426
57098	4.323278	-0.945957	9.250510	0.006938	-0.007160	0.002337	0.815508	-0.391711	0.426039	0.468338	0.879139	-0.088174	-0.340009	0.271437	0.900398
57099	4.326995	-0.948847	9.274251	0.004813	-0.006787	0.002513	0.815469	-0.391686	0.426137	0.468337	0.879141	-0.088157	-0.340105	0.271465	0.900353
57100	4.333240	-0.894984	9.231087	0.001065	-0.002043	0.003074	0.815459	-0.391684	0.426157	0.468352	0.879130	-0.088187	-0.340106	0.271504	0.900341
57101	4.357150	-0.930614	9.272649	0.005064	-0.004787	0.002617	0.815427	-0.391663	0.426237	0.468349	0.879133	-0.088169	-0.340187	0.271523	0.900304
57102	4.304490	-0.942773	9.277662	0.002381	-0.002086	0.006251	0.815437	-0.391621	0.426257	0.468322	0.879145	-0.088199	-0.340201	0.271546	0.900292
57103	4.331023	-0.951597	9.297863	0.004840	0.001444	0.004105	0.815433	-0.391604	0.426280	0.468307	0.879153	-0.088189	-0.340230	0.271543	0.900282
57104	4.298361	-0.965925	9.275263	0.004589	-0.000555	0.004001	0.815435	-0.391594	0.426287	0.468299	0.879158	-0.088191	-0.340239	0.271544	0.900279
57105	4.345356	-0.977006	9.267625	0.002212	-0.002181	0.004074	0.815418	-0.391567	0.426343	0.468294	0.879159	-0.088204	-0.340285	0.271577	0.900251
57106	4.295344	-0.962339	9.251265	0.003693	0.001583	0.003104	0.815436	-0.391541	0.426333	0.468264	0.879175	-0.088207	-0.340284	0.271564	0.900255
57107	4.321922	-0.970984	9.271465	0.005315	-0.002787	0.002721	0.815411	-0.391525	0.426395	0.468259	0.879179	-0.088187	-0.340350	0.271572	0.900228
57108	4.354392	-0.925830	9.248648	0.005819	0.001211	0.002928	0.815413	-0.391529	0.426388	0.468255	0.879183	-0.088173	-0.340350	0.271556	0.900233
57109	4.334080	-0.923206	9.276455	0.003021	-0.002510	0.000721	0.815380	-0.391531	0.426449	0.468274	0.879173	-0.088165	-0.340403	0.271584	0.900204
57110	4.304712	-0.940866	9.277753	0.004589	-0.000554	0.004001	0.815382	-0.391518	0.426458	0.468264	0.879179	-0.088167	-0.340414	0.271584	0.900200
57111	4.298420	-0.934068	9.229838	0.002715	0.001818	0.004281	0.815380	-0.391501	0.426477	0.468255	0.879183	-0.088177	-0.340430	0.271598	0.900190
57112	4.374513	-0.927319	9.221046	0.002967	0.003817	0.004384	0.815400	-0.391494	0.426444	0.468244	0.879187	-0.088194	-0.340397	0.271593	0.900204
57113	4.327273	-0.946215	9.274390	0.000925	0.006093	0.002487	0.815405	-0.391504	0.426427	0.468256	0.879179	-0.088212	-0.340370	0.271606	0.900210
57114	4.317389	-0.966229	9.248297	0.006995	0.009305	0.005518	0.815444	-0.391511	0.426344	0.468232	0.879193	-0.088199	-0.340308	0.271549	0.900251
57115	4.313728	-0.992642	9.270191	0.006322	0.005210	0.003135	0.815449	-0.391513	0.426334	0.468220	0.879202	-0.088171	-0.340313	0.271517	0.900258
57116	4.342566	-0.944133	9.223646	0.006322	0.005211	0.003135	0.815466	-0.391524	0.426291	0.468210	0.879209	-0.088153	-0.340284	0.271480	0.900281
57117	4.348078	-0.950182	9.271998	0.007635	0.008879	-0.000013	0.815469	-0.391563	0.426250	0.468220	0.879209	-0.088101	-0.340266	0.271422	0.900305
57118	4.297458	-0.965184	9.301523	0.006574	0.007211	0.003238	0.815491	-0.391584	0.426188	0.468215	0.879214	-0.088081	-0.340219	0.271377	0.900336
57119	4.323273	-0.943471	9.276535	0.006153	0.005115	0.000958	0.815485	-0.391605	0.426181	0.468222	0.879213	-0.088046	-0.340225	0.271347	0.900343
57120	4.352267	-0.925111	9.275492	0.005175	0.005350	0.002135	0.815498	-0.391622	0.426139	0.468222	0.879214	-0.088034	-0.340192	0.271319	0.900364
57121	4.298898	-0.936977	9.280842	0.006070	0.003213	0.003032	0.815495	-0.391620	0.426147	0.468213	0.879222	-0.088008	-0.340212	0.271298	0.900363
57122	4.304623	-0.943249	9.329063	0.004197	0.005585	0.003311	0.815519	-0.391621	0.426102	0.468199	0.879229	-0.088009	-0.340175	0.271274	0.900384
57123	4.289066	-0.986473	9.300375	0.007858	0.002647	-0.001497	0.815493	-0.391656	0.426119	0.468220	0.879224	-0.087948	-0.340208	0.271239	0.900382
57124	4.309319	-0.987909	9.272747	0.009731	0.000275	-0.001776	0.815474	-0.391689	0.426125	0.468231	0.879226	-0.087878	-0.340239	0.271186	0.900386
57125	4.335481	-0.965529	9.247673	0.013591	0.005668	-0.002819	0.815452	-0.391745	0.426116	0.468243	0.879231	-0.087760	-0.340275	0.271089	0.900402
57126	4.341207	-0.970458	9.296036	0.017505	0.004731	-0.007524	0.815416	-0.391851	0.426087	0.468287	0.879224	-0.087596	-0.340301	0.270958	0.900431
57127	4.373273	-0.923916	9.273538	0.014233	0.005242	-0.008349	0.815366	-0.391954	0.426087	0.468342	0.879209	-0.087448	-0.340344	0.270857	0.900446
57128	4.349413	-0.916544	9.277681	0.016526	0.004968	-0.006347	0.815341	-0.392039	0.426056	0.468367	0.879211	-0.087297	-0.340369	0.270727	0.900475
57129	4.369372	-0.917176	9.250276	0.014401	0.005341	-0.006172	0.815303	-0.392124	0.426052	0.468403	0.879205	-0.087157	-0.340411	0.270624	0.900490
57130	4.327692	-0.910820	9.306411	0.018122	0.015168	-0.001482	0.815325	-0.392215	0.425925	0.468407	0.879218	-0.087014	-0.340353	0.270451	0.900564
57131	4.311701	-0.953014	9.278086	0.014486	0.003539	-0.001918	0.815300	-0.392257	0.425935	0.468409	0.879229	-0.086892	-0.340410	0.270355	0.900572
57132	4.300070	-0.929184	9.332574	0.010235	0.004282	-0.001569	0.815290	-0.392309	0.425906	0.468428	0.879226	-0.086819	-0.340407	0.270289	0.900593
57133	4.311127	-0.980666	9.324213	0.012025	0.003715	-0.006098	0.815246	-0.392388	0.425917	0.468472	0.879214	-0.086701	-0.340452	0.270213	0.900599
57134	4.307831	-0.976198	9.300445	0.008669	0.002321	-0.004849	0.815214	-0.392464	0.425909	0.468524	0.879193	-0.086628	-0.340458	0.270169	0.900609
57135	4.331229	-0.980774	9.296818	0.008250	0.000223	-0.007127	0.815153	-0.392543	0.425953	0.468590	0.879167	-0.086540	-0.340513	0.270140	0.900597
57136	4.340282	-0.929234	9.277772	0.011522	-0.000283	-0.006300	0.815101	-0.392632	0.425969	0.468652	0.879144	-0.086435	-0.340551	0.270085	0.900599
57137	4.349349	-0.877564	9.258718	0.011522	-0.000283	-0.006300	0.815043	-0.392702	0.426016	0.468700	0.879130	-0.086321	-0.340625	0.270029	0.900588
57138	4.346522	-0.903205	9.280344	0.009481	-0.001716	-0.001873	0.815026	-0.392707	0.426045	0.468687	0.879143	-0.086251	-0.340683	0.269979	0.900581
57139	4.367102	-0.904567	9.252589	0.009313	-0.001814	-0.004050	0.814973	-0.392753	0.426104	0.468724	0.879132	-0.086166	-0.340760	0.269948	0.900561
57140	4.329302	-0.871867	9.286635	0.014403	0.001645	0.000158	0.814959	-0.392786	0.426100	0.468720	0.879144	-0.086063	-0.340799	0.269860	0.900573
57141	4.370022	-0.905472	9.276890	0.009984	0.002287	-0.001671	0.814931	-0.392822	0.426120	0.468735	0.879144	-0.085983	-0.340845	0.269807	0.900571
57142	4.334082	-0.915969	9.230473	0.010571	0.004486	0.002784	0.814937	-0.392846	0.426087	0.468728	0.879153	-0.085926	-0.340840	0.269743	0.900592
57143	4.304177	-0.963077	9.277746	0.009675	0.006623	0.001884	0.814940	-0.392863	0.426065	0.468716	0.879166	-0.085863	-0.340850	0.269676	0.900609
57144	4.274091	-0.980099	9.279464	0.009340	0.006425	-0.002470	0.814931	-0.392931	0.426020	0.468749	0.879155	-0.085794	-0.340826	0.269613	0.900637
57145	4.329404	-0.940123	9.253136	0.008361	0.006660	-0.001295	0.814919	-0.392976	0.426001	0.468766	0.879152	-0.085730	-0.340830	0.269558	0.900652
57146	4.317613	-0.916480	9.307623	0.010068	0.004191	-0.003746	0.814904	-0.393034	0.425977	0.468791	0.879147	-0.085648	-0.340834	0.269489	0.900671
57147	4.363982	-0.896601	9.254836	0.010319	0.006193	-0.003645	0.814879	-0.393099	0.425964	0.468821	0.879140	-0.085556	-0.340850	0.269418	0.900686
57148	4.307256	-0.904475	9.236380	0.013115	0.009926	-0.001441	0.814892	-0.393156	0.425886	0.468820	0.879150	-0.085457	-0.340820	0.269302	0.900732
57149	4.345363	-0.895109	9.307418	0.009984	0.002291	-0.001668	0.814864	-0.393192	0.425906	0.468835	0.879150	-0.085376	-0.340867	0.269250	0.900730
57150	4.335903	-0.914368	9.281296	0.011633	0.006159	-0.000466	0.814869	-0.393231	0.425862	0.468831	0.879160	-0.085294	-0.340860	0.269161	0.900759
57151	4.324207	-0.890538	9.335727	0.010964	0.002058	-0.002843	0.814835	-0.393277	0.425885	0.468853	0.879158	-0.085199	-0.340913	0.269101	0.900757
57152	4.305878	-0.930036	9.283121	0.012277	0.002024	0.000336	0.814818	-0.393321	0.425876	0.468866	0.879158	-0.085117	-0.340935	0.269034	0.900769
57153	4.279355	-0.950059	9.308636	0.012026	0.000023	0.000236	0.814791	-0.393334	0.425915	0.468859	0.879171	-0.085026	-0.341009	0.268973	0.900759
57154	4.293989	-1.004718	9.324191	0.011106	-0.002379	-0.008571	0.814724	-0.393430	0.425955	0.468933	0.879143	-0.084915	-0.341067	0.268926	0.900751
57155	4.332734	-0.935135	9.303606	0.011273	-0.002278	-0.006394	0.814658	-0.393495	0.426020	0.468982	0.879127	-0.084802	-0.341157	0.268881	0.900730
57156	4.309362	-0.898185	9.261758	0.011357	-0.000376	-0.008471	0.814598	-0.393597	0.426042	0.469055	0.879099	-0.084690	-0.341199	0.268825	0.900731
57157	4.336365	-0.905689	9.281931	0.008060	-0.008113	-0.010872	0.814491	-0.393686	0.426164	0.469152	0.879057	-0.084587	-0.341321	0.268831	0.900683
57158	4.313834	-0.928920	9.331038	0.007249	-0.007777	-0.007520	0.814407	-0.393766	0.426250	0.469240	0.879017	-0.084516	-0.341402	0.268844	0.900649
57159	4.297297	-0.898696	9.336836	0.006663	-0.009979	-0.011973	0.814289	-0.393860	0.426390	0.469350	0.878967	-0.084421	-0.341532	0.268869	0.900591
57160	4.306906	-0.947171	9.303874	0.002722	-0.013579	-0.015176	0.814150	-0.393988	0.426536	0.469511	0.878887	-0.084358	-0.341641	0.268943	0.900528
57161	4.224365	-0.833822	9.403477	0.000263	-0.017111	-0.013024	0.814002	-0.394072	0.426740	0.469652	0.878816	-0.084316	-0.341800	0.269053	0.900435
57162	4.297469	-0.880717	9.436693	-0.014996	-0.034914	-0.012971	0.813803	-0.394120	0.427076	0.469852	0.878699	-0.084421	-0.341999	0.269365	0.900266
57163	4.253975	-0.970326	9.429070	-0.018622	-0.046541	-0.013389	0.813553	-0.394127	0.427546	0.470060	0.878575	-0.084548	-0.342309	0.269757	0.900031
57164	4.285485	-0.950715	9.401176	-0.029381	-0.059358	-0.019911	0.813244	-0.394154	0.428109	0.470349	0.878402	-0.084752	-0.342646	0.270284	0.899744
57165	4.339098	-0.864378	9.403844	-0.037006	-0.068231	-0.019876	0.812888	-0.394159	0.428779	0.470673	0.878202	-0.085016	-0.343045	0.270923	0.899400
57166	4.308154	-0.805673	9.388696	-0.040628	-0.079827	-0.020290	0.812503	-0.394140	0.429525	0.471011	0.877992	-0.085319	-0.343492	0.271633	0.899015
57167	4.359659	-0.786710	9.307454	-0.041189	-0.089388	-0.012073	0.812111	-0.394018	0.430378	0.471286	0.877811	-0.085653	-0.344042	0.272391	0.898576
57168	4.406457	-0.851470	9.314583	-0.038316	-0.095644	-0.007190	0.811732	-0.393841	0.431254	0.471512	0.877657	-0.085991	-0.344627	0.273143	0.898123
57169	4.449973	-0.882629	9.251910	-0.031764	-0.096604	-0.005542	0.811344	-0.393641	0.432166	0.471702	0.877528	-0.086268	-0.345279	0.273847	0.897658
57170	4.460478	-0.928078	9.166830	-0.027564	-0.090981	-0.002241	0.811004	-0.393430	0.432996	0.471850	0.877422	-0.086530	-0.345877	0.274486	0.897233
57171	4.485725	-0.959540	9.156466	-0.023592	-0.079153	0.002534	0.810713	-0.393206	0.433744	0.471947	0.877347	-0.086769	-0.346425	0.275049	0.896849
57172	4.507582	-1.017234	9.168009	-0.014942	-0.076797	-0.002341	0.810421	-0.393033	0.434446	0.472050	0.877276	-0.086917	-0.346968	0.275520	0.896494
57173	4.461808	-1.060853	9.215759	-0.011320	-0.065180	-0.001922	0.810157	-0.392885	0.435072	0.472141	0.877217	-0.087026	-0.347461	0.275920	0.896180
57174	4.467587	-1.061764	9.212854	-0.013229	-0.059102	-0.007964	0.809889	-0.392829	0.435620	0.472306	0.877117	-0.087136	-0.347860	0.276316	0.895903
57175	4.574603	-1.004035	9.129555	-0.007186	-0.052178	-0.011288	0.809626	-0.392799	0.436136	0.472458	0.877032	-0.087167	-0.348266	0.276629	0.895649
57176	4.579593	-0.904156	9.140912	-0.000539	-0.043077	-0.010164	0.809400	-0.392813	0.436543	0.472604	0.876954	-0.087154	-0.348593	0.276855	0.895452
57177	4.546396	-0.885036	9.047340	0.002037	-0.033154	-0.006495	0.809225	-0.392793	0.436885	0.472686	0.876914	-0.087123	-0.348889	0.277012	0.895288
57178	4.505463	-0.776719	9.091950	0.013018	-0.012104	0.003736	0.809181	-0.392751	0.437003	0.472650	0.876941	-0.087048	-0.349038	0.276987	0.895238
57179	4.420945	-0.803208	9.074808	0.006573	-0.012899	0.006370	0.809138	-0.392674	0.437153	0.472611	0.876963	-0.087033	-0.349191	0.277025	0.895166
57180	4.446666	-0.868639	9.161449	0.009735	-0.008998	0.012909	0.809150	-0.392558	0.437234	0.472510	0.877018	-0.087026	-0.349299	0.277015	0.895127
57181	4.481989	-0.926832	9.148414	0.005189	-0.003955	0.016835	0.809187	-0.392415	0.437294	0.472391	0.877078	-0.087069	-0.349374	0.277029	0.895094
57182	4.466480	-0.970924	9.119749	0.005034	0.004146	0.016236	0.809258	-0.392311	0.437257	0.472286	0.877129	-0.087120	-0.349353	0.277013	0.895107
57183	4.446221	-0.999152	9.193652	0.001532	0.010855	0.016904	0.809347	-0.392208	0.437184	0.472180	0.877179	-0.087196	-0.349290	0.277001	0.895135
57184	4.436292	-1.050102	9.213397	0.000450	0.012888	0.013832	0.809443	-0.392139	0.437069	0.472098	0.877215	-0.087276	-0.349180	0.276984	0.895183
57185	4.431733	-1.047402	9.189959	-0.001132	0.010939	0.010563	0.809502	-0.392092	0.437002	0.472052	0.877233	-0.087348	-0.349104	0.276996	0.895209
57186	4.430135	-1.048153	9.190644	-0.006617	0.021808	0.007263	0.809599	-0.392101	0.436814	0.472044	0.877225	-0.087463	-0.348890	0.277005	0.895290
57187	4.438399	-0.928736	9.231286	-0.003832	0.014717	-0.002108	0.809612	-0.392176	0.436723	0.472110	0.877186	-0.087504	-0.348770	0.277026	0.895330
57188	4.408853	-0.877260	9.292633	0.001133	0.014365	0.006225	0.809672	-0.392185	0.436602	0.472096	0.877189	-0.087546	-0.348649	0.277002	0.895385
57189	4.386933	-0.845012	9.275608	0.000455	0.010287	0.003851	0.809698	-0.392195	0.436546	0.472099	0.877185	-0.087574	-0.348585	0.277002	0.895410
57190	4.363625	-0.869464	9.325399	0.005938	-0.000584	0.007153	0.809720	-0.392134	0.436559	0.472038	0.877217	-0.087576	-0.348616	0.276984	0.895403
57191	4.389566	-0.947786	9.286080	0.004688	-0.010543	0.006658	0.809686	-0.392062	0.436687	0.472004	0.877236	-0.087579	-0.348741	0.277029	0.895340
57192	4.393369	-0.920817	9.263990	0.005340	-0.014661	0.007456	0.809661	-0.391959	0.436825	0.471942	0.877268	-0.087586	-0.348883	0.277071	0.895272
57193	4.388213	-0.914025	9.215377	0.006965	-0.019011	0.007074	0.809600	-0.391860	0.437029	0.471896	0.877294	-0.087571	-0.349087	0.277129	0.895175
57194	4.406244	-0.900237	9.288689	0.000563	-0.026103	0.006055	0.809527	-0.391738	0.437272	0.471864	0.877307	-0.087615	-0.349300	0.277260	0.895051
57195	4.428121	-0.872782	9.213966	0.000672	-0.027898	0.010309	0.809450	-0.391585	0.437552	0.471814	0.877329	-0.087670	-0.349547	0.277407	0.894909
57196	4.421851	-0.923666	9.231956	-0.001273	-0.027430	0.012671	0.809397	-0.391417	0.437800	0.471749	0.877354	-0.087761	-0.349754	0.277565	0.894779
57197	4.418063	-0.947792	9.228450	0.000201	-0.023677	0.011688	0.809341	-0.391264	0.438041	0.471690	0.877380	-0.087826	-0.349965	0.277700	0.894655
57198	4.461189	-0.983249	9.216807	-0.006133	-0.028870	0.008596	0.809262	-0.391133	0.438304	0.471682	0.877372	-0.087942	-0.350159	0.277909	0.894514
57199	4.506313	-0.961871	9.137989	-0.003437	-0.023360	0.006529	0.809182	-0.391026	0.438547	0.471677	0.877367	-0.088018	-0.350349	0.278075	0.894388
57200	4.517331	-0.942202	9.163458	-0.003336	-0.013272	0.006026	0.809141	-0.390967	0.438674	0.471689	0.877353	-0.088099	-0.350429	0.278202	0.894317
57201	4.515005	-0.939546	9.138924	-0.001570	-0.011224	0.011471	0.809128	-0.390850	0.438804	0.471637	0.877373	-0.088179	-0.350530	0.278304	0.894246
57202	4.509594	-0.963320	9.136218	0.005444	-0.004563	0.006950	0.809128	-0.390795	0.438852	0.471596	0.877395	-0.088184	-0.350585	0.278313	0.894222
57203	4.523413	-0.988788	9.105967	0.011380	0.006737	0.009341	0.809167	-0.390747	0.438823	0.471516	0.877442	-0.088139	-0.350602	0.278231	0.894240
57204	4.475905	-1.007065	9.160365	0.011013	0.021037	0.010216	0.809269	-0.390740	0.438641	0.471436	0.877488	-0.088110	-0.350474	0.278096	0.894332
57205	4.459826	-0.980505	9.191825	0.010721	0.022738	0.003787	0.809338	-0.390785	0.438474	0.471403	0.877512	-0.088047	-0.350359	0.277957	0.894421
57206	4.464495	-0.986262	9.240817	0.009318	0.020886	0.002695	0.809411	-0.390829	0.438300	0.471373	0.877533	-0.087998	-0.350230	0.277830	0.894511
57207	4.441827	-0.953107	9.224277	0.009318	0.020888	0.002695	0.809468	-0.390878	0.438150	0.471355	0.877548	-0.087943	-0.350123	0.277711	0.894589
57208	4.439890	-0.952327	9.225290	0.009137	0.020793	0.000520	0.809532	-0.390937	0.437979	0.471339	0.877562	-0.087886	-0.349996	0.277583	0.894679
57209	4.441364	-0.954920	9.250220	0.006942	0.019270	0.002784	0.809584	-0.390981	0.437844	0.471328	0.877572	-0.087852	-0.349891	0.277492	0.894749
57210	4.410119	-0.972207	9.252800	0.007734	0.018941	-0.000573	0.809630	-0.391059	0.437689	0.471341	0.877569	-0.087804	-0.349766	0.277390	0.894829
57211	4.433962	-0.920394	9.182470	0.005538	0.017418	0.001691	0.809671	-0.391108	0.437571	0.471344	0.877570	-0.087778	-0.349669	0.277318	0.894889
57212	4.465172	-0.905158	9.205604	0.007484	0.016953	-0.000670	0.809703	-0.391193	0.437435	0.471374	0.877559	-0.087733	-0.349554	0.277233	0.894960
57213	4.440190	-0.898768	9.210446	0.011119	0.016647	0.004493	0.809754	-0.391215	0.437321	0.471334	0.877587	-0.087669	-0.349490	0.277115	0.895022
57214	4.435374	-0.894803	9.187270	0.008743	0.015025	0.004580	0.809807	-0.391242	0.437199	0.471309	0.877603	-0.087636	-0.349400	0.277023	0.895085
57215	4.380953	-0.906586	9.193702	0.006870	0.017387	0.004863	0.809862	-0.391262	0.437078	0.471281	0.877621	-0.087611	-0.349310	0.276940	0.895146
57216	4.378260	-0.863400	9.274960	0.003918	0.009888	0.006833	0.809914	-0.391244	0.436999	0.471242	0.877640	-0.087629	-0.349243	0.276905	0.895183
57217	4.459004	-0.933098	9.254656	0.000318	0.006506	0.008002	0.809946	-0.391207	0.436973	0.471212	0.877651	-0.087677	-0.349210	0.276921	0.895191
57218	4.387590	-1.016215	9.253371	-0.000973	0.000234	0.001180	0.809925	-0.391236	0.436985	0.471262	0.877621	-0.087716	-0.349189	0.276978	0.895181
57219	4.417198	-0.998571	9.251640	-0.003601	-0.003382	0.001169	0.809890	-0.391231	0.437054	0.471301	0.877594	-0.087770	-0.349218	0.277068	0.895143
57220	4.442847	-0.947697	9.180396	-0.003025	0.002496	-0.000714	0.809888	-0.391241	0.437048	0.471328	0.877575	-0.087816	-0.349186	0.277115	0.895141
57221	4.489756	-0.959122	9.172356	-0.001655	-0.003849	-0.001192	0.809841	-0.391256	0.437123	0.471379	0.877545	-0.087842	-0.349227	0.277189	0.895102
57222	4.482106	-0.909819	9.204847	-0.001476	-0.003750	0.000985	0.809820	-0.391245	0.437172	0.471399	0.877530	-0.087882	-0.349248	0.277251	0.895074
57223	4.456093	-0.931107	9.230368	0.000179	0.000099	0.002176	0.809802	-0.391241	0.437208	0.471417	0.877518	-0.087906	-0.349266	0.277294	0.895054
57224	4.449248	-0.924738	9.182527	-0.000291	0.004317	0.003552	0.809812	-0.391248	0.437184	0.471433	0.877506	-0.087949	-0.349221	0.277325	0.895062
57225	4.518907	-0.941716	9.170827	0.001185	0.008067	0.002568	0.809824	-0.391263	0.437148	0.471444	0.877498	-0.087965	-0.349179	0.277327	0.895077
57226	4.458246	-0.947511	9.129079	0.003701	0.016099	0.008308	0.809907	-0.391242	0.437014	0.471386	0.877526	-0.087992	-0.349065	0.277267	0.895141
57227	4.479937	-0.952782	9.125974	0.007992	0.020944	-0.000471	0.809949	-0.391319	0.436866	0.471398	0.877526	-0.087934	-0.348951	0.277159	0.895218
57228	4.504312	-0.961157	9.147167	0.005106	0.029853	0.004641	0.810058	-0.391378	0.436611	0.471375	0.877538	-0.087932	-0.348728	0.277038	0.895343
57229	4.477874	-0.955066	9.152671	0.008960	0.035233	0.003573	0.810169	-0.391459	0.436332	0.471351	0.877556	-0.087883	-0.348503	0.276866	0.895484
57230	4.428003	-0.973030	9.207990	0.011841	0.040850	0.003685	0.810306	-0.391568	0.435980	0.471325	0.877576	-0.087818	-0.348219	0.276648	0.895661
57231	4.433526	-0.951873	9.236241	0.009540	0.041127	0.001693	0.810429	-0.391682	0.435650	0.471314	0.877589	-0.087756	-0.347949	0.276448	0.895828
57232	4.419039	-0.928397	9.292319	0.009036	0.037147	0.001498	0.810544	-0.391796	0.435333	0.471312	0.877595	-0.087706	-0.347683	0.276267	0.895987
57233	4.423237	-0.946907	9.215817	0.012136	0.036549	0.000138	0.810643	-0.391911	0.435045	0.471305	0.877608	-0.087614	-0.347462	0.276062	0.896136
57234	4.406067	-0.920102	9.247625	0.006879	0.029315	0.000110	0.810724	-0.392016	0.434799	0.471322	0.877602	-0.087577	-0.347249	0.275931	0.896259
57235	4.426399	-0.925109	9.245247	0.008062	0.037399	0.002680	0.810838	-0.392111	0.434501	0.471308	0.877614	-0.087533	-0.347002	0.275759	0.896408
57236	4.443530	-0.926723	9.218907	0.011305	0.028686	0.001927	0.810930	-0.392188	0.434259	0.471285	0.877633	-0.087463	-0.346818	0.275587	0.896532
57237	4.434053	-0.919313	9.172500	0.012488	0.036773	0.004497	0.811050	-0.392265	0.433965	0.471241	0.877665	-0.087387	-0.346597	0.275377	0.896682
57238	4.434142	-0.951393	9.243897	0.015841	0.038171	0.003238	0.811176	-0.392367	0.433637	0.471202	0.877696	-0.087283	-0.346355	0.275133	0.896850
57239	4.407225	-0.944479	9.249578	0.015763	0.036283	0.005318	0.811299	-0.392435	0.433347	0.471140	0.877739	-0.087181	-0.346153	0.274897	0.897001
57240	4.357528	-0.962099	9.304557	0.011733	0.030803	0.004206	0.811413	-0.392487	0.433085	0.471085	0.877775	-0.087117	-0.345959	0.274708	0.897133
57241	4.348370	-0.954667	9.257987	0.013606	0.028442	0.003930	0.811502	-0.392546	0.432866	0.471042	0.877807	-0.087028	-0.345810	0.274522	0.897247
57242	4.378574	-0.939342	9.281696	0.004349	0.023931	0.004350	0.811583	-0.392600	0.432664	0.471035	0.877810	-0.087032	-0.345628	0.274434	0.897345
57243	4.332946	-0.930917	9.314335	0.002901	0.017536	-0.004650	0.811593	-0.392704	0.432550	0.471099	0.877779	-0.087002	-0.345517	0.274384	0.897402
57244	4.401407	-0.917760	9.257902	-0.001084	0.016582	0.002139	0.811645	-0.392745	0.432417	0.471115	0.877766	-0.087045	-0.345374	0.274368	0.897462
57245	4.379781	-0.915405	9.286374	0.001686	0.012086	0.002765	0.811671	-0.392769	0.432345	0.471123	0.877761	-0.087058	-0.345302	0.274350	0.897496
57246	4.341154	-0.883835	9.320857	-0.001116	0.008359	0.000570	0.811685	-0.392804	0.432288	0.471155	0.877740	-0.087094	-0.345225	0.274368	0.897520
57247	4.384806	-0.922060	9.334951	-0.001057	-0.001661	0.003256	0.811666	-0.392786	0.432339	0.471168	0.877729	-0.087134	-0.345252	0.274428	0.897491
57248	4.378781	-0.915999	9.286788	-0.003686	-0.005286	0.003237	0.811658	-0.392734	0.432402	0.471160	0.877727	-0.087203	-0.345283	0.274510	0.897454
57249	4.416900	-0.948100	9.252486	-0.003686	-0.005286	0.003237	0.811626	-0.392706	0.432486	0.471182	0.877709	-0.087266	-0.345327	0.274607	0.897407
57250	4.411384	-0.942356	9.204042	-0.009119	-0.012638	0.001024	0.811567	-0.392685	0.432617	0.471245	0.877664	-0.087377	-0.345380	0.274780	0.897334
57251	4.455794	-0.951092	9.171948	-0.000964	-0.003455	0.007511	0.811562	-0.392625	0.432681	0.471223	0.877670	-0.087434	-0.345422	0.274847	0.897297
57252	4.441567	-0.925480	9.202117	-0.000379	0.002436	0.005629	0.811569	-0.392621	0.432672	0.471236	0.877658	-0.087487	-0.345388	0.274892	0.897297
57253	4.452261	-0.948465	9.148073	-0.000299	0.004331	0.003550	0.811572	-0.392617	0.432669	0.471244	0.877650	-0.087521	-0.345370	0.274922	0.897295
57254	4.434463	-0.949240	9.200241	0.004882	0.009686	0.005666	0.811616	-0.392607	0.432596	0.471210	0.877668	-0.087525	-0.345312	0.274881	0.897330
57255	4.424217	-0.969308	9.174409	0.004962	0.011583	0.003588	0.811645	-0.392623	0.432528	0.471199	0.877675	-0.087513	-0.345259	0.274836	0.897363
57256	4.419967	-0.995587	9.196745	0.007673	0.017105	0.001528	0.811675	-0.392710	0.432391	0.471235	0.877659	-0.087476	-0.345139	0.274760	0.897433
57257	4.407055	-0.942270	9.206124	0.007845	0.017208	0.003705	0.811724	-0.392740	0.432273	0.471213	0.877674	-0.087438	-0.345054	0.274668	0.897494
57258	4.381902	-0.965785	9.256603	0.010637	0.024628	-0.000433	0.811790	-0.392826	0.432071	0.471212	0.877683	-0.087365	-0.344902	0.274518	0.897598
57259	4.392141	-0.917717	9.262306	0.009455	0.016537	-0.003002	0.811804	-0.392913	0.431964	0.471239	0.877676	-0.087283	-0.344830	0.274415	0.897657
57260	4.407766	-0.946102	9.257045	0.008350	0.021211	0.003902	0.811878	-0.392954	0.431789	0.471211	0.877694	-0.087249	-0.344694	0.274299	0.897745
57261	4.414774	-0.895224	9.238755	0.007031	0.021244	0.000725	0.811926	-0.393021	0.431637	0.471217	0.877696	-0.087205	-0.344573	0.274199	0.897822
57262	4.372330	-0.889822	9.295288	0.005719	0.017587	0.003883	0.811983	-0.393061	0.431495	0.471209	0.877701	-0.087194	-0.344450	0.274125	0.897892
57263	4.361494	-0.909657	9.269761	0.008992	0.017086	0.004708	0.812035	-0.393082	0.431376	0.471176	0.877723	-0.087150	-0.344372	0.274023	0.897953
57264	4.324684	-0.950398	9.269513	0.008958	0.008856	0.003140	0.812061	-0.393098	0.431313	0.471156	0.877738	-0.087107	-0.344338	0.273952	0.897987
57265	4.373892	-0.964441	9.286337	0.004455	0.007596	0.003394	0.812075	-0.393104	0.431281	0.471148	0.877743	-0.087098	-0.344316	0.273928	0.898004
57266	4.417091	-0.972430	9.255023	0.001824	0.003968	0.003373	0.812080	-0.393116	0.431261	0.471164	0.877733	-0.087121	-0.344283	0.273944	0.898011
57267	4.419691	-0.945499	9.233555	0.003609	0.003393	-0.001156	0.812058	-0.393151	0.431271	0.471196	0.877717	-0.087099	-0.344291	0.273943	0.898008
57268	4.383504	-0.956370	9.187278	0.008365	0.006652	-0.001311	0.812056	-0.393196	0.431233	0.471211	0.877715	-0.087043	-0.344274	0.273885	0.898032
57269	4.384064	-0.915974	9.292094	0.000759	0.005998	0.000293	0.812050	-0.393225	0.431218	0.471242	0.877697	-0.087053	-0.344247	0.273899	0.898038
57270	4.394587	-0.938584	9.238270	0.004285	0.007495	0.001217	0.812057	-0.393264	0.431169	0.471264	0.877687	-0.087045	-0.344200	0.273880	0.898063
57271	4.382648	-0.885592	9.247072	0.003054	0.005732	0.002295	0.812060	-0.393274	0.431155	0.471270	0.877683	-0.087043	-0.344186	0.273875	0.898069
57272	4.385468	-0.888702	9.271221	0.001318	-0.000030	0.003178	0.812046	-0.393282	0.431173	0.471295	0.877667	-0.087070	-0.344183	0.273915	0.898058
57273	4.379271	-0.912219	9.268941	0.004036	0.001807	0.007455	0.812059	-0.393237	0.431190	0.471256	0.877687	-0.087082	-0.344205	0.273917	0.898049
57274	4.379362	-0.912018	9.268917	0.005062	-0.004767	0.002633	0.812029	-0.393232	0.431250	0.471268	0.877682	-0.087073	-0.344261	0.273940	0.898021
57275	4.393810	-0.937839	9.238715	0.003783	-0.000192	0.007357	0.812035	-0.393182	0.431285	0.471230	0.877700	-0.087087	-0.344298	0.273952	0.898003
57276	4.408349	-0.993816	9.254182	0.000982	-0.003925	0.005160	0.812021	-0.393157	0.431335	0.471234	0.877695	-0.087125	-0.344327	0.274007	0.897975
57277	4.408270	-0.963874	9.208485	0.003696	0.001600	0.003101	0.812012	-0.393149	0.431358	0.471232	0.877696	-0.087121	-0.344349	0.274013	0.897965
57278	4.387666	-0.961206	9.236427	0.002802	0.003733	0.002197	0.812018	-0.393155	0.431341	0.471236	0.877693	-0.087129	-0.344330	0.274014	0.897972
57279	4.393576	-0.937461	9.238865	0.003273	-0.000502	0.000826	0.811992	-0.393162	0.431384	0.471254	0.877685	-0.087119	-0.344367	0.274032	0.897952
57280	4.376168	-0.907940	9.245041	0.003356	0.001393	-0.001254	0.811968	-0.393201	0.431394	0.471295	0.877664	-0.087108	-0.344367	0.274043	0.897948
57281	4.352825	-0.902182	9.248791	-0.000166	-0.003791	0.004159	0.811946	-0.393169	0.431464	0.471297	0.877659	-0.087144	-0.344415	0.274104	0.897911
57282	4.332894	-0.899994	9.276366	-0.003863	-0.005392	0.001059	0.811911	-0.393170	0.431530	0.471344	0.877627	-0.087207	-0.344436	0.274204	0.897873
57283	4.383770	-0.914809	9.292348	-0.000455	-0.014024	0.002496	0.811846	-0.393125	0.431694	0.471361	0.877615	-0.087238	-0.344565	0.274308	0.897792
57284	4.355276	-0.933206	9.293269	-0.008449	-0.008546	0.003392	0.811814	-0.393086	0.431788	0.471395	0.877586	-0.087352	-0.344594	0.274456	0.897735
57285	4.400282	-0.942309	9.260992	-0.009887	-0.018644	0.000728	0.811725	-0.393044	0.431994	0.471458	0.877541	-0.087460	-0.344717	0.274661	0.897626
57286	4.442512	-0.948324	9.204517	-0.010440	-0.016303	0.004179	0.811678	-0.392962	0.432157	0.471476	0.877518	-0.087595	-0.344804	0.274850	0.897534
57287	4.400257	-0.941140	9.235311	-0.007337	-0.016908	0.002827	0.811604	-0.392906	0.432346	0.471514	0.877488	-0.087689	-0.344925	0.275026	0.897434
57288	4.445360	-0.920145	9.157216	-0.006189	-0.017040	0.003828	0.811548	-0.392834	0.432517	0.471529	0.877470	-0.087785	-0.345036	0.275186	0.897342
57289	4.437539	-0.970826	9.175904	0.000052	-0.010022	0.002689	0.811498	-0.392798	0.432644	0.471543	0.877460	-0.087812	-0.345136	0.275269	0.897278
57290	4.484777	-0.952629	9.122307	-0.003095	-0.003080	0.007689	0.811507	-0.392734	0.432685	0.471520	0.877464	-0.087896	-0.345146	0.275348	0.897250
57291	4.461448	-0.977078	9.171797	0.003952	0.003597	0.003196	0.811506	-0.392731	0.432689	0.471516	0.877467	-0.087890	-0.345153	0.275343	0.897249
57292	4.443839	-0.977523	9.223855	0.004034	0.005492	0.001117	0.811514	-0.392748	0.432659	0.471521	0.877465	-0.087882	-0.345127	0.275325	0.897264
57293	4.442597	-0.947100	9.178761	0.010149	0.016950	0.005704	0.811571	-0.392760	0.432541	0.471475	0.877495	-0.087832	-0.345056	0.275214	0.897326
57294	4.434900	-0.969980	9.177269	0.009001	0.017085	0.004704	0.811639	-0.392769	0.432406	0.471426	0.877525	-0.087795	-0.344964	0.275105	0.897395
57295	4.425129	-0.949636	9.256352	0.010485	0.020847	0.003723	0.811700	-0.392809	0.432255	0.471395	0.877548	-0.087733	-0.344862	0.274975	0.897474
57296	4.423180	-0.948758	9.257373	0.011463	0.020613	0.002547	0.811771	-0.392846	0.432088	0.471353	0.877577	-0.087664	-0.344752	0.274829	0.897560
57297	4.380457	-0.912939	9.268309	0.010315	0.020748	0.001546	0.811821	-0.392904	0.431940	0.471341	0.877591	-0.087594	-0.344651	0.274701	0.897639
57298	4.345917	-0.926999	9.246717	0.006152	0.019700	0.006154	0.811907	-0.392904	0.431779	0.471285	0.877621	-0.087588	-0.344525	0.274604	0.897716
57299	4.336411	-0.906888	9.325581	0.006921	0.011124	0.001236	0.811923	-0.392939	0.431718	0.471287	0.877624	-0.087547	-0.344486	0.274544	0.897750
57300	4.309166	-0.897605	9.305724	0.003950	0.003601	0.003198	0.811935	-0.392930	0.431704	0.471272	0.877632	-0.087549	-0.344476	0.274534	0.897757
57301	4.346738	-0.929306	9.271882	0.000086	-0.001790	0.004257	0.811920	-0.392902	0.431755	0.471273	0.877628	-0.087582	-0.344509	0.274584	0.897729
57302	4.399999	-0.917462	9.266484	-0.002547	-0.005419	0.004237	0.811893	-0.392887	0.431820	0.471303	0.877605	-0.087648	-0.344532	0.274679	0.897691
57303	4.408541	-0.967367	9.233813	-0.001316	-0.003657	0.003159	0.811867	-0.392864	0.431890	0.471318	0.877593	-0.087689	-0.344574	0.274750	0.897653
57304	4.385502	-0.961975	9.237375	-0.002717	-0.005523	0.002060	0.811845	-0.392834	0.431959	0.471329	0.877582	-0.087746	-0.344610	0.274831	0.897615
57305	4.398437	-0.915394	9.241635	-0.005604	-0.011151	0.001943	0.811788	-0.392802	0.432097	0.471369	0.877553	-0.087820	-0.344692	0.274969	0.897541
57306	4.422738	-0.921437	9.237401	0.000302	-0.008025	0.002789	0.811756	-0.392770	0.432186	0.471376	0.877546	-0.087853	-0.344757	0.275037	0.897495
57307	4.414276	-0.942229	9.210664	-0.006157	-0.008809	0.005394	0.811722	-0.392713	0.432300	0.471389	0.877529	-0.087947	-0.344818	0.275170	0.897431
57308	4.380441	-0.914175	9.268195	0.000472	-0.007920	0.004966	0.811705	-0.392654	0.432387	0.471369	0.877536	-0.087987	-0.344887	0.275234	0.897385
57309	4.381370	-0.914645	9.267709	-0.006836	-0.012910	0.003023	0.811646	-0.392607	0.432540	0.471404	0.877508	-0.088078	-0.344977	0.275389	0.897302
57310	4.393796	-0.968056	9.258616	-0.004711	-0.013280	0.002848	0.811605	-0.392541	0.432677	0.471407	0.877499	-0.088154	-0.345069	0.275513	0.897229
57311	4.424697	-0.950912	9.256427	-0.007345	-0.016905	0.002829	0.811532	-0.392484	0.432865	0.471445	0.877469	-0.088248	-0.345190	0.275689	0.897129
57312	4.472864	-0.933164	9.202375	-0.005942	-0.015039	0.003927	0.811483	-0.392416	0.433019	0.471459	0.877452	-0.088342	-0.345287	0.275838	0.897045
57313	4.470883	-0.930775	9.177736	-0.007558	-0.010670	0.004298	0.811438	-0.392364	0.433150	0.471485	0.877428	-0.088444	-0.345356	0.275991	0.896972
57314	4.471233	-0.901507	9.131760	-0.000717	-0.001447	0.007611	0.811432	-0.392347	0.433177	0.471501	0.877413	-0.088509	-0.345349	0.276062	0.896952
57315	4.512221	-0.966653	9.167397	0.001408	-0.001818	0.007435	0.811432	-0.392292	0.433226	0.471471	0.877425	-0.088545	-0.345388	0.276102	0.896925
57316	4.443599	-1.022594	9.144168	0.004462	0.007594	0.003391	0.811453	-0.392301	0.433178	0.471464	0.877429	-0.088543	-0.345347	0.276077	0.896949
57317	4.460947	-0.981651	9.197414	0.006800	0.015560	0.006959	0.811512	-0.392298	0.433072	0.471420	0.877454	-0.088528	-0.345271	0.276000	0.897001
57318	4.436047	-0.975549	9.201972	0.006458	0.015352	0.002605	0.811556	-0.392336	0.432954	0.471413	0.877460	-0.088505	-0.345176	0.275928	0.897060
57319	4.417041	-0.945670	9.208985	0.009176	0.020874	0.000544	0.811602	-0.392404	0.432806	0.471413	0.877467	-0.088441	-0.345068	0.275810	0.897138
57320	4.400975	-0.918857	9.240083	0.009092	0.018982	0.002624	0.811679	-0.392410	0.432656	0.471351	0.877505	-0.088392	-0.344972	0.275679	0.897216
57321	4.376037	-0.942409	9.290380	0.007606	0.015224	0.003606	0.811720	-0.392436	0.432555	0.471331	0.877520	-0.088356	-0.344902	0.275597	0.897268
57322	4.366737	-0.892423	9.323436	0.004717	0.009598	0.003490	0.811745	-0.392457	0.432490	0.471330	0.877520	-0.088353	-0.344844	0.275565	0.897300
57323	4.376917	-0.915103	9.269768	0.002592	0.009969	0.003665	0.811769	-0.392467	0.432436	0.471327	0.877521	-0.088361	-0.344793	0.275548	0.897324
57324	4.419992	-0.923331	9.238526	0.001998	0.004077	0.005551	0.811791	-0.392441	0.432418	0.471305	0.877530	-0.088391	-0.344772	0.275555	0.897330
57325	4.413463	-0.917004	9.190669	0.002890	0.001945	0.006455	0.811800	-0.392405	0.432435	0.471278	0.877543	-0.088409	-0.344788	0.275567	0.897321
57326	4.403911	-0.967260	9.210216	0.002253	0.006077	0.005648	0.811835	-0.392373	0.432397	0.471241	0.877560	-0.088435	-0.344755	0.275558	0.897336
57327	4.412353	-0.946771	9.236934	0.005865	0.009467	0.004492	0.811860	-0.392375	0.432348	0.471220	0.877573	-0.088418	-0.344724	0.275514	0.897361
57328	4.425722	-0.972637	9.207251	0.003655	0.007945	0.006747	0.811903	-0.392347	0.432293	0.471179	0.877593	-0.088437	-0.344679	0.275490	0.897386
57329	4.427865	-0.975556	9.231741	0.008415	0.011202	0.006592	0.811944	-0.392335	0.432226	0.471133	0.877621	-0.088406	-0.344646	0.275417	0.897421
57330	4.423695	-0.971883	9.208305	0.007098	0.011230	0.003413	0.811968	-0.392376	0.432145	0.471140	0.877619	-0.088382	-0.344580	0.275364	0.897463
57331	4.375779	-0.959835	9.216406	0.009223	0.010860	0.003239	0.811992	-0.392392	0.432084	0.471117	0.877637	-0.088329	-0.344553	0.275285	0.897497
57332	4.430516	-0.950299	9.235912	0.007864	0.017232	0.003705	0.812058	-0.392404	0.431950	0.471073	0.877664	-0.088297	-0.344458	0.275182	0.897565
57333	4.405731	-0.944104	9.240367	0.004804	0.011498	0.001410	0.812076	-0.392439	0.431885	0.471081	0.877662	-0.088276	-0.344406	0.275139	0.897598
57334	4.390304	-0.917710	9.271056	0.004081	0.013737	0.002683	0.812109	-0.392485	0.431780	0.471095	0.877654	-0.088275	-0.344307	0.275099	0.897649
57335	4.379988	-0.937827	9.245277	0.004887	0.009712	0.005669	0.812141	-0.392477	0.431727	0.471068	0.877669	-0.088272	-0.344269	0.275062	0.897675
57336	4.411737	-0.923082	9.268288	0.003654	0.007951	0.006747	0.812174	-0.392469	0.431674	0.471050	0.877677	-0.088292	-0.344218	0.275049	0.897698
57337	4.402060	-0.943309	9.242198	0.003696	0.001604	0.003103	0.812165	-0.392461	0.431696	0.471048	0.877678	-0.088289	-0.344240	0.275054	0.897688
57338	4.392326	-0.963354	9.216155	0.007012	0.009342	0.005496	0.812198	-0.392466	0.431631	0.471026	0.877692	-0.088274	-0.344194	0.275005	0.897721
57339	4.420880	-0.975005	9.260959	0.007268	0.011343	0.005593	0.812235	-0.392464	0.431563	0.470991	0.877713	-0.088248	-0.344154	0.274941	0.897756
57340	4.390588	-0.962616	9.217060	0.003952	0.003605	0.003201	0.812249	-0.392448	0.431552	0.470970	0.877724	-0.088249	-0.344150	0.274929	0.897761
57341	4.396181	-0.938783	9.219665	0.005441	0.007368	0.002219	0.812256	-0.392464	0.431523	0.470969	0.877727	-0.088226	-0.344134	0.274896	0.897777
57342	4.401672	-0.944817	9.268022	0.003061	0.005739	0.002295	0.812270	-0.392467	0.431493	0.470965	0.877728	-0.088232	-0.344106	0.274886	0.897791
57343	4.407320	-0.921196	9.270577	0.001827	0.003977	0.003374	0.812271	-0.392464	0.431494	0.470967	0.877726	-0.088246	-0.344100	0.274899	0.897789
57344	4.414973	-0.970644	9.238431	0.005354	0.005475	0.004300	0.812305	-0.392428	0.431464	0.470915	0.877754	-0.088238	-0.344093	0.274859	0.897804
57345	4.417391	-0.943690	9.217075	0.005778	0.007584	0.006575	0.812333	-0.392406	0.431430	0.470878	0.877775	-0.088230	-0.344077	0.274823	0.897822
57346	4.416734	-0.943509	9.217408	0.001914	0.005871	0.001293	0.812362	-0.392380	0.431400	0.470843	0.877793	-0.088240	-0.344056	0.274804	0.897835
57347	4.415982	-0.943350	9.217785	0.004887	0.009718	0.005669	0.812394	-0.392372	0.431347	0.470816	0.877808	-0.088236	-0.344019	0.274768	0.897861
57348	4.421239	-0.949374	9.266249	0.006757	0.007346	0.005400	0.812417	-0.392374	0.431301	0.470798	0.877819	-0.088223	-0.343988	0.274729	0.897884
57349	4.393967	-0.939935	9.246392	0.008969	0.008868	0.003147	0.812434	-0.392386	0.431258	0.470777	0.877835	-0.088172	-0.343976	0.274660	0.897910
57350	4.352394	-0.934250	9.302303	0.005610	0.007479	0.004398	0.812461	-0.392383	0.431211	0.470754	0.877848	-0.088164	-0.343944	0.274624	0.897933
57351	4.422242	-0.951183	9.291377	0.004842	0.001475	0.004108	0.812457	-0.392366	0.431234	0.470740	0.877857	-0.088154	-0.343973	0.274620	0.897923
57352	4.406620	-0.964986	9.217213	0.004208	0.005609	0.003298	0.812461	-0.392390	0.431203	0.470757	0.877848	-0.088155	-0.343940	0.274615	0.897938
57353	4.455975	-0.949415	9.188396	0.006421	0.007131	0.001045	0.812462	-0.392416	0.431178	0.470762	0.877849	-0.088118	-0.343930	0.274575	0.897954
57354	4.458072	-0.951932	9.212936	0.009482	0.012874	0.003340	0.812498	-0.392446	0.431083	0.470746	0.877862	-0.088071	-0.343868	0.274488	0.898004
57355	4.439493	-0.921788	9.219665	0.011696	0.014397	0.001088	0.812525	-0.392492	0.430992	0.470732	0.877878	-0.087987	-0.343824	0.274373	0.898056
57356	4.449215	-0.943657	9.166453	0.014501	0.018140	0.003287	0.812583	-0.392526	0.430851	0.470687	0.877911	-0.087894	-0.343748	0.274217	0.898133
57357	4.430078	-0.942822	9.219190	0.017861	0.019533	0.002038	0.812631	-0.392577	0.430713	0.470645	0.877947	-0.087759	-0.343692	0.274028	0.898212
57358	4.348591	-0.944414	9.205089	0.018541	0.023650	0.004409	0.812704	-0.392637	0.430521	0.470599	0.877984	-0.087635	-0.343582	0.273825	0.898316
57359	4.297540	-0.888150	9.293937	0.014758	0.020150	0.003384	0.812761	-0.392678	0.430377	0.470557	0.878017	-0.087533	-0.343506	0.273660	0.898395
57360	4.278824	-0.887774	9.346360	0.007734	0.007116	0.004228	0.812777	-0.392692	0.430332	0.470547	0.878025	-0.087506	-0.343479	0.273615	0.898419
57361	4.360221	-0.927946	9.281368	-0.002471	-0.003524	0.002156	0.812747	-0.392679	0.430401	0.470574	0.878006	-0.087554	-0.343515	0.273695	0.898381
57362	4.333906	-0.948979	9.306655	0.000889	-0.002133	0.000908	0.812729	-0.392671	0.430444	0.470586	0.877998	-0.087572	-0.343542	0.273734	0.898359
57363	4.407961	-0.939871	9.273541	-0.006934	-0.011142	-0.001238	0.812656	-0.392666	0.430585	0.470656	0.877953	-0.087645	-0.343618	0.273883	0.898285
57364	4.382559	-0.931449	9.252663	-0.002351	-0.011665	0.002777	0.812596	-0.392652	0.430710	0.470704	0.877921	-0.087703	-0.343693	0.274004	0.898219
57365	4.422604	-0.893803	9.276908	-0.006391	-0.017169	0.001656	0.812517	-0.392606	0.430903	0.470748	0.877890	-0.087784	-0.343821	0.274172	0.898119
57366	4.405658	-0.935226	9.223551	-0.004565	-0.013185	0.005030	0.812470	-0.392551	0.431041	0.470767	0.877871	-0.087870	-0.343905	0.274312	0.898044
57367	4.430184	-0.941576	9.219267	-0.004476	-0.011291	0.002948	0.812417	-0.392509	0.431179	0.470794	0.877849	-0.087939	-0.343993	0.274440	0.897971
57368	4.442374	-0.964971	9.164723	-0.002261	-0.009770	0.000695	0.812365	-0.392494	0.431291	0.470833	0.877824	-0.087986	-0.344063	0.274542	0.897913
57369	4.425613	-0.965664	9.216157	-0.000346	-0.003894	0.001986	0.812333	-0.392481	0.431363	0.470854	0.877810	-0.088013	-0.344111	0.274605	0.897875
57370	4.475781	-0.950455	9.186933	0.003271	-0.000502	0.000832	0.812322	-0.392472	0.431392	0.470852	0.877811	-0.088010	-0.344139	0.274614	0.897862
57371	4.425461	-0.935491	9.170563	0.004554	0.009507	0.001311	0.812332	-0.392502	0.431345	0.470861	0.877808	-0.087991	-0.344101	0.274581	0.897886
57372	4.430558	-0.941227	9.219123	0.009228	0.010877	0.003243	0.812369	-0.392511	0.431268	0.470828	0.877831	-0.087944	-0.344061	0.274496	0.897927
57373	4.432548	-0.913923	9.198001	0.007192	0.013142	0.001332	0.812392	-0.392551	0.431188	0.470828	0.877835	-0.087902	-0.344006	0.274426	0.897970
57374	4.404849	-0.934226	9.224039	0.008249	0.011119	0.004418	0.812431	-0.392556	0.431110	0.470795	0.877856	-0.087869	-0.343958	0.274352	0.898011
57375	4.400578	-0.960255	9.246381	0.008339	0.013013	0.002336	0.812459	-0.392586	0.431030	0.470783	0.877867	-0.087821	-0.343910	0.274272	0.898054
57376	4.422810	-0.935571	9.197629	0.008595	0.015016	0.002432	0.812498	-0.392628	0.430918	0.470774	0.877876	-0.087777	-0.343828	0.274184	0.898112
57377	4.401056	-0.932359	9.226038	0.006214	0.013386	0.002507	0.812528	-0.392658	0.430835	0.470768	0.877882	-0.087749	-0.343767	0.274121	0.898155
57378	4.373057	-0.952618	9.252201	0.009998	0.016891	0.003532	0.812581	-0.392691	0.430704	0.470741	0.877902	-0.087697	-0.343678	0.274011	0.898222
57379	4.368732	-0.948881	9.228862	0.004645	0.011405	-0.000771	0.812588	-0.392744	0.430642	0.470767	0.877891	-0.087668	-0.343625	0.273970	0.898255
57380	4.359619	-0.928308	9.307362	0.008382	0.006657	-0.001301	0.812578	-0.392803	0.430608	0.470797	0.877880	-0.087611	-0.343608	0.273920	0.898277
57381	4.403054	-0.936039	9.276259	0.004597	0.003153	-0.002326	0.812550	-0.392847	0.430621	0.470836	0.877863	-0.087576	-0.343622	0.273912	0.898274
57382	4.382493	-0.903017	9.258377	0.008034	0.002763	0.000686	0.812541	-0.392864	0.430622	0.470837	0.877867	-0.087530	-0.343642	0.273875	0.898278
57383	4.367070	-0.946156	9.229929	0.007445	0.000538	-0.003765	0.812497	-0.392914	0.430660	0.470878	0.877852	-0.087463	-0.343690	0.273852	0.898266
57384	4.413782	-0.956580	9.222776	0.013355	0.003673	-0.002910	0.812470	-0.392974	0.430655	0.470900	0.877851	-0.087354	-0.343723	0.273768	0.898279
57385	4.390233	-0.949465	9.226639	0.011530	-0.000314	-0.006282	0.812411	-0.393043	0.430703	0.470947	0.877837	-0.087240	-0.343798	0.273713	0.898267
57386	4.419610	-0.959814	9.271224	0.018585	0.002693	-0.004422	0.812385	-0.393092	0.430709	0.470938	0.877858	-0.087076	-0.343873	0.273577	0.898280
57387	4.410168	-0.978430	9.245257	0.014259	0.005216	-0.008344	0.812335	-0.393194	0.430709	0.470993	0.877844	-0.086928	-0.343915	0.273476	0.898295
57388	4.401859	-0.927167	9.277717	0.011364	-0.000423	-0.008459	0.812275	-0.393278	0.430746	0.471051	0.877824	-0.086812	-0.343977	0.273419	0.898288
57389	4.448782	-0.907551	9.224777	0.014500	0.003549	-0.001905	0.812250	-0.393320	0.430755	0.471052	0.877835	-0.086690	-0.344035	0.273322	0.898296
57390	4.377945	-0.888991	9.236140	0.010597	0.008185	-0.003555	0.812230	-0.393411	0.430710	0.471103	0.877817	-0.086604	-0.344013	0.273251	0.898326
57391	4.394640	-0.917016	9.230633	0.013611	0.005684	-0.002814	0.812208	-0.393466	0.430700	0.471114	0.877822	-0.086486	-0.344049	0.273153	0.898342
57392	4.420446	-0.924675	9.251424	0.009617	0.008428	-0.002382	0.812204	-0.393526	0.430652	0.471135	0.877818	-0.086412	-0.344029	0.273079	0.898372
57393	4.396417	-0.918011	9.255451	0.008125	0.004662	-0.001397	0.812186	-0.393567	0.430651	0.471154	0.877814	-0.086349	-0.344047	0.273034	0.898378
57394	4.392639	-0.914016	9.231883	0.011441	0.012420	0.000989	0.812219	-0.393593	0.430564	0.471125	0.877837	-0.086273	-0.344008	0.272922	0.898428
57395	4.404162	-0.895653	9.282577	0.009738	0.000285	-0.001753	0.812183	-0.393625	0.430602	0.471142	0.877836	-0.086194	-0.344070	0.272880	0.898417
57396	4.397725	-0.918207	9.280568	0.010672	0.006410	0.000707	0.812183	-0.393660	0.430570	0.471143	0.877842	-0.086124	-0.344069	0.272809	0.898439
57397	4.411466	-0.943421	9.251015	0.010507	0.006298	-0.001471	0.812169	-0.393706	0.430554	0.471154	0.877844	-0.086040	-0.344085	0.272736	0.898454
57398	4.384469	-0.933583	9.231000	0.009361	0.006427	-0.002476	0.812156	-0.393765	0.430525	0.471182	0.877837	-0.085968	-0.344079	0.272675	0.898475
57399	4.393012	-0.912122	9.257650	0.010507	0.006299	-0.001471	0.812142	-0.393810	0.430509	0.471193	0.877839	-0.085884	-0.344096	0.272603	0.898491
57400	4.366016	-0.902290	9.237625	0.009361	0.006428	-0.002475	0.812132	-0.393865	0.430479	0.471214	0.877835	-0.085812	-0.344091	0.272538	0.898512
57401	4.388872	-0.936923	9.280095	0.005743	0.003030	-0.001322	0.812108	-0.393900	0.430492	0.471241	0.877824	-0.085771	-0.344111	0.272520	0.898510
57402	4.385536	-0.903427	9.210549	0.010928	0.008418	0.000801	0.812111	-0.393949	0.430441	0.471250	0.877826	-0.085700	-0.344091	0.272443	0.898541
57403	4.391247	-0.908734	9.258820	0.007265	-0.003239	0.000408	0.812074	-0.393951	0.430510	0.471257	0.877827	-0.085653	-0.344170	0.272437	0.898513
57404	4.385226	-0.931649	9.256596	0.005487	0.001026	-0.001415	0.812055	-0.393970	0.430528	0.471271	0.877823	-0.085619	-0.344196	0.272423	0.898507
57405	4.385179	-0.930905	9.256693	0.008593	0.000417	-0.002756	0.812015	-0.394011	0.430566	0.471299	0.877815	-0.085547	-0.344251	0.272391	0.898496
57406	4.379114	-0.953628	9.254514	0.006211	-0.001219	-0.002681	0.811980	-0.394040	0.430605	0.471326	0.877805	-0.085502	-0.344296	0.272381	0.898481
57407	4.391538	-0.905739	9.258976	0.008172	-0.001700	-0.005027	0.811922	-0.394095	0.430664	0.471375	0.877786	-0.085423	-0.344366	0.272361	0.898461
57408	4.397740	-0.881366	9.261249	0.006468	0.000786	-0.002588	0.811895	-0.394128	0.430684	0.471400	0.877778	-0.085376	-0.344396	0.272341	0.898455
57409	4.368213	-0.898463	9.262703	0.005066	-0.001091	-0.003686	0.811846	-0.394173	0.430737	0.471448	0.877756	-0.085331	-0.344447	0.272345	0.898435
57410	4.345149	-0.892246	9.266204	0.002338	-0.006622	-0.001619	0.811791	-0.394191	0.430824	0.471493	0.877732	-0.085326	-0.344513	0.272397	0.898393
57411	4.395741	-0.906533	9.282655	0.002082	-0.008626	-0.001712	0.811725	-0.394197	0.430942	0.471536	0.877710	-0.085316	-0.344611	0.272458	0.898337
57412	4.399586	-0.879780	9.260523	0.000212	-0.006254	-0.001452	0.811678	-0.394203	0.431025	0.471575	0.877688	-0.085330	-0.344668	0.272521	0.898296
57413	4.377014	-0.873969	9.263756	-0.000556	-0.012266	-0.001730	0.811599	-0.394200	0.431176	0.471626	0.877659	-0.085344	-0.344783	0.272619	0.898222
57414	4.384335	-0.879965	9.311206	0.002369	-0.016656	0.001099	0.811529	-0.394154	0.431351	0.471636	0.877653	-0.085350	-0.344936	0.272705	0.898138
57415	4.420620	-0.938398	9.298706	-0.000344	-0.018517	-0.003181	0.811421	-0.394147	0.431560	0.471699	0.877619	-0.085355	-0.345102	0.272825	0.898037
57416	4.375674	-0.897305	9.259293	-0.002559	-0.020038	-0.000927	0.811319	-0.394131	0.431767	0.471767	0.877578	-0.085398	-0.345251	0.272978	0.897933
57417	4.401049	-0.932902	9.300498	-0.003071	-0.024043	-0.001112	0.811202	-0.394091	0.432023	0.471822	0.877545	-0.085437	-0.345450	0.273144	0.897807
57418	4.403390	-0.933117	9.299369	-0.002181	-0.026171	-0.000200	0.811088	-0.394040	0.432284	0.471868	0.877516	-0.085478	-0.345654	0.273311	0.897677
57419	4.385756	-0.930809	9.325714	-0.007622	-0.033557	-0.002409	0.810932	-0.393984	0.432626	0.471950	0.877465	-0.085552	-0.345908	0.273555	0.897505
57420	4.362739	-0.922599	9.303681	-0.008556	-0.039673	-0.004863	0.810743	-0.393950	0.433012	0.472071	0.877392	-0.085632	-0.346187	0.273838	0.897311
57421	4.372755	-0.899784	9.304001	-0.009879	-0.043317	-0.001696	0.810556	-0.393862	0.433442	0.472155	0.877337	-0.085729	-0.346509	0.274140	0.897095
57422	4.397541	-0.903529	9.274098	-0.015319	-0.050692	-0.003900	0.810332	-0.393788	0.433927	0.472291	0.877250	-0.085873	-0.346846	0.274525	0.896846
57423	4.399696	-0.931314	9.293316	-0.014472	-0.061054	-0.004531	0.810071	-0.393675	0.434517	0.472414	0.877171	-0.085999	-0.347291	0.274937	0.896548
57424	4.361939	-0.923848	9.321853	-0.010987	-0.067774	-0.005148	0.809789	-0.393549	0.435156	0.472528	0.877100	-0.086098	-0.347791	0.275344	0.896229
57425	4.401274	-0.910248	9.341097	-0.017236	-0.074778	-0.003994	0.809481	-0.393393	0.435869	0.472656	0.877016	-0.086251	-0.348333	0.275834	0.895868
57426	4.426371	-0.941018	9.331289	-0.021915	-0.090713	-0.011085	0.809090	-0.393257	0.436717	0.472858	0.876891	-0.086421	-0.348968	0.276428	0.895438
57427	4.435367	-0.912848	9.280974	-0.021319	-0.103032	-0.011804	0.808646	-0.393090	0.437689	0.473063	0.876764	-0.086576	-0.349718	0.277064	0.894948
57428	4.459353	-0.940448	9.246076	-0.019528	-0.107235	-0.009977	0.808191	-0.392918	0.438683	0.473271	0.876637	-0.086731	-0.350488	0.277711	0.894447
57429	4.502435	-0.926809	9.263336	-0.015238	-0.114256	-0.013950	0.807695	-0.392738	0.439756	0.473473	0.876519	-0.086822	-0.351357	0.278338	0.893911
57430	4.476984	-0.909320	9.165865	-0.011239	-0.116928	-0.014386	0.807200	-0.392539	0.440841	0.473648	0.876419	-0.086880	-0.352258	0.278933	0.893371
57431	4.464863	-0.933767	9.210180	-0.012464	-0.118623	-0.013288	0.806690	-0.392339	0.441951	0.473834	0.876311	-0.086949	-0.353173	0.279552	0.892815
57432	4.493439	-0.963310	9.198540	-0.009074	-0.123500	-0.018172	0.806132	-0.392197	0.443095	0.474079	0.876176	-0.086973	-0.354119	0.280173	0.892246
57433	4.531749	-0.972310	9.212872	-0.013751	-0.124801	-0.020063	0.805566	-0.392037	0.444264	0.474325	0.876038	-0.087022	-0.355077	0.280828	0.891659
57434	4.523088	-0.939896	9.189180	-0.005936	-0.130286	-0.023138	0.804983	-0.391862	0.445473	0.474538	0.875926	-0.086993	-0.356112	0.281421	0.891059
57435	4.505075	-0.927405	9.139326	-0.006040	-0.128437	-0.027386	0.804366	-0.391755	0.446680	0.474816	0.875781	-0.086940	-0.357134	0.282022	0.890460
57436	4.483371	-0.898119	9.191611	-0.011156	-0.131827	-0.031532	0.803724	-0.391672	0.447907	0.475141	0.875606	-0.086920	-0.358146	0.282679	0.889845
57437	4.470786	-0.948691	9.257080	-0.016228	-0.138862	-0.029326	0.803058	-0.391551	0.449206	0.475471	0.875424	-0.086948	-0.359202	0.283409	0.889187
57438	4.512478	-0.857653	9.283009	-0.012589	-0.153536	-0.029319	0.802340	-0.391394	0.450623	0.475794	0.875248	-0.086950	-0.360375	0.284167	0.888470
57439	4.596685	-0.844562	9.217494	-0.007284	-0.164341	-0.028139	0.801584	-0.391187	0.452146	0.476082	0.875097	-0.086903	-0.361676	0.284918	0.887700
57440	4.639699	-0.895997	9.149189	-0.000840	-0.168960	-0.022344	0.800857	-0.390888	0.453690	0.476266	0.875003	-0.086829	-0.363040	0.285615	0.886920
57441	4.643314	-0.941727	9.137022	0.007413	-0.172269	-0.023182	0.800091	-0.390612	0.455276	0.476461	0.874913	-0.086673	-0.364471	0.286267	0.886122
57442	4.672879	-0.966034	9.098750	0.011091	-0.172419	-0.018014	0.799351	-0.390296	0.456846	0.476604	0.874851	-0.086514	-0.365906	0.286890	0.885329
57443	4.676726	-1.010975	9.086511	0.012000	-0.175160	-0.029145	0.798540	-0.390062	0.458460	0.476829	0.874750	-0.086290	-0.367379	0.287513	0.884516
57444	4.696282	-1.011513	9.102557	0.015335	-0.167370	-0.026798	0.797770	-0.389836	0.459990	0.477029	0.874664	-0.086053	-0.368790	0.288079	0.883744
57445	4.742074	-0.934326	9.024954	0.018285	-0.166074	-0.032424	0.796972	-0.389656	0.461524	0.477256	0.874570	-0.085757	-0.370219	0.288611	0.882973
57446	4.780404	-0.936847	9.012949	0.016923	-0.159668	-0.031943	0.796194	-0.389510	0.462987	0.477507	0.874460	-0.085482	-0.371567	0.289140	0.882234
57447	4.820064	-0.912557	8.979476	0.021768	-0.146326	-0.032722	0.795464	-0.389387	0.464344	0.477722	0.874374	-0.085153	-0.372852	0.289564	0.881552
57448	4.809544	-0.903278	8.977459	0.025851	-0.132671	-0.030147	0.794797	-0.389289	0.465566	0.477910	0.874306	-0.084807	-0.374033	0.289903	0.880940
57449	4.870986	-0.957593	8.906252	0.021484	-0.115744	-0.028846	0.794196	-0.389220	0.466649	0.478094	0.874234	-0.084498	-0.375072	0.290210	0.880397
57450	4.876947	-0.951048	8.877309	0.025607	-0.100267	-0.028379	0.793654	-0.389206	0.467581	0.478275	0.874168	-0.084162	-0.375988	0.290428	0.879934
57451	4.889360	-0.894180	8.829397	0.023689	-0.078040	-0.031393	0.793180	-0.389268	0.468333	0.478471	0.874094	-0.083821	-0.376738	0.290569	0.879567
57452	4.920922	-0.869690	8.799846	0.022389	-0.055519	-0.027895	0.792808	-0.389377	0.468872	0.478656	0.874022	-0.083515	-0.377285	0.290640	0.879309
57453	4.932183	-0.916229	8.765452	0.021541	-0.030940	-0.022148	0.792555	-0.389495	0.469201	0.478786	0.873977	-0.083237	-0.377650	0.290616	0.879160
57454	4.931809	-0.883855	8.719054	0.017938	-0.000088	-0.019106	0.792441	-0.389673	0.469246	0.478902	0.873935	-0.083010	-0.377744	0.290504	0.879157
57455	4.898393	-0.853089	8.778658	0.010010	0.021493	-0.015072	0.792420	-0.389882	0.469109	0.479019	0.873884	-0.082866	-0.377639	0.290377	0.879244
57456	4.872193	-0.902709	8.852603	-0.004914	0.043823	-0.016927	0.792483	-0.390168	0.468764	0.479204	0.873785	-0.082851	-0.377273	0.290291	0.879429
57457	4.815934	-0.871394	8.942325	-0.014916	0.055142	-0.021989	0.792555	-0.390535	0.468336	0.479470	0.873634	-0.082893	-0.376782	0.290251	0.879653
57458	4.818711	-0.821708	8.925220	-0.018635	0.067925	-0.019888	0.792695	-0.390914	0.467783	0.479726	0.873485	-0.082985	-0.376162	0.290189	0.879939
57459	4.777789	-0.820760	9.009186	-0.026881	0.071335	-0.018969	0.792842	-0.391301	0.467209	0.480014	0.873312	-0.083147	-0.375484	0.290189	0.880228
57460	4.761255	-0.899251	9.054166	-0.026056	0.071776	-0.010274	0.793043	-0.391605	0.466614	0.480218	0.873180	-0.083349	-0.374798	0.290176	0.880525
57461	4.718319	-0.869167	9.092206	-0.021546	0.066813	-0.014211	0.793195	-0.391938	0.466076	0.480448	0.873041	-0.083487	-0.374181	0.290147	0.880797
57462	4.749876	-0.802354	9.072816	-0.018647	0.065023	-0.003633	0.793392	-0.392183	0.465533	0.480593	0.872945	-0.083656	-0.373576	0.290104	0.881068
57463	4.732006	-0.850880	9.071689	-0.012827	0.064415	0.001288	0.793609	-0.392373	0.465003	0.480666	0.872891	-0.083790	-0.373020	0.290008	0.881335
57464	4.694759	-0.896602	9.098883	-0.008622	0.061852	0.002970	0.793825	-0.392553	0.464483	0.480724	0.872849	-0.083901	-0.372488	0.289891	0.881599
57465	4.731955	-0.905569	9.068884	-0.006092	0.061720	0.007115	0.794059	-0.392685	0.463972	0.480726	0.872838	-0.084003	-0.371985	0.289746	0.881858
57466	4.732458	-0.883002	9.073705	-0.008709	0.058139	0.007153	0.794302	-0.392773	0.463480	0.480700	0.872840	-0.084131	-0.371499	0.289621	0.882105
57467	4.695578	-0.928797	9.100603	-0.011234	0.058303	0.003013	0.794503	-0.392930	0.463002	0.480754	0.872798	-0.084259	-0.370999	0.289534	0.882343
57468	4.651116	-0.981071	9.227264	-0.008868	0.045539	-0.002246	0.794633	-0.393104	0.462631	0.480849	0.872737	-0.084349	-0.370597	0.289482	0.882529
57469	4.581293	-0.967737	9.266169	-0.002253	0.032058	-0.007911	0.794684	-0.393281	0.462393	0.480957	0.872678	-0.084347	-0.370348	0.289420	0.882654
57470	4.626123	-0.978462	9.258333	-0.001074	0.011271	-0.015686	0.794616	-0.393486	0.462336	0.481144	0.872578	-0.084306	-0.370251	0.289441	0.882688
57471	4.605003	-0.945330	9.240968	0.001317	-0.007769	-0.024563	0.794439	-0.393692	0.462464	0.481371	0.872464	-0.084196	-0.370336	0.289505	0.882632
57472	4.602481	-0.997040	9.283904	0.003710	-0.026804	-0.033440	0.794150	-0.393932	0.462757	0.481671	0.872314	-0.084030	-0.370567	0.289629	0.882494
57473	4.604034	-1.021583	9.304135	0.003982	-0.045475	-0.042113	0.793748	-0.394182	0.463232	0.482026	0.872139	-0.083815	-0.370964	0.289818	0.882265
57474	4.633335	-1.024096	9.297094	0.014141	-0.071826	-0.052049	0.793210	-0.394438	0.463935	0.482416	0.871956	-0.083470	-0.371608	0.290019	0.881928
57475	4.575474	-0.949923	9.263201	0.024772	-0.087938	-0.058198	0.792573	-0.394705	0.464798	0.482821	0.871777	-0.082996	-0.372441	0.290194	0.881518
57476	4.625620	-1.035135	9.315691	0.037041	-0.108323	-0.064716	0.791845	-0.394942	0.465834	0.483201	0.871625	-0.082388	-0.373494	0.290330	0.881028
57477	4.680198	-1.091597	9.345410	0.060656	-0.132615	-0.073526	0.790964	-0.395212	0.467101	0.483592	0.871489	-0.081525	-0.374854	0.290370	0.880438
57478	4.684422	-1.101508	9.313696	0.086766	-0.149594	-0.088724	0.789945	-0.395574	0.468517	0.484012	0.871363	-0.080368	-0.376456	0.290254	0.879792
57479	4.692631	-1.138243	9.327184	0.101870	-0.171200	-0.110830	0.788732	-0.396057	0.470149	0.484538	0.871199	-0.078967	-0.378318	0.290089	0.879047
57480	4.741928	-1.233249	9.350981	0.121982	-0.185620	-0.135191	0.787355	-0.396701	0.471912	0.485164	0.871002	-0.077279	-0.380379	0.289800	0.878253
57481	4.743757	-1.366508	9.427468	0.153522	-0.214414	-0.171140	0.785675	-0.397585	0.473962	0.485960	0.870745	-0.075136	-0.382827	0.289359	0.877334
57482	4.764032	-1.437805	9.383081	0.196999	-0.243550	-0.219103	0.783647	-0.398812	0.476285	0.486967	0.870415	-0.072390	-0.385696	0.288663	0.876306
57483	4.814839	-1.411997	9.369094	0.215306	-0.267033	-0.274268	0.781245	-0.400443	0.478856	0.488315	0.869919	-0.069209	-0.388851	0.287901	0.875161
57484	4.805072	-1.343705	9.369299	0.195269	-0.309275	-0.341950	0.778347	-0.402527	0.481818	0.490239	0.869095	-0.065880	-0.392227	0.287484	0.873791
57485	4.937135	-1.402527	9.302567	0.167355	-0.359003	-0.425469	0.774810	-0.405204	0.485263	0.492920	0.867836	-0.062375	-0.395853	0.287525	0.872141
57486	5.019955	-1.696056	9.216944	0.141811	-0.397310	-0.519455	0.770629	-0.408590	0.489065	0.496420	0.866100	-0.058633	-0.399622	0.287966	0.870275
57487	5.123352	-1.867547	9.189622	0.118464	-0.438325	-0.631069	0.765691	-0.412799	0.493269	0.500828	0.863828	-0.054517	-0.403595	0.288786	0.868167
57488	5.119475	-1.959154	9.139825	0.053224	-0.486211	-0.770154	0.759806	-0.418062	0.497915	0.506542	0.860749	-0.050264	-0.407566	0.290406	0.865768
57489	5.354220	-2.361831	8.907319	-0.016974	-0.535405	-0.932424	0.752825	-0.424521	0.503028	0.513699	0.856749	-0.045757	-0.411544	0.292852	0.863058
57490	5.595254	-3.200499	9.001512	-0.078248	-0.548424	-1.092685	0.744868	-0.432260	0.508256	0.522250	0.851809	-0.040932	-0.415244	0.295926	0.860233
57491	5.997248	-4.153526	8.801502	0.107268	-0.523279	-1.229168	0.736177	-0.441160	0.513245	0.530941	0.846737	-0.033745	-0.419697	0.297345	0.857578
57492	5.785822	-3.482942	8.802667	0.333791	-0.490477	-1.331156	0.726960	-0.450945	0.517859	0.539298	0.841772	-0.024051	-0.425073	0.296764	0.855128
57493	5.668531	-2.561110	8.706082	0.519500	-0.450713	-1.399312	0.717394	-0.461371	0.521999	0.547215	0.836901	-0.012351	-0.431163	0.294506	0.852857
57494	5.577433	-1.683392	8.540859	0.613668	-0.430039	-1.451293	0.707501	-0.472227	0.525780	0.554925	0.831900	0.000449	-0.437609	0.291451	0.850620
57495	5.500631	-1.087035	8.566583	0.643616	-0.415567	-1.497135	0.697268	-0.483451	0.529238	0.562639	0.826588	0.013803	-0.444135	0.288146	0.848361
57496	5.332852	-1.014313	8.324034	0.658352	-0.365526	-1.523014	0.686988	-0.494941	0.532054	0.570250	0.821013	0.027437	-0.450403	0.284555	0.846266
57497	4.908545	-0.556010	8.141685	0.720237	-0.348854	-1.458816	0.677001	-0.505907	0.534535	0.576967	0.815723	0.041293	-0.456923	0.280454	0.844137
57498	4.349461	-2.710635	7.664169	0.635208	-0.291426	-0.949305	0.670162	-0.512795	0.536585	0.580431	0.812666	0.051713	-0.462582	0.276795	0.842260
57499	5.927601	-5.358576	7.355005	0.352182	-0.351975	0.222494	0.669778	-0.510025	0.539696	0.577339	0.814752	0.053467	-0.466988	0.275776	0.840160
57500	6.283366	-6.781051	8.115137	0.017083	-0.149519	1.328215	0.676639	-0.498771	0.541653	0.568386	0.821453	0.046386	-0.468078	0.276481	0.839322
57501	4.001909	-6.818629	7.946856	0.019047	-0.017636	2.163450	0.688657	-0.480849	0.542712	0.553564	0.832079	0.034804	-0.468315	0.276457	0.839197
57502	2.746167	-6.812135	7.832433	0.080579	-0.019448	2.778657	0.703637	-0.457491	0.543688	0.533886	0.845312	0.020342	-0.468892	0.275954	0.839041
57503	2.410602	-5.966836	8.022164	0.240134	-0.089440	3.239511	0.720088	-0.429630	0.544878	0.509732	0.860321	0.004712	-0.470794	0.274348	0.838502
57504	2.618389	-4.983433	8.469727	0.362362	-0.157914	3.605063	0.737176	-0.397918	0.546107	0.481827	0.876184	-0.011978	-0.473724	0.271959	0.837630
57505	3.008783	-4.199722	8.946738	0.451787	-0.188150	3.905141	0.754456	-0.362891	0.546906	0.450588	0.892243	-0.029551	-0.477249	0.268724	0.836672
57506	3.773392	-3.589679	9.680506	0.554740	-0.160051	4.145279	0.771625	-0.325161	0.546686	0.416362	0.907950	-0.047643	-0.480871	0.264382	0.835981
57507	4.295073	-2.463215	10.044333	0.660547	-0.039122	4.336317	0.788660	-0.285373	0.544589	0.379380	0.922899	-0.065795	-0.483824	0.258496	0.836118
57508	4.752549	-0.053446	9.981815	0.798781	0.143351	4.486135	0.805470	-0.244059	0.540050	0.339841	0.936767	-0.083519	-0.485517	0.250803	0.837479
57509	3.942917	0.680609	10.051588	0.668285	0.281579	4.468690	0.821112	-0.202646	0.533581	0.300286	0.948388	-0.101918	-0.485389	0.243914	0.839585
57510	3.731834	1.285606	10.469888	0.620869	0.347660	4.246548	0.834726	-0.163079	0.525964	0.262269	0.957589	-0.119322	-0.484199	0.237545	0.842095
57511	3.924477	1.999741	10.779345	0.589078	0.379637	3.860928	0.845980	-0.126878	0.517899	0.227013	0.964557	-0.134519	-0.482476	0.231370	0.844799
57512	6.620881	-1.665976	9.769073	0.461493	0.359643	3.223662	0.854557	-0.096585	0.510297	0.197477	0.969184	-0.147260	-0.480348	0.226614	0.847296
57513	3.460663	8.396770	12.854917	1.214576	0.888523	2.253492	0.862944	-0.076670	0.499449	0.172363	0.973803	-0.148321	-0.474993	0.214080	0.853552
57514	4.375089	5.146601	10.566451	0.577255	0.739899	1.535445	0.868964	-0.063297	0.490810	0.156402	0.976079	-0.151026	-0.469510	0.208000	0.858077
57515	3.571751	3.913390	10.784092	0.294873	0.755576	0.767568	0.873635	-0.057381	0.483187	0.148380	0.977142	-0.152241	-0.463407	0.204698	0.862179
57516	5.566699	0.849959	11.200331	0.221157	0.781782	0.087277	0.877358	-0.058148	0.476300	0.146650	0.977629	-0.150782	-0.456877	0.202139	0.866258
57517	4.585261	3.186262	10.234529	0.061080	0.960936	-0.407155	0.881082	-0.064087	0.468602	0.149995	0.977495	-0.148342	-0.448550	0.200989	0.870865
57518	5.217382	2.227699	10.032316	-0.206106	1.029552	-0.781636	0.884444	-0.073829	0.460769	0.157857	0.976528	-0.146538	-0.439135	0.202340	0.875339
57519	5.303337	2.079603	10.346089	-0.481819	1.096128	-1.066545	0.887432	-0.086494	0.452750	0.169438	0.974680	-0.145909	-0.428666	0.206197	0.879618
57520	5.216787	1.080567	9.734407	-0.734587	1.094903	-1.238784	0.889874	-0.100872	0.444915	0.183600	0.971970	-0.146851	-0.417631	0.212365	0.883451
57521	5.249223	0.201922	9.282031	-0.855102	1.051216	-1.327228	0.891645	-0.116042	0.437611	0.198987	0.968674	-0.148579	-0.406661	0.219559	0.886804
57522	5.355904	-0.299193	9.215026	-0.859092	0.977510	-1.310428	0.892856	-0.130921	0.430892	0.214172	0.965125	-0.150545	-0.396155	0.226700	0.889757
57523	5.524948	-0.622483	9.126467	-0.816665	0.901572	-1.181592	0.893748	-0.144398	0.424692	0.227962	0.961608	-0.152784	-0.386326	0.233364	0.892353
57524	5.542723	-1.217365	9.121580	-0.743268	0.827864	-0.973432	0.894626	-0.155727	0.418800	0.239545	0.958377	-0.155346	-0.377177	0.239298	0.894692
57525	3.757965	-1.358417	8.189785	-0.376300	0.638226	-0.738154	0.895191	-0.164348	0.414273	0.247597	0.956277	-0.155658	-0.370578	0.241917	0.896743
57526	4.953076	-1.826054	6.908974	-0.471292	0.218909	-0.470572	0.894812	-0.169404	0.413054	0.253589	0.954327	-0.157965	-0.367429	0.246095	0.896902
57527	6.285216	-1.724280	7.871379	-0.162621	0.035243	-0.214218	0.894373	-0.171553	0.413119	0.256141	0.953547	-0.158556	-0.366728	0.247625	0.896768
57528	6.985171	-1.866780	8.498967	-0.010274	0.004627	0.063382	0.894543	-0.170985	0.412986	0.255653	0.953614	-0.158937	-0.366653	0.247757	0.896762
57529	6.821454	-1.514375	8.585330	0.147405	0.050455	0.299543	0.895466	-0.168271	0.412099	0.252471	0.954474	-0.158867	-0.366605	0.246303	0.897182
57530	5.989651	-1.104873	8.180284	0.213444	0.045878	0.473866	0.896809	-0.163882	0.410946	0.247483	0.955769	-0.158929	-0.366724	0.244231	0.897700
57531	5.526494	-0.928112	7.856195	0.256737	-0.018932	0.571359	0.898114	-0.158390	0.410250	0.241452	0.957301	-0.158987	-0.367550	0.241844	0.898008
57532	5.637367	-0.854411	7.729872	0.294267	-0.115260	0.605553	0.899121	-0.152336	0.410336	0.234967	0.958934	-0.158855	-0.369286	0.239245	0.897992
57533	6.221800	-0.894233	7.909459	0.346093	-0.161820	0.594166	0.899876	-0.146268	0.410889	0.228380	0.960632	-0.158204	-0.371573	0.236203	0.897854
57534	6.727033	-0.796990	7.986625	0.415471	-0.142490	0.550793	0.900573	-0.140663	0.411317	0.221915	0.962382	-0.156763	-0.373793	0.232454	0.897911
57535	6.591579	-0.646640	7.813924	0.519125	-0.114808	0.447177	0.901100	-0.136111	0.411694	0.215980	0.964184	-0.153958	-0.375994	0.227649	0.898223
57536	6.384361	-0.144017	7.385174	0.611756	-0.130778	0.267506	0.901166	-0.133260	0.412482	0.211303	0.965906	-0.149588	-0.378485	0.221962	0.898600
57537	6.448275	0.319495	7.212691	0.656765	-0.153649	0.055944	0.900678	-0.132403	0.413822	0.208343	0.967407	-0.143933	-0.381277	0.215854	0.898907
57538	6.714844	0.843146	7.237024	0.642085	-0.168771	-0.192928	0.899617	-0.133936	0.415632	0.207664	0.968505	-0.137383	-0.384141	0.209904	0.899097
57539	7.098596	0.859545	7.249572	0.603288	-0.166177	-0.456384	0.898003	-0.138034	0.417777	0.209480	0.969123	-0.130073	-0.386923	0.204322	0.899190
57540	7.390396	0.663651	7.379658	0.560480	-0.119175	-0.724912	0.895991	-0.144844	0.419787	0.213848	0.969217	-0.122017	-0.389191	0.199097	0.899384
57541	7.064250	-0.031357	7.282088	0.529111	-0.011612	-0.977968	0.893799	-0.154319	0.421082	0.220577	0.968783	-0.113161	-0.390474	0.194024	0.899936
57542	6.623467	-0.174576	7.563184	0.567973	0.027027	-1.121041	0.891371	-0.165251	0.422079	0.228403	0.968067	-0.103340	-0.391523	0.188519	0.900650
57543	8.695317	0.565136	10.294985	-0.233119	-0.020396	-0.589005	0.889904	-0.170931	0.422910	0.234601	0.966623	-0.102967	-0.391194	0.190846	0.900303
57544	6.314555	-6.143281	8.660108	0.506147	0.275642	-0.079393	0.890776	-0.172241	0.420536	0.233371	0.967428	-0.098089	-0.389943	0.185516	0.901958
57545	2.467705	-2.222188	7.883466	0.339712	0.225499	0.030893	0.891703	-0.172378	0.418511	0.231812	0.968094	-0.095169	-0.388753	0.181878	0.903212
57546	4.249426	0.279900	10.221216	0.291888	-0.069608	-0.025882	0.891353	-0.172527	0.419194	0.230948	0.968565	-0.092445	-0.390067	0.179213	0.903178
57547	4.930012	-0.691451	10.544781	0.202276	0.005662	-0.015353	0.891317	-0.172708	0.419197	0.230334	0.968888	-0.090570	-0.390512	0.177282	0.903367
57548	3.467344	-1.764792	9.209068	0.146072	-0.030151	-0.021154	0.891132	-0.172884	0.419518	0.229993	0.969097	-0.089181	-0.391136	0.175959	0.903356
57549	5.026529	-1.597514	9.953460	0.166071	-0.184684	-0.041148	0.890290	-0.172981	0.421262	0.229748	0.969307	-0.087525	-0.393192	0.174707	0.902706
57550	4.835201	0.044852	9.644078	0.162749	0.080930	-0.042754	0.890491	-0.173560	0.420598	0.229531	0.969504	-0.085896	-0.392863	0.173030	0.903172
57551	4.300149	-0.515842	9.410929	0.124950	-0.116721	-0.028044	0.889944	-0.173653	0.421715	0.229328	0.969660	-0.084666	-0.394218	0.172059	0.902767
57552	4.632983	-0.338688	9.722042	0.105625	-0.033025	-0.014259	0.889762	-0.173759	0.422055	0.229080	0.969805	-0.083672	-0.394772	0.171133	0.902701
57553	4.050998	-0.685446	9.478361	0.084172	-0.067495	-0.004161	0.889463	-0.173706	0.422707	0.228824	0.969931	-0.082912	-0.395595	0.170472	0.902466
57554	4.646722	-0.347104	9.838882	0.077933	-0.071133	0.018510	0.889205	-0.173430	0.423364	0.228391	0.970084	-0.082306	-0.396424	0.169879	0.902213
57555	4.466055	-0.346007	9.293100	-0.029908	0.023636	0.052028	0.889394	-0.172988	0.423147	0.228087	0.970113	-0.082812	-0.396175	0.170167	0.902269
57556	4.522352	-0.908900	9.242515	-0.027172	-0.056453	0.062801	0.889295	-0.172306	0.423634	0.227677	0.970164	-0.083342	-0.396634	0.170567	0.901991
57557	4.381442	-0.943851	9.329371	-0.008005	-0.035813	0.053899	0.889252	-0.171745	0.423951	0.227269	0.970232	-0.083659	-0.396963	0.170745	0.901813
57558	4.409802	-0.739170	9.307548	0.001003	-0.027055	0.055610	0.889252	-0.171183	0.424179	0.226811	0.970318	-0.083905	-0.397225	0.170821	0.901683
57559	4.567224	-1.049557	9.204081	0.005194	-0.040988	0.054206	0.889189	-0.170609	0.424542	0.226348	0.970409	-0.084104	-0.397631	0.170879	0.901493
57560	4.325423	-1.055647	9.279669	0.015020	-0.022203	0.045854	0.889185	-0.170151	0.424734	0.225922	0.970501	-0.084182	-0.397881	0.170810	0.901396
57561	4.398808	-1.178158	9.266452	0.022863	-0.025255	0.040908	0.889154	-0.169733	0.424967	0.225507	0.970599	-0.084166	-0.398187	0.170670	0.901288
57562	4.518722	-1.214626	9.250794	0.012580	-0.023415	0.029280	0.889107	-0.169433	0.425183	0.225237	0.970659	-0.084196	-0.398443	0.170627	0.901183
57563	4.455989	-1.179584	9.258790	0.016065	-0.007499	0.020183	0.889100	-0.169246	0.425273	0.225034	0.970710	-0.084154	-0.398575	0.170522	0.901144
57564	4.393161	-1.034383	9.246426	0.012554	0.005489	0.018200	0.889143	-0.169103	0.425239	0.224863	0.970751	-0.084137	-0.398573	0.170430	0.901162
57565	4.335916	-0.946611	9.305480	0.003784	0.011150	0.015407	0.889199	-0.168995	0.425165	0.224751	0.970773	-0.084185	-0.398512	0.170413	0.901192
57566	4.418313	-0.907360	9.346732	0.004029	-0.000220	0.012020	0.889206	-0.168902	0.425187	0.224669	0.970789	-0.084219	-0.398542	0.170414	0.901179
57567	4.427030	-0.885612	9.321894	-0.001051	0.000309	0.017911	0.889225	-0.168751	0.425209	0.224554	0.970807	-0.084321	-0.398566	0.170462	0.901159
57568	4.325482	-0.915194	9.307906	-0.002053	-0.003638	0.017964	0.889231	-0.168595	0.425257	0.224443	0.970822	-0.084435	-0.398614	0.170528	0.901125
57569	4.392044	-0.896613	9.300570	-0.002718	-0.015550	0.020209	0.889192	-0.168394	0.425420	0.224314	0.970841	-0.084562	-0.398775	0.170619	0.901037
57570	4.323736	-0.886256	9.357300	-0.010066	-0.022334	0.019532	0.889127	-0.168191	0.425635	0.224222	0.970846	-0.084755	-0.398971	0.170795	0.900917
57571	4.320905	-0.886932	9.307325	-0.021337	-0.040452	0.020188	0.888988	-0.167948	0.426022	0.224167	0.970832	-0.085049	-0.399312	0.171108	0.900707
57572	4.344193	-0.931387	9.203280	-0.021313	-0.042525	0.029109	0.888864	-0.167616	0.426410	0.224035	0.970834	-0.085385	-0.399662	0.171426	0.900491
57573	4.362589	-0.914085	9.224720	-0.022814	-0.048427	0.029192	0.888712	-0.167272	0.426861	0.223906	0.970833	-0.085731	-0.400070	0.171767	0.900244
57574	4.307833	-0.969316	9.202821	-0.022385	-0.051925	0.032509	0.888558	-0.166892	0.427331	0.223749	0.970837	-0.086090	-0.400501	0.172111	0.899987
57575	4.366655	-0.974722	9.193857	-0.023384	-0.055848	0.032567	0.888384	-0.166501	0.427845	0.223593	0.970841	-0.086456	-0.400974	0.172469	0.899708
57576	4.437935	-0.989248	9.109324	-0.021111	-0.047481	0.034683	0.888252	-0.166107	0.428272	0.223411	0.970851	-0.086814	-0.401368	0.172793	0.899470
57577	4.428563	-0.983951	9.182931	-0.025915	-0.032559	0.039494	0.888186	-0.165689	0.428570	0.223204	0.970861	-0.087232	-0.401629	0.173137	0.899287
57578	4.410519	-1.031502	9.206780	-0.024530	-0.028998	0.029377	0.888116	-0.165377	0.428836	0.223082	0.970856	-0.087598	-0.401851	0.173463	0.899125
57579	4.384787	-0.991065	9.234864	-0.020916	-0.024660	0.033625	0.888069	-0.165030	0.429068	0.222907	0.970864	-0.087946	-0.402053	0.173745	0.898981
57580	4.415685	-0.978366	9.378351	-0.023016	-0.023071	0.029303	0.888022	-0.164730	0.429280	0.222782	0.970861	-0.088299	-0.402226	0.174047	0.898845
57581	4.384796	-0.991311	9.380615	-0.019609	-0.026577	0.026844	0.887951	-0.164445	0.429535	0.222662	0.970861	-0.088606	-0.402448	0.174319	0.898693
57582	4.456095	-0.975502	9.396222	-0.013449	-0.032632	0.025317	0.887857	-0.164166	0.429837	0.222533	0.970868	-0.088855	-0.402728	0.174544	0.898524
57583	4.392897	-0.997813	9.401814	-0.025042	-0.029877	0.024958	0.887769	-0.163894	0.430123	0.222452	0.970854	-0.089204	-0.402966	0.174874	0.898353
57584	4.437847	-1.024566	9.394307	-0.023887	-0.028868	0.021540	0.887681	-0.163659	0.430393	0.222399	0.970836	-0.089531	-0.403189	0.175194	0.898190
57585	4.374271	-1.047171	9.400059	-0.026397	-0.024809	0.018370	0.887598	-0.163459	0.430639	0.222382	0.970809	-0.089863	-0.403379	0.175529	0.898039
57586	4.365288	-1.102314	9.324260	-0.030585	-0.022677	0.014186	0.887519	-0.163306	0.430861	0.222422	0.970767	-0.090218	-0.403532	0.175903	0.897897
57587	4.355138	-1.071614	9.301010	-0.030035	-0.028073	0.009668	0.887404	-0.163185	0.431143	0.222497	0.970720	-0.090546	-0.403744	0.176279	0.897729
57588	4.378146	-1.031044	9.274088	-0.029792	-0.026562	0.007427	0.887294	-0.163090	0.431406	0.222593	0.970668	-0.090865	-0.403933	0.176652	0.897570
57589	4.373888	-1.001677	9.299365	-0.023440	-0.023751	0.008141	0.887193	-0.162991	0.431651	0.222655	0.970629	-0.091126	-0.404121	0.176956	0.897426
57590	4.369758	-0.972183	9.324625	-0.025861	-0.029140	0.009397	0.887077	-0.162872	0.431935	0.222718	0.970587	-0.091418	-0.404341	0.177295	0.897259
57591	4.412557	-1.027676	9.217619	-0.025718	-0.032063	0.006029	0.886937	-0.162778	0.432257	0.222808	0.970541	-0.091691	-0.404598	0.177635	0.897077
57592	4.433498	-1.041000	9.188765	-0.023534	-0.028167	0.007019	0.886819	-0.162684	0.432534	0.222883	0.970499	-0.091952	-0.404814	0.177950	0.896917
57593	4.427221	-1.065573	9.212103	-0.019127	-0.027747	0.004498	0.886694	-0.162613	0.432818	0.222961	0.970461	-0.092159	-0.405047	0.178219	0.896758
57594	4.463117	-1.087894	9.131942	-0.014189	-0.026406	0.006411	0.886582	-0.162528	0.433080	0.223003	0.970435	-0.092334	-0.405269	0.178440	0.896614
57595	4.465246	-1.089466	9.130714	-0.012914	-0.022013	0.008579	0.886488	-0.162427	0.433309	0.223019	0.970415	-0.092503	-0.405464	0.178639	0.896486
57596	4.440105	-1.101940	9.181807	0.000833	-0.019848	0.005442	0.886400	-0.162362	0.433512	0.223009	0.970414	-0.092539	-0.405662	0.178704	0.896384
57597	4.474534	-1.092317	9.177408	0.004695	-0.014039	0.007443	0.886337	-0.162287	0.433671	0.222964	0.970424	-0.092545	-0.405826	0.178719	0.896306
57598	4.417392	-1.003299	9.212297	0.007520	-0.011117	0.005035	0.886283	-0.162242	0.433797	0.222931	0.970434	-0.092519	-0.405961	0.178705	0.896248
57599	4.386047	-1.068028	9.237884	0.006612	-0.010613	0.006214	0.886231	-0.162185	0.433926	0.222889	0.970445	-0.092503	-0.406098	0.178696	0.896187
57600	4.416974	-1.057193	9.209543	0.004025	-0.012031	0.006381	0.886176	-0.162126	0.434058	0.222858	0.970451	-0.092515	-0.406233	0.178718	0.896122
57601	4.337043	-1.066719	9.267898	-0.000004	-0.013868	0.003293	0.886104	-0.162091	0.434219	0.222869	0.970446	-0.092545	-0.406385	0.178778	0.896041
57602	4.362320	-1.024695	9.265792	-0.011599	-0.024968	0.006257	0.885997	-0.162009	0.434468	0.222902	0.970424	-0.092696	-0.406601	0.178972	0.895905
57603	4.349970	-1.046593	9.240877	-0.019690	-0.027599	-0.004376	0.885852	-0.162024	0.434759	0.223061	0.970371	-0.092869	-0.406830	0.179246	0.895745
57604	4.401594	-1.104650	9.206288	-0.036790	-0.033590	-0.003249	0.885688	-0.162019	0.435094	0.223282	0.970288	-0.093205	-0.407065	0.179699	0.895548
57605	4.362742	-1.114593	9.135486	-0.039406	-0.033954	-0.007538	0.885510	-0.162053	0.435444	0.223549	0.970194	-0.093540	-0.407307	0.180174	0.895343
57606	4.383227	-1.068677	9.256614	-0.048440	-0.028712	-0.012482	0.885345	-0.162145	0.435744	0.223898	0.970075	-0.093939	-0.407472	0.180731	0.895155
57607	4.387893	-1.158798	9.201380	-0.063514	-0.047001	-0.017122	0.885092	-0.162248	0.436220	0.224348	0.969921	-0.094449	-0.407775	0.181461	0.894870
57608	4.391174	-1.078484	9.251709	-0.070228	-0.040781	-0.024441	0.884851	-0.162435	0.436639	0.224894	0.969742	-0.094991	-0.407997	0.182250	0.894608
57609	4.356334	-1.061716	9.279515	-0.073640	-0.050049	-0.023129	0.884571	-0.162590	0.437148	0.225439	0.969559	-0.095565	-0.408303	0.183084	0.894298
57610	4.352671	-1.004456	9.353952	-0.068167	-0.074439	-0.014695	0.884214	-0.162620	0.437858	0.225889	0.969398	-0.096130	-0.408826	0.183907	0.893890
57611	4.375603	-1.046060	9.395567	-0.082695	-0.077897	-0.018160	0.883831	-0.162674	0.438611	0.226428	0.969205	-0.096805	-0.409357	0.184873	0.893448
57612	4.341951	-1.030845	9.397128	-0.109483	-0.103185	-0.020887	0.883341	-0.162708	0.439584	0.227103	0.968956	-0.097711	-0.410039	0.186143	0.892871
57613	4.327550	-0.913218	9.498860	-0.124155	-0.122969	-0.014364	0.882780	-0.162639	0.440735	0.227779	0.968690	-0.098772	-0.410871	0.187584	0.892187
57614	4.400078	-0.903433	9.435644	-0.142305	-0.149867	-0.015444	0.882109	-0.162531	0.442117	0.228545	0.968385	-0.099993	-0.411888	0.189249	0.891366
57615	4.371990	-0.838137	9.412248	-0.159236	-0.170487	-0.006497	0.881367	-0.162291	0.443682	0.229299	0.968060	-0.101399	-0.413055	0.191105	0.890429
57616	4.422030	-0.873416	9.323279	-0.175374	-0.201395	0.003452	0.880522	-0.161894	0.445502	0.230036	0.967717	-0.102994	-0.414445	0.193170	0.889337
57617	4.438890	-1.026029	9.404122	-0.185874	-0.226386	0.008586	0.879578	-0.161392	0.447544	0.230772	0.967358	-0.104700	-0.416038	0.195372	0.888112
57618	4.335587	-1.115364	9.380541	-0.199787	-0.246725	0.011806	0.878556	-0.160817	0.449752	0.231544	0.966972	-0.106545	-0.417763	0.197743	0.886776
57619	4.371733	-1.279323	9.406343	-0.203891	-0.276796	0.000794	0.877375	-0.160279	0.452243	0.232431	0.966557	-0.108371	-0.419749	0.200197	0.885287
57620	4.234676	-1.454649	9.578295	-0.208289	-0.325313	-0.010374	0.875962	-0.159747	0.455161	0.233440	0.966108	-0.110185	-0.422133	0.202771	0.883565
57621	4.032330	-1.533905	9.839189	-0.213681	-0.372741	-0.037072	0.874272	-0.159365	0.458532	0.234710	0.965601	-0.111916	-0.424923	0.205467	0.881603
57622	3.851123	-1.510998	10.004062	-0.229306	-0.481415	-0.064692	0.872046	-0.159016	0.462872	0.236295	0.965011	-0.113656	-0.428604	0.208487	0.879109
57623	3.947883	-1.156908	10.294736	-0.221981	-0.616075	-0.085514	0.869162	-0.158567	0.468416	0.238036	0.964398	-0.115220	-0.433469	0.211645	0.875963
57624	3.464843	-0.718940	10.883903	-0.195289	-0.803630	-0.088417	0.865422	-0.157729	0.475570	0.239699	0.963829	-0.116528	-0.439988	0.214840	0.871926
57625	3.119837	-0.536580	11.414597	-0.221713	-1.077688	-0.089278	0.860392	-0.156273	0.485081	0.241495	0.963196	-0.118040	-0.448782	0.218706	0.866466
57626	2.794038	-0.629024	11.731354	-0.230404	-1.398360	-0.096984	0.853783	-0.154139	0.497288	0.243414	0.962524	-0.119568	-0.460222	0.223132	0.859306
57627	2.506076	-1.315558	12.282399	-0.175790	-1.762895	-0.141770	0.845168	-0.151550	0.512566	0.245480	0.961900	-0.120367	-0.474795	0.227556	0.850169
57628	1.709324	-1.359296	12.587879	-0.021681	-2.153900	-0.254887	0.834099	-0.149085	0.531086	0.247768	0.961454	-0.119236	-0.492838	0.231041	0.838887
57629	1.855885	-1.883669	11.609175	-0.081290	-2.622629	-0.399226	0.819866	-0.146820	0.553410	0.251520	0.960662	-0.117758	-0.514351	0.235740	0.824542
57630	2.195099	-2.053643	10.597031	0.073222	-3.112369	-0.557028	0.802031	-0.144795	0.579466	0.255693	0.960011	-0.114017	-0.539784	0.239610	0.806982
57631	3.769805	-1.699390	10.311173	0.188876	-3.563067	-0.697565	0.780455	-0.142911	0.608660	0.260208	0.959451	-0.108376	-0.568491	0.242960	0.785995
57632	3.788976	-1.889527	10.000211	0.253139	-3.887818	-0.830743	0.755558	-0.141396	0.639640	0.265159	0.958874	-0.101248	-0.599018	0.246105	0.761977
57633	5.098994	-1.837396	10.904590	0.290517	-4.358800	-0.935438	0.726183	-0.139581	0.673183	0.270345	0.958267	-0.092938	-0.632117	0.249481	0.733613
57634	6.104008	-2.530640	11.361623	0.252762	-4.687399	-1.004765	0.692988	-0.137437	0.707728	0.275872	0.957501	-0.084185	-0.666080	0.253581	0.701452
57635	9.202726	-3.776038	12.421337	0.159323	-4.980856	-1.065898	0.655946	-0.134893	0.742657	0.282017	0.956445	-0.075364	-0.700144	0.258877	0.665418
57636	13.125889	-4.831232	13.120651	0.196131	-4.760361	-1.057537	0.618844	-0.132592	0.774242	0.287402	0.955528	-0.066080	-0.731048	0.263412	0.629430
57637	13.733768	-5.801540	12.441828	0.411308	-4.180171	-0.943959	0.584964	-0.130584	0.800478	0.290065	0.955360	-0.056120	-0.757416	0.265019	0.596729
57638	11.501919	-4.507177	10.319472	0.824800	-3.749243	-0.894335	0.553515	-0.129272	0.822745	0.288859	0.956357	-0.044069	-0.781141	0.262050	0.566699
57639	9.862130	-2.321620	9.398168	0.952362	-3.588645	-0.846687	0.522609	-0.128069	0.842899	0.285912	0.957730	-0.031753	-0.803203	0.257589	0.537134
57640	8.861268	-1.169961	9.597713	0.792408	-3.420158	-0.753460	0.492644	-0.126554	0.860980	0.283345	0.958784	-0.021197	-0.822811	0.254397	0.508197
57641	6.827433	-0.731642	9.195027	0.522518	-3.262212	-0.700413	0.463497	-0.125005	0.877237	0.282391	0.959218	-0.012517	-0.839896	0.253525	0.479895
57642	4.547370	-1.249225	8.027811	0.201131	-3.216578	-0.651965	0.434384	-0.123089	0.892278	0.283665	0.958906	-0.005816	-0.854894	0.255634	0.451450
57643	-0.352177	-3.463669	6.250019	0.146296	-2.995761	-0.612424	0.406791	-0.121286	0.905434	0.285021	0.958521	0.000343	-0.867919	0.257928	0.424487
57644	1.242801	-4.184057	6.792859	0.394496	-3.036129	-0.731303	0.378155	-0.120485	0.917868	0.284494	0.958639	0.008627	-0.880944	0.257866	0.396791
57645	20.076388	-3.214103	9.678652	0.824859	-1.236767	-0.512357	0.365728	-0.122269	0.922656	0.279144	0.960106	0.016583	-0.887875	0.251489	0.385268
57646	6.924880	-1.837483	11.808205	0.558894	0.902155	0.038242	0.373836	-0.124159	0.919147	0.274101	0.961525	0.018401	-0.886067	0.245060	0.393485
57647	0.753603	-3.960409	9.923788	0.471315	1.870617	0.474686	0.391599	-0.124131	0.911724	0.268162	0.963242	0.015965	-0.880193	0.238238	0.410492
57648	-3.148471	-4.369446	6.444412	0.556164	2.164013	0.681259	0.412379	-0.122650	0.902719	0.260605	0.965369	0.012112	-0.872942	0.230258	0.430061
57649	-5.228785	-3.489329	5.013254	0.570863	1.973505	0.788873	0.431520	-0.119512	0.894152	0.252354	0.967606	0.007543	-0.866088	0.222388	0.447700
57650	-3.761626	-2.611011	5.321789	0.497457	1.711304	0.841402	0.448392	-0.115130	0.886391	0.244419	0.969667	0.002303	-0.859770	0.215619	0.462931
57651	-1.504587	-1.769239	5.987192	0.311146	1.632613	0.896753	0.464494	-0.109928	0.878727	0.237703	0.971329	-0.004137	-0.853078	0.210798	0.477307
57652	-0.702637	-0.967530	6.345039	0.062534	1.760507	0.984680	0.481776	-0.104069	0.870093	0.232575	0.972499	-0.012461	-0.844867	0.208365	0.492730
57653	-0.323495	-1.087994	7.192559	-0.265168	1.842452	1.058724	0.499660	-0.097637	0.860702	0.229649	0.973003	-0.022941	-0.835225	0.209122	0.508593
57654	1.386282	-1.738072	8.221035	-0.510488	1.936134	1.083209	0.518230	-0.091201	0.850365	0.228433	0.972935	-0.034865	-0.824170	0.212320	0.525038
57655	3.480181	-2.463735	8.916271	-0.635363	2.151434	1.091740	0.538276	-0.085216	0.838450	0.227904	0.972526	-0.047469	-0.811369	0.216638	0.542908
57656	5.188314	-3.063969	9.178962	-0.627171	2.474022	1.059953	0.560605	-0.080345	0.824176	0.227183	0.972016	-0.059772	-0.796310	0.220747	0.563170
57657	6.302557	-3.234444	9.279814	-0.535542	2.829843	0.975592	0.585065	-0.077174	0.807306	0.225855	0.971585	-0.070802	-0.778902	0.223758	0.585871
57658	6.731516	-3.102484	9.217232	-0.419468	3.140088	0.838221	0.611132	-0.076111	0.787861	0.224128	0.971269	-0.080024	-0.759134	0.225487	0.610632
57659	6.566934	-2.787163	9.012397	-0.345332	3.351819	0.621456	0.637568	-0.077667	0.766469	0.222875	0.970957	-0.087005	-0.737451	0.226298	0.636361
57660	6.421031	-2.233286	8.914547	-0.348754	3.448084	0.363851	0.663440	-0.081978	0.743725	0.223100	0.970440	-0.092048	-0.714194	0.226993	0.662118
57661	6.808013	-1.979773	8.948790	-0.448273	3.454771	0.091189	0.687865	-0.088981	0.720364	0.225674	0.969487	-0.095739	-0.689864	0.228423	0.686957
57662	7.784779	-2.288570	9.058944	-0.589958	3.474091	-0.129116	0.711122	-0.098242	0.696170	0.230632	0.967993	-0.098985	-0.664164	0.230950	0.711020
57663	8.149121	-3.009857	8.882955	-0.695534	3.518668	-0.258810	0.733380	-0.108947	0.671032	0.237071	0.966097	-0.102245	-0.637143	0.234067	0.734345
57664	7.928098	-3.552707	8.705791	-0.730519	3.512962	-0.290247	0.754603	-0.120057	0.645106	0.243843	0.964024	-0.105823	-0.609192	0.237159	0.756730
57665	7.709289	-3.751227	8.701555	-0.737835	3.434802	-0.260997	0.774371	-0.130785	0.619068	0.250273	0.961925	-0.109840	-0.581131	0.239992	0.777618
57666	7.850817	-3.506850	8.855743	-0.756221	3.301322	-0.160991	0.792713	-0.140335	0.593222	0.255883	0.959859	-0.114865	-0.553290	0.242850	0.796802
57667	8.070408	-2.756853	9.090340	-0.815386	3.169618	-0.019897	0.809735	-0.148295	0.567748	0.260484	0.957825	-0.121326	-0.525811	0.246132	0.814212
57668	8.450098	-2.327579	9.456801	-0.945569	3.050133	0.121982	0.825694	-0.154737	0.542482	0.264387	0.955638	-0.129830	-0.498326	0.250625	0.829975
57669	8.969601	-2.116329	9.824486	-1.055121	2.963600	0.255685	0.840708	-0.159824	0.517365	0.267411	0.953354	-0.140029	-0.470851	0.256073	0.844231
57670	9.249738	-2.032593	9.989875	-1.119212	2.918355	0.346359	0.854989	-0.164120	0.491994	0.269644	0.950991	-0.151356	-0.443041	0.262071	0.857341
57671	9.506826	-1.730228	10.161962	-1.123826	2.906696	0.418035	0.868565	-0.167871	0.466278	0.270903	0.948693	-0.163076	-0.414979	0.267958	0.869477
57672	9.681623	-1.418912	10.329639	-1.088149	2.892014	0.477715	0.881462	-0.171207	0.440127	0.271137	0.946531	-0.174823	-0.386664	0.273434	0.880752
57673	9.645448	-1.138697	10.222418	-0.999616	2.888101	0.523808	0.893616	-0.174233	0.413633	0.270250	0.944666	-0.185932	-0.358350	0.277936	0.891256
57674	9.243190	-0.788203	9.971953	-0.879629	2.846012	0.547327	0.904897	-0.177060	0.387053	0.268406	0.943142	-0.196065	-0.330331	0.281306	0.900971
57675	8.867564	-0.583915	9.510724	-0.727967	2.758069	0.555419	0.915099	-0.179627	0.361010	0.265696	0.942063	-0.204752	-0.303315	0.283287	0.909807
57676	8.497601	-0.272490	9.021329	-0.567920	2.603031	0.536037	0.924081	-0.181998	0.336082	0.262463	0.941395	-0.211868	-0.277827	0.283992	0.917693
57677	8.398740	0.021539	8.699538	-0.442688	2.385648	0.513299	0.931751	-0.183956	0.313049	0.258915	0.941063	-0.217632	-0.254564	0.283832	0.924466
57678	8.366606	-0.170532	8.250581	-0.320981	2.141001	0.479151	0.938210	-0.185550	0.292120	0.255262	0.941013	-0.222116	-0.233675	0.282958	0.930231
57679	8.130783	-0.395223	7.864409	-0.198302	1.902394	0.449875	0.943604	-0.186700	0.273414	0.251510	0.941276	-0.225259	-0.215303	0.281322	0.935149
57680	7.950515	-0.869110	7.431410	-0.083048	1.646705	0.432544	0.948096	-0.187276	0.256987	0.247633	0.941828	-0.227241	-0.199481	0.279085	0.939318
57681	8.122216	-1.323873	7.275071	0.020159	1.404431	0.426793	0.951837	-0.187172	0.242844	0.243574	0.942668	-0.228141	-0.186220	0.276303	0.942857
57682	8.376034	-1.563546	7.027468	0.098794	1.198914	0.459657	0.955107	-0.186164	0.230463	0.239055	0.943773	-0.228351	-0.174994	0.273193	0.945908
57683	8.375228	-1.401065	6.691138	0.115870	1.011085	0.528460	0.958065	-0.183938	0.219725	0.233837	0.945052	-0.228467	-0.165628	0.270266	0.948432
57684	8.185794	-0.977072	6.437786	0.055133	0.815968	0.634249	0.960842	-0.180171	0.210524	0.227705	0.946331	-0.229363	-0.157900	0.268319	0.950301
57685	7.862311	-0.825020	6.299501	-0.034628	0.601645	0.750002	0.963443	-0.174699	0.203121	0.220576	0.947555	-0.231268	-0.152066	0.267617	0.951450
57686	7.738802	-1.041471	6.099998	-0.073242	0.368252	0.831469	0.965791	-0.167834	0.197687	0.212708	0.948760	-0.233686	-0.148337	0.267741	0.952004
57687	7.744049	-1.249947	6.024490	-0.001522	0.155794	0.865222	0.967813	-0.160054	0.194220	0.204379	0.950161	-0.235420	-0.146860	0.267537	0.952290
57688	7.644022	-1.037567	5.966292	0.127725	-0.024499	0.855145	0.969481	-0.151889	0.192448	0.195950	0.951814	-0.235910	-0.147342	0.266421	0.952528
57689	7.280751	-0.609715	6.017296	0.261237	-0.199882	0.816610	0.970739	-0.143596	0.192475	0.187674	0.953701	-0.235018	-0.149816	0.264264	0.952743
57690	6.794544	-0.294932	5.990452	0.358233	-0.371577	0.743310	0.971533	-0.135554	0.194291	0.179955	0.955659	-0.233094	-0.154079	0.261422	0.952848
57691	6.602024	0.155677	6.182707	0.396282	-0.543213	0.656655	0.971827	-0.127879	0.197990	0.172986	0.957541	-0.230631	-0.160091	0.258383	0.952685
57692	6.688919	0.396376	6.436244	0.389017	-0.676321	0.558818	0.971661	-0.120816	0.203170	0.166962	0.959216	-0.228096	-0.167326	0.255553	0.952205
57693	6.676031	0.477456	6.691337	0.355573	-0.760197	0.453701	0.971093	-0.114546	0.209422	0.161981	0.960643	-0.225672	-0.175330	0.253071	0.951428
57694	6.623287	0.493329	6.876510	0.318853	-0.809633	0.340543	0.970176	-0.109261	0.216381	0.158147	0.961809	-0.223411	-0.183708	0.250968	0.950403
57695	6.631972	0.424136	7.028275	0.269912	-0.838496	0.226735	0.968943	-0.105001	0.223887	0.155476	0.962716	-0.221371	-0.192295	0.249304	0.949142
57696	6.437157	0.317463	7.055205	0.228271	-0.855181	0.134761	0.967460	-0.101603	0.231730	0.153767	0.963406	-0.219556	-0.200942	0.248044	0.947680
57697	5.966697	0.243724	6.992099	0.180032	-0.869062	0.056654	0.965749	-0.098924	0.239880	0.152885	0.963898	-0.218008	-0.209653	0.247215	0.946007
57698	1.385648	-6.005255	7.845875	0.416498	-0.938191	0.061506	0.963819	-0.096052	0.248650	0.151442	0.964965	-0.214262	-0.219358	0.244166	0.944598
57699	4.197132	-1.317396	5.302399	1.651316	-1.540394	0.026950	0.960333	-0.092161	0.263186	0.147454	0.968892	-0.198759	-0.236681	0.229683	0.944049
57700	0.250208	0.194359	8.979127	1.773526	-1.542879	0.015883	0.956558	-0.088611	0.277749	0.142995	0.972825	-0.182107	-0.254065	0.213913	0.943235
57701	1.326009	0.700528	10.061952	1.491241	-1.542501	0.056519	0.952574	-0.084883	0.292230	0.138578	0.975957	-0.168237	-0.270924	0.200755	0.941434
57702	0.421154	-0.734364	9.648612	1.538302	-1.508198	0.000756	0.948352	-0.081979	0.306444	0.134323	0.978928	-0.153811	-0.287377	0.187030	0.939380
57703	0.853467	0.598561	8.057296	1.632796	-1.607651	-0.213849	0.943291	-0.081208	0.321879	0.131549	0.981679	-0.137843	-0.304788	0.172369	0.936692
57704	-3.275153	6.519007	10.399791	1.468122	-1.765728	-0.432419	0.937166	-0.082556	0.338976	0.131051	0.983750	-0.122727	-0.323336	0.159438	0.932756
57705	3.392534	8.434090	8.458417	-0.006281	-2.490139	-0.143465	0.928617	-0.079994	0.362313	0.132449	0.983616	-0.122302	-0.346593	0.161559	0.923998
57706	2.705692	-0.536618	10.850211	0.281886	-2.632661	-0.500386	0.918483	-0.080698	0.387140	0.136102	0.983659	-0.117861	-0.371303	0.160944	0.914457
57707	30.919624	-0.138334	22.931795	1.551836	-4.062712	-0.967677	0.901249	-0.083951	0.425091	0.138882	0.985260	-0.099869	-0.410441	0.149044	0.899624
57708	26.974093	-6.102211	16.954940	0.295447	1.442349	0.047260	0.907126	-0.085631	0.412055	0.137303	0.985727	-0.097421	-0.397831	0.144950	0.905936
57709	-12.540885	2.103221	2.579807	0.772803	-0.253150	-0.201002	0.905820	-0.087280	0.414576	0.136078	0.986637	-0.089607	-0.401215	0.137583	0.905592
57710	13.343572	-3.560391	16.807684	0.320323	-1.480395	-0.163632	0.899537	-0.086897	0.428116	0.136292	0.986925	-0.086049	-0.415040	0.135753	0.899618
57711	3.363132	7.702895	9.848008	0.521792	0.627604	-0.001240	0.902103	-0.087767	0.422500	0.134191	0.987610	-0.081358	-0.410125	0.130089	0.902704
57712	7.980279	-0.726783	10.346366	-0.195635	-0.661068	0.138034	0.899539	-0.085561	0.428379	0.133797	0.987466	-0.083727	-0.415846	0.132631	0.899712
57713	2.347846	-1.060471	9.259530	0.111728	-0.034986	0.137433	0.899555	-0.084182	0.428619	0.132136	0.987723	-0.083327	-0.416342	0.131593	0.899635
57714	5.492160	-0.068881	9.144771	0.081878	-0.072880	0.133237	0.899407	-0.082795	0.429199	0.130639	0.987935	-0.083180	-0.417134	0.130883	0.899371
57715	4.968632	-1.160097	9.108988	0.012776	-0.160333	0.141482	0.898900	-0.081212	0.430562	0.129354	0.988061	-0.083690	-0.418625	0.130923	0.898673
57716	4.463013	-1.039989	9.289695	0.015301	-0.082458	0.126231	0.898697	-0.079882	0.431234	0.128197	0.988175	-0.084114	-0.419415	0.130876	0.898311
57717	4.843001	-0.940150	9.312380	-0.024067	-0.103850	0.125741	0.898401	-0.078528	0.432099	0.127209	0.988237	-0.084889	-0.420350	0.131231	0.897822
57718	4.802131	-1.850803	9.094230	-0.065448	-0.075856	0.104028	0.898194	-0.077425	0.432728	0.126591	0.988225	-0.085944	-0.420979	0.131974	0.897418
57719	4.831237	-1.805047	9.234947	-0.032965	-0.036308	0.067279	0.898105	-0.076736	0.433035	0.126167	0.988226	-0.086547	-0.421296	0.132363	0.897212
57720	4.556680	-1.177142	9.267385	-0.006860	-0.020444	0.044962	0.898055	-0.076290	0.433217	0.125834	0.988245	-0.086823	-0.421501	0.132485	0.897098
57721	4.564127	-0.949342	9.240679	-0.004947	-0.022690	0.032446	0.897979	-0.075963	0.433432	0.125604	0.988256	-0.087024	-0.421731	0.132586	0.896975
57722	4.529099	-0.801697	9.318149	-0.004648	-0.010427	0.031051	0.897954	-0.075668	0.433535	0.125388	0.988267	-0.087219	-0.421849	0.132679	0.896906
57723	4.467170	-0.795183	9.251777	0.016003	-0.015664	0.025327	0.897899	-0.075421	0.433693	0.125133	0.988300	-0.087201	-0.422042	0.132567	0.896831
57724	4.447274	-0.869489	9.254032	0.010773	-0.012060	0.032375	0.897868	-0.075110	0.433810	0.124840	0.988332	-0.087264	-0.422194	0.132508	0.896768
57725	4.422314	-0.964159	9.331009	0.011353	-0.002343	0.029880	0.897874	-0.074836	0.433845	0.124564	0.988363	-0.087308	-0.422262	0.132433	0.896748
57726	4.374414	-0.991004	9.337327	0.010190	0.008573	0.029733	0.897928	-0.074578	0.433779	0.124296	0.988392	-0.087364	-0.422228	0.132364	0.896774
57727	4.362763	-1.079102	9.265582	0.017588	0.014551	0.028014	0.898003	-0.074345	0.433663	0.124011	0.988429	-0.087344	-0.422152	0.132214	0.896832
57728	4.333160	-1.207383	9.269981	0.007743	0.005433	0.024297	0.898036	-0.074137	0.433630	0.123803	0.988450	-0.087399	-0.422143	0.132172	0.896842
57729	4.359449	-1.133352	9.316012	0.007410	0.008717	0.020857	0.898077	-0.073967	0.433573	0.123625	0.988469	-0.087439	-0.422106	0.132128	0.896866
57730	4.430344	-1.100831	9.233380	0.006159	0.005569	0.016474	0.898101	-0.073836	0.433546	0.123494	0.988482	-0.087475	-0.422094	0.132101	0.896876
57731	4.419501	-1.121299	9.259444	0.000778	-0.004148	0.014749	0.898081	-0.073709	0.433610	0.123399	0.988488	-0.087548	-0.422165	0.132132	0.896838
57732	4.440348	-1.048005	9.256640	-0.007513	0.006021	0.012801	0.898102	-0.073616	0.433581	0.123358	0.988480	-0.087690	-0.422131	0.132240	0.896838
57733	4.535608	-0.941916	9.195286	-0.000764	0.006899	0.007830	0.898120	-0.073572	0.433552	0.123332	0.988478	-0.087747	-0.422101	0.132278	0.896846
57734	4.496781	-0.968750	9.274299	-0.003162	0.006896	0.005718	0.898136	-0.073549	0.433522	0.123337	0.988471	-0.087820	-0.422065	0.132343	0.896854
57735	4.493205	-0.935505	9.299366	-0.006422	-0.000272	0.007201	0.898123	-0.073502	0.433558	0.123340	0.988462	-0.087924	-0.422092	0.132442	0.896826
57736	4.436171	-0.928888	9.282016	-0.004630	0.005556	0.006970	0.898135	-0.073466	0.433539	0.123340	0.988454	-0.088016	-0.422067	0.132523	0.896826
57737	4.472846	-0.957270	9.252785	-0.003750	-0.002814	0.008217	0.898113	-0.073405	0.433596	0.123322	0.988448	-0.088101	-0.422120	0.132597	0.896790
57738	4.479341	-0.991893	9.251858	-0.004078	-0.003417	0.005986	0.898086	-0.073366	0.433658	0.123329	0.988440	-0.088183	-0.422176	0.132679	0.896752
57739	4.463263	-1.012524	9.229019	-0.000257	-0.012990	0.005939	0.898017	-0.073315	0.433809	0.123317	0.988438	-0.088227	-0.422325	0.132726	0.896675
57740	4.453360	-1.067067	9.205475	-0.003480	-0.001474	0.005909	0.897998	-0.073279	0.433854	0.123321	0.988430	-0.088304	-0.422363	0.132800	0.896646
57741	4.467006	-1.047527	9.203665	-0.002554	0.001073	0.008063	0.897992	-0.073225	0.433877	0.123301	0.988426	-0.088378	-0.422383	0.132860	0.896627
57742	4.410156	-1.006861	9.235371	-0.008217	-0.002213	0.006223	0.897970	-0.073186	0.433928	0.123322	0.988413	-0.088498	-0.422423	0.132982	0.896591
57743	4.352392	-1.054493	9.267182	-0.010013	-0.004157	0.005244	0.897938	-0.073153	0.434000	0.123358	0.988397	-0.088627	-0.422481	0.133119	0.896543
57744	4.415196	-0.955255	9.209560	-0.012950	-0.006835	0.007748	0.897899	-0.073092	0.434091	0.123386	0.988378	-0.088797	-0.422556	0.133291	0.896482
57745	4.391794	-0.997234	9.236679	-0.018937	-0.014605	0.004888	0.897822	-0.073049	0.434257	0.123463	0.988350	-0.089003	-0.422696	0.133524	0.896381
57746	4.399313	-1.033178	9.235087	-0.018608	-0.013999	0.007120	0.897752	-0.072984	0.434413	0.123521	0.988323	-0.089221	-0.422829	0.133758	0.896284
57747	4.384002	-1.055756	9.211645	-0.027206	-0.019957	0.007786	0.897656	-0.072905	0.434625	0.123607	0.988286	-0.089515	-0.423007	0.134076	0.896152
57748	4.408643	-1.072688	9.232200	-0.032815	-0.016203	0.008071	0.897578	-0.072829	0.434799	0.123716	0.988240	-0.089864	-0.423141	0.134452	0.896032
57749	4.400723	-1.042248	9.207700	-0.037609	-0.016196	0.003850	0.897493	-0.072793	0.434980	0.123882	0.988186	-0.090234	-0.423273	0.134870	0.895907
57750	4.436066	-1.039925	9.202136	-0.045936	-0.020803	0.002212	0.897388	-0.072768	0.435201	0.124099	0.988118	-0.090675	-0.423432	0.135379	0.895755
57751	4.414849	-0.996737	9.228352	-0.049139	-0.020925	0.005820	0.897285	-0.072706	0.435423	0.124296	0.988049	-0.091156	-0.423592	0.135915	0.895599
57752	4.441106	-0.994941	9.149960	-0.046196	-0.022119	0.004526	0.897177	-0.072656	0.435654	0.124494	0.987982	-0.091610	-0.423762	0.136427	0.895440
57753	4.438807	-1.053425	9.173552	-0.043191	-0.024053	0.007769	0.897064	-0.072571	0.435901	0.124648	0.987922	-0.092047	-0.423957	0.136906	0.895275
57754	4.460481	-1.105007	9.120333	-0.034865	-0.015556	0.008206	0.896988	-0.072493	0.436070	0.124766	0.987873	-0.092415	-0.424082	0.137302	0.895155
57755	4.465115	-1.108323	9.143416	-0.031717	-0.018557	0.001268	0.896890	-0.072479	0.436274	0.124930	0.987824	-0.092720	-0.424242	0.137663	0.895024
57756	4.466080	-1.110985	9.142621	-0.024538	-0.003044	0.002781	0.896861	-0.072472	0.436336	0.125052	0.987784	-0.092972	-0.424268	0.137948	0.894968
57757	4.425540	-1.106118	9.245888	-0.026724	-0.008714	-0.003764	0.896798	-0.072522	0.436457	0.125240	0.987738	-0.093211	-0.424345	0.138253	0.894884
57758	4.436898	-1.088306	9.219312	-0.030923	-0.006756	-0.008054	0.896739	-0.072617	0.436561	0.125487	0.987682	-0.093473	-0.424396	0.138604	0.894806
57759	4.391431	-0.995927	9.274247	-0.043123	-0.004913	-0.012951	0.896681	-0.072762	0.436657	0.125827	0.987606	-0.093818	-0.424419	0.139068	0.894723
57760	4.371710	-1.006899	9.374323	-0.060956	-0.021852	-0.014876	0.896549	-0.072903	0.436903	0.126262	0.987503	-0.094319	-0.424567	0.139726	0.894550
57761	4.336095	-0.897221	9.377873	-0.081777	-0.040700	-0.018832	0.896332	-0.073056	0.437324	0.126819	0.987368	-0.094984	-0.424861	0.140598	0.894274
57762	4.286169	-0.984519	9.381642	-0.074862	-0.060703	-0.008738	0.896043	-0.073081	0.437912	0.127259	0.987248	-0.095636	-0.425339	0.141422	0.893917
57763	4.485071	-1.020237	9.180041	-0.080736	-0.080781	-0.003462	0.895673	-0.073025	0.438677	0.127674	0.987124	-0.096358	-0.425992	0.142313	0.893464
57764	4.387725	-1.033972	9.312442	-0.088440	-0.083364	-0.005147	0.895291	-0.072981	0.439463	0.128141	0.986987	-0.097146	-0.426654	0.143287	0.892992
57765	4.418674	-1.123502	9.230044	-0.097258	-0.090559	-0.002147	0.894880	-0.072896	0.440313	0.128616	0.986838	-0.098020	-0.427372	0.144348	0.892478
57766	4.531151	-1.147133	9.186160	-0.102960	-0.092964	-0.008485	0.894452	-0.072869	0.441187	0.129176	0.986675	-0.098922	-0.428100	0.145472	0.891946
57767	4.442137	-1.175911	9.218317	-0.110924	-0.092973	-0.009041	0.894020	-0.072847	0.442064	0.129773	0.986500	-0.099887	-0.428820	0.146669	0.891404
57768	4.487690	-1.213123	9.182795	-0.113873	-0.098665	-0.009848	0.893564	-0.072822	0.442990	0.130393	0.986317	-0.100878	-0.429582	0.147904	0.890833
57769	4.428923	-1.257599	9.284457	-0.124935	-0.092041	-0.019327	0.893122	-0.072900	0.443869	0.131143	0.986110	-0.101921	-0.430274	0.149238	0.890277
57770	4.364849	-1.270016	9.386919	-0.157945	-0.111839	-0.031385	0.892579	-0.073066	0.444932	0.132147	0.985842	-0.103208	-0.431092	0.150918	0.889597
57771	4.374175	-1.217102	9.454904	-0.168689	-0.130118	-0.039358	0.891943	-0.073280	0.446170	0.133268	0.985550	-0.104548	-0.432062	0.152711	0.888821
57772	4.305441	-1.143703	9.484318	-0.190373	-0.154165	-0.048712	0.891191	-0.073547	0.447627	0.134569	0.985214	-0.106042	-0.433209	0.154740	0.887911
57773	4.325034	-0.950689	9.527662	-0.192103	-0.192165	-0.051399	0.890266	-0.073777	0.449426	0.135902	0.984869	-0.107531	-0.434693	0.156809	0.886822
57774	4.364690	-0.915129	9.588564	-0.209561	-0.257250	-0.046918	0.889061	-0.073857	0.451792	0.137275	0.984496	-0.109197	-0.436723	0.159103	0.885415
57775	4.352162	-0.851162	9.532761	-0.215791	-0.303212	-0.032151	0.887666	-0.073710	0.454549	0.138547	0.984119	-0.110975	-0.439150	0.161485	0.883781
57776	4.485474	-0.894338	9.327561	-0.215629	-0.362424	-0.014309	0.886029	-0.073285	0.457800	0.139667	0.983749	-0.112833	-0.442091	0.163913	0.881866
57777	4.505199	-1.054467	9.257677	-0.207881	-0.395729	-0.001848	0.884249	-0.072673	0.461327	0.140647	0.983397	-0.114671	-0.445334	0.166282	0.879788
57778	4.456110	-1.062489	9.374587	-0.194617	-0.438756	0.003469	0.882271	-0.071928	0.465214	0.141530	0.983065	-0.116416	-0.448962	0.168552	0.877510
57779	4.444629	-1.305284	9.403188	-0.190405	-0.485417	0.008466	0.880071	-0.071044	0.469496	0.142356	0.982740	-0.118138	-0.453000	0.170806	0.874995
57780	4.270704	-1.306192	9.564496	-0.185340	-0.546990	-0.002275	0.877558	-0.070149	0.474312	0.143263	0.982411	-0.119766	-0.457568	0.173053	0.872172
57781	4.274394	-1.307468	9.670679	-0.191219	-0.618980	-0.010706	0.874671	-0.069199	0.479753	0.144278	0.982063	-0.121393	-0.462747	0.175397	0.868966
57782	4.138847	-1.322754	9.824983	-0.193859	-0.714522	-0.028111	0.871282	-0.068236	0.486016	0.145470	0.981692	-0.122957	-0.468729	0.177831	0.865257
57783	4.224555	-1.254263	9.841615	-0.192617	-0.818278	-0.037645	0.867339	-0.067162	0.493165	0.146749	0.981314	-0.124448	-0.475591	0.180310	0.860988
57784	4.104972	-1.049433	10.076117	-0.195068	-0.947657	-0.050770	0.862700	-0.065963	0.501396	0.148167	0.980917	-0.125888	-0.483524	0.182894	0.856011
57785	3.888045	-0.986666	10.476650	-0.196928	-1.117312	-0.059633	0.857132	-0.064511	0.511042	0.149683	0.980508	-0.127278	-0.492869	0.185588	0.850080
57786	3.730578	-1.055919	10.638157	-0.160106	-1.326788	-0.080745	0.850377	-0.062847	0.522407	0.151214	0.980148	-0.128233	-0.503977	0.188041	0.842999
57787	3.550342	-1.266251	10.526527	-0.154695	-1.539612	-0.118767	0.842313	-0.061118	0.535513	0.153051	0.979774	-0.128913	-0.516802	0.190546	0.834630
57788	3.402780	-1.649820	10.226252	-0.157363	-1.818114	-0.169294	0.832499	-0.059311	0.550842	0.155338	0.979361	-0.129314	-0.531804	0.193220	0.824531
57789	3.591331	-1.862585	10.073230	-0.113815	-2.105423	-0.244387	0.820711	-0.057632	0.568430	0.158015	0.978989	-0.128887	-0.549059	0.195600	0.812573
57790	3.802321	-1.515049	9.858188	-0.057235	-2.401569	-0.343027	0.806724	-0.056293	0.588241	0.161171	0.978672	-0.127378	-0.568524	0.197566	0.798591
57791	4.180493	-1.683595	9.502463	-0.047769	-2.651783	-0.407783	0.790674	-0.055039	0.609759	0.164748	0.978342	-0.125320	-0.589655	0.199544	0.782617
57792	4.532944	-1.291893	9.162173	-0.027058	-2.950811	-0.462222	0.772143	-0.053667	0.633178	0.168567	0.978028	-0.122668	-0.612683	0.201450	0.764224
57793	5.031637	-1.151858	9.096883	0.010392	-3.242071	-0.485650	0.751018	-0.051879	0.658240	0.172244	0.977784	-0.119458	-0.637419	0.203093	0.743270
57794	5.177377	-1.041903	9.264094	0.006039	-3.502001	-0.472979	0.727399	-0.049384	0.684435	0.175747	0.977548	-0.116247	-0.663328	0.204845	0.719746
57795	5.746941	-1.119600	9.089249	-0.032258	-3.787542	-0.437049	0.700952	-0.045877	0.711732	0.179131	0.977265	-0.113425	-0.690347	0.206998	0.693234
57796	6.744334	-1.296864	8.729794	-0.072091	-3.981517	-0.393351	0.672188	-0.041451	0.739219	0.182384	0.976934	-0.111066	-0.717564	0.209479	0.664244
57797	7.325646	-1.083931	8.153851	-0.048710	-4.129561	-0.309406	0.641390	-0.035799	0.766380	0.184817	0.976704	-0.109050	-0.744622	0.211583	0.633064
57798	9.505612	-1.016107	8.172482	-0.076236	-4.121623	-0.212003	0.609752	-0.029126	0.792057	0.186766	0.976464	-0.107872	-0.770273	0.213705	0.600841
57799	11.121648	-1.894108	8.715506	-0.085700	-3.995653	-0.138662	0.578201	-0.021923	0.815600	0.188304	0.976237	-0.107253	-0.793867	0.215594	0.568590
57800	12.020183	-3.041238	9.086927	0.097903	-3.634739	-0.116470	0.548729	-0.015251	0.835861	0.188218	0.976418	-0.105747	-0.814537	0.215350	0.538660
57801	11.055037	-3.362017	9.567544	0.402953	-3.425583	-0.133255	0.520209	-0.009255	0.853989	0.185652	0.977255	-0.102499	-0.833616	0.211866	0.510095
57802	10.341396	-3.359014	8.942605	0.704622	-3.224626	-0.175600	0.492702	-0.004269	0.870188	0.180651	0.978704	-0.097483	-0.851240	0.205230	0.482981
57803	10.162384	-3.110550	8.838861	0.936352	-3.152015	-0.203836	0.465202	0.000039	0.885204	0.173619	0.980573	-0.091286	-0.868011	0.196155	0.456158
57804	10.250752	-3.643674	8.659474	1.218999	-2.997205	-0.222411	0.438560	0.003534	0.898695	0.163994	0.982888	-0.083893	-0.883613	0.184173	0.430476
57805	9.511326	-3.499493	8.529245	1.524616	-2.863044	-0.208866	0.412680	0.006512	0.910853	0.151340	0.985585	-0.075614	-0.898216	0.169053	0.405746
57806	9.315606	-2.851473	8.462581	1.716180	-2.757284	-0.143436	0.387508	0.009500	0.921817	0.136430	0.988345	-0.067538	-0.911715	0.151935	0.381696
57807	8.108195	-2.252184	8.076980	1.722615	-2.657054	-0.033212	0.363035	0.012955	0.931685	0.120784	0.990813	-0.060841	-0.923914	0.134620	0.358135
57808	5.510420	-2.930112	6.790992	1.626836	-2.593275	0.040489	0.338972	0.016612	0.940650	0.105570	0.992858	-0.055578	-0.934854	0.118143	0.334798
57809	3.484372	-4.883853	3.652891	1.756512	-2.628966	-0.003047	0.314214	0.019428	0.949154	0.089107	0.994773	-0.049860	-0.945161	0.100243	0.310840
57810	0.038933	-3.644247	0.884769	2.100424	-2.466361	-0.072982	0.290729	0.020889	0.956577	0.069429	0.996666	-0.042866	-0.954283	0.078876	0.288310
57811	-1.543891	5.853814	12.378374	1.458306	-1.910875	-0.136597	0.272306	0.020865	0.961984	0.055890	0.997734	-0.037461	-0.960586	0.063966	0.270523
57812	15.970883	0.652762	20.413385	0.256572	0.297012	0.128544	0.275235	0.021938	0.961127	0.053124	0.997865	-0.037990	-0.959908	0.061516	0.273482
57813	8.950682	-2.929832	17.403774	-0.049912	2.331559	0.248729	0.297630	0.022946	0.954405	0.052929	0.997777	-0.040495	-0.953213	0.062568	0.295754
57814	-3.768379	-4.249215	12.051195	-0.157135	3.300931	0.120131	0.329011	0.022016	0.944069	0.054095	0.997647	-0.042118	-0.942775	0.064927	0.327046
57815	-6.591842	-4.957747	9.294821	-0.065171	3.384364	-0.065617	0.360648	0.019113	0.932506	0.054973	0.997616	-0.041708	-0.931081	0.066305	0.358737
57816	-4.659967	-3.278770	9.995322	0.031873	3.372711	-0.261259	0.391728	0.014241	0.919971	0.055719	0.997678	-0.039170	-0.918392	0.066604	0.390025
57817	-3.133335	-1.692481	10.932077	-0.177732	3.387513	-0.337954	0.422374	0.008549	0.906381	0.058757	0.997594	-0.036790	-0.904515	0.068795	0.420855
57818	-1.204937	-1.579256	10.651563	-0.459071	3.478212	-0.317754	0.453415	0.002878	0.891295	0.064328	0.997281	-0.035944	-0.888975	0.073633	0.451997
57819	-0.821733	-1.558805	10.437471	-0.764405	3.628304	-0.235844	0.485156	-0.002312	0.874425	0.072206	0.996687	-0.037427	-0.871441	0.081297	0.483715
57820	-0.091225	-2.302883	10.735581	-1.030286	3.676810	-0.116247	0.516807	-0.006672	0.856076	0.081733	0.995786	-0.041581	-0.852192	0.091459	0.515174
