// General information: 
//  MT Manager version: 2022.2.0 
//  XDA version: 2022.2.0 build 7381 rev 124627 built on 2023-07-19
// Device information: 
//  DeviceId: 00B4CB9F
//  ProductCode: MTW2-3A7G6
//  Firmware Version: 4.6.0
//  Hardware Version: 2.0.0
// Device settings: 
//  Filter Profile: human(46.1)
//  Option Flags: Orientation Smoother Disabled, Position/Velocity Smoother Disabled, Continuous Zero Rotation Update Disabled, AHS Disabled, ICC Disabled
// Coordinate system: ENU
PacketCounter	Acc_X	Acc_Y	Acc_Z	Gyr_X	Gyr_Y	Gyr_Z	Mat[1][1]	Mat[2][1]	Mat[3][1]	Mat[1][2]	Mat[2][2]	Mat[3][2]	Mat[1][3]	Mat[2][3]	Mat[3][3]
07395	9.471044	2.050476	-1.453720	-0.017060	0.040482	-0.017198	0.133922	-0.222749	0.965633	-0.905102	0.369308	0.210717	-0.403553	-0.902217	-0.152152
07396	9.479017	2.110594	-1.390429	0.010942	0.034170	-0.019495	0.134586	-0.222211	0.965665	-0.905209	0.368862	0.211040	-0.403093	-0.902531	-0.151503
07397	9.477968	2.178489	-1.364218	-0.002284	0.023754	-0.020837	0.135162	-0.221916	0.965652	-0.905163	0.368746	0.211437	-0.403002	-0.902651	-0.151030
07398	9.506741	2.109128	-1.398694	-0.027336	0.015527	-0.019048	0.135628	-0.221791	0.965616	-0.904871	0.369201	0.211897	-0.403503	-0.902496	-0.150619
07399	9.460005	2.125822	-1.566619	-0.059524	0.009162	-0.017406	0.135986	-0.221796	0.965564	-0.904265	0.370377	0.212430	-0.404739	-0.902013	-0.150196
07400	9.511871	2.012236	-1.601349	-0.060137	0.002371	-0.013573	0.136195	-0.221921	0.965506	-0.903677	0.371553	0.212875	-0.405978	-0.901498	-0.149942
07401	9.521642	2.025025	-1.490959	-0.034596	0.034922	-0.019978	0.136870	-0.221372	0.965537	-0.903323	0.372131	0.213370	-0.406540	-0.901395	-0.149037
07402	9.496477	2.063178	-1.425226	-0.027271	0.045321	-0.020786	0.137670	-0.220596	0.965601	-0.903033	0.372551	0.213860	-0.406912	-0.901412	-0.147916
07403	9.473864	2.114403	-1.441631	-0.035316	0.042042	-0.024372	0.138526	-0.219925	0.965631	-0.902641	0.373148	0.214475	-0.407492	-0.901329	-0.146823
07404	9.474808	2.120945	-1.512963	-0.061019	0.033715	-0.024016	0.139284	-0.219442	0.965632	-0.902001	0.374297	0.215165	-0.408649	-0.900970	-0.145803
07405	9.500582	2.027354	-1.527787	-0.091950	0.029786	-0.017427	0.139855	-0.218985	0.965653	-0.901054	0.376201	0.215811	-0.410539	-0.900288	-0.144703
07406	9.491199	1.965997	-1.502666	-0.068373	0.028028	-0.015341	0.140357	-0.218548	0.965679	-0.900349	0.377595	0.216318	-0.411912	-0.899810	-0.143771
07407	9.456580	2.082465	-1.445146	-0.049849	0.033769	-0.024238	0.141123	-0.218069	0.965676	-0.899815	0.378493	0.216969	-0.412816	-0.899549	-0.142807
07408	9.424250	2.150888	-1.366572	-0.028304	0.035553	-0.032006	0.142072	-0.217622	0.965638	-0.899466	0.378889	0.217725	-0.413251	-0.899491	-0.141915
07409	9.468924	2.292640	-1.192369	-0.011051	0.026423	-0.031848	0.142924	-0.217380	0.965567	-0.899293	0.378902	0.218417	-0.413335	-0.899544	-0.141334
07410	9.488357	2.387060	-1.082791	-0.022804	0.016165	-0.017967	0.143356	-0.217236	0.965535	-0.899046	0.379258	0.218814	-0.413721	-0.899429	-0.140936
07411	9.514284	2.296946	-1.055899	-0.043171	0.013573	-0.008511	0.143561	-0.217060	0.965544	-0.898621	0.380120	0.219064	-0.414573	-0.899107	-0.140484
07412	9.470830	2.180440	-1.202728	-0.056812	0.009231	-0.005495	0.143651	-0.216952	0.965555	-0.898073	0.381287	0.219283	-0.415727	-0.898639	-0.140066
07413	9.493339	2.041416	-1.349166	-0.045417	0.010199	-0.007995	0.143803	-0.216846	0.965556	-0.897632	0.382188	0.219519	-0.416625	-0.898282	-0.139688
07414	9.480542	2.012283	-1.433219	-0.002133	0.029671	-0.016906	0.144374	-0.216388	0.965574	-0.897632	0.382013	0.219825	-0.416430	-0.898466	-0.139084
07415	9.458745	2.159144	-1.344539	0.022528	0.026779	-0.026487	0.145121	-0.216085	0.965530	-0.897825	0.381296	0.220279	-0.415752	-0.898844	-0.138673
07416	9.446494	2.312102	-1.237161	0.033367	0.020598	-0.026005	0.145793	-0.215916	0.965466	-0.898140	0.380321	0.220681	-0.414835	-0.899298	-0.138474
07417	9.476425	2.256154	-1.193417	-0.006876	0.000247	-0.010743	0.145895	-0.216060	0.965419	-0.898092	0.380343	0.220841	-0.414905	-0.899254	-0.138551
07418	9.478054	2.196354	-1.241444	-0.023758	-0.005553	-0.011774	0.145965	-0.216342	0.965345	-0.897849	0.380769	0.221093	-0.415405	-0.899006	-0.138664
07419	9.476939	2.192747	-1.276460	-0.030857	-0.011147	-0.008391	0.145912	-0.216718	0.965268	-0.897560	0.381334	0.221292	-0.416048	-0.898676	-0.138876
07420	9.469338	2.134393	-1.352732	-0.014147	-0.000493	-0.012637	0.146063	-0.216893	0.965206	-0.897410	0.381542	0.221541	-0.416318	-0.898545	-0.138913
07421	9.484489	2.190716	-1.282733	0.028882	0.009185	-0.013690	0.146318	-0.216863	0.965174	-0.897717	0.380761	0.221644	-0.415567	-0.898884	-0.138969
07422	9.473695	2.270935	-1.234300	0.039528	0.009189	-0.015290	0.146630	-0.216846	0.965131	-0.898122	0.379731	0.221768	-0.414579	-0.899323	-0.139074
07423	9.467088	2.225562	-1.271167	0.008012	-0.017066	-0.012741	0.146611	-0.217395	0.965010	-0.898224	0.379392	0.221933	-0.414365	-0.899333	-0.139647
07424	9.509925	2.097687	-1.413772	-0.013953	-0.029604	-0.012763	0.146457	-0.218226	0.964846	-0.898085	0.379581	0.222176	-0.414722	-0.899053	-0.140393
07425	9.538335	1.945016	-1.531329	0.003793	-0.037226	-0.022575	0.146448	-0.219321	0.964599	-0.898110	0.379279	0.222590	-0.414670	-0.898914	-0.141430
07426	9.560177	1.995522	-1.464804	0.086941	-0.025898	-0.033519	0.146795	-0.220266	0.964331	-0.898942	0.377078	0.222971	-0.412741	-0.899608	-0.142653
07427	9.565900	2.256247	-1.109511	0.204060	0.007807	-0.034742	0.147528	-0.220460	0.964175	-0.900983	0.372182	0.222959	-0.408002	-0.901598	-0.143723
07428	9.429701	2.772215	-0.941672	0.305671	0.025276	-0.047164	0.148719	-0.220368	0.964013	-0.903947	0.364970	0.222883	-0.400952	-0.904563	-0.144923
07429	9.304386	3.224458	-0.802128	0.226279	-0.003973	-0.026746	0.149174	-0.220742	0.963857	-0.906184	0.359559	0.222594	-0.395700	-0.906637	-0.146396
07430	9.303364	2.750055	-1.349040	0.022837	-0.066716	0.044488	0.147401	-0.221897	0.963864	-0.906646	0.359168	0.221338	-0.395304	-0.906510	-0.148241
07431	9.300147	2.021346	-1.290077	0.045173	-0.078726	0.062839	0.145062	-0.223165	0.963926	-0.907377	0.358429	0.219534	-0.394492	-0.906491	-0.150501
07432	9.672137	1.891460	-1.433090	0.119833	-0.047965	0.051984	0.143285	-0.223834	0.964037	-0.908791	0.355945	0.217719	-0.391877	-0.907305	-0.152417
07433	9.432826	1.883683	-1.725700	0.091865	-0.021719	0.068140	0.141395	-0.223767	0.964332	-0.909989	0.354166	0.215609	-0.389780	-0.908017	-0.153548
07434	9.302625	1.674732	-1.895250	0.091459	-0.068944	0.067774	0.139036	-0.224781	0.964439	-0.911165	0.352419	0.213494	-0.387876	-0.908446	-0.155814
07435	9.513597	1.986445	-1.815099	0.179308	-0.006504	0.035556	0.138055	-0.224663	0.964607	-0.913073	0.348459	0.211837	-0.383718	-0.910002	-0.157027
07436	9.339042	2.568334	-1.682123	0.168532	0.003652	0.058297	0.136644	-0.224122	0.964934	-0.914934	0.344871	0.209665	-0.379769	-0.911500	-0.157932
07437	9.214336	2.701193	-1.504937	0.187981	-0.039780	0.093873	0.134004	-0.224275	0.965269	-0.917067	0.341062	0.206557	-0.375542	-0.912895	-0.159972
07438	9.357168	3.038966	-1.252246	0.168036	-0.042615	0.128245	0.130544	-0.224213	0.965757	-0.919134	0.337813	0.202669	-0.371686	-0.914118	-0.161982
07439	9.353646	2.964541	-1.236354	-0.029809	-0.084350	0.223566	0.124491	-0.224300	0.966536	-0.919616	0.339688	0.197278	-0.372570	-0.913401	-0.163982
07440	9.270959	2.240724	-1.689502	-0.239176	-0.168768	0.283696	0.116257	-0.225768	0.967219	-0.918300	0.346607	0.191281	-0.378430	-0.910436	-0.167027
07441	9.356973	1.549681	-2.129008	-0.374968	-0.214346	0.299128	0.107235	-0.228058	0.967724	-0.915605	0.356719	0.185525	-0.387516	-0.905948	-0.170558
07442	9.737616	0.510409	-2.272948	-0.319027	-0.160169	0.275781	0.099260	-0.229240	0.968296	-0.913230	0.365461	0.180137	-0.395169	-0.902157	-0.173073
07443	9.454971	0.703949	-2.946187	-0.142753	-0.040571	0.236073	0.093345	-0.228038	0.969167	-0.912456	0.369903	0.174919	-0.398386	-0.900650	-0.173546
07444	9.186800	1.988989	-3.076161	-0.113657	-0.012706	0.217871	0.088122	-0.226354	0.970051	-0.911871	0.373612	0.170016	-0.400906	-0.899543	-0.173482
07445	9.625463	2.221862	-2.799071	-0.400248	-0.071559	0.268458	0.081132	-0.225475	0.970865	-0.908424	0.384063	0.165109	-0.410101	-0.895353	-0.173667
07446	10.186794	1.162423	-1.447664	-0.522424	-0.042692	0.315815	0.073397	-0.223403	0.971959	-0.903642	0.397445	0.159590	-0.421953	-0.890016	-0.172705
07447	9.725758	0.983723	-1.316561	-0.428419	0.055992	0.292618	0.067270	-0.219271	0.973342	-0.899643	0.408491	0.154200	-0.431414	-0.886033	-0.169787
07448	9.560666	1.629158	-0.783565	-0.205032	0.161939	0.283401	0.062543	-0.212827	0.975086	-0.897939	0.414469	0.148059	-0.435654	-0.884827	-0.165184
07449	8.775728	1.985898	-0.575131	-0.153043	0.179211	0.226840	0.059290	-0.206548	0.976638	-0.896654	0.418986	0.143045	-0.438743	-0.884188	-0.160361
07450	9.232718	1.083776	-1.201894	0.069001	-0.092157	0.219144	0.053225	-0.206342	0.977031	-0.897779	0.418502	0.137292	-0.437219	-0.884465	-0.162975
07451	9.306860	2.840873	-0.746309	0.563678	-0.035895	0.156207	0.049194	-0.205578	0.977404	-0.904111	0.406705	0.131047	-0.424455	-0.890129	-0.165858
07452	9.646284	3.825890	0.353788	0.121242	-0.254954	0.173295	0.042466	-0.209541	0.976877	-0.905644	0.404823	0.126205	-0.421908	-0.890062	-0.172578
07453	10.262426	2.887924	0.183912	-0.161312	-0.165940	0.277232	0.034322	-0.210456	0.977001	-0.904259	0.409766	0.120034	-0.425603	-0.887581	-0.176243
07454	9.513399	1.539916	0.453970	-0.527756	-0.243251	0.352261	0.023644	-0.212205	0.976939	-0.898870	0.423213	0.113682	-0.437577	-0.880829	-0.180738
07455	9.474240	0.093100	-1.861300	-0.912693	-0.572970	0.412661	0.007884	-0.220286	0.975403	-0.888876	0.445296	0.107751	-0.458079	-0.867863	-0.192297
07456	9.815562	-1.812315	-3.819451	-0.783385	-0.499743	0.391685	-0.006730	-0.226620	0.973960	-0.879789	0.464303	0.101954	-0.475317	-0.856193	-0.202503
07457	10.085304	-2.506266	-4.349844	-0.260022	-0.173709	0.255725	-0.014544	-0.227361	0.973702	-0.876670	0.471225	0.096937	-0.480872	-0.852206	-0.206174
07458	9.467672	-1.020049	-3.761462	0.252183	0.096902	0.072552	-0.015120	-0.224447	0.974369	-0.879701	0.466196	0.093738	-0.475286	-0.855736	-0.204496
07459	9.368277	1.023095	-1.042673	0.601564	0.011734	-0.048748	-0.014045	-0.224776	0.974309	-0.886821	0.452922	0.091707	-0.461899	-0.862750	-0.205698
07460	9.294766	3.026351	0.720357	0.346466	-0.201609	-0.067904	-0.014969	-0.229918	0.973095	-0.890872	0.444959	0.091429	-0.454009	-0.865534	-0.211488
07461	9.896534	2.706822	0.616527	0.093241	-0.527244	0.133802	-0.024040	-0.239849	0.970513	-0.891922	0.443634	0.087545	-0.451550	-0.863517	-0.224591
07462	10.058767	2.778728	1.813697	0.201888	-0.364155	0.219867	-0.033161	-0.245285	0.968884	-0.894084	0.440528	0.080924	-0.446670	-0.863580	-0.233914
07463	9.353734	3.136742	0.454601	0.079244	-0.206942	0.236742	-0.040875	-0.247156	0.968113	-0.894814	0.440164	0.074592	-0.444565	-0.863232	-0.239150
07464	8.672494	1.381786	-1.424420	-0.414151	-0.479442	0.266835	-0.052311	-0.254476	0.965663	-0.889914	0.450640	0.070547	-0.453119	-0.855667	-0.250035
07465	9.842438	-1.070725	-2.997099	-0.255348	-0.884383	0.384504	-0.071024	-0.268924	0.960539	-0.886476	0.458492	0.062817	-0.457293	-0.847033	-0.270958
07466	11.026608	-1.360741	-3.412940	0.060367	-0.705722	0.311103	-0.086066	-0.280237	0.956065	-0.886606	0.459268	0.054805	-0.454448	-0.842935	-0.287987
07467	11.953924	-0.183602	-3.219105	0.383593	-0.162755	-0.001389	-0.087967	-0.283672	0.954878	-0.890984	0.451057	0.051918	-0.445432	-0.846213	-0.292426
07468	13.525228	1.092780	-3.101815	0.701107	0.509244	-0.209093	-0.077823	-0.275131	0.958252	-0.899160	0.434550	0.051743	-0.430645	-0.857595	-0.281205
07469	11.484888	3.667218	0.111429	0.174821	1.275240	-0.370965	-0.055907	-0.251597	0.966216	-0.901717	0.428236	0.059336	-0.428698	-0.867936	-0.250810
07470	8.177619	5.750490	2.242577	-0.201671	1.212343	-0.054619	-0.041721	-0.225788	0.973283	-0.899676	0.432176	0.061693	-0.434559	-0.873066	-0.221167
07471	5.817098	4.432641	1.501282	0.012836	0.275725	-0.160275	-0.035220	-0.221463	0.974533	-0.900038	0.430878	0.065389	-0.434386	-0.874813	-0.214500
07472	5.909588	5.649473	0.262682	-0.049346	-0.898550	-0.288549	-0.038565	-0.244158	0.968968	-0.899845	0.430132	0.072569	-0.434503	-0.869122	-0.236292
07473	8.273150	4.410733	-0.937510	-0.583489	-1.293551	-0.285816	-0.046505	-0.275141	0.960279	-0.893793	0.440733	0.082994	-0.446061	-0.854431	-0.266415
07474	10.136796	2.550561	-2.335874	-0.997599	-1.125395	-0.278580	-0.053248	-0.302024	0.951812	-0.882817	0.459702	0.096482	-0.466689	-0.835138	-0.291111
07475	11.976402	2.053853	-3.460054	-1.324249	-0.753921	-0.167223	-0.058758	-0.319514	0.945758	-0.867199	0.485619	0.110184	-0.494483	-0.813686	-0.305617
07476	12.489772	0.778036	-3.676323	-1.600907	-0.199206	0.111098	-0.063738	-0.322094	0.944560	-0.846625	0.518555	0.119698	-0.528360	-0.792058	-0.305744
07477	11.015827	-0.908752	-4.134609	-1.644079	0.017818	0.311363	-0.070095	-0.317571	0.945640	-0.823762	0.553059	0.124671	-0.562586	-0.770243	-0.300369
07478	10.404093	-1.664022	-5.806818	-1.401505	0.425377	0.196319	-0.068053	-0.306627	0.949394	-0.803273	0.581219	0.130138	-0.591710	-0.753767	-0.285859
07479	9.287218	-1.158767	-5.541655	-0.764016	0.533730	0.017672	-0.060507	-0.296278	0.953183	-0.791861	0.595623	0.134871	-0.607697	-0.746628	-0.270650
07480	11.169843	-1.871379	-4.748696	-0.145920	1.098356	-0.315567	-0.037647	-0.280305	0.959173	-0.790098	0.596026	0.143170	-0.611823	-0.752450	-0.243907
07481	10.461423	-1.243447	-3.873096	0.654907	1.362285	-0.505181	-0.007097	-0.261742	0.965112	-0.800398	0.580030	0.151420	-0.599426	-0.771399	-0.213614
07482	9.920607	-0.437924	-3.526552	1.160364	1.507820	-0.717724	0.029464	-0.242288	0.969757	-0.817343	0.552641	0.162908	-0.575398	-0.797424	-0.181749
07483	8.147425	0.539808	-2.777928	1.126148	1.581334	-0.979109	0.071815	-0.223417	0.972074	-0.832052	0.524021	0.181909	-0.550029	-0.821880	-0.148262
07484	7.448924	0.689024	-2.634873	0.876268	1.428323	-1.296114	0.118082	-0.210265	0.970487	-0.840888	0.498657	0.210352	-0.528170	-0.840910	-0.117927
07485	7.669326	0.472461	-3.091336	0.833377	1.387279	-1.468045	0.166886	-0.198609	0.965766	-0.846528	0.473328	0.243621	-0.505510	-0.858204	-0.089136
07486	7.411710	0.881839	-3.213581	1.051132	1.317862	-1.526945	0.215397	-0.187511	0.958355	-0.852241	0.443027	0.278230	-0.476748	-0.876679	-0.064378
07487	7.060814	2.181826	-3.461318	1.135864	1.377656	-1.588756	0.265077	-0.173944	0.948408	-0.855869	0.410571	0.314514	-0.444097	-0.895084	-0.040040
07488	6.474842	4.580652	-3.124333	1.196398	1.289891	-1.593919	0.312874	-0.160496	0.936136	-0.857199	0.376760	0.351085	-0.409047	-0.912301	-0.019699
07489	7.341554	6.003330	-1.510280	0.829794	1.218468	-1.460636	0.356045	-0.145857	0.923016	-0.853258	0.352008	0.384762	-0.381029	-0.924563	0.000877
07490	7.890372	7.078629	0.192230	0.451701	1.059721	-1.078896	0.388715	-0.130618	0.912052	-0.847482	0.337693	0.409557	-0.361490	-0.932149	0.020570
07491	9.463376	7.218417	2.994998	0.195274	0.638613	-0.671513	0.408499	-0.121384	0.904652	-0.842597	0.330919	0.424880	-0.350940	-0.935820	0.032902
07492	11.108903	6.505092	6.172773	-0.033318	1.414396	-0.239949	0.425615	-0.090273	0.900390	-0.839880	0.330960	0.430194	-0.336828	-0.939317	0.065043
07493	4.613218	7.957076	2.153118	-1.539204	1.521392	0.024034	0.438139	-0.054562	0.897250	-0.826950	0.366847	0.426118	-0.352403	-0.928680	0.115610
07494	4.707918	6.168432	2.442477	-1.470786	-0.119333	0.302296	0.430754	-0.054441	0.900826	-0.816762	0.401054	0.414795	-0.383862	-0.914435	0.128290
07495	7.125136	0.950780	2.072958	-1.717765	-0.679625	0.776512	0.408027	-0.061675	0.910884	-0.807592	0.440947	0.391613	-0.425805	-0.895412	0.130110
07496	5.998484	-2.229341	-2.718752	-1.059948	-1.432778	1.150083	0.368845	-0.080462	0.926002	-0.807094	0.466421	0.362009	-0.461034	-0.880896	0.107097
07497	8.625217	-0.260417	-6.198155	0.715562	-3.034751	0.798677	0.317045	-0.138162	0.938293	-0.822382	0.452743	0.344545	-0.472409	-0.880872	0.029918
07498	18.516907	9.960623	0.301403	2.208159	-1.574221	-0.185195	0.302879	-0.175205	0.936786	-0.846171	0.402804	0.348917	-0.438473	-0.898361	-0.026252
07499	11.094354	6.578142	0.472052	-0.870495	0.543426	0.821792	0.291484	-0.154581	0.944003	-0.842645	0.425592	0.329879	-0.452753	-0.891614	-0.006204
07500	8.971904	1.308530	-0.806074	-0.246251	-1.170228	1.126401	0.254143	-0.168488	0.952378	-0.847569	0.435525	0.303224	-0.465873	-0.884268	-0.032119
07501	9.137836	0.454844	-2.350262	-0.400453	-1.212046	0.958946	0.219359	-0.184577	0.958026	-0.848559	0.448501	0.280704	-0.481487	-0.874516	-0.058242
07502	10.616193	0.755391	-2.047393	0.241144	-0.772977	0.828471	0.192304	-0.192238	0.962322	-0.855785	0.447062	0.260321	-0.480261	-0.873602	-0.078542
07503	9.602359	2.103735	0.190843	0.650026	-0.234317	0.768252	0.172870	-0.188933	0.966654	-0.867056	0.436400	0.240353	-0.467259	-0.879693	-0.088374
07504	8.495571	3.363277	1.068968	0.226610	-0.352165	0.766022	0.152002	-0.188377	0.970263	-0.872866	0.434948	0.221189	-0.463681	-0.880531	-0.098315
07505	8.653671	1.707633	-1.593872	-0.403034	-0.865043	0.727176	0.125889	-0.199341	0.971810	-0.870722	0.447226	0.204531	-0.475390	-0.871924	-0.117270
07506	10.086893	0.381995	-3.213549	-0.816530	-0.886466	0.784017	0.098018	-0.209568	0.972869	-0.863067	0.468820	0.187945	-0.495488	-0.858073	-0.134918
07507	9.635623	-2.368023	-6.241534	-0.195726	-0.747150	0.651973	0.074530	-0.217867	0.973129	-0.862094	0.476417	0.172688	-0.501238	-0.851799	-0.152314
07508	10.089032	1.145464	-1.760183	0.626412	-0.761541	0.641655	0.051077	-0.226590	0.972650	-0.870910	0.466551	0.154423	-0.488782	-0.854978	-0.173509
07509	10.013219	0.435247	-2.259858	0.020984	-0.746232	0.726254	0.026005	-0.234034	0.971880	-0.871919	0.470222	0.136562	-0.488960	-0.850952	-0.191831
07510	10.404478	1.161520	-0.890600	0.355780	-0.022961	0.547469	0.013627	-0.228152	0.973530	-0.876556	0.465733	0.121417	-0.481107	-0.855008	-0.193642
07511	8.946677	1.791745	0.075386	0.442250	-0.210376	0.511104	-0.000238	-0.226787	0.973944	-0.881962	0.459087	0.106685	-0.471320	-0.858957	-0.200127
07512	8.925018	2.772777	0.112718	-0.013704	-0.501138	0.413746	-0.015389	-0.232797	0.972404	-0.881774	0.461680	0.096573	-0.471421	-0.855954	-0.212379
07513	8.691572	1.694569	-0.465445	-0.402133	-0.813421	0.485786	-0.035860	-0.244460	0.968996	-0.876736	0.473056	0.086898	-0.479633	-0.846438	-0.231291
07514	9.580085	0.386391	-2.121033	-0.423980	-0.876210	0.528926	-0.058127	-0.256572	0.964776	-0.871042	0.485207	0.076556	-0.487758	-0.835910	-0.251689
07515	9.210205	-0.402802	-2.883808	-0.464026	-0.868823	0.465992	-0.079043	-0.268898	0.959920	-0.864589	0.497822	0.068260	-0.496224	-0.824541	-0.271836
07516	10.527279	-0.700640	-3.805778	0.085086	-0.907424	0.623452	-0.103846	-0.279782	0.954431	-0.864268	0.500272	0.052614	-0.492195	-0.819421	-0.293758
07517	10.229695	0.949165	-1.515780	0.455165	-0.568336	0.659735	-0.125163	-0.283242	0.950846	-0.867967	0.495501	0.033349	-0.480591	-0.821129	-0.307863
07518	10.336129	2.425495	-1.854729	0.357012	-0.614868	0.547167	-0.144484	-0.289124	0.946325	-0.870418	0.492005	0.017424	-0.470634	-0.821181	-0.322746
07519	12.329198	3.074336	-0.623493	0.674863	-0.262449	0.362596	-0.155549	-0.290140	0.944258	-0.876912	0.480640	0.003230	-0.454785	-0.827529	-0.329190
07520	12.301251	3.992199	1.329669	0.224824	0.313766	0.263412	-0.157878	-0.280485	0.946785	-0.878473	0.477766	-0.004948	-0.450954	-0.832507	-0.321828
07521	9.986417	4.151601	2.791972	0.192490	0.594522	0.229164	-0.156314	-0.265340	0.951399	-0.879790	0.475211	-0.012015	-0.448927	-0.838910	-0.307725
07522	8.411708	4.859086	4.932425	0.658636	0.256033	0.165633	-0.157214	-0.257999	0.953268	-0.886476	0.462293	-0.021081	-0.435251	-0.848364	-0.301390
07523	7.655117	6.799223	3.325587	0.256163	0.235087	-0.097208	-0.152567	-0.254108	0.955067	-0.889687	0.456099	-0.020771	-0.430327	-0.852879	-0.295662
07524	9.040148	6.199985	-1.330184	-1.287654	-0.471308	-0.399261	-0.149015	-0.268715	0.951623	-0.876974	0.480534	-0.001635	-0.456848	-0.834793	-0.307263
07525	10.819014	2.993933	-4.245249	-2.568423	-1.051402	-0.384984	-0.153433	-0.294996	0.943099	-0.847497	0.530065	0.027921	-0.508140	-0.794990	-0.331338
07526	12.622803	-0.299018	-5.785840	-2.813760	-1.081183	-0.102483	-0.165811	-0.317262	0.933730	-0.810306	0.583480	0.054361	-0.562059	-0.747594	-0.353826
07527	13.324601	-1.281817	-5.604228	-1.847550	-0.302853	0.075264	-0.171740	-0.321658	0.931151	-0.783266	0.617849	0.068966	-0.597494	-0.717495	-0.358053
07528	10.838540	-1.149131	-6.061079	-1.313279	0.375478	0.146021	-0.168867	-0.312673	0.934730	-0.762653	0.642203	0.077042	-0.624375	-0.699865	-0.346908
07529	8.504107	-1.010171	-5.747922	-1.342162	0.638857	0.149655	-0.161530	-0.299147	0.940436	-0.740691	0.666475	0.084780	-0.652139	-0.682878	-0.329231
07530	10.462733	-3.608495	-5.632364	-0.931617	0.390390	-0.120287	-0.152921	-0.294534	0.943327	-0.725836	0.681269	0.095048	-0.670654	-0.670165	-0.317964
07531	11.722832	-4.857318	-5.953891	0.328961	1.144783	-0.238867	-0.129459	-0.279157	0.951479	-0.732276	0.673907	0.098086	-0.668590	-0.684047	-0.291664
07532	10.006580	-3.021677	-4.505846	1.447677	1.684151	-0.511080	-0.092319	-0.257985	0.961728	-0.757595	0.644974	0.100292	-0.646164	-0.719341	-0.254991
07533	10.216068	-1.745994	-4.258049	1.994584	1.729289	-0.862172	-0.048526	-0.239366	0.969716	-0.790566	0.602567	0.109177	-0.610452	-0.761326	-0.218475
07534	8.562510	0.427701	-4.259026	1.987097	1.980450	-1.178282	0.004407	-0.217696	0.976007	-0.820694	0.556866	0.127913	-0.571351	-0.801567	-0.176207
07535	7.078319	1.605556	-3.796760	1.486006	1.876651	-1.589775	0.063391	-0.200704	0.977599	-0.840078	0.518073	0.160836	-0.538748	-0.831455	-0.135766
07536	6.452363	1.550261	-4.070670	0.953745	1.781312	-1.852419	0.125870	-0.186501	0.974358	-0.848349	0.488902	0.203172	-0.514258	-0.852169	-0.096679
07537	6.440484	2.012579	-4.094052	0.811824	1.599314	-1.827641	0.184720	-0.173823	0.967297	-0.851543	0.463079	0.245830	-0.490666	-0.869105	-0.062478
07538	5.526566	1.980886	-4.342778	0.485322	1.431493	-1.516343	0.234115	-0.159746	0.958995	-0.849532	0.446032	0.281691	-0.472742	-0.880645	-0.031286
07539	5.751641	2.037464	-3.534614	0.408135	1.006043	-1.195740	0.271073	-0.150641	0.950698	-0.846806	0.432267	0.309944	-0.457646	-0.889074	-0.010388
07540	6.496725	2.132958	-3.444243	0.614010	0.789344	-1.224668	0.305719	-0.145998	0.940862	-0.844932	0.413909	0.338776	-0.438892	-0.898534	0.003182
07541	8.484143	3.966238	-1.884709	0.787679	0.819131	-1.189172	0.339472	-0.139518	0.930212	-0.843822	0.391779	0.366706	-0.415599	-0.909420	0.015270
07542	14.722435	8.601946	4.052306	2.095453	1.529484	-1.513560	0.386222	-0.118165	0.914806	-0.850403	0.338526	0.402759	-0.357277	-0.933508	0.030258
07543	13.069522	11.706175	12.524813	0.994808	3.474441	-0.530988	0.426037	-0.040774	0.903787	-0.853262	0.313957	0.416384	-0.300728	-0.948561	0.098967
07544	-0.628878	4.984690	4.168009	-1.298586	1.396102	1.279741	0.409333	0.002690	0.912381	-0.856714	0.345094	0.383341	-0.313826	-0.938564	0.143563
07545	3.896197	-0.223914	1.682997	-1.740695	-2.530938	1.558098	0.354077	-0.041947	0.934275	-0.856651	0.386243	0.342000	-0.375203	-0.921443	0.100826
07546	6.729768	-1.851546	-6.217760	-1.719424	-3.787627	1.735058	0.278152	-0.110419	0.954169	-0.852872	0.428574	0.298218	-0.441861	-0.896734	0.025035
07547	13.587443	-0.265588	-10.768382	0.812655	-3.548976	0.589023	0.225956	-0.183647	0.956670	-0.865686	0.412472	0.283646	-0.446691	-0.892267	-0.065780
07548	16.816661	3.148432	-5.927843	0.858365	-1.071592	0.470591	0.203806	-0.202916	0.957752	-0.877731	0.395454	0.270562	-0.433648	-0.895791	-0.097510
07549	9.346642	-0.167351	-2.323402	0.164370	0.081350	1.121768	0.179845	-0.190036	0.965164	-0.884940	0.397217	0.243106	-0.429578	-0.897834	-0.096733
07550	9.460352	-0.452291	-0.702171	0.693015	-0.747015	1.036636	0.148730	-0.196738	0.969110	-0.896587	0.386578	0.216079	-0.417147	-0.901028	-0.118897
07551	9.198935	2.966224	0.040036	0.946581	-0.101667	0.550249	0.135153	-0.193906	0.971666	-0.908217	0.367768	0.199720	-0.396075	-0.909476	-0.126404
07552	8.401774	3.153668	0.212002	-0.075717	-0.568837	0.654520	0.114500	-0.200813	0.972915	-0.909561	0.372638	0.183957	-0.399487	-0.905988	-0.139984
07553	9.831948	-0.031694	-3.276763	-0.508077	-1.084981	0.880142	0.083366	-0.216923	0.972622	-0.906625	0.388600	0.164379	-0.413619	-0.895508	-0.164272
07554	10.110083	-0.536040	-3.429300	-0.470598	-1.247673	1.070607	0.045912	-0.234105	0.971127	-0.903465	0.405034	0.140353	-0.426197	-0.883822	-0.192910
07555	10.384459	-0.987282	-5.359641	-0.109321	-0.814300	0.807204	0.018843	-0.243841	0.969632	-0.902997	0.412196	0.121206	-0.429233	-0.877859	-0.212421
07556	10.674158	1.516863	-0.799939	0.524458	-0.285493	0.592090	0.002270	-0.244131	0.969740	-0.908747	0.404210	0.103887	-0.417341	-0.881484	-0.220936
07557	9.224137	1.115565	-0.855206	-0.138248	-0.482474	0.748038	-0.019901	-0.247157	0.968771	-0.907178	0.411776	0.086419	-0.420276	-0.877128	-0.232410
07558	9.614637	0.730240	-0.860667	0.012394	-0.321328	0.646635	-0.038073	-0.247554	0.968126	-0.906883	0.415433	0.070563	-0.419660	-0.875290	-0.240320
07559	8.186481	1.353069	-0.479455	0.137070	-0.548558	0.547949	-0.056365	-0.253891	0.965589	-0.907711	0.415797	0.056343	-0.415794	-0.873300	-0.253896
07560	9.117722	1.897196	-1.374746	-0.230797	-0.850127	0.430211	-0.075117	-0.267890	0.960517	-0.904637	0.423542	0.047379	-0.419511	-0.865360	-0.274158
07561	8.847605	1.848596	-0.276749	-0.266009	-1.221550	0.605529	-0.101769	-0.287693	0.952300	-0.900538	0.433391	0.034691	-0.422698	-0.854052	-0.303185
07562	11.105094	-0.455160	-1.136246	-0.439698	-1.207205	0.764350	-0.131885	-0.304866	0.943219	-0.893666	0.448290	0.019939	-0.428915	-0.840293	-0.331571
07563	12.590173	2.867039	-2.185953	0.789788	-0.724229	0.779371	-0.157049	-0.311499	0.937179	-0.899161	0.437586	-0.005233	-0.408467	-0.843496	-0.348811
07564	13.466366	4.234678	0.330587	0.750226	0.109951	0.430262	-0.165758	-0.304550	0.937962	-0.904970	0.424908	-0.021963	-0.391859	-0.852469	-0.346041
07565	12.417728	5.818667	4.031118	1.201330	1.053857	0.162504	-0.159529	-0.280164	0.946604	-0.915772	0.400089	-0.035919	-0.368663	-0.872603	-0.320392
07566	7.320399	6.545754	6.477233	0.752102	1.263745	0.029093	-0.148816	-0.252067	0.956199	-0.922521	0.383606	-0.042451	-0.356103	-0.888430	-0.289624
07567	5.774887	6.671581	5.006775	0.075053	0.372471	-0.385245	-0.136653	-0.247453	0.959215	-0.924617	0.379392	-0.033851	-0.355542	-0.891532	-0.280644
07568	8.801312	7.124096	-2.687068	-2.541678	-0.626797	-0.471642	-0.131919	-0.265967	0.954913	-0.901889	0.431946	-0.004286	-0.411331	-0.861791	-0.296854
07569	12.351546	0.983971	-8.993226	-4.183378	-2.032969	-0.164504	-0.151406	-0.310120	0.938564	-0.855036	0.517513	0.033065	-0.495974	-0.797499	-0.343518
07570	13.586160	-2.857772	-10.940034	-3.795499	-1.618763	0.329709	-0.179825	-0.336496	0.924356	-0.803208	0.592718	0.059512	-0.567908	-0.731748	-0.376861
07571	13.567871	-4.957837	-7.290762	-1.672763	0.262303	0.227620	-0.180535	-0.328289	0.927164	-0.777774	0.624663	0.069733	-0.602058	-0.708535	-0.368108
07572	9.915798	-1.046749	-5.916982	-0.623058	1.192001	-0.055999	-0.161311	-0.308028	0.937602	-0.768575	0.635176	0.076442	-0.619088	-0.708287	-0.339204
07573	7.542770	0.182363	-5.267960	-0.875177	0.850027	0.041753	-0.148800	-0.292354	0.944663	-0.754727	0.650826	0.082535	-0.638941	-0.700681	-0.317491
07574	9.902722	-2.360929	-5.432352	-0.481410	0.460885	-0.077478	-0.139991	-0.285545	0.948086	-0.747330	0.658599	0.088010	-0.649539	-0.696212	-0.305594
07575	9.004295	-3.815785	-6.518538	0.430318	1.240347	-0.330488	-0.113780	-0.269080	0.956373	-0.755427	0.648653	0.092628	-0.645279	-0.711931	-0.277074
07576	7.741888	-2.482822	-5.249186	1.155792	1.441652	-0.738481	-0.076808	-0.254621	0.963986	-0.775653	0.622751	0.102688	-0.626469	-0.739831	-0.245330
07577	8.956001	-2.572991	-4.069339	1.586004	1.281787	-0.965016	-0.038269	-0.244960	0.968778	-0.801392	0.586649	0.116680	-0.596914	-0.771905	-0.218759
07578	10.243399	-1.039396	-3.204154	1.888233	1.479648	-1.133078	0.006116	-0.231712	0.972765	-0.829230	0.542498	0.134436	-0.558874	-0.807468	-0.188825
07579	10.889169	0.624788	-1.580531	1.816842	1.968479	-1.539807	0.064921	-0.211089	0.975309	-0.852442	0.496376	0.164175	-0.518775	-0.842053	-0.147715
07580	9.516060	2.686773	-1.700205	1.661842	2.133916	-1.805599	0.130277	-0.186720	0.973737	-0.868839	0.451634	0.202846	-0.477648	-0.872446	-0.103392
07581	7.031096	4.135242	-1.947670	1.223180	1.844027	-1.770237	0.190034	-0.165198	0.967779	-0.875928	0.416700	0.243128	-0.443438	-0.893907	-0.065515
07582	7.343807	4.292417	-2.465446	0.900513	1.432058	-1.635751	0.241165	-0.149419	0.958913	-0.876869	0.389850	0.281278	-0.415861	-0.908675	-0.037003
07583	7.543737	4.310089	-2.847243	0.876331	1.379729	-1.410861	0.285849	-0.131170	0.949255	-0.876453	0.364732	0.314326	-0.387454	-0.921827	-0.010706
07584	6.886806	4.476950	-1.686147	0.573731	1.319009	-1.169635	0.323735	-0.111072	0.939606	-0.873007	0.347796	0.341902	-0.364766	-0.930968	0.015627
07585	6.843407	4.084963	-0.950099	-0.143875	1.073897	-0.933237	0.353614	-0.094229	0.930633	-0.863872	0.348653	0.363548	-0.358724	-0.932503	0.041887
07586	7.111533	3.213743	-1.120147	-0.559751	0.981273	-0.703126	0.377442	-0.077672	0.922770	-0.852471	0.360076	0.378996	-0.361705	-0.929684	0.069695
07587	6.538247	3.610273	-0.718814	-0.939543	0.590701	-0.371923	0.390662	-0.067506	0.918055	-0.840304	0.381057	0.385597	-0.375861	-0.922084	0.092139
07588	8.677217	4.298039	0.625293	-1.020671	0.175065	-0.226394	0.396976	-0.065781	0.915469	-0.828301	0.403996	0.388207	-0.395383	-0.912392	0.105890
07589	12.701337	0.690220	4.895129	-0.774561	0.596405	0.271708	0.397240	-0.049492	0.916379	-0.823311	0.421900	0.379682	-0.405411	-0.905291	0.126849
07590	8.776793	1.404331	5.309272	-1.140771	1.495361	0.546747	0.401242	-0.009944	0.915918	-0.817166	0.447865	0.362844	-0.413816	-0.894046	0.171577
07591	4.084560	2.601176	-0.357108	-0.822144	0.145780	0.391932	0.394692	-0.002236	0.918811	-0.812496	0.466090	0.350158	-0.429031	-0.884735	0.182145
07592	6.384063	1.806757	-0.042754	0.811739	-1.320522	0.514944	0.369943	-0.025729	0.928698	-0.826173	0.448111	0.341518	-0.424947	-0.893607	0.144519
07593	11.054579	1.322522	0.812144	1.176568	-2.492180	0.958954	0.323382	-0.071320	0.943577	-0.847031	0.422726	0.322245	-0.421857	-0.903447	0.076292
07594	15.908109	8.984422	-1.351120	1.379072	-1.158250	0.176402	0.307579	-0.095884	0.946679	-0.862699	0.391632	0.319960	-0.401429	-0.915112	0.037739
07595	11.540417	5.972175	1.598985	-0.140010	0.026744	0.895527	0.288367	-0.086493	0.953605	-0.868032	0.396777	0.298478	-0.404185	-0.913831	0.039339
07596	5.928476	0.768955	-3.507768	-1.113773	-1.163380	1.331615	0.247184	-0.099233	0.963874	-0.865316	0.425028	0.265667	-0.436037	-0.899724	0.019192
07597	8.825211	-1.414933	-3.285517	-0.059299	-2.447276	1.153437	0.194887	-0.141781	0.970524	-0.871098	0.429750	0.237703	-0.450785	-0.891747	-0.039752
07598	12.792570	-0.613360	-2.783506	0.240506	-1.244570	0.801080	0.163220	-0.160969	0.973370	-0.877458	0.427349	0.217809	-0.451029	-0.889642	-0.071492
07599	9.998392	2.030162	-1.006577	0.904189	-0.024292	0.593758	0.149700	-0.155357	0.976450	-0.889812	0.409401	0.201555	-0.431073	-0.899030	-0.076952
07600	8.403232	4.018343	1.699180	0.502479	-0.276446	0.661372	0.131845	-0.154947	0.979085	-0.897549	0.400569	0.184258	-0.420741	-0.903070	-0.086259
07601	8.956142	1.892640	-1.048698	-0.508580	-0.704511	0.731956	0.107793	-0.163375	0.980658	-0.894362	0.414834	0.167418	-0.434162	-0.895110	-0.101401
07602	9.931522	0.708483	-2.365756	-0.373268	-0.843932	0.812392	0.080252	-0.173691	0.981525	-0.892227	0.426499	0.148424	-0.444399	-0.887654	-0.120744
07603	9.753188	-0.591161	-3.029233	-0.260722	-0.702362	0.795412	0.054527	-0.180705	0.982025	-0.890700	0.435716	0.129634	-0.451310	-0.881758	-0.137195
07604	9.640903	1.029677	-0.868411	-0.225417	-0.972055	0.936348	0.022515	-0.191793	0.981177	-0.889092	0.444956	0.107379	-0.457175	-0.874774	-0.160503
07605	9.700466	-1.043165	-2.994088	-0.218902	-0.675252	0.946054	-0.006386	-0.195926	0.980598	-0.886815	0.454243	0.084984	-0.462080	-0.869066	-0.176651
07606	9.819584	-0.317945	-1.403536	0.364855	-0.578549	0.663720	-0.027900	-0.201054	0.979183	-0.890753	0.449533	0.066921	-0.453630	-0.870343	-0.191631
07607	9.540073	0.773277	-0.650882	0.013082	-0.537997	0.496200	-0.045189	-0.207196	0.977255	-0.890494	0.451708	0.054594	-0.452746	-0.867773	-0.204919
07608	9.266501	0.161417	-1.155906	-0.200032	-0.636512	0.410672	-0.061692	-0.216328	0.974370	-0.887718	0.458133	0.045509	-0.456236	-0.862158	-0.220302
07609	8.411989	0.466062	-1.435212	-0.442163	-0.740305	0.357854	-0.078271	-0.228085	0.970490	-0.882048	0.469524	0.039209	-0.464612	-0.852950	-0.237932
07610	9.455718	0.353571	-2.604072	-0.055170	-1.222992	0.421671	-0.101883	-0.249107	0.963102	-0.880505	0.473135	0.029231	-0.462959	-0.845038	-0.267545
07611	10.697425	0.664514	-1.971821	-0.543563	-0.888212	0.455802	-0.122398	-0.262294	0.957194	-0.872915	0.487379	0.021932	-0.472269	-0.832865	-0.288615
07612	11.107578	-0.752999	-2.541964	0.232338	-0.650698	0.712668	-0.145715	-0.267176	0.952567	-0.873291	0.487189	0.003059	-0.464898	-0.831423	-0.304313
07613	10.227582	1.454408	-1.358307	0.517773	-0.259138	0.489070	-0.159525	-0.266690	0.950488	-0.877404	0.479583	-0.012696	-0.452452	-0.835988	-0.310500
07614	10.684750	2.465907	-1.718907	0.457196	-0.440621	0.256695	-0.170216	-0.272883	0.946869	-0.881490	0.471665	-0.022532	-0.440456	-0.838491	-0.320829
07615	12.104625	3.428473	0.076159	0.502897	-0.126506	0.156542	-0.175171	-0.273739	0.945718	-0.886316	0.462081	-0.030419	-0.428672	-0.843533	-0.323563
07616	11.647296	2.784490	2.125734	0.785625	0.572890	-0.044924	-0.168248	-0.262096	0.950262	-0.894819	0.445001	-0.035694	-0.413512	-0.856318	-0.309399
07617	8.596704	4.985675	5.077525	0.912197	0.864444	-0.054407	-0.158365	-0.244029	0.956750	-0.904320	0.424849	-0.041324	-0.396390	-0.871753	-0.287962
07618	7.139100	7.597360	4.664053	0.745190	0.654730	-0.195260	-0.147632	-0.231702	0.961519	-0.912366	0.407219	-0.041956	-0.381827	-0.883452	-0.271515
07619	8.040144	9.929466	0.935814	-1.310713	-0.389339	-0.504945	-0.140085	-0.245526	0.959215	-0.901262	0.432772	-0.020847	-0.410003	-0.867424	-0.281908
07620	11.397457	4.326940	-3.224494	-4.018328	-1.069053	-0.462274	-0.142041	-0.273474	0.951334	-0.857474	0.514147	0.019772	-0.494533	-0.812936	-0.307527
07621	13.650842	-0.376366	-7.703225	-4.237580	-1.488004	-0.116788	-0.159590	-0.304063	0.939189	-0.801166	0.595747	0.056737	-0.576771	-0.743392	-0.338680
07622	15.028894	-4.155577	-7.766572	-2.795878	-0.357473	0.315328	-0.171165	-0.305578	0.936656	-0.757737	0.648454	0.073085	-0.629712	-0.697230	-0.342541
07623	12.028302	-3.658438	-7.861276	-1.332778	0.354759	0.184037	-0.168944	-0.296410	0.940000	-0.735603	0.672684	0.079909	-0.656008	-0.677966	-0.331686
07624	9.330592	-2.071266	-7.291594	-0.792671	1.035218	0.045261	-0.152606	-0.278135	0.948342	-0.722315	0.686315	0.085052	-0.674517	-0.672022	-0.305637
07625	9.900296	-3.552451	-5.984826	-0.152821	0.922947	-0.290478	-0.131802	-0.267536	0.954491	-0.720841	0.686836	0.092977	-0.680453	-0.675781	-0.283377
07626	10.338644	-3.810773	-5.721122	0.868206	1.714074	-0.452464	-0.094708	-0.245651	0.964721	-0.736865	0.668902	0.097986	-0.669374	-0.701588	-0.244362
07627	8.360744	-2.278851	-4.789326	1.732821	1.752776	-0.613261	-0.054575	-0.224004	0.973059	-0.766477	0.633967	0.102955	-0.639949	-0.740208	-0.206292
07628	9.206132	-1.641458	-4.104833	1.941482	1.788657	-0.983031	-0.007643	-0.205042	0.978723	-0.797523	0.591690	0.117731	-0.603240	-0.779654	-0.168048
07629	8.036796	-0.251598	-3.841871	1.889178	1.869250	-1.301050	0.045922	-0.186255	0.981428	-0.824572	0.547519	0.142490	-0.563890	-0.815801	-0.128438
07630	7.245829	1.043593	-3.217953	1.319401	1.707133	-1.765224	0.105953	-0.174257	0.978983	-0.839414	0.512112	0.182003	-0.533065	-0.841056	-0.092014
07631	7.047079	1.860708	-3.303510	1.086234	1.597012	-1.902091	0.166669	-0.163869	0.972301	-0.847118	0.480836	0.226249	-0.504592	-0.861362	-0.058676
07632	6.810349	3.060391	-3.304556	0.878501	1.318678	-1.832200	0.221630	-0.156636	0.962468	-0.849122	0.454293	0.269463	-0.479450	-0.876974	-0.032318
07633	6.274925	3.571559	-3.324088	0.725420	1.200078	-1.501678	0.267423	-0.146802	0.952331	-0.848515	0.432475	0.304937	-0.456625	-0.889615	-0.008910
07634	6.310509	3.920381	-2.834560	0.478341	0.980783	-1.345969	0.306770	-0.139215	0.941547	-0.844293	0.416879	0.336721	-0.439388	-0.898238	0.010348
07635	7.652097	4.406730	-1.833930	0.055892	0.862458	-1.304943	0.343416	-0.133374	0.929665	-0.834371	0.411090	0.367192	-0.431150	-0.901785	0.029892
07636	9.265404	5.191890	-0.131201	-0.436119	0.734751	-0.744092	0.366653	-0.124615	0.921974	-0.823127	0.418430	0.383899	-0.433622	-0.899659	0.050845
07637	10.043506	3.327822	3.046056	-1.056140	0.805561	-0.066363	0.376762	-0.107375	0.920066	-0.810949	0.441796	0.383638	-0.447674	-0.890667	0.079376
07638	11.754106	4.785393	6.804643	-0.827061	1.566327	-0.095267	0.396125	-0.073739	0.915231	-0.800836	0.459853	0.383663	-0.449162	-0.884928	0.123106
07639	8.273603	6.829104	4.857704	-1.466401	1.413900	-0.206581	0.416242	-0.045214	0.908129	-0.782090	0.491615	0.382948	-0.463765	-0.869638	0.169269
07640	6.775476	5.849345	4.267526	-1.433302	0.699844	0.100769	0.422484	-0.028895	0.905910	-0.766254	0.522460	0.374018	-0.484109	-0.852174	0.198590
07641	5.401446	0.903323	2.890449	-1.156455	0.397789	0.694390	0.414051	-0.011225	0.910185	-0.759353	0.547128	0.352184	-0.501941	-0.836974	0.218015
07642	3.516140	-4.096827	-1.294698	-0.834647	-0.547495	1.155531	0.384987	-0.006544	0.922899	-0.760299	0.564625	0.321162	-0.523193	-0.825322	0.212398
07643	4.647719	-4.113295	-5.405141	1.069527	-2.259679	1.097875	0.334118	-0.038361	0.941750	-0.784266	0.542874	0.300359	-0.522774	-0.838937	0.151299
07644	11.748899	1.416722	-3.513509	2.549939	-3.231184	0.360764	0.285544	-0.102645	0.952853	-0.819684	0.489007	0.298314	-0.496572	-0.866220	0.055497
07645	21.249475	14.039990	1.207892	2.762448	0.253930	-0.837035	0.305805	-0.106646	0.946103	-0.845840	0.425752	0.321388	-0.437080	-0.898533	0.039992
07646	11.692572	11.998241	5.453869	1.180889	0.960770	0.409415	0.307051	-0.080714	0.948264	-0.861476	0.399874	0.312985	-0.404448	-0.913009	0.053249
07647	6.823704	4.201102	0.627578	-1.667880	-1.141677	1.769020	0.256778	-0.087942	0.962461	-0.856233	0.441180	0.268749	-0.448253	-0.893099	0.037986
07648	5.403306	-1.062716	-3.172468	-0.752602	-2.124057	1.212017	0.206185	-0.121386	0.970955	-0.854611	0.460944	0.239105	-0.476580	-0.879088	-0.008698
07649	11.114835	-0.739406	-2.487279	-0.520878	-2.230094	1.004408	0.157457	-0.158312	0.974754	-0.852895	0.475740	0.215039	-0.497773	-0.865222	-0.060115
07650	11.113409	-0.866380	-4.160826	-0.450905	-0.924443	0.892220	0.126681	-0.167490	0.977701	-0.850444	0.489002	0.193963	-0.510585	-0.856051	-0.080493
07651	8.951060	-0.508397	-2.751570	-0.420070	-0.597788	0.923993	0.099220	-0.168830	0.980638	-0.847698	0.501767	0.172155	-0.521117	-0.848367	-0.093332
07652	9.170531	-1.032592	-3.560227	-0.307760	-1.022808	0.789305	0.068933	-0.180466	0.981163	-0.845376	0.511642	0.153500	-0.529706	-0.840032	-0.117293
07653	10.689003	-0.969160	-4.110585	-0.245835	-0.652105	0.501403	0.049511	-0.187698	0.980978	-0.842904	0.519029	0.141852	-0.535782	-0.833893	-0.132514
07654	10.079581	0.248585	-2.126957	0.609497	-0.457486	0.454841	0.033656	-0.191476	0.980920	-0.851503	0.508373	0.128451	-0.523269	-0.839579	-0.145933
07655	10.068336	0.779429	-1.105744	0.152768	-0.469312	0.585937	0.014876	-0.193931	0.980902	-0.853907	0.507928	0.113371	-0.520214	-0.839286	-0.158043
07656	10.223563	0.946916	-0.836265	0.270163	-0.104607	0.594389	0.000640	-0.188650	0.982044	-0.857570	0.505027	0.097574	-0.514367	-0.842234	-0.161458
07657	8.497130	1.636919	1.038469	-0.025945	-0.502914	0.490144	-0.016501	-0.193061	0.981048	-0.857193	0.507845	0.085521	-0.514731	-0.839536	-0.173870
07658	8.841862	1.428371	-0.559456	-0.487883	-0.898344	0.433775	-0.037591	-0.206259	0.977775	-0.850616	0.520116	0.077015	-0.524442	-0.828816	-0.194998
07659	9.982786	0.653103	-1.020844	-0.346058	-0.866559	0.343541	-0.056461	-0.219643	0.973945	-0.845702	0.529008	0.070275	-0.530661	-0.819699	-0.215621
07660	9.308519	1.195955	-0.914234	-0.132598	-0.470659	0.266057	-0.068489	-0.225758	0.971773	-0.843578	0.533131	0.064401	-0.532621	-0.815356	-0.226958
07661	8.299586	0.180144	-1.709153	-0.601865	-0.673446	0.205678	-0.082018	-0.236633	0.968131	-0.835147	0.546429	0.062808	-0.543877	-0.803380	-0.242441
07662	10.128127	0.204677	-2.654912	0.114775	-1.009725	0.452147	-0.105281	-0.250699	0.962323	-0.835696	0.546816	0.051026	-0.539006	-0.798838	-0.267077
07663	10.332409	-0.605156	-2.835831	0.169176	-0.744723	0.494284	-0.125746	-0.258814	0.957707	-0.836588	0.546523	0.037851	-0.533205	-0.796447	-0.285244
07664	10.033708	-0.212581	-3.425573	0.158588	-0.469980	0.432896	-0.141190	-0.262272	0.954609	-0.837299	0.546117	0.026202	-0.528200	-0.795594	-0.296706
07665	10.683460	-0.272667	-3.794729	0.579990	-0.630074	0.220293	-0.154177	-0.271872	0.949903	-0.844087	0.535956	0.016393	-0.513562	-0.799273	-0.312116
07666	12.056646	0.605981	-2.973606	0.700852	-0.131796	0.063756	-0.157349	-0.273696	0.948858	-0.852747	0.522243	0.009228	-0.498060	-0.807684	-0.315568
07667	12.066835	1.450493	-1.557788	0.677095	0.527317	0.007420	-0.151175	-0.262891	0.952908	-0.861088	0.508443	0.003663	-0.485462	-0.819984	-0.303236
07668	10.878239	3.409196	1.096983	0.673170	0.722419	0.197237	-0.146922	-0.245507	0.958196	-0.868468	0.495707	-0.006154	-0.473473	-0.833067	-0.286045
07669	9.135938	3.202551	3.285420	0.423159	0.139208	0.228558	-0.150391	-0.239803	0.959102	-0.872628	0.488161	-0.014777	-0.464653	-0.839162	-0.282674
07670	9.110465	4.614799	4.592798	0.361274	-0.169446	0.017759	-0.152840	-0.243159	0.957869	-0.876770	0.480576	-0.017903	-0.455976	-0.842568	-0.286646
07671	7.716505	6.044808	2.129548	-0.240465	0.309830	-0.322595	-0.142307	-0.240524	0.960155	-0.875258	0.483580	-0.008585	-0.462246	-0.841605	-0.279338
07672	7.415338	6.757072	0.257852	-1.496610	-0.433417	-0.738818	-0.131526	-0.258702	0.956961	-0.859973	0.509960	0.019665	-0.493099	-0.820374	-0.289550
07673	10.039012	4.216479	-1.821111	-2.756535	-1.250794	-0.726553	-0.132528	-0.293370	0.946768	-0.826577	0.559850	0.057774	-0.546998	-0.774920	-0.316689
07674	11.611423	2.014253	-5.126449	-2.730500	-0.937327	-0.463684	-0.136641	-0.317743	0.938280	-0.789071	0.607550	0.090831	-0.598912	-0.727958	-0.333738
07675	14.060795	1.197425	-4.269590	-1.848841	-0.112368	-0.290450	-0.132795	-0.324254	0.936603	-0.761606	0.638123	0.112937	-0.634288	-0.698325	-0.331693
07676	11.648265	0.138040	-6.530106	-1.763265	0.332361	0.028532	-0.127967	-0.318069	0.939392	-0.732867	0.668506	0.126516	-0.668230	-0.672259	-0.318648
07677	10.109475	-1.145396	-6.499884	-1.544238	0.381836	0.146456	-0.124142	-0.309238	0.942847	-0.706117	0.695105	0.135010	-0.697128	-0.648999	-0.304650
07678	10.379869	-4.061427	-7.036614	-0.952421	0.384886	0.051619	-0.118318	-0.302122	0.945898	-0.689225	0.710736	0.140798	-0.714822	-0.635277	-0.292323
07679	12.381373	-6.321009	-6.467125	0.701826	1.394295	-0.089767	-0.092071	-0.281127	0.955244	-0.702014	0.698673	0.137955	-0.706186	-0.657893	-0.261682
07680	9.239486	-4.167091	-4.626431	1.889027	1.947086	-0.335321	-0.052498	-0.253658	0.965868	-0.735363	0.664199	0.134464	-0.675637	-0.703205	-0.221400
07681	9.143586	-2.078343	-3.701478	2.131720	1.769729	-0.778612	-0.008898	-0.233999	0.972196	-0.771053	0.620660	0.142331	-0.636708	-0.748349	-0.185949
07682	8.529659	-1.403075	-3.525731	1.948002	1.784950	-1.031953	0.038817	-0.215132	0.975813	-0.800845	0.577340	0.159140	-0.597612	-0.787653	-0.149877
07683	7.289344	-0.583990	-3.129303	1.907215	1.792223	-1.379471	0.092605	-0.198116	0.975794	-0.826196	0.531670	0.186353	-0.555720	-0.823455	-0.114448
07684	6.999809	0.458267	-3.384967	1.788481	1.700960	-1.646848	0.149625	-0.183358	0.971593	-0.845220	0.486167	0.221913	-0.513046	-0.854413	-0.082235
07685	6.221389	2.005969	-3.249656	1.706330	1.612572	-1.670777	0.204899	-0.167722	0.964306	-0.858882	0.441674	0.259319	-0.469403	-0.881359	-0.053555
07686	5.905644	3.225102	-3.338518	1.576065	1.171636	-1.503158	0.250370	-0.157407	0.955269	-0.868121	0.400288	0.293488	-0.428579	-0.902769	-0.036429
07687	6.247124	4.187822	-3.641188	1.410629	0.847052	-1.376399	0.288886	-0.151256	0.945339	-0.873409	0.362726	0.324942	-0.392048	-0.919539	-0.027322
07688	6.081684	5.142256	-3.161186	1.115651	0.751841	-1.226901	0.322642	-0.144552	0.935418	-0.874631	0.332259	0.353021	-0.361831	-0.932045	-0.019229
07689	7.443764	6.168384	-2.633824	0.941654	0.417804	-1.176601	0.351864	-0.144216	0.924875	-0.873026	0.305864	0.379832	-0.337664	-0.941089	-0.018281
07690	10.658841	7.481762	-0.229761	0.636387	0.685390	-0.876028	0.376436	-0.134609	0.916611	-0.870339	0.287690	0.399681	-0.317500	-0.948217	-0.008858
07691	13.602449	5.262068	4.559144	0.353506	1.302007	-0.154403	0.389679	-0.104818	0.914966	-0.871649	0.278727	0.403161	-0.297284	-0.954633	0.017250
07692	10.297433	6.776402	6.252423	-0.552238	2.326079	0.100649	0.404338	-0.048620	0.913316	-0.868695	0.292002	0.400129	-0.286145	-0.955181	0.075832
07693	6.122985	7.868996	3.618264	-1.183301	1.162858	-0.043008	0.413676	-0.021335	0.910174	-0.859666	0.319989	0.398221	-0.299742	-0.947181	0.114031
07694	5.709534	7.294016	3.796516	-1.446219	0.370944	0.297587	0.410119	-0.010132	0.911976	-0.851480	0.354020	0.386847	-0.326777	-0.935183	0.136563
07695	4.946027	2.360065	3.590412	-2.246765	-0.490925	1.050393	0.383455	-0.011521	0.923488	-0.842148	0.406129	0.354747	-0.379142	-0.913743	0.146030
07696	4.200970	-3.730265	-3.508988	-2.096040	-1.693844	1.506980	0.334458	-0.033529	0.941814	-0.834338	0.454148	0.312459	-0.438199	-0.890295	0.123919
07697	5.872348	-4.979499	-7.942205	0.846946	-3.119473	1.474064	0.268795	-0.086766	0.959281	-0.854891	0.437337	0.279101	-0.443746	-0.895102	0.043379
07698	21.135528	7.801881	-4.111837	4.423484	-3.323077	-1.098866	0.258901	-0.173209	0.950247	-0.892716	0.332742	0.303878	-0.368821	-0.926974	-0.068479
07699	15.996071	9.602009	1.772558	0.797224	2.098982	0.441206	0.267390	-0.120665	0.956003	-0.902724	0.315648	0.292328	-0.337034	-0.941173	-0.024527
07700	2.339684	1.139860	-2.322134	-0.685149	-0.578548	1.573799	0.226660	-0.121457	0.966371	-0.906572	0.336375	0.254911	-0.356024	-0.933863	-0.033867
07701	9.072515	-1.647782	-2.223430	0.273517	-2.451308	0.925588	0.183451	-0.170819	0.968074	-0.913833	0.333305	0.231985	-0.362291	-0.927216	-0.094955
07702	12.447928	2.243490	-2.773418	0.798898	-0.689052	0.709703	0.160903	-0.181113	0.970210	-0.924027	0.317787	0.212567	-0.346819	-0.930704	-0.116221
07703	8.296538	2.470873	-0.806008	-0.045682	-0.223661	1.007717	0.135499	-0.178309	0.974600	-0.927417	0.323296	0.188088	-0.348622	-0.929347	-0.121561
07704	8.171477	-0.543386	-2.597067	-0.858840	-1.182425	1.201017	0.096923	-0.195576	0.975887	-0.923222	0.348652	0.161565	-0.371843	-0.916620	-0.146768
07705	9.609119	-2.294193	-5.573507	-0.749666	-1.456985	1.217141	0.054842	-0.217812	0.974449	-0.918423	0.371918	0.134821	-0.391780	-0.902350	-0.179647
07706	9.913074	-0.547571	-4.842336	-0.582017	-1.407259	1.089361	0.015688	-0.239002	0.970892	-0.913622	0.391108	0.111041	-0.406263	-0.888770	-0.212221
07707	11.051881	-2.703268	-5.894636	0.627395	-0.993673	0.780453	-0.012287	-0.253612	0.967228	-0.919954	0.381917	0.088455	-0.391834	-0.888718	-0.238004
07708	10.792101	0.329131	-1.551227	0.463346	-0.206757	0.566164	-0.027520	-0.252933	0.967092	-0.924183	0.375138	0.071814	-0.380958	-0.891794	-0.244080
07709	9.624655	0.734975	-1.879786	0.998646	0.193087	0.527134	-0.038157	-0.243859	0.969060	-0.933006	0.355961	0.052838	-0.357833	-0.902122	-0.241104
07710	9.120916	2.314960	1.488011	0.283465	-0.228741	0.376435	-0.049154	-0.245765	0.968082	-0.935136	0.351810	0.041832	-0.350862	-0.903233	-0.247116
07711	8.273187	1.724666	-0.739277	-0.560941	-0.513273	0.475159	-0.064979	-0.253095	0.965257	-0.929484	0.367317	0.033741	-0.363095	-0.894998	-0.259115
07712	9.185000	1.226451	-1.356015	-0.637151	-0.965505	0.467242	-0.084882	-0.270218	0.959050	-0.922753	0.384468	0.026657	-0.375928	-0.882704	-0.281979
07713	8.806613	1.031208	-2.050024	-0.557053	-0.751979	0.487456	-0.103418	-0.281986	0.953828	-0.916325	0.399988	0.018899	-0.386849	-0.872063	-0.299757
07714	9.597783	-1.379483	-3.388227	-0.449848	-1.002775	0.490835	-0.124575	-0.298761	0.946162	-0.910565	0.413231	0.010594	-0.394148	-0.860222	-0.323519
07715	10.924196	-1.571557	-3.529427	-0.081245	-1.047896	0.690240	-0.150724	-0.314036	0.937371	-0.907419	0.420196	-0.005135	-0.392267	-0.851362	-0.348296
07716	11.892985	0.082961	-3.858525	0.840208	-0.479272	0.416966	-0.164952	-0.320005	0.932946	-0.913818	0.405502	-0.022480	-0.371118	-0.856250	-0.359315
07717	12.604383	2.680276	-2.710401	0.833168	0.316035	0.138773	-0.165431	-0.311863	0.935614	-0.920811	0.388585	-0.033289	-0.353184	-0.867031	-0.351451
07718	12.003980	4.022408	0.862561	0.563111	0.617759	0.167377	-0.164067	-0.296836	0.940729	-0.925042	0.377512	-0.042212	-0.342606	-0.877139	-0.336523
07719	9.202271	3.614715	3.978156	0.125035	0.594151	0.213046	-0.164038	-0.281797	0.945347	-0.925264	0.376222	-0.048406	-0.342020	-0.882637	-0.322452
07720	7.694145	3.313077	4.625503	-0.009835	0.128561	0.101240	-0.165386	-0.278032	0.946227	-0.924796	0.377051	-0.050851	-0.342637	-0.883477	-0.319481
07721	8.673239	3.980524	2.442990	-0.094468	0.201438	0.000101	-0.163742	-0.273593	0.947806	-0.924023	0.379024	-0.050225	-0.345500	-0.884018	-0.314868
07722	9.183287	5.120540	-2.365811	-1.330985	-0.002316	-0.121644	-0.161039	-0.274842	0.947907	-0.912560	0.407270	-0.036948	-0.375899	-0.870973	-0.316396
07723	9.189863	3.263626	-5.557922	-2.464321	-0.896131	-0.402599	-0.161031	-0.298344	0.940776	-0.889469	0.456936	-0.007342	-0.427684	-0.837974	-0.338948
07724	11.344290	0.620914	-4.530532	-2.563045	-1.488137	-0.275098	-0.171911	-0.332061	0.927460	-0.861650	0.507033	0.021822	-0.477499	-0.795395	-0.373285
07725	12.988804	-1.218088	-3.450337	-1.433825	-0.193804	-0.166437	-0.170806	-0.338029	0.925506	-0.844766	0.533712	0.039026	-0.507145	-0.775170	-0.376717
07726	13.191221	1.315342	-2.285393	-0.582229	0.988101	-0.317681	-0.151453	-0.323136	0.934155	-0.838605	0.542288	0.051623	-0.523262	-0.775569	-0.353115
07727	11.614188	1.556441	-3.413210	-0.982667	1.128292	-0.135431	-0.133583	-0.303170	0.943527	-0.825999	0.560136	0.063037	-0.547614	-0.770932	-0.325243
07728	10.007050	0.135459	-5.424475	-1.414727	0.914875	0.105650	-0.122901	-0.284151	0.950870	-0.805800	0.587853	0.071519	-0.579294	-0.757421	-0.301217
07729	11.882924	-2.891172	-5.436406	-0.810741	0.616480	-0.021702	-0.113459	-0.272837	0.955347	-0.794014	0.602890	0.077880	-0.597218	-0.749722	-0.285040
07730	11.870378	-4.121633	-6.222616	0.557634	1.555063	-0.260113	-0.085258	-0.247181	0.965211	-0.803014	0.590525	0.080296	-0.589829	-0.768233	-0.248837
07731	9.523621	-1.690003	-5.066093	1.506074	1.946663	-0.615579	-0.044765	-0.217787	0.974969	-0.825793	0.557289	0.086571	-0.562193	-0.801248	-0.204794
07732	9.459882	-1.168003	-4.642520	1.219906	2.010095	-1.005906	0.003774	-0.190455	0.981689	-0.843168	0.527194	0.105521	-0.537637	-0.828127	-0.158596
07733	7.909099	-1.578350	-4.941858	1.005634	1.959846	-1.275000	0.056536	-0.165704	0.984554	-0.855521	0.500307	0.133330	-0.514673	-0.849844	-0.113478
07734	6.741472	-0.830669	-4.735878	0.946702	1.795077	-1.570210	0.112741	-0.146258	0.982801	-0.864177	0.473733	0.169633	-0.490396	-0.868438	-0.072984
07735	6.422743	-0.353690	-4.454899	0.676159	1.851057	-1.733631	0.172328	-0.125826	0.976970	-0.866191	0.452924	0.211121	-0.469058	-0.882625	-0.030938
07736	5.051528	0.041644	-3.790232	0.488871	1.610234	-1.572532	0.224720	-0.107610	0.968463	-0.864088	0.437380	0.249101	-0.450392	-0.892815	0.005303
07737	4.697502	0.255918	-3.604734	0.253997	1.077332	-1.214654	0.262716	-0.096672	0.960018	-0.859592	0.428491	0.278382	-0.438271	-0.898359	0.029473
07738	4.814910	0.050913	-3.655537	0.299409	0.529656	-0.997916	0.289701	-0.095373	0.952354	-0.856028	0.419259	0.302386	-0.428123	-0.902843	0.039818
07739	6.195136	0.875084	-3.477278	0.918198	0.083332	-1.093125	0.313826	-0.104684	0.943692	-0.857461	0.395598	0.329034	-0.407767	-0.912438	0.034387
07740	11.754579	4.307522	-0.302098	1.701844	0.134412	-1.148905	0.339705	-0.112429	0.933788	-0.864707	0.353216	0.357101	-0.369977	-0.928762	0.022771
07741	15.072712	7.711029	4.025036	1.894083	1.629913	-0.987666	0.374938	-0.082407	0.923380	-0.872170	0.306260	0.381476	-0.314230	-0.948374	0.042955
07742	11.522676	11.916781	7.997435	1.406546	2.591579	-0.631051	0.407135	-0.025138	0.913022	-0.876148	0.271705	0.398173	-0.258082	-0.962052	0.088596
07743	4.755268	10.829715	8.879482	0.399487	1.522185	-0.012573	0.416645	0.011382	0.908998	-0.878549	0.261964	0.399408	-0.233579	-0.965011	0.119145
07744	4.471322	8.484672	6.946682	-1.708754	0.275698	0.346462	0.410697	0.020397	0.911544	-0.871486	0.302673	0.385877	-0.268029	-0.952876	0.142082
07745	2.991682	0.970342	1.741655	-3.385928	-0.773975	1.265575	0.377266	0.013039	0.926013	-0.857907	0.381520	0.344147	-0.348805	-0.924269	0.155121
07746	3.051850	-5.483086	-7.451132	-2.023006	-2.900939	1.804424	0.310742	-0.035001	0.949850	-0.854139	0.428136	0.295207	-0.416997	-0.903036	0.103144
07747	12.354315	-1.930766	-9.622259	2.914515	-4.854817	-0.073716	0.263277	-0.146622	0.953513	-0.883080	0.361299	0.299387	-0.388400	-0.920850	-0.034357
07748	25.536044	10.779615	0.608416	2.492922	0.237279	-0.712610	0.281169	-0.147051	0.948325	-0.900731	0.300507	0.313656	-0.331101	-0.942376	-0.047960
07749	5.777683	5.780781	-3.385260	-0.682554	1.127562	1.462059	0.257479	-0.109201	0.960094	-0.904928	0.321162	0.279214	-0.338836	-0.940707	-0.016126
07750	5.083636	0.886070	-3.907985	-0.647218	-1.739258	1.415156	0.210008	-0.138249	0.967876	-0.907575	0.340590	0.245573	-0.363599	-0.929992	-0.053945
07751	11.583934	-3.098611	-2.916592	0.286957	-1.545713	1.054623	0.171771	-0.165268	0.971175	-0.915275	0.337854	0.219378	-0.364372	-0.926575	-0.093232
07752	10.853081	0.123661	-1.795954	0.869720	-0.363961	0.856756	0.148663	-0.166752	0.974727	-0.926482	0.321125	0.196241	-0.345733	-0.932240	-0.106753
07753	8.395701	2.833730	-0.076826	0.294963	-0.296674	0.774341	0.127976	-0.167575	0.977518	-0.931739	0.317407	0.176395	-0.339830	-0.933366	-0.115516
07754	8.998313	0.185671	-2.280244	-0.676514	-0.919212	1.013451	0.096231	-0.180702	0.978819	-0.928726	0.337452	0.153603	-0.358061	-0.923836	-0.135349
07755	9.946584	-0.208444	-3.977750	-0.396985	-1.160212	1.078280	0.060498	-0.198163	0.978300	-0.927274	0.351615	0.128565	-0.369462	-0.914931	-0.162480
07756	9.470795	-0.895417	-4.209464	-0.689379	-1.000189	1.071483	0.026106	-0.211281	0.977077	-0.921962	0.372710	0.105227	-0.386398	-0.903575	-0.185063
07757	10.718229	-2.041225	-4.215725	0.305000	-1.059171	0.873164	-0.004378	-0.227141	0.973852	-0.925158	0.370560	0.082270	-0.379558	-0.900606	-0.211764
07758	10.312490	0.264353	-1.357275	0.139165	-0.386232	0.729159	-0.025092	-0.229153	0.973067	-0.926237	0.371536	0.063611	-0.376106	-0.899695	-0.221573
07759	9.002198	0.359022	-1.573379	0.078354	-0.369215	0.561549	-0.041748	-0.232305	0.971747	-0.926534	0.372959	0.049354	-0.373887	-0.898296	-0.230809
07760	9.896688	0.973348	-1.093045	0.252935	-0.281678	0.463157	-0.055286	-0.234409	0.970565	-0.928346	0.369924	0.036463	-0.367582	-0.899004	-0.238065
07761	8.797152	1.417027	-0.648670	-0.167867	-0.472657	0.458298	-0.070455	-0.240804	0.968013	-0.926105	0.376353	0.026217	-0.370628	-0.894635	-0.249526
07762	8.318115	1.189468	-1.452981	-0.365100	-0.777433	0.393021	-0.086983	-0.254430	0.963171	-0.921946	0.386856	0.018932	-0.377425	-0.886345	-0.268221
07763	8.920879	0.553579	-1.296018	-0.508400	-0.872687	0.386982	-0.104388	-0.269907	0.957211	-0.916189	0.400534	0.013025	-0.386911	-0.875627	-0.289097
07764	10.664600	-0.394624	-2.441485	-0.309907	-1.054753	0.515283	-0.126588	-0.287691	0.949320	-0.911715	0.410813	0.002923	-0.390834	-0.865139	-0.314296
07765	10.733004	-0.001716	-1.175438	0.192294	-0.557824	0.621569	-0.146330	-0.293409	0.944722	-0.911483	0.411117	-0.013498	-0.384430	-0.863073	-0.327596
07766	9.798576	1.908159	-0.644932	0.306237	-0.450029	0.542166	-0.163129	-0.297611	0.940647	-0.912319	0.408452	-0.028987	-0.375582	-0.862899	-0.338146
07767	10.477733	2.303205	-0.542491	0.604990	-0.591741	0.460011	-0.179230	-0.305790	0.935077	-0.915930	0.398790	-0.045147	-0.359094	-0.864557	-0.351557
07768	11.451551	3.198371	1.229723	0.333576	-0.215788	0.109199	-0.183787	-0.309417	0.932997	-0.918416	0.392341	-0.050799	-0.350335	-0.866215	-0.356281
07769	11.502919	2.360016	0.500776	0.044094	0.360125	-0.094655	-0.178577	-0.302561	0.936252	-0.919259	0.390578	-0.049115	-0.350819	-0.869428	-0.347880
07770	9.951102	2.598557	0.869999	0.461910	0.743819	-0.130056	-0.169232	-0.287577	0.942688	-0.923864	0.379427	-0.050104	-0.343273	-0.879394	-0.329893
07771	8.894890	2.327132	1.590181	-0.000438	0.555534	-0.303203	-0.157532	-0.278221	0.947511	-0.925135	0.377189	-0.043056	-0.345411	-0.883358	-0.316811
07772	8.844711	4.319992	-3.888223	-1.153650	-0.342939	-0.225444	-0.155490	-0.287937	0.944942	-0.915736	0.400764	-0.028565	-0.370474	-0.869759	-0.325989
07773	10.221032	2.167211	-3.809849	-1.915280	-1.025726	-0.069356	-0.163992	-0.310631	0.936277	-0.897374	0.441138	-0.010821	-0.409666	-0.841966	-0.351095
07774	11.893825	-0.951397	-5.487507	-2.442341	-0.965071	-0.071870	-0.172959	-0.331360	0.927516	-0.871179	0.490797	0.012886	-0.459492	-0.805804	-0.373561
07775	12.234722	-3.741889	-4.901743	-1.484367	-0.292298	-0.044262	-0.175547	-0.337732	0.924727	-0.853800	0.519860	0.027782	-0.490111	-0.784655	-0.379616
07776	11.362220	-2.239101	-4.059196	-0.624961	0.261426	-0.144112	-0.169315	-0.334508	0.927058	-0.846708	0.530778	0.036879	-0.504398	-0.778703	-0.373100
07777	10.528839	0.309502	-4.486830	-0.334665	0.453931	-0.172841	-0.159975	-0.327965	0.931046	-0.843224	0.535771	0.043843	-0.513207	-0.778067	-0.362258
07778	9.382343	0.929806	-5.244812	-0.536673	0.570393	-0.021619	-0.152195	-0.317166	0.936078	-0.836397	0.545931	0.048987	-0.526571	-0.775477	-0.348364
07779	9.027655	-0.802753	-5.296696	-0.374529	0.559119	-0.047413	-0.143868	-0.306971	0.940782	-0.831659	0.552735	0.053173	-0.536326	-0.774760	-0.334816
07780	11.285713	-2.469675	-5.215552	0.524523	1.121483	-0.335987	-0.122011	-0.289609	0.949337	-0.839824	0.539882	0.056762	-0.528969	-0.790350	-0.309092
07781	9.041146	-1.593572	-4.045067	1.242846	1.579207	-0.682245	-0.087192	-0.266807	0.959798	-0.857766	0.510057	0.063864	-0.506591	-0.817714	-0.273331
07782	9.609650	-0.288380	-3.556743	1.426592	1.461316	-1.037072	-0.046822	-0.249184	0.967324	-0.877132	0.473616	0.079547	-0.477962	-0.844746	-0.240743
07783	9.324916	0.157458	-4.008640	1.069065	1.647674	-1.162125	-0.002034	-0.227253	0.973834	-0.890381	0.443714	0.101685	-0.455211	-0.866876	-0.203245
07784	7.971857	-0.076735	-3.821484	0.781753	1.595597	-1.514237	0.049499	-0.208652	0.976737	-0.898266	0.418245	0.134868	-0.436655	-0.884045	-0.166722
07785	8.734534	0.360809	-3.155352	0.774601	1.590494	-1.713304	0.104920	-0.190558	0.976053	-0.903284	0.392313	0.173690	-0.416017	-0.899877	-0.130966
07786	7.942982	1.205222	-3.358385	0.704777	1.684158	-1.558239	0.157091	-0.167223	0.973324	-0.905391	0.369255	0.209567	-0.394449	-0.914159	-0.093395
07787	5.609981	0.507487	-3.567000	0.313586	1.588595	-1.336347	0.202542	-0.142898	0.968791	-0.902490	0.356769	0.241305	-0.380117	-0.923199	-0.056703
07788	6.458773	0.975617	-3.422353	0.802171	1.050399	-1.309623	0.241623	-0.129866	0.961641	-0.902673	0.333582	0.271855	-0.356091	-0.933733	-0.036625
07789	6.980198	1.954258	-3.333736	0.893159	0.962036	-1.262097	0.278201	-0.117481	0.953311	-0.902199	0.308617	0.301317	-0.329607	-0.943904	-0.020134
07790	7.717102	2.867722	-2.133419	0.778831	0.939005	-1.086946	0.309997	-0.103396	0.945098	-0.900458	0.287058	0.326760	-0.305084	-0.952317	-0.004117
07791	9.005188	3.826590	-0.888500	0.530519	0.753484	-0.843205	0.334380	-0.091391	0.937997	-0.897665	0.272243	0.346528	-0.287032	-0.957879	0.008994
07792	12.122041	5.094553	1.911510	0.998569	1.037452	-0.794180	0.359097	-0.071683	0.930543	-0.897625	0.246505	0.365383	-0.255575	-0.966487	0.024175
07793	12.197751	8.989911	6.653760	0.870662	2.328107	-0.741630	0.389268	-0.019647	0.920915	-0.895871	0.224426	0.383470	-0.214211	-0.974293	0.069760
07794	3.957541	6.762445	4.285028	-0.818989	1.834662	0.223329	0.393985	0.026170	0.918744	-0.893736	0.244194	0.376305	-0.214504	-0.969373	0.119598
07795	2.885689	2.924733	2.035771	-1.180444	-0.784079	0.883167	0.369588	0.012876	0.929106	-0.895401	0.272148	0.352409	-0.248317	-0.962169	0.112112
07796	8.339713	-1.484121	0.396882	-0.555339	-2.400916	1.349899	0.323210	-0.035400	0.945665	-0.903481	0.285742	0.319489	-0.281526	-0.957652	0.060372
07797	11.829289	0.568195	-2.882821	0.275561	-2.697762	1.043227	0.279921	-0.092596	0.955547	-0.913406	0.280706	0.294778	-0.295523	-0.955317	-0.006002
07798	14.613783	1.675783	-5.081642	0.770750	-1.111803	0.656263	0.256648	-0.114777	0.959666	-0.923470	0.263868	0.278527	-0.285194	-0.957706	-0.038272
07799	8.070195	4.910914	-7.012870	0.206453	-0.454345	0.889797	0.232655	-0.119888	0.965142	-0.930442	0.261438	0.256766	-0.283107	-0.957746	-0.050724
07800	8.874647	2.647095	-2.858764	0.350280	-0.983201	0.849951	0.205735	-0.138030	0.968824	-0.937620	0.255713	0.235541	-0.280252	-0.956848	-0.076811
07801	11.206060	-1.283354	-0.369493	0.318123	-1.119865	1.211990	0.169237	-0.157205	0.972957	-0.945570	0.252510	0.205272	-0.277951	-0.954738	-0.105914
07802	9.855263	-0.885056	-0.966511	0.262732	-0.487383	1.008295	0.141807	-0.162605	0.976448	-0.951349	0.250196	0.179826	-0.273544	-0.954443	-0.119214
07803	9.107451	1.359712	-0.706754	0.205875	-0.409267	0.619113	0.124107	-0.168614	0.977838	-0.954851	0.247773	0.163915	-0.269920	-0.954032	-0.130251
07804	9.342950	1.167243	-1.737797	-0.032415	-0.785111	0.699474	0.101899	-0.183036	0.977811	-0.956651	0.251545	0.146781	-0.272830	-0.950380	-0.149469
07805	9.104963	1.131344	-2.477487	-0.347347	-1.166154	0.941049	0.071113	-0.204659	0.976247	-0.956310	0.264255	0.125058	-0.283572	-0.942488	-0.176926
07806	10.010879	0.352051	-3.912727	-0.207962	-1.536408	1.206650	0.031059	-0.232629	0.972069	-0.956395	0.275663	0.096528	-0.290419	-0.932681	-0.213924
07807	11.021612	-2.204807	-4.005447	-0.104292	-0.593952	0.782170	0.007849	-0.241086	0.970472	-0.956046	0.282665	0.077952	-0.293111	-0.928428	-0.228270
07808	9.630050	0.153335	-1.871452	0.317460	-0.254180	0.636912	-0.009420	-0.242613	0.970077	-0.958358	0.279090	0.060494	-0.285416	-0.929111	-0.235139
07809	9.479033	0.746040	-1.360283	0.289000	-0.266351	0.774831	-0.030066	-0.243509	0.969432	-0.960036	0.277029	0.039812	-0.278256	-0.929493	-0.242107
07810	8.832863	1.154546	-0.409939	0.061454	-0.605200	0.422936	-0.044597	-0.254703	0.965990	-0.960090	0.278182	0.029024	-0.276114	-0.926143	-0.256944
07811	8.879600	0.675030	-1.432284	-0.119404	-0.799092	0.372185	-0.059238	-0.270617	0.960863	-0.958801	0.283323	0.020685	-0.277832	-0.920051	-0.276252
07812	9.861537	0.748533	-1.539771	0.240486	-0.717466	0.371742	-0.073251	-0.284553	0.955858	-0.959855	0.280323	0.009894	-0.270764	-0.916760	-0.293663
07813	9.697312	1.285915	-0.756873	0.199335	-0.485922	0.167671	-0.080702	-0.294586	0.952211	-0.960885	0.276914	0.004231	-0.264927	-0.914625	-0.305411
07814	9.822670	-0.050451	-0.315734	0.257717	-0.562091	0.455333	-0.095479	-0.304355	0.947762	-0.961583	0.274374	-0.008762	-0.257374	-0.912188	-0.318859
07815	10.825737	1.449434	-2.000016	0.457065	-0.698509	0.562771	-0.113559	-0.316510	0.941767	-0.962996	0.268261	-0.025961	-0.244423	-0.909867	-0.335261
07816	11.628839	1.063574	-2.678265	0.084881	-0.397982	0.300112	-0.123348	-0.323595	0.938121	-0.962638	0.268662	-0.033900	-0.241068	-0.907252	-0.344644
07817	11.988029	0.068039	-2.574411	0.110249	0.292263	-0.071585	-0.120014	-0.317490	0.940636	-0.963533	0.265509	-0.033319	-0.239169	-0.910333	-0.337776
07818	10.828511	0.769872	-0.550151	0.204164	0.953527	-0.266645	-0.108050	-0.297485	0.948592	-0.965525	0.258708	-0.028846	-0.236828	-0.919006	-0.315183
07819	8.953605	3.907408	0.135009	-0.205007	1.041339	-0.164977	-0.097939	-0.274600	0.956558	-0.964737	0.262162	-0.023517	-0.244315	-0.925130	-0.290592
07820	7.506623	3.525213	-1.259725	-0.849011	0.656608	-0.155345	-0.090130	-0.260518	0.961253	-0.959710	0.280646	-0.013925	-0.266144	-0.923779	-0.275317
07821	7.827367	1.156580	-4.581034	-1.598729	-0.412051	-0.261426	-0.086934	-0.271946	0.958378	-0.948938	0.315443	0.003431	-0.303246	-0.909143	-0.285483
07822	9.223929	0.522591	-6.446138	-2.064185	-1.009227	-0.222501	-0.090048	-0.296499	0.950778	-0.932618	0.360069	0.023959	-0.349450	-0.884556	-0.308944
07823	9.395243	-0.689929	-5.511108	-1.672448	-0.817275	-0.144289	-0.094347	-0.315757	0.944138	-0.917604	0.395423	0.040550	-0.386137	-0.862519	-0.327046
07824	8.891401	-0.982295	-3.859623	-1.136598	-0.670312	-0.136798	-0.098029	-0.331505	0.938347	-0.906651	0.418521	0.053140	-0.410334	-0.845544	-0.341587
07825	9.867671	0.835813	-3.050307	-0.535812	-0.254890	-0.242270	-0.095338	-0.339471	0.935772	-0.901701	0.427702	0.063292	-0.421718	-0.837753	-0.346878
07826	11.758281	2.804473	-1.729785	-0.136779	0.476148	-0.330326	-0.082983	-0.333055	0.939249	-0.901028	0.427733	0.072067	-0.425750	-0.840309	-0.335586
07827	11.015587	2.479809	-3.035089	-0.870746	0.559830	-0.036703	-0.076181	-0.321762	0.943751	-0.891652	0.445606	0.079949	-0.446266	-0.835407	-0.320846
07828	10.095399	1.780218	-4.029128	-1.508645	0.309911	0.227665	-0.077736	-0.312746	0.946650	-0.873789	0.478576	0.086355	-0.480052	-0.820460	-0.310477
07829	9.067978	-0.416524	-6.079789	-1.841881	0.111505	0.311603	-0.083179	-0.306634	0.948186	-0.850185	0.518205	0.093001	-0.519872	-0.798398	-0.303799
07830	10.278290	-2.564841	-6.260413	-1.331358	0.248546	0.067764	-0.081416	-0.300849	0.950190	-0.832317	0.544977	0.101235	-0.548288	-0.782617	-0.294772
07831	10.130473	-2.818323	-5.775019	-0.362497	0.828638	-0.069094	-0.068676	-0.285599	0.955886	-0.827491	0.551512	0.105329	-0.557264	-0.783753	-0.274206
07832	10.108689	-2.619165	-4.755934	0.465497	1.242193	-0.273034	-0.045979	-0.264780	0.963212	-0.834378	0.540365	0.108713	-0.549272	-0.798684	-0.245772
07833	9.218710	-2.137530	-3.679377	0.938682	1.541952	-0.537526	-0.014030	-0.240701	0.970498	-0.847515	0.517897	0.116196	-0.530586	-0.820881	-0.211263
07834	8.648292	-0.768157	-3.236004	1.113699	1.528428	-0.776588	0.022206	-0.218712	0.975537	-0.861940	0.490187	0.129519	-0.506523	-0.843731	-0.177632
07835	7.846798	-0.106388	-3.231816	1.069503	1.468091	-0.973764	0.061296	-0.198999	0.978081	-0.874204	0.462189	0.148822	-0.481674	-0.864165	-0.145635
07836	8.145219	0.668851	-3.177552	1.113962	1.219518	-1.096169	0.099491	-0.184678	0.977750	-0.885109	0.432528	0.171760	-0.454625	-0.882504	-0.120427
07837	7.649350	1.879078	-3.170196	0.944715	1.060182	-1.091633	0.135286	-0.172600	0.975657	-0.892428	0.406555	0.195668	-0.430430	-0.897175	-0.099032
07838	6.920729	2.410527	-3.702309	0.539647	0.803979	-1.026041	0.166509	-0.164765	0.972177	-0.894332	0.389987	0.219271	-0.415264	-0.905960	-0.082419
07839	7.549021	2.005449	-4.226356	0.440999	0.622211	-0.829896	0.191238	-0.158657	0.968636	-0.895199	0.376533	0.238414	-0.402549	-0.912716	-0.070023
07840	7.996142	1.134907	-3.229671	0.518664	0.543700	-0.521510	0.208101	-0.151124	0.966362	-0.897792	0.362564	0.250034	-0.388154	-0.919624	-0.060228
07841	9.104617	0.774612	-1.953877	0.572478	0.663984	-0.419578	0.223638	-0.139633	0.964619	-0.901035	0.347754	0.259235	-0.371648	-0.927130	-0.048043
07842	10.975444	1.518826	0.218487	0.896826	1.026016	-0.491389	0.243729	-0.119961	0.962396	-0.906274	0.325179	0.270049	-0.345346	-0.938013	-0.029462
07843	11.009812	7.664039	2.248533	1.567610	1.336759	-1.015227	0.277411	-0.096212	0.955922	-0.912401	0.285281	0.293494	-0.300944	-0.953603	-0.008644
07844	9.402699	10.045867	5.318523	0.729940	1.294515	-0.579035	0.299761	-0.069335	0.951491	-0.913550	0.266525	0.307230	-0.274898	-0.961331	0.016553
07845	5.109182	4.575095	3.828351	-1.540963	0.114178	0.804603	0.282108	-0.060966	0.957444	-0.908220	0.304577	0.286999	-0.309113	-0.950534	0.030553
07846	7.362813	-1.370609	-2.629334	-1.798315	-1.728786	0.897083	0.247191	-0.094434	0.964354	-0.899153	0.348574	0.264612	-0.361137	-0.932512	0.001254
07847	11.550614	-0.736826	-3.166620	0.539411	-1.902075	0.574378	0.216901	-0.133930	0.966963	-0.907417	0.337557	0.250298	-0.359927	-0.931728	-0.048314
07848	11.580119	0.773571	-1.665123	-0.051647	-0.047969	0.365148	0.207994	-0.132050	0.969176	-0.908959	0.339896	0.241381	-0.361293	-0.931147	-0.049331
07849	8.831968	1.042857	-2.219877	0.790608	0.086500	0.166757	0.204759	-0.128745	0.970308	-0.916844	0.321889	0.236187	-0.342739	-0.937983	-0.052129
07850	9.246807	4.070086	-0.713163	1.016930	-0.041234	0.089865	0.202154	-0.129123	0.970804	-0.925785	0.298155	0.232436	-0.319463	-0.945744	-0.059267
07851	8.890202	6.111772	-0.599541	0.639053	-0.180145	0.166308	0.196697	-0.132291	0.971499	-0.931667	0.283481	0.227235	-0.305462	-0.949809	-0.067491
07852	9.172299	5.090563	-0.286674	-0.178911	-0.327749	0.412214	0.184390	-0.137226	0.973226	-0.932307	0.289040	0.217392	-0.311133	-0.947431	-0.074641
07853	9.875971	2.082465	0.241895	-0.517737	-0.404099	0.578363	0.167538	-0.142601	0.975498	-0.930788	0.303220	0.204185	-0.324908	-0.942190	-0.081931
07854	9.497533	0.682190	-0.469853	-0.713696	-0.383649	0.666416	0.148685	-0.146499	0.977973	-0.927516	0.322306	0.189295	-0.342938	-0.935231	-0.087959
07855	8.967658	0.209351	-1.368679	-0.656871	-0.495080	0.668860	0.128681	-0.152591	0.979876	-0.924117	0.340035	0.174310	-0.359790	-0.927950	-0.097256
07856	9.129340	0.107107	-2.369127	-0.458511	-0.742773	0.635851	0.107030	-0.164345	0.980579	-0.921844	0.353085	0.159796	-0.372490	-0.921044	-0.113710
07857	9.918123	-0.498095	-2.663734	-0.202030	-0.818230	0.635577	0.084512	-0.177559	0.980475	-0.921517	0.360375	0.144692	-0.379030	-0.915752	-0.133168
07858	10.224839	0.033094	-3.452422	0.068333	-0.794383	0.532092	0.064522	-0.191013	0.979465	-0.923203	0.361202	0.131256	-0.378856	-0.912714	-0.153038
07859	10.278256	1.655500	-2.911118	0.278371	-0.500066	0.372322	0.051013	-0.199181	0.978634	-0.926401	0.356611	0.120872	-0.373067	-0.912773	-0.166329
07860	10.000206	2.242118	-1.137905	0.134635	-0.206106	0.390135	0.039853	-0.200514	0.978880	-0.928134	0.355439	0.110595	-0.370108	-0.912939	-0.171938
07861	9.385684	2.125162	-0.116404	-0.079687	-0.227135	0.502594	0.025889	-0.201300	0.979187	-0.927847	0.359724	0.098484	-0.372062	-0.911086	-0.177463
07862	9.331153	1.418619	-0.576085	-0.240744	-0.317662	0.516151	0.010761	-0.203922	0.978928	-0.925864	0.367756	0.086785	-0.377704	-0.907288	-0.184846
07863	9.842023	0.861751	-0.674694	-0.211408	-0.408352	0.463587	-0.004027	-0.208950	0.977918	-0.923929	0.374878	0.076295	-0.382542	-0.903220	-0.194565
07864	9.315744	0.836884	-0.669718	-0.219992	-0.517382	0.559349	-0.022096	-0.215388	0.976278	-0.921665	0.382743	0.063581	-0.387358	-0.898396	-0.206973
07865	10.014948	0.207532	-0.632137	-0.137921	-0.594691	0.450353	-0.038425	-0.224449	0.973728	-0.920018	0.388251	0.053188	-0.389989	-0.893803	-0.221416
07866	10.022136	0.252639	-0.903269	0.043208	-0.324807	0.381444	-0.050541	-0.228066	0.972333	-0.920048	0.389383	0.043509	-0.388533	-0.892394	-0.229511
07867	9.143796	0.083287	-1.244205	-0.141101	-0.333311	0.411001	-0.063411	-0.231526	0.970760	-0.918120	0.394824	0.034193	-0.391196	-0.889106	-0.237605
07868	8.694651	-0.799752	-2.877493	-0.047926	-0.601907	0.468985	-0.080232	-0.240286	0.967381	-0.916842	0.398588	0.022964	-0.391105	-0.885093	-0.252284
07869	9.256960	-0.944531	-3.763137	0.171706	-0.918254	0.437280	-0.099347	-0.256270	0.961486	-0.917556	0.397450	0.011126	-0.384994	-0.881113	-0.274628
07870	9.988314	-0.695590	-4.048647	0.316472	-0.793138	0.361535	-0.115374	-0.270212	0.955863	-0.919621	0.392808	0.000043	-0.375482	-0.879026	-0.293813
07871	9.516804	0.531183	-3.142317	0.473840	-0.521187	0.297794	-0.127231	-0.278844	0.951871	-0.923113	0.384378	-0.010787	-0.362870	-0.880057	-0.306309
07872	8.312272	1.456455	-1.428041	0.328551	-0.986699	0.365917	-0.144684	-0.297075	0.943829	-0.924823	0.379747	-0.022243	-0.351808	-0.876093	-0.329685
07873	10.773066	1.282278	-1.301640	0.234095	-1.078572	0.564184	-0.167260	-0.315331	0.934125	-0.924669	0.378905	-0.037661	-0.342069	-0.870056	-0.354952
07874	10.548036	1.487316	-0.139184	0.255147	-0.632917	0.494692	-0.184207	-0.324458	0.927790	-0.924663	0.377266	-0.051652	-0.333265	-0.867408	-0.369510
07875	10.488650	2.549642	0.317679	0.089256	-0.385346	0.328449	-0.195142	-0.329753	0.923679	-0.923860	0.377959	-0.060249	-0.329245	-0.865107	-0.378401
07876	10.968468	2.786322	-0.498755	0.125325	-0.300930	0.329751	-0.205354	-0.333183	0.920228	-0.923250	0.377916	-0.069198	-0.324713	-0.863811	-0.385218
07877	10.801489	0.987661	-0.817149	-0.016955	-0.155042	0.028869	-0.207401	-0.336292	0.918636	-0.922983	0.378450	-0.069840	-0.324171	-0.862371	-0.388883
07878	11.249331	0.897117	-0.851709	0.153503	-0.142763	0.030624	-0.209370	-0.339113	0.917151	-0.924081	0.375319	-0.072179	-0.319747	-0.862634	-0.391948
07879	11.085300	2.988807	-1.732358	-0.029903	-0.043561	-0.027330	-0.209189	-0.340333	0.916741	-0.924010	0.375644	-0.071392	-0.320071	-0.862012	-0.393052
07880	10.285450	3.939244	-1.808416	-0.403146	0.162144	-0.394213	-0.198859	-0.340593	0.918941	-0.922773	0.380874	-0.058522	-0.330069	-0.859611	-0.390030
07881	9.125722	4.441673	-2.465417	-0.831146	-0.008012	-0.694356	-0.183015	-0.347497	0.919648	-0.919064	0.392591	-0.034555	-0.349037	-0.851539	-0.391221
07882	9.437788	2.641283	-0.270972	-1.063201	-0.265123	-0.693672	-0.169585	-0.360066	0.917384	-0.912572	0.408833	-0.008232	-0.372093	-0.838575	-0.397918
07883	10.848444	1.583868	-1.543115	-1.659958	-0.363134	-0.486548	-0.162163	-0.372749	0.913653	-0.898440	0.438662	0.019501	-0.408054	-0.817700	-0.406028
07884	12.548550	0.790003	-3.767972	-1.579494	-0.114137	-0.160042	-0.159859	-0.376871	0.912367	-0.882334	0.468995	0.039130	-0.442643	-0.798757	-0.407499
07885	11.251504	-0.164187	-5.680380	-1.570164	0.271821	0.157159	-0.160205	-0.369582	0.915283	-0.863688	0.501411	0.051291	-0.477889	-0.782302	-0.399531
07886	9.585338	-0.819075	-6.843307	-1.498484	0.397322	0.203465	-0.159683	-0.359246	0.919480	-0.844398	0.532199	0.061289	-0.511364	-0.766621	-0.388330
07887	10.609973	-2.840544	-6.976015	-0.963359	0.292916	0.107341	-0.158167	-0.352202	0.922462	-0.831458	0.551414	0.067970	-0.532598	-0.756238	-0.380057
07888	11.543850	-4.482903	-6.972883	0.275320	1.250623	-0.045364	-0.140658	-0.328937	0.933818	-0.835351	0.545693	0.066394	-0.531417	-0.770727	-0.351534
07889	9.144744	-3.175015	-5.980847	1.405633	1.831457	-0.549048	-0.105353	-0.300138	0.948060	-0.855359	0.513614	0.067549	-0.507210	-0.803815	-0.310837
07890	9.998328	-1.760932	-5.515760	1.699800	2.018046	-0.882050	-0.061561	-0.269541	0.961019	-0.878130	0.472312	0.076220	-0.474445	-0.839207	-0.265768
07891	8.227075	-0.830817	-4.991571	1.692907	2.181875	-1.199205	-0.010111	-0.236353	0.971615	-0.898599	0.428393	0.094859	-0.438654	-0.872133	-0.216719
07892	6.817132	0.682743	-4.454567	1.317640	1.882830	-1.586651	0.045622	-0.210973	0.976427	-0.911905	0.390279	0.126934	-0.407858	-0.896199	-0.174582
07893	6.978294	1.610702	-4.435806	0.677461	1.608633	-1.868096	0.104211	-0.192304	0.975786	-0.915219	0.365452	0.169764	-0.389249	-0.910749	-0.137917
07894	6.573990	1.724227	-4.741740	0.293505	1.633574	-1.885641	0.162812	-0.171800	0.971585	-0.911797	0.350048	0.214690	-0.376985	-0.920842	-0.099655
07895	6.023278	2.209758	-4.340426	0.153358	1.293047	-1.725736	0.213918	-0.156847	0.964178	-0.905160	0.339320	0.256022	-0.367321	-0.927502	-0.069385
07896	6.049129	1.781517	-4.184381	-0.009649	1.097475	-1.294519	0.252953	-0.142317	0.956954	-0.897581	0.334614	0.287022	-0.361058	-0.931547	-0.043099
07897	6.401974	1.036162	-3.081418	0.133925	0.807728	-0.966261	0.281643	-0.131555	0.950458	-0.892384	0.328094	0.309846	-0.352601	-0.935440	-0.024992
07898	9.186613	0.690140	-1.353317	0.592719	0.719805	-0.975753	0.309425	-0.122548	0.942994	-0.890330	0.310994	0.332560	-0.334020	-0.942478	-0.012879
07899	12.938929	1.447875	1.550304	1.056508	1.384450	-0.857147	0.339338	-0.096191	0.935733	-0.891812	0.283509	0.352554	-0.299201	-0.954133	0.010421
07900	11.521449	9.174613	4.398530	1.047719	2.583810	-1.335131	0.386716	-0.043256	0.921184	-0.886992	0.255926	0.384380	-0.252381	-0.965728	0.060603
07901	7.151130	10.907389	5.941576	-0.041057	2.194108	-0.665497	0.414562	0.005403	0.910005	-0.880148	0.256495	0.399438	-0.231253	-0.966531	0.111088
07902	4.637397	7.456067	4.595008	-1.182362	1.050511	0.202225	0.416292	0.031975	0.908668	-0.875256	0.284733	0.390966	-0.246227	-0.958074	0.146518
07903	4.068192	1.791099	2.837302	-1.641734	-0.363782	0.935072	0.393335	0.030361	0.918894	-0.873866	0.322966	0.363390	-0.285738	-0.945923	0.153566
07904	4.285957	-2.637744	-2.398702	-1.637911	-1.420658	1.285981	0.354128	0.007939	0.935163	-0.873245	0.360706	0.327619	-0.334718	-0.932646	0.134669
07905	8.837243	-3.059423	-5.052428	1.417021	-3.412323	1.027181	0.302885	-0.063306	0.950922	-0.893564	0.328066	0.306456	-0.331366	-0.942531	0.042798
07906	22.846005	10.323662	1.017645	3.251717	-1.015537	-0.387888	0.303951	-0.090398	0.948389	-0.914960	0.249672	0.317035	-0.265446	-0.964102	-0.006823
07907	9.070852	6.868666	0.644553	-0.491863	1.482837	1.087956	0.288722	-0.047761	0.956221	-0.919816	0.263301	0.290881	-0.265667	-0.963531	0.032090
07908	4.687647	1.079216	-4.250821	-1.392636	-1.324524	1.489077	0.244884	-0.069093	0.967087	-0.919844	0.298726	0.254263	-0.306462	-0.951835	0.009599
07909	9.473725	-2.304697	-5.604289	-0.090201	-2.369037	1.199299	0.198481	-0.116359	0.973173	-0.925837	0.303556	0.225121	-0.321607	-0.945682	-0.047479
07910	13.578277	-2.115846	-2.179747	0.578849	-1.100410	1.083815	0.164392	-0.134404	0.977195	-0.935396	0.293180	0.197684	-0.313064	-0.946563	-0.077525
07911	9.358143	0.205353	-1.199523	0.557753	0.163717	0.750397	0.147874	-0.125221	0.981047	-0.942644	0.282305	0.178119	-0.299259	-0.951117	-0.076293
07912	8.621529	1.675026	0.746177	0.337821	-0.515655	0.741162	0.126385	-0.132408	0.983105	-0.947732	0.276577	0.159088	-0.292969	-0.951826	-0.090532
07913	9.634826	0.441596	-2.572511	-0.212891	-0.830503	0.751289	0.102262	-0.146953	0.983843	-0.948345	0.284176	0.141018	-0.300308	-0.947443	-0.110301
07914	10.239249	-0.066273	-2.770617	0.144636	-0.642790	0.720242	0.080189	-0.157153	0.984313	-0.951111	0.283416	0.122733	-0.298258	-0.946033	-0.126743
07915	9.830300	0.085042	-2.240267	0.110576	-0.618436	0.740010	0.057807	-0.166618	0.984326	-0.953248	0.283727	0.104008	-0.296610	-0.944318	-0.142427
07916	9.397335	1.351097	-0.909350	-0.293667	-0.825942	0.803363	0.032295	-0.180355	0.983071	-0.951981	0.294057	0.085222	-0.304449	-0.938617	-0.162197
07917	9.519520	-0.265830	-1.830674	-0.136641	-1.100863	0.832831	0.003878	-0.200000	0.979788	-0.951343	0.301148	0.065238	-0.308109	-0.932368	-0.189101
07918	10.579866	0.463492	-1.103499	-0.089476	-0.716228	0.750960	-0.019683	-0.211038	0.977280	-0.950533	0.307025	0.047156	-0.310001	-0.928008	-0.206642
07919	9.268251	0.101720	-1.160623	0.086369	-0.318554	0.662399	-0.038057	-0.213414	0.976220	-0.950748	0.308472	0.030372	-0.307619	-0.926984	-0.214643
07920	9.303234	2.079899	0.575371	0.353906	-0.565045	0.526754	-0.055043	-0.222562	0.973363	-0.952841	0.303078	0.015417	-0.298436	-0.926612	-0.228749
07921	8.990562	0.960138	0.028820	-0.605106	-0.531214	0.511264	-0.071402	-0.230911	0.970351	-0.947441	0.319868	0.006402	-0.311862	-0.918893	-0.241614
07922	8.588030	-0.511440	-1.982809	-0.939161	-0.728759	0.526846	-0.089852	-0.243235	0.965797	-0.938840	0.344354	-0.000619	-0.332426	-0.906784	-0.259300
07923	7.897356	-0.814204	-5.175233	-0.669321	-1.194073	0.636703	-0.115009	-0.264534	0.957494	-0.931566	0.363390	-0.011498	-0.344902	-0.893292	-0.288224
07924	10.130688	-2.171283	-4.528116	-0.226730	-1.608179	0.629533	-0.143674	-0.294457	0.944803	-0.927595	0.372757	-0.024884	-0.344855	-0.879970	-0.326692
07925	12.009866	-0.321924	-2.461124	0.367298	-0.989569	0.621427	-0.166640	-0.310476	0.935861	-0.928309	0.369341	-0.042765	-0.332375	-0.875895	-0.349765
07926	10.787828	0.710569	-3.222281	0.237383	-0.482256	0.417203	-0.180450	-0.317243	0.931018	-0.928462	0.367366	-0.054775	-0.324647	-0.874300	-0.360839
07927	11.699448	2.202865	-1.372892	0.864751	-0.520825	0.409788	-0.194227	-0.325025	0.925545	-0.933327	0.351658	-0.072367	-0.301955	-0.877892	-0.371657
07928	12.294296	2.599163	0.540076	0.661485	0.017015	0.136864	-0.197449	-0.323526	0.925389	-0.937532	0.338141	-0.081822	-0.286440	-0.883737	-0.370082
07929	11.065986	3.801225	2.898685	0.370681	0.761320	-0.068751	-0.190561	-0.307241	0.932357	-0.940509	0.329294	-0.083714	-0.281299	-0.892843	-0.351713
07930	8.315113	3.082566	3.720396	0.283017	0.889295	-0.155497	-0.180781	-0.288594	0.940230	-0.943231	0.321697	-0.082617	-0.278626	-0.901790	-0.330368
07931	8.242369	3.903607	2.640993	0.196199	0.396381	-0.151682	-0.174542	-0.280873	0.943740	-0.945290	0.316078	-0.080759	-0.275613	-0.906204	-0.320675
07932	8.971573	5.787190	-1.814052	-1.204736	-0.222003	-0.339466	-0.168225	-0.288675	0.942532	-0.938063	0.340671	-0.063088	-0.302882	-0.894768	-0.328105
07933	9.707287	3.806806	-4.172450	-2.294847	-0.822767	-0.335989	-0.167215	-0.309886	0.935954	-0.920700	0.388624	-0.035820	-0.352635	-0.867722	-0.350295
07934	11.639651	0.157183	-3.631149	-2.820659	-1.152744	-0.210995	-0.173492	-0.336562	0.925541	-0.894679	0.446678	-0.005278	-0.411642	-0.828978	-0.378610
07935	13.773191	-3.230518	-4.881120	-1.706386	-0.323305	-0.042496	-0.176075	-0.343669	0.922437	-0.876574	0.481119	0.011928	-0.447901	-0.806484	-0.385964
07936	12.900169	-1.783165	-4.778796	-0.859602	0.504048	-0.129281	-0.167539	-0.335120	0.927160	-0.867332	0.497199	0.022984	-0.468685	-0.800305	-0.373960
07937	10.773589	-0.469022	-5.492915	-0.866711	0.592677	-0.078017	-0.158817	-0.324279	0.932534	-0.857324	0.513741	0.032640	-0.489666	-0.794300	-0.359603
07938	9.854027	-0.495992	-6.931260	-0.738048	0.548828	-0.030010	-0.151403	-0.313794	0.937342	-0.848301	0.528021	0.039745	-0.507408	-0.789131	-0.346136
07939	10.673649	-2.443746	-6.323229	-0.410294	0.933892	-0.299773	-0.133151	-0.299318	0.944817	-0.844161	0.533742	0.050123	-0.519291	-0.790904	-0.323741
07940	10.172502	-2.850359	-5.968846	0.753506	1.474776	-0.469519	-0.104332	-0.275925	0.955500	-0.855289	0.515183	0.055383	-0.507539	-0.811451	-0.289745
07941	8.315933	-1.750262	-5.408326	1.157732	1.780213	-0.778227	-0.065512	-0.248959	0.966296	-0.871389	0.486111	0.066165	-0.486200	-0.837684	-0.248787
07942	9.124570	-0.994506	-4.736861	1.339454	1.801768	-1.040850	-0.021435	-0.222827	0.974622	-0.888404	0.451375	0.083659	-0.458562	-0.864065	-0.207635
07943	7.502767	-0.922232	-4.388705	1.153889	1.979938	-1.321797	0.030084	-0.193878	0.980564	-0.901178	0.419124	0.110518	-0.432405	-0.886987	-0.162110
07944	6.636414	0.219697	-3.357412	0.882579	1.664144	-1.695036	0.085830	-0.173824	0.981029	-0.908078	0.391472	0.148810	-0.409913	-0.903623	-0.124246
07945	7.646230	1.238267	-3.617443	0.640723	1.475796	-1.840479	0.142299	-0.157790	0.977166	-0.909308	0.369165	0.192030	-0.391036	-0.915871	-0.090948
07946	7.559476	1.375754	-3.400456	0.322428	1.527901	-1.752104	0.196587	-0.138546	0.970648	-0.905046	0.355159	0.233995	-0.377154	-0.924482	-0.055571
07947	6.588730	2.265248	-2.948486	0.367118	1.319664	-1.511615	0.242756	-0.121143	0.962494	-0.900201	0.341636	0.270044	-0.361537	-0.931992	-0.026119
07948	6.880345	2.696486	-2.180232	0.431497	1.114071	-1.230916	0.280092	-0.105462	0.954163	-0.896033	0.327962	0.299277	-0.344491	-0.938786	-0.002638
07949	8.221083	2.882184	-1.482441	0.556534	1.254770	-1.202105	0.317290	-0.085589	0.944458	-0.891765	0.311879	0.327851	-0.322617	-0.946259	0.022631
07950	8.459883	3.928131	-0.384550	0.334969	1.358376	-0.991475	0.349831	-0.061062	0.934821	-0.886189	0.302020	0.351360	-0.303790	-0.951344	0.051544
07951	8.246267	4.885160	1.840188	-0.232004	1.385690	-0.599247	0.373322	-0.032758	0.927123	-0.879101	0.306735	0.364823	-0.296332	-0.951231	0.085714
07952	11.646386	5.910427	5.049226	0.313741	1.108056	-0.420932	0.390408	-0.009642	0.920591	-0.877407	0.298936	0.375226	-0.278816	-0.954224	0.108247
07953	8.714302	5.772520	6.119509	-1.012669	1.646733	0.020658	0.401438	0.029563	0.915409	-0.870547	0.322886	0.371337	-0.284595	-0.945976	0.155355
07954	3.760006	3.739161	2.291367	-1.232295	0.636392	0.584630	0.393322	0.049395	0.918073	-0.867346	0.351166	0.352695	-0.304975	-0.935009	0.180964
07955	4.507567	0.662373	0.734831	-0.973249	-0.928762	0.888176	0.366519	0.035760	0.929723	-0.868069	0.372765	0.327876	-0.334843	-0.927237	0.167667
07956	6.586910	-2.087548	-2.450754	0.093190	-2.240572	1.144018	0.322179	-0.005668	0.946662	-0.878793	0.370058	0.301297	-0.352028	-0.928991	0.114244
07957	19.207893	7.490415	-1.043052	3.275797	-2.694615	-0.104292	0.302402	-0.070067	0.950602	-0.904770	0.292688	0.309396	-0.299908	-0.953637	0.025115
07958	14.533414	10.080308	2.006853	0.276029	1.405225	0.733038	0.295875	-0.031256	0.954715	-0.912324	0.286922	0.292131	-0.283060	-0.957444	0.056377
07959	3.663815	1.991528	-2.936998	-1.832862	-0.678502	1.696510	0.251912	-0.034324	0.967141	-0.909962	0.331769	0.248793	-0.329407	-0.942736	0.052343
07960	7.548715	-5.407604	-4.014021	-0.373743	-2.591658	1.477353	0.195986	-0.082831	0.977102	-0.915103	0.342621	0.212595	-0.352385	-0.935815	-0.008650
07961	13.655509	-2.159462	-3.067690	1.035469	-1.500915	1.015144	0.159527	-0.109719	0.981077	-0.928574	0.320681	0.186853	-0.335114	-0.940811	-0.050725
07962	10.176715	2.477640	-2.279772	0.483361	0.141867	0.669425	0.144944	-0.101179	0.984253	-0.935151	0.310969	0.169680	-0.323241	-0.945019	-0.049544
07963	8.469313	1.340190	-0.700294	-0.153019	-0.633772	0.914598	0.118219	-0.109042	0.986982	-0.936955	0.316917	0.147239	-0.328847	-0.942164	-0.064702
07964	9.915396	-1.316968	-2.736758	-0.402959	-0.976526	0.944948	0.087754	-0.124431	0.988340	-0.936057	0.329070	0.124542	-0.340730	-0.936071	-0.087597
07965	10.275249	-0.467375	-2.075231	0.075920	-0.946336	0.841501	0.059799	-0.139705	0.988386	-0.938293	0.330018	0.103415	-0.340633	-0.933580	-0.111350
07966	9.826512	-0.151328	-1.346738	-0.458485	-0.871905	0.792104	0.033512	-0.153409	0.987594	-0.935287	0.343508	0.085096	-0.352301	-0.926536	-0.131969
07967	10.336103	-1.010072	-2.337778	0.019481	-0.940801	0.790998	0.006543	-0.168429	0.985692	-0.935888	0.346180	0.065366	-0.352237	-0.922925	-0.155366
07968	9.381837	0.089341	-1.257318	-0.315331	-0.558495	0.574947	-0.012037	-0.176317	0.984260	-0.933072	0.355862	0.052337	-0.359489	-0.917755	-0.168800
07969	9.442862	0.487824	-1.176250	0.052068	-0.822228	0.550757	-0.032443	-0.190323	0.981185	-0.933261	0.357140	0.038417	-0.357732	-0.914455	-0.189207
07970	10.285784	0.795741	-1.017247	0.147386	-0.366052	0.702552	-0.052289	-0.192486	0.979906	-0.933846	0.357097	0.020315	-0.353832	-0.914019	-0.198424
07971	8.762629	0.806943	0.241148	-0.000921	-0.332614	0.554873	-0.068358	-0.195185	0.978381	-0.933027	0.359747	0.006580	-0.353254	-0.912406	-0.206704
07972	8.944905	0.989505	-0.264036	-0.344421	-0.632348	0.311630	-0.081430	-0.206783	0.974992	-0.929390	0.369099	0.000659	-0.360005	-0.906094	-0.222238
07973	9.021751	-0.029332	-2.099995	-0.515082	-0.790032	0.302202	-0.095818	-0.221820	0.970368	-0.924047	0.382261	-0.003862	-0.370077	-0.897036	-0.241599
07974	9.546813	-0.071572	-1.948847	-0.327754	-0.950554	0.347728	-0.112857	-0.239728	0.964258	-0.920106	0.391532	-0.010349	-0.375057	-0.888388	-0.264763
07975	10.271422	-0.657865	-3.150165	-0.261191	-1.065424	0.702865	-0.139175	-0.256358	0.956510	-0.915456	0.401606	-0.025565	-0.377587	-0.879200	-0.290578
07976	10.121075	-0.693385	-3.227799	-0.582525	-0.804510	0.634520	-0.161499	-0.267476	0.949934	-0.907515	0.418433	-0.036468	-0.387729	-0.867969	-0.310315
07977	10.914745	-1.559974	-4.351794	0.454780	-0.701554	0.634805	-0.182764	-0.276152	0.943577	-0.909131	0.412827	-0.055272	-0.374271	-0.867936	-0.326508
07978	10.985513	0.532974	-2.175502	0.888049	-0.541290	0.345545	-0.195725	-0.284497	0.938484	-0.915565	0.395864	-0.070941	-0.351330	-0.873128	-0.337956
07979	11.962524	1.836259	-0.167451	0.872028	-0.213073	-0.003043	-0.197631	-0.289253	0.936629	-0.923020	0.376673	-0.078434	-0.330115	-0.880029	-0.341428
07980	11.758782	2.646084	1.554993	0.678951	0.647665	-0.186526	-0.188218	-0.276687	0.942347	-0.929429	0.360256	-0.079861	-0.317389	-0.890876	-0.324967
07981	9.006510	3.826939	2.455295	0.263194	0.862044	-0.197087	-0.176945	-0.259201	0.949476	-0.932428	0.352967	-0.077410	-0.315069	-0.899016	-0.304142
07982	8.667104	2.761147	3.132437	0.489471	0.496790	-0.041761	-0.172226	-0.248392	0.953226	-0.936431	0.341565	-0.080186	-0.305671	-0.906441	-0.291428
07983	8.027445	5.684947	1.060317	-0.138248	0.199055	-0.137654	-0.167568	-0.245089	0.954909	-0.935981	0.343746	-0.076020	-0.309615	-0.906515	-0.287000
07984	8.211405	7.503981	-1.350453	-1.554122	-0.604517	-0.293098	-0.165759	-0.261322	0.950913	-0.924553	0.376668	-0.057651	-0.343113	-0.888725	-0.304042
07985	10.105615	4.931818	-2.473829	-3.013563	-1.245559	-0.460000	-0.167009	-0.293112	0.941378	-0.898250	0.438897	-0.022701	-0.406514	-0.849385	-0.336588
07986	12.967729	-0.437493	-4.718087	-3.499305	-0.971500	-0.347611	-0.170173	-0.317295	0.932933	-0.860984	0.508384	0.015855	-0.479319	-0.800543	-0.359700
07987	14.378120	-2.973649	-4.988800	-2.234792	-0.144637	-0.034363	-0.171316	-0.320596	0.931595	-0.833090	0.551917	0.036734	-0.525940	-0.769809	-0.361637
07988	12.586069	-3.527164	-5.840398	-1.322865	0.234040	0.068484	-0.169626	-0.315167	0.933754	-0.814992	0.577572	0.046895	-0.554090	-0.753047	-0.354830
07989	11.063420	-1.686300	-5.818958	-0.739677	0.464423	-0.018175	-0.162796	-0.306717	0.937775	-0.804726	0.591216	0.053669	-0.570889	-0.745915	-0.343071
07990	8.846765	-2.074999	-6.883437	-0.568957	0.844398	-0.125407	-0.148158	-0.292846	0.944611	-0.797053	0.600796	0.061243	-0.585454	-0.743831	-0.322426
07991	10.408278	-2.880921	-5.359282	0.108081	1.059499	-0.432607	-0.124086	-0.279477	0.952100	-0.800174	0.595605	0.070547	-0.586792	-0.753092	-0.297536
07992	9.367471	-3.692254	-5.367484	1.025042	1.546760	-0.544367	-0.090813	-0.257795	0.961922	-0.816531	0.572241	0.076273	-0.570114	-0.778513	-0.262465
07993	8.693158	-2.499277	-5.127367	1.527093	1.626729	-0.888789	-0.049923	-0.237799	0.970031	-0.839386	0.536319	0.088277	-0.541238	-0.809823	-0.226380
07994	8.771721	-1.443268	-4.436736	1.533063	1.675026	-1.148945	-0.003622	-0.218119	0.975916	-0.860372	0.498066	0.108126	-0.509654	-0.839258	-0.189467
07995	7.512840	-1.622310	-4.213779	1.492235	1.728768	-1.416521	0.048342	-0.198208	0.978967	-0.878045	0.458774	0.136245	-0.476130	-0.866164	-0.151857
07996	6.829044	-0.127584	-3.452770	1.435984	1.527388	-1.777279	0.105037	-0.184197	0.977261	-0.891183	0.418657	0.174695	-0.441316	-0.889268	-0.120179
07997	7.866802	0.951998	-2.888059	1.192770	1.377991	-1.761545	0.158964	-0.170946	0.972372	-0.898138	0.383942	0.214327	-0.409973	-0.907395	-0.092500
07998	6.607457	1.540076	-3.887170	1.006421	1.373219	-1.552985	0.207324	-0.153907	0.966090	-0.901054	0.354512	0.249845	-0.380944	-0.922298	-0.065179
07999	5.991486	2.627821	-3.711161	1.195030	1.021940	-1.558731	0.251642	-0.143376	0.957142	-0.903077	0.320854	0.285490	-0.348035	-0.936214	-0.048739
08000	6.952964	4.273156	-3.026346	1.203649	0.940798	-1.536503	0.293966	-0.132954	0.946524	-0.902639	0.287086	0.320662	-0.314367	-0.948633	-0.035616
08001	7.827834	5.373346	-1.948454	0.950876	0.929338	-1.332994	0.330818	-0.120007	0.936033	-0.899433	0.260110	0.351231	-0.285622	-0.958092	-0.021889
08002	9.513710	5.864964	0.110258	0.710417	1.064011	-1.033328	0.361124	-0.100980	0.927034	-0.895415	0.240078	0.374959	-0.260423	-0.965487	-0.003721
08003	11.905579	6.080525	3.976914	0.632213	1.440266	-0.653455	0.384484	-0.069977	0.920476	-0.893292	0.223268	0.390103	-0.232811	-0.972242	0.023333
08004	10.320152	8.825006	5.839255	0.050889	2.135848	-0.447356	0.406167	-0.020556	0.913567	-0.889221	0.221417	0.400325	-0.210508	-0.974963	0.071653
08005	6.559599	7.892545	3.422429	-1.306569	1.321174	-0.166456	0.416947	0.010467	0.908871	-0.880449	0.253010	0.400994	-0.225756	-0.967407	0.114707
08006	4.665366	5.073105	1.332236	-2.010245	0.499006	0.478483	0.409417	0.025702	0.911985	-0.873133	0.300951	0.383494	-0.264606	-0.953293	0.145656
08007	3.838121	0.240286	0.262184	-2.258486	-0.746299	1.151443	0.378788	0.017445	0.925319	-0.868008	0.353549	0.348661	-0.321063	-0.935253	0.149063
08008	5.334540	-3.390597	-3.672678	-1.222725	-2.014261	1.348840	0.332086	-0.017033	0.943095	-0.869572	0.381859	0.313093	-0.365463	-0.924063	0.111999
08009	16.404544	0.228003	-0.580395	3.005425	-3.276637	0.261297	0.297888	-0.091489	0.950207	-0.897660	0.311793	0.311435	-0.324761	-0.945735	0.010754
08010	18.797500	9.523685	-0.669338	1.485831	0.918463	0.234636	0.299442	-0.067963	0.951691	-0.910794	0.276785	0.306340	-0.284233	-0.958526	0.020981
08011	3.267113	8.222889	-2.875703	0.309160	0.207044	1.198940	0.273302	-0.054860	0.960363	-0.921603	0.271104	0.277759	-0.275596	-0.960986	0.023534
08012	6.512320	-0.522484	1.931252	-1.149611	-1.724191	1.331385	0.229819	-0.086624	0.969371	-0.921572	0.300831	0.245370	-0.312872	-0.949735	-0.010693
08013	10.701968	-4.290378	-5.467034	-0.268869	-2.139151	1.306005	0.182329	-0.127318	0.974960	-0.926194	0.310593	0.213769	-0.330032	-0.941978	-0.061292
08014	11.972780	-2.391264	-3.994292	0.188088	-0.913028	1.107785	0.148919	-0.140300	0.978846	-0.932384	0.309790	0.186253	-0.329368	-0.940397	-0.084679
08015	9.554328	-0.126252	-5.794266	0.051055	-0.542155	0.746243	0.126866	-0.147334	0.980917	-0.935428	0.311195	0.167724	-0.329968	-0.938856	-0.098340
08016	10.269566	1.233646	-4.245478	0.404823	-0.736388	0.619790	0.106152	-0.159959	0.981399	-0.940582	0.304002	0.151287	-0.322547	-0.939146	-0.118184
08017	10.480412	0.595435	-2.257617	0.141542	-0.655983	0.851563	0.080641	-0.168986	0.982314	-0.943750	0.304121	0.129793	-0.320676	-0.937525	-0.134956
08018	10.026676	1.057426	-0.104308	-0.536442	-0.683182	0.905910	0.053521	-0.177976	0.982578	-0.940914	0.320518	0.109308	-0.334389	-0.930372	-0.150305
08019	9.111190	-1.579406	-2.651964	-0.559438	-0.695263	0.845202	0.027566	-0.187233	0.981929	-0.937034	0.337277	0.090617	-0.348149	-0.922598	-0.166147
08020	10.243759	0.103796	-1.059277	0.213481	-0.652136	0.507383	0.009840	-0.198103	0.980132	-0.939151	0.334745	0.077086	-0.343365	-0.921250	-0.182755
08021	9.581267	1.017892	-0.483385	0.243781	-0.404998	0.496865	-0.005477	-0.203390	0.979083	-0.941285	0.331567	0.063613	-0.337569	-0.921247	-0.193263
08022	9.343244	1.650994	-0.440741	-0.217786	-0.299646	0.674117	-0.024057	-0.204712	0.978527	-0.939215	0.339954	0.048029	-0.342487	-0.917891	-0.200447
08023	8.994423	1.660151	-1.052989	-0.146105	-0.339357	0.736552	-0.044435	-0.206249	0.977490	-0.937356	0.347026	0.030612	-0.345528	-0.914896	-0.208749
08024	7.901903	0.780393	-0.835039	-0.561916	-0.654304	0.570116	-0.063684	-0.216171	0.974276	-0.931672	0.362772	0.019592	-0.357675	-0.906458	-0.224504
08025	10.317577	0.050023	-1.913593	0.247223	-1.419400	0.573710	-0.089772	-0.243129	0.965831	-0.932780	0.360424	0.004030	-0.349088	-0.900546	-0.259141
08026	10.058136	0.943771	-0.943455	-0.357703	-0.714605	0.605209	-0.110317	-0.253682	0.960976	-0.928137	0.372146	-0.008307	-0.355516	-0.892834	-0.276506
08027	9.872880	0.472531	-1.404285	0.100293	-1.139022	0.752764	-0.137979	-0.272055	0.952338	-0.926704	0.374807	-0.027194	-0.349544	-0.886288	-0.303830
08028	10.731934	0.798942	-1.373591	0.331544	-1.005424	0.805841	-0.165451	-0.286816	0.943590	-0.926513	0.373050	-0.049064	-0.337934	-0.882366	-0.327461
08029	10.850549	0.511543	-2.367922	0.414881	-0.931552	0.696097	-0.189443	-0.300935	0.934639	-0.926872	0.368969	-0.069068	-0.324068	-0.879374	-0.348827
08030	11.811767	1.250151	-0.584977	0.514207	-0.556600	0.409211	-0.203491	-0.309501	0.928871	-0.928943	0.360726	-0.083312	-0.309282	-0.879822	-0.360913
08031	11.724553	1.968516	0.273269	0.307184	0.234906	0.020430	-0.202303	-0.304190	0.930882	-0.931204	0.354043	-0.086680	-0.303205	-0.884377	-0.354887
08032	10.196975	2.789091	1.565267	0.270577	0.776979	-0.090893	-0.194441	-0.287775	0.937752	-0.933713	0.347284	-0.087030	-0.300621	-0.892513	-0.336226
08033	9.343286	1.500930	3.182436	0.549203	0.601902	-0.141863	-0.186779	-0.275525	0.942974	-0.938467	0.333882	-0.088330	-0.290505	-0.901448	-0.320933
08034	9.330377	4.005674	1.447195	0.552900	0.557360	-0.134249	-0.179737	-0.264033	0.947619	-0.943049	0.320356	-0.089610	-0.279915	-0.909757	-0.306576
08035	7.695544	7.394507	-1.070077	-0.691756	-0.056037	-0.285560	-0.173494	-0.267663	0.947764	-0.939361	0.334030	-0.077620	-0.295806	-0.903759	-0.309384
08036	9.173449	4.962736	-2.383166	-2.500602	-1.299631	-0.319027	-0.176593	-0.299422	0.937636	-0.920654	0.387197	-0.049748	-0.348154	-0.872024	-0.344041
08037	12.394134	0.241813	-4.792378	-3.107843	-1.316128	-0.232729	-0.183883	-0.329882	0.925940	-0.892171	0.451401	-0.016357	-0.412574	-0.829105	-0.377316
08038	14.510285	-3.106353	-5.427006	-1.901754	-0.216622	0.050043	-0.187377	-0.333727	0.923859	-0.871392	0.490587	0.000480	-0.453394	-0.804954	-0.382732
08039	13.043280	-2.905006	-4.906620	-1.026066	0.498696	0.050480	-0.182717	-0.323112	0.928554	-0.859263	0.511458	0.008891	-0.477789	-0.796247	-0.371090
08040	10.263770	-1.764884	-5.431386	-0.873530	0.692412	0.055329	-0.175499	-0.308651	0.934845	-0.848398	0.529134	0.015431	-0.499421	-0.790412	-0.354721
08041	9.634805	-1.789881	-6.672425	-0.537219	0.679558	-0.047671	-0.165953	-0.295867	0.940703	-0.841855	0.539291	0.021101	-0.513556	-0.788434	-0.338574
08042	11.082198	-3.263579	-6.072551	0.034031	1.178436	-0.413406	-0.142133	-0.278053	0.949992	-0.843943	0.535566	0.030488	-0.517260	-0.797406	-0.310783
08043	10.839256	-3.346698	-6.225015	1.067736	1.667939	-0.697398	-0.106162	-0.253378	0.961524	-0.859742	0.509217	0.039263	-0.499573	-0.822495	-0.271899
08044	8.893415	-1.800597	-5.521714	1.559102	1.919852	-0.989168	-0.061471	-0.225271	0.972355	-0.880769	0.470534	0.053330	-0.469540	-0.853141	-0.227336
08045	9.083081	-1.296042	-5.027536	1.437683	1.930637	-1.415036	-0.008165	-0.199415	0.979881	-0.898395	0.431770	0.080383	-0.439112	-0.879664	-0.182679
08046	7.012865	-0.791464	-4.270792	1.325275	1.938522	-1.677569	0.050218	-0.173567	0.983541	-0.911610	0.394312	0.116130	-0.407978	-0.902437	-0.138423
08047	6.209897	0.364198	-3.566725	0.941890	1.619888	-2.015321	0.112192	-0.155846	0.981389	-0.916893	0.364469	0.162697	-0.383042	-0.918082	-0.102004
08048	6.798664	1.016418	-3.441047	0.423798	1.491166	-1.972256	0.171212	-0.139036	0.975375	-0.913945	0.347320	0.209938	-0.367956	-0.927382	-0.067606
08049	5.919770	0.503358	-3.609728	0.230220	1.256657	-1.664397	0.220370	-0.124083	0.967492	-0.907945	0.336393	0.249950	-0.356472	-0.933511	-0.038529
08050	5.590896	1.215613	-3.644769	0.290387	0.955717	-1.378316	0.259792	-0.113185	0.959008	-0.902282	0.325413	0.282831	-0.344086	-0.938773	-0.017585
08051	6.254836	1.773873	-2.937240	0.293191	0.819493	-1.192655	0.293392	-0.103536	0.950369	-0.896580	0.315192	0.311125	-0.331761	-0.943363	-0.000353
08052	7.485475	2.395297	-2.303791	0.065252	0.740052	-0.884836	0.319084	-0.093083	0.943144	-0.890411	0.311386	0.331976	-0.324583	-0.945714	0.016476
08053	9.111130	2.881565	0.850813	0.083457	0.753902	-0.607758	0.338476	-0.080043	0.937564	-0.886155	0.308004	0.346212	-0.316486	-0.948012	0.033321
08054	15.859980	5.425993	6.892798	1.354445	1.245729	-0.714457	0.363416	-0.055630	0.929965	-0.889981	0.274387	0.364205	-0.275431	-0.960009	0.050207
08055	9.972937	9.908826	7.336576	-0.672979	2.348734	-0.436677	0.388916	-0.002493	0.921270	-0.881374	0.290095	0.372860	-0.268185	-0.956995	0.110626
08056	4.915829	8.557659	5.478302	-0.767856	1.069857	-0.083343	0.397888	0.022342	0.917162	-0.875419	0.308316	0.372268	-0.274458	-0.951022	0.142234
08057	4.086501	4.497677	5.943836	-1.178824	0.122674	0.786044	0.381471	0.031524	0.923843	-0.874695	0.335557	0.349727	-0.298978	-0.941492	0.155579
08058	4.524740	-2.563931	-0.848359	-1.622885	-1.773531	1.279429	0.339017	0.001371	0.940779	-0.873116	0.372847	0.314090	-0.350336	-0.927892	0.127599
08059	11.398998	2.080192	-5.819475	2.356429	-3.585453	0.323214	0.301381	-0.079875	0.950152	-0.895744	0.317835	0.310842	-0.326820	-0.944776	0.024242
08060	18.423551	6.278094	0.672325	1.500648	-0.674638	0.290809	0.289434	-0.093768	0.952594	-0.909677	0.282727	0.304225	-0.297850	-0.954606	-0.003468
08061	5.533083	2.528963	-6.692796	-0.927683	-0.023553	1.384605	0.257605	-0.084163	0.962578	-0.912055	0.307764	0.270993	-0.319054	-0.947733	0.002520
08062	7.188340	-1.594753	-4.299492	0.133776	-1.830245	1.100291	0.217505	-0.119072	0.968769	-0.919728	0.307301	0.244265	-0.326789	-0.944133	-0.042674
08063	11.831482	-1.317109	-4.883983	0.576726	-1.505602	1.013276	0.181751	-0.147036	0.972290	-0.929511	0.296977	0.218665	-0.320899	-0.943496	-0.082696
08064	11.413502	-0.784463	-3.579659	0.773320	-0.591473	0.989892	0.153837	-0.153942	0.976031	-0.939768	0.282348	0.192654	-0.305238	-0.946880	-0.101234
08065	9.402706	0.412493	-2.709597	0.096241	-0.389728	0.787971	0.132155	-0.157696	0.978605	-0.943367	0.283066	0.173011	-0.304293	-0.946047	-0.111357
08066	9.705790	0.436293	-3.067547	0.384962	-0.686489	0.696490	0.110353	-0.169164	0.979391	-0.948418	0.276736	0.154662	-0.297196	-0.945939	-0.129899
08067	10.169710	1.029362	-1.671834	0.387292	-0.531245	0.723517	0.089086	-0.176888	0.980191	-0.953102	0.270639	0.135465	-0.289240	-0.946290	-0.144483
08068	9.418453	1.260947	-0.916394	-0.282188	-0.921252	0.854098	0.061803	-0.192829	0.979284	-0.952681	0.281178	0.115491	-0.297623	-0.940083	-0.166327
08069	9.595300	0.891983	-2.115114	-0.873163	-1.064701	1.038443	0.028748	-0.210168	0.977242	-0.947155	0.306745	0.093832	-0.319484	-0.928298	-0.190244
08070	9.560113	-1.918952	-3.019061	-0.209456	-0.930631	0.985613	-0.002249	-0.224105	0.974562	-0.945827	0.316882	0.070686	-0.324663	-0.921609	-0.212677
08071	10.284843	-0.973272	-1.698705	0.187945	-0.644012	0.496112	-0.019365	-0.235101	0.971778	-0.947237	0.315351	0.057417	-0.319950	-0.919392	-0.228803
08072	9.408934	1.061847	-1.189631	-0.058303	-0.516852	0.408757	-0.033371	-0.243809	0.969249	-0.946528	0.319080	0.047674	-0.320892	-0.915830	-0.241420
08073	9.302033	0.537385	-2.360466	-0.142711	-0.480298	0.408114	-0.047077	-0.251584	0.966690	-0.944994	0.324812	0.038513	-0.323682	-0.911703	-0.253036
08074	9.505954	0.669275	-2.644380	0.317930	-0.559370	0.627709	-0.066573	-0.259342	0.963488	-0.946665	0.321525	0.021134	-0.315266	-0.910694	-0.266915
08075	8.311864	1.325587	-1.269727	0.014681	-0.429329	0.728268	-0.087358	-0.263295	0.960752	-0.945400	0.325897	0.003350	-0.313988	-0.908002	-0.277388
08076	9.085648	-0.099086	-2.039644	-0.006900	-1.523379	0.560312	-0.112660	-0.293166	0.949401	-0.943962	0.329899	-0.010145	-0.310233	-0.897341	-0.313903
08077	11.605938	1.936184	-1.408211	0.062977	-1.131840	0.727886	-0.138705	-0.312482	0.939743	-0.942172	0.333956	-0.028017	-0.305077	-0.889286	-0.340733
08078	10.601222	1.362301	-0.559423	0.128148	-0.792650	0.800242	-0.163687	-0.323409	0.931994	-0.940126	0.337426	-0.048026	-0.298947	-0.884054	-0.359277
08079	11.616922	1.518582	-1.047949	0.456384	-0.548635	0.613235	-0.182272	-0.330461	0.926052	-0.940819	0.332301	-0.066597	-0.285720	-0.883387	-0.371473
08080	12.008923	2.658228	-0.420930	0.292050	-0.005646	0.248458	-0.188301	-0.328595	0.925510	-0.941739	0.327829	-0.075210	-0.278695	-0.885750	-0.371181
08081	11.225460	3.285675	0.331718	-0.292133	0.468842	0.008293	-0.185307	-0.318188	0.929741	-0.939645	0.334302	-0.072872	-0.287627	-0.887129	-0.360932
08082	9.669292	3.093178	1.005525	-0.073004	0.598024	0.113354	-0.183749	-0.303990	0.934787	-0.938610	0.336729	-0.074997	-0.291971	-0.891181	-0.347202
08083	9.040666	2.604182	1.957976	-0.172990	0.461323	0.002525	-0.180505	-0.293716	0.938695	-0.937344	0.340521	-0.073697	-0.297999	-0.893183	-0.336779
08084	9.230733	1.594201	0.508532	-0.377057	0.374296	-0.176175	-0.173627	-0.286905	0.942093	-0.935293	0.347563	-0.066527	-0.308350	-0.892684	-0.328687
08085	8.117365	3.955247	-3.487030	-1.378489	0.411463	-0.218465	-0.165276	-0.279767	0.945735	-0.925045	0.376516	-0.050280	-0.342018	-0.883157	-0.321026
08086	8.282137	3.392701	-6.163547	-2.593083	-0.735782	-0.296092	-0.165387	-0.298738	0.939895	-0.902307	0.430537	-0.021930	-0.398108	-0.851700	-0.340758
08087	11.104391	-0.544494	-6.427177	-2.892943	-1.205241	-0.373259	-0.170061	-0.328077	0.929217	-0.872966	0.487624	0.012399	-0.457177	-0.809066	-0.369325
08088	12.032761	-4.139019	-4.112414	-1.846576	-0.479807	-0.251477	-0.170427	-0.340812	0.924555	-0.852097	0.522185	0.035419	-0.494860	-0.781774	-0.379399
08089	12.296192	-1.437330	-2.572055	-0.564398	0.314236	-0.146060	-0.163470	-0.336621	0.927342	-0.845677	0.531878	0.043995	-0.508042	-0.777041	-0.371619
08090	11.269852	1.201552	-3.494079	-0.288479	0.587641	-0.190096	-0.152019	-0.327732	0.932460	-0.842786	0.535834	0.050931	-0.516336	-0.778121	-0.357665
08091	10.185413	1.118588	-4.397282	-0.736275	0.485495	0.036307	-0.146491	-0.317829	0.936763	-0.833043	0.550321	0.056444	-0.533460	-0.772096	-0.345382
08092	9.387081	-1.032760	-6.596716	-0.795084	0.321451	0.039378	-0.143030	-0.311105	0.939551	-0.822179	0.565821	0.062193	-0.550966	-0.763584	-0.336713
08093	12.281714	-3.482566	-6.092245	-0.130763	0.938385	-0.290969	-0.124155	-0.297243	0.946695	-0.821398	0.566044	0.070004	-0.556679	-0.768922	-0.314432
08094	10.638641	-2.946596	-5.868796	1.150049	1.764633	-0.454500	-0.090688	-0.268969	0.958870	-0.838412	0.540228	0.072242	-0.537439	-0.797376	-0.274499
08095	9.378502	-1.629843	-5.142531	1.515724	2.082075	-0.818341	-0.046193	-0.237278	0.970343	-0.859703	0.504113	0.082345	-0.508701	-0.830403	-0.227276
08096	8.928499	-0.782522	-4.413583	1.499339	2.078275	-1.215541	0.005725	-0.208093	0.978092	-0.878864	0.465556	0.104193	-0.477038	-0.860206	-0.180220
08097	7.421744	0.531491	-3.773320	1.191679	1.856069	-1.644469	0.063481	-0.186106	0.980477	-0.891304	0.431385	0.139590	-0.448941	-0.882764	-0.138492
08098	7.928102	2.062964	-3.151715	0.702469	1.681209	-1.918285	0.124640	-0.168824	0.977734	-0.894570	0.407140	0.184339	-0.429195	-0.897628	-0.100279
08099	7.183119	1.875954	-3.778535	0.206738	1.740862	-1.726218	0.181461	-0.146920	0.972361	-0.890221	0.395570	0.225901	-0.417826	-0.906609	-0.059011
08100	5.696048	1.105560	-4.055086	0.065399	1.612008	-1.374363	0.228449	-0.123795	0.965653	-0.883923	0.389340	0.259026	-0.408034	-0.912737	-0.020481
08101	5.268648	1.032798	-2.735373	0.133358	1.053186	-1.025578	0.261525	-0.109677	0.958945	-0.879057	0.383208	0.283566	-0.398576	-0.917128	0.003806
08102	5.288685	0.712024	-3.078895	0.166038	0.576095	-0.719445	0.282843	-0.103364	0.953580	-0.875874	0.377390	0.300702	-0.390954	-0.920268	0.016209
08103	6.655423	1.470839	-2.145178	0.303953	0.368283	-0.821577	0.304204	-0.102620	0.947063	-0.872854	0.368181	0.320262	-0.381556	-0.924073	0.022430
08104	11.232763	1.920430	0.437427	0.499184	0.460946	-0.747545	0.324662	-0.098790	0.940657	-0.871725	0.354646	0.338116	-0.367002	-0.929767	0.029023
08105	15.078904	4.617874	6.979549	1.354743	1.714242	-0.664010	0.353814	-0.064323	0.933101	-0.877854	0.321449	0.355024	-0.322781	-0.944740	0.057267
08106	8.924806	10.199966	4.855365	-0.166360	1.996517	-0.692047	0.384533	-0.022802	0.922829	-0.870237	0.324525	0.370637	-0.307932	-0.945602	0.104947
08107	7.106867	11.312509	5.190937	-0.153946	0.828151	-0.466193	0.400840	-0.007106	0.916120	-0.864562	0.327880	0.380824	-0.303084	-0.944693	0.125284
08108	7.496658	6.834148	6.925626	-1.497779	0.525756	0.069509	0.403402	0.005766	0.915004	-0.853480	0.362909	0.373991	-0.329907	-0.931807	0.151319
08109	4.543221	1.445118	1.666268	-1.745177	0.204148	0.861098	0.386776	0.018682	0.921985	-0.846900	0.402830	0.347115	-0.364918	-0.915084	0.171627
08110	3.432764	-2.803644	-2.708614	-1.423879	-1.599189	1.372446	0.342145	-0.003282	0.939642	-0.845697	0.434780	0.309456	-0.409553	-0.900531	0.145982
08111	7.161734	-3.908617	-5.777293	0.869951	-3.228140	1.260197	0.281736	-0.062900	0.957428	-0.864594	0.416046	0.281751	-0.416056	-0.907166	0.062832
08112	20.764905	5.683492	1.033541	3.425858	-2.092527	-0.508687	0.272604	-0.115960	0.955113	-0.894193	0.335866	0.295994	-0.355113	-0.934745	-0.012132
08113	12.651994	6.608325	-2.781707	0.051158	1.301284	0.342796	0.276182	-0.082670	0.957543	-0.897064	0.335419	0.287697	-0.344962	-0.938435	0.018476
08114	4.339836	4.745441	-4.974392	-0.445984	-0.747355	1.140631	0.243832	-0.090477	0.965588	-0.900616	0.348227	0.260055	-0.359772	-0.933034	0.003423
08115	8.213200	0.965019	-3.519216	-0.595486	-2.103823	0.905024	0.203733	-0.131297	0.970183	-0.900195	0.364465	0.238359	-0.384893	-0.921915	-0.043939
08116	12.233550	-2.864631	-4.037943	-0.128074	-1.728564	1.168330	0.160363	-0.160327	0.973950	-0.904318	0.371592	0.210068	-0.395592	-0.914448	-0.085397
08117	11.600873	-2.911141	-2.630114	0.291659	-0.595534	1.052257	0.130464	-0.164297	0.977745	-0.911066	0.369125	0.183594	-0.391074	-0.914742	-0.101528
08118	9.448350	-0.121137	-2.095406	0.311660	-0.140979	0.581784	0.115634	-0.162284	0.979945	-0.915930	0.364295	0.168410	-0.384319	-0.917035	-0.106516
08119	8.963042	2.224352	-1.778367	0.373134	-0.370436	0.399016	0.102767	-0.167281	0.980539	-0.920621	0.357308	0.157444	-0.376691	-0.918884	-0.117283
08120	9.995305	1.875597	-1.896256	0.223074	-0.484138	0.474731	0.087105	-0.174278	0.980836	-0.923885	0.354145	0.144973	-0.372624	-0.918808	-0.130165
08121	9.916307	1.587002	-1.277573	0.099839	-0.460368	0.634410	0.067972	-0.179324	0.981439	-0.926088	0.354595	0.128928	-0.371134	-0.917663	-0.141967
08122	9.988862	1.321973	0.221836	-0.633885	-0.443357	0.774828	0.045699	-0.182506	0.982142	-0.921230	0.372521	0.112089	-0.386325	-0.909901	-0.151106
08123	8.262521	-0.163348	-1.326477	-0.809490	-1.020047	0.891257	0.014973	-0.197087	0.980272	-0.913933	0.394978	0.093372	-0.405588	-0.897301	-0.174210
08124	9.573005	-1.631256	-3.202759	-0.041033	-1.286696	0.861259	-0.017947	-0.217360	0.975927	-0.913524	0.400298	0.072356	-0.406389	-0.890234	-0.205747
08125	10.444234	-1.080956	-2.390607	0.086811	-0.829300	0.511249	-0.038216	-0.230736	0.972266	-0.914080	0.401178	0.059278	-0.403730	-0.886463	-0.226243
08126	9.421550	0.301716	-2.280215	0.252371	-0.640131	0.332451	-0.052425	-0.241671	0.968941	-0.916263	0.397497	0.049568	-0.397131	-0.885207	-0.242273
08127	9.640502	0.570480	-2.120637	0.238009	-0.634252	0.414284	-0.068363	-0.251669	0.965396	-0.918013	0.394736	0.037896	-0.390614	-0.883655	-0.258021
08128	9.808086	1.295322	-0.796857	0.357108	-0.505995	0.444770	-0.083661	-0.258563	0.962365	-0.920642	0.389629	0.024650	-0.381339	-0.883931	-0.270641
08129	9.021612	1.987608	-0.460308	0.141131	-0.461075	0.396822	-0.097353	-0.264951	0.959335	-0.921108	0.389055	0.013977	-0.376937	-0.882291	-0.281924
08130	9.093367	1.374830	-0.325578	-0.072959	-0.619801	0.443293	-0.113569	-0.274314	0.954910	-0.919278	0.393592	0.003735	-0.376870	-0.877404	-0.296871
08131	9.053350	0.562181	-1.429150	-0.252284	-0.876768	0.374434	-0.130622	-0.289790	0.948135	-0.915773	0.401682	-0.003393	-0.379865	-0.868720	-0.317850
08132	9.697979	0.433966	-2.356522	-0.396178	-1.162241	0.701845	-0.157910	-0.307734	0.938277	-0.909479	0.415409	-0.016818	-0.384594	-0.855999	-0.345475
08133	9.648327	-0.304162	-3.159852	-0.387713	-1.116475	0.738643	-0.185594	-0.323698	0.927779	-0.902582	0.429420	-0.030731	-0.388459	-0.843101	-0.371861
08134	10.704986	0.556474	-3.506222	0.027405	-1.198831	0.510420	-0.208803	-0.343365	0.915697	-0.900348	0.433048	-0.042919	-0.381804	-0.833408	-0.399570
08135	12.314399	0.609815	-3.910381	-0.030123	-0.698503	0.378743	-0.224112	-0.353788	0.908079	-0.898029	0.436923	-0.051407	-0.378573	-0.827002	-0.415631
08136	13.007513	1.180035	-1.788271	0.106843	-0.090661	0.141207	-0.228287	-0.354162	0.906892	-0.898254	0.435910	-0.055880	-0.375533	-0.827376	-0.417640
08137	12.783880	1.892403	0.601797	0.419030	0.621614	-0.101342	-0.220355	-0.342355	0.913366	-0.902744	0.426248	-0.058023	-0.369456	-0.837321	-0.402985
08138	10.609599	4.866259	4.019248	0.599091	0.969421	-0.057301	-0.210328	-0.322517	0.922900	-0.908547	0.413049	-0.062713	-0.360977	-0.851689	-0.379897
08139	7.245273	7.453896	1.881298	0.155755	0.945316	-0.306249	-0.194912	-0.305440	0.932049	-0.911538	0.407222	-0.057173	-0.362089	-0.860742	-0.357793
08140	8.088072	6.035764	0.409884	-0.567658	-0.179746	-0.832706	-0.177675	-0.317845	0.931346	-0.910228	0.412809	-0.032765	-0.374054	-0.853559	-0.362657
08141	8.574327	4.228574	-0.946622	-1.858360	-0.485168	-0.711902	-0.166442	-0.335712	0.927143	-0.895025	0.446015	0.000823	-0.413796	-0.829680	-0.374706
08142	11.610755	2.282124	-4.287052	-2.300807	-1.213097	-0.510983	-0.168441	-0.366288	0.915129	-0.872084	0.488113	0.034853	-0.459452	-0.792199	-0.401653
08143	13.685019	0.989112	-5.917549	-2.439614	-0.260143	-0.150534	-0.168410	-0.373256	0.912315	-0.843174	0.533959	0.062812	-0.510584	-0.758662	-0.404644
08144	11.131662	-0.551658	-8.272489	-2.077689	-0.025804	0.198312	-0.172908	-0.370980	0.912402	-0.814737	0.574402	0.079150	-0.553449	-0.729682	-0.401570
08145	9.917712	-1.638834	-8.735619	-1.803748	0.275100	0.255796	-0.174153	-0.362248	0.915667	-0.787879	0.609055	0.091101	-0.590693	-0.705569	-0.391477
08146	11.111344	-5.088145	-7.892996	-0.904314	0.856377	-0.085239	-0.159683	-0.348512	0.923602	-0.774695	0.624125	0.101569	-0.611841	-0.699290	-0.369653
08147	9.919924	-4.853040	-7.435829	0.357003	1.548008	-0.212376	-0.131985	-0.324364	0.936679	-0.780987	0.615954	0.103252	-0.610442	-0.717906	-0.334621
08148	9.089876	-4.174321	-6.493224	1.297442	1.724743	-0.461626	-0.097076	-0.299627	0.949105	-0.801844	0.588456	0.103758	-0.589595	-0.750961	-0.297379
08149	9.264637	-4.057029	-5.796658	1.920824	2.008051	-0.808118	-0.051981	-0.272316	0.960803	-0.830891	0.545522	0.109663	-0.554002	-0.792622	-0.254622
08150	8.309083	-2.717545	-5.156497	2.326703	2.114607	-1.240540	0.002190	-0.245294	0.969446	-0.862581	0.489996	0.125930	-0.505915	-0.836501	-0.210513
08151	6.442651	0.062914	-4.215618	2.211652	2.196820	-1.728831	0.066307	-0.218228	0.973643	-0.887769	0.432539	0.157407	-0.455489	-0.874807	-0.165056
08152	5.627090	2.346179	-3.812402	1.524207	1.996150	-2.123922	0.135382	-0.195707	0.971273	-0.899103	0.387600	0.203422	-0.416276	-0.900814	-0.123487
08153	5.582273	3.541236	-3.774192	0.895571	1.552704	-2.114374	0.198424	-0.180154	0.963417	-0.899375	0.357217	0.252032	-0.389553	-0.916483	-0.091145
08154	5.877583	3.848128	-3.933358	0.430042	1.162874	-1.746683	0.248524	-0.168648	0.953831	-0.893791	0.339606	0.292926	-0.373328	-0.925325	-0.066336
08155	6.532844	3.733608	-3.353439	0.194224	0.954734	-1.216246	0.284242	-0.156747	0.945852	-0.887551	0.330064	0.321420	-0.362574	-0.930853	-0.045303
08156	6.904448	3.127548	-2.740376	0.108565	0.840818	-0.850583	0.310442	-0.144178	0.939595	-0.882274	0.324247	0.341258	-0.353862	-0.934921	-0.026545
08157	8.726379	4.075387	-1.083108	0.334610	0.754308	-0.745419	0.333255	-0.132537	0.933475	-0.879253	0.313740	0.358443	-0.340375	-0.940213	-0.011979
08158	11.442141	3.002179	2.436640	0.096042	1.018793	-0.348314	0.349288	-0.111358	0.930375	-0.877159	0.310329	0.366454	-0.329529	-0.944084	0.010715
08159	12.373962	4.826765	5.956868	0.259169	1.988186	-0.295805	0.371426	-0.066625	0.926069	-0.876629	0.303437	0.373427	-0.305883	-0.950519	0.054300
08160	7.033419	7.793523	2.955351	-0.839714	1.724223	-0.399638	0.393226	-0.028941	0.918986	-0.866447	0.322766	0.380909	-0.307641	-0.946036	0.101845
08161	6.436183	8.103674	3.955421	-0.139802	0.627173	-0.124786	0.400603	-0.015192	0.916126	-0.864215	0.325895	0.383308	-0.304384	-0.945284	0.117425
08162	6.234377	4.948156	5.852656	-0.876991	0.346886	0.570087	0.390895	-0.002294	0.920433	-0.863084	0.346557	0.367403	-0.319825	-0.938026	0.133487
08163	3.836051	-0.761190	-0.224601	-1.812367	-0.744421	1.222834	0.358084	-0.008400	0.933652	-0.859072	0.388742	0.332978	-0.365747	-0.921308	0.131986
08164	5.205873	-2.899837	-5.540959	0.110395	-2.694634	1.249382	0.305631	-0.058371	0.950359	-0.870555	0.387134	0.303744	-0.385646	-0.920174	0.067505
08165	18.788421	6.205601	-0.879906	3.500929	-3.211164	-0.610714	0.290176	-0.138570	0.946888	-0.897519	0.303916	0.319522	-0.332050	-0.942568	-0.036180
08166	17.786385	9.615027	1.081193	1.040234	1.084734	0.338938	0.290978	-0.110450	0.950333	-0.908276	0.280216	0.310668	-0.300612	-0.953562	-0.018783
08167	4.353845	6.090656	-3.982305	-0.497783	-0.079762	1.651733	0.252586	-0.100511	0.962340	-0.915745	0.296318	0.271305	-0.312428	-0.949786	-0.017197
08168	6.087056	0.053193	-1.995723	-0.539758	-1.329074	1.402065	0.209589	-0.121351	0.970230	-0.919547	0.312884	0.237775	-0.332424	-0.942007	-0.046011
08169	10.961383	-2.435975	-3.965307	-0.039648	-0.843128	1.259666	0.173361	-0.131334	0.976062	-0.925296	0.317711	0.207093	-0.337304	-0.939048	-0.066444
08170	10.953088	-2.228881	-3.131056	-0.078503	-0.205899	0.841067	0.151996	-0.129525	0.979857	-0.928102	0.322215	0.186561	-0.339889	-0.937764	-0.071237
08171	9.402401	-0.748248	-3.272301	-0.150239	0.066787	0.639381	0.137573	-0.122857	0.982843	-0.929183	0.327673	0.171022	-0.343062	-0.936769	-0.069078
08172	9.824886	-0.931047	-3.798577	-0.062236	-0.542231	0.584257	0.119159	-0.130826	0.984218	-0.930571	0.330906	0.156649	-0.346178	-0.934551	-0.082313
08173	11.597598	-0.596022	-3.854498	0.263637	-0.296510	0.436269	0.106274	-0.134276	0.985229	-0.934111	0.326117	0.145206	-0.340798	-0.935744	-0.090771
08174	13.819907	0.355424	-1.574226	0.540921	0.222184	0.292476	0.101101	-0.126830	0.986759	-0.939432	0.314316	0.136651	-0.327485	-0.940808	-0.087371
08175	13.103874	2.304002	-0.645852	-0.231615	1.353464	0.087709	0.109973	-0.094373	0.989444	-0.937806	0.319941	0.134749	-0.329281	-0.942725	-0.053319
08176	9.480026	-1.653663	-1.306238	0.180370	1.765321	-0.022868	0.124656	-0.052946	0.990786	-0.939248	0.315562	0.135035	-0.319804	-0.947427	-0.010393
08177	8.426163	-0.253365	1.028542	1.019795	1.038146	-0.172521	0.136483	-0.029658	0.990198	-0.946535	0.291034	0.139181	-0.292309	-0.956253	0.011649
08178	7.545854	2.921817	2.341200	0.910098	0.628118	0.102173	0.138275	-0.013980	0.990295	-0.953312	0.269169	0.136911	-0.268471	-0.962991	0.023892
08179	8.411848	2.248520	0.567512	0.221061	0.196814	0.218634	0.134188	-0.007885	0.990924	-0.955568	0.263812	0.131500	-0.262455	-0.964542	0.027866
08180	7.307868	1.422756	1.926074	0.071771	-0.180666	0.233194	0.127259	-0.010814	0.991811	-0.956843	0.262046	0.125630	-0.261258	-0.964995	0.023001
08181	7.654365	2.609908	1.883122	0.040132	-0.219189	0.120923	0.122766	-0.015410	0.992316	-0.957526	0.261024	0.122515	-0.260906	-0.965209	0.017290
08182	7.201023	0.047386	-0.440622	-0.736887	-0.771269	0.301426	0.110180	-0.032028	0.993396	-0.953458	0.278841	0.114740	-0.280674	-0.959803	0.000185
08183	10.087085	2.152099	1.176887	0.211803	-1.655910	0.512953	0.086166	-0.068300	0.993937	-0.956243	0.274312	0.101748	-0.279599	-0.959212	-0.041675
08184	10.390735	0.506737	1.791831	-0.523613	-0.589946	0.632311	0.066681	-0.078056	0.994716	-0.953742	0.287906	0.086527	-0.293138	-0.954472	-0.055248
08185	9.497530	0.817205	-1.089181	-0.301210	-0.831292	0.744603	0.042595	-0.092490	0.994802	-0.952560	0.296573	0.068360	-0.301354	-0.950521	-0.075469
08186	10.854705	1.044946	-1.221940	0.150763	-1.223041	0.792516	0.014366	-0.115742	0.993175	-0.954292	0.294968	0.048179	-0.298532	-0.948471	-0.106214
08187	12.188094	2.225298	0.640968	0.795556	-1.031805	0.779375	-0.011904	-0.134735	0.990810	-0.960095	0.278432	0.026327	-0.279420	-0.950959	-0.132673
08188	11.530871	2.951350	2.825050	0.115928	-0.590122	0.597569	-0.030506	-0.144677	0.989009	-0.960612	0.277677	0.010990	-0.276215	-0.949718	-0.147449
08189	11.509301	3.224808	2.577877	0.833390	-0.484198	0.762711	-0.052230	-0.151130	0.987133	-0.965389	0.260574	-0.011185	-0.255531	-0.953552	-0.159509
08190	8.975979	4.549132	5.434641	0.141338	-0.150294	0.215549	-0.058514	-0.153374	0.986434	-0.966013	0.257922	-0.017200	-0.251785	-0.953914	-0.163253
08191	8.542966	4.440620	1.731592	0.225738	0.385238	-0.068285	-0.054569	-0.144650	0.987977	-0.967545	0.252160	-0.016522	-0.246738	-0.956813	-0.153716
08192	7.390388	6.288541	-0.128522	-0.727881	-0.067101	-0.613572	-0.040277	-0.150271	0.987824	-0.963656	0.267144	0.001347	-0.264094	-0.951868	-0.155569
08193	8.879738	4.877085	-1.901261	-2.058306	-0.932020	-1.012222	-0.022856	-0.179595	0.983475	-0.949652	0.311370	0.034790	-0.312473	-0.933164	-0.177669
