// General information: 
//  MT Manager version: 2022.2.0 
//  XDA version: 2022.2.0 build 7381 rev 124627 built on 2023-07-19
// Device information: 
//  DeviceId: 00B4CB9F
//  ProductCode: MTW2-3A7G6
//  Firmware Version: 4.6.0
//  Hardware Version: 2.0.0
// Device settings: 
//  Filter Profile: human(46.1)
//  Option Flags: Orientation Smoother Disabled, Position/Velocity Smoother Disabled, Continuous Zero Rotation Update Disabled, AHS Disabled, ICC Disabled
// Coordinate system: ENU
PacketCounter	Acc_X	Acc_Y	Acc_Z	Gyr_X	Gyr_Y	Gyr_Z	Mat[1][1]	Mat[2][1]	Mat[3][1]	Mat[1][2]	Mat[2][2]	Mat[3][2]	Mat[1][3]	Mat[2][3]	Mat[3][3]
17371	9.482563	-1.064698	1.472986	-0.163286	-0.072357	-0.023297	-0.199047	-0.074902	0.977123	-0.062378	-0.994085	-0.088909	0.978003	-0.078648	0.193197
17372	9.476833	-1.128064	1.489315	-0.092504	-0.087069	-0.026964	-0.198142	-0.074777	0.977317	-0.063221	-0.994035	-0.088873	0.978132	-0.079396	0.192232
17373	9.431648	-1.073485	1.601919	0.000618	-0.082041	-0.019726	-0.197279	-0.074698	0.977497	-0.063209	-0.994049	-0.088719	0.978308	-0.079289	0.191383
17374	9.493859	-0.948196	1.688091	0.085805	-0.061539	-0.011745	-0.196614	-0.074635	0.977636	-0.062441	-0.994122	-0.088451	0.978491	-0.078435	0.190798
17375	9.563829	-0.780417	1.742368	0.173127	-0.033524	-0.009887	-0.196232	-0.074614	0.977715	-0.060722	-0.994262	-0.088064	0.978676	-0.076649	0.190575
17376	9.624038	-0.630180	1.843809	0.241207	0.001442	-0.003887	-0.196191	-0.074583	0.977725	-0.058406	-0.994444	-0.087578	0.978825	-0.074287	0.190745
17377	9.659441	-0.478798	1.944240	0.261563	0.050442	0.009521	-0.196642	-0.074692	0.977626	-0.055782	-0.994627	-0.087211	0.978887	-0.071683	0.191419
17378	9.544499	-0.410058	2.034838	0.216309	0.050622	0.023807	-0.197139	-0.074911	0.977509	-0.053611	-0.994761	-0.087045	0.978909	-0.069565	0.192090
17379	9.661711	-0.490476	2.057937	0.069088	0.044929	0.026734	-0.197545	-0.075197	0.977405	-0.052837	-0.994787	-0.087214	0.978869	-0.068872	0.192542
17380	9.691889	-0.651665	2.003229	-0.054035	0.056270	0.022902	-0.198077	-0.075442	0.977279	-0.053237	-0.994734	-0.087579	0.978740	-0.069375	0.193018
17381	9.541366	-0.712449	1.871233	-0.149835	0.042509	0.012122	-0.198452	-0.075584	0.977192	-0.054635	-0.994619	-0.088027	0.978587	-0.070858	0.193254
17382	9.480053	-0.839620	1.780734	-0.190107	0.008592	-0.006486	-0.198461	-0.075557	0.977192	-0.056471	-0.994486	-0.088363	0.978481	-0.072719	0.193100
17383	9.540119	-0.916775	1.841275	-0.166331	-0.003224	-0.025214	-0.198367	-0.075360	0.977226	-0.058104	-0.994382	-0.088477	0.978404	-0.074331	0.192874
17384	9.568157	-0.958181	2.071440	-0.105044	0.003880	-0.028565	-0.198327	-0.075104	0.977254	-0.059175	-0.994324	-0.088425	0.978348	-0.075366	0.192757
17385	9.589986	-0.838648	2.234466	-0.067638	0.013184	-0.027620	-0.198391	-0.074871	0.977259	-0.059847	-0.994292	-0.088326	0.978294	-0.076009	0.192778
17386	9.482821	-0.807714	2.278655	-0.041033	0.000718	-0.027451	-0.198304	-0.074669	0.977292	-0.060212	-0.994283	-0.088185	0.978289	-0.076332	0.192674
17387	9.516512	-0.788488	2.237818	-0.029611	-0.025048	-0.015855	-0.198001	-0.074582	0.977360	-0.060488	-0.994271	-0.088127	0.978334	-0.076568	0.192356
17388	9.558582	-0.902455	2.004793	-0.051891	-0.046340	-0.011444	-0.197492	-0.074537	0.977467	-0.060995	-0.994239	-0.088140	0.978405	-0.077028	0.191808
17389	9.531157	-1.059782	1.736577	-0.082105	-0.066301	-0.005997	-0.196792	-0.074581	0.977605	-0.061766	-0.994179	-0.088279	0.978498	-0.077755	0.191040
17390	9.561685	-1.173884	1.687228	-0.074290	-0.063116	-0.006134	-0.196096	-0.074666	0.977738	-0.062355	-0.994129	-0.088423	0.978600	-0.078306	0.190289
17391	9.473380	-1.232180	1.746717	-0.021640	-0.035723	-0.001584	-0.195698	-0.074730	0.977813	-0.062525	-0.994113	-0.088489	0.978669	-0.078455	0.189873
17392	9.533245	-1.185596	1.831015	0.044037	-0.008831	-0.002104	-0.195594	-0.074755	0.977832	-0.062049	-0.994149	-0.088414	0.978720	-0.077967	0.189811
17393	9.610790	-1.125155	1.955483	0.125479	0.032546	-0.004384	-0.195862	-0.074738	0.977779	-0.060785	-0.994249	-0.088173	0.978746	-0.076704	0.190193
17394	9.602406	-0.864876	2.043606	0.194802	0.081028	0.004501	-0.196643	-0.074783	0.977619	-0.058770	-0.994395	-0.087888	0.978712	-0.074737	0.191146
17395	9.554199	-0.683913	2.065738	0.208687	0.101256	0.020905	-0.197598	-0.074968	0.977412	-0.056641	-0.994532	-0.087732	0.978645	-0.072698	0.192271
17396	9.501499	-0.588600	1.969172	0.156235	0.071152	0.029938	-0.198323	-0.075260	0.977243	-0.054978	-0.994624	-0.087756	0.978594	-0.071131	0.193119
17397	9.614043	-0.508243	1.790422	0.031673	0.041906	0.025615	-0.198698	-0.075537	0.977145	-0.054573	-0.994626	-0.087985	0.978540	-0.070808	0.193508
17398	9.572402	-0.544325	1.743134	-0.058601	0.017204	0.006880	-0.198808	-0.075635	0.977115	-0.055098	-0.994578	-0.088198	0.978488	-0.071372	0.193563
17399	9.461201	-0.647312	1.784381	-0.096066	-0.015868	-0.008196	-0.198600	-0.075617	0.977159	-0.056009	-0.994514	-0.088343	0.978479	-0.072275	0.193276
17400	9.447437	-0.775742	1.832180	-0.117499	-0.040169	-0.012094	-0.198145	-0.075556	0.977256	-0.057172	-0.994436	-0.088476	0.978504	-0.073403	0.192723
17401	9.495470	-0.902311	1.945950	-0.119463	-0.042529	-0.023712	-0.197667	-0.075403	0.977365	-0.058343	-0.994365	-0.088514	0.978531	-0.074519	0.192154
17402	9.549355	-1.041161	2.028660	-0.070809	-0.030988	-0.025875	-0.197266	-0.075192	0.977462	-0.059105	-0.994328	-0.088418	0.978567	-0.075215	0.191702
17403	9.623466	-1.112585	2.146857	0.004367	0.005660	-0.012497	-0.197265	-0.075116	0.977468	-0.059043	-0.994340	-0.088328	0.978571	-0.075136	0.191714
17404	9.552432	-1.032595	2.141602	0.033516	0.050266	0.007241	-0.197738	-0.075172	0.977368	-0.058691	-0.994359	-0.088353	0.978496	-0.074834	0.192210
17405	9.536790	-0.841252	1.873419	0.025014	0.042579	0.014221	-0.198114	-0.075334	0.977280	-0.058374	-0.994366	-0.088484	0.978439	-0.074577	0.192601
17406	9.647024	-0.740440	1.836239	0.015455	0.040628	0.015991	-0.198478	-0.075500	0.977193	-0.058159	-0.994364	-0.088639	0.978378	-0.074426	0.192969
17407	9.705388	-0.695188	1.926225	-0.024376	0.035876	0.007874	-0.198786	-0.075603	0.977123	-0.058337	-0.994339	-0.088803	0.978305	-0.074655	0.193250
17408	9.673565	-0.759746	1.949920	-0.066427	0.032961	0.006149	-0.199086	-0.075702	0.977054	-0.058873	-0.994287	-0.089034	0.978212	-0.075247	0.193492
17409	9.526250	-0.862693	1.796066	-0.093405	0.014780	-0.004950	-0.199180	-0.075694	0.977035	-0.059751	-0.994219	-0.089206	0.978140	-0.076147	0.193506
17410	9.457059	-0.980154	1.622675	-0.075437	-0.011964	-0.011655	-0.199068	-0.075618	0.977064	-0.060461	-0.994172	-0.089260	0.978119	-0.076843	0.193336
17411	9.486542	-1.019290	1.718246	-0.034835	-0.019851	-0.010689	-0.198819	-0.075579	0.977118	-0.060778	-0.994152	-0.089263	0.978150	-0.077134	0.193063
17412	9.498726	-1.018744	1.908207	0.003974	-0.017187	-0.007773	-0.198604	-0.075571	0.977162	-0.060683	-0.994162	-0.089219	0.978199	-0.077016	0.192859
17413	9.519524	-0.950890	1.940825	0.039824	0.006283	-0.007204	-0.198613	-0.075546	0.977162	-0.060263	-0.994197	-0.089112	0.978224	-0.076585	0.192908
17414	9.500464	-0.839570	1.930604	0.063208	0.006201	-0.006412	-0.198582	-0.075503	0.977172	-0.059685	-0.994246	-0.088951	0.978265	-0.075987	0.192933
17415	9.571834	-0.792342	1.830218	0.077086	-0.011470	-0.003881	-0.198419	-0.075524	0.977203	-0.058894	-0.994306	-0.088804	0.978346	-0.075172	0.192842
17416	9.639821	-0.777404	1.741265	0.087349	-0.020666	0.003126	-0.198187	-0.075630	0.977242	-0.057946	-0.994371	-0.088707	0.978450	-0.074208	0.192689
17417	9.671825	-0.760670	1.834162	0.070640	-0.021288	-0.001820	-0.197930	-0.075679	0.977290	-0.057214	-0.994423	-0.088593	0.978545	-0.073450	0.192496
17418	9.614761	-0.876177	1.851988	0.042310	-0.021733	-0.000084	-0.197658	-0.075742	0.977340	-0.056755	-0.994454	-0.088546	0.978627	-0.072971	0.192263
17419	9.652683	-0.948115	1.774241	0.022923	-0.007289	0.005546	-0.197542	-0.075854	0.977355	-0.056475	-0.994465	-0.088596	0.978666	-0.072698	0.192165
17420	9.624616	-1.004203	1.907014	0.019886	0.010202	0.004055	-0.197594	-0.075935	0.977338	-0.056220	-0.994477	-0.088633	0.978670	-0.072459	0.192234
17421	9.645687	-0.885491	2.071820	0.020896	0.026423	0.008971	-0.197809	-0.076056	0.977285	-0.055953	-0.994484	-0.088720	0.978642	-0.072232	0.192463
17422	9.592589	-0.794229	2.103085	0.000789	0.045696	0.006104	-0.198189	-0.076193	0.977198	-0.055752	-0.994484	-0.088848	0.978577	-0.072090	0.192848
17423	9.560112	-0.711104	2.028867	-0.013619	0.059162	0.008904	-0.198724	-0.076290	0.977082	-0.055823	-0.994466	-0.089001	0.978464	-0.072230	0.193366
17424	9.523128	-0.637222	1.976218	-0.029672	0.037775	-0.001707	-0.199048	-0.076247	0.977019	-0.056171	-0.994442	-0.089051	0.978379	-0.072606	0.193659
17425	9.499088	-0.711826	1.834407	-0.070335	0.021897	-0.001217	-0.199214	-0.076271	0.976983	-0.056817	-0.994390	-0.089215	0.978308	-0.073282	0.193763
17426	9.406113	-0.829106	1.656448	-0.098883	-0.021534	-0.011292	-0.198919	-0.076241	0.977046	-0.057725	-0.994327	-0.089342	0.978314	-0.074172	0.193390
17427	9.485777	-1.014620	1.725218	-0.115033	-0.052529	-0.020746	-0.198345	-0.076126	0.977171	-0.058847	-0.994256	-0.089402	0.978364	-0.075236	0.192726
17428	9.480791	-1.100813	1.735512	-0.087042	-0.044859	-0.019479	-0.197836	-0.076038	0.977282	-0.059635	-0.994207	-0.089427	0.978419	-0.075972	0.192155
17429	9.519171	-1.098107	1.793534	-0.044957	-0.043435	-0.018049	-0.197352	-0.075943	0.977387	-0.060065	-0.994185	-0.089376	0.978491	-0.076346	0.191643
17430	9.600609	-1.105937	1.884404	-0.006207	-0.025121	-0.015108	-0.197027	-0.075900	0.977456	-0.060023	-0.994195	-0.089299	0.978559	-0.076264	0.191327
17431	9.622880	-0.960911	1.922388	0.045897	-0.001925	-0.005138	-0.196957	-0.075902	0.977470	-0.059539	-0.994233	-0.089201	0.978603	-0.075767	0.191301
17432	9.691211	-0.894446	1.966035	0.079362	0.016766	0.003594	-0.197094	-0.076000	0.977434	-0.058634	-0.994292	-0.089134	0.978630	-0.074878	0.191513
17433	9.642871	-0.792369	1.975695	0.111089	0.043008	0.013671	-0.197475	-0.076155	0.977345	-0.057474	-0.994364	-0.089094	0.978622	-0.073766	0.191985
17434	9.595295	-0.713334	1.977387	0.107235	0.047878	0.020518	-0.197854	-0.076350	0.977253	-0.056413	-0.994423	-0.089113	0.978607	-0.072762	0.192444
17435	9.603626	-0.694856	1.938315	0.057437	0.045076	0.018023	-0.198257	-0.076548	0.977156	-0.055771	-0.994449	-0.089219	0.978562	-0.072185	0.192888
17436	9.620611	-0.783024	1.963303	0.002882	0.034228	0.016545	-0.198535	-0.076726	0.977086	-0.055692	-0.994437	-0.089404	0.978510	-0.072166	0.193157
17437	9.559918	-0.808598	1.888373	-0.053764	0.014401	0.005223	-0.198630	-0.076819	0.977059	-0.056163	-0.994393	-0.089599	0.978464	-0.072672	0.193202
17438	9.554524	-0.871117	1.779960	-0.074610	-0.007204	-0.004375	-0.198527	-0.076833	0.977079	-0.056829	-0.994343	-0.089738	0.978446	-0.073341	0.193038
17439	9.592850	-0.844069	1.717008	-0.048714	-0.014831	-0.012652	-0.198327	-0.076770	0.977125	-0.057285	-0.994316	-0.089748	0.978460	-0.073774	0.192802
17440	9.558733	-0.838571	1.764215	-0.006065	-0.010703	-0.016855	-0.198208	-0.076651	0.977158	-0.057316	-0.994325	-0.089624	0.978483	-0.073771	0.192690
17441	9.481966	-0.769760	1.911144	0.020014	-0.000605	-0.012161	-0.198147	-0.076583	0.977176	-0.057099	-0.994348	-0.089507	0.978508	-0.073532	0.192654
17442	9.445176	-0.818102	1.963218	0.030740	-0.002585	-0.009902	-0.198040	-0.076532	0.977202	-0.056786	-0.994377	-0.089386	0.978548	-0.073193	0.192580
17443	9.521630	-0.908896	1.940173	0.038669	-0.003912	-0.010925	-0.197947	-0.076478	0.977225	-0.056384	-0.994413	-0.089244	0.978590	-0.072765	0.192529
17444	9.510987	-1.002837	1.978888	0.049255	0.006443	-0.007764	-0.197982	-0.076424	0.977222	-0.055899	-0.994453	-0.089096	0.978610	-0.072265	0.192612
17445	9.579027	-1.035819	2.007450	0.017539	0.018071	-0.003968	-0.198109	-0.076423	0.977196	-0.055691	-0.994468	-0.089064	0.978597	-0.072065	0.192757
17446	9.595032	-1.052625	1.924571	-0.017242	0.021927	-0.000483	-0.198254	-0.076474	0.977163	-0.055762	-0.994457	-0.089141	0.978563	-0.072161	0.192891
17447	9.564435	-0.991659	1.838011	-0.008554	0.020581	0.006390	-0.198411	-0.076574	0.977123	-0.055788	-0.994445	-0.089260	0.978530	-0.072222	0.193037
17448	9.541778	-0.862536	1.971923	0.022464	0.031215	0.008568	-0.198686	-0.076689	0.977058	-0.055481	-0.994455	-0.089337	0.978492	-0.071958	0.193330
17449	9.534027	-0.826901	2.016173	0.044449	0.037785	0.007445	-0.199012	-0.076788	0.976984	-0.054986	-0.994480	-0.089363	0.978453	-0.071505	0.193691
17450	9.522533	-0.723246	2.089781	0.067462	0.059074	0.010947	-0.199559	-0.076908	0.976863	-0.054232	-0.994520	-0.089376	0.978384	-0.070813	0.194295
17451	9.521509	-0.623136	2.110475	0.074055	0.048747	0.007993	-0.199992	-0.077004	0.976767	-0.053446	-0.994565	-0.089350	0.978339	-0.070074	0.194789
17452	9.538283	-0.662401	2.020873	0.026046	0.036882	0.003800	-0.200270	-0.077053	0.976706	-0.053182	-0.994578	-0.089368	0.978296	-0.069840	0.195086
17453	9.551857	-0.733953	1.942310	-0.026112	0.018162	-0.005326	-0.200396	-0.077039	0.976681	-0.053403	-0.994563	-0.089407	0.978258	-0.070074	0.195192
17454	9.566040	-0.852948	1.976421	-0.059852	-0.007469	-0.010808	-0.200326	-0.076960	0.976702	-0.053980	-0.994529	-0.089437	0.978241	-0.070639	0.195076
17455	9.556725	-0.923761	1.888008	-0.081015	-0.028183	-0.017141	-0.199993	-0.076861	0.976778	-0.054762	-0.994483	-0.089467	0.978266	-0.071383	0.194681
17456	9.595443	-0.996199	1.807948	-0.118529	-0.026679	-0.017582	-0.199686	-0.076755	0.976849	-0.055893	-0.994412	-0.089561	0.978265	-0.072483	0.194280
17457	9.530060	-1.007632	1.759250	-0.112793	-0.008721	-0.013378	-0.199545	-0.076680	0.976884	-0.056978	-0.994339	-0.089689	0.978231	-0.073557	0.194046
17458	9.495290	-1.055486	1.676528	-0.057454	0.006934	-0.004519	-0.199573	-0.076660	0.976880	-0.057537	-0.994298	-0.089782	0.978192	-0.074125	0.194024
17459	9.491925	-1.036014	1.819819	0.021457	0.002359	0.004252	-0.199550	-0.076752	0.976877	-0.057274	-0.994310	-0.089821	0.978212	-0.073873	0.194019
17460	9.579000	-1.032317	1.759503	0.057534	0.002692	0.003344	-0.199558	-0.076802	0.976872	-0.056713	-0.994347	-0.089761	0.978243	-0.073314	0.194074
17461	9.618218	-1.026951	1.689765	0.054092	0.003645	0.006310	-0.199549	-0.076913	0.976865	-0.056127	-0.994381	-0.089757	0.978279	-0.072739	0.194111
17462	9.637358	-0.937391	1.732921	0.069233	0.004303	0.011132	-0.199543	-0.077080	0.976853	-0.055355	-0.994423	-0.089774	0.978324	-0.071988	0.194163
17463	9.624199	-0.888643	1.805952	0.068619	0.003106	0.017086	-0.199534	-0.077299	0.976837	-0.054605	-0.994458	-0.089847	0.978368	-0.071268	0.194207
17464	9.652946	-0.828097	1.920112	0.081536	0.007118	0.012966	-0.199596	-0.077471	0.976811	-0.053713	-0.994506	-0.089850	0.978405	-0.070401	0.194339
17465	9.633472	-0.817651	1.894952	0.075457	0.015339	0.010857	-0.199704	-0.077619	0.976777	-0.052908	-0.994549	-0.089849	0.978427	-0.069622	0.194509
17466	9.788310	-0.848498	1.863951	0.078289	0.025825	0.013245	-0.199897	-0.077816	0.976722	-0.051992	-0.994595	-0.089880	0.978437	-0.068749	0.194770
17467	9.421414	-0.999962	1.805939	0.093735	0.039720	0.014485	-0.200244	-0.077984	0.976637	-0.051001	-0.994646	-0.089879	0.978418	-0.067807	0.195195
17468	9.521086	-0.992953	1.807722	0.122415	0.031442	0.009553	-0.200508	-0.078096	0.976574	-0.049762	-0.994719	-0.089764	0.978428	-0.066594	0.195563
17469	9.538187	-1.078587	1.833515	0.107158	0.035297	0.005607	-0.200807	-0.078180	0.976506	-0.048657	-0.994784	-0.089649	0.978422	-0.065516	0.195956
17470	9.531556	-1.063406	1.869366	0.106365	0.036803	-0.001995	-0.201123	-0.078188	0.976441	-0.047560	-0.994854	-0.089459	0.978411	-0.064432	0.196370
17471	9.603712	-1.085538	1.880130	0.119737	0.048005	-0.010901	-0.201539	-0.078100	0.976362	-0.046365	-0.994938	-0.089157	0.978382	-0.063238	0.196898
17472	9.565722	-1.031446	1.953809	0.152834	0.067636	-0.014533	-0.202132	-0.077971	0.976249	-0.044838	-0.995044	-0.088756	0.978331	-0.061714	0.197634
17473	9.540180	-1.072200	2.073674	0.190359	0.088421	-0.015917	-0.202942	-0.077810	0.976094	-0.042963	-0.995170	-0.088263	0.978248	-0.059848	0.198618
17474	9.615538	-1.028611	2.199462	0.205874	0.129416	-0.017241	-0.204093	-0.077651	0.975867	-0.040879	-0.995304	-0.087747	0.978098	-0.057801	0.199960
17475	9.671653	-1.097009	2.280134	0.235886	0.181096	-0.008745	-0.205811	-0.077512	0.975517	-0.038544	-0.995443	-0.087227	0.977832	-0.055553	0.201886
17476	9.853463	-1.041913	2.608266	0.311879	0.269480	0.005430	-0.208386	-0.077445	0.974976	-0.035506	-0.995604	-0.086673	0.977402	-0.052679	0.204721
17477	9.293862	-0.651932	2.585747	0.270731	0.257576	0.009650	-0.210857	-0.077459	0.974443	-0.032795	-0.995734	-0.086248	0.976967	-0.050143	0.207418
17478	9.129636	-0.508931	2.087503	0.131852	0.140252	0.014423	-0.212229	-0.077531	0.974139	-0.031526	-0.995786	-0.086122	0.976711	-0.048988	0.208891
17479	9.319181	-0.441796	1.683552	-0.002695	0.066630	-0.022070	-0.212824	-0.077329	0.974026	-0.031553	-0.995800	-0.085952	0.976581	-0.049026	0.209490
17480	9.401927	-0.578433	1.516702	-0.099592	0.022348	-0.047357	-0.212981	-0.076892	0.974026	-0.032583	-0.995785	-0.085735	0.976513	-0.049997	0.209578
17481	9.453564	-0.713233	1.607213	-0.166348	-0.020023	-0.048684	-0.212720	-0.076468	0.974116	-0.034266	-0.995736	-0.085648	0.976512	-0.051598	0.209192
17482	9.435618	-0.770380	1.681782	-0.196749	-0.062525	-0.039813	-0.212059	-0.076124	0.974287	-0.036286	-0.995661	-0.085692	0.976583	-0.053524	0.208377
17483	9.331139	-0.654336	1.831413	-0.205277	-0.071653	-0.033122	-0.211298	-0.075884	0.974472	-0.038315	-0.995572	-0.085835	0.976670	-0.055474	0.207455
17484	9.231491	-0.430242	1.973664	-0.125109	-0.055565	-0.024383	-0.210683	-0.075721	0.974617	-0.039549	-0.995519	-0.085894	0.976754	-0.056642	0.206744
17485	9.348648	-0.188144	2.040496	-0.016583	-0.027873	-0.018134	-0.210354	-0.075607	0.974697	-0.039704	-0.995522	-0.085791	0.976819	-0.056746	0.206410
17486	9.397551	-0.211081	2.042481	-0.025436	0.043014	-0.013215	-0.210725	-0.075525	0.974624	-0.039860	-0.995518	-0.085762	0.976732	-0.056921	0.206770
17487	9.337499	-0.406520	2.064263	-0.123381	0.098199	0.021153	-0.211643	-0.075730	0.974409	-0.040975	-0.995429	-0.086263	0.976488	-0.058184	0.207573
17488	9.282978	-0.820320	2.030568	-0.157501	0.134823	0.072980	-0.212953	-0.076410	0.974070	-0.042326	-0.995280	-0.087327	0.976145	-0.059825	0.208714
17489	9.311007	-0.997880	2.332611	-0.050597	0.147666	0.123255	-0.214398	-0.077599	0.973659	-0.042510	-0.995153	-0.088673	0.975821	-0.060402	0.210060
17490	9.292845	-0.952872	2.528571	0.068868	0.133382	0.160356	-0.215757	-0.079132	0.973235	-0.041480	-0.995068	-0.090103	0.975566	-0.059810	0.211410
17491	9.242525	-0.785908	2.547927	0.226704	0.075785	0.163723	-0.216513	-0.080768	0.972933	-0.038869	-0.995069	-0.091255	0.975506	-0.057575	0.212306
17492	9.487198	-0.298006	2.867738	0.371251	0.023912	0.144960	-0.216757	-0.082215	0.972757	-0.034943	-0.995155	-0.091895	0.975600	-0.053910	0.212834
17493	9.871871	0.413611	3.382346	0.413878	0.015280	0.126234	-0.216899	-0.083514	0.972615	-0.030586	-0.995263	-0.092279	0.975715	-0.049763	0.213317
17494	10.024797	1.206667	3.380172	0.330786	-0.041835	0.129475	-0.216502	-0.084874	0.972586	-0.026982	-0.995313	-0.092864	0.975909	-0.046348	0.213198
17495	10.126724	1.693175	2.779778	0.045419	-0.135701	0.099980	-0.215155	-0.085982	0.972787	-0.026277	-0.995246	-0.093779	0.976226	-0.045739	0.211873
17496	10.186054	1.652063	2.173244	-0.214342	-0.195306	0.022179	-0.213225	-0.086337	0.973181	-0.028222	-0.995128	-0.094468	0.976595	-0.047608	0.209749
17497	10.124721	1.291364	2.054418	-0.346395	-0.204461	-0.055164	-0.211162	-0.085939	0.973666	-0.031677	-0.995002	-0.094692	0.976938	-0.050838	0.207384
17498	9.878000	0.616386	1.925482	-0.397751	-0.188329	-0.115571	-0.209229	-0.084895	0.974175	-0.035788	-0.994892	-0.094387	0.977212	-0.054612	0.205122
17499	9.621930	-0.109187	2.064830	-0.381720	-0.187877	-0.149676	-0.207287	-0.083562	0.974705	-0.039785	-0.994801	-0.093746	0.977471	-0.058211	0.202885
17500	9.554156	-0.627170	2.300308	-0.316440	-0.170971	-0.162779	-0.205473	-0.082043	0.975218	-0.043224	-0.994747	-0.092792	0.977708	-0.061219	0.200847
17501	9.527479	-1.017988	2.488302	-0.192060	-0.151071	-0.158052	-0.203877	-0.080615	0.975672	-0.045380	-0.994755	-0.091674	0.977944	-0.062966	0.199149
17502	9.351942	-1.266485	2.702414	-0.024484	-0.151071	-0.146483	-0.202302	-0.079265	0.976110	-0.045854	-0.994859	-0.090291	0.978249	-0.063025	0.197628
17503	9.144038	-1.285703	2.872534	0.099700	-0.126437	-0.109772	-0.200967	-0.078303	0.976464	-0.045055	-0.995006	-0.089062	0.978561	-0.061893	0.196435
17504	8.913170	-1.227678	3.045938	0.150210	-0.123194	-0.085088	-0.199694	-0.077573	0.976783	-0.043624	-0.995169	-0.087952	0.978887	-0.060175	0.195345
17505	8.747150	-1.443824	2.986380	0.104998	-0.140136	-0.055597	-0.198249	-0.077154	0.977110	-0.042662	-0.995273	-0.087244	0.979223	-0.058981	0.194020
17506	8.743594	-1.703991	3.103479	-0.037338	-0.202209	-0.005837	-0.196242	-0.077238	0.977509	-0.042960	-0.995258	-0.087265	0.979614	-0.059118	0.191994
17507	9.013446	-2.116026	3.076969	-0.152916	-0.266635	0.072889	-0.193613	-0.078173	0.977959	-0.044271	-0.995109	-0.088309	0.980079	-0.060393	0.189205
17508	9.144365	-2.346908	3.013352	-0.117846	-0.272204	0.158151	-0.190968	-0.079971	0.978333	-0.044981	-0.994916	-0.090107	0.980565	-0.061214	0.186400
17509	9.056747	-2.255197	2.961441	-0.031829	-0.249201	0.233753	-0.188580	-0.082500	0.978586	-0.044805	-0.994705	-0.092493	0.981035	-0.061287	0.183885
17510	8.898123	-1.939402	2.668236	0.025685	-0.279111	0.283540	-0.185951	-0.085518	0.978830	-0.043960	-0.994484	-0.095236	0.981575	-0.060738	0.181166
17511	9.015352	-1.657944	1.959986	0.017296	-0.298649	0.303877	-0.183102	-0.088771	0.979078	-0.043185	-0.994227	-0.098220	0.982145	-0.060265	0.178212
17512	9.079432	-1.286575	1.410810	-0.007376	-0.308378	0.282412	-0.180150	-0.091854	0.979341	-0.042541	-0.993971	-0.101052	0.982719	-0.059867	0.175156
17513	9.227088	-0.948962	1.344013	0.010792	-0.350872	0.252386	-0.176758	-0.094622	0.979695	-0.041941	-0.993740	-0.103545	0.983360	-0.059391	0.171683
17514	9.621730	-0.588913	1.436864	0.047297	-0.370710	0.209762	-0.173163	-0.096950	0.980110	-0.041086	-0.993566	-0.105540	0.984036	-0.058544	0.168066
17515	9.690166	-0.337779	1.390078	-0.033817	-0.366189	0.173537	-0.169581	-0.098938	0.980537	-0.041077	-0.993374	-0.107338	0.984660	-0.058480	0.164393
17516	9.634947	-0.153955	1.178963	-0.161716	-0.459328	0.128190	-0.165057	-0.100547	0.981146	-0.042325	-0.993151	-0.108898	0.985375	-0.059502	0.159671
17517	9.692604	-0.114465	0.681064	-0.369976	-0.512694	0.091597	-0.159994	-0.101820	0.981853	-0.045780	-0.992830	-0.110418	0.986056	-0.062615	0.154186
17518	9.759804	-0.177919	0.054796	-0.567841	-0.566614	0.074945	-0.154419	-0.102956	0.982627	-0.051219	-0.992384	-0.112027	0.986677	-0.067628	0.147969
17519	9.618561	-0.510943	-0.490914	-0.668814	-0.645925	0.049132	-0.148022	-0.103950	0.983506	-0.057702	-0.991859	-0.113517	0.987299	-0.073554	0.140818
17520	9.422905	-1.041259	-0.634320	-0.596863	-0.782010	0.055237	-0.140329	-0.105161	0.984504	-0.063295	-0.991357	-0.114915	0.988080	-0.078441	0.132460
17521	9.358622	-1.360458	-0.784533	-0.565662	-0.855534	0.070559	-0.131871	-0.106603	0.985518	-0.068748	-0.990823	-0.116376	0.988880	-0.083099	0.123332
17522	9.330121	-1.759875	-0.702287	-0.529789	-0.903463	0.089710	-0.122961	-0.108303	0.986484	-0.073777	-0.990279	-0.117916	0.989665	-0.087278	0.113776
17523	9.253045	-1.814968	-0.449543	-0.367571	-0.936856	0.140482	-0.113744	-0.110575	0.987338	-0.077208	-0.989798	-0.119745	0.990506	-0.089850	0.104046
17524	9.524452	-1.733276	-0.109586	-0.185039	-0.938008	0.204900	-0.104628	-0.113492	0.988014	-0.078668	-0.989410	-0.121983	0.991395	-0.090488	0.094592
17525	10.077672	-1.402115	0.597728	-0.000327	-0.885379	0.256738	-0.096000	-0.116880	0.988495	-0.078372	-0.989111	-0.124565	0.992291	-0.089429	0.085795
17526	11.081104	-1.207938	1.272877	0.169278	-0.779379	0.299685	-0.088508	-0.120578	0.988750	-0.076254	-0.988913	-0.127424	0.993152	-0.086674	0.078332
17527	11.575329	-0.810070	1.577494	0.312925	-0.648217	0.320973	-0.082259	-0.124353	0.988822	-0.072830	-0.988782	-0.130406	0.993946	-0.082743	0.072279
17528	11.130191	0.085249	1.868972	0.394338	-0.552679	0.324860	-0.076999	-0.128081	0.988770	-0.068364	-0.988702	-0.133396	0.994685	-0.077867	0.067373
17529	10.365006	0.841356	1.801957	0.364953	-0.498001	0.306981	-0.072200	-0.131544	0.988678	-0.064463	-0.988577	-0.136238	0.995305	-0.073570	0.062895
17530	9.676363	1.173789	1.618425	0.213925	-0.474547	0.269548	-0.067665	-0.134568	0.988591	-0.062067	-0.988375	-0.138787	0.995776	-0.070750	0.058526
17531	9.371981	1.009767	1.323232	-0.063847	-0.416041	0.234458	-0.063619	-0.137230	0.988494	-0.062509	-0.988008	-0.141185	0.996015	-0.070772	0.054278
17532	9.102971	0.473677	1.094807	-0.305845	-0.358973	0.202544	-0.060210	-0.139524	0.988386	-0.065175	-0.987520	-0.143372	0.996056	-0.073051	0.050366
17533	9.106558	-0.377058	0.703459	-0.434288	-0.348590	0.174996	-0.056808	-0.141564	0.988298	-0.069358	-0.986945	-0.145357	0.995973	-0.076804	0.046248
17534	9.260541	-1.247083	0.096338	-0.480237	-0.319277	0.170218	-0.053732	-0.143537	0.988185	-0.073782	-0.986339	-0.147280	0.995826	-0.080824	0.042408
17535	9.389990	-1.856513	-0.190350	-0.473832	-0.291533	0.185779	-0.050923	-0.145661	0.988023	-0.078363	-0.985674	-0.149354	0.995623	-0.085030	0.038779
17536	9.482156	-2.086237	-0.069148	-0.406110	-0.245783	0.215099	-0.048636	-0.148037	0.987785	-0.082027	-0.985023	-0.151662	0.995443	-0.088401	0.035765
17537	9.501116	-1.991003	0.171906	-0.294576	-0.211016	0.235626	-0.046685	-0.150598	0.987492	-0.084807	-0.984403	-0.154137	0.995303	-0.090942	0.033185
17538	9.493542	-1.940482	0.399028	-0.198231	-0.141936	0.244361	-0.045475	-0.153177	0.987152	-0.086387	-0.983869	-0.156647	0.995223	-0.092401	0.031509
17539	9.469013	-2.210114	0.913783	-0.119053	-0.155548	0.240680	-0.044089	-0.155741	0.986814	-0.087425	-0.983383	-0.159105	0.995195	-0.093287	0.029741
17540	9.589346	-2.722291	1.516999	-0.014159	-0.189097	0.236457	-0.042399	-0.158284	0.986483	-0.087204	-0.983016	-0.161476	0.995288	-0.092872	0.027876
17541	9.556275	-3.378072	1.879317	0.037757	-0.188770	0.223988	-0.040668	-0.160712	0.986163	-0.086696	-0.982690	-0.163721	0.995404	-0.092155	0.026031
17542	9.887616	-3.852932	2.143684	0.143978	-0.133147	0.211111	-0.039526	-0.162954	0.985842	-0.084909	-0.982496	-0.165805	0.995604	-0.090260	0.024998
17543	9.920637	-3.937006	2.222699	0.262384	-0.046426	0.210004	-0.039192	-0.165110	0.985496	-0.082174	-0.982381	-0.167856	0.995847	-0.087561	0.024934
17544	9.677658	-3.616420	2.259523	0.370417	0.053854	0.213024	-0.039887	-0.167215	0.985113	-0.078098	-0.982360	-0.169910	0.996147	-0.083713	0.026124
17545	9.093668	-3.033118	2.336303	0.375961	0.096073	0.197323	-0.040947	-0.169126	0.984743	-0.074233	-0.982331	-0.171799	0.996400	-0.080135	0.027669
17546	8.908020	-2.615661	1.805265	0.243228	0.108504	0.157013	-0.042113	-0.170640	0.984433	-0.071566	-0.982261	-0.173325	0.996546	-0.077751	0.029154
17547	8.958373	-2.118417	1.216461	0.002230	0.103825	0.106524	-0.043177	-0.171656	0.984210	-0.071458	-0.982075	-0.174418	0.996509	-0.077861	0.030136
17548	9.315265	-1.739473	0.699843	-0.316589	0.039971	0.045579	-0.043561	-0.172138	0.984109	-0.074363	-0.981753	-0.175017	0.996279	-0.080805	0.029966
17549	9.657871	-1.594003	-0.121009	-0.540976	-0.008085	-0.016993	-0.043420	-0.172029	0.984135	-0.079719	-0.981326	-0.175055	0.995871	-0.086055	0.028896
17550	9.716083	-1.788623	-1.000980	-0.690063	-0.084505	-0.045916	-0.042533	-0.171696	0.984231	-0.086533	-0.980788	-0.174835	0.995341	-0.092604	0.026859
17551	9.658117	-2.233553	-1.594200	-0.745891	-0.163025	-0.066356	-0.040804	-0.171254	0.984382	-0.093942	-0.980180	-0.174417	0.994741	-0.099592	0.023908
17552	9.645738	-2.765520	-1.727586	-0.675012	-0.234665	-0.070816	-0.038358	-0.170856	0.984549	-0.100549	-0.979614	-0.173917	0.994192	-0.105666	0.020397
17553	9.601326	-3.082255	-1.634632	-0.554033	-0.279792	-0.072907	-0.035456	-0.170497	0.984720	-0.106042	-0.979135	-0.173348	0.993729	-0.110568	0.016636
17554	9.482916	-3.370623	-1.372899	-0.409684	-0.332164	-0.076409	-0.032068	-0.170169	0.984893	-0.110057	-0.978806	-0.172700	0.993408	-0.113933	0.012660
17555	9.651718	-3.311333	-1.106167	-0.217200	-0.335542	-0.072437	-0.028609	-0.169897	0.985046	-0.112197	-0.978677	-0.172057	0.993274	-0.115442	0.008937
17556	9.629529	-2.992390	-0.771916	-0.038619	-0.305346	-0.061303	-0.025475	-0.169703	0.985166	-0.112565	-0.978731	-0.171505	0.993318	-0.115264	0.005830
17557	9.583188	-2.452826	-0.322583	0.112534	-0.292571	-0.056683	-0.022459	-0.169536	0.985268	-0.111422	-0.978953	-0.170989	0.993519	-0.113620	0.003097
17558	9.666703	-1.883672	-0.011603	0.164271	-0.293694	-0.063754	-0.019436	-0.169299	0.985373	-0.109776	-0.979239	-0.170410	0.993766	-0.111482	0.000447
17559	9.746364	-1.598997	0.103710	0.128944	-0.281191	-0.075575	-0.016513	-0.168922	0.985491	-0.108469	-0.979506	-0.169714	0.993963	-0.109697	-0.002148
17560	9.748380	-1.578524	0.220053	0.063664	-0.273485	-0.093666	-0.013654	-0.168361	0.985631	-0.107818	-0.979728	-0.168846	0.994077	-0.108574	-0.004776
17561	9.773023	-1.811675	0.294031	0.005206	-0.283940	-0.109488	-0.010667	-0.167648	0.985789	-0.107741	-0.979913	-0.167815	0.994122	-0.108000	-0.007610
17562	9.671637	-2.085752	0.313032	-0.031755	-0.270160	-0.113051	-0.007822	-0.166889	0.985945	-0.108037	-0.980062	-0.166751	0.994116	-0.107823	-0.010364
17563	9.491597	-2.185581	0.550482	-0.035897	-0.254486	-0.098476	-0.005140	-0.166251	0.986070	-0.108362	-0.980184	-0.165823	0.994098	-0.107705	-0.012977
17564	9.420763	-2.189355	0.735744	-0.041354	-0.205418	-0.085597	-0.002968	-0.165692	0.986173	-0.108754	-0.980275	-0.165028	0.994064	-0.107740	-0.015110
17565	9.365180	-2.293602	1.068922	-0.066319	-0.141362	-0.078835	-0.001431	-0.165124	0.986272	-0.109376	-0.980330	-0.164288	0.993999	-0.108110	-0.016658
17566	9.379359	-2.419558	1.101087	-0.096223	-0.083126	-0.079703	-0.000482	-0.164494	0.986378	-0.110312	-0.980349	-0.163542	0.993897	-0.108888	-0.017673
17567	9.418826	-2.266112	0.729808	-0.193403	-0.051111	-0.080891	0.000162	-0.163810	0.986492	-0.112196	-0.980266	-0.162757	0.993686	-0.110654	-0.018537
17568	9.669939	-2.197974	0.378923	-0.304168	-0.041060	-0.106055	0.000724	-0.162879	0.986646	-0.115202	-0.980091	-0.161713	0.993342	-0.113546	-0.019473
17569	9.655958	-2.021933	-0.562896	-0.409969	-0.085088	-0.135968	0.001773	-0.161698	0.986839	-0.119234	-0.979835	-0.160336	0.992865	-0.117380	-0.021017
17570	9.757069	-1.922952	-1.250761	-0.470624	-0.168414	-0.195315	0.003715	-0.160051	0.987102	-0.123887	-0.979578	-0.158365	0.992289	-0.121700	-0.023467
17571	9.664825	-2.357042	-1.325218	-0.373487	-0.238015	-0.272648	0.006464	-0.157727	0.987462	-0.127540	-0.979548	-0.155628	0.991812	-0.124935	-0.026448
17572	9.189282	-2.775756	-1.083916	-0.201873	-0.325505	-0.329186	0.010147	-0.154978	0.987866	-0.129506	-0.979800	-0.152382	0.991527	-0.126388	-0.030013
17573	9.815329	-2.463153	-0.769581	-0.111462	-0.400494	-0.342419	0.014607	-0.152183	0.988244	-0.130531	-0.980182	-0.149012	0.991337	-0.126820	-0.034183
17574	9.502072	-2.196705	-0.614265	-0.117143	-0.380794	-0.312418	0.018823	-0.149675	0.988556	-0.131640	-0.980495	-0.145948	0.991119	-0.127386	-0.038159
17575	9.690896	-2.201698	-0.091228	-0.114873	-0.395510	-0.278222	0.023155	-0.147505	0.988790	-0.132683	-0.980759	-0.143200	0.990888	-0.127880	-0.042281
17576	9.872705	-2.419901	0.624203	-0.121824	-0.372116	-0.250419	0.027206	-0.145600	0.988969	-0.133831	-0.980960	-0.140739	0.990631	-0.128526	-0.046174
17577	9.979786	-2.621013	1.103031	-0.185923	-0.326139	-0.227651	0.030787	-0.143842	0.989122	-0.135570	-0.981047	-0.138448	0.990289	-0.129833	-0.049704
17578	9.791321	-3.161858	1.491720	-0.229709	-0.241156	-0.233086	0.033522	-0.141948	0.989306	-0.137780	-0.981068	-0.136097	0.989895	-0.131744	-0.052445
17579	9.849508	-3.428058	1.950491	-0.172123	-0.137769	-0.241245	0.035264	-0.139817	0.989549	-0.139365	-0.981178	-0.133668	0.989613	-0.133194	-0.054086
17580	9.882796	-3.351271	2.410583	-0.043732	0.005743	-0.251333	0.035583	-0.137426	0.989873	-0.139730	-0.981454	-0.131235	0.989550	-0.133645	-0.054125
17581	10.207275	-3.112897	3.278460	0.123462	0.214405	-0.244209	0.033844	-0.134797	0.990295	-0.138387	-0.981950	-0.128932	0.989800	-0.132681	-0.051888
17582	10.290694	-2.591100	4.157546	0.195959	0.502783	-0.213135	0.029181	-0.132127	0.990803	-0.136412	-0.982478	-0.127000	0.990222	-0.131451	-0.046693
17583	9.927387	-1.728945	3.993699	0.099160	0.610466	-0.176260	0.023419	-0.129647	0.991284	-0.135347	-0.982838	-0.125345	0.990521	-0.131232	-0.040564
17584	10.348771	-0.718545	2.615746	-0.217360	0.524405	-0.203156	0.018520	-0.127044	0.991724	-0.137491	-0.982795	-0.123332	0.990330	-0.134069	-0.035668
17585	11.257118	-0.201176	0.753311	-0.790399	0.400435	-0.317797	0.015049	-0.123422	0.992240	-0.145224	-0.982100	-0.119958	0.989284	-0.142292	-0.032704
17586	12.294050	0.417228	-1.632107	-1.332711	0.292871	-0.461205	0.012872	-0.118545	0.992865	-0.158357	-0.980658	-0.115034	0.987298	-0.155746	-0.031396
17587	12.298605	0.918934	-2.728083	-1.406617	0.297825	-0.576125	0.010930	-0.112470	0.993595	-0.172123	-0.979034	-0.108928	0.985015	-0.169830	-0.030059
17588	10.935404	0.706762	-1.467102	-1.125799	0.334187	-0.609225	0.008743	-0.106003	0.994327	-0.183155	-0.977713	-0.102621	0.983045	-0.181219	-0.027963
17589	10.043509	-0.061306	0.362971	-0.903100	0.342336	-0.599077	0.006545	-0.099569	0.995009	-0.191943	-0.976653	-0.096469	0.981384	-0.190353	-0.025504
17590	10.318636	-1.422171	0.887711	-0.773840	0.400692	-0.595477	0.003803	-0.093054	0.995654	-0.199505	-0.975715	-0.090428	0.979889	-0.198294	-0.022275
17591	10.674876	-2.812324	0.650534	-0.506477	0.569405	-0.544539	-0.000634	-0.086654	0.996238	-0.204419	-0.975190	-0.084954	0.978883	-0.203704	-0.017096
17592	10.745218	-3.327321	1.017358	-0.115337	0.632140	-0.457215	-0.005864	-0.080982	0.996698	-0.205573	-0.975329	-0.080455	0.978624	-0.205366	-0.010928
17593	11.016767	-3.407013	1.327992	0.081615	0.620996	-0.384651	-0.011113	-0.076012	0.997045	-0.204769	-0.975802	-0.076675	0.978747	-0.205016	-0.004721
17594	10.552528	-3.727335	1.341062	0.117284	0.682033	-0.343228	-0.017070	-0.071351	0.997305	-0.203693	-0.976284	-0.073333	0.978886	-0.204396	0.002132
17595	9.865752	-4.214190	1.479010	0.183302	0.724829	-0.360489	-0.023395	-0.066411	0.997518	-0.201934	-0.976911	-0.069775	0.979120	-0.203065	0.009444
17596	9.516739	-4.265069	1.097777	0.288539	0.838480	-0.369716	-0.030849	-0.061196	0.997649	-0.199250	-0.977714	-0.066135	0.979463	-0.200822	0.017968
17597	9.063816	-3.973696	1.050014	0.560269	0.959554	-0.340351	-0.039542	-0.056020	0.997646	-0.193841	-0.979030	-0.062658	0.980236	-0.195863	0.027854
17598	9.198129	-3.301431	1.923698	0.955831	1.001701	-0.294503	-0.048797	-0.051315	0.997490	-0.184657	-0.981000	-0.059500	0.981591	-0.187097	0.038394
17599	9.459513	-2.619008	3.173344	1.260770	1.052056	-0.299577	-0.058556	-0.046523	0.997199	-0.172391	-0.983435	-0.056004	0.983287	-0.175188	0.049566
17600	9.681257	-1.930768	4.184755	1.446877	1.200068	-0.281389	-0.069887	-0.041832	0.996677	-0.158407	-0.985978	-0.052491	0.984898	-0.161549	0.062281
17601	9.013059	-0.717741	3.976022	1.531262	1.189689	-0.172398	-0.081310	-0.038351	0.995951	-0.143403	-0.988412	-0.049768	0.986318	-0.146869	0.074868
17602	9.439078	-0.246421	3.202914	1.179133	0.978998	-0.038839	-0.090904	-0.036681	0.995184	-0.131877	-0.990077	-0.048539	0.987089	-0.135654	0.085164
17603	10.063738	-0.472804	2.209005	0.479955	0.976611	0.103416	-0.100632	-0.036457	0.994256	-0.126999	-0.990683	-0.049180	0.986785	-0.131219	0.095064
17604	10.343533	-0.653424	0.961582	-0.078176	1.082985	0.216072	-0.111574	-0.037263	0.993057	-0.127612	-0.990486	-0.051504	0.985528	-0.132473	0.105758
17605	10.211526	-0.260117	0.614040	-0.272101	1.135041	0.232979	-0.123007	-0.038103	0.991674	-0.129976	-0.990037	-0.054163	0.983857	-0.135556	0.116829
17606	10.318498	-0.162949	0.780527	-0.345185	1.151556	0.186525	-0.134559	-0.038456	0.990159	-0.133197	-0.989476	-0.056531	0.981913	-0.139493	0.128020
17607	10.272394	-1.007381	0.514250	-0.359223	1.157447	0.156903	-0.146080	-0.038426	0.988526	-0.136457	-0.988911	-0.058606	0.979816	-0.143453	0.139217
17608	9.990300	-2.106800	-0.101011	-0.162883	1.124826	0.193620	-0.157343	-0.038802	0.986781	-0.137825	-0.988586	-0.060850	0.977879	-0.145577	0.150199
17609	9.819557	-2.841785	-0.456578	0.063115	1.076467	0.258442	-0.168173	-0.039847	0.984952	-0.136743	-0.988579	-0.063341	0.976227	-0.145338	0.160803
17610	9.501243	-3.328930	-0.540116	0.293982	0.940250	0.360170	-0.177819	-0.042141	0.983160	-0.133330	-0.988838	-0.066499	0.974989	-0.142909	0.170216
17611	9.786217	-3.108196	-0.416391	0.649293	0.778982	0.446666	-0.185948	-0.045525	0.981504	-0.126143	-0.989554	-0.069796	0.974429	-0.136789	0.178263
17612	10.113686	-2.449765	-0.247305	0.984939	0.717182	0.492643	-0.193519	-0.049545	0.979845	-0.115705	-0.990602	-0.072941	0.974250	-0.127488	0.185967
17613	8.892138	-1.603079	-0.035655	1.236830	0.736391	0.483093	-0.201176	-0.053493	0.978093	-0.102657	-0.991858	-0.075360	0.974161	-0.115568	0.194047
17614	9.165878	-0.682841	-0.282313	1.325847	0.659219	0.447818	-0.208013	-0.057306	0.976446	-0.088926	-0.993040	-0.077223	0.974075	-0.102895	0.201469
17615	9.095603	-0.052238	-0.767131	1.223939	0.649873	0.395156	-0.214623	-0.060654	0.974812	-0.076124	-0.993995	-0.078608	0.973726	-0.091078	0.208716
17616	9.124044	0.389289	-0.895394	0.991206	0.594319	0.347493	-0.220638	-0.063681	0.973275	-0.065817	-0.994620	-0.079998	0.973133	-0.081708	0.215260
17617	9.223191	0.575077	-0.478685	0.679595	0.536289	0.325918	-0.226011	-0.066554	0.971849	-0.058431	-0.994941	-0.081724	0.972371	-0.075257	0.220979
17618	9.177838	0.370156	-0.029829	0.334094	0.500454	0.315225	-0.231034	-0.069402	0.970467	-0.054552	-0.994960	-0.084140	0.971415	-0.072381	0.226084
17619	8.977737	-0.152201	0.075357	0.146302	0.449862	0.327595	-0.235530	-0.072390	0.969167	-0.052321	-0.994832	-0.087022	0.970458	-0.071204	0.230526
17620	8.852852	-0.811252	-0.055019	0.174795	0.379764	0.343518	-0.239369	-0.075617	0.967980	-0.049891	-0.994688	-0.090040	0.969646	-0.069846	0.234325
17621	8.978344	-1.588660	-0.307642	0.377065	0.329844	0.371440	-0.242697	-0.079138	0.966869	-0.045293	-0.994656	-0.092782	0.969044	-0.066310	0.237815
17622	8.969232	-2.211708	-0.519503	0.679854	0.299224	0.418150	-0.245748	-0.083185	0.965758	-0.037768	-0.994733	-0.095292	0.968598	-0.059892	0.241312
17623	8.891399	-2.276407	-0.502734	0.959817	0.275265	0.477952	-0.248521	-0.087839	0.964635	-0.027244	-0.994852	-0.097609	0.968243	-0.050538	0.244849
17624	8.798385	-1.936695	-0.187139	1.082518	0.259777	0.536495	-0.251128	-0.093135	0.963463	-0.015514	-0.994845	-0.100213	0.967829	-0.040113	0.248389
17625	8.768301	-1.560944	0.178264	1.062751	0.257604	0.603836	-0.253630	-0.099102	0.962211	-0.003659	-0.994633	-0.103406	0.967294	-0.029748	0.251906
17626	8.554691	-1.595011	0.785449	0.997207	0.228901	0.663319	-0.255807	-0.105716	0.960930	0.007580	-0.994192	-0.107357	0.966698	-0.020179	0.255123
17627	8.669715	-2.004511	1.128374	1.025459	0.139252	0.700041	-0.257009	-0.112702	0.959815	0.019333	-0.993578	-0.111489	0.966216	-0.010097	0.257538
17628	8.864746	-2.051154	1.408059	1.145388	0.046754	0.736941	-0.257249	-0.120093	0.958854	0.032196	-0.992762	-0.115702	0.965809	0.001107	0.259253
17629	9.073625	-1.717844	1.705758	1.294747	-0.023363	0.771281	-0.256668	-0.127792	0.958014	0.046728	-0.991702	-0.119767	0.965369	0.014026	0.260509
17630	9.219484	-1.306081	2.073746	1.380182	-0.070540	0.791515	-0.255535	-0.135696	0.957230	0.061976	-0.990364	-0.123848	0.964811	0.027678	0.261482
17631	9.395358	-0.983362	2.325211	1.430963	-0.103302	0.779873	-0.253941	-0.143423	0.956527	0.077811	-0.988769	-0.127600	0.964085	0.042025	0.262249
17632	9.672425	-0.707063	2.762008	1.452203	-0.114235	0.758142	-0.252169	-0.150929	0.955841	0.093626	-0.986933	-0.131138	0.963143	0.056423	0.263005
17633	10.087104	-0.618497	3.860870	1.398212	-0.057721	0.738044	-0.250812	-0.158213	0.955019	0.108987	-0.984896	-0.134540	0.961881	0.070341	0.264267
17634	10.340706	-0.856740	4.441651	1.312851	0.064370	0.742995	-0.250546	-0.165642	0.953829	0.123375	-0.982683	-0.138246	0.960211	0.083042	0.266643
17635	10.155879	-0.915809	5.079219	1.319179	0.115083	0.773271	-0.250584	-0.173378	0.952443	0.138014	-0.980181	-0.142116	0.958207	0.095838	0.269546
17636	9.735815	-1.472654	5.128466	1.459862	0.117653	0.821567	-0.250491	-0.181607	0.950933	0.153955	-0.977221	-0.146073	0.955799	0.109811	0.272744
17637	9.832857	-0.444464	4.072987	1.319494	0.120808	0.830202	-0.250248	-0.189889	0.949378	0.168676	-0.974133	-0.150379	0.953375	0.122505	0.275805
17638	9.576692	0.815813	2.952059	0.816154	0.099618	0.733256	-0.249908	-0.197214	0.947973	0.178200	-0.971683	-0.155169	0.951731	0.130151	0.277975
17639	9.288463	1.341313	2.909826	0.543844	0.039363	0.543277	-0.249239	-0.202581	0.947017	0.184775	-0.969860	-0.158838	0.950651	0.135397	0.279159
17640	9.258511	1.372517	3.577655	0.524718	0.061261	0.336570	-0.249169	-0.205989	0.946300	0.190532	-0.968448	-0.160642	0.949533	0.140273	0.280555
17641	9.254573	1.259784	4.520914	0.689011	0.249971	0.178022	-0.251137	-0.208110	0.945315	0.197559	-0.967077	-0.160417	0.947576	0.146469	0.283983
17642	8.943069	0.942474	5.354340	0.882334	0.421376	0.082351	-0.254935	-0.209596	0.943969	0.206065	-0.965577	-0.158743	0.944746	0.154050	0.289349
17643	9.082962	0.095346	5.495827	0.972759	0.509971	0.065510	-0.259548	-0.211074	0.942381	0.215454	-0.963884	-0.156551	0.941390	0.162407	0.295651
17644	9.623804	-0.935050	4.944713	1.023020	0.617275	0.113420	-0.265073	-0.213249	0.940352	0.225321	-0.961936	-0.154628	0.937532	0.170893	0.303033
17645	9.957462	-1.792215	4.000003	1.033566	0.721987	0.205764	-0.271294	-0.216528	0.937825	0.235587	-0.959667	-0.153420	0.933219	0.179318	0.311363
17646	9.910137	-2.395277	3.323405	1.006638	0.770362	0.314644	-0.277685	-0.221006	0.934905	0.245783	-0.957132	-0.153258	0.928699	0.187226	0.320101
17647	9.522880	-2.630116	3.254803	0.950956	0.792186	0.401579	-0.283958	-0.226394	0.931726	0.255767	-0.954401	-0.153954	0.924095	0.194589	0.328914
17648	8.824712	-2.685885	3.454475	0.885760	0.786953	0.426365	-0.290080	-0.232064	0.928439	0.265113	-0.951671	-0.155039	0.919548	0.201168	0.337584
17649	8.259507	-2.349795	3.876099	0.848683	0.762862	0.436260	-0.295842	-0.237804	0.925163	0.274223	-0.948893	-0.156215	0.915030	0.207486	0.345934
17650	7.977375	-1.799242	4.269324	0.862545	0.732905	0.428446	-0.301318	-0.243456	0.921920	0.283327	-0.946048	-0.157225	0.910458	0.213831	0.354038
17651	7.828724	-1.272711	4.354023	0.881986	0.673870	0.400576	-0.306224	-0.248738	0.918889	0.292601	-0.943126	-0.157788	0.905876	0.220549	0.361589
17652	8.027044	-0.971898	4.228388	0.905939	0.581987	0.366592	-0.310376	-0.253540	0.916179	0.301869	-0.940180	-0.157917	0.901411	0.227552	0.368345
17653	7.929883	-0.687673	3.922299	0.885324	0.524840	0.313275	-0.314075	-0.257728	0.913747	0.310855	-0.937312	-0.157527	0.897065	0.234568	0.374503
17654	7.831540	-0.580137	3.651837	0.813739	0.502004	0.266767	-0.317711	-0.261461	0.911426	0.318934	-0.934690	-0.156959	0.892939	0.240818	0.380350
17655	8.239412	-0.567045	3.421097	0.749636	0.510898	0.237689	-0.321435	-0.264958	0.909108	0.326420	-0.932216	-0.156280	0.888892	0.246517	0.386134
17656	8.590339	-0.539730	3.409854	0.635251	0.556137	0.203742	-0.325678	-0.268280	0.906620	0.332673	-0.930096	-0.155724	0.885021	0.250892	0.392161
17657	8.489050	-0.506895	3.534910	0.558945	0.597961	0.173673	-0.330315	-0.271437	0.903999	0.338226	-0.928193	-0.155117	0.881190	0.254518	0.398403
17658	8.457465	-0.500467	3.610805	0.548081	0.596290	0.142019	-0.335054	-0.274321	0.901381	0.343483	-0.926403	-0.154260	0.877359	0.257924	0.404620
17659	8.488375	-0.404047	3.869415	0.500295	0.547784	0.113391	-0.339396	-0.276825	0.898987	0.348293	-0.924770	-0.153272	0.873786	0.261091	0.410280
17660	8.473647	-0.443258	3.891249	0.422910	0.477000	0.080043	-0.343255	-0.278853	0.896893	0.352228	-0.923439	-0.152303	0.870696	0.263632	0.415195
17661	8.396031	-0.548375	3.799548	0.360768	0.411529	0.049815	-0.346595	-0.280434	0.895114	0.355583	-0.922321	-0.151273	0.868005	0.265857	0.419390
17662	8.118041	-0.617784	3.984780	0.273587	0.346996	0.042316	-0.349429	-0.281785	0.893586	0.358081	-0.921472	-0.150554	0.865839	0.267368	0.422891
17663	7.772570	-0.706721	4.132921	0.237516	0.292584	0.053475	-0.351707	-0.283094	0.892278	0.360370	-0.920662	-0.150053	0.863965	0.268776	0.425821
17664	7.481204	-0.826238	4.271645	0.242390	0.205123	0.092339	-0.353119	-0.284531	0.891262	0.362770	-0.919744	-0.149894	0.862383	0.270393	0.427999
17665	7.290531	-1.150186	4.266006	0.254473	0.107895	0.117303	-0.353561	-0.285934	0.890638	0.365425	-0.918696	-0.149877	0.861081	0.272471	0.429302
17666	7.214521	-1.361824	4.328477	0.294783	0.007744	0.126689	-0.353139	-0.287153	0.890414	0.368392	-0.917524	-0.149791	0.859988	0.275124	0.429798
17667	7.400683	-1.323363	4.225102	0.365587	-0.098709	0.102295	-0.351850	-0.287848	0.890699	0.371942	-0.916193	-0.149160	0.858988	0.278807	0.429426
17668	7.722081	-1.169249	4.145283	0.484606	-0.137118	0.064495	-0.350409	-0.288088	0.891190	0.376310	-0.914644	-0.147707	0.857674	0.283606	0.428910
17669	7.861882	-0.893657	4.190807	0.582031	-0.105572	0.039987	-0.349291	-0.288181	0.891598	0.381484	-0.912837	-0.145596	0.855842	0.289275	0.428782
17670	7.995583	-0.416500	4.167260	0.626461	-0.115488	0.006076	-0.348257	-0.287933	0.892083	0.386843	-0.910988	-0.143016	0.853856	0.295290	0.428643
17671	8.273181	0.079639	4.416041	0.589686	-0.104604	-0.023858	-0.347396	-0.287433	0.892580	0.391836	-0.909274	-0.140305	0.851928	0.301004	0.428504
17672	8.300785	0.463118	5.011143	0.503097	-0.088610	-0.053732	-0.346828	-0.286709	0.893033	0.395920	-0.907899	-0.137718	0.850269	0.305805	0.428399
17673	8.155516	0.787230	5.501785	0.320446	-0.126419	-0.076489	-0.345995	-0.285655	0.893694	0.398425	-0.907108	-0.135692	0.849438	0.309121	0.427667
17674	7.953748	0.832662	5.066825	0.031695	-0.253969	-0.044636	-0.343988	-0.284496	0.894838	0.398536	-0.907132	-0.135202	0.850201	0.310117	0.425425
17675	7.848553	0.759915	4.104625	-0.378588	-0.521003	0.010508	-0.339446	-0.283010	0.897041	0.395394	-0.908248	-0.136926	0.853487	0.308205	0.420201
17676	8.637421	0.266747	2.843474	-0.849348	-0.816279	0.044952	-0.332249	-0.280957	0.900374	0.388274	-0.910708	-0.140904	0.859566	0.302776	0.411670
17677	9.251126	-0.704884	2.515324	-1.124220	-0.868172	0.044270	-0.324523	-0.278796	0.903857	0.378762	-0.913920	-0.145908	0.866732	0.294996	0.402186
17678	9.222758	-1.346278	2.669627	-1.146507	-0.870776	0.085461	-0.316593	-0.277078	0.907191	0.369071	-0.917007	-0.151277	0.873817	0.286924	0.392580
17679	9.554197	-1.364359	2.728747	-1.038017	-0.792762	0.106549	-0.309190	-0.275842	0.910117	0.360347	-0.919630	-0.156306	0.880086	0.279630	0.383739
17680	10.796602	-0.745807	4.113065	-0.754414	-0.635580	0.045681	-0.303385	-0.274536	0.912462	0.353846	-0.921581	-0.159629	0.884732	0.274442	0.376738
17681	13.085251	-0.125108	7.918524	-0.386951	-0.261023	-0.026328	-0.301104	-0.273612	0.913495	0.350385	-0.922687	-0.160872	0.886886	0.271635	0.373694
17682	12.739403	-0.962304	9.491674	-0.256084	-0.129020	0.031091	-0.299815	-0.273585	0.913927	0.348229	-0.923279	-0.162147	0.888171	0.269642	0.372083
17683	10.609380	-2.425847	4.625601	-0.636868	-0.638705	0.155980	-0.293528	-0.273348	0.916036	0.343068	-0.924534	-0.165954	0.892270	0.265550	0.365154
17684	10.439241	-2.134157	0.739201	-1.088382	-1.033734	0.121077	-0.283828	-0.271797	0.919548	0.333691	-0.927041	-0.171015	0.898939	0.258306	0.353816
17685	10.096502	-0.886849	-0.489656	-1.193995	-0.967549	0.009005	-0.275007	-0.269455	0.922911	0.322988	-0.930028	-0.175290	0.905566	0.249883	0.342795
17686	9.286097	1.072243	-1.588500	-1.193047	-0.975959	-0.018257	-0.266158	-0.266924	0.926235	0.312126	-0.932991	-0.179180	0.911996	0.241412	0.331637
17687	9.163822	2.312016	-1.688437	-1.314894	-1.039476	-0.043958	-0.256716	-0.264087	0.929707	0.300019	-0.936198	-0.183087	0.918741	0.231929	0.319568
17688	9.581748	1.773805	-0.767747	-1.259704	-1.148383	-0.051344	-0.246231	-0.261025	0.933400	0.288331	-0.939177	-0.186578	0.925330	0.223186	0.306516
17689	9.945425	-0.246734	0.264279	-1.284211	-1.238780	-0.058979	-0.234833	-0.257795	0.937227	0.276307	-0.942120	-0.189909	0.931938	0.214366	0.292471
17690	10.248634	-2.912692	-0.329669	-1.528205	-1.289251	-0.085373	-0.222948	-0.254326	0.941070	0.261889	-0.945505	-0.193480	0.938993	0.203320	0.277404
17691	10.519418	-4.506212	-0.698049	-1.526069	-1.270906	-0.121674	-0.211222	-0.250697	0.944741	0.247288	-0.948810	-0.196489	0.945640	0.192120	0.262404
17692	10.360130	-5.144072	-0.439526	-1.135544	-1.218522	-0.127088	-0.199919	-0.247226	0.948109	0.236328	-0.951242	-0.198210	0.950884	0.184439	0.248598
17693	9.879417	-4.478123	0.049517	-0.528222	-1.216448	-0.064084	-0.188421	-0.244422	0.951186	0.231214	-0.952350	-0.198920	0.954483	0.182447	0.235956
17694	9.477348	-3.404469	-0.009143	0.030901	-1.206806	0.032712	-0.176759	-0.242545	0.953901	0.231627	-0.952193	-0.199190	0.956611	0.185741	0.224489
17695	9.045660	-2.157376	0.653726	0.419735	-1.199964	0.109311	-0.164959	-0.241352	0.956315	0.235873	-0.951116	-0.199354	0.957681	0.192684	0.213823
17696	8.785170	-1.428250	1.581398	0.437910	-1.147907	0.136465	-0.153581	-0.240431	0.958439	0.240340	-0.949908	-0.199778	0.958462	0.199670	0.203673
17697	8.597748	-1.719633	2.192603	0.437237	-1.137323	0.100516	-0.142372	-0.239111	0.960498	0.244722	-0.948760	-0.199914	0.959084	0.206593	0.193593
17698	8.991622	-2.540966	2.875823	0.500685	-1.074041	0.038354	-0.131919	-0.237248	0.962450	0.249631	-0.947595	-0.199370	0.959313	0.213957	0.184230
17699	9.399139	-1.828588	3.450613	0.623619	-1.079052	0.031534	-0.121428	-0.235227	0.964325	0.255693	-0.946140	-0.198594	0.959102	0.222456	0.175034
17700	10.414843	0.312556	2.921734	0.243027	-0.960925	0.088746	-0.111927	-0.233939	0.965787	0.258178	-0.945365	-0.199071	0.959592	0.227063	0.166210
17701	9.563701	1.089991	2.896944	-0.302781	-0.824320	0.103861	-0.103683	-0.233088	0.966913	0.255420	-0.945789	-0.200607	0.961255	0.226170	0.157597
17702	8.777978	0.568842	3.295595	-0.700892	-0.795676	0.071102	-0.095789	-0.232007	0.967986	0.248807	-0.947170	-0.202396	0.963805	0.221455	0.148453
17703	8.376646	-1.321342	2.858754	-0.912811	-0.804008	-0.001516	-0.087971	-0.230274	0.969141	0.240033	-0.949145	-0.203735	0.966771	0.214703	0.138770
17704	8.654255	-3.133993	1.978772	-0.947903	-0.810553	-0.082147	-0.080261	-0.227808	0.970393	0.230852	-0.951312	-0.204235	0.969673	0.207625	0.128943
17705	9.307819	-4.019703	1.374252	-0.830409	-0.699589	-0.131780	-0.073708	-0.225159	0.971530	0.222726	-0.953291	-0.204034	0.972091	0.201346	0.120413
17706	9.253027	-4.046609	1.197573	-0.663614	-0.582708	-0.130517	-0.068272	-0.222785	0.972474	0.216233	-0.954883	-0.203574	0.973952	0.196382	0.113365
17707	9.107350	-3.733376	0.666798	-0.561064	-0.610350	-0.133765	-0.062549	-0.220357	0.973412	0.210713	-0.956252	-0.202933	0.975545	0.192418	0.106245
17708	9.414862	-3.618116	-0.031453	-0.536523	-0.653282	-0.132095	-0.056397	-0.217883	0.974344	0.205442	-0.957546	-0.202235	0.977043	0.188766	0.098765
17709	9.472936	-3.455977	-0.481954	-0.436772	-0.687956	-0.119964	-0.049855	-0.215481	0.975234	0.201145	-0.958608	-0.201525	0.978292	0.186116	0.091134
17710	10.215244	-3.456410	-0.885484	-0.306019	-0.755606	-0.124568	-0.042660	-0.212923	0.976137	0.198129	-0.959425	-0.200619	0.979247	0.184843	0.083115
17711	9.918948	-3.153195	-1.153776	-0.146016	-0.744237	-0.122512	-0.035552	-0.210409	0.976967	0.196687	-0.959938	-0.199584	0.979822	0.185061	0.075513
17712	9.655767	-2.508643	-0.937632	0.017298	-0.776198	-0.118095	-0.028130	-0.207871	0.977752	0.196851	-0.960136	-0.198463	0.980030	0.186889	0.067928
17713	9.656738	-1.804184	-0.833560	0.096828	-0.754640	-0.122548	-0.020917	-0.205312	0.978473	0.197806	-0.960191	-0.197248	0.980018	0.189422	0.060696
17714	9.608214	-1.150192	-0.839978	0.085241	-0.775316	-0.142700	-0.013551	-0.202503	0.979188	0.198649	-0.960303	-0.195849	0.979977	0.191861	0.053240
17715	9.787725	-0.844190	-0.368090	-0.000741	-0.831396	-0.161438	-0.005664	-0.199388	0.979904	0.198661	-0.960612	-0.194314	0.980052	0.193568	0.045052
17716	9.821220	-0.653104	-0.151438	-0.253752	-0.835669	-0.183161	0.002219	-0.196049	0.980592	0.196208	-0.961448	-0.192666	0.980560	0.192828	0.036333
17717	9.838897	-0.670877	-0.167475	-0.492229	-0.852789	-0.210551	0.010236	-0.192429	0.981257	0.191426	-0.962782	-0.190803	0.981454	0.189792	0.026981
17718	9.951648	-0.696715	-0.035438	-0.609918	-0.844270	-0.228331	0.018150	-0.188677	0.981871	0.185515	-0.964345	-0.188739	0.982474	0.185577	0.017499
17719	9.983261	-0.599279	0.164674	-0.679703	-0.774598	-0.241621	0.025383	-0.184966	0.982417	0.178919	-0.966025	-0.186502	0.983536	0.180507	0.008573
17720	9.828656	-0.442096	0.429688	-0.747860	-0.673613	-0.245655	0.031636	-0.181424	0.982896	0.171681	-0.967786	-0.184161	0.984645	0.174571	0.000530
17721	9.811738	-0.412509	0.885495	-0.805746	-0.605290	-0.251893	0.037235	-0.177986	0.983328	0.163862	-0.969604	-0.181707	0.985780	0.167896	-0.006938
17722	9.851772	-0.537644	0.899756	-0.892009	-0.520644	-0.251595	0.042024	-0.174717	0.983721	0.155221	-0.971495	-0.179176	0.986986	0.160224	-0.013706
17723	9.884778	-0.938109	0.789130	-0.955473	-0.464621	-0.254985	0.046286	-0.171552	0.984087	0.145930	-0.973413	-0.176555	0.988212	0.151780	-0.020020
17724	9.598713	-1.582353	0.699273	-0.980271	-0.429149	-0.258661	0.050218	-0.168425	0.984434	0.136424	-0.975282	-0.173818	0.989377	0.143029	-0.025999
17725	9.219435	-2.336796	0.226790	-1.030523	-0.437738	-0.254220	0.054273	-0.165378	0.984736	0.126387	-0.977120	-0.171065	0.990495	0.133742	-0.032130
17726	8.911262	-3.058709	-0.406170	-1.063810	-0.470766	-0.260215	0.058675	-0.162254	0.985003	0.116052	-0.978904	-0.168162	0.991509	0.124178	-0.038607
17727	9.029988	-3.793977	-0.716807	-0.992272	-0.527011	-0.271893	0.063655	-0.159001	0.985224	0.106407	-0.980517	-0.165116	0.992283	0.115345	-0.045496
17728	9.476703	-3.637988	-1.079983	-0.862722	-0.505260	-0.277247	0.068436	-0.155751	0.985423	0.098076	-0.981904	-0.162006	0.992823	0.107733	-0.051922
17729	9.888521	-2.783033	-1.358217	-0.740063	-0.442586	-0.273129	0.072627	-0.152648	0.985608	0.090951	-0.983087	-0.158959	0.993204	0.101187	-0.057516
17730	9.990694	-1.821578	-1.505095	-0.623754	-0.387410	-0.266900	0.076289	-0.149681	0.985787	0.084993	-0.984093	-0.156001	0.993457	0.095686	-0.062353
17731	9.707158	-1.235024	-1.317580	-0.557505	-0.365357	-0.294753	0.079730	-0.146482	0.985995	0.079715	-0.985039	-0.152785	0.993624	0.090780	-0.066860
17732	9.164005	-1.218514	-0.990224	-0.537588	-0.423909	-0.360001	0.083712	-0.142598	0.986234	0.074707	-0.986025	-0.148909	0.993686	0.086144	-0.071889
17733	8.932998	-1.417618	-0.921137	-0.656467	-0.556536	-0.413028	0.089000	-0.138104	0.986411	0.068571	-0.987142	-0.144393	0.993668	0.080490	-0.078386
17734	9.267790	-1.799456	-1.026209	-0.816010	-0.635919	-0.449618	0.095075	-0.133213	0.986517	0.060916	-0.988370	-0.139334	0.993605	0.073342	-0.085855
17735	9.623270	-2.092402	-0.997302	-0.824647	-0.665272	-0.459428	0.101476	-0.128251	0.986537	0.053204	-0.989537	-0.134113	0.993414	0.066097	-0.093590
17736	9.952504	-2.459197	-0.719664	-0.761307	-0.687491	-0.452593	0.108126	-0.123381	0.986451	0.046152	-0.990576	-0.128955	0.993065	0.059470	-0.101413
17737	10.013223	-2.842233	-0.251372	-0.672830	-0.653050	-0.417021	0.114482	-0.118924	0.986281	0.039965	-0.991454	-0.124187	0.992621	0.053634	-0.108751
17738	9.866845	-3.262862	0.280080	-0.611744	-0.581965	-0.371660	0.120164	-0.114989	0.986072	0.034357	-0.992193	-0.119890	0.992159	0.048285	-0.115275
17739	9.711867	-3.457432	0.558547	-0.615875	-0.543126	-0.343551	0.125495	-0.111378	0.985822	0.028699	-0.992855	-0.115826	0.991679	0.042827	-0.121401
17740	9.991530	-3.560329	0.905669	-0.646586	-0.500754	-0.352027	0.130410	-0.107739	0.985589	0.022751	-0.993491	-0.111613	0.991199	0.036979	-0.127110
17741	10.342793	-3.434591	1.327168	-0.612364	-0.399250	-0.393047	0.134339	-0.103743	0.985490	0.017231	-0.994110	-0.106999	0.990786	0.031355	-0.131760
17742	10.508075	-3.369687	1.835126	-0.587870	-0.318731	-0.453861	0.137467	-0.099204	0.985526	0.012022	-0.994731	-0.101808	0.990433	0.025843	-0.135550
17743	10.568898	-3.353810	2.296898	-0.583380	-0.191435	-0.502315	0.139365	-0.094210	0.985749	0.006968	-0.995346	-0.096112	0.990217	0.020263	-0.138060
17744	10.401350	-3.333673	2.725606	-0.600666	-0.023685	-0.511113	0.139611	-0.089192	0.986181	0.001716	-0.995912	-0.090315	0.990205	0.014301	-0.138887
17745	10.487276	-2.977823	3.030127	-0.659887	0.139473	-0.461704	0.138285	-0.084656	0.986768	-0.004150	-0.996381	-0.084899	0.990384	0.007646	-0.138136
17746	10.607491	-1.915477	2.671987	-0.711923	0.274512	-0.404805	0.135624	-0.080717	0.987467	-0.010678	-0.996737	-0.080008	0.990703	0.000307	-0.136043
17747	10.450768	-0.640048	2.163729	-0.783616	0.355249	-0.416704	0.132212	-0.076599	0.988257	-0.017856	-0.997032	-0.074890	0.991061	-0.007745	-0.133187
17748	10.458804	-0.022633	1.684612	-0.826541	0.323488	-0.461908	0.129130	-0.072040	0.989007	-0.025478	-0.997269	-0.069315	0.991300	-0.016248	-0.130613
17749	11.016153	0.001172	1.488350	-0.905166	0.333297	-0.486418	0.126019	-0.067169	0.989751	-0.033803	-0.997416	-0.063385	0.991452	-0.025469	-0.127964
17750	11.738742	-0.926642	1.577327	-1.014320	0.430969	-0.506163	0.121962	-0.062073	0.990592	-0.043262	-0.997426	-0.057174	0.991591	-0.035881	-0.124334
17751	12.897295	-1.890991	1.552364	-1.049651	0.658672	-0.485219	0.115711	-0.057012	0.991645	-0.053066	-0.997280	-0.051144	0.991864	-0.046705	-0.118422
17752	13.234340	-2.281687	1.521613	-0.826503	0.974765	-0.424827	0.106301	-0.052364	0.992954	-0.060826	-0.997085	-0.046070	0.992472	-0.055501	-0.109176
17753	12.605828	-1.505464	2.059181	-0.557327	1.158893	-0.393572	0.095091	-0.047813	0.994320	-0.065934	-0.996955	-0.041635	0.993283	-0.061601	-0.097954
17754	12.187175	-0.736200	2.722632	-0.499047	1.199889	-0.403156	0.083459	-0.043111	0.995578	-0.070570	-0.996811	-0.037249	0.994009	-0.067150	-0.086235
17755	11.893437	-0.597574	2.636811	-0.489903	1.202264	-0.437446	0.071870	-0.037964	0.996691	-0.075071	-0.996647	-0.032549	0.994585	-0.072484	-0.074479
17756	11.706913	-1.206661	2.544594	-0.588421	1.191744	-0.475620	0.060398	-0.032412	0.997648	-0.080646	-0.996364	-0.027488	0.994911	-0.078797	-0.062792
17757	11.940203	-2.068810	2.035845	-0.639136	1.342518	-0.491358	0.047497	-0.026467	0.998521	-0.086709	-0.995985	-0.022275	0.995101	-0.085523	-0.049601
17758	11.732036	-2.413859	1.759823	-0.379550	1.661712	-0.476329	0.031390	-0.020358	0.999300	-0.090340	-0.995758	-0.017448	0.995416	-0.089729	-0.033096
17759	10.125750	-2.002627	1.992630	0.103348	1.810998	-0.426486	0.013787	-0.014546	0.999799	-0.089182	-0.995927	-0.013259	0.995920	-0.088981	-0.015028
17760	9.408829	-1.420770	1.738292	0.357552	1.724714	-0.336515	-0.003090	-0.009780	0.999947	-0.085652	-0.996275	-0.010009	0.996320	-0.085679	0.002241
17761	8.859725	-1.201590	0.887240	0.490603	1.648782	-0.178300	-0.019325	-0.006683	0.999791	-0.080749	-0.996701	-0.008223	0.996547	-0.080891	0.018722
17762	8.666307	-1.997758	0.715536	0.530988	1.531351	-0.055521	-0.034534	-0.005023	0.999391	-0.075527	-0.997115	-0.007621	0.996546	-0.075744	0.034055
17763	9.257757	-3.182269	0.633499	0.351948	1.513787	0.054090	-0.049610	-0.004494	0.998759	-0.071961	-0.997375	-0.008063	0.996173	-0.072272	0.049157
17764	10.071537	-4.324716	-0.165904	0.139475	1.613510	0.164610	-0.065785	-0.005075	0.997821	-0.070544	-0.997461	-0.009724	0.995337	-0.071030	0.065260
17765	10.539185	-4.503172	-0.808708	0.145897	1.703963	0.286544	-0.082889	-0.006787	0.996536	-0.068842	-0.997549	-0.012520	0.994178	-0.069642	0.082219
17766	10.642476	-4.000603	-1.225682	0.275047	1.725728	0.455395	-0.100331	-0.010249	0.994901	-0.065782	-0.997691	-0.016912	0.992777	-0.067143	0.099426
17767	10.043365	-3.572651	-1.201349	0.469441	1.580200	0.609391	-0.116346	-0.015357	0.993090	-0.060425	-0.997919	-0.022511	0.991369	-0.062627	0.115176
17768	10.239223	-2.793881	-1.360969	0.620370	1.411179	0.726754	-0.130731	-0.021869	0.991177	-0.053489	-0.998145	-0.029078	0.989974	-0.056818	0.129319
17769	10.060970	-1.834083	-1.475264	0.876143	1.284969	0.822664	-0.143796	-0.029458	0.989169	-0.043651	-0.998395	-0.036078	0.988644	-0.048366	0.142279
17770	10.110029	-0.741157	-1.262130	1.138728	1.169414	0.826821	-0.155649	-0.037311	0.987108	-0.031279	-0.998599	-0.042678	0.987317	-0.037519	0.154264
17771	10.179187	0.192294	-0.240487	1.399151	1.112757	0.749354	-0.166758	-0.044504	0.984993	-0.016225	-0.998722	-0.047871	0.985864	-0.023965	0.165822
17772	10.031127	0.827269	0.322366	1.564021	1.084761	0.631901	-0.177482	-0.050729	0.982816	0.000155	-0.998672	-0.051520	0.984124	-0.008991	0.177254
17773	9.362871	1.359049	-0.924158	1.510073	1.024211	0.508352	-0.187461	-0.055838	0.980684	0.015972	-0.998424	-0.053795	0.982142	0.005579	0.188057
17774	9.107207	2.380279	-1.455268	1.191009	0.872284	0.416918	-0.195913	-0.060184	0.978773	0.028356	-0.998045	-0.055693	0.980211	0.016843	0.197237
17775	9.896822	3.021214	-0.851348	0.646932	0.797968	0.333160	-0.203571	-0.063715	0.976985	0.035400	-0.997707	-0.057690	0.978420	0.022841	0.205360
17776	10.171892	3.011015	-0.375093	0.211475	0.881230	0.280813	-0.212064	-0.066802	0.974970	0.037971	-0.997471	-0.060084	0.976518	0.024279	0.214064
17777	9.969170	2.504248	-0.203672	-0.183510	0.884893	0.247998	-0.220554	-0.069527	0.972894	0.036761	-0.997340	-0.062941	0.974682	0.021882	0.222523
17778	9.753612	1.480403	-0.494828	-0.516486	0.887217	0.215672	-0.229099	-0.071918	0.970743	0.032159	-0.997282	-0.066294	0.972872	0.016030	0.230789
17779	9.100626	0.355151	-0.651951	-0.731652	0.870177	0.188278	-0.237452	-0.073949	0.968580	0.025531	-0.997229	-0.069877	0.971064	0.008136	0.238682
17780	8.635898	-0.839397	-0.789279	-0.764509	0.820135	0.189865	-0.245345	-0.075943	0.966457	0.018526	-0.997112	-0.073649	0.969259	-0.000165	0.246043
17781	8.292729	-1.945816	-0.945974	-0.584606	0.734872	0.205251	-0.252379	-0.078014	0.964478	0.013420	-0.996931	-0.077128	0.967535	-0.006522	0.252652
17782	8.140988	-2.660630	-1.085721	-0.201594	0.641109	0.247052	-0.258522	-0.080494	0.962646	0.012054	-0.996713	-0.080106	0.965930	-0.009105	0.258643
17783	8.148995	-2.975430	-1.166100	0.308523	0.536322	0.310502	-0.263607	-0.083597	0.961001	0.015888	-0.996479	-0.082325	0.964499	-0.006433	0.264007
17784	8.282630	-3.033748	-1.237846	0.876632	0.431136	0.391528	-0.267656	-0.087556	0.959528	0.025319	-0.996158	-0.083836	0.963182	0.001855	0.268845
17785	8.598537	-2.786564	-1.053670	1.408211	0.337116	0.499000	-0.270688	-0.092604	0.958203	0.040262	-0.995581	-0.084842	0.961825	0.015614	0.273220
17786	8.951630	-2.510743	-0.657627	1.795395	0.250592	0.610075	-0.272766	-0.098803	0.956994	0.059106	-0.994555	-0.085834	0.960263	0.033151	0.277120
17787	9.279780	-2.111289	-0.185714	2.006162	0.186018	0.721561	-0.273996	-0.106101	0.955860	0.080371	-0.992945	-0.087179	0.958367	0.052936	0.280590
17788	9.474068	-1.536660	0.643797	2.009172	0.152791	0.819901	-0.274682	-0.114396	0.954706	0.101778	-0.990779	-0.089435	0.956133	0.072602	0.283793
17789	9.504275	-0.944752	1.840370	1.795057	0.149186	0.893093	-0.275057	-0.123400	0.953476	0.121421	-0.988247	-0.092872	0.953730	0.090227	0.286808
17790	9.432533	-0.456965	3.025734	1.421734	0.150462	0.945936	-0.275236	-0.132946	0.952140	0.137493	-0.985655	-0.097880	0.951494	0.103972	0.289567
17791	9.424775	0.032264	3.921306	1.015727	0.144778	0.984920	-0.275142	-0.142843	0.950733	0.149904	-0.983180	-0.104336	0.949645	0.113812	0.291927
17792	9.532039	0.316806	4.352953	0.708410	0.125259	0.990533	-0.274770	-0.152779	0.949294	0.159281	-0.980887	-0.111760	0.948225	0.120496	0.293854
17793	9.566291	0.271798	4.247760	0.509274	0.103333	0.979667	-0.274097	-0.162547	0.947866	0.166841	-0.978704	-0.119590	0.947119	0.125364	0.295379
17794	9.287092	0.166632	3.744403	0.386918	0.094258	0.964673	-0.273322	-0.172158	0.946391	0.173083	-0.976598	-0.127666	0.946223	0.128911	0.296723
17795	8.931423	0.046734	3.318045	0.295486	0.099876	0.941783	-0.272555	-0.181518	0.944862	0.178494	-0.974534	-0.135730	0.945438	0.131658	0.298014
17796	8.624330	0.045576	3.085249	0.254832	0.124140	0.894271	-0.272084	-0.190447	0.943239	0.183284	-0.972531	-0.143492	0.944657	0.133839	0.299516
17797	8.464284	-0.201080	3.302658	0.355473	0.179305	0.831225	-0.272173	-0.198807	0.941487	0.188947	-0.970418	-0.150293	0.943515	0.136985	0.301686
17798	8.351342	-0.284594	3.960117	0.554820	0.274114	0.740641	-0.273305	-0.206424	0.939518	0.196152	-0.968141	-0.155653	0.941716	0.141747	0.305088
17799	8.297179	-0.447880	4.789517	0.701365	0.384633	0.636736	-0.275590	-0.213179	0.937339	0.204540	-0.965775	-0.159508	0.939262	0.147765	0.309761
17800	8.273808	-0.863732	5.500097	0.803694	0.480051	0.556974	-0.278902	-0.219331	0.934937	0.213581	-0.963352	-0.162283	0.936268	0.154424	0.315525
17801	8.280731	-1.289742	6.080312	0.813397	0.563799	0.502830	-0.283017	-0.225098	0.932326	0.222641	-0.960935	-0.164420	0.932916	0.161040	0.322077
17802	8.410862	-1.643925	6.365029	0.761886	0.630607	0.497405	-0.287738	-0.230958	0.929444	0.231116	-0.958549	-0.166642	0.929404	0.166860	0.329189
17803	9.209273	-2.087690	6.695850	0.704744	0.802114	0.511305	-0.293916	-0.237251	0.925919	0.239184	-0.956141	-0.169070	0.925421	0.171772	0.337772
17804	9.831352	-2.288693	6.906509	0.688767	1.093542	0.529602	-0.302703	-0.244259	0.921254	0.247079	-0.953668	-0.171668	0.920501	0.175657	0.349030
17805	9.626130	-2.660329	7.090082	0.781194	1.251550	0.565213	-0.312708	-0.251905	0.915837	0.256032	-0.950858	-0.174117	0.914692	0.180035	0.361836
17806	9.223747	-2.590670	7.067013	0.966701	1.274690	0.589582	-0.322771	-0.259883	0.910099	0.266669	-0.947580	-0.176010	0.908133	0.185884	0.375154
17807	8.722126	-2.206330	6.532423	1.024089	1.125148	0.594265	-0.331276	-0.267671	0.904770	0.277926	-0.944055	-0.177532	0.901673	0.192647	0.387135
17808	8.892380	-1.887005	5.628450	1.137345	0.952097	0.571392	-0.338199	-0.274973	0.900006	0.290006	-0.940269	-0.178298	0.895275	0.200707	0.397742
17809	7.816849	-0.779950	5.390626	1.151504	0.881903	0.492730	-0.344549	-0.281441	0.895588	0.302007	-0.936518	-0.178116	0.888863	0.209104	0.407673
17810	7.439017	0.000365	4.888387	1.043629	0.810378	0.416617	-0.350440	-0.287103	0.891495	0.312651	-0.933116	-0.177606	0.882860	0.216486	0.416764
17811	7.555902	0.592053	4.630481	0.868925	0.785716	0.314437	-0.356299	-0.291792	0.887642	0.321456	-0.930278	-0.176776	0.877335	0.222353	0.425255
17812	7.522561	1.087893	4.505805	0.781671	0.819224	0.185066	-0.362854	-0.295394	0.883787	0.328917	-0.927979	-0.175122	0.871866	0.227149	0.433881
17813	7.226561	0.920002	4.433267	0.770143	0.846021	0.109618	-0.369782	-0.298386	0.879902	0.336058	-0.925864	-0.172742	0.866214	0.231821	0.442643
17814	6.461657	0.285126	4.210509	0.752627	0.830893	0.127656	-0.376513	-0.301549	0.875960	0.343005	-0.923720	-0.170557	0.860573	0.236242	0.451225
17815	6.633445	-0.237957	3.900016	0.654222	0.694196	0.123970	-0.381981	-0.304381	0.872607	0.349136	-0.921763	-0.168694	0.855684	0.240221	0.458366
17816	7.453295	-0.464026	3.748655	0.524617	0.608836	0.110005	-0.386780	-0.306901	0.869605	0.354015	-0.920157	-0.167284	0.851513	0.243152	0.464546
17817	8.417426	-0.588607	3.728758	0.470023	0.538431	0.074702	-0.391028	-0.308938	0.866980	0.358347	-0.918755	-0.165765	0.847753	0.245861	0.469966
17818	8.918686	-0.702088	3.971511	0.487420	0.555551	0.071245	-0.395457	-0.311000	0.864230	0.362734	-0.917326	-0.164126	0.843823	0.248581	0.475573
17819	7.863440	-0.969822	4.343836	0.484807	0.586359	0.119478	-0.399897	-0.313594	0.861244	0.367337	-0.915717	-0.162865	0.839730	0.251238	0.481387
17820	6.014943	-1.363303	2.998526	0.271777	0.266517	0.172809	-0.401480	-0.315880	0.859671	0.370299	-0.914484	-0.163086	0.837671	0.252860	0.484117
17821	5.062285	-1.496133	0.606012	-0.139738	-0.398288	0.239443	-0.397192	-0.317095	0.861214	0.370131	-0.914056	-0.165847	0.839787	0.252888	0.480423
17822	5.640558	-1.420403	-0.872958	-0.625575	-0.991970	0.237456	-0.387941	-0.316805	0.865526	0.365780	-0.914872	-0.170920	0.845994	0.250286	0.470798
17823	7.154369	-1.206112	-1.075211	-0.754176	-1.228812	0.134612	-0.376951	-0.315014	0.871019	0.359933	-0.916300	-0.175622	0.853438	0.247308	0.458784
17824	8.807711	-0.694261	-0.051084	-0.436487	-1.174384	0.072690	-0.366611	-0.312814	0.876210	0.356461	-0.917143	-0.178282	0.859379	0.246975	0.447741
17825	9.736737	-0.050179	2.081390	0.013126	-0.935402	0.110590	-0.358101	-0.311537	0.880175	0.357021	-0.916741	-0.179224	0.862728	0.250060	0.439511
17826	9.667801	0.456929	4.190480	0.259826	-0.727132	0.143805	-0.351278	-0.311055	0.883090	0.359782	-0.915627	-0.179400	0.864384	0.254701	0.433552
17827	8.790586	0.454963	5.017403	0.172600	-0.712275	0.110379	-0.344656	-0.310270	0.885971	0.361705	-0.914817	-0.179664	0.866246	0.258538	0.427523
17828	8.519536	0.142773	4.782591	-0.191868	-0.960492	-0.002228	-0.336293	-0.307797	0.890039	0.360050	-0.915307	-0.180493	0.870213	0.259760	0.418633
17829	10.451375	-0.455886	5.322909	-0.621967	-1.164961	-0.097357	-0.326406	-0.303923	0.895036	0.354341	-0.917190	-0.182223	0.876300	0.257669	0.407069
17830	12.931182	-1.599654	7.532451	-0.776646	-1.051708	-0.036711	-0.317253	-0.300933	0.899327	0.347419	-0.919270	-0.185049	0.882412	0.253736	0.396191
17831	13.906519	-2.283279	9.952481	-0.466326	-0.839626	0.129336	-0.309318	-0.300033	0.902387	0.343743	-0.920037	-0.188074	0.886658	0.252015	0.387718
17832	14.235170	-1.218955	11.554466	-0.020581	-0.609483	0.194956	-0.303206	-0.300322	0.904363	0.344183	-0.919487	-0.189950	0.888597	0.253673	0.382160
17833	13.094859	-0.035176	11.145544	0.215823	-0.447077	0.212943	-0.298435	-0.301170	0.905667	0.346786	-0.918273	-0.191089	0.889200	0.257045	0.378486
17834	10.269232	0.495573	5.534149	0.204647	-0.695320	0.251275	-0.291345	-0.301711	0.907793	0.349377	-0.916967	-0.192632	0.890536	0.261040	0.372565
17835	8.903704	2.375634	-1.087032	-0.187001	-0.928873	0.166742	-0.282414	-0.300843	0.910898	0.348230	-0.916930	-0.194870	0.893856	0.262168	0.363717
17836	8.451884	5.612923	-2.830651	-0.818221	-0.825827	-0.051438	-0.275155	-0.298260	0.913964	0.340799	-0.919186	-0.197364	0.898969	0.257173	0.354565
17837	8.029913	8.175169	-2.482721	-1.670219	-0.603137	-0.256389	-0.270503	-0.294420	0.916594	0.325067	-0.924105	-0.200900	0.906179	0.243611	0.345679
17838	8.403058	6.410959	-1.438263	-2.203348	-0.541415	-0.268861	-0.266370	-0.290686	0.918993	0.304382	-0.930020	-0.205949	0.914548	0.224866	0.336209
17839	8.421669	2.222341	-0.583744	-2.420002	-0.819231	-0.216345	-0.259413	-0.286944	0.922154	0.281611	-0.935821	-0.211976	0.923797	0.204699	0.323571
17840	9.322797	-2.859468	-1.255812	-2.763301	-1.125983	-0.293472	-0.249680	-0.282033	0.926346	0.255323	-0.941965	-0.217970	0.934061	0.182095	0.307200
17841	11.161469	-6.930200	-1.828089	-2.762113	-1.078778	-0.345194	-0.240329	-0.276970	0.930338	0.228590	-0.947623	-0.223065	0.943392	0.159057	0.291054
17842	11.508337	-8.946699	-0.924224	-2.108132	-0.884176	-0.265422	-0.232478	-0.273144	0.933459	0.208126	-0.951494	-0.226588	0.950072	0.141600	0.278050
17843	10.510662	-9.151149	0.211832	-1.143994	-0.845738	-0.088883	-0.224547	-0.271177	0.935971	0.197072	-0.953289	-0.228915	0.954328	0.133051	0.267500
17844	9.375654	-7.366001	0.663144	-0.158495	-0.834549	0.077205	-0.216368	-0.270830	0.937996	0.195820	-0.953269	-0.230070	0.956472	0.133899	0.259291
17845	8.563744	-4.651112	0.386930	0.542017	-0.825025	0.200196	-0.208018	-0.271642	0.939648	0.201473	-0.951962	-0.230600	0.957150	0.141345	0.252754
17846	8.765219	-1.586939	0.287370	0.868755	-0.766877	0.248527	-0.200114	-0.272915	0.940995	0.210368	-0.949991	-0.230786	0.956922	0.151772	0.247520
17847	9.264222	0.665963	0.906587	0.845430	-0.741450	0.212250	-0.192507	-0.273806	0.942322	0.218915	-0.948066	-0.230753	0.956565	0.161867	0.242449
17848	9.640679	1.729216	1.169399	0.515467	-0.745426	0.104535	-0.185086	-0.273592	0.943870	0.224126	-0.946904	-0.230522	0.956823	0.168879	0.236578
17849	9.923401	1.147076	0.941597	-0.040479	-0.739498	-0.056201	-0.178072	-0.271844	0.945723	0.223677	-0.947107	-0.230125	0.958258	0.170557	0.229458
17850	10.301402	-0.474021	0.660513	-0.549932	-0.726251	-0.191589	-0.171464	-0.268823	0.947805	0.218167	-0.948528	-0.229560	0.960731	0.167418	0.221286
17851	10.252755	-2.320817	0.294439	-0.850588	-0.740753	-0.246426	-0.164804	-0.265304	0.949975	0.209607	-0.950566	-0.229106	0.963797	0.161364	0.212267
17852	10.120783	-3.950717	-0.250636	-0.940634	-0.777227	-0.242017	-0.157731	-0.261793	0.952148	0.200244	-0.952665	-0.228763	0.966966	0.154578	0.202688
17853	9.874605	-5.031169	-0.714842	-0.769278	-0.764163	-0.196917	-0.150661	-0.258795	0.954110	0.192530	-0.954328	-0.228452	0.969656	0.149276	0.193605
17854	9.645792	-5.529656	-0.704333	-0.498569	-0.798893	-0.127577	-0.143083	-0.256417	0.955917	0.187602	-0.955372	-0.228190	0.971768	0.146682	0.184801
17855	9.553372	-5.284082	-0.659273	-0.221591	-0.856103	-0.056225	-0.134804	-0.254663	0.957588	0.185407	-0.955823	-0.228093	0.973372	0.146796	0.176065
17856	9.280044	-4.185450	-0.673710	-0.059956	-0.819496	0.001505	-0.126755	-0.253494	0.958996	0.184908	-0.955887	-0.228231	0.974547	0.148397	0.168037
17857	10.064462	-2.752166	-0.112333	0.020395	-0.872939	0.006122	-0.118175	-0.252286	0.960409	0.185153	-0.955823	-0.228299	0.975578	0.150843	0.159666
17858	9.491267	-1.292191	0.408839	-0.066499	-0.855710	-0.012164	-0.109779	-0.250898	0.961768	0.184567	-0.955934	-0.228309	0.976670	0.152448	0.151250
17859	9.160684	-0.487695	0.546286	-0.223533	-0.905039	-0.058689	-0.100984	-0.248997	0.963225	0.182358	-0.956404	-0.228115	0.978033	0.152616	0.141988
17860	9.827144	-0.369195	1.016165	-0.463587	-0.950965	-0.146192	-0.091871	-0.246179	0.964861	0.177763	-0.957448	-0.227361	0.979776	0.150629	0.131723
17861	9.868239	-0.646777	1.102790	-0.743890	-0.910495	-0.218511	-0.083263	-0.242776	0.966503	0.170312	-0.959068	-0.226236	0.981866	0.145770	0.121203
17862	9.561259	-1.284998	0.968171	-0.934287	-0.864838	-0.279371	-0.075156	-0.238881	0.968136	0.160999	-0.961051	-0.224634	0.984089	0.138986	0.110689
17863	9.351438	-2.070204	0.890146	-0.993784	-0.810566	-0.314315	-0.067605	-0.234802	0.969689	0.151020	-0.963123	-0.222683	0.986216	0.131388	0.100571
17864	9.257578	-2.806029	0.753306	-0.975110	-0.767686	-0.334402	-0.060447	-0.230616	0.971165	0.141274	-0.965127	-0.220389	0.988123	0.123878	0.090919
17865	9.261501	-3.142687	0.479144	-0.880469	-0.726847	-0.339602	-0.053668	-0.226502	0.972531	0.132408	-0.966949	-0.217895	0.989741	0.117077	0.081885
17866	9.252996	-3.234584	0.158054	-0.739655	-0.680774	-0.335963	-0.047292	-0.222492	0.973787	0.125002	-0.968532	-0.215221	0.991029	0.111547	0.073616
17867	9.533374	-2.931707	-0.035751	-0.575108	-0.677302	-0.336540	-0.040932	-0.218531	0.974971	0.119186	-0.969890	-0.212389	0.992028	0.107509	0.065745
17868	9.630402	-2.558041	-0.000920	-0.451951	-0.672496	-0.337933	-0.034589	-0.214560	0.976098	0.114656	-0.971086	-0.209395	0.992803	0.104673	0.058189
17869	9.391772	-2.325450	0.350555	-0.381947	-0.697879	-0.328634	-0.027973	-0.210687	0.977153	0.110795	-0.972166	-0.206440	0.993450	0.102488	0.050538
17870	9.177709	-2.451975	0.393748	-0.375196	-0.733135	-0.332432	-0.020986	-0.206732	0.978173	0.107065	-0.973226	-0.203390	0.994030	0.100460	0.042558
17871	9.074279	-2.666016	0.523371	-0.437553	-0.764169	-0.336519	-0.013686	-0.202741	0.979137	0.102690	-0.974336	-0.200311	0.994619	0.097806	0.034154
17872	9.044621	-2.944025	0.562863	-0.521330	-0.762487	-0.333826	-0.006372	-0.198778	0.980024	0.097546	-0.975493	-0.197224	0.995211	0.094340	0.025606
17873	9.145626	-3.055633	0.295688	-0.548341	-0.766647	-0.336278	0.000995	-0.194831	0.980836	0.092111	-0.976649	-0.194092	0.995748	0.090539	0.016974
17874	9.382617	-2.987198	0.256748	-0.514815	-0.764534	-0.342744	0.008362	-0.190829	0.981588	0.087069	-0.977755	-0.190826	0.996167	0.087061	0.008439
17875	9.956548	-2.757535	0.248452	-0.445799	-0.766731	-0.366318	0.015744	-0.186633	0.982304	0.082703	-0.978816	-0.187296	0.996450	0.084189	0.000024
17876	10.060725	-2.547310	0.236668	-0.384295	-0.766726	-0.402336	0.023118	-0.182085	0.983011	0.079015	-0.979865	-0.183361	0.996605	0.081911	-0.008265
17877	9.652393	-2.300203	0.118274	-0.389545	-0.800368	-0.436020	0.030812	-0.177209	0.983691	0.075282	-0.980951	-0.179073	0.996686	0.079571	-0.016884
17878	9.449927	-2.181468	0.023775	-0.456345	-0.798218	-0.471165	0.038480	-0.171992	0.984346	0.070955	-0.982119	-0.174377	0.996737	0.076555	-0.025588
17879	9.444736	-2.323502	0.064320	-0.480771	-0.746985	-0.486831	0.045644	-0.166694	0.984952	0.066399	-0.983293	-0.169490	0.996749	0.073136	-0.033814
17880	9.539891	-2.494796	0.175083	-0.514679	-0.698168	-0.493340	0.052343	-0.161375	0.985504	0.061565	-0.984458	-0.164474	0.996730	0.069282	-0.041594
17881	9.787499	-2.669817	0.335572	-0.566462	-0.634638	-0.489602	0.058433	-0.156173	0.986000	0.056221	-0.985605	-0.159442	0.996707	0.064750	-0.048811
17882	9.713977	-2.839963	0.323453	-0.594297	-0.586741	-0.481962	0.064076	-0.151090	0.986441	0.050641	-0.986707	-0.154421	0.996659	0.059849	-0.055573
17883	9.834043	-3.042914	0.274751	-0.601741	-0.533317	-0.465884	0.069221	-0.146232	0.986826	0.044984	-0.987735	-0.149522	0.996587	0.054742	-0.061793
17884	9.836080	-3.024553	0.454940	-0.627967	-0.476505	-0.467300	0.073823	-0.141406	0.987195	0.039101	-0.988725	-0.144550	0.996504	0.049272	-0.067462
17885	9.976510	-2.823064	0.669060	-0.644394	-0.432819	-0.486215	0.078012	-0.136443	0.987572	0.033078	-0.989691	-0.139349	0.996404	0.043538	-0.072694
17886	10.267946	-2.737323	1.048781	-0.638625	-0.401220	-0.521374	0.081900	-0.131163	0.987972	0.027165	-0.990640	-0.133769	0.996270	0.037794	-0.077571
17887	10.706815	-2.611160	1.361233	-0.644220	-0.329538	-0.562015	0.085098	-0.125525	0.988434	0.021245	-0.991578	-0.127754	0.996146	0.031871	-0.081714
17888	10.768503	-2.230618	1.709720	-0.632516	-0.243373	-0.599016	0.087456	-0.119563	0.988967	0.015486	-0.992488	-0.121358	0.996048	0.025929	-0.084948
17889	10.897494	-1.640987	1.908103	-0.612352	-0.159478	-0.650399	0.089012	-0.113116	0.989587	0.009989	-0.993379	-0.114448	0.995980	0.020073	-0.087293
17890	10.627498	-1.228184	2.550032	-0.616436	-0.055151	-0.689533	0.089552	-0.106308	0.990292	0.004487	-0.994234	-0.107137	0.995972	0.014038	-0.088559
17891	10.331828	-1.302639	3.449933	-0.681098	0.036463	-0.709946	0.089228	-0.099299	0.991049	-0.001634	-0.995031	-0.099551	0.996010	0.007264	-0.088947
17892	10.401334	-1.572443	4.086714	-0.752866	0.184384	-0.680962	0.087463	-0.092582	0.991856	-0.008511	-0.995705	-0.092191	0.996131	-0.000378	-0.087875
17893	10.132309	-1.561126	4.477527	-0.748843	0.370289	-0.654880	0.083901	-0.086093	0.992748	-0.015381	-0.996254	-0.085098	0.996355	-0.008130	-0.084911
17894	10.294050	-1.184961	4.475148	-0.894064	0.467079	-0.625786	0.079399	-0.079856	0.993639	-0.023761	-0.996655	-0.078200	0.996560	-0.017401	-0.081031
17895	9.891555	-0.788046	3.795382	-0.999941	0.553289	-0.602868	0.074105	-0.073772	0.994518	-0.033236	-0.996889	-0.071472	0.996696	-0.027757	-0.076326
17896	9.999550	-0.637130	2.566783	-0.995703	0.579049	-0.616593	0.068592	-0.067494	0.995359	-0.042702	-0.996993	-0.064662	0.996730	-0.038069	-0.071268
17897	10.710824	-1.503626	2.120300	-1.023464	0.677458	-0.650582	0.062197	-0.060766	0.996212	-0.052448	-0.996965	-0.057537	0.996685	-0.048671	-0.065195
17898	11.847303	-2.981829	2.395962	-1.196848	0.862087	-0.659817	0.054010	-0.053776	0.997091	-0.063976	-0.996684	-0.050289	0.996489	-0.061074	-0.057271
17899	12.907493	-4.098002	1.829882	-1.146724	1.146498	-0.602202	0.043051	-0.047060	0.997964	-0.075079	-0.996218	-0.043738	0.996248	-0.073043	-0.046421
17900	12.744438	-4.264651	2.021315	-0.576535	1.367496	-0.513061	0.029843	-0.040976	0.998714	-0.080632	-0.996002	-0.038455	0.996297	-0.079381	-0.033027
17901	12.551220	-3.256196	2.907350	0.105842	1.476414	-0.420470	0.015512	-0.035673	0.999243	-0.079451	-0.996247	-0.034332	0.996718	-0.078858	-0.018288
17902	12.282718	-1.691272	2.967350	0.655136	1.531410	-0.353643	0.000526	-0.031063	0.999517	-0.072901	-0.996859	-0.030942	0.997339	-0.072850	-0.002788
17903	11.451550	-0.616204	2.595783	0.928614	1.446451	-0.289865	-0.013661	-0.027236	0.999536	-0.063623	-0.997580	-0.028052	0.997881	-0.063976	0.011895
17904	11.587246	0.144867	1.244729	0.961151	1.538051	-0.245588	-0.028855	-0.023947	0.999297	-0.054095	-0.998211	-0.025483	0.998119	-0.054792	0.027508
17905	10.700379	0.591707	0.754664	0.889404	1.758397	-0.226983	-0.046244	-0.020845	0.998713	-0.045269	-0.998711	-0.022941	0.997904	-0.046271	0.045241
17906	10.321803	0.662030	0.834321	0.579236	1.834989	-0.231596	-0.064439	-0.017803	0.997763	-0.039625	-0.999007	-0.020385	0.997135	-0.040850	0.063669
17907	10.362333	0.155285	0.463048	0.080288	1.899073	-0.212718	-0.083231	-0.014959	0.996418	-0.038946	-0.999075	-0.018252	0.995769	-0.040326	0.082572
17908	10.677836	-0.767782	0.454264	-0.368372	1.895481	-0.155113	-0.102013	-0.012676	0.994702	-0.042756	-0.998939	-0.017115	0.993864	-0.044275	0.101362
17909	11.083926	-1.676001	0.546454	-0.616317	1.880153	-0.071238	-0.120597	-0.011125	0.992639	-0.048915	-0.998656	-0.017135	0.991496	-0.050621	0.119891
17910	11.394665	-2.430471	-0.103972	-0.545279	1.842285	0.052865	-0.138854	-0.010737	0.990255	-0.054250	-0.998357	-0.018432	0.988826	-0.056281	0.138043
17911	11.492346	-3.017332	-0.736273	-0.223461	1.755443	0.189396	-0.156247	-0.011671	0.987649	-0.056138	-0.998209	-0.020677	0.986121	-0.058675	0.155312
17912	11.178546	-3.214365	-1.582777	0.068061	1.690928	0.332607	-0.173070	-0.014075	0.984809	-0.054936	-0.998203	-0.023920	0.983376	-0.058241	0.171985
17913	10.408992	-2.997844	-2.042545	0.263050	1.552792	0.515676	-0.188547	-0.018389	0.981892	-0.051379	-0.998271	-0.028562	0.980719	-0.055834	0.187276
17914	10.071774	-2.238996	-1.616709	0.612007	1.328432	0.657936	-0.201857	-0.024328	0.979113	-0.044130	-0.998450	-0.033906	0.978420	-0.050052	0.200471
17915	9.847638	-1.244870	-1.118962	0.972118	1.216346	0.679889	-0.213961	-0.030618	0.976362	-0.033173	-0.998704	-0.038588	0.976279	-0.040645	0.212669
17916	9.797558	-0.320442	-0.106380	1.192134	1.129750	0.610810	-0.225122	-0.036397	0.973651	-0.020242	-0.998912	-0.042021	0.974120	-0.029168	0.224140
17917	9.397434	0.198728	0.298834	1.218345	1.079127	0.503739	-0.235643	-0.041229	0.970965	-0.007183	-0.998999	-0.044162	0.971813	-0.017381	0.235111
17918	8.657101	0.581669	-0.788429	1.201004	0.934802	0.407770	-0.244698	-0.045262	0.968542	0.005421	-0.998958	-0.045314	0.969584	-0.005838	0.244688
17919	8.693144	1.523161	-1.316683	1.042531	0.757240	0.321525	-0.251949	-0.048518	0.966524	0.016362	-0.998813	-0.045874	0.967602	0.004256	0.252443
17920	9.056467	2.263728	-0.895667	0.673901	0.640947	0.243043	-0.258069	-0.051058	0.964776	0.023472	-0.998639	-0.046571	0.965841	0.010627	0.258917
17921	9.457344	2.423948	-0.462101	0.330310	0.634347	0.183816	-0.264095	-0.053019	0.963038	0.027184	-0.998500	-0.047517	0.964114	0.013630	0.265140
17922	9.306351	2.193839	-0.364886	0.021367	0.646124	0.153235	-0.270246	-0.054697	0.961236	0.027791	-0.998412	-0.048999	0.962390	0.013471	0.271337
17923	8.830449	1.563022	-0.419581	-0.217502	0.637453	0.140859	-0.276288	-0.056231	0.959428	0.026129	-0.998357	-0.050988	0.960720	0.010982	0.277304
17924	8.226332	0.653381	-0.539592	-0.343324	0.599747	0.142681	-0.281977	-0.057767	0.957681	0.023236	-0.998304	-0.053376	0.959140	0.007202	0.282841
17925	7.682225	-0.182951	-0.550653	-0.335754	0.543381	0.156345	-0.287102	-0.059406	0.956056	0.020509	-0.998228	-0.055868	0.957681	0.003567	0.287811
17926	7.424759	-1.027450	-0.679762	-0.198726	0.458532	0.200753	-0.291414	-0.061478	0.954619	0.019196	-0.998108	-0.058418	0.956404	0.001301	0.292043
17927	7.349027	-1.554646	-0.697620	0.059758	0.362787	0.242245	-0.294785	-0.063951	0.953421	0.020523	-0.997952	-0.060592	0.955343	0.001706	0.295494
17928	7.459919	-1.735447	-0.693283	0.342315	0.250457	0.293192	-0.297072	-0.066941	0.952506	0.024665	-0.997745	-0.062428	0.954536	0.004948	0.298053
17929	7.676687	-1.851627	-0.710292	0.631935	0.165530	0.350367	-0.298504	-0.070499	0.951801	0.031784	-0.997449	-0.063912	0.953879	0.011174	0.299983
17930	8.044582	-1.695685	-0.660533	0.888125	0.086098	0.416095	-0.299131	-0.074719	0.951282	0.041496	-0.997005	-0.065262	0.953309	0.019952	0.301336
17931	8.528666	-1.492028	-0.504580	1.056107	0.010562	0.490576	-0.298950	-0.079659	0.950938	0.053074	-0.996355	-0.066779	0.952792	0.030507	0.302088
17932	8.987721	-1.274077	-0.358938	1.174235	-0.073441	0.562371	-0.297871	-0.085289	0.950788	0.065932	-0.995460	-0.068641	0.952327	0.042241	0.302142
17933	9.459851	-1.040663	-0.027689	1.216985	-0.151345	0.623350	-0.295926	-0.091465	0.950822	0.079416	-0.994315	-0.070932	0.951904	0.054519	0.301508
17934	9.743021	-0.685505	0.714685	1.131977	-0.222756	0.671458	-0.293182	-0.098058	0.951015	0.092160	-0.992993	-0.073975	0.951605	0.065957	0.300164
17935	9.867198	-0.361873	1.639413	0.933223	-0.296992	0.710968	-0.289609	-0.104949	0.951374	0.103157	-0.991603	-0.077984	0.951570	0.075556	0.298004
17936	9.881458	-0.060445	2.528051	0.663387	-0.373524	0.748952	-0.285199	-0.112129	0.951887	0.111618	-0.990262	-0.083207	0.951947	0.082517	0.294937
17937	9.535602	0.374670	3.373290	0.377210	-0.425291	0.780328	-0.280202	-0.119537	0.952469	0.117461	-0.989030	-0.089570	0.952727	0.086781	0.291169
17938	9.451553	0.418920	3.904926	0.108302	-0.464649	0.810250	-0.274756	-0.127192	0.953064	0.120742	-0.987930	-0.097037	0.953903	0.088413	0.286797
17939	9.358515	0.186423	3.972068	-0.024436	-0.433380	0.829400	-0.269556	-0.135042	0.953469	0.122810	-0.986855	-0.105051	0.955122	0.088779	0.282597
17940	9.226047	-0.190818	3.894512	-0.012966	-0.362108	0.850345	-0.264992	-0.143159	0.953564	0.124964	-0.985676	-0.113253	0.956119	0.089151	0.279086
17941	9.090090	-0.702233	3.873910	0.077962	-0.259468	0.882120	-0.261340	-0.151660	0.953258	0.128076	-0.984296	-0.121485	0.956712	0.090340	0.276660
17942	9.134969	-0.952230	3.854610	0.170723	-0.151877	0.894387	-0.258674	-0.160369	0.952559	0.132043	-0.982736	-0.129592	0.956897	0.092257	0.275384
17943	9.206926	-1.049052	4.183513	0.316928	0.014899	0.897882	-0.257553	-0.169243	0.951327	0.137436	-0.980948	-0.137305	0.956440	0.095384	0.275906
17944	9.176927	-1.059593	4.859129	0.538129	0.203606	0.872821	-0.258219	-0.178047	0.949538	0.144840	-0.978896	-0.144164	0.955167	0.100305	0.278558
17945	9.288059	-1.102205	5.799386	0.775836	0.377780	0.843763	-0.260506	-0.186732	0.947242	0.154475	-0.976540	-0.150025	0.953034	0.107243	0.283240
17946	9.435819	-1.212607	6.729984	0.958099	0.529854	0.822412	-0.264185	-0.195393	0.944472	0.165760	-0.973891	-0.155113	0.950121	0.115577	0.289676
17947	9.594537	-1.567095	7.270608	1.054715	0.633649	0.818462	-0.268732	-0.204156	0.941331	0.177988	-0.970975	-0.159773	0.946627	0.124609	0.297270
17948	9.915728	-2.096130	7.622155	1.139788	0.688207	0.812568	-0.273693	-0.212972	0.937942	0.190970	-0.967795	-0.164026	0.942668	0.134226	0.305549
17949	10.660823	-2.781640	7.866909	1.217988	0.800696	0.821505	-0.279540	-0.222065	0.934101	0.204740	-0.964296	-0.167973	0.938051	0.144293	0.315025
17950	10.674864	-3.174713	7.579368	1.371515	0.918440	0.837042	-0.286316	-0.231545	0.929737	0.219943	-0.960331	-0.171432	0.932549	0.155405	0.325885
17951	10.097004	-3.476341	7.375620	1.565849	0.955540	0.880284	-0.293128	-0.241564	0.925053	0.237091	-0.955698	-0.174438	0.926209	0.168189	0.337414
17952	9.289095	-2.963296	6.736282	1.593469	1.012797	0.903661	-0.300221	-0.251993	0.919982	0.254475	-0.950677	-0.177357	0.919299	0.180866	0.349539
17953	8.594930	-2.177518	6.107279	1.481793	1.071100	0.899568	-0.307608	-0.262559	0.914571	0.270823	-0.945580	-0.180372	0.912158	0.192204	0.361975
17954	8.097966	-1.189115	5.605449	1.278973	1.067040	0.814818	-0.315012	-0.272390	0.909159	0.284977	-0.940874	-0.183151	0.905293	0.201395	0.374012
17955	7.957012	-0.496485	5.291419	1.193762	1.051216	0.647024	-0.322548	-0.280662	0.903986	0.297851	-0.936610	-0.184515	0.898469	0.209738	0.385698
17956	8.142860	0.221045	5.303537	1.148586	1.026369	0.469259	-0.330283	-0.287285	0.899100	0.309661	-0.932814	-0.184303	0.891641	0.217544	0.397054
17957	8.222976	0.571787	5.161239	1.081293	1.043919	0.329912	-0.338456	-0.292700	0.894301	0.320414	-0.929445	-0.182939	0.884750	0.224629	0.408362
17958	8.127863	0.680108	4.818998	1.031110	1.019149	0.258219	-0.346571	-0.297460	0.889610	0.330393	-0.926322	-0.181022	0.877912	0.231184	0.419315
17959	8.678540	0.103433	4.168389	0.993834	0.961849	0.279239	-0.353987	-0.302331	0.885036	0.340108	-0.923133	-0.179312	0.871217	0.237534	0.429602
17960	7.980956	-0.361867	3.641542	0.952452	1.030108	0.296352	-0.361876	-0.307576	0.880025	0.349450	-0.919926	-0.177824	0.864252	0.243175	0.440381
17961	7.873446	-1.390177	2.700067	0.969749	1.047326	0.299417	-0.369768	-0.312936	0.874839	0.358937	-0.916587	-0.176157	0.856992	0.248875	0.451249
17962	7.619851	-1.918663	2.305136	0.954348	0.855759	0.284694	-0.376008	-0.317732	0.870439	0.368167	-0.913270	-0.174328	0.850336	0.254918	0.460376
17963	7.421628	-2.255286	1.531169	0.962552	0.597855	0.249832	-0.380082	-0.321587	0.867248	0.377315	-0.909960	-0.172063	0.844495	0.261827	0.467200
17964	7.092721	-1.979705	1.137109	0.967970	0.389902	0.243463	-0.382402	-0.324869	0.865002	0.386413	-0.906587	-0.169661	0.839317	0.269370	0.472215
17965	7.019336	-1.464440	1.031468	0.906228	0.236780	0.233464	-0.383411	-0.327660	0.863501	0.394939	-0.903325	-0.167411	0.834876	0.276843	0.475751
17966	6.687940	-0.844417	1.313764	0.877947	0.133251	0.200056	-0.383687	-0.329872	0.862536	0.403042	-0.900188	-0.164984	0.830868	0.284336	0.478342
17967	6.312519	-0.109715	1.735310	0.845655	-0.031980	0.157934	-0.382717	-0.331230	0.862447	0.410705	-0.897203	-0.162324	0.827556	0.292087	0.479413
17968	6.479999	0.542215	1.788671	0.694353	-0.202665	0.118482	-0.380512	-0.331724	0.863232	0.416924	-0.894739	-0.160052	0.825460	0.299001	0.478763
17969	6.806197	1.075948	1.721765	0.523226	-0.332027	0.072033	-0.377409	-0.331396	0.864719	0.421559	-0.892894	-0.158203	0.824530	0.304823	0.476689
17970	7.189666	1.371475	2.022379	0.302378	-0.474538	0.039539	-0.373283	-0.330323	0.866918	0.424240	-0.891812	-0.157136	0.825034	0.309125	0.473034
17971	7.634496	1.651971	2.149533	-0.022232	-0.588060	0.019238	-0.368280	-0.328700	0.869670	0.424173	-0.891791	-0.157436	0.827313	0.310909	0.467855
17972	8.116321	1.819876	2.132074	-0.358480	-0.673048	-0.017977	-0.362724	-0.326480	0.872836	0.421186	-0.892934	-0.158966	0.831284	0.309966	0.461398
17973	8.475431	1.753762	2.150600	-0.612452	-0.728597	-0.057472	-0.356827	-0.323749	0.876277	0.415917	-0.894984	-0.161296	0.836473	0.306904	0.454007
17974	8.593564	1.452183	2.500124	-0.779634	-0.765961	-0.101432	-0.350759	-0.320535	0.879901	0.409082	-0.897652	-0.163927	0.842390	0.302453	0.445984
17975	8.646982	0.632963	3.737338	-0.868784	-0.837595	-0.130695	-0.344143	-0.316878	0.883829	0.401326	-0.900649	-0.166641	0.848824	0.297355	0.437124
17976	9.127355	-0.289126	5.523549	-0.848379	-0.896391	-0.129200	-0.336959	-0.313096	0.887936	0.393738	-0.903521	-0.169174	0.855236	0.292609	0.427727
17977	9.001889	-1.546356	6.794426	-0.728166	-0.905830	-0.058473	-0.329352	-0.309964	0.891880	0.387338	-0.905796	-0.171765	0.861102	0.288888	0.418386
17978	8.597638	-2.329706	6.498831	-0.673690	-0.988951	0.010942	-0.320707	-0.307249	0.895961	0.381635	-0.907662	-0.174657	0.866892	0.285916	0.408350
17979	8.656182	-2.638641	4.560907	-0.742376	-1.166259	0.020655	-0.310418	-0.304152	0.900629	0.375284	-0.909685	-0.177862	0.873386	0.282780	0.396526
17980	9.989672	-2.549252	3.504569	-0.852523	-1.289658	-0.020587	-0.299130	-0.300370	0.905704	0.367821	-0.912109	-0.181013	0.880471	0.278991	0.383321
17981	11.429356	-2.788174	4.630041	-0.753394	-1.236537	-0.011608	-0.288183	-0.296866	0.910396	0.361172	-0.914209	-0.183781	0.886851	0.275847	0.370680
17982	12.136194	-2.432829	6.360971	-0.314652	-0.944079	0.076804	-0.279461	-0.294992	0.913718	0.358668	-0.914818	-0.185649	0.890651	0.275839	0.361460
17983	11.010630	-0.986419	7.569526	0.044778	-0.620839	0.125285	-0.273415	-0.294450	0.915720	0.359455	-0.914301	-0.186668	0.892208	0.278123	0.355826
17984	10.533453	0.688762	8.560168	0.116262	-0.524854	0.025106	-0.268587	-0.293241	0.917535	0.360635	-0.913871	-0.186503	0.893199	0.280803	0.351207
17985	12.695461	1.136204	10.056032	0.039022	-0.444341	-0.100350	-0.264915	-0.291104	0.919281	0.360758	-0.914030	-0.185479	0.894245	0.282501	0.347159
17986	13.620513	-0.212378	10.670019	-0.053752	-0.259309	-0.037491	-0.262681	-0.290055	0.920254	0.360260	-0.914257	-0.185331	0.895104	0.282847	0.344653
17987	11.125273	-1.216677	6.335095	-0.461575	-0.422110	0.115994	-0.258419	-0.289960	0.921489	0.356466	-0.915196	-0.188014	0.897859	0.279893	0.339865
17988	8.471001	-0.075366	-0.050716	-1.104802	-0.731942	0.026012	-0.251690	-0.288205	0.923899	0.346666	-0.918135	-0.191968	0.903590	0.271968	0.330996
17989	7.730895	1.335396	-2.478706	-1.534158	-0.789649	-0.204325	-0.245158	-0.284256	0.926874	0.332282	-0.922779	-0.195112	0.910761	0.260150	0.320680
17990	7.821036	1.973809	-3.033016	-1.475635	-0.716647	-0.273312	-0.239445	-0.279928	0.929681	0.318231	-0.927268	-0.197240	0.917276	0.248625	0.311111
17991	8.442360	2.278753	-2.888883	-1.444547	-0.667473	-0.172036	-0.233777	-0.276743	0.932074	0.304570	-0.931233	-0.200103	0.923356	0.237103	0.301988
17992	9.421025	1.194781	-2.296013	-1.598746	-0.807617	-0.040176	-0.226351	-0.274522	0.934560	0.289784	-0.934997	-0.204465	0.929941	0.224539	0.291190
17993	9.943328	-1.913168	-2.203225	-1.711071	-0.990147	-0.086337	-0.217292	-0.271592	0.937562	0.273661	-0.938941	-0.208567	0.936960	0.211254	0.278348
17994	10.540274	-5.236769	-2.501497	-1.749900	-1.181196	-0.220241	-0.206699	-0.267116	0.941236	0.256867	-0.943081	-0.211231	0.944084	0.198111	0.263547
17995	11.282512	-7.019677	-2.968950	-1.515475	-1.264204	-0.226347	-0.195229	-0.262580	0.944954	0.242097	-0.946580	-0.213014	0.950408	0.187184	0.248370
17996	11.001372	-6.346203	-1.964498	-0.770535	-1.208872	-0.095265	-0.183873	-0.259455	0.948090	0.234696	-0.948226	-0.213975	0.954520	0.183168	0.235246
17997	9.920563	-4.528505	-0.503232	0.046183	-1.162381	0.056353	-0.172575	-0.257878	0.950640	0.235277	-0.947976	-0.214444	0.956484	0.186656	0.224270
17998	9.102772	-2.816075	0.075624	0.549913	-1.171574	0.130844	-0.160983	-0.256899	0.952936	0.240862	-0.946562	-0.214491	0.957115	0.194997	0.214258
17999	9.277913	-0.970899	0.782864	0.672519	-1.157618	0.126274	-0.149534	-0.255819	0.955090	0.247535	-0.944876	-0.214328	0.957270	0.204368	0.204616
18000	9.516822	0.299549	1.365027	0.517871	-1.134792	0.069629	-0.138422	-0.254127	0.957214	0.252698	-0.943590	-0.213967	0.957592	0.212269	0.194831
18001	9.542874	0.955358	1.773393	0.183388	-1.123030	-0.011669	-0.127632	-0.251643	0.959367	0.254477	-0.943206	-0.213549	0.958619	0.216882	0.184421
18002	9.367753	0.505608	1.709941	-0.252114	-1.099945	-0.077335	-0.117197	-0.248533	0.961507	0.252079	-0.943915	-0.213260	0.960584	0.217383	0.173274
18003	9.441037	-0.834560	1.409566	-0.554189	-1.072269	-0.121757	-0.107127	-0.245102	0.963561	0.246649	-0.945394	-0.213059	0.963166	0.214837	0.161731
18004	9.648133	-2.504883	1.058573	-0.697071	-1.034401	-0.136142	-0.097405	-0.241614	0.965471	0.239910	-0.947178	-0.212832	0.965896	0.210895	0.150225
18005	9.232442	-3.796305	1.000077	-0.651563	-0.946589	-0.125171	-0.088487	-0.238487	0.967106	0.233528	-0.948821	-0.212611	0.968315	0.207033	0.139651
18006	9.244591	-4.361051	1.073147	-0.524411	-0.883800	-0.115736	-0.080113	-0.235574	0.968549	0.228465	-0.950145	-0.212200	0.970250	0.204279	0.129939
18007	9.260809	-4.286131	0.835146	-0.400008	-0.796173	-0.109995	-0.072572	-0.232946	0.969778	0.224532	-0.951197	-0.211681	0.971761	0.202384	0.121334
18008	9.097480	-4.257614	0.578857	-0.269904	-0.732606	-0.141235	-0.065691	-0.230129	0.970940	0.221917	-0.952043	-0.210636	0.972850	0.201631	0.113610
18009	9.275132	-4.987938	0.382620	-0.054585	-0.685920	-0.202435	-0.059406	-0.226852	0.972116	0.221294	-0.952598	-0.208774	0.973396	0.202721	0.106791
18010	9.350394	-3.126626	0.743133	0.333286	-0.739847	-0.174927	-0.052525	-0.223679	0.973247	0.224533	-0.952283	-0.206743	0.973050	0.207667	0.100242
18011	9.788734	-0.268818	-0.296423	0.014553	-0.759582	-0.125034	-0.045354	-0.220941	0.974232	0.224648	-0.952512	-0.205557	0.973384	0.209536	0.092834
18012	9.765118	1.474814	-0.491284	-0.284644	-0.642988	-0.114472	-0.039276	-0.218516	0.975043	0.221922	-0.953333	-0.204711	0.974273	0.208343	0.085937
18013	8.966470	0.647759	0.567744	-0.679835	-0.697297	-0.194191	-0.032842	-0.215264	0.976003	0.215256	-0.955136	-0.203419	0.976005	0.203410	0.077706
18014	9.172046	-1.403612	0.402754	-1.045526	-0.821674	-0.280650	-0.025329	-0.210944	0.977170	0.205065	-0.957793	-0.201446	0.978420	0.195281	0.067517
18015	9.405309	-2.986209	-0.362059	-1.033357	-0.858210	-0.308480	-0.017481	-0.206383	0.978315	0.194910	-0.960396	-0.199120	0.980665	0.187203	0.057014
18016	9.674184	-3.657212	-0.885769	-0.813453	-0.830978	-0.299336	-0.009824	-0.201977	0.979341	0.186991	-0.962483	-0.196624	0.982312	0.181197	0.047223
18017	9.821566	-3.739558	-0.700120	-0.546580	-0.776076	-0.265878	-0.002628	-0.198063	0.980186	0.181635	-0.963979	-0.194301	0.983362	0.177526	0.038509
18018	9.816441	-3.428846	-0.416853	-0.313290	-0.697279	-0.238474	0.003873	-0.194536	0.980888	0.178653	-0.964980	-0.192086	0.983905	0.175982	0.031017
18019	9.723287	-2.803274	-0.041722	-0.182980	-0.634029	-0.232626	0.009756	-0.191215	0.981500	0.176900	-0.965735	-0.189902	0.984180	0.175480	0.024404
18020	9.340344	-2.152993	0.358726	-0.150079	-0.622204	-0.246101	0.015517	-0.187754	0.982093	0.175545	-0.966444	-0.187536	0.984349	0.175312	0.017963
18021	9.313137	-1.996606	0.268717	-0.197325	-0.647385	-0.262885	0.021489	-0.184119	0.982669	0.173683	-0.967263	-0.185031	0.984567	0.174649	0.011193
18022	9.404030	-2.120382	0.156279	-0.243243	-0.615553	-0.283512	0.027131	-0.180312	0.983235	0.171446	-0.968184	-0.182282	0.984820	0.173517	0.004646
18023	9.359207	-2.377268	0.039112	-0.237036	-0.613878	-0.304642	0.032715	-0.176339	0.983786	0.169233	-0.969122	-0.179338	0.985033	0.172356	-0.001863
18024	9.299825	-2.533228	0.063180	-0.184991	-0.645651	-0.319360	0.038607	-0.172141	0.984316	0.167611	-0.969978	-0.176207	0.985097	0.171785	-0.008595
18025	9.436481	-2.434285	-0.161300	-0.146313	-0.667448	-0.334929	0.044679	-0.167785	0.984811	0.166339	-0.970784	-0.172942	0.985056	0.171539	-0.015465
18026	9.324712	-2.344245	-0.342296	-0.168242	-0.671409	-0.347459	0.050785	-0.163271	0.985273	0.164929	-0.971630	-0.169511	0.984997	0.171109	-0.022416
18027	9.360923	-2.250706	-0.349178	-0.197438	-0.700586	-0.350020	0.057168	-0.158712	0.985668	0.163203	-0.972517	-0.166060	0.984935	0.170357	-0.029695
18028	9.788336	-2.163817	-0.363441	-0.240799	-0.700853	-0.360356	0.063554	-0.154028	0.986020	0.161126	-0.973472	-0.162453	0.984885	0.169198	-0.037050
18029	9.978035	-1.929919	-0.500463	-0.303336	-0.680243	-0.372906	0.069714	-0.149292	0.986333	0.158416	-0.974535	-0.158703	0.984908	0.167315	-0.044289
18030	9.750871	-1.777232	-0.422083	-0.365558	-0.687119	-0.387915	0.075940	-0.144381	0.986604	0.155172	-0.975695	-0.154728	0.984964	0.164844	-0.051690
18031	9.517475	-1.759401	-0.294705	-0.382802	-0.718498	-0.405957	0.082450	-0.139283	0.986814	0.151752	-0.976884	-0.150561	0.984974	0.162165	-0.059408
18032	9.254492	-2.008292	-0.445422	-0.434294	-0.725231	-0.413054	0.089039	-0.134095	0.986960	0.147901	-0.978131	-0.146238	0.984986	0.158993	-0.067259
18033	9.464832	-2.394398	-0.347042	-0.410145	-0.717564	-0.421936	0.095547	-0.128876	0.987047	0.144278	-0.979320	-0.141834	0.984914	0.155961	-0.074977
18034	9.801495	-2.572591	-0.087905	-0.361475	-0.668175	-0.425681	0.101583	-0.123688	0.987108	0.141205	-0.980402	-0.137379	0.984755	0.153340	-0.082126
18035	10.280575	-2.754915	0.035558	-0.316206	-0.632900	-0.424805	0.107276	-0.118599	0.987130	0.138563	-0.981387	-0.132967	0.984526	0.151043	-0.088846
18036	10.511850	-2.704959	0.553931	-0.261932	-0.565158	-0.413159	0.112332	-0.113715	0.987143	0.136498	-0.982247	-0.128684	0.984251	0.149199	-0.094816
18037	10.476347	-2.548092	0.997477	-0.278284	-0.505508	-0.393568	0.116830	-0.109140	0.987137	0.134237	-0.983087	-0.124580	0.984038	0.147065	-0.100203
18038	10.438589	-2.326489	1.363776	-0.301313	-0.445933	-0.385887	0.120763	-0.104719	0.987142	0.131784	-0.983927	-0.120500	0.983895	0.144642	-0.105021
18039	10.146000	-1.819839	1.525108	-0.395777	-0.374785	-0.398160	0.123988	-0.100306	0.987201	0.128403	-0.984891	-0.116198	0.983941	0.141167	-0.109235
18040	9.972212	-1.454484	1.728599	-0.475655	-0.319780	-0.448013	0.126623	-0.095476	0.987345	0.124332	-0.985980	-0.111289	0.984128	0.136850	-0.112977
18041	10.123339	-1.231880	2.052397	-0.553920	-0.241597	-0.499585	0.128446	-0.090265	0.987600	0.119543	-0.987178	-0.105774	0.984485	0.131647	-0.116009
18042	10.253672	-1.310518	2.489149	-0.643581	-0.153615	-0.529090	0.129392	-0.084872	0.987955	0.113933	-0.988459	-0.099837	0.985026	0.125479	-0.118229
18043	10.370196	-1.619283	2.825954	-0.747251	-0.055608	-0.527029	0.129411	-0.079635	0.988388	0.107278	-0.989795	-0.093794	0.985771	0.118170	-0.119547
18044	10.833764	-2.072562	3.455732	-0.781248	0.147428	-0.474867	0.127509	-0.075135	0.988987	0.100225	-0.991047	-0.088213	0.986761	0.110369	-0.118837
18045	10.564161	-2.502358	4.700220	-0.781915	0.459253	-0.350930	0.122689	-0.072187	0.989816	0.092969	-0.992129	-0.083880	0.988081	0.102314	-0.115012
18046	10.512130	-1.846902	4.898184	-0.936347	0.594025	-0.235674	0.116644	-0.070469	0.990671	0.084027	-0.993203	-0.080542	0.989613	0.092638	-0.109930
18047	10.430730	-0.680026	4.431991	-1.024839	0.725826	-0.206976	0.109344	-0.069091	0.991600	0.074138	-0.994236	-0.077450	0.991235	0.081984	-0.103592
18048	10.485390	0.389978	2.977444	-1.068071	0.685678	-0.283373	0.102377	-0.066842	0.992497	0.063875	-0.995239	-0.073615	0.992693	0.070933	-0.097620
18049	10.920452	0.243116	2.278230	-1.263485	0.681730	-0.382565	0.095435	-0.063518	0.993407	0.051730	-0.996297	-0.068672	0.994091	0.057943	-0.091796
18050	12.345445	-0.726638	2.447231	-1.427858	0.795354	-0.462254	0.087341	-0.059358	0.994409	0.037986	-0.997299	-0.062867	0.995454	0.043265	-0.084850
18051	13.842385	-1.954005	2.081812	-1.410021	1.189525	-0.482194	0.075391	-0.055022	0.995635	0.024361	-0.998077	-0.057001	0.996856	0.028552	-0.073906
18052	13.790028	-2.757730	2.143644	-0.946687	1.703591	-0.415750	0.058334	-0.051318	0.996977	0.015233	-0.998516	-0.052289	0.998181	0.018237	-0.057466
18053	13.233481	-2.433656	3.200331	-0.214551	1.899910	-0.318939	0.039365	-0.048499	0.998047	0.013276	-0.998708	-0.049055	0.999137	0.015181	-0.038670
18054	12.453118	-0.564900	3.635511	0.261559	1.929810	-0.218459	0.020060	-0.046681	0.998708	0.015986	-0.998767	-0.047005	0.999671	0.016908	-0.019289
18055	11.385813	1.295912	2.056995	0.300346	1.762455	-0.187594	0.002457	-0.045174	0.998976	0.019042	-0.998796	-0.045212	0.999816	0.019134	-0.001594
18056	10.793421	2.050013	0.933827	0.156795	1.518439	-0.316211	-0.012775	-0.042364	0.999021	0.020630	-0.998901	-0.042095	0.999706	0.020072	0.013635
18057	11.220194	1.289226	-0.003948	-0.006464	1.542818	-0.461818	-0.028241	-0.038104	0.998875	0.020505	-0.999085	-0.037532	0.999391	0.019422	0.028996
18058	11.437256	0.449162	-0.388749	-0.215918	1.729204	-0.586626	-0.045620	-0.032602	0.998427	0.018179	-0.999329	-0.031801	0.998793	0.016700	0.046182
18059	10.939705	-0.421509	-0.649968	-0.521609	1.931567	-0.590932	-0.064944	-0.027011	0.997523	0.012681	-0.999575	-0.026241	0.997808	0.010945	0.065259
18060	10.442507	-1.311344	-0.180355	-0.782107	1.906651	-0.471352	-0.083985	-0.022477	0.996213	0.004582	-0.999744	-0.022170	0.996456	0.002703	0.084067
18061	10.071673	-2.168812	0.125688	-0.964301	1.830675	-0.255496	-0.102162	-0.019930	0.994568	-0.005219	-0.999775	-0.020571	0.994754	-0.007293	0.102035
18062	10.081490	-3.561645	-1.133827	-0.880671	1.721553	-0.016510	-0.119257	-0.019613	0.992670	-0.013944	-0.999673	-0.021426	0.992766	-0.016397	0.118944
18063	10.242271	-4.952926	-2.189519	-0.527464	1.625960	0.192320	-0.135365	-0.021274	0.990567	-0.018891	-0.999532	-0.024048	0.990616	-0.021968	0.134900
18064	10.162133	-5.472067	-2.016951	-0.036764	1.539970	0.380559	-0.150660	-0.024793	0.988275	-0.018683	-0.999436	-0.027921	0.988409	-0.022671	0.150112
18065	10.213774	-5.248005	-1.524756	0.395323	1.434910	0.539486	-0.164867	-0.029936	0.985861	-0.013888	-0.999370	-0.032668	0.986218	-0.019078	0.164348
18066	10.088316	-4.267562	-1.037613	0.735752	1.363941	0.645434	-0.178347	-0.036238	0.983300	-0.005528	-0.999269	-0.037829	0.983952	-0.012183	0.178016
18067	9.650127	-2.853635	-0.721846	0.997951	1.273891	0.702370	-0.190818	-0.043211	0.980674	0.005618	-0.999062	-0.042929	0.981609	-0.002682	0.190882
18068	9.274971	-1.109479	-0.397718	1.225479	1.129861	0.731172	-0.201783	-0.050618	0.978121	0.019059	-0.998677	-0.047750	0.979245	0.009007	0.202481
18069	8.975779	0.466596	0.184758	1.370180	1.001462	0.723076	-0.211337	-0.058043	0.975688	0.033997	-0.998068	-0.052010	0.976822	0.022178	0.212902
18070	8.908012	1.493405	0.302560	1.372968	0.934671	0.696325	-0.220141	-0.065323	0.973278	0.048886	-0.997240	-0.055874	0.974242	0.035279	0.222727
18071	8.221108	2.083145	-0.149998	1.205311	0.877495	0.638625	-0.228274	-0.072096	0.970924	0.062088	-0.996303	-0.059383	0.971615	0.046727	0.231906
18072	8.363047	2.600421	-0.262692	0.870448	0.741856	0.577551	-0.235058	-0.078284	0.968824	0.071877	-0.995422	-0.062994	0.969320	0.054829	0.239609
18073	9.014338	2.671597	-0.147054	0.402388	0.686862	0.499447	-0.241286	-0.083689	0.966839	0.077007	-0.994784	-0.066890	0.967394	0.058314	0.246472
18074	9.568607	2.200545	0.086007	0.028238	0.704027	0.405235	-0.247744	-0.088184	0.964804	0.078291	-0.994414	-0.070787	0.965657	0.057999	0.253265
18075	9.653629	1.556572	0.178984	-0.280587	0.715155	0.314568	-0.254350	-0.091761	0.962749	0.076418	-0.994283	-0.074578	0.964088	0.054602	0.259908
18076	9.320300	0.614711	-0.045360	-0.515925	0.703450	0.237563	-0.260916	-0.094539	0.960721	0.072092	-0.994322	-0.078266	0.962666	0.048840	0.266250
18077	8.833446	-0.252583	-0.203156	-0.623597	0.671441	0.196952	-0.267188	-0.096849	0.958765	0.066658	-0.994411	-0.081874	0.961336	0.042034	0.272150
18078	8.377725	-1.205666	-0.401519	-0.593218	0.616655	0.165193	-0.272969	-0.098782	0.956938	0.061443	-0.994474	-0.085130	0.960059	0.035559	0.277529
18079	8.026566	-1.784681	-0.708850	-0.381991	0.522405	0.142447	-0.277845	-0.100421	0.955363	0.058215	-0.994453	-0.087599	0.958860	0.031278	0.282150
18080	7.946098	-2.091263	-0.907494	-0.090686	0.383396	0.146019	-0.281395	-0.102042	0.954151	0.057789	-0.994327	-0.089296	0.957850	0.030012	0.285695
18081	8.148162	-2.193986	-1.032946	0.221293	0.246432	0.167786	-0.283605	-0.103834	0.953303	0.060427	-0.994080	-0.090299	0.957035	0.031996	0.288200
18082	8.330259	-2.192212	-1.023313	0.524512	0.126050	0.202203	-0.284639	-0.105940	0.952763	0.066047	-0.993680	-0.090758	0.956357	0.037094	0.289838
18083	8.525755	-2.024954	-0.902892	0.794098	0.030429	0.255781	-0.284700	-0.108540	0.952452	0.074413	-0.993074	-0.090927	0.955724	0.044988	0.290805
18084	8.737334	-1.794097	-0.760775	1.018846	-0.053380	0.321499	-0.283886	-0.111757	0.952323	0.085082	-0.992203	-0.091074	0.955076	0.055171	0.291181
18085	9.016844	-1.462308	-0.440895	1.197081	-0.142533	0.412159	-0.282097	-0.115803	0.952371	0.097723	-0.990994	-0.091553	0.954396	0.067242	0.290873
18086	9.217447	-1.088219	-0.042736	1.316114	-0.218641	0.507992	-0.279426	-0.120722	0.952548	0.111723	-0.989414	-0.092621	0.953645	0.080541	0.289956
18087	9.277690	-0.619350	0.632437	1.370860	-0.313711	0.616548	-0.275648	-0.126587	0.952887	0.126548	-0.987442	-0.094570	0.952892	0.094518	0.288206
18088	9.208319	-0.147860	1.160771	1.362863	-0.397186	0.706326	-0.270862	-0.133199	0.953358	0.141478	-0.985134	-0.097443	0.952165	0.108485	0.285680
18089	9.255530	0.115559	1.652691	1.253089	-0.478757	0.761015	-0.265120	-0.140180	0.953971	0.155490	-0.982642	-0.101180	0.951595	0.121508	0.282315
18090	9.340354	0.493773	2.214640	1.041265	-0.530792	0.782342	-0.258748	-0.147230	0.954658	0.167469	-0.980186	-0.105777	0.951317	0.132506	0.278277
18091	9.198004	0.909899	2.804334	0.722437	-0.522013	0.783622	-0.252379	-0.154233	0.955258	0.176388	-0.978007	-0.111304	0.951416	0.140406	0.274033
18092	8.847225	1.017303	3.164573	0.394000	-0.489338	0.769406	-0.246282	-0.161096	0.955716	0.182086	-0.976221	-0.117630	0.951940	0.145052	0.269759
18093	8.532678	0.903599	3.397392	0.175151	-0.459119	0.738949	-0.240495	-0.167674	0.956058	0.185596	-0.974737	-0.124264	0.952742	0.147555	0.265539
18094	8.348710	0.692645	3.787720	0.055362	-0.413544	0.710489	-0.235165	-0.174024	0.956249	0.187850	-0.973429	-0.130953	0.953630	0.148836	0.261607
18095	8.394745	0.413759	4.162540	-0.023591	-0.347788	0.680485	-0.230508	-0.180167	0.956246	0.189253	-0.972245	-0.137561	0.954489	0.149263	0.258207
18096	8.620792	0.096877	4.331610	-0.066144	-0.275823	0.646928	-0.226587	-0.186082	0.956050	0.190144	-0.971145	-0.143955	0.955251	0.149169	0.255431
18097	9.109223	-0.196604	4.640068	-0.002818	-0.161426	0.603970	-0.223835	-0.191743	0.955579	0.191519	-0.969994	-0.149774	0.955624	0.149487	0.253842
18098	9.795298	-0.845462	5.137365	0.107567	0.003333	0.554833	-0.222740	-0.197166	0.954732	0.193835	-0.968738	-0.154836	0.955413	0.150572	0.253994
18099	10.283451	-1.520049	5.571056	0.271345	0.190225	0.517967	-0.223486	-0.202509	0.953438	0.197624	-0.967277	-0.159125	0.954463	0.152860	0.256193
18100	10.575052	-2.216590	6.386833	0.491502	0.370348	0.522304	-0.225914	-0.208169	0.951645	0.203534	-0.965427	-0.162866	0.952647	0.156899	0.260473
18101	10.765628	-2.822337	7.252151	0.683034	0.588539	0.541227	-0.230333	-0.214367	0.949207	0.211309	-0.963177	-0.166246	0.949892	0.162284	0.267149
18102	10.600973	-3.105059	8.030004	0.840672	0.878596	0.585574	-0.237346	-0.221493	0.945837	0.220694	-0.960494	-0.169545	0.946024	0.168500	0.276852
18103	9.964879	-3.278440	8.690948	0.957111	1.115062	0.647223	-0.246347	-0.229655	0.941579	0.231334	-0.957372	-0.172983	0.941168	0.175205	0.288973
18104	9.371955	-3.114393	8.494623	0.980028	1.237291	0.669008	-0.256331	-0.238299	0.936754	0.242252	-0.954041	-0.176407	0.935740	0.181712	0.302278
18105	8.719873	-2.645071	8.096059	1.045293	1.268151	0.649564	-0.266491	-0.246871	0.931685	0.253744	-0.950512	-0.179281	0.929837	0.188633	0.315945
18106	8.085755	-2.046969	7.268682	1.080615	1.217644	0.580237	-0.276233	-0.254760	0.926711	0.265367	-0.946962	-0.181227	0.923729	0.195858	0.329187
18107	7.798680	-1.313734	6.094464	1.092891	1.129925	0.486696	-0.285257	-0.261653	0.922045	0.276840	-0.943505	-0.182095	0.917599	0.203315	0.341577
18108	7.789375	-0.485371	5.336123	1.054607	1.089260	0.377323	-0.294121	-0.267502	0.917570	0.287610	-0.940308	-0.181940	0.911468	0.210390	0.353501
18109	8.112612	0.340577	4.786989	1.027556	1.067376	0.273829	-0.302956	-0.272391	0.913247	0.297806	-0.937351	-0.180788	0.905278	0.217200	0.365096
18110	8.654097	1.024202	4.221942	1.028893	1.031019	0.176698	-0.311690	-0.276360	0.909106	0.307669	-0.934578	-0.178618	0.898993	0.224030	0.376326
18111	9.205992	1.298657	3.444472	1.000880	0.958816	0.097578	-0.319916	-0.279487	0.905285	0.316990	-0.932009	-0.175717	0.892844	0.230751	0.386759
18112	9.304448	1.093566	2.792454	0.980671	0.886352	0.051329	-0.327603	-0.282077	0.901725	0.325932	-0.929547	-0.172367	0.886817	0.237434	0.396461
18113	9.223023	0.820113	2.506855	0.936015	0.803922	0.054529	-0.334470	-0.284552	0.898421	0.334432	-0.927118	-0.169137	0.881070	0.243890	0.405256
18114	9.010985	0.425997	2.263121	1.000955	0.758026	0.041335	-0.340946	-0.286846	0.895251	0.343423	-0.924497	-0.165428	0.875109	0.251048	0.413713
18115	7.525047	0.104744	2.994492	0.994178	0.818346	0.003424	-0.348010	-0.288994	0.891836	0.352150	-0.921934	-0.161332	0.868838	0.257915	0.422611
18116	6.682496	-0.275291	3.801588	0.760451	0.750286	-0.004968	-0.354484	-0.290935	0.888650	0.358789	-0.919939	-0.158057	0.863488	0.262809	0.430488
18117	6.361775	-0.917971	3.678946	0.196683	0.447190	-0.024047	-0.358366	-0.291923	0.886766	0.360445	-0.919469	-0.157023	0.861193	0.263359	0.434729
18118	6.592370	-1.664376	2.460107	-0.332560	0.040074	-0.025739	-0.358762	-0.291824	0.886639	0.357559	-0.920385	-0.158252	0.862231	0.260251	0.434543
18119	6.848531	-2.029509	0.557652	-0.762159	-0.371696	-0.039848	-0.355630	-0.290534	0.888323	0.350876	-0.922439	-0.161223	0.866264	0.254355	0.429988
18120	7.292308	-1.917375	-0.687588	-0.919986	-0.579269	-0.053791	-0.350740	-0.288617	0.890888	0.342763	-0.924875	-0.164683	0.871490	0.247602	0.423318
18121	7.165595	-1.424654	-0.397049	-0.728504	-0.719307	-0.079964	-0.344665	-0.286147	0.894051	0.336164	-0.926869	-0.167056	0.876470	0.242969	0.415651
18122	6.768418	-0.692151	-0.229076	-0.633121	-0.973132	-0.088128	-0.336355	-0.283013	0.898203	0.330369	-0.928620	-0.168882	0.881886	0.239934	0.405844
18123	7.267155	-0.109470	-1.080521	-0.888335	-1.101771	-0.035743	-0.326659	-0.280100	0.902684	0.322432	-0.930808	-0.172146	0.888443	0.234821	0.394370
18124	8.413169	0.719657	-1.318694	-0.964776	-1.004654	0.025958	-0.317566	-0.278045	0.906556	0.313991	-0.932943	-0.176148	0.894741	0.228712	0.383574
18125	11.082064	0.673290	3.318684	-0.688309	-0.757781	-0.052356	-0.310871	-0.275875	0.909534	0.307697	-0.934626	-0.178317	0.899267	0.224427	0.375434
18126	16.493269	-1.715842	11.705704	-0.497801	-0.258136	-0.063672	-0.308683	-0.274735	0.910624	0.303106	-0.935878	-0.179607	0.901577	0.220574	0.372164
18127	18.935841	-5.718602	13.460994	-0.611728	-0.187200	0.235652	-0.306225	-0.276569	0.910898	0.298353	-0.936541	-0.184054	0.903998	0.215407	0.369308
18128	16.815633	-6.160625	6.918396	-0.605393	-0.740054	0.456199	-0.298117	-0.279292	0.912755	0.294331	-0.936538	-0.190437	0.908017	0.211880	0.361402
18129	11.429645	-2.057198	2.328975	-0.242586	-1.081897	0.252759	-0.287471	-0.279398	0.916132	0.292908	-0.936326	-0.193646	0.911902	0.212675	0.351004
18130	8.667639	0.901608	0.040138	0.209908	-1.099862	0.047677	-0.277235	-0.277508	0.919853	0.295039	-0.935713	-0.193371	0.914381	0.217784	0.341289
18131	7.765907	5.330136	-2.309869	0.465272	-0.913359	-0.036701	-0.268928	-0.275180	0.923013	0.299240	-0.934764	-0.191497	0.915496	0.224704	0.333729
18132	6.884048	10.384742	-3.120403	-0.160070	-0.734492	-0.246030	-0.262868	-0.271251	0.925918	0.297218	-0.935764	-0.189755	0.917912	0.225319	0.326603
18133	7.177361	11.602822	-0.472012	-1.031179	-0.908835	-0.378028	-0.255545	-0.265728	0.929562	0.286788	-0.939045	-0.189598	0.923282	0.218137	0.316176
18134	9.654734	6.864122	1.990955	-1.978084	-1.139878	-0.325939	-0.245804	-0.260272	0.933723	0.267777	-0.944024	-0.192651	0.931599	0.202675	0.301740
18135	9.765417	-0.300533	-0.344158	-3.116615	-1.172005	-0.350163	-0.235649	-0.254772	0.937849	0.237773	-0.950811	-0.198549	0.942302	0.176207	0.284635
18136	10.134173	-5.657777	-2.998795	-3.671937	-1.286670	-0.459524	-0.224387	-0.248328	0.942329	0.202083	-0.957824	-0.204291	0.953317	0.144588	0.265106
18137	11.340344	-8.730274	-3.447818	-3.134227	-1.251561	-0.434444	-0.213155	-0.242555	0.946431	0.171158	-0.962983	-0.208249	0.961909	0.117600	0.246780
18138	11.215622	-10.067585	-2.942944	-1.914108	-1.121401	-0.219993	-0.202618	-0.239212	0.949591	0.152391	-0.965594	-0.210727	0.967328	0.102012	0.232100
18139	9.997389	-9.729331	-1.648702	-0.563188	-1.104140	0.083423	-0.191740	-0.238950	0.951913	0.147141	-0.965946	-0.212834	0.970353	0.099257	0.220370
18140	8.788106	-8.028673	-0.694250	0.520406	-1.095003	0.296989	-0.180586	-0.240704	0.953651	0.152868	-0.964678	-0.214539	0.971607	0.107040	0.211003
18141	8.492906	-5.032528	-0.161494	1.115704	-1.105796	0.378990	-0.169184	-0.243140	0.955123	0.164413	-0.962476	-0.215889	0.971774	0.120510	0.202811
18142	9.333056	-1.804628	0.269201	1.399832	-1.078443	0.343482	-0.158041	-0.245073	0.956536	0.178674	-0.959817	-0.216393	0.971133	0.136709	0.195479
18143	9.794072	0.762765	1.404829	1.312617	-1.002854	0.236732	-0.147811	-0.245936	0.957949	0.191818	-0.957326	-0.216179	0.970236	0.151798	0.188678
18144	10.069655	1.643663	2.315455	0.827395	-1.003044	0.090585	-0.137822	-0.245241	0.959615	0.200079	-0.955781	-0.215526	0.970038	0.162295	0.180795
18145	9.943462	0.830631	2.421980	0.213963	-0.978402	-0.038319	-0.128346	-0.243305	0.961421	0.202143	-0.955505	-0.214822	0.970910	0.166773	0.171818
18146	9.910320	-0.596348	2.160908	-0.258338	-0.928086	-0.131269	-0.119509	-0.240509	0.963262	0.199588	-0.956228	-0.213991	0.972565	0.166681	0.162281
18147	9.596251	-1.999904	1.369564	-0.522522	-0.850005	-0.162999	-0.111497	-0.237584	0.964947	0.194350	-0.957464	-0.213285	0.974575	0.163757	0.152929
18148	9.285840	-2.975479	0.975024	-0.503090	-0.828883	-0.165292	-0.103647	-0.234659	0.966536	0.189385	-0.958647	-0.212435	0.976417	0.161029	0.143802
18149	9.380218	-3.540969	0.849228	-0.424584	-0.813443	-0.141573	-0.095905	-0.232039	0.967967	0.185132	-0.959640	-0.211701	0.978023	0.158898	0.134993
18150	9.577162	-3.512893	0.694957	-0.381160	-0.775771	-0.105123	-0.088425	-0.229809	0.969210	0.181419	-0.960463	-0.211184	0.979422	0.157159	0.126620
18151	9.410347	-2.583156	0.198181	-0.385631	-0.709863	-0.063688	-0.081525	-0.228129	0.970212	0.177622	-0.961194	-0.211084	0.980716	0.155122	0.118882
18152	10.044708	-1.301046	0.303359	-0.447698	-0.773463	-0.067931	-0.073973	-0.226291	0.971247	0.173284	-0.962016	-0.210943	0.982090	0.152697	0.110376
18153	9.509954	-0.246586	0.618081	-0.623493	-0.771919	-0.090430	-0.066483	-0.224299	0.972250	0.167128	-0.963143	-0.210769	0.983691	0.148478	0.101519
18154	8.920509	0.145192	0.309639	-0.872140	-0.810718	-0.143986	-0.058654	-0.221736	0.973341	0.158564	-0.964711	-0.210215	0.985605	0.142007	0.091743
18155	9.607478	-0.106849	-0.006565	-1.110867	-0.850560	-0.219083	-0.050540	-0.218491	0.974529	0.147519	-0.966706	-0.209087	0.987767	0.133195	0.081089
18156	9.671298	-0.664396	-0.209381	-1.285792	-0.802050	-0.286042	-0.042931	-0.214695	0.975737	0.134791	-0.968953	-0.207272	0.989944	0.122623	0.070537
18157	9.437266	-1.343337	-0.287358	-1.255281	-0.785444	-0.318871	-0.035503	-0.210722	0.976901	0.122263	-0.971090	-0.205026	0.991863	0.112160	0.060240
18158	9.531391	-2.264213	-0.149988	-1.164573	-0.762486	-0.315835	-0.028220	-0.206830	0.977970	0.110726	-0.972985	-0.202581	0.993450	0.102569	0.050359
18159	9.551447	-2.898606	-0.139509	-1.027878	-0.728230	-0.288155	-0.021231	-0.203351	0.978876	0.100471	-0.974574	-0.200279	0.994713	0.094096	0.041122
18160	9.666515	-3.307111	0.012629	-0.801894	-0.699726	-0.253666	-0.014432	-0.200239	0.979641	0.092566	-0.975803	-0.198091	0.995602	0.087822	0.032618
18161	9.837508	-3.487836	0.136764	-0.573002	-0.623772	-0.218069	-0.008362	-0.197620	0.980243	0.086868	-0.976715	-0.196167	0.996185	0.083512	0.025334
18162	9.820332	-3.501811	0.536333	-0.345967	-0.528396	-0.177389	-0.003170	-0.195451	0.980708	0.083524	-0.977338	-0.194510	0.996501	0.081297	0.019423
18163	9.786822	-3.325909	0.727767	-0.200538	-0.409085	-0.145459	0.000840	-0.193743	0.981052	0.081558	-0.977771	-0.193165	0.996668	0.080175	0.014980
18164	9.632630	-2.959952	0.752666	-0.084669	-0.331813	-0.122090	0.004125	-0.192287	0.981330	0.080823	-0.978064	-0.191987	0.996720	0.080106	0.011507
18165	9.436685	-2.539369	0.698982	-0.033453	-0.295384	-0.124861	0.007021	-0.190873	0.981590	0.080530	-0.978318	-0.190813	0.996727	0.080387	0.008502
18166	9.138816	-2.334960	0.807983	-0.098924	-0.315516	-0.144648	0.010125	-0.189210	0.981885	0.079658	-0.978662	-0.189410	0.996771	0.080133	0.005163
18167	9.061834	-2.252253	0.480661	-0.287244	-0.397419	-0.197388	0.013985	-0.187007	0.982259	0.076852	-0.979248	-0.187528	0.996944	0.078111	0.000677
18168	8.838578	-2.177422	-0.020655	-0.480661	-0.457313	-0.262133	0.018423	-0.184097	0.982735	0.072200	-0.980091	-0.184955	0.997220	0.074361	-0.004764
18169	9.091363	-2.201646	-0.490027	-0.614750	-0.558267	-0.319191	0.023823	-0.180611	0.983266	0.066169	-0.981104	-0.181817	0.997524	0.069393	-0.011422
18170	9.296901	-2.391284	-0.720881	-0.677262	-0.603599	-0.357522	0.029691	-0.176707	0.983816	0.059604	-0.982185	-0.178213	0.997780	0.063930	-0.018630
18171	9.427267	-2.577802	-0.606816	-0.672332	-0.653058	-0.378755	0.036047	-0.172630	0.984327	0.053051	-0.983248	-0.174384	0.997941	0.058506	-0.026285
18172	9.678030	-2.814440	-0.771807	-0.659405	-0.694222	-0.395727	0.042848	-0.168359	0.984794	0.046718	-0.984283	-0.170304	0.997989	0.053305	-0.034309
