// General information: 
//  MT Manager version: 2022.2.0 
//  XDA version: 2022.2.0 build 7381 rev 124627 built on 2023-07-19
// Device information: 
//  DeviceId: 00B4CB9F
//  ProductCode: MTW2-3A7G6
//  Firmware Version: 4.6.0
//  Hardware Version: 2.0.0
// Device settings: 
//  Filter Profile: human(46.1)
//  Option Flags: Orientation Smoother Disabled, Position/Velocity Smoother Disabled, Continuous Zero Rotation Update Disabled, AHS Disabled, ICC Disabled
// Coordinate system: ENU
PacketCounter	Acc_X	Acc_Y	Acc_Z	Gyr_X	Gyr_Y	Gyr_Z	Mat[1][1]	Mat[2][1]	Mat[3][1]	Mat[1][2]	Mat[2][2]	Mat[3][2]	Mat[1][3]	Mat[2][3]	Mat[3][3]
18454	9.755105	-1.119768	-0.478254	0.001735	0.005784	0.001407	-0.069880	0.098444	0.992686	-0.132410	0.985398	-0.107043	-0.988729	-0.138922	-0.055824
18455	9.734783	-1.104121	-0.443714	0.014594	0.010796	0.001340	-0.069689	0.098610	0.992683	-0.132776	0.985332	-0.107201	-0.988693	-0.139275	-0.055574
18456	9.726696	-1.000934	-0.456002	0.004751	0.013318	0.002086	-0.069474	0.098802	0.992679	-0.132959	0.985288	-0.107372	-0.988684	-0.139445	-0.055315
18457	9.720136	-1.062312	-0.489186	-0.027299	0.010867	0.001763	-0.069273	0.098995	0.992674	-0.132149	0.985385	-0.107490	-0.988806	-0.138627	-0.055179
18458	9.740811	-1.128300	-0.482439	-0.013712	0.013082	0.002101	-0.069061	0.099179	0.992670	-0.131923	0.985399	-0.107630	-0.988851	-0.138389	-0.054969
18459	9.729692	-1.072354	-0.482147	0.005910	0.009751	-0.003198	-0.068901	0.099242	0.992675	-0.132023	0.985381	-0.107676	-0.988849	-0.138475	-0.054792
18460	9.749119	-1.022430	-0.417444	0.007176	0.015037	-0.002802	-0.068585	0.099333	0.992688	-0.132098	0.985365	-0.107727	-0.988861	-0.138521	-0.054459
18461	9.729547	-1.031376	-0.416968	-0.012489	0.005756	0.000942	-0.068520	0.099454	0.992680	-0.131914	0.985379	-0.107828	-0.988890	-0.138337	-0.054398
18462	9.745091	-1.124732	-0.380511	-0.016747	0.006478	0.004626	-0.068439	0.099702	0.992661	-0.131362	0.985430	-0.108032	-0.988969	-0.137792	-0.054345
18463	9.740915	-1.138382	-0.374631	-0.011728	0.015012	0.004664	-0.068191	0.099964	0.992652	-0.131131	0.985438	-0.108246	-0.989017	-0.137548	-0.054090
18464	9.752300	-1.130647	-0.379663	-0.012854	0.020243	0.004651	-0.067784	0.100245	0.992651	-0.130805	0.985459	-0.108451	-0.989088	-0.137194	-0.053686
18465	9.738761	-1.123975	-0.415865	-0.000063	0.028453	0.002240	-0.067169	0.100493	0.992668	-0.130827	0.985438	-0.108613	-0.989127	-0.137163	-0.053043
18466	9.735690	-1.073404	-0.469126	0.009273	0.027854	0.005155	-0.066642	0.100810	0.992671	-0.131198	0.985360	-0.108875	-0.989114	-0.137492	-0.052440
18467	9.745345	-1.019876	-0.471521	-0.002131	0.028040	0.002608	-0.066026	0.101054	0.992688	-0.131231	0.985338	-0.109034	-0.989151	-0.137470	-0.051796
18468	9.744240	-1.114843	-0.452125	-0.011113	0.023407	0.008146	-0.065596	0.101425	0.992678	-0.131078	0.985324	-0.109335	-0.989199	-0.137291	-0.051339
18469	9.736184	-1.062774	-0.426338	-0.023576	0.017445	0.009234	-0.065341	0.101811	0.992656	-0.130595	0.985353	-0.109659	-0.989280	-0.136801	-0.051088
18470	9.719475	-1.115004	-0.408062	-0.026982	0.019044	0.006189	-0.064982	0.102139	0.992645	-0.129846	0.985425	-0.109896	-0.989402	-0.136033	-0.050773
18471	9.748620	-1.112618	-0.331621	-0.023305	0.014708	0.006848	-0.064746	0.102446	0.992629	-0.129380	0.985459	-0.110145	-0.989479	-0.135558	-0.050550
18472	9.750464	-1.160081	-0.327254	-0.021878	0.024358	0.008618	-0.064276	0.102822	0.992621	-0.129002	0.985476	-0.110435	-0.989559	-0.135149	-0.050078
18473	9.704841	-1.141372	-0.435281	-0.015073	0.023976	0.007364	-0.063833	0.103192	0.992611	-0.128634	0.985492	-0.110724	-0.989636	-0.134751	-0.049633
18474	9.732772	-1.162420	-0.467766	-0.010325	0.020222	0.003579	-0.063450	0.103443	0.992610	-0.128454	0.985494	-0.110912	-0.989684	-0.134542	-0.049242
18475	9.713364	-1.142676	-0.414342	0.008309	0.020376	0.000655	-0.063047	0.103619	0.992617	-0.128745	0.985441	-0.111047	-0.989672	-0.134796	-0.048789
18476	9.731455	-1.082982	-0.337371	0.016345	0.026992	-0.003992	-0.062502	0.103694	0.992644	-0.129381	0.985354	-0.111079	-0.989623	-0.135372	-0.048170
18477	9.768199	-1.052030	-0.393134	-0.001481	0.029574	-0.001364	-0.061850	0.103872	0.992666	-0.129256	0.985361	-0.111161	-0.989680	-0.135183	-0.047518
18478	9.725705	-1.133408	-0.402973	-0.004169	0.029077	0.004459	-0.061219	0.104175	0.992673	-0.129156	0.985350	-0.111371	-0.989733	-0.135028	-0.046867
18479	9.712336	-1.122504	-0.370157	-0.001389	0.020562	0.005450	-0.060835	0.104471	0.992666	-0.129209	0.985316	-0.111616	-0.989749	-0.135052	-0.046443
18480	9.711162	-1.153262	-0.363671	-0.013711	0.018978	0.007855	-0.060524	0.104822	0.992648	-0.128995	0.985310	-0.111912	-0.989796	-0.134820	-0.046114
18481	9.741903	-1.157471	-0.277954	-0.000665	0.025377	0.006344	-0.060016	0.105149	0.992644	-0.129111	0.985265	-0.112173	-0.989812	-0.134893	-0.045556
18482	9.754569	-1.121085	-0.281378	0.008059	0.033645	0.006457	-0.059294	0.105526	0.992647	-0.129275	0.985211	-0.112457	-0.989834	-0.134992	-0.044775
18483	9.754279	-1.052534	-0.343744	0.002052	0.036196	0.009177	-0.058546	0.105976	0.992644	-0.129352	0.985161	-0.112807	-0.989869	-0.135005	-0.043969
18484	9.691803	-1.049434	-0.445752	-0.030887	0.021412	0.010227	-0.058129	0.106417	0.992621	-0.128429	0.985243	-0.113147	-0.990014	-0.134059	-0.043604
18485	9.682790	-1.141256	-0.425929	-0.038106	-0.000078	0.008908	-0.058273	0.106727	0.992579	-0.127595	0.985318	-0.113437	-0.990113	-0.133258	-0.043800
18486	9.726339	-1.152669	-0.303474	-0.010066	0.003750	0.001625	-0.058287	0.106872	0.992563	-0.127426	0.985324	-0.113576	-0.990134	-0.133099	-0.043813
18487	9.697946	-1.101672	-0.343221	-0.014321	0.007302	-0.002061	-0.058172	0.106951	0.992561	-0.127011	0.985372	-0.113620	-0.990194	-0.132676	-0.043737
18488	9.722858	-1.075460	-0.328067	-0.036580	-0.001379	0.002309	-0.058326	0.107092	0.992537	-0.126235	0.985457	-0.113746	-0.990284	-0.131928	-0.043959
18489	9.747240	-1.114298	-0.303506	-0.056118	-0.000488	0.002819	-0.058399	0.107246	0.992516	-0.124877	0.985619	-0.113849	-0.990452	-0.130591	-0.044167
18490	9.744231	-1.223064	-0.264776	-0.052733	0.005171	0.002894	-0.058381	0.107439	0.992496	-0.123559	0.985770	-0.113979	-0.990618	-0.129286	-0.044276
18491	9.785304	-1.362298	-0.195218	-0.005632	0.015663	0.008345	-0.058131	0.107788	0.992473	-0.123524	0.985738	-0.114291	-0.990637	-0.129238	-0.043987
18492	9.699506	-1.278876	-0.171302	0.046819	0.028745	0.013877	-0.057571	0.108315	0.992448	-0.124781	0.985521	-0.114797	-0.990513	-0.130448	-0.043222
18493	9.703836	-1.119265	-0.224234	0.033277	0.015969	0.010008	-0.057286	0.108708	0.992422	-0.125631	0.985367	-0.115187	-0.990422	-0.131278	-0.042790
18494	9.759304	-1.195733	-0.231898	0.026155	0.020707	0.001067	-0.056892	0.108888	0.992425	-0.126459	0.985242	-0.115349	-0.990339	-0.132063	-0.042282
18495	9.773588	-1.244506	-0.244569	0.034733	0.012990	0.008718	-0.056681	0.109253	0.992397	-0.127257	0.985097	-0.115718	-0.990249	-0.132848	-0.041933
18496	9.751130	-1.159719	-0.227063	0.040198	0.008497	0.005030	-0.056578	0.109504	0.992375	-0.128280	0.984931	-0.115996	-0.990123	-0.133865	-0.041678
18497	9.774619	-1.265985	-0.058998	0.060907	-0.004375	0.005784	-0.056799	0.109730	0.992337	-0.129816	0.984692	-0.116315	-0.989910	-0.135428	-0.041685
18498	9.823086	-1.414245	0.066964	0.144025	-0.004310	0.000607	-0.057000	0.109825	0.992315	-0.133447	0.984174	-0.116589	-0.989415	-0.139067	-0.041442
18499	9.741125	-1.380766	0.096178	0.203783	-0.007634	0.011533	-0.057309	0.110175	0.992259	-0.138523	0.983401	-0.117192	-0.988700	-0.144167	-0.041096
18500	9.698174	-1.231596	0.107910	0.253403	-0.020748	0.022325	-0.057986	0.110741	0.992156	-0.144807	0.982385	-0.118114	-0.987759	-0.150520	-0.040928
18501	9.706456	-1.185154	0.214830	0.281787	-0.011231	0.018596	-0.058477	0.111251	0.992070	-0.151886	0.981210	-0.118985	-0.986667	-0.157639	-0.040481
18502	9.823470	-1.266844	0.319571	0.319848	-0.007955	0.024356	-0.058877	0.111916	0.991972	-0.159777	0.979829	-0.120030	-0.985396	-0.165562	-0.039808
18503	9.930045	-1.170510	0.573019	0.368964	0.024060	0.036042	-0.058541	0.112990	0.991870	-0.168925	0.978125	-0.121394	-0.983889	-0.174658	-0.038173
18504	9.798252	-1.028765	0.564343	0.329334	0.042564	0.076614	-0.057917	0.115146	0.991659	-0.176964	0.976411	-0.123711	-0.982512	-0.182653	-0.036174
18505	9.652558	-0.958893	0.393444	0.241996	0.013601	0.099406	-0.058078	0.117750	0.991344	-0.182571	0.975020	-0.126507	-0.981476	-0.188338	-0.035129
18506	9.685885	-1.110400	0.335171	0.159851	0.023444	0.110033	-0.058107	0.120639	0.990994	-0.186361	0.973911	-0.129487	-0.980762	-0.192206	-0.034109
18507	9.637879	-1.170753	0.323937	0.194157	-0.030199	0.106813	-0.059452	0.123178	0.990602	-0.191060	0.972607	-0.132407	-0.979776	-0.197136	-0.034289
18508	9.636669	-1.217893	0.304525	0.230051	-0.045217	0.116084	-0.061235	0.125860	0.990156	-0.196627	0.971057	-0.135593	-0.978564	-0.202995	-0.034715
18509	9.554355	-0.993121	0.166911	0.194555	-0.085041	0.138688	-0.064151	0.128857	0.989586	-0.201450	0.969542	-0.139306	-0.977396	-0.208288	-0.036238
18510	9.662966	-0.941338	0.365169	0.098959	-0.124787	0.154664	-0.068126	0.132021	0.988903	-0.203863	0.968450	-0.143334	-0.976626	-0.211365	-0.039062
18511	9.704883	-1.117260	0.522698	-0.045175	-0.118801	0.187020	-0.072100	0.135999	0.988082	-0.202593	0.968012	-0.148020	-0.976605	-0.210850	-0.042241
18512	9.696572	-1.274183	0.391176	-0.221531	-0.100371	0.219674	-0.075790	0.140870	0.987123	-0.196971	0.968348	-0.153314	-0.977476	-0.206054	-0.045644
18513	9.486443	-1.436499	-0.079646	-0.362998	-0.096719	0.239618	-0.079415	0.146277	0.986051	-0.187691	0.969289	-0.158906	-0.979012	-0.197693	-0.049521
18514	9.484730	-1.829362	-0.260693	-0.362269	-0.109171	0.264369	-0.083406	0.152250	0.984816	-0.178347	0.970023	-0.165067	-0.980426	-0.189407	-0.053753
18515	9.576998	-1.659820	-0.653056	-0.344572	-0.091364	0.241773	-0.086788	0.157782	0.983653	-0.169446	0.970653	-0.170647	-0.981711	-0.181486	-0.057506
18516	9.471050	-1.086571	-1.725093	-0.480493	-0.194744	0.209403	-0.092542	0.162104	0.982425	-0.157261	0.971895	-0.175180	-0.983211	-0.170709	-0.064449
18517	9.312497	-0.691664	-2.726203	-0.749084	-0.403207	0.168627	-0.103177	0.164672	0.980937	-0.138425	0.974226	-0.178105	-0.984984	-0.154162	-0.077723
18518	9.327123	-0.673637	-3.545716	-0.929077	-0.650386	0.068458	-0.119553	0.164078	0.979176	-0.115488	0.977256	-0.177857	-0.986088	-0.134346	-0.097885
18519	9.151121	-0.656571	-3.925361	-0.957058	-0.900127	-0.110834	-0.141586	0.158658	0.977129	-0.092328	0.980654	-0.172609	-0.985611	-0.114655	-0.124198
18520	8.822399	-0.777701	-3.383838	-0.750615	-1.037684	-0.333054	-0.166540	0.147816	0.974892	-0.075071	0.983929	-0.162010	-0.983173	-0.100167	-0.152767
18521	9.220016	-0.808365	-2.111849	-0.534847	-1.142254	-0.469733	-0.193835	0.133574	0.971898	-0.064201	0.986837	-0.148431	-0.978931	-0.091168	-0.182707
18522	9.758511	-0.723870	-0.933202	-0.666138	-1.070395	-0.457592	-0.219396	0.120147	0.968210	-0.050171	0.989686	-0.134181	-0.974345	-0.078015	-0.211106
18523	9.608893	-1.039781	-1.155180	-1.231264	-0.941398	-0.349850	-0.242066	0.110050	0.963999	-0.022331	0.992652	-0.118929	-0.970003	-0.050316	-0.237829
18524	10.303410	-3.652825	-0.942985	-1.175407	-0.892331	-0.256349	-0.263632	0.103017	0.959107	0.004613	0.994404	-0.105540	-0.964612	-0.023399	-0.262632
18525	10.767950	-4.846519	0.008658	-0.584888	-0.482351	-0.091624	-0.275341	0.100609	0.956068	0.017971	0.994874	-0.099517	-0.961179	-0.010220	-0.275738
18526	10.126517	-4.237710	-0.803386	-0.094395	-0.192759	0.073563	-0.279958	0.102444	0.954531	0.020602	0.994702	-0.100713	-0.959791	-0.008530	-0.280586
18527	9.311291	-2.224968	-2.636090	0.178861	-0.123586	0.102760	-0.282913	0.105122	0.953368	0.017078	0.994370	-0.104575	-0.958994	-0.013304	-0.283116
18528	8.637451	-0.756718	-3.980596	0.142207	-0.235254	0.011279	-0.288629	0.105394	0.951622	0.013619	0.994274	-0.105987	-0.957344	-0.017630	-0.288412
18529	8.815504	-0.824086	-3.457787	0.126639	-0.374799	-0.173912	-0.297755	0.100936	0.949291	0.009115	0.994650	-0.102900	-0.954599	-0.021987	-0.297082
18530	9.179242	-1.841561	-1.736098	-0.020377	-0.458498	-0.282231	-0.308866	0.093741	0.946475	0.007316	0.995336	-0.096193	-0.951078	-0.022787	-0.308111
18531	10.082047	-2.377682	0.262646	-0.188249	-0.524933	-0.269864	-0.321467	0.086840	0.942931	0.009552	0.996033	-0.088474	-0.946873	-0.019435	-0.321021
18532	10.821749	-3.269062	1.972730	-0.529362	-0.414218	-0.130934	-0.331376	0.083574	0.939790	0.020956	0.996475	-0.081226	-0.943266	-0.007222	-0.331959
18533	10.834008	-3.774537	0.922923	-0.866654	-0.377777	0.091413	-0.340238	0.085990	0.936399	0.042046	0.996205	-0.076204	-0.939399	0.013445	-0.342562
18534	9.767299	-3.188100	-1.280849	-1.029490	-0.223578	0.145655	-0.345308	0.090000	0.934164	0.067550	0.995193	-0.070910	-0.936055	0.038616	-0.349728
18535	8.911565	-1.191775	-3.769690	-0.998885	-0.163684	-0.000063	-0.349148	0.090402	0.932697	0.090917	0.993908	-0.062301	-0.932646	0.063046	-0.355240
18536	9.009302	0.095886	-3.424459	-0.991018	-0.242463	-0.267222	-0.355511	0.084445	0.930849	0.111666	0.992615	-0.047401	-0.927978	0.087093	-0.362315
18537	10.606297	-1.552598	-2.811287	-1.089976	-0.275683	-0.438516	-0.363232	0.074487	0.928717	0.133002	0.990736	-0.027442	-0.922157	0.113553	-0.369773
18538	14.104462	-3.245646	-3.054716	-1.146100	0.148955	-0.342201	-0.361049	0.065685	0.930231	0.156234	0.987678	-0.009103	-0.919366	0.142047	-0.366863
18539	12.964756	-4.427224	-0.996048	-0.265759	0.817141	0.191216	-0.341455	0.067631	0.937462	0.164064	0.986384	-0.011402	-0.925468	0.149911	-0.347902
18540	9.853735	-2.543573	-0.495109	1.114504	1.186688	0.485257	-0.311891	0.075894	0.947082	0.142253	0.989299	-0.032431	-0.939408	0.124611	-0.319349
18541	8.996136	1.454853	-0.288828	1.503060	1.482642	0.423567	-0.275383	0.082653	0.957775	0.109847	0.992477	-0.054064	-0.955038	0.090320	-0.282391
18542	9.112067	2.184772	-0.156671	1.092500	1.843394	0.300708	-0.230314	0.086767	0.969241	0.085519	0.993968	-0.068659	-0.969351	0.067076	-0.236345
18543	9.531882	0.176453	-0.941024	0.766936	1.927894	0.290565	-0.182756	0.091373	0.978903	0.068400	0.994441	-0.080053	-0.980776	0.052327	-0.187990
18544	10.079722	-1.720582	-1.412404	0.628300	1.937525	0.419039	-0.134424	0.099711	0.985894	0.054549	0.994160	-0.093109	-0.989421	0.041263	-0.139078
18545	10.375084	-1.846957	-1.604679	0.676792	1.802703	0.519328	-0.089106	0.111318	0.989782	0.039301	0.993354	-0.108181	-0.995247	0.029260	-0.092888
18546	10.544608	-0.728115	-1.984621	0.659585	1.670264	0.458967	-0.047158	0.121978	0.991412	0.023646	0.992374	-0.120972	-0.998608	0.017738	-0.049683
18547	11.416086	-0.200222	-1.919090	0.586570	1.585769	0.258391	-0.007555	0.128104	0.991732	0.009114	0.991728	-0.128034	-0.999930	0.008071	-0.008660
18548	11.631739	-0.781906	-1.766935	0.777599	1.657387	0.147685	0.033781	0.131932	0.990683	-0.010405	0.991241	-0.131652	-0.999375	-0.005861	0.034858
18549	10.728306	-0.219301	-1.508332	1.191604	1.654960	0.149844	0.074911	0.136605	0.987789	-0.040353	0.990176	-0.133875	-0.996373	-0.029831	0.079688
18550	9.385827	1.018702	-1.144279	1.195457	1.520763	0.119827	0.112507	0.141328	0.983549	-0.070381	0.988481	-0.133986	-0.991155	-0.054148	0.121158
18551	7.443803	1.072944	-0.979654	0.883233	1.344228	-0.051596	0.145749	0.142285	0.979036	-0.092173	0.987252	-0.129757	-0.985018	-0.071328	0.157006
18552	6.456469	0.304954	-1.279946	0.704949	0.949078	-0.194470	0.169475	0.139472	0.975616	-0.108825	0.986530	-0.122129	-0.979508	-0.085474	0.182370
18553	6.301975	-0.138752	-1.087382	0.569837	0.492605	-0.225818	0.182092	0.135150	0.973949	-0.121861	0.985974	-0.114035	-0.975701	-0.097922	0.196008
18554	6.599426	-0.391669	-0.577227	0.600323	0.051260	-0.173084	0.183825	0.131132	0.974173	-0.135800	0.984946	-0.106957	-0.973533	-0.112631	0.198865
18555	7.094031	-0.458853	0.368151	0.490693	-0.282220	-0.161348	0.177450	0.126428	0.975975	-0.147113	0.983979	-0.100717	-0.973072	-0.125707	0.193206
18556	7.941920	-0.629739	1.163711	0.086501	-0.682460	-0.165778	0.161355	0.120273	0.979540	-0.148622	0.984188	-0.096362	-0.975641	-0.130033	0.176679
18557	9.390158	-1.034248	3.056147	-0.406869	-0.958708	0.013972	0.137778	0.117691	0.983446	-0.138820	0.985409	-0.098477	-0.980687	-0.122954	0.152105
18558	14.607754	-4.933358	9.519507	-0.227963	-0.591895	0.326944	0.122050	0.124059	0.984740	-0.134382	0.985087	-0.107447	-0.983385	-0.119218	0.136901
18559	13.665010	-3.259251	6.320849	2.380576	0.547957	0.072856	0.135078	0.127982	0.982535	-0.192921	0.976042	-0.100614	-0.971872	-0.175961	0.156532
18560	8.440996	0.910998	6.178394	2.500442	0.728380	0.036567	0.152356	0.132717	0.979374	-0.253416	0.963060	-0.091084	-0.955284	-0.234312	0.180361
18561	5.125316	3.410443	-1.221028	0.992266	0.056522	0.269865	0.151844	0.139643	0.978490	-0.278160	0.955996	-0.093267	-0.948457	-0.258015	0.184005
18562	8.323799	7.527404	-1.629712	-2.190848	-1.201437	0.365869	0.120702	0.141510	0.982551	-0.227044	0.967487	-0.111449	-0.966376	-0.209630	0.148907
18563	13.087675	-2.561715	-2.666976	-2.077814	-1.152475	0.273482	0.091216	0.142860	0.985531	-0.177273	0.976179	-0.125097	-0.979926	-0.163297	0.114368
18564	11.912619	-2.775781	-4.768076	-1.924928	-1.529925	0.337767	0.052166	0.145760	0.987944	-0.130533	0.981798	-0.137961	-0.990071	-0.121762	0.070243
18565	9.542437	-5.095921	-1.778189	-1.299336	-1.586971	0.413906	0.011519	0.151705	0.988359	-0.098684	0.983771	-0.149850	-0.995052	-0.095810	0.026303
18566	9.074085	-4.695223	-0.359212	0.024022	-1.310278	0.170642	-0.021574	0.152769	0.988026	-0.099338	0.983038	-0.154167	-0.994820	-0.101474	-0.006032
18567	8.722659	-0.289198	0.688560	0.339309	-0.933237	-0.088946	-0.044615	0.148184	0.987953	-0.107926	0.982435	-0.152230	-0.993157	-0.113418	-0.027838
18568	9.195342	1.785960	-1.034195	-0.767774	-1.024321	-0.011212	-0.070105	0.145301	0.986901	-0.088951	0.984483	-0.151264	-0.993566	-0.098390	-0.056092
18569	10.219192	0.367609	-3.153751	-1.838924	-1.288780	0.048438	-0.102283	0.144081	0.984266	-0.043217	0.987877	-0.149101	-0.993816	-0.057788	-0.094817
18570	9.953519	-1.049322	-3.653807	-2.152797	-1.369617	-0.039822	-0.136324	0.142045	0.980428	0.010023	0.989814	-0.142011	-0.990614	-0.009532	-0.136359
18571	9.507957	-2.723158	-2.817737	-1.920247	-1.347956	-0.247503	-0.169877	0.136426	0.975976	0.056430	0.990093	-0.128577	-0.983848	0.033233	-0.175893
18572	9.460659	-2.587350	-2.063280	-1.472942	-1.207389	-0.379736	-0.200224	0.128633	0.971269	0.090703	0.989520	-0.112352	-0.975543	0.065601	-0.209793
18573	9.080398	-1.991617	-1.750203	-1.447118	-1.050206	-0.428879	-0.226931	0.120302	0.966452	0.123489	0.987886	-0.093973	-0.966050	0.098021	-0.239038
18574	9.310753	-2.368109	-1.571068	-1.156114	-0.964422	-0.467099	-0.251757	0.111574	0.961337	0.148428	0.986032	-0.075570	-0.956341	0.123664	-0.264801
18575	9.302041	-2.486691	-1.365666	-0.607911	-0.856400	-0.454643	-0.273958	0.103286	0.956179	0.159866	0.985275	-0.060625	-0.948362	0.136252	-0.286436
18576	8.477845	-2.491854	-1.268088	-0.275296	-0.890973	-0.415069	-0.296730	0.096281	0.950095	0.163358	0.985357	-0.048835	-0.940885	0.140715	-0.308114
18577	8.641197	-0.854780	-0.523481	-0.615800	-1.055681	-0.451163	-0.323375	0.089193	0.942058	0.174216	0.984142	-0.033376	-0.930095	0.153329	-0.333786
18578	9.155662	-1.401776	-0.453239	-1.297891	-1.308765	-0.527885	-0.356042	0.081865	0.930877	0.199596	0.979829	-0.009829	-0.912905	0.182300	-0.365200
18579	11.256367	-2.901701	-0.892335	-1.218489	-1.202441	-0.627554	-0.386561	0.072567	0.919404	0.221281	0.975078	0.016076	-0.895324	0.209661	-0.392985
18580	11.097487	-2.665025	-1.386898	-0.773488	-0.707097	-0.565873	-0.405525	0.062808	0.911923	0.232849	0.971823	0.036613	-0.883929	0.227188	-0.408724
18581	11.973762	-2.644087	-0.962165	-0.364645	-0.217886	-0.077818	-0.410806	0.062336	0.909589	0.240061	0.969851	0.041955	-0.879551	0.235592	-0.413385
18582	12.611375	-3.247343	-1.417569	0.122020	0.404989	0.337392	-0.399857	0.068305	0.914029	0.240755	0.970030	0.032832	-0.884393	0.233185	-0.404319
18583	12.450725	-2.286218	-1.935183	0.456093	0.921388	0.513733	-0.376294	0.075678	0.923404	0.235547	0.971725	0.016349	-0.896058	0.223657	-0.383480
18584	12.396972	0.835597	-1.890089	0.558354	1.625255	0.531839	-0.336439	0.079907	0.938309	0.227604	0.973753	-0.001316	-0.913786	0.213120	-0.345795
18585	10.857490	2.015661	-2.383128	0.589958	2.246067	0.462760	-0.281953	0.079665	0.956115	0.217496	0.975910	-0.017175	-0.934451	0.203109	-0.292488
18586	9.893404	-1.421297	-3.718934	0.278168	1.974077	0.419968	-0.233207	0.080126	0.969120	0.213598	0.976481	-0.029335	-0.948678	0.200161	-0.244837
18587	11.164410	-4.511985	-3.544922	0.485022	1.904420	0.717877	-0.183968	0.088485	0.978941	0.205695	0.977354	-0.049686	-0.961169	0.192223	-0.198003
18588	10.781058	-3.170757	-3.494489	1.588025	1.842608	0.981251	-0.134714	0.104636	0.985344	0.171054	0.981936	-0.080888	-0.976009	0.157650	-0.150179
18589	10.254664	0.230260	-2.752970	2.333257	1.799548	0.946459	-0.087094	0.122199	0.988677	0.116228	0.986917	-0.111743	-0.989397	0.105180	-0.100157
18590	10.427841	0.948889	-2.354365	2.310855	1.737137	0.581583	-0.042678	0.133294	0.990157	0.059652	0.989632	-0.130652	-0.997306	0.053489	-0.050187
18591	11.099049	-0.378966	-1.989654	1.934019	1.802125	0.308625	0.002571	0.139623	0.990201	0.011397	0.990136	-0.139643	-0.999932	0.011645	0.000954
18592	10.346803	-1.013179	-2.280125	1.793697	1.772798	0.221512	0.046765	0.145584	0.988240	-0.033669	0.988990	-0.144101	-0.998338	-0.026534	0.051152
18593	9.287007	-0.406956	-2.411302	1.798629	1.659873	0.186666	0.087782	0.152236	0.984438	-0.078884	0.986212	-0.145476	-0.993011	-0.064886	0.098581
18594	8.205623	0.535305	-2.110855	1.622330	1.390542	0.163476	0.121712	0.159254	0.979706	-0.119558	0.982210	-0.144807	-0.985339	-0.099507	0.138586
18595	7.106057	0.089430	-1.765465	1.174515	1.207038	0.056464	0.151070	0.164131	0.974802	-0.148685	0.978674	-0.141740	-0.977277	-0.123526	0.172252
18596	7.017420	-0.648497	-1.029680	0.715124	0.861393	0.006937	0.171946	0.167232	0.970808	-0.166245	0.976277	-0.138730	-0.970977	-0.137538	0.195669
18597	7.534416	-1.412924	-0.241161	0.253853	0.449972	-0.005845	0.182796	0.168780	0.968555	-0.172487	0.975380	-0.137415	-0.967902	-0.141944	0.207408
18598	7.921987	-1.371314	-0.011976	0.204413	0.014323	-0.017430	0.183134	0.168524	0.968536	-0.177468	0.974679	-0.136037	-0.966937	-0.146971	0.208405
18599	7.553127	-0.932228	0.277892	0.539891	-0.318056	-0.034968	0.175522	0.166562	0.970283	-0.190472	0.972707	-0.132522	-0.965874	-0.161551	0.202457
18600	7.405101	-0.399571	1.016703	0.705740	-0.486796	-0.087780	0.164119	0.162460	0.972970	-0.207243	0.970010	-0.127008	-0.964425	-0.180797	0.192866
18601	8.625686	-0.905146	2.802139	0.643646	-0.556937	-0.022603	0.150727	0.159379	0.975643	-0.222775	0.967009	-0.123552	-0.963147	-0.198726	0.181260
18602	13.421227	-3.177161	7.225331	0.639358	-0.132521	0.135325	0.146666	0.162065	0.975820	-0.238758	0.963121	-0.124070	-0.959939	-0.214788	0.179952
18603	12.486935	-1.865175	5.705515	1.660254	0.682500	0.030302	0.162649	0.166881	0.972469	-0.278561	0.953266	-0.116995	-0.946546	-0.251863	0.201534
18604	9.327438	-0.724437	4.042604	1.339551	0.642700	0.091085	0.177001	0.173428	0.968810	-0.310553	0.943907	-0.112232	-0.933931	-0.281002	0.220931
18605	7.132193	0.293021	3.452355	0.711901	0.272297	0.388571	0.180145	0.184632	0.966157	-0.328963	0.936977	-0.117719	-0.927001	-0.296623	0.229529
18606	5.915792	1.081039	0.320012	-0.498411	-0.537926	0.472033	0.163728	0.191869	0.967667	-0.319514	0.938344	-0.131994	-0.933330	-0.287572	0.214938
18607	10.483826	0.671125	-2.119182	-1.234407	-1.159736	0.241703	0.134538	0.189659	0.972589	-0.291503	0.945656	-0.144084	-0.947062	-0.264127	0.182513
18608	14.726630	-2.572746	0.924033	0.516965	-0.537767	-0.081974	0.122345	0.184162	0.975252	-0.303565	0.942485	-0.139892	-0.944923	-0.278938	0.171213
18609	10.344625	4.191540	-1.490884	0.817782	-0.539068	-0.239131	0.111423	0.174721	0.978293	-0.322234	0.937587	-0.130750	-0.940080	-0.300671	0.160770
18610	8.275458	4.736003	-0.311875	-1.294378	-0.897096	-0.004656	0.090146	0.168235	0.981616	-0.291684	0.946870	-0.135493	-0.952257	-0.274108	0.134428
18611	9.441793	-2.837448	-0.891508	-2.363161	-1.267069	0.365099	0.057195	0.169121	0.983934	-0.235616	0.959995	-0.151310	-0.970162	-0.223176	0.094755
18612	9.623982	-7.152504	-0.906705	-2.108010	-1.298494	0.683858	0.021809	0.179158	0.983579	-0.184890	0.967566	-0.172141	-0.982517	-0.178100	0.054227
18613	9.184894	-3.864784	-0.381512	-1.072858	-1.111358	0.436058	-0.007521	0.185149	0.982682	-0.158627	0.970045	-0.183982	-0.987310	-0.157264	0.022074
18614	9.545744	0.249728	-0.945133	-0.732033	-0.899340	0.072828	-0.030110	0.183628	0.982535	-0.140584	0.972431	-0.186048	-0.989611	-0.143731	-0.003465
18615	10.168645	0.592359	-2.023715	-1.080937	-0.903644	-0.006174	-0.052567	0.180572	0.982156	-0.113887	0.976015	-0.185539	-0.992102	-0.121608	-0.030741
18616	10.015892	-1.091962	-2.789969	-1.712129	-1.032641	0.080710	-0.078488	0.179975	0.980535	-0.071300	0.980037	-0.185591	-0.994362	-0.084478	-0.064089
18617	9.586024	-2.324622	-2.438138	-1.928189	-1.206263	0.001873	-0.108564	0.178197	0.977988	-0.023425	0.983071	-0.181723	-0.993813	-0.042638	-0.102552
18618	9.160401	-3.410463	-1.731223	-1.754051	-1.179144	-0.199518	-0.137891	0.172688	0.975277	0.019412	0.984965	-0.171659	-0.990257	-0.004738	-0.139170
18619	9.140128	-3.389089	-1.459427	-1.263946	-1.013541	-0.350532	-0.163309	0.164376	0.972785	0.049248	0.986151	-0.158367	-0.985345	0.022045	-0.169143
18620	8.954069	-2.574366	-1.166544	-1.014246	-0.878362	-0.385016	-0.185557	0.155713	0.970218	0.072426	0.986846	-0.144530	-0.979961	0.043451	-0.194394
18621	8.741604	-2.447299	-0.976876	-0.963279	-0.816740	-0.364711	-0.206343	0.147930	0.967233	0.094107	0.986924	-0.130865	-0.973944	0.064021	-0.217566
18622	8.925534	-2.954176	-1.346380	-0.829607	-0.793726	-0.352110	-0.226589	0.140810	0.963758	0.112276	0.986674	-0.117761	-0.967498	0.081524	-0.239379
18623	9.417058	-2.868762	-1.522383	-0.508771	-0.725411	-0.372372	-0.245245	0.133321	0.960250	0.122289	0.986841	-0.105780	-0.961717	0.091486	-0.258322
18624	9.186946	-2.641779	-1.531011	-0.387565	-0.711264	-0.408500	-0.263646	0.125063	0.956478	0.128920	0.987233	-0.093548	-0.955966	0.098645	-0.276403
18625	9.361662	-2.314999	-1.379766	-0.409708	-0.767489	-0.424957	-0.283395	0.116675	0.951879	0.135711	0.987462	-0.080633	-0.949352	0.106329	-0.295676
18626	9.663838	-2.705934	-1.417741	-0.431664	-0.889355	-0.468389	-0.306103	0.107704	0.945886	0.142401	0.987581	-0.066368	-0.941288	0.114380	-0.317638
18627	10.607690	-1.917690	-1.214215	-0.389012	-0.774802	-0.544338	-0.326289	0.096693	0.940312	0.147157	0.987822	-0.050515	-0.933745	0.121891	-0.336545
18628	10.246849	-0.940985	-1.042727	-0.454783	-0.549687	-0.456244	-0.340844	0.087316	0.936056	0.153877	0.987431	-0.036078	-0.927441	0.131740	-0.349996
18629	10.562698	-1.885250	-0.456400	-0.551335	-0.253993	-0.267390	-0.347826	0.081744	0.933989	0.164275	0.986095	-0.025127	-0.923055	0.144691	-0.356418
18630	10.580801	-3.829519	-0.198489	-0.192044	0.072675	-0.019757	-0.346267	0.081140	0.934621	0.168482	0.985433	-0.023131	-0.922883	0.149457	-0.354893
18631	10.942747	-4.193591	-1.240844	0.168537	0.461465	0.163116	-0.334939	0.083611	0.938523	0.165915	0.985725	-0.028604	-0.927517	0.146134	-0.344030
18632	12.520232	-0.707507	-2.334085	0.528754	0.974560	0.277252	-0.311127	0.087184	0.946361	0.155760	0.986996	-0.039720	-0.937517	0.135048	-0.320661
18633	11.545761	2.095108	-2.580839	0.687599	1.759153	0.228265	-0.268727	0.087336	0.959249	0.141094	0.988708	-0.050492	-0.952827	0.121776	-0.278015
18634	10.365008	2.006323	-3.437961	0.363649	1.759597	0.046757	-0.226401	0.083410	0.970456	0.132595	0.989691	-0.054130	-0.964967	0.116422	-0.235126
18635	10.563371	-0.935933	-2.989005	0.112494	1.611139	0.061945	-0.187175	0.080397	0.979031	0.130118	0.989892	-0.056413	-0.973671	0.116830	-0.195744
18636	10.946878	-3.767038	-2.658350	0.412236	1.504001	0.338604	-0.149380	0.084675	0.985148	0.121390	0.990360	-0.066716	-0.981300	0.109621	-0.158219
18637	10.431749	-2.935691	-2.061037	1.099796	1.442488	0.538477	-0.112415	0.094660	0.989142	0.095971	0.991833	-0.084010	-0.989016	0.085485	-0.120581
18638	9.911928	-0.666812	-1.689328	1.495737	1.472557	0.563302	-0.074817	0.106270	0.991519	0.060079	0.992980	-0.101893	-0.995386	0.051946	-0.080677
18639	9.651210	0.513064	-1.748635	1.461756	1.445542	0.443323	-0.038349	0.116143	0.992492	0.024151	0.993040	-0.115274	-0.998973	0.019549	-0.040887
18640	10.368885	-0.553755	-1.810888	1.155401	1.283377	0.293714	-0.006255	0.123357	0.992343	-0.004666	0.992348	-0.123387	-0.999970	-0.005402	-0.005631
18641	10.646233	-2.188774	-1.698188	1.226918	1.188074	0.300660	0.023231	0.131516	0.991042	-0.035503	0.990793	-0.130650	-0.999100	-0.032150	0.027686
18642	10.002799	-2.205293	-1.599729	1.789762	1.203005	0.248105	0.052805	0.139370	0.988831	-0.080485	0.987585	-0.134897	-0.995356	-0.072463	0.063367
18643	8.927410	-1.131032	-1.252614	2.185265	1.135782	0.187592	0.080386	0.146896	0.985880	-0.135100	0.981559	-0.135237	-0.987566	-0.122321	0.098749
18644	8.312679	0.529744	-0.563258	2.011188	1.020075	0.132988	0.104828	0.153982	0.982497	-0.184935	0.973726	-0.132875	-0.977144	-0.167769	0.130551
18645	8.117362	1.159756	-0.156884	1.360413	0.858375	-0.038905	0.125806	0.157082	0.979540	-0.218021	0.967623	-0.127170	-0.967802	-0.197561	0.155980
18646	8.163513	0.654587	0.322623	0.701081	0.678216	-0.147263	0.142904	0.157111	0.977187	-0.234550	0.964571	-0.120782	-0.961543	-0.211939	0.174691
18647	8.118930	-0.389158	0.598260	0.255785	0.408469	-0.128284	0.153375	0.156315	0.975726	-0.240326	0.963663	-0.116605	-0.958499	-0.216608	0.185368
18648	8.068816	-0.844314	0.920937	0.321335	0.163695	-0.071258	0.157630	0.155605	0.975161	-0.247850	0.962131	-0.113462	-0.955889	-0.223809	0.190228
18649	7.605915	-0.301015	1.231683	0.585677	0.016928	-0.083929	0.158470	0.153789	0.975313	-0.261597	0.959035	-0.108718	-0.952079	-0.237911	0.192209
18650	7.555394	0.222037	1.503901	0.511469	-0.109673	-0.092871	0.156386	0.150995	0.976086	-0.273495	0.956223	-0.104103	-0.949075	-0.250675	0.190836
18651	8.125201	0.176930	1.999624	0.231530	-0.200516	-0.012369	0.151616	0.149521	0.977065	-0.279045	0.954759	-0.102806	-0.948233	-0.257058	0.186480
18652	9.910143	-0.542087	3.813190	-0.076714	-0.203871	0.043101	0.146382	0.149333	0.977892	-0.277489	0.955050	-0.104307	-0.949512	-0.256085	0.181241
18653	12.481749	-2.420078	5.820677	-0.146571	0.112622	0.099025	0.148280	0.152505	0.977116	-0.274476	0.955567	-0.107489	-0.950093	-0.252256	0.183550
18654	11.064517	-2.960689	5.008103	-0.108154	0.322232	0.330908	0.153578	0.162521	0.974680	-0.273262	0.954900	-0.116166	-0.949601	-0.248502	0.191062
18655	8.667570	-1.415853	3.203781	-0.123447	0.046168	0.498963	0.151188	0.174813	0.972925	-0.272342	0.953513	-0.129004	-0.950248	-0.245465	0.191768
18656	6.395036	-0.516353	2.493825	0.162922	-0.097555	0.481613	0.145475	0.185774	0.971764	-0.278109	0.950287	-0.140035	-0.949470	-0.249884	0.189909
18657	7.429028	-0.398709	-0.549861	0.027144	-0.780834	0.148661	0.125801	0.184487	0.974751	-0.279369	0.949381	-0.143630	-0.951907	-0.254246	0.170973
18658	16.515304	-1.565299	0.164527	0.465377	-0.969314	-0.229464	0.104288	0.172796	0.979421	-0.289888	0.947311	-0.136264	-0.951362	-0.269711	0.148884
18659	13.055704	2.501285	-0.517180	1.287732	0.241117	-0.334021	0.112447	0.166724	0.979571	-0.319546	0.939524	-0.123227	-0.940875	-0.299162	0.158923
18660	6.253725	6.261235	-2.117044	-1.034346	-0.697455	0.100750	0.095090	0.164148	0.981842	-0.295443	0.946525	-0.129630	-0.950616	-0.277751	0.138501
18661	8.461835	0.253526	-2.375533	-2.463301	-1.466101	0.466301	0.056687	0.166108	0.984477	-0.237246	0.960059	-0.148327	-0.969794	-0.225155	0.093831
18662	10.472606	-4.892367	-2.322112	-2.336518	-1.564727	0.517219	0.015676	0.170815	0.985178	-0.180714	0.969557	-0.165231	-0.983411	-0.175445	0.046067
18663	9.492406	-4.753215	-0.798035	-1.306904	-1.278525	0.294125	-0.017153	0.172848	0.984799	-0.148558	0.973571	-0.173465	-0.988755	-0.149276	0.008978
18664	9.587054	-1.837204	0.203184	-0.409524	-0.965423	0.021902	-0.041203	0.169935	0.984594	-0.138492	0.974947	-0.174066	-0.989506	-0.143530	-0.016636
18665	9.871917	-0.526287	0.039854	-0.651036	-0.739347	0.031287	-0.059702	0.168252	0.983934	-0.122412	0.977019	-0.174497	-0.990682	-0.130863	-0.037734
18666	9.829122	-0.877596	-1.475503	-1.549159	-0.823698	0.177267	-0.080680	0.170338	0.982077	-0.083749	0.980647	-0.176970	-0.993215	-0.096526	-0.064852
18667	9.141041	-1.620393	-3.025404	-2.113561	-1.011302	0.116204	-0.106061	0.171445	0.979468	-0.031031	0.983973	-0.175594	-0.993875	-0.049018	-0.099041
18668	9.199536	-2.722136	-3.341999	-1.937267	-1.145275	-0.125572	-0.134546	0.167659	0.976621	0.016600	0.985825	-0.166952	-0.990768	-0.006251	-0.135422
18669	9.165942	-3.285080	-2.883782	-1.340438	-1.087334	-0.379851	-0.161809	0.158612	0.973992	0.048251	0.987089	-0.152730	-0.985642	0.022283	-0.167373
18670	9.448057	-2.647630	-1.702271	-0.876940	-0.930148	-0.491568	-0.185470	0.147312	0.971545	0.067606	0.988269	-0.136942	-0.980321	0.040283	-0.193254
18671	9.207317	-2.342792	-0.935438	-0.712860	-0.763821	-0.436529	-0.205051	0.137550	0.969038	0.082839	0.988962	-0.122849	-0.975239	0.055084	-0.214182
18672	9.307908	-2.640545	-0.450555	-0.593722	-0.663113	-0.349263	-0.222039	0.130049	0.966326	0.095352	0.989211	-0.111219	-0.970364	0.067446	-0.232044
18673	9.087098	-2.964153	-0.856027	-0.331345	-0.471212	-0.295197	-0.234254	0.123705	0.964273	0.101630	0.989553	-0.102258	-0.966849	0.074044	-0.244379
18674	8.721870	-2.670027	-1.447873	-0.075893	-0.405348	-0.290260	-0.244851	0.117403	0.962426	0.101660	0.990279	-0.094937	-0.964216	0.074595	-0.254406
18675	9.078783	-2.457530	-1.589433	-0.040368	-0.533031	-0.267867	-0.258427	0.111891	0.959529	0.100881	0.990965	-0.088387	-0.960749	0.073957	-0.267380
18676	9.335464	-1.131037	-1.899188	-0.350072	-0.681776	-0.211338	-0.275378	0.108108	0.955238	0.107791	0.990863	-0.081066	-0.955274	0.080642	-0.284515
18677	9.851151	-0.285808	-2.183473	-0.798251	-0.808718	-0.342675	-0.295671	0.101568	0.949875	0.124266	0.989972	-0.067175	-0.947173	0.098176	-0.305328
18678	10.034751	-0.070340	-2.448414	-1.105177	-0.767141	-0.525332	-0.315584	0.090841	0.944539	0.146234	0.988172	-0.046178	-0.937562	0.123551	-0.325136
18679	10.068611	-0.721058	-2.865901	-1.110402	-0.662814	-0.543046	-0.333229	0.079843	0.939459	0.167672	0.985544	-0.024286	-0.927817	0.149428	-0.341799
18680	10.887960	-2.374918	-2.465069	-0.798527	-0.582313	-0.543949	-0.349101	0.068907	0.934548	0.181422	0.983394	-0.004738	-0.919355	0.167894	-0.355805
18681	11.613131	-4.199529	-1.706924	-0.387267	-0.362362	-0.401693	-0.359303	0.060743	0.931242	0.186693	0.982386	0.007953	-0.914356	0.176714	-0.364314
18682	12.465292	-3.183905	-1.272312	-0.188424	0.132705	-0.172922	-0.357121	0.056058	0.932374	0.189400	0.981807	0.013514	-0.914654	0.181418	-0.361242
18683	12.576064	-2.036253	-0.993996	0.300062	0.804018	0.077724	-0.338322	0.054545	0.939448	0.183125	0.983050	0.008872	-0.923040	0.175038	-0.342576
18684	10.959418	-0.119264	-0.255252	0.897544	1.451181	0.221566	-0.303612	0.054179	0.951254	0.163952	0.986461	-0.003856	-0.938584	0.154789	-0.308384
18685	9.965920	-0.367514	0.041875	0.901944	1.895706	0.307868	-0.257557	0.055078	0.964692	0.144687	0.989316	-0.017855	-0.955369	0.134980	-0.262774
18686	10.231100	-1.569208	-0.927988	0.865006	1.947040	0.476392	-0.209097	0.060920	0.975995	0.126575	0.991348	-0.034761	-0.969669	0.116268	-0.214999
18687	10.672046	-1.762858	-1.171091	1.080847	2.183637	0.734691	-0.153695	0.073597	0.985374	0.103440	0.992942	-0.058029	-0.982689	0.093008	-0.160223
18688	10.254845	-0.707549	-1.736500	1.423194	2.253407	0.794924	-0.096317	0.089141	0.991351	0.070674	0.994080	-0.082520	-0.992838	0.062115	-0.102047
18689	10.222220	1.008882	-2.450685	1.417114	1.992815	0.607896	-0.045914	0.102082	0.993716	0.036372	0.994276	-0.100459	-0.998283	0.031531	-0.049364
18690	11.285516	1.267747	-2.031439	0.925616	1.652849	0.372399	-0.004425	0.110575	0.993858	0.013379	0.993785	-0.110507	-0.999901	0.012808	-0.005877
18691	12.355629	-0.972657	-2.430723	0.481024	1.684017	0.262344	0.037672	0.116851	0.992435	0.001142	0.993134	-0.116976	-0.999289	0.005541	0.037280
18692	11.091474	-2.298263	-2.522779	0.804148	1.710013	0.346254	0.080214	0.125669	0.988824	-0.019544	0.992028	-0.124490	-0.996586	-0.009339	0.082031
18693	9.903569	-1.650062	-2.127061	1.379594	1.652139	0.283660	0.120952	0.133826	0.983596	-0.054661	0.990265	-0.128012	-0.991152	-0.038281	0.127090
18694	8.272388	0.020501	-1.722660	1.608782	1.427626	0.302047	0.155556	0.143423	0.977360	-0.095540	0.986950	-0.129624	-0.983196	-0.073213	0.167228
18695	6.298775	0.497651	-1.754439	1.242739	1.143488	0.117240	0.183142	0.148917	0.971742	-0.126581	0.983804	-0.126910	-0.974903	-0.099761	0.199026
18696	5.919306	0.854334	-1.117957	0.927408	0.682645	0.012244	0.199594	0.151220	0.968140	-0.149291	0.981179	-0.122478	-0.968439	-0.120088	0.218413
18697	6.504278	0.505731	-0.328543	0.627210	0.295424	-0.021826	0.206722	0.151743	0.966561	-0.164453	0.979234	-0.118560	-0.964480	-0.134445	0.227384
18698	6.896380	0.432786	0.139178	0.493165	-0.078876	-0.063249	0.204992	0.150030	0.967197	-0.176125	0.977706	-0.114331	-0.962787	-0.146911	0.226846
18699	6.976504	0.418715	0.172083	0.402956	-0.447885	-0.154802	0.194805	0.144644	0.970118	-0.185166	0.976705	-0.108444	-0.963206	-0.158507	0.217050
18700	7.320037	0.412892	0.987244	0.085954	-0.702691	-0.216905	0.178759	0.136621	0.974361	-0.186335	0.977091	-0.102818	-0.966087	-0.163178	0.200121
18701	9.629363	-1.284918	4.463186	-0.512945	-0.938732	-0.043108	0.156099	0.131943	0.978889	-0.173830	0.979240	-0.104271	-0.972325	-0.153884	0.175794
18702	14.359551	-3.706293	7.771818	-0.369547	-0.478589	0.346200	0.142873	0.138722	0.979971	-0.166230	0.979427	-0.114410	-0.975682	-0.146554	0.162993
18703	12.918803	-3.045212	7.145318	0.508339	0.134796	0.377893	0.144430	0.148581	0.978296	-0.180077	0.976100	-0.121662	-0.972991	-0.158597	0.167734
18704	9.450643	-2.736394	5.049299	1.078430	0.393157	0.448127	0.151705	0.161273	0.975180	-0.207992	0.969717	-0.128013	-0.966294	-0.183410	0.180655
18705	6.826155	0.612506	4.284278	1.180708	0.296398	0.491285	0.156017	0.174709	0.972181	-0.238408	0.961795	-0.134582	-0.958551	-0.210778	0.191709
18706	7.391561	2.129740	0.972605	0.152692	-0.497180	0.161590	0.143053	0.176042	0.973933	-0.242785	0.960228	-0.137904	-0.959475	-0.216729	0.180103
18707	17.909991	-0.919091	1.925857	-0.249311	-0.249018	-0.421127	0.139518	0.164679	0.976430	-0.235415	0.963318	-0.128830	-0.961829	-0.211892	0.173169
18708	9.847561	-1.057596	-2.624184	0.638168	0.421718	-0.007210	0.149601	0.166904	0.974558	-0.250794	0.959821	-0.125882	-0.956411	-0.225581	0.185449
18709	5.800254	2.789726	-3.392959	-0.898094	-0.952199	0.490403	0.123692	0.173616	0.977015	-0.230997	0.962565	-0.141804	-0.965060	-0.208147	0.159166
18710	9.045906	-1.101745	-3.521219	-1.572099	-1.479734	0.430117	0.085383	0.176958	0.980508	-0.194033	0.968213	-0.157842	-0.977272	-0.176774	0.117004
18711	11.143584	-2.698039	-3.602814	-1.156634	-1.449908	0.117691	0.049188	0.173877	0.983538	-0.165944	0.972466	-0.163621	-0.984908	-0.155164	0.076688
18712	9.772782	-1.384230	-2.674678	-0.450458	-1.307475	-0.052684	0.017049	0.167692	0.985692	-0.154876	0.974380	-0.163089	-0.987787	-0.149880	0.042584
18713	9.829937	-0.332276	-1.217533	-0.168725	-1.311764	-0.125882	-0.014991	0.159768	0.987041	-0.150785	0.975501	-0.160190	-0.988453	-0.151232	0.009467
18714	10.025552	-0.094268	-0.381122	-0.466264	-1.220424	-0.057842	-0.045070	0.153919	0.987055	-0.139375	0.977427	-0.158782	-0.989213	-0.144727	-0.022600
18715	9.803278	-0.321736	-0.313015	-1.101923	-1.166615	0.050737	-0.074222	0.151344	0.985691	-0.112090	0.980887	-0.159047	-0.990922	-0.122291	-0.055840
18716	9.749418	-1.497749	-0.329207	-1.800628	-1.116519	0.119479	-0.102287	0.151502	0.983150	-0.067237	0.985021	-0.158786	-0.992480	-0.082346	-0.090568
18717	9.544141	-3.389386	-0.749733	-1.961021	-1.008015	0.104517	-0.127509	0.152649	0.980020	-0.018348	0.987554	-0.156209	-0.991668	-0.037900	-0.123121
18718	9.178573	-4.117696	-0.910827	-1.645217	-0.789565	-0.068483	-0.147161	0.150673	0.977569	0.022092	0.988584	-0.149045	-0.988866	-0.000337	-0.148810
18719	9.007838	-3.877784	-1.067222	-1.154079	-0.616713	-0.235121	-0.162687	0.145161	0.975941	0.049602	0.989071	-0.138845	-0.985430	0.025820	-0.168109
18720	8.977350	-2.511302	-1.451349	-0.796951	-0.577067	-0.297675	-0.177406	0.138410	0.974356	0.067868	0.989424	-0.128194	-0.981795	0.043385	-0.184923
18721	8.721743	-1.053053	-2.404780	-0.778726	-0.694491	-0.367403	-0.195203	0.130338	0.972064	0.085159	0.989639	-0.115594	-0.977059	0.060216	-0.204280
18722	9.320351	-0.819060	-2.582197	-0.727472	-0.854690	-0.476355	-0.217208	0.120119	0.968706	0.100355	0.989889	-0.100244	-0.970953	0.075441	-0.227067
18723	9.490054	-1.704198	-2.106696	-0.596265	-0.910019	-0.523334	-0.240696	0.109139	0.964445	0.111723	0.990169	-0.084168	-0.964149	0.087492	-0.250523
18724	9.418988	-2.349883	-1.362117	-0.534056	-0.801013	-0.535664	-0.261582	0.097864	0.960207	0.121131	0.990309	-0.067933	-0.957550	0.098541	-0.270902
18725	9.845782	-2.834088	-0.440646	-0.461784	-0.876677	-0.497759	-0.284123	0.087930	0.954747	0.128691	0.990273	-0.052905	-0.950112	0.107836	-0.292675
18726	10.228340	-2.741472	0.185074	-0.522242	-0.827235	-0.394563	-0.305080	0.080643	0.948906	0.138082	0.989624	-0.039709	-0.942263	0.118913	-0.313049
18727	10.737020	-2.116795	0.330190	-0.536437	-0.653612	-0.333681	-0.321675	0.074570	0.943909	0.148003	0.988600	-0.027663	-0.935211	0.130803	-0.329044
18728	9.801991	-2.316350	-0.216549	-0.523262	-0.370174	-0.243826	-0.331291	0.069957	0.940932	0.158161	0.987254	-0.017715	-0.930178	0.142950	-0.338133
18729	9.656515	-1.771278	-1.645149	-0.693369	-0.140722	-0.146752	-0.335206	0.067020	0.939758	0.172974	0.984889	-0.008539	-0.926130	0.159692	-0.341733
18730	10.561051	-3.085889	-1.344356	-0.371626	0.061566	-0.010948	-0.333866	0.066649	0.940261	0.181428	0.983390	-0.005285	-0.924996	0.168826	-0.340413
18731	12.339245	-2.876313	-1.313575	0.012634	0.641549	0.094601	-0.318587	0.066420	0.945564	0.181849	0.983295	-0.007800	-0.930286	0.169465	-0.325344
18732	12.984933	-0.584952	-2.107517	0.378526	1.293755	0.188910	-0.287491	0.065867	0.955516	0.174358	0.984562	-0.015409	-0.941779	0.162172	-0.294537
18733	11.360240	1.133345	-1.946422	0.925427	1.742527	0.212625	-0.245269	0.064645	0.967297	0.153735	0.987742	-0.027030	-0.957188	0.142078	-0.252201
18734	10.609011	0.176977	-2.231153	0.595996	1.709270	0.265865	-0.203150	0.065561	0.976950	0.140801	0.989342	-0.037114	-0.968971	0.130016	-0.210215
18735	10.607427	-2.660275	-2.390625	0.456940	1.586324	0.460430	-0.162995	0.072126	0.983987	0.131711	0.989988	-0.050749	-0.977796	0.121330	-0.170863
18736	10.348571	-3.358694	-2.111350	1.113910	1.468541	0.686551	-0.124910	0.085298	0.988495	0.106740	0.991671	-0.072084	-0.986410	0.096508	-0.132975
18737	10.233393	-1.043771	-1.506463	1.810168	1.471932	0.664643	-0.087074	0.099176	0.991253	0.063575	0.993557	-0.093822	-0.994171	0.054849	-0.092818
18738	10.163673	1.313656	-1.619497	2.043120	1.552898	0.467141	-0.047964	0.109726	0.992804	0.013344	0.993930	-0.109206	-0.998760	0.008010	-0.049137
18739	11.980819	0.834150	-1.071499	1.485460	1.631241	0.290913	-0.007288	0.117437	0.993054	-0.023679	0.992781	-0.117578	-0.999693	-0.024371	-0.004454
18740	11.407551	-0.589482	-1.250134	1.148336	1.842926	0.261833	0.038440	0.125726	0.991320	-0.052569	0.990934	-0.123638	-0.997877	-0.047360	0.044701
18741	9.784279	-0.267826	-1.450124	1.346913	1.711531	0.263283	0.080527	0.134999	0.987568	-0.086598	0.987987	-0.127995	-0.992983	-0.075215	0.091250
18742	8.825882	0.425147	-1.304749	1.259823	1.587307	0.220736	0.119164	0.144067	0.982367	-0.118431	0.984415	-0.130001	-0.985786	-0.100851	0.134368
18743	7.629177	0.791788	-0.833640	0.792309	1.334987	0.261177	0.151035	0.154217	0.976425	-0.138886	0.981269	-0.133499	-0.978723	-0.115448	0.169625
18744	7.320515	-0.716702	-0.462263	0.303845	1.006385	0.111870	0.175116	0.160024	0.971456	-0.146870	0.979908	-0.134942	-0.973531	-0.119047	0.195100
18745	6.916795	-1.798035	0.025297	0.228740	0.596654	0.134591	0.189021	0.165233	0.967972	-0.153154	0.978639	-0.137146	-0.969956	-0.122325	0.210290
18746	6.783080	-1.769900	0.474126	0.481123	0.192694	0.156068	0.192975	0.169776	0.966404	-0.165665	0.976415	-0.138454	-0.967117	-0.133381	0.216550
18747	6.508604	-1.231421	0.710989	0.767048	-0.114437	0.152166	0.189451	0.173189	0.966496	-0.185029	0.972984	-0.138082	-0.964299	-0.152670	0.216377
18748	6.699670	-0.700313	1.020613	0.829049	-0.333055	0.123539	0.180729	0.174937	0.967850	-0.205678	0.969019	-0.136742	-0.961787	-0.174352	0.211111
18749	7.257468	-0.221161	1.544863	0.556797	-0.532025	0.105754	0.167277	0.175178	0.970222	-0.219636	0.965979	-0.136544	-0.961134	-0.190255	0.200062
18750	9.817926	-1.630399	5.374611	0.333527	-0.649517	0.139362	0.150782	0.175465	0.972870	-0.228319	0.963696	-0.138423	-0.961839	-0.201253	0.185370
18751	13.385660	-2.121499	7.600735	0.823572	-0.084877	0.044272	0.148387	0.176184	0.973109	-0.248353	0.959106	-0.135778	-0.957237	-0.221527	0.186074
18752	11.946490	-1.840191	6.603836	0.932116	0.206689	0.031560	0.153025	0.178243	0.972015	-0.270812	0.953509	-0.132215	-0.950392	-0.243001	0.194181
18753	8.711390	-2.209888	5.229770	1.173068	0.374943	0.325909	0.159485	0.188480	0.969041	-0.299929	0.944456	-0.134336	-0.940536	-0.269219	0.207157
18754	9.471542	-0.024707	0.277205	1.014199	-0.322075	0.156921	0.150640	0.190004	0.970158	-0.324416	0.936512	-0.133041	-0.933842	-0.294694	0.202717
18755	15.059975	1.699041	-0.965837	0.028870	-0.206021	-0.085109	0.146443	0.186587	0.971463	-0.324886	0.936647	-0.130925	-0.934347	-0.296442	0.197784
18756	7.153181	3.484921	-4.408056	0.073969	-0.410015	0.196140	0.135179	0.188201	0.972783	-0.327409	0.935128	-0.135419	-0.935163	-0.300192	0.188028
18757	7.944429	0.336051	-2.988237	-1.252636	-1.224746	0.422704	0.102931	0.189357	0.976498	-0.299260	0.942124	-0.151146	-0.948603	-0.276669	0.153641
18758	10.523175	-3.009009	-3.673988	-1.279253	-1.345347	0.247663	0.068960	0.186371	0.980056	-0.269346	0.949391	-0.161587	-0.960571	-0.252831	0.115669
18759	10.524398	-1.594423	-2.768606	-0.945095	-1.305250	0.144409	0.036442	0.181891	0.982643	-0.246830	0.954469	-0.167522	-0.968373	-0.236441	0.079679
18760	10.663915	-0.163287	-1.874395	-0.958979	-1.380874	0.124509	0.002048	0.177061	0.984198	-0.223675	0.959345	-0.172124	-0.974662	-0.219788	0.041569
18761	9.951572	-0.889758	-1.622061	-1.194555	-1.450227	0.213249	-0.034633	0.174687	0.984015	-0.194465	0.964608	-0.178087	-0.980298	-0.197524	0.000563
18762	10.011566	-0.917602	-0.931241	-1.704670	-1.435082	0.239673	-0.071071	0.174091	0.982161	-0.152312	0.971210	-0.183172	-0.985774	-0.162613	-0.042509
18763	9.568832	-2.426142	-0.114382	-2.273937	-1.252412	0.141887	-0.102573	0.173307	0.979512	-0.095885	0.978398	-0.183150	-0.990093	-0.112707	-0.083739
18764	8.800739	-4.027521	-0.238946	-2.190159	-0.988970	-0.037284	-0.127117	0.170292	0.977160	-0.041801	0.983357	-0.176810	-0.991006	-0.063322	-0.117883
18765	8.437136	-4.513474	-0.992533	-1.688979	-0.837545	-0.141184	-0.147881	0.165976	0.974978	-0.000540	0.985804	-0.167901	-0.989005	-0.025356	-0.145692
18766	8.782068	-3.058637	-1.796725	-1.322190	-0.780888	-0.250019	-0.167353	0.159701	0.972876	0.031046	0.987157	-0.156705	-0.985408	0.003978	-0.170162
18767	8.976596	-1.444640	-2.361363	-1.109363	-0.777909	-0.406238	-0.187017	0.150090	0.970823	0.056448	0.988268	-0.141913	-0.980733	0.028261	-0.193295
18768	8.986255	-1.071906	-2.562738	-0.875941	-0.880112	-0.539506	-0.209520	0.137687	0.968062	0.075126	0.989377	-0.124458	-0.974914	0.046650	-0.217638
18769	8.714083	-1.907876	-1.338065	-0.586985	-1.080154	-0.589216	-0.237036	0.124621	0.963475	0.086032	0.990535	-0.106956	-0.967684	0.057538	-0.245513
18770	8.941884	-3.288374	-0.436733	-0.632058	-1.302557	-0.555330	-0.269762	0.113043	0.956269	0.097674	0.991176	-0.089616	-0.957961	0.069227	-0.278422
18771	10.128355	-3.311446	-0.491046	-0.976785	-1.455619	-0.479910	-0.305765	0.104161	0.946392	0.117403	0.990537	-0.071088	-0.944841	0.089373	-0.315101
18772	11.221731	-1.937354	-0.147574	-1.241459	-0.923580	-0.500509	-0.329154	0.094298	0.939556	0.142529	0.988563	-0.049284	-0.933457	0.117692	-0.338830
18773	10.726370	-2.636157	-0.797442	-1.082906	-0.410522	-0.393721	-0.340269	0.086054	0.936382	0.164355	0.985918	-0.030882	-0.925853	0.143391	-0.349621
18774	11.172103	-3.931389	-1.017599	-0.546011	0.004951	-0.186132	-0.340998	0.081593	0.936517	0.175343	0.984264	-0.021908	-0.923567	0.156741	-0.349938
18775	11.568254	-4.971971	0.081834	0.281049	0.371639	0.126626	-0.331894	0.083431	0.939620	0.169850	0.985087	-0.027473	-0.927899	0.150476	-0.341115
18776	12.498559	-4.111821	0.018370	0.915048	0.890890	0.387712	-0.309582	0.090027	0.946601	0.151545	0.987455	-0.044350	-0.938719	0.129723	-0.319341
18777	12.627350	0.306446	0.212219	1.302362	1.826922	0.506828	-0.264573	0.097434	0.959431	0.124255	0.990034	-0.066278	-0.956327	0.101679	-0.274043
18778	10.000741	2.921064	-1.685546	1.021442	2.325979	0.283768	-0.207682	0.099282	0.973145	0.101214	0.991677	-0.079572	-0.972946	0.081970	-0.216002
18779	11.422902	0.461053	-2.261085	0.149225	2.150774	0.158903	-0.154708	0.098920	0.982996	0.098207	0.991587	-0.084328	-0.983067	0.083490	-0.163121
18780	11.527376	-3.518106	-3.272783	-0.007054	1.926823	0.440186	-0.106126	0.105829	0.988705	0.099734	0.990439	-0.095310	-0.989338	0.088493	-0.115666
18781	10.819079	-4.446446	-2.990537	0.674592	1.495869	0.671621	-0.067515	0.119535	0.990532	0.084371	0.989925	-0.113711	-0.994144	0.075895	-0.076920
18782	10.088083	-1.647590	-2.702809	1.369369	1.298280	0.674896	-0.034071	0.134419	0.990339	0.051016	0.989856	-0.132599	-0.998116	0.046005	-0.040583
18783	10.163986	-0.058136	-2.376360	1.721764	1.233261	0.470013	-0.002962	0.145380	0.989372	0.008111	0.989347	-0.145352	-0.999963	0.007595	-0.004110
18784	11.096135	-1.110956	-2.026421	1.685474	1.404912	0.366307	0.031972	0.154956	0.987404	-0.034256	0.987498	-0.153862	-0.998902	-0.028906	0.036880
18785	10.046979	-1.452734	-2.013055	1.961895	1.468516	0.288006	0.068075	0.164041	0.984102	-0.083624	0.983857	-0.158216	-0.994169	-0.071524	0.080694
18786	9.017707	-0.356757	-1.875974	2.211626	1.334621	0.116151	0.100703	0.170227	0.980246	-0.138724	0.978032	-0.155592	-0.985198	-0.120315	0.122105
18787	8.828489	0.645609	-1.507822	1.952566	1.127791	0.003730	0.128221	0.174441	0.976284	-0.186683	0.971057	-0.148989	-0.974017	-0.163152	0.157075
18788	8.109491	0.627010	-0.772127	1.557339	1.005572	-0.056174	0.152752	0.177718	0.972154	-0.224304	0.964260	-0.141030	-0.962473	-0.196515	0.187156
18789	7.946782	-0.468203	0.531711	1.002678	0.877107	-0.061841	0.174010	0.180866	0.967992	-0.248173	0.959315	-0.134632	-0.952959	-0.216802	0.211816
18790	8.074356	-1.135880	1.738684	0.564347	0.725911	0.075629	0.190646	0.186803	0.963721	-0.262027	0.955792	-0.133431	-0.946042	-0.227082	0.231166
18791	7.424572	-0.566719	1.762995	0.517081	0.460221	0.085828	0.200808	0.191619	0.960707	-0.274753	0.952339	-0.132521	-0.940312	-0.237345	0.243885
18792	6.928973	0.653386	1.560413	0.615290	0.181050	-0.065378	0.205398	0.191265	0.959807	-0.288957	0.948848	-0.127245	-0.935048	-0.251207	0.250159
18793	6.547493	1.104212	1.213016	0.330980	-0.053376	-0.272351	0.206025	0.184554	0.960986	-0.295395	0.947969	-0.118725	-0.932896	-0.259410	0.249822
18794	7.360959	0.588685	1.634949	-0.303175	-0.350401	-0.259696	0.199612	0.176223	0.963899	-0.287099	0.951043	-0.114417	-0.936872	-0.253896	0.240433
18795	8.817650	-0.625400	2.903717	-0.412409	-0.414500	-0.196041	0.191146	0.169041	0.966896	-0.276562	0.954425	-0.112187	-0.941794	-0.245962	0.229185
18796	10.382917	-2.729434	3.936658	-0.341332	-0.424269	0.041048	0.180744	0.167524	0.969158	-0.268801	0.956286	-0.115169	-0.946085	-0.239695	0.217873
18797	10.247292	-3.614159	5.125721	-0.176766	-0.327993	0.493888	0.169560	0.177455	0.969412	-0.266883	0.955169	-0.128167	-0.948695	-0.236987	0.209318
18798	8.113033	-3.011392	4.632064	0.145581	-0.368521	0.469512	0.157549	0.186534	0.969734	-0.272365	0.952116	-0.138895	-0.949208	-0.242239	0.200810
18799	7.288636	-1.493031	3.373962	0.254284	-0.582937	0.167015	0.142461	0.187008	0.971974	-0.279138	0.949721	-0.141814	-0.949625	-0.251112	0.187500
18800	15.854359	-0.450444	2.161284	0.250789	-1.163012	-0.372101	0.117344	0.170807	0.978292	-0.284000	0.949729	-0.131755	-0.951617	-0.262374	0.159954
18801	21.190881	-2.727710	5.212991	1.597497	0.814819	-0.667831	0.141526	0.160807	0.976786	-0.319663	0.941282	-0.108646	-0.936902	-0.296866	0.184619
18802	5.522738	2.563609	-3.641779	1.145995	0.864672	0.134328	0.160427	0.170711	0.972173	-0.346938	0.931836	-0.106377	-0.924065	-0.320219	0.208717
18803	3.907097	6.116162	-3.853968	-1.290500	-0.939529	0.732407	0.132344	0.180694	0.974595	-0.319675	0.938485	-0.130590	-0.938239	-0.294270	0.181966
18804	9.781185	0.464245	-3.376514	-2.127890	-1.506775	0.508419	0.092752	0.182490	0.978823	-0.270735	0.950645	-0.151581	-0.958175	-0.250942	0.137581
18805	11.259573	-3.186985	-3.529294	-2.078741	-1.224863	0.145818	0.062161	0.179020	0.981880	-0.220897	0.961852	-0.161384	-0.973314	-0.206863	0.099335
18806	9.717987	-2.338520	-2.826831	-1.396196	-1.241828	0.082363	0.031261	0.175082	0.984058	-0.186945	0.968189	-0.166319	-0.981873	-0.178766	0.062998
18807	9.469239	-2.210581	-1.913037	-0.882937	-1.351328	0.039457	-0.002293	0.170325	0.985385	-0.165313	0.971766	-0.168355	-0.986239	-0.163283	0.025928
18808	10.196451	-2.155071	-0.755348	-0.615373	-1.322946	0.018745	-0.035156	0.165601	0.985566	-0.150190	0.974100	-0.169032	-0.988032	-0.153965	-0.009374
18809	9.683995	-1.506552	0.124749	-0.864776	-1.188362	0.004566	-0.064689	0.161448	0.984759	-0.128876	0.977210	-0.168676	-0.989549	-0.137823	-0.042408
18810	9.404643	-1.610358	-0.033604	-1.428508	-1.067336	0.053956	-0.091406	0.159572	0.982945	-0.093460	0.981346	-0.168004	-0.991418	-0.107223	-0.074787
18811	9.450180	-3.129421	-0.175800	-1.625877	-0.895153	0.013263	-0.113757	0.157983	0.980867	-0.053173	0.984893	-0.164798	-0.992085	-0.070903	-0.103638
18812	9.352353	-4.296877	-0.260966	-1.271007	-0.648196	-0.076071	-0.129880	0.155277	0.979296	-0.021957	0.986969	-0.159406	-0.991287	-0.042206	-0.124778
18813	9.031535	-3.583817	-0.619301	-0.699312	-0.375206	-0.165723	-0.139236	0.150960	0.978685	-0.005261	0.988185	-0.153174	-0.990245	-0.026476	-0.136797
18814	8.858279	-1.833390	-2.017668	-0.450726	-0.411476	-0.221030	-0.149530	0.145377	0.978011	0.005021	0.989231	-0.146277	-0.988744	-0.016962	-0.148650
18815	8.830595	-0.177307	-3.218765	-0.713922	-0.714582	-0.329307	-0.167391	0.137165	0.976302	0.021268	0.990546	-0.135520	-0.985661	-0.001921	-0.168726
18816	9.175910	-0.777680	-3.340622	-0.869762	-1.051931	-0.524894	-0.193765	0.124447	0.973123	0.040208	0.992096	-0.118867	-0.980224	0.016095	-0.197238
18817	9.320305	-1.371152	-2.813192	-0.735048	-1.192909	-0.634805	-0.223769	0.109494	0.968472	0.054783	0.993512	-0.099667	-0.973101	0.030754	-0.228316
18818	9.412498	-1.258355	-1.670726	-0.784178	-1.124697	-0.728917	-0.252273	0.092584	0.963217	0.069389	0.994581	-0.077426	-0.965165	0.047304	-0.257330
18819	9.853559	-1.826042	-0.623548	-0.934603	-1.157412	-0.653163	-0.281460	0.078122	0.956387	0.087418	0.994623	-0.055518	-0.955583	0.067979	-0.286776
18820	10.649955	-2.702495	0.305334	-0.997908	-1.026750	-0.523759	-0.307243	0.067259	0.949251	0.107229	0.993593	-0.035694	-0.945570	0.090820	-0.312487
18821	10.166092	-3.407815	0.718127	-0.872590	-0.652804	-0.360776	-0.323753	0.060078	0.944232	0.124877	0.991965	-0.020298	-0.937865	0.111341	-0.328654
18822	9.972193	-3.648717	0.555790	-0.782447	-0.391516	-0.253856	-0.333827	0.055103	0.941022	0.141028	0.989974	-0.007940	-0.932025	0.130060	-0.338251
18823	10.241910	-3.633238	-0.363315	-0.634235	-0.126045	-0.119974	-0.337268	0.052713	0.939932	0.154720	0.987958	0.000111	-0.928607	0.145464	-0.341363
18824	10.350523	-2.090075	-1.619160	-0.434358	0.129962	-0.045036	-0.334487	0.051261	0.941005	0.164368	0.986388	0.004692	-0.927956	0.156240	-0.338360
18825	11.172514	-1.269726	-2.354178	-0.287706	0.329488	-0.066370	-0.327163	0.048464	0.943724	0.170442	0.985331	0.008487	-0.929470	0.163627	-0.330624
18826	12.856551	-0.145869	-3.376061	-0.254126	0.676892	-0.059440	-0.311699	0.044331	0.949146	0.175827	0.984351	0.011766	-0.933771	0.170553	-0.314616
18827	12.931944	-0.623405	-2.389331	0.500315	1.101303	-0.000033	-0.285888	0.039949	0.957430	0.164021	0.986426	0.007817	-0.944122	0.159273	-0.288559
18828	11.385237	-1.368740	-1.632700	0.805563	1.390849	0.196795	-0.252115	0.039755	0.966880	0.146136	0.989261	-0.002570	-0.956599	0.140648	-0.255217
18829	10.208509	-1.718148	-0.661412	1.131178	1.609530	0.448958	-0.211889	0.045910	0.976215	0.121425	0.992393	-0.020316	-0.969721	0.114232	-0.215851
18830	10.258203	-1.689867	-0.497938	1.474699	1.862138	0.675481	-0.164701	0.058339	0.984617	0.088529	0.995095	-0.044152	-0.982363	0.079895	-0.169058
18831	10.276903	-0.537600	-0.629129	1.725710	2.021403	0.758489	-0.113526	0.074357	0.990749	0.048463	0.996423	-0.069230	-0.992352	0.040155	-0.116723
18832	10.026104	1.311103	-1.629116	1.583978	1.930934	0.600048	-0.065075	0.088388	0.993958	0.010287	0.996076	-0.087902	-0.997827	0.004505	-0.065728
18833	10.468157	1.656330	-1.963508	0.964035	1.607603	0.334613	-0.024991	0.097097	0.994961	-0.013511	0.995148	-0.097454	-0.999596	-0.015879	-0.023558
18834	11.353404	-0.248870	-2.193564	0.312681	1.485689	0.253361	0.011977	0.104206	0.994484	-0.021387	0.994354	-0.103935	-0.999700	-0.020025	0.014138
18835	10.821709	-1.836566	-2.196159	0.668953	1.510935	0.300988	0.049426	0.112817	0.992386	-0.038431	0.993079	-0.110982	-0.998038	-0.032653	0.053419
18836	10.391777	-1.909110	-1.910417	1.550953	1.661348	0.283722	0.090297	0.122046	0.988408	-0.077645	0.990305	-0.115187	-0.992883	-0.066344	0.098898
18837	9.538396	-0.663421	-1.437395	1.805040	1.629145	0.198708	0.129981	0.130599	0.982878	-0.122922	0.985763	-0.114726	-0.983867	-0.105905	0.144184
18838	8.425623	0.733380	-1.054118	1.679869	1.422323	0.094161	0.164339	0.137458	0.976779	-0.164478	0.980198	-0.110267	-0.972594	-0.142538	0.183694
18839	6.583306	1.073792	-1.143338	1.147209	1.114764	-0.069820	0.191514	0.140180	0.971428	-0.192037	0.975970	-0.102976	-0.962520	-0.166829	0.213832
18840	5.911518	1.386268	-0.821004	0.642407	0.635348	-0.070251	0.206991	0.141333	0.968080	-0.207210	0.973395	-0.097804	-0.956148	-0.180351	0.230770
18841	6.003346	0.746312	-0.555665	0.284220	0.200304	-0.013752	0.211728	0.142017	0.966955	-0.214035	0.972106	-0.095908	-0.953604	-0.186656	0.236219
18842	5.987983	0.323791	-0.641439	0.159007	-0.260266	0.015086	0.205318	0.141247	0.968449	-0.218016	0.971268	-0.095437	-0.954103	-0.191542	0.230213
18843	6.022715	0.629309	-0.575037	-0.101260	-0.716523	-0.018410	0.188163	0.137456	0.972471	-0.215613	0.971784	-0.095640	-0.958178	-0.191681	0.212491
18844	7.457043	-0.210178	1.385475	-0.586174	-1.158152	0.019582	0.160067	0.132616	0.978157	-0.201700	0.974421	-0.099103	-0.966279	-0.181431	0.182722
18845	14.486096	-5.576814	7.920682	-0.784629	-1.022299	0.314330	0.133628	0.135931	0.981665	-0.183925	0.976742	-0.110212	-0.973815	-0.165825	0.155521
18846	15.253467	-3.527015	7.747263	0.804584	-0.206727	0.293961	0.127057	0.142282	0.981638	-0.204544	0.972146	-0.114431	-0.970576	-0.186249	0.152621
18847	11.360993	-3.214387	6.790186	1.030881	0.318650	0.333571	0.132840	0.152046	0.979406	-0.230666	0.965773	-0.118644	-0.963923	-0.210155	0.163365
18848	8.938601	-2.567613	4.902797	1.759562	0.346692	0.448145	0.138214	0.164909	0.976577	-0.274435	0.953806	-0.122223	-0.951621	-0.251114	0.177086
18849	9.234649	1.429065	1.911846	1.929853	-0.063350	0.156647	0.135457	0.168291	0.976386	-0.320664	0.939875	-0.117512	-0.937457	-0.297174	0.181277
18850	13.888616	2.224065	-0.641339	0.662457	0.102781	-0.192133	0.139340	0.164666	0.976458	-0.335591	0.935577	-0.109884	-0.931645	-0.312379	0.185623
18851	6.624468	5.695765	-4.412183	0.277006	-0.056678	0.152992	0.136624	0.167872	0.976295	-0.342667	0.932706	-0.112424	-0.929469	-0.319184	0.184954
18852	7.291890	2.922086	-2.430079	-1.328708	-1.092675	0.421320	0.107475	0.169441	0.979663	-0.312931	0.941052	-0.128432	-0.943675	-0.292763	0.154163
18853	10.601717	-2.658523	-4.678810	-2.179321	-1.595050	0.370658	0.066675	0.167490	0.983616	-0.261869	0.954190	-0.144729	-0.962797	-0.247929	0.107481
18854	10.679702	-3.356171	-4.275401	-1.537839	-1.557711	0.170409	0.027793	0.162561	0.986307	-0.224913	0.962405	-0.152284	-0.973982	-0.217600	0.063310
18855	10.347976	-2.168897	-2.803030	-0.854281	-1.625532	0.059831	-0.012352	0.155504	0.987758	-0.204145	0.966635	-0.154732	-0.978863	-0.203557	0.019805
18856	10.370824	-1.167187	-1.163303	-0.669860	-1.471798	0.021961	-0.048666	0.148800	0.987669	-0.187789	0.969843	-0.155367	-0.981003	-0.193034	-0.019256
18857	9.859313	-1.298220	-0.293897	-1.223217	-1.332155	0.067231	-0.081830	0.144479	0.986118	-0.157696	0.975096	-0.155950	-0.984091	-0.168268	-0.057009
18858	9.126233	-1.866363	-0.203084	-1.873432	-1.293300	0.030523	-0.113951	0.140515	0.983499	-0.111510	0.981883	-0.153204	-0.987208	-0.127128	-0.096218
18859	8.923595	-3.269742	-0.445986	-2.055884	-1.132175	-0.131025	-0.141765	0.134423	0.980731	-0.061218	0.987650	-0.144220	-0.988006	-0.080483	-0.131785
18860	8.753868	-3.995994	-1.197097	-1.570115	-0.964347	-0.307949	-0.165365	0.125378	0.978230	-0.023714	0.991094	-0.131035	-0.985947	-0.044866	-0.160919
18861	9.045967	-2.516622	-1.634785	-1.113539	-0.850433	-0.489671	-0.186282	0.112636	0.976018	0.001472	0.993438	-0.114366	-0.982495	-0.019867	-0.185226
18862	8.992781	-0.839638	-2.248056	-1.071495	-0.858254	-0.524075	-0.207612	0.099545	0.973133	0.025089	0.995023	-0.096431	-0.977889	0.004395	-0.209077
18863	8.891602	-0.499081	-2.432528	-1.112086	-1.027084	-0.561704	-0.233279	0.086106	0.968590	0.049031	0.995846	-0.076720	-0.971173	0.029594	-0.236532
18864	9.491123	-1.778835	-1.617795	-0.844308	-1.057097	-0.564976	-0.259775	0.073174	0.962893	0.065913	0.996143	-0.057918	-0.963417	0.048421	-0.263596
18865	9.702641	-2.645664	-0.449243	-0.627368	-0.920084	-0.519961	-0.282896	0.061610	0.957170	0.077384	0.996148	-0.041247	-0.956024	0.062401	-0.286574
18866	10.297785	-2.995431	0.495624	-0.547248	-0.865221	-0.399545	-0.304422	0.053261	0.951047	0.087426	0.995784	-0.027782	-0.948517	0.074689	-0.307795
18867	10.584275	-2.519951	0.606192	-0.666938	-0.739052	-0.233049	-0.322522	0.049111	0.945287	0.101302	0.994709	-0.017116	-0.941126	0.090239	-0.325790
18868	10.265997	-2.460691	-0.550176	-0.763444	-0.329170	-0.128013	-0.330677	0.046881	0.942579	0.118122	0.992967	-0.007948	-0.936323	0.108711	-0.333889
18869	9.691502	-1.056366	-2.221643	-0.804800	-0.084151	-0.166433	-0.333239	0.043142	0.941855	0.135495	0.990775	0.002557	-0.933056	0.128469	-0.336010
18870	10.747211	-0.367878	-1.824185	-0.551562	0.044188	-0.126048	-0.332718	0.040016	0.942177	0.147249	0.989049	0.009992	-0.931459	0.142059	-0.334966
18871	10.664926	-0.305805	-2.176490	-0.375027	0.271850	-0.078892	-0.326740	0.037213	0.944381	0.155284	0.987759	0.014803	-0.932270	0.151484	-0.328519
18872	11.837474	-0.124621	-5.005117	-0.836460	0.344181	-0.226379	-0.319701	0.030385	0.947031	0.172892	0.984577	0.026775	-0.931612	0.172294	-0.320023
18873	12.378674	-1.272895	-4.704414	-0.327765	0.584386	-0.197370	-0.306988	0.023100	0.951433	0.178938	0.983277	0.033862	-0.934740	0.180643	-0.305987
18874	12.055627	-1.581937	-2.257036	0.757753	0.896039	0.079683	-0.285652	0.021373	0.958095	0.161668	0.986497	0.026194	-0.944598	0.162376	-0.285250
18875	9.783368	-0.926416	-0.874862	1.206407	1.209681	0.394480	-0.255477	0.026810	0.966443	0.135589	0.990730	0.008359	-0.957260	0.133174	-0.256744
18876	10.035263	-1.227360	-0.247514	1.530425	1.480236	0.615005	-0.218021	0.037985	0.975205	0.102271	0.994630	-0.015877	-0.970571	0.096273	-0.220735
18877	10.564775	-0.484694	-0.263603	1.735306	1.890195	0.806523	-0.170216	0.054646	0.983890	0.063710	0.996982	-0.044351	-0.983345	0.055134	-0.173184
18878	9.814516	1.310703	-1.333927	1.745379	2.052467	0.766974	-0.118718	0.072130	0.990305	0.023268	0.997286	-0.069849	-0.992655	0.014750	-0.120074
18879	9.727823	2.123734	-2.110520	1.281541	1.894944	0.552885	-0.071513	0.086024	0.993723	-0.007396	0.996201	-0.086770	-0.997412	-0.013555	-0.070606
18880	10.862227	0.657251	-2.429453	0.557665	1.684713	0.322319	-0.029635	0.094965	0.995039	-0.021002	0.995198	-0.095605	-0.999340	-0.023731	-0.027498
18881	11.776495	-2.377822	-2.465629	0.534069	1.654778	0.285826	0.011446	0.103372	0.994577	-0.034378	0.994095	-0.102926	-0.999343	-0.033013	0.014932
18882	11.020439	-3.664060	-2.411557	1.514301	1.727627	0.494131	0.053804	0.117899	0.991567	-0.072661	0.990835	-0.113869	-0.995904	-0.065921	0.061878
18883	9.954996	-2.366640	-1.645370	2.317282	1.783791	0.505141	0.096648	0.134595	0.986176	-0.131171	0.983895	-0.121429	-0.986637	-0.117622	0.112746
18884	8.807480	-0.176584	-1.006304	2.275387	1.694482	0.314049	0.136803	0.148451	0.979412	-0.187949	0.974638	-0.121475	-0.972605	-0.167461	0.161235
18885	7.026479	1.421591	-0.627620	1.546165	1.321720	0.134990	0.167917	0.157916	0.973071	-0.225927	0.966978	-0.117940	-0.959563	-0.200039	0.198049
18886	6.365279	1.470118	-0.797207	0.824655	0.769794	-0.066726	0.186575	0.160422	0.969255	-0.245441	0.962905	-0.112125	-0.951288	-0.216975	0.219029
18887	6.515232	1.275852	-0.500931	0.245365	0.255141	-0.030924	0.192699	0.161172	0.967931	-0.251231	0.961644	-0.110109	-0.948552	-0.221956	0.225799
18888	6.619814	0.500242	-0.525091	0.114851	-0.122302	-0.024955	0.189825	0.159974	0.968698	-0.253942	0.961064	-0.108951	-0.948409	-0.225311	0.223058
18889	6.220207	0.260235	-0.445838	0.193185	-0.455151	-0.060936	0.179282	0.155990	0.971352	-0.258348	0.960163	-0.106510	-0.949271	-0.231851	0.212439
18890	6.580564	0.319553	0.371537	-0.046293	-0.757432	-0.081322	0.161655	0.149704	0.975426	-0.257002	0.960706	-0.104853	-0.952795	-0.233736	0.193778
18891	9.667477	-2.125173	4.233470	-0.445135	-0.931825	-0.017229	0.139351	0.144000	0.979717	-0.246397	0.963295	-0.106540	-0.959099	-0.226552	0.169717
18892	15.652930	-6.033075	7.807723	0.395359	-0.226605	0.144100	0.132879	0.146230	0.980286	-0.256457	0.960446	-0.108507	-0.957378	-0.236983	0.165125
18893	13.155928	-2.540350	6.325260	1.806411	0.251727	0.033458	0.138501	0.148742	0.979129	-0.299614	0.948622	-0.101726	-0.943954	-0.279272	0.175951
18894	9.460267	-0.425521	6.064729	1.411994	0.438360	0.151059	0.147460	0.155629	0.976747	-0.333360	0.937581	-0.099061	-0.931196	-0.311001	0.190136
18895	8.083562	0.828408	4.028378	0.862211	0.303508	0.194510	0.152709	0.162691	0.974788	-0.354177	0.929848	-0.099705	-0.922626	-0.330022	0.199618
18896	12.318195	2.343840	-1.076751	0.136089	-0.286202	0.004773	0.145961	0.160509	0.976183	-0.357440	0.928648	-0.099248	-0.922460	-0.334440	0.192918
18897	9.819221	2.968470	-3.171320	-0.161253	0.017884	0.178511	0.144674	0.164873	0.975647	-0.354468	0.929215	-0.104464	-0.923808	-0.330722	0.192876
18898	7.795691	3.751461	-2.671830	-1.117220	-0.896812	0.305407	0.121089	0.164888	0.978851	-0.329597	0.936839	-0.117038	-0.936324	-0.308455	0.167787
18899	9.360430	-0.689948	-3.049507	-2.048893	-1.373013	0.324072	0.086009	0.162719	0.982917	-0.282056	0.950188	-0.132620	-0.955535	-0.265831	0.127620
18900	10.476806	-3.859237	-3.249839	-1.755924	-1.555818	0.221459	0.046982	0.158403	0.986256	-0.240241	0.960157	-0.142767	-0.969576	-0.230231	0.083165
18901	10.060822	-3.829583	-2.237888	-1.030033	-1.518143	0.211538	0.008698	0.155163	0.987851	-0.215407	0.964986	-0.149675	-0.976486	-0.211488	0.041817
18902	9.930460	-1.181393	-0.658297	-0.604905	-1.403922	0.089772	-0.026245	0.150129	0.988318	-0.200673	0.967742	-0.152333	-0.979307	-0.202327	0.004728
18903	10.037040	-0.110432	0.013393	-0.730131	-1.182788	0.027834	-0.055524	0.145076	0.987861	-0.182819	0.971184	-0.152903	-0.981577	-0.189090	-0.027401
18904	9.714463	-0.639677	-0.050809	-1.333742	-0.963684	0.059800	-0.079618	0.142385	0.986604	-0.149988	0.976767	-0.153069	-0.985477	-0.160166	-0.056413
18905	9.406171	-2.411661	-0.217539	-1.921722	-0.855390	0.116445	-0.101250	0.142344	0.984625	-0.102336	0.982971	-0.152629	-0.989584	-0.116216	-0.084959
18906	9.078532	-4.198061	-0.602728	-1.846237	-0.802137	0.028095	-0.121304	0.141203	0.982521	-0.056605	0.987235	-0.148869	-0.991000	-0.073674	-0.111763
18907	9.040314	-3.771728	-1.468211	-1.493233	-0.682643	-0.109752	-0.138238	0.137611	0.980792	-0.020042	0.989709	-0.141687	-0.990196	-0.039244	-0.134057
18908	8.634364	-2.062021	-2.765355	-1.323845	-0.719227	-0.320477	-0.156116	0.129334	0.979235	0.011446	0.991561	-0.129137	-0.987672	-0.008952	-0.156279
18909	8.900209	-1.438040	-3.063495	-1.118533	-0.889331	-0.493042	-0.178456	0.117280	0.976933	0.036880	0.992971	-0.112468	-0.983257	0.015959	-0.181526
18910	9.128081	-0.842545	-2.524784	-0.934504	-1.009912	-0.599331	-0.204041	0.103156	0.973512	0.056857	0.994003	-0.093411	-0.977310	0.036291	-0.208682
18911	9.353548	-0.998099	-1.920600	-0.827199	-1.027703	-0.616310	-0.230198	0.089104	0.969056	0.073593	0.994542	-0.073966	-0.970357	0.054289	-0.235499
18912	9.776903	-1.334592	-1.144953	-0.745327	-1.017492	-0.578542	-0.256080	0.076415	0.963631	0.088031	0.994572	-0.055475	-0.962639	0.070623	-0.261417
18913	9.753414	-2.410684	-0.241516	-0.739754	-0.821715	-0.587123	-0.277294	0.063555	0.958681	0.101799	0.994137	-0.036460	-0.955377	0.087483	-0.282138
18914	10.204769	-3.446411	0.018023	-0.671226	-0.866110	-0.446147	-0.299211	0.054649	0.952621	0.114496	0.993201	-0.021015	-0.947293	0.102784	-0.303433
18915	10.471265	-2.692857	-0.082333	-0.694888	-0.704495	-0.369959	-0.317048	0.047550	0.947217	0.127986	0.991752	-0.006947	-0.939734	0.119028	-0.320519
18916	10.825668	-2.121473	-0.115860	-0.732788	-0.306308	-0.296111	-0.325313	0.041329	0.944703	0.142727	0.989745	0.005849	-0.934773	0.136737	-0.327876
18917	11.182981	-2.948212	0.799210	-0.287110	0.248142	-0.118944	-0.320019	0.037656	0.946663	0.148428	0.988864	0.010841	-0.935712	0.143981	-0.322044
18918	11.339467	-4.054178	0.978414	0.600919	0.785392	0.176783	-0.300999	0.039489	0.952806	0.135625	0.990759	0.001783	-0.943931	0.129761	-0.303573
18919	11.890062	-0.503502	-1.085200	0.830296	1.301881	0.310228	-0.269147	0.043427	0.962120	0.118055	0.992937	-0.011793	-0.955836	0.110409	-0.272372
18920	11.643145	2.352803	-4.612927	0.041905	1.717583	0.205629	-0.227305	0.043928	0.972832	0.118257	0.992834	-0.017200	-0.966617	0.111135	-0.230871
18921	11.501569	1.290323	-5.467415	-0.111387	1.474401	0.079679	-0.191349	0.041878	0.980628	0.121306	0.992439	-0.018713	-0.973997	0.115376	-0.194982
18922	10.942149	-2.069042	-4.236974	0.078453	1.290418	0.224947	-0.159211	0.043893	0.986268	0.120302	0.992429	-0.024747	-0.979887	0.114710	-0.163286
18923	9.869811	-3.527235	-2.582969	0.979125	1.171534	0.528237	-0.129035	0.054139	0.990161	0.098052	0.994312	-0.041589	-0.986781	0.091721	-0.133609
18924	9.694335	-1.609694	-1.538629	1.621480	1.207962	0.723477	-0.097775	0.070112	0.992736	0.059871	0.996123	-0.064455	-0.993406	0.053134	-0.101594
18925	10.066787	0.260716	-1.093583	1.756961	1.305483	0.764786	-0.064615	0.088256	0.994000	0.017589	0.996027	-0.087293	-0.997755	0.011843	-0.065910
18926	9.879138	1.105201	-1.505177	1.636465	1.280939	0.664733	-0.032761	0.105169	0.993915	-0.022558	0.994117	-0.105934	-0.999209	-0.025891	-0.030196
18927	10.651107	0.164916	-1.559299	1.415694	1.203677	0.523057	-0.003321	0.119548	0.992823	-0.057776	0.991147	-0.119539	-0.998324	-0.057758	0.003615
18928	10.090295	-0.509999	-1.732884	1.541568	1.240306	0.404181	0.026707	0.131997	0.990890	-0.096412	0.986963	-0.128875	-0.994983	-0.092092	0.039084
18929	9.683896	-0.163482	-1.571490	1.893046	1.291068	0.210572	0.057971	0.140955	0.988317	-0.143670	0.980855	-0.131463	-0.987926	-0.134371	0.077112
18930	9.605776	-0.068003	-1.150900	1.959409	1.283610	0.065768	0.089114	0.147682	0.985012	-0.192042	0.972938	-0.128498	-0.977332	-0.177712	0.115063
18931	9.484277	0.451498	-0.743577	1.639680	1.194582	0.038967	0.117793	0.154565	0.980936	-0.232074	0.964743	-0.124145	-0.965539	-0.213027	0.149511
18932	9.135324	0.486966	0.218271	1.092978	1.129108	0.005992	0.144729	0.161124	0.976265	-0.258440	0.958559	-0.119889	-0.955124	-0.234955	0.180372
18933	8.698015	-0.177911	0.608736	0.587788	0.987450	0.039795	0.167807	0.168085	0.971385	-0.272678	0.954828	-0.118115	-0.947358	-0.245054	0.206060
18934	7.499359	-0.214985	0.847908	0.240153	0.648832	0.111674	0.182223	0.174828	0.967590	-0.278944	0.952827	-0.119628	-0.942860	-0.248104	0.222394
18935	7.643874	-0.187408	0.985771	0.199685	0.309614	0.070214	0.188869	0.178509	0.965641	-0.284072	0.951228	-0.120283	-0.940017	-0.251594	0.230368
18936	7.837210	0.062667	1.065943	0.257253	0.105341	0.011592	0.191111	0.179528	0.965011	-0.290268	0.949498	-0.119157	-0.937668	-0.257339	0.233571
18937	7.814238	0.218272	1.169309	0.168455	-0.078474	-0.015156	0.189233	0.178728	0.965529	-0.294244	0.948431	-0.117894	-0.936809	-0.261792	0.232064
18938	7.923164	0.247543	1.602895	-0.130369	-0.226582	0.053633	0.183378	0.178587	0.966685	-0.291537	0.949001	-0.120016	-0.938818	-0.259816	0.226091
18939	8.498258	-0.537873	2.801958	-0.449416	-0.341108	0.164211	0.174026	0.180372	0.968081	-0.281794	0.951093	-0.126551	-0.943561	-0.250776	0.216342
18940	10.938460	-4.014909	5.600914	-0.496547	-0.161464	0.356423	0.167597	0.187925	0.967779	-0.271675	0.952458	-0.137903	-0.947684	-0.239809	0.210683
18941	10.378213	-3.407530	4.834946	0.206905	-0.041887	0.425235	0.163541	0.197851	0.966493	-0.278434	0.949112	-0.147179	-0.946429	-0.245035	0.210307
18942	8.129233	-1.886849	4.378835	0.683435	-0.096371	0.216970	0.159574	0.202452	0.966204	-0.295545	0.943651	-0.148916	-0.941907	-0.261793	0.210416
18943	7.652834	-1.212992	3.221904	0.738438	-0.356448	-0.055829	0.151493	0.198798	0.968261	-0.312781	0.938873	-0.143827	-0.937666	-0.281064	0.204413
18944	11.692999	0.455151	-1.058663	-0.028187	-0.874627	-0.130793	0.131847	0.189620	0.972965	-0.311757	0.939659	-0.140882	-0.940970	-0.284754	0.183007
18945	14.051081	0.289133	0.159996	-0.223316	-0.530056	0.004350	0.119188	0.186036	0.975287	-0.306606	0.941176	-0.142060	-0.944345	-0.282097	0.169216
18946	11.162144	0.915120	-1.267966	0.098006	-0.398343	0.069306	0.109110	0.184896	0.976682	-0.309211	0.940115	-0.143430	-0.944713	-0.286352	0.159748
18947	8.273359	4.275540	-2.622393	-1.238717	-1.038860	0.149756	0.083173	0.181363	0.979893	-0.280221	0.947881	-0.151653	-0.956326	-0.261973	0.129660
18948	8.825466	-1.080127	-1.342612	-1.717286	-1.385692	0.292226	0.047758	0.179883	0.982528	-0.239424	0.957036	-0.163578	-0.969740	-0.227429	0.088775
18949	10.260081	-4.992491	-0.276190	-1.267866	-1.367491	0.403511	0.012049	0.182241	0.983180	-0.208930	0.962007	-0.175756	-0.977856	-0.203298	0.049667
18950	9.848122	-3.910206	2.190935	-0.819165	-0.865420	0.299038	-0.010791	0.185266	0.982629	-0.188941	0.964607	-0.183943	-0.981929	-0.187644	0.024595
18951	9.059471	-2.713186	2.117474	-0.434695	-0.413755	0.141265	-0.021754	0.186840	0.982150	-0.178278	0.965912	-0.187699	-0.983740	-0.179179	0.012297
18952	8.617264	-1.751078	-0.199176	-0.628567	-0.278870	0.165086	-0.029465	0.189696	0.981401	-0.162771	0.967811	-0.191956	-0.986224	-0.165399	0.002360
18953	9.082319	-1.280088	-2.774961	-1.234488	-0.578613	0.148719	-0.044449	0.191175	0.980549	-0.132207	0.971761	-0.195454	-0.990225	-0.138324	-0.017920
18954	9.629635	-2.023468	-3.644767	-1.462952	-0.925833	0.005220	-0.067564	0.188531	0.979740	-0.095998	0.976200	-0.194470	-0.993086	-0.107192	-0.047857
18955	9.930157	-2.881604	-3.026606	-1.114219	-1.074392	-0.186443	-0.094008	0.181464	0.978894	-0.068775	0.979716	-0.188221	-0.993193	-0.085018	-0.079621
18956	9.713148	-2.646450	-1.918979	-0.683226	-1.012220	-0.298739	-0.118822	0.172218	0.977866	-0.052683	0.982363	-0.179411	-0.991517	-0.072835	-0.107653
18957	9.386932	-1.834042	-1.035992	-0.654109	-0.915823	-0.366206	-0.141239	0.161765	0.976670	-0.037740	0.984962	-0.168596	-0.989256	-0.060672	-0.133010
18958	9.169666	-1.678364	-0.588285	-0.908601	-0.866946	-0.362730	-0.162557	0.151796	0.974953	-0.016735	0.987529	-0.156545	-0.986557	-0.041763	-0.157989
18959	9.233455	-2.649396	-0.567743	-0.967912	-0.776890	-0.300064	-0.181795	0.143862	0.972756	0.005750	0.989379	-0.145245	-0.983320	-0.020811	-0.180691
18960	9.197882	-3.202788	-0.390022	-0.699204	-0.549159	-0.242298	-0.195499	0.137776	0.970978	0.021710	0.990448	-0.136168	-0.980463	-0.005541	-0.196623
18961	9.059507	-2.828009	-0.558183	-0.425191	-0.362327	-0.214023	-0.204646	0.132567	0.969818	0.030989	0.991167	-0.128946	-0.978345	0.003666	-0.206947
18962	9.088698	-1.744269	-1.346765	-0.419577	-0.322778	-0.212705	-0.212852	0.127467	0.968734	0.040070	0.991759	-0.121693	-0.976262	0.012915	-0.216206
18963	9.223092	-0.601117	-2.306439	-0.736786	-0.462115	-0.222442	-0.224506	0.122307	0.966767	0.056747	0.992050	-0.112328	-0.972819	0.029643	-0.229661
18964	9.295820	-0.530234	-2.576444	-1.098069	-0.710616	-0.292950	-0.242367	0.115898	0.963237	0.081600	0.991756	-0.098798	-0.966747	0.054655	-0.249827
18965	9.696457	-1.183499	-2.306901	-1.317584	-0.963111	-0.455176	-0.266744	0.106409	0.957875	0.110349	0.990722	-0.079328	-0.957429	0.084540	-0.276011
18966	10.089996	-0.328724	-1.861473	-1.359370	-1.066932	-0.660415	-0.294295	0.092848	0.951194	0.138010	0.988967	-0.053835	-0.945697	0.115431	-0.303862
18967	10.253478	-0.095156	-0.781890	-1.524598	-0.863409	-0.748831	-0.317550	0.077362	0.945081	0.168051	0.985481	-0.024204	-0.933232	0.151136	-0.325940
18968	10.330981	-2.996255	-1.263835	-1.469745	-0.741123	-0.663103	-0.337846	0.064304	0.939002	0.196632	0.980471	0.003603	-0.920433	0.185855	-0.343892
18969	11.881657	-5.225783	-1.217701	-0.938993	-0.399629	-0.484619	-0.349570	0.054544	0.935321	0.213934	0.976577	0.023006	-0.912158	0.208140	-0.353051
18970	12.908543	-5.996769	-0.968005	-0.122348	0.264144	-0.068620	-0.343982	0.051626	0.937556	0.216086	0.976040	0.025535	-0.913774	0.211376	-0.346896
18971	12.885659	-4.398654	0.333142	0.995302	0.957214	0.424946	-0.319824	0.057394	0.945737	0.196659	0.980447	0.007005	-0.926843	0.188228	-0.324857
18972	11.720097	0.119970	0.604562	1.631912	1.905479	0.615899	-0.272426	0.064623	0.960004	0.162896	0.986437	-0.020177	-0.948287	0.150884	-0.279258
18973	10.315677	1.855512	-0.398970	1.262581	2.225062	0.580178	-0.217021	0.071487	0.973546	0.136147	0.989784	-0.042330	-0.966626	0.123359	-0.224537
18974	10.681494	1.045739	-1.137583	0.771741	2.392254	0.534553	-0.157114	0.077937	0.984500	0.119786	0.991025	-0.059338	-0.980289	0.108606	-0.165040
18975	10.982888	-1.041927	-2.344443	0.548822	2.303216	0.558092	-0.098848	0.085917	0.991387	0.107975	0.991310	-0.075145	-0.989227	0.099617	-0.107265
18976	10.635060	-1.003808	-2.751365	0.744856	1.999286	0.510419	-0.048035	0.094088	0.994404	0.090347	0.991882	-0.089486	-0.994751	0.085543	-0.056146
18977	9.912745	-0.100345	-3.215943	0.869283	1.583358	0.350481	-0.007955	0.099893	0.994966	0.068845	0.992692	-0.099114	-0.997596	0.067710	-0.014774
18978	10.223635	0.365322	-2.995665	0.834231	1.278176	0.166704	0.024118	0.102288	0.994462	0.047895	0.993491	-0.103350	-0.998561	0.050122	0.019062
18979	10.684202	-1.180736	-2.822626	0.851967	1.173560	0.123544	0.053449	0.104288	0.993110	0.026407	0.994036	-0.105807	-0.998221	0.031881	0.050376
18980	10.135678	-2.580430	-2.529449	1.377859	1.163676	0.330170	0.082452	0.112150	0.990265	-0.008619	0.993691	-0.111821	-0.996558	0.000685	0.082898
18981	9.431738	-1.900966	-1.957216	2.061392	1.148592	0.337369	0.110613	0.121324	0.986431	-0.060794	0.991488	-0.115129	-0.992002	-0.047234	0.117047
18982	9.096884	-0.861559	-1.254049	2.342498	1.142564	0.193041	0.138278	0.128354	0.982041	-0.119359	0.986499	-0.112130	-0.983175	-0.101710	0.151731
18983	8.123729	0.904229	-0.736713	2.048063	0.969111	0.042315	0.161686	0.132552	0.977900	-0.169698	0.979912	-0.104766	-0.972142	-0.149008	0.180932
18984	7.638542	1.895417	-0.166179	1.382386	0.720023	-0.119981	0.179521	0.132694	0.974764	-0.202731	0.974583	-0.095333	-0.962638	-0.180501	0.201859
18985	7.431586	2.442242	0.641238	0.705478	0.422907	-0.081390	0.189954	0.132803	0.972770	-0.219391	0.971497	-0.089788	-0.956966	-0.196361	0.213676
18986	7.154937	2.289355	0.831519	0.207551	0.156321	-0.041396	0.193774	0.132660	0.972035	-0.224259	0.970571	-0.087754	-0.955070	-0.200983	0.217822
18987	6.880000	1.625275	0.752076	-0.102248	-0.125262	-0.100957	0.191199	0.129659	0.972950	-0.221433	0.971382	-0.085935	-0.956248	-0.199012	0.214438
18988	7.022849	0.713631	0.927237	-0.488281	-0.340191	-0.102819	0.183457	0.125581	0.974973	-0.209353	0.974045	-0.086068	-0.960476	-0.188324	0.204986
18989	7.647450	-0.714775	1.859722	-0.722890	-0.534859	0.053092	0.170162	0.124531	0.977516	-0.192274	0.977112	-0.091009	-0.966476	-0.172464	0.190211
18990	11.248012	-4.218134	6.576282	-0.536853	-0.492684	0.309152	0.156645	0.130104	0.979048	-0.180634	0.978340	-0.101109	-0.970996	-0.161011	0.176754
18991	12.534337	-4.189972	6.756818	0.071885	-0.032406	0.465240	0.153605	0.141422	0.977960	-0.184284	0.976441	-0.112258	-0.970796	-0.162979	0.176048
18992	9.991184	-1.292305	6.094516	0.122691	0.047336	0.409578	0.152720	0.151697	0.976558	-0.188933	0.974405	-0.121816	-0.970042	-0.165900	0.177472
18993	9.553957	-2.870617	4.527755	0.342323	-0.029318	0.299878	0.150447	0.158960	0.975755	-0.198470	0.971751	-0.127707	-0.968491	-0.174445	0.177746
18994	10.659021	-3.010262	1.862493	1.406035	-0.095129	0.302844	0.146410	0.165928	0.975209	-0.233621	0.963745	-0.128904	-0.961242	-0.208956	0.179866
18995	14.458941	1.149376	-0.096555	1.435829	-0.105821	-0.090704	0.144335	0.163248	0.975970	-0.267752	0.955948	-0.120301	-0.952615	-0.243954	0.181687
18996	8.584275	5.414488	-2.429129	0.829378	0.418923	-0.056858	0.154551	0.164625	0.974173	-0.287320	0.950893	-0.115108	-0.945284	-0.262109	0.194261
18997	6.410993	5.932486	-2.611573	-0.707798	-0.756398	0.220088	0.134941	0.165099	0.977002	-0.271418	0.954466	-0.123803	-0.952955	-0.248470	0.173607
18998	9.775271	0.510286	-2.763451	-1.704441	-1.390792	0.279017	0.099661	0.163799	0.981447	-0.231394	0.963131	-0.137245	-0.967742	-0.213423	0.133889
18999	10.372104	-3.950484	-2.823147	-1.678182	-1.492185	0.243643	0.061908	0.162406	0.984780	-0.191110	0.970345	-0.148011	-0.979614	-0.179038	0.091110
19000	9.876548	-4.584623	-1.963728	-0.960967	-1.613275	0.285741	0.020844	0.162511	0.986487	-0.167875	0.973261	-0.156785	-0.985588	-0.162338	0.047569
19001	10.380955	-1.873974	-0.558565	-0.636454	-1.526139	0.205522	-0.017788	0.161555	0.986703	-0.152254	0.974913	-0.162370	-0.988181	-0.153118	0.007256
19002	9.871819	-0.967535	-0.021866	-0.988604	-1.343072	0.161527	-0.051728	0.160729	0.985642	-0.127731	0.977792	-0.166153	-0.990459	-0.134492	-0.030049
19003	9.457259	-1.673543	-0.480286	-1.449076	-1.277027	0.153087	-0.083952	0.160729	0.983422	-0.091619	0.981480	-0.168233	-0.992249	-0.104224	-0.067671
19004	9.318282	-2.398393	-0.754568	-1.949725	-1.241195	0.130967	-0.115116	0.161446	0.980145	-0.042975	0.984971	-0.167288	-0.992422	-0.061380	-0.106448
19005	9.007619	-3.880697	-0.992727	-1.776837	-1.061500	-0.080571	-0.141520	0.158428	0.977176	0.000742	0.987127	-0.159934	-0.989935	-0.021908	-0.139816
19006	8.776004	-3.954545	-1.279321	-1.170745	-0.833473	-0.273874	-0.162345	0.151559	0.975025	0.028565	0.988441	-0.148889	-0.986320	0.003680	-0.164798
19007	8.750389	-2.987034	-1.982688	-0.718428	-0.711054	-0.394639	-0.180337	0.142095	0.973287	0.044495	0.989676	-0.136243	-0.982598	0.018737	-0.184798
19008	8.951763	-1.918643	-2.553839	-0.608013	-0.749691	-0.435607	-0.199396	0.131879	0.971004	0.057270	0.990777	-0.122804	-0.978244	0.031123	-0.205110
19009	9.037164	-1.095614	-2.901522	-0.680408	-0.889360	-0.495723	-0.222009	0.120546	0.967564	0.071192	0.991684	-0.107215	-0.972442	0.045080	-0.228744
19010	9.392086	-1.378440	-2.770993	-0.529489	-0.979206	-0.582331	-0.246967	0.107436	0.963050	0.080551	0.992671	-0.090083	-0.965670	0.055327	-0.253811
19011	9.882043	-1.247774	-2.035211	-0.386071	-0.982101	-0.586989	-0.271939	0.094414	0.957672	0.085976	0.993579	-0.073540	-0.958466	0.062338	-0.278311
19012	10.066871	-1.414688	-0.788292	-0.474538	-0.811696	-0.511134	-0.292593	0.083191	0.952612	0.093649	0.993912	-0.058034	-0.951640	0.072230	-0.298602
19013	9.716994	-2.324690	-0.298843	-0.586557	-0.688516	-0.375944	-0.309964	0.075321	0.947760	0.104674	0.993500	-0.044723	-0.944968	0.085343	-0.315834
19014	10.262328	-2.501780	-0.385852	-0.608234	-0.640097	-0.257515	-0.325851	0.070524	0.942787	0.116897	0.992567	-0.033845	-0.938166	0.099180	-0.331673
19015	10.400290	-2.055602	-0.123146	-0.659081	-0.338348	-0.205224	-0.334496	0.066466	0.940050	0.130573	0.991157	-0.023617	-0.933307	0.114846	-0.340217
19016	10.148448	-2.531450	0.012184	-0.626147	0.033594	-0.124115	-0.334223	0.063420	0.940358	0.144083	0.989444	-0.015521	-0.931416	0.130302	-0.339832
19017	10.079083	-2.741515	-0.138965	-0.315085	0.412084	-0.021256	-0.324766	0.061646	0.943783	0.151203	0.988423	-0.012531	-0.933630	0.138634	-0.330327
19018	9.905537	-1.129738	-1.411095	-0.008820	0.665860	0.064623	-0.308998	0.061067	0.949100	0.151869	0.988299	-0.014146	-0.938859	0.139768	-0.314656
19019	9.624082	1.454524	-5.200268	-0.677981	0.798160	-0.113508	-0.290739	0.055444	0.955195	0.166904	0.985952	-0.006428	-0.942133	0.157557	-0.295908
19020	11.759076	1.600300	-8.114196	-1.227868	0.454120	-0.337497	-0.281635	0.045326	0.958451	0.193322	0.981080	0.010410	-0.939845	0.188221	-0.285069
19021	12.367118	-2.522871	-5.824203	-0.286722	0.302526	-0.362633	-0.276367	0.035129	0.960410	0.197475	0.980083	0.020977	-0.940545	0.195455	-0.277799
19022	10.791431	-2.507223	-2.561584	0.655828	0.323865	0.023752	-0.268694	0.034345	0.962613	0.182113	0.983151	0.015755	-0.945853	0.179538	-0.270421
19023	9.895746	-0.490201	-0.192779	1.133808	0.583547	0.305840	-0.253611	0.039617	0.966495	0.157112	0.987580	0.000745	-0.954462	0.152037	-0.256685
19024	10.641748	-0.594686	0.306129	1.502657	0.952590	0.485852	-0.229112	0.048606	0.972186	0.123909	0.992084	-0.020400	-0.965481	0.115789	-0.233321
19025	10.984105	-0.019388	-0.130121	1.804235	1.513474	0.552026	-0.190976	0.058906	0.979826	0.082891	0.995600	-0.043698	-0.978089	0.072873	-0.195018
19026	10.244014	0.939916	-0.864225	1.761012	1.820722	0.444535	-0.145584	0.067745	0.987024	0.041380	0.997197	-0.062340	-0.988480	0.031768	-0.147979
19027	10.689295	0.333235	-1.280625	1.166875	1.729074	0.366447	-0.102534	0.076210	0.991806	0.013502	0.997076	-0.075219	-0.994638	0.005679	-0.103263
19028	10.671315	-1.297138	-1.748339	0.779474	1.735548	0.384857	-0.059328	0.086033	0.994524	-0.005227	0.996239	-0.086494	-0.998225	-0.010330	-0.058655
19029	10.525125	-2.340436	-1.829211	1.299117	1.735327	0.393328	-0.016282	0.097020	0.995149	-0.037391	0.994526	-0.097571	-0.999168	-0.038798	-0.012566
19030	10.370351	-2.084582	-1.788477	2.007919	1.865897	0.292307	0.029716	0.107271	0.993786	-0.087627	0.990676	-0.104315	-0.995710	-0.083983	0.038838
19031	9.826372	-0.989574	-1.530880	2.141330	1.837976	0.255918	0.074456	0.118677	0.990137	-0.141161	0.984150	-0.107344	-0.987183	-0.131776	0.090029
19032	8.711426	0.404497	-1.220591	1.812046	1.763089	0.113572	0.117148	0.128254	0.984798	-0.186010	0.976911	-0.105100	-0.975539	-0.170870	0.138300
19033	7.277001	1.274807	-1.075649	1.327956	1.458840	0.056077	0.152117	0.136467	0.978896	-0.218506	0.970558	-0.101350	-0.963906	-0.198478	0.177457
19034	6.513329	1.238607	-1.190750	0.740567	1.014133	-0.065871	0.176697	0.140189	0.974231	-0.236113	0.966940	-0.096316	-0.955526	-0.213010	0.203956
19035	6.838042	1.533728	-1.075919	0.202829	0.467987	-0.134601	0.188524	0.139541	0.972104	-0.240442	0.966287	-0.092076	-0.952180	-0.216376	0.215720
19036	6.986658	1.140521	-1.468649	-0.028372	0.011818	-0.217229	0.189967	0.134439	0.972542	-0.238844	0.967149	-0.087039	-0.952295	-0.215751	0.215837
19037	6.515459	1.258708	-1.282162	-0.266044	-0.403695	-0.163738	0.181156	0.128401	0.975036	-0.231842	0.969073	-0.084541	-0.955736	-0.210740	0.205323
19038	6.685265	0.397122	0.007717	-0.512665	-0.692648	-0.090527	0.164915	0.122715	0.978644	-0.219263	0.971962	-0.084928	-0.961627	-0.200575	0.187198
19039	11.976139	-4.787150	6.496451	-0.495453	-0.801151	0.081954	0.145005	0.120856	0.982022	-0.207731	0.974110	-0.089209	-0.967379	-0.191061	0.166356
19040	14.377433	-4.839293	6.829493	0.809796	-0.032885	0.103409	0.143504	0.123286	0.981940	-0.227746	0.969694	-0.088465	-0.963088	-0.210938	0.167233
19041	10.781461	-0.786636	8.060408	0.511439	0.149404	0.286606	0.145279	0.131124	0.980663	-0.241176	0.965974	-0.093431	-0.959546	-0.222939	0.171959
19042	10.241716	-1.332759	5.350276	0.037158	0.219281	0.361784	0.148225	0.141172	0.978826	-0.243499	0.964498	-0.102233	-0.958508	-0.223190	0.177338
19043	10.356869	-3.417668	2.847072	0.961424	0.346173	0.480887	0.153299	0.154847	0.975972	-0.268369	0.957051	-0.109691	-0.951040	-0.245105	0.188271
19044	11.603793	-1.546541	-0.675843	1.529870	-0.122556	0.268208	0.148363	0.160519	0.975819	-0.305666	0.945865	-0.109118	-0.940509	-0.282086	0.189396
19045	9.462616	3.576357	-3.821250	1.274514	0.280994	0.195542	0.153237	0.167294	0.973926	-0.336299	0.935566	-0.107792	-0.929205	-0.311013	0.199624
19046	6.465198	7.001920	-1.966171	0.520896	-0.347275	0.159425	0.143681	0.168325	0.975204	-0.349071	0.930710	-0.109215	-0.926016	-0.324723	0.192482
19047	9.995806	3.744363	-1.678870	-1.011523	-1.037150	0.099501	0.118537	0.162526	0.979558	-0.325920	0.938226	-0.116229	-0.937937	-0.305480	0.164185
19048	10.711109	-0.156596	-2.590732	-1.795516	-1.242848	-0.013473	0.089088	0.153331	0.984151	-0.283480	0.951119	-0.122523	-0.954831	-0.268072	0.128200
19049	9.512568	-3.480960	-2.887486	-1.816846	-1.477884	0.124812	0.052569	0.147142	0.987717	-0.240072	0.961940	-0.130525	-0.969331	-0.230262	0.085893
19050	10.055853	-4.726083	-2.514429	-1.274629	-1.628974	0.309033	0.011020	0.145765	0.989258	-0.209366	0.967726	-0.140260	-0.977775	-0.205571	0.041183
19051	10.709717	-2.194057	-0.373753	-0.718111	-1.463026	0.167255	-0.025812	0.142572	0.989448	-0.191824	0.970678	-0.144871	-0.981090	-0.193539	0.002294
19052	9.706846	-1.682255	1.001779	-0.814776	-1.116757	0.054267	-0.053653	0.138765	0.988871	-0.171829	0.974243	-0.146035	-0.983665	-0.177752	-0.028427
19053	9.118166	-2.040585	0.159346	-1.205455	-1.001695	0.080147	-0.078801	0.136656	0.987479	-0.142072	0.978909	-0.146807	-0.986715	-0.151862	-0.057724
19054	9.366054	-2.280097	-0.141843	-1.576885	-0.937693	0.061364	-0.102310	0.135085	0.985538	-0.103043	0.983968	-0.145567	-0.989401	-0.116446	-0.086750
19055	9.058567	-2.992936	-0.392881	-1.648212	-0.804376	-0.040266	-0.122286	0.132206	0.983650	-0.062424	0.988102	-0.140565	-0.990530	-0.078592	-0.112578
19056	8.572629	-2.613773	-1.911079	-1.362812	-0.744909	-0.213416	-0.140624	0.125838	0.982033	-0.029455	0.990919	-0.131195	-0.989625	-0.047375	-0.135641
19057	8.906739	-1.918398	-3.009259	-1.108513	-0.882360	-0.421358	-0.162392	0.114707	0.980036	-0.003727	0.993142	-0.116859	-0.986719	-0.022630	-0.160851
19058	9.432687	-1.542497	-2.664464	-0.808320	-0.978339	-0.530169	-0.186685	0.101287	0.977185	0.013794	0.994843	-0.100482	-0.982323	-0.005280	-0.187120
19059	9.533459	-1.192155	-1.653700	-0.537481	-0.962122	-0.570148	-0.210668	0.087202	0.973661	0.024068	0.996174	-0.084011	-0.977261	0.005736	-0.211961
19060	9.549573	-0.635430	-0.948711	-0.445944	-0.897378	-0.532263	-0.233048	0.074273	0.969625	0.031924	0.997126	-0.068707	-0.971941	0.014942	-0.234749
19061	9.358745	-0.855430	-0.531448	-0.674346	-0.825501	-0.417472	-0.253590	0.064434	0.965163	0.045667	0.997464	-0.054592	-0.966233	0.030232	-0.255889
19062	9.514692	-2.590893	-0.648824	-0.672231	-0.818994	-0.349443	-0.273897	0.056603	0.960092	0.059495	0.997352	-0.041827	-0.959917	0.045664	-0.276540
19063	10.030635	-2.987271	-1.305956	-0.418069	-0.755651	-0.224382	-0.292453	0.052072	0.954861	0.067855	0.997129	-0.033595	-0.953870	0.054967	-0.295147
19064	9.858381	-1.220481	-1.756580	-0.463584	-0.577403	-0.219120	-0.306696	0.047602	0.950616	0.077186	0.996703	-0.025007	-0.948673	0.065705	-0.309359
19065	10.101220	-0.331133	-1.950338	-0.681185	-0.443283	-0.273862	-0.317866	0.041724	0.947217	0.091111	0.995752	-0.013287	-0.943748	0.082079	-0.320318
19066	10.362124	-0.788047	-1.314981	-0.625231	-0.258786	-0.264014	-0.324706	0.035861	0.945135	0.103664	0.994610	-0.002124	-0.940117	0.097287	-0.326673
19067	11.134606	-1.640890	-0.391939	-0.450808	-0.069009	-0.128751	-0.326770	0.032967	0.944529	0.113151	0.993568	0.004467	-0.938306	0.108334	-0.328398
19068	11.916636	-2.047855	-1.179013	-0.560638	0.184285	-0.037014	-0.322642	0.031649	0.945992	0.125950	0.991988	0.009769	-0.938104	0.122300	-0.324043
19069	12.141802	-0.987707	-3.111428	-0.640629	0.671409	0.061309	-0.306738	0.031117	0.951285	0.141430	0.989860	0.013225	-0.941227	0.138597	-0.308029
19070	12.346903	-1.211116	-2.353297	0.108076	1.014560	0.168969	-0.282241	0.031951	0.958811	0.140065	0.990108	0.008237	-0.949064	0.136621	-0.283925
19071	10.857154	-1.712726	-1.773734	0.687632	1.356490	0.466829	-0.248373	0.039299	0.967867	0.126687	0.991912	-0.007765	-0.960344	0.120687	-0.251343
19072	9.890475	-1.814015	-0.624952	1.107129	1.544890	0.690043	-0.209122	0.052416	0.976484	0.103814	0.994109	-0.031130	-0.972363	0.094863	-0.213332
19073	10.147417	-1.295213	-0.364457	1.374292	1.787691	0.875845	-0.163516	0.070817	0.983996	0.074207	0.995477	-0.059312	-0.983746	0.063321	-0.168031
19074	10.299225	0.072996	-1.051353	1.466167	1.922720	0.893506	-0.114781	0.090948	0.989219	0.041002	0.995385	-0.086758	-0.992544	0.030602	-0.117981
19075	10.276428	1.345286	-2.148662	1.222737	1.776692	0.698862	-0.070181	0.107695	0.991704	0.012106	0.994174	-0.107106	-0.997461	0.004489	-0.071076
19076	10.520425	1.475011	-2.571589	0.734377	1.487194	0.384975	-0.033101	0.117487	0.992523	-0.005822	0.993027	-0.117741	-0.999435	-0.009675	-0.032186
19077	11.235248	-0.411495	-2.665602	0.300674	1.273951	0.208041	-0.001394	0.123142	0.992388	-0.013340	0.992299	-0.123149	-0.999910	-0.013410	0.000259
19078	10.895448	-2.543577	-2.685415	0.661838	1.227273	0.313006	0.029013	0.131626	0.990875	-0.030083	0.990958	-0.130757	-0.999126	-0.026015	0.032710
19079	9.624551	-2.720639	-2.228769	1.688954	1.356619	0.402306	0.062222	0.143213	0.987734	-0.072760	0.987669	-0.138620	-0.995407	-0.063242	0.071875
19080	8.746381	-1.508433	-1.731580	2.235193	1.363938	0.371595	0.094978	0.155490	0.983261	-0.129003	0.981320	-0.142722	-0.987085	-0.113288	0.113263
19081	8.185190	-0.094063	-1.207438	2.143149	1.239408	0.217069	0.124416	0.165154	0.978389	-0.182291	0.973071	-0.141076	-0.975341	-0.160799	0.151172
19082	7.634730	0.695614	-0.413634	1.628770	1.020731	-0.015658	0.149100	0.169432	0.974198	-0.221825	0.965832	-0.134027	-0.963620	-0.196118	0.181589
19083	7.804422	0.988372	0.179991	0.965606	0.754064	-0.143700	0.167878	0.169949	0.971048	-0.244518	0.961424	-0.125992	-0.955001	-0.216288	0.202958
19084	7.043952	1.583031	0.267234	0.291662	0.336463	-0.135717	0.176590	0.168616	0.969734	-0.250988	0.960362	-0.121282	-0.951746	-0.221975	0.211911
19085	6.692242	1.461058	0.207794	-0.254439	-0.060295	-0.196625	0.176222	0.163636	0.970654	-0.244162	0.962536	-0.117940	-0.953588	-0.216214	0.209573
19086	6.593046	0.503115	0.229802	-0.499698	-0.357458	-0.237574	0.168941	0.156094	0.973187	-0.231296	0.966086	-0.114803	-0.958103	-0.205699	0.199316
19087	7.469582	-0.619168	1.010782	-0.619850	-0.620735	-0.175505	0.154856	0.148820	0.976664	-0.215789	0.969814	-0.113561	-0.964082	-0.193167	0.182295
19088	12.218555	-5.507561	5.791676	-0.824794	-0.525571	0.170158	0.141120	0.150601	0.978471	-0.196570	0.972945	-0.121400	-0.970281	-0.175206	0.166905
19089	14.074718	-5.960653	5.062625	0.810461	0.315901	0.592856	0.145543	0.166516	0.975238	-0.218401	0.966824	-0.132486	-0.964945	-0.193710	0.177081
19090	10.592256	-0.497124	5.092925	1.865528	0.398332	0.174111	0.153898	0.172937	0.972835	-0.263870	0.956001	-0.128202	-0.952202	-0.236972	0.192760
19091	9.324495	0.312741	5.781358	1.091356	0.297182	-0.016925	0.160922	0.174473	0.971423	-0.289769	0.949227	-0.122484	-0.943471	-0.261778	0.203308
19092	8.627720	0.262347	3.556125	0.495671	0.225312	0.214924	0.164507	0.181148	0.969599	-0.302410	0.944916	-0.125228	-0.938875	-0.272616	0.210226
19093	10.599261	-0.628912	-1.955661	-0.200883	-0.382978	0.351782	0.152737	0.186939	0.970425	-0.299187	0.944614	-0.134877	-0.941891	-0.269737	0.200207
19094	9.684055	2.976566	-3.029665	0.407726	-0.459145	0.273467	0.139720	0.190291	0.971734	-0.309880	0.940469	-0.139612	-0.940453	-0.281615	0.190370
19095	9.300942	4.378751	-1.040838	-0.410727	-0.719382	0.060777	0.122152	0.186768	0.974780	-0.300488	0.943001	-0.143024	-0.945931	-0.275439	0.171311
19096	9.557793	0.488730	-2.306837	-1.384792	-1.119164	0.050980	0.094999	0.180694	0.978941	-0.267738	0.951791	-0.149701	-0.958797	-0.247879	0.138798
19097	9.753923	-3.148924	-1.890770	-1.459455	-1.354950	0.111069	0.061472	0.175475	0.982563	-0.232833	0.959786	-0.156840	-0.970572	-0.219132	0.099857
19098	9.630223	-5.438235	-0.928479	-1.181316	-1.464900	0.405349	0.023403	0.177642	0.983817	-0.204555	0.964117	-0.169219	-0.978575	-0.197284	0.058901
19099	10.126902	-2.420930	0.235683	-0.861489	-1.393186	0.259907	-0.012181	0.177353	0.984072	-0.183542	0.967027	-0.176553	-0.982936	-0.182769	0.020772
19100	9.692266	-1.066174	0.163602	-1.062919	-1.143556	0.132196	-0.041061	0.175685	0.983590	-0.157354	0.970998	-0.180005	-0.986688	-0.162163	-0.012225
19101	9.693721	-1.575347	-0.845635	-1.412532	-1.113131	0.128456	-0.069173	0.174769	0.982177	-0.122338	0.975618	-0.182218	-0.990075	-0.132763	-0.046106
19102	9.739757	-2.246957	-1.560771	-1.923741	-1.130494	0.139427	-0.097689	0.175086	0.979695	-0.074429	0.980361	-0.182627	-0.992430	-0.090759	-0.082739
19103	9.259382	-2.755720	-1.627065	-2.075505	-1.134867	-0.033360	-0.125952	0.172416	0.976938	-0.023094	0.984004	-0.176640	-0.991767	-0.044809	-0.119956
19104	8.613071	-3.828617	-1.842253	-1.596851	-1.024345	-0.306141	-0.151426	0.164255	0.974726	0.015315	0.986368	-0.163838	-0.988350	-0.009881	-0.151877
19105	8.878722	-3.578961	-2.028022	-0.980079	-0.948631	-0.472145	-0.175268	0.152698	0.972607	0.037490	0.988218	-0.148393	-0.983807	0.010455	-0.178928
19106	9.304818	-2.696299	-1.485741	-0.592478	-0.783343	-0.512228	-0.195192	0.140449	0.970656	0.049600	0.989840	-0.133251	-0.979510	0.022135	-0.200176
19107	9.310927	-2.553062	-1.103614	-0.376885	-0.597842	-0.440542	-0.210529	0.130029	0.968902	0.056520	0.991076	-0.120723	-0.975952	0.029346	-0.215999
19108	9.375387	-2.550925	-1.281932	-0.095934	-0.453121	-0.340032	-0.222187	0.122044	0.967336	0.056960	0.992065	-0.112081	-0.973339	0.030196	-0.227376
19109	9.208518	-1.421094	-1.689832	-0.064309	-0.436830	-0.290465	-0.233347	0.115279	0.965536	0.056810	0.992868	-0.104813	-0.970733	0.030394	-0.238232
19110	9.150605	-0.835949	-1.623031	-0.297767	-0.483691	-0.325237	-0.245678	0.107720	0.963348	0.062019	0.993517	-0.095277	-0.967365	0.036338	-0.250766
19111	9.402898	-1.166898	-1.970335	-0.615198	-0.679215	-0.301531	-0.262701	0.101074	0.959569	0.074884	0.993634	-0.084161	-0.961967	0.049747	-0.268598
19112	9.539405	-1.069365	-2.537772	-1.040561	-0.854171	-0.347790	-0.284029	0.093868	0.954210	0.097375	0.992875	-0.068687	-0.953858	0.073407	-0.291145
19113	9.859530	-0.893315	-2.537197	-1.214354	-0.904315	-0.548467	-0.307104	0.082359	0.948106	0.122079	0.991427	-0.046579	-0.943813	0.101440	-0.314526
19114	10.287971	-0.604196	-2.003751	-1.170461	-0.728748	-0.639350	-0.326454	0.068749	0.942710	0.144445	0.989265	-0.022124	-0.934111	0.128948	-0.332880
19115	10.568623	-1.372309	-1.629318	-1.118608	-0.588617	-0.636372	-0.342699	0.055252	0.937819	0.165071	0.986279	0.002213	-0.924829	0.155565	-0.347117
19116	11.094713	-3.391436	-1.308123	-0.842481	-0.470137	-0.547553	-0.355977	0.043847	0.933465	0.179642	0.983479	0.022310	-0.917065	0.175631	-0.357973
19117	12.835593	-3.684822	-1.615811	-0.507930	0.021940	-0.314601	-0.357006	0.036159	0.933402	0.188424	0.981497	0.034046	-0.914901	0.188030	-0.357214
19118	12.303327	-2.108881	-1.017826	-0.006830	0.683061	0.080605	-0.341025	0.035068	0.939400	0.189236	0.981408	0.032061	-0.920810	0.188702	-0.341321
19119	11.398387	0.386582	-0.478600	0.733558	1.349218	0.283679	-0.308496	0.036112	0.950540	0.174467	0.984475	0.019221	-0.935089	0.171768	-0.310007
19120	9.989292	0.376162	-1.143336	0.606592	1.566133	0.430086	-0.269850	0.040399	0.962054	0.163232	0.986578	0.004356	-0.948966	0.158214	-0.272823
19121	10.126012	-1.098415	-1.432963	0.594076	1.710777	0.574838	-0.226767	0.048246	0.972753	0.152546	0.988205	-0.013452	-0.961929	0.145339	-0.231452
19122	10.494194	-1.786365	-1.829932	0.904068	1.851729	0.715503	-0.179423	0.059827	0.981951	0.134220	0.990304	-0.035811	-0.974573	0.125372	-0.185714
19123	10.417677	-1.084288	-2.172444	1.284020	1.906197	0.732297	-0.130562	0.072843	0.988761	0.105506	0.992655	-0.059199	-0.985810	0.096591	-0.137288
19124	10.123185	0.467149	-2.423817	1.428794	1.807428	0.548738	-0.084673	0.082986	0.992947	0.071531	0.994461	-0.077012	-0.993838	0.064506	-0.090140
19125	9.615232	1.208248	-2.552253	1.205552	1.475437	0.320578	-0.047549	0.089220	0.994876	0.041949	0.995303	-0.087253	-0.997988	0.037586	-0.051068
19126	9.857599	-0.590896	-2.570473	0.826031	1.144683	0.219223	-0.018871	0.093993	0.995394	0.021411	0.995381	-0.093586	-0.999593	0.019547	-0.020797
19127	10.163916	-2.850792	-2.809801	1.074282	0.963336	0.314989	0.005182	0.101786	0.994793	-0.005484	0.994794	-0.101758	-0.999972	-0.004928	0.005713
19128	10.435595	-3.001630	-2.358531	2.067941	1.102403	0.376087	0.032321	0.112068	0.993175	-0.057415	0.992261	-0.110097	-0.997827	-0.053465	0.038505
19129	10.011223	-1.539765	-1.252378	2.818521	1.340076	0.246875	0.064941	0.121202	0.990501	-0.127876	0.985424	-0.112197	-0.989662	-0.119375	0.079493
19130	8.804221	0.420151	-0.590406	2.794391	1.361330	0.092796	0.097893	0.128761	0.986832	-0.196847	0.974509	-0.107626	-0.975535	-0.183720	0.120744
19131	7.863430	2.393678	-0.297206	2.193071	1.150637	-0.055677	0.125915	0.133522	0.983014	-0.249874	0.963222	-0.098827	-0.960056	-0.233186	0.154648
19132	7.386749	2.777988	-0.049470	1.373462	0.947523	-0.227851	0.149887	0.134031	0.979576	-0.281949	0.955423	-0.087584	-0.947649	-0.263063	0.180995
19133	7.930309	2.748126	0.450983	0.618225	0.660237	-0.268747	0.167267	0.132151	0.977015	-0.295579	0.952114	-0.078180	-0.940561	-0.275708	0.198318
19134	7.860064	2.130488	0.892476	-0.010747	0.464754	-0.263526	0.179984	0.129141	0.975156	-0.294284	0.953010	-0.071892	-0.938618	-0.274033	0.209530
19135	7.333050	1.244002	0.986305	-0.423732	0.157837	-0.263247	0.185450	0.123981	0.974801	-0.283227	0.956654	-0.067791	-0.940952	-0.263518	0.212526
19136	7.478885	0.201662	1.019555	-0.724222	-0.147284	-0.211274	0.183282	0.118036	0.975948	-0.265265	0.961878	-0.066518	-0.946595	-0.246693	0.207606
19137	9.114551	-1.519273	3.521329	-0.898898	-0.340480	-0.042239	0.175322	0.115066	0.977764	-0.243820	0.967283	-0.070113	-0.953842	-0.226106	0.197641
19138	13.801857	-5.993531	7.733531	-0.759020	0.212195	0.523879	0.177165	0.128968	0.975695	-0.228094	0.969765	-0.086767	-0.957385	-0.207178	0.201226
19139	12.078695	-3.143839	5.437429	0.846326	0.307738	0.558924	0.181033	0.144227	0.972844	-0.250892	0.963232	-0.096114	-0.950936	-0.226679	0.210562
19140	8.309808	-1.271672	4.365613	1.082048	0.421872	0.423009	0.188093	0.156979	0.969525	-0.278554	0.955136	-0.100608	-0.941822	-0.251141	0.223382
19141	8.151646	-1.663802	1.483217	1.344244	0.097796	0.359247	0.187613	0.166251	0.968071	-0.311829	0.944669	-0.101799	-0.931431	-0.282774	0.229074
19142	7.936958	1.983688	-5.196101	0.412389	-0.690268	0.693915	0.165898	0.177683	0.970003	-0.324604	0.938657	-0.116424	-0.931187	-0.295553	0.213398
19143	11.998830	4.079854	-1.073072	0.100300	-0.988852	0.254674	0.140623	0.176332	0.974234	-0.328019	0.936734	-0.122198	-0.934146	-0.302383	0.189567
19144	10.741898	2.919240	-1.273255	-0.234326	-0.967732	0.007320	0.117760	0.169254	0.978512	-0.322648	0.938429	-0.123491	-0.939165	-0.301173	0.165118
19145	9.651528	0.885804	-1.617656	-0.847630	-1.269387	-0.042019	0.087978	0.158977	0.983355	-0.302618	0.944791	-0.125669	-0.949043	-0.286525	0.131230
19146	9.253509	-2.502623	-2.111222	-1.129704	-1.494690	0.103858	0.051405	0.151156	0.987172	-0.275920	0.952153	-0.131426	-0.959805	-0.265624	0.090653
19147	9.505109	-4.997655	-1.723617	-1.029109	-1.687607	0.426392	0.007763	0.150546	0.988573	-0.251510	0.957115	-0.143780	-0.967824	-0.247520	0.045294
19148	10.485001	-2.363123	-0.179236	-0.715765	-1.657314	0.362582	-0.034789	0.149253	0.988187	-0.234106	0.960057	-0.153246	-0.971588	-0.236672	0.001542
19149	10.078007	-0.538801	0.730544	-0.882986	-1.283795	0.157118	-0.067071	0.145753	0.987045	-0.212489	0.964491	-0.156862	-0.974859	-0.220257	-0.033719
19150	9.392205	-1.244909	-0.157442	-1.093326	-1.160800	0.092377	-0.096029	0.141970	0.985202	-0.185676	0.969848	-0.157856	-0.977907	-0.198087	-0.066773
19151	9.672861	-2.230155	-1.019419	-1.579814	-1.159675	0.139006	-0.125168	0.140164	0.982185	-0.146659	0.976481	-0.158039	-0.981236	-0.163827	-0.101667
19152	9.270205	-2.827903	-1.292042	-1.924593	-1.159569	0.095348	-0.154091	0.138438	0.978310	-0.099118	0.982975	-0.154710	-0.983072	-0.120808	-0.137746
19153	9.004741	-3.267428	-1.823415	-1.632118	-1.054420	-0.138663	-0.179867	0.132393	0.974741	-0.059660	0.987609	-0.145149	-0.981880	-0.084261	-0.169740
19154	8.894424	-3.127135	-2.361000	-1.092503	-0.939566	-0.340444	-0.202639	0.122358	0.971579	-0.034569	0.990651	-0.131970	-0.978643	-0.060329	-0.196515
19155	9.239360	-2.414144	-2.216302	-0.697309	-0.880439	-0.414844	-0.223997	0.110995	0.968249	-0.019814	0.992769	-0.118390	-0.974388	-0.045704	-0.220178
19156	9.540587	-1.858254	-1.921228	-0.371656	-0.763205	-0.390913	-0.242530	0.100576	0.964916	-0.013115	0.994181	-0.106923	-0.970055	-0.038587	-0.239800
19157	9.754792	-2.058382	-1.516236	-0.081713	-0.673182	-0.351320	-0.258845	0.091291	0.961595	-0.013394	0.995089	-0.098076	-0.965826	-0.038266	-0.256351
19158	9.140256	-1.643272	-1.458425	0.071298	-0.589553	-0.242983	-0.273097	0.084758	0.958245	-0.016780	0.995540	-0.092839	-0.961840	-0.041434	-0.270457
19159	8.631109	-0.349856	-1.665034	-0.276512	-0.636823	-0.197797	-0.288440	0.079320	0.954207	-0.011587	0.996201	-0.086313	-0.957428	-0.035953	-0.286425
19160	8.835130	-0.707147	-2.363290	-0.763460	-0.849644	-0.261390	-0.308818	0.072329	0.948367	0.004627	0.997207	-0.074548	-0.951110	-0.018634	-0.308290
19161	9.373516	-1.507661	-3.026935	-1.015806	-1.125296	-0.310899	-0.335690	0.064484	0.939763	0.026111	0.997908	-0.059147	-0.941611	0.004683	-0.336671
19162	9.831377	-0.737019	-2.735358	-1.072914	-1.039011	-0.493294	-0.360593	0.052733	0.931232	0.046897	0.998163	-0.038363	-0.931544	0.029839	-0.362403
19163	10.148275	-0.227948	-2.097767	-1.101191	-0.837197	-0.534764	-0.380874	0.040405	0.923744	0.067418	0.997599	-0.015838	-0.922166	0.056245	-0.382683
19164	10.739510	-1.415043	-1.522905	-1.141534	-0.551062	-0.454213	-0.394523	0.030168	0.918391	0.089187	0.995999	0.005596	-0.914548	0.084116	-0.395635
19165	11.651562	-4.199083	-1.743592	-0.859407	-0.182185	-0.219304	-0.399313	0.025265	0.916467	0.106580	0.994122	0.019032	-0.910599	0.105277	-0.399658
19166	12.491284	-3.810706	-2.923903	-0.413947	0.321117	0.062278	-0.391907	0.026057	0.919636	0.116589	0.992946	0.021551	-0.912587	0.115666	-0.392181
19167	12.312115	-1.279120	-2.855634	0.093769	0.924088	0.250006	-0.370069	0.029754	0.928528	0.116775	0.993049	0.014720	-0.921636	0.113876	-0.370971
19168	11.443366	0.805120	-1.509456	0.793939	1.487778	0.323858	-0.334693	0.034058	0.941711	0.101131	0.994873	-0.000037	-0.936885	0.095224	-0.336422
19169	9.874790	0.213199	-0.901529	0.955353	1.849095	0.352017	-0.290259	0.039073	0.956150	0.081247	0.996565	-0.016060	-0.953493	0.073022	-0.292437
19170	10.086225	-1.571701	-0.870103	1.087675	1.965279	0.424099	-0.242365	0.046813	0.969055	0.057871	0.997754	-0.033726	-0.968458	0.047906	-0.244529
19171	10.543783	-2.127742	-1.400201	1.307809	2.267531	0.621624	-0.186451	0.060590	0.980594	0.029236	0.997997	-0.056106	-0.982029	0.018208	-0.187849
19172	10.804749	-1.474015	-2.374911	1.587406	2.312937	0.734815	-0.129234	0.079036	0.988459	-0.007121	0.996719	-0.080628	-0.991589	-0.017459	-0.128247
19173	10.694062	0.226020	-3.002736	1.585213	2.139793	0.663296	-0.076559	0.097550	0.992282	-0.044903	0.993855	-0.101170	-0.996053	-0.052301	-0.071708
19174	11.115273	1.007821	-3.022863	1.240904	1.886764	0.399481	-0.030236	0.110674	0.993397	-0.075380	0.990768	-0.112675	-0.996696	-0.078289	-0.021615
19175	11.056705	-0.399605	-3.064285	0.840634	1.717594	0.277880	0.011846	0.121373	0.992536	-0.096347	0.988126	-0.119684	-0.995277	-0.094210	0.023399
19176	9.617280	-1.556144	-3.208104	0.948960	1.508223	0.390592	0.048143	0.135025	0.989672	-0.120309	0.984391	-0.128452	-0.991568	-0.112882	0.063637
19177	9.646393	-1.454115	-2.952541	1.382930	1.354383	0.355825	0.080260	0.148188	0.985697	-0.155149	0.978692	-0.134502	-0.984625	-0.142135	0.101541
19178	9.237274	-1.408614	-2.362576	1.782532	1.313492	0.219857	0.111310	0.158954	0.980991	-0.199420	0.970619	-0.134646	-0.973572	-0.180642	0.139738
19179	7.947081	-1.274993	-2.066144	1.865897	1.127769	0.039524	0.138202	0.165675	0.976449	-0.244747	0.961045	-0.128421	-0.959687	-0.221235	0.173367
19180	7.606116	-0.221769	-1.279190	1.811462	0.811972	-0.209208	0.158766	0.165665	0.973318	-0.287201	0.950941	-0.115008	-0.944621	-0.261279	0.198556
19181	8.046379	0.565957	-0.271317	1.606912	0.585520	-0.342083	0.174930	0.161743	0.971205	-0.323535	0.941081	-0.098452	-0.929906	-0.296996	0.216953
19182	7.514242	1.550277	0.097474	1.242707	0.317141	-0.276193	0.184412	0.157813	0.970097	-0.351102	0.932476	-0.084950	-0.917998	-0.324937	0.227368
