// General information: 
//  MT Manager version: 2022.2.0 
//  XDA version: 2022.2.0 build 7381 rev 124627 built on 2023-07-19
// Device information: 
//  DeviceId: 00B4CBA7
//  ProductCode: MTW2-3A7G6
//  Firmware Version: 4.6.0
//  Hardware Version: 2.0.0
// Device settings: 
//  Filter Profile: human(46.1)
//  Option Flags: Orientation Smoother Disabled, Position/Velocity Smoother Disabled, Continuous Zero Rotation Update Disabled, AHS Disabled, ICC Disabled
// Coordinate system: ENU
PacketCounter	Acc_X	Acc_Y	Acc_Z	Gyr_X	Gyr_Y	Gyr_Z	Mat[1][1]	Mat[2][1]	Mat[3][1]	Mat[1][2]	Mat[2][2]	Mat[3][2]	Mat[1][3]	Mat[2][3]	Mat[3][3]
52803	9.552641	-1.193959	-1.485107	0.000373	-0.007671	-0.004080	-0.195537	0.018625	0.980519	-0.529730	0.839407	-0.121585	-0.825319	-0.543185	-0.154269
52804	9.573932	-1.182178	-1.451163	0.007051	-0.008073	-0.003958	-0.195556	0.018521	0.980518	-0.529800	0.839372	-0.121519	-0.825270	-0.543242	-0.154331
52805	9.522224	-1.173732	-1.422959	0.003748	-0.011592	-0.001589	-0.195595	0.018412	0.980512	-0.529860	0.839343	-0.121459	-0.825222	-0.543291	-0.154415
52806	9.547496	-1.161378	-1.444132	0.008409	-0.019078	-0.001036	-0.195719	0.018273	0.980490	-0.529935	0.839300	-0.121424	-0.825144	-0.543361	-0.154584
52807	9.565633	-1.139623	-1.378542	0.008432	-0.021560	0.000583	-0.195873	0.018131	0.980462	-0.530014	0.839253	-0.121404	-0.825057	-0.543438	-0.154777
52808	9.567570	-1.117483	-1.423985	0.010680	-0.025980	0.004026	-0.196081	0.017997	0.980423	-0.530098	0.839198	-0.121422	-0.824953	-0.543529	-0.155011
52809	9.588530	-1.106630	-1.391785	0.008425	-0.026975	0.005934	-0.196306	0.017874	0.980380	-0.530129	0.839174	-0.121450	-0.824880	-0.543569	-0.155259
52810	9.597460	-1.171346	-1.482454	0.008660	-0.033074	0.004457	-0.196575	0.017705	0.980329	-0.530195	0.839129	-0.121469	-0.824773	-0.543644	-0.155565
52811	9.652684	-1.256357	-1.526471	0.014264	-0.033531	0.003414	-0.196825	0.017522	0.980282	-0.530304	0.839060	-0.121474	-0.824644	-0.543757	-0.155857
52812	9.609166	-1.202770	-1.640965	0.018534	-0.025457	0.001069	-0.197014	0.017365	0.980247	-0.530459	0.838962	-0.121476	-0.824499	-0.543913	-0.156075
52813	9.593093	-1.235550	-1.743240	0.015050	-0.022434	0.002804	-0.197177	0.017241	0.980216	-0.530545	0.838907	-0.121478	-0.824405	-0.544002	-0.156266
52814	9.614251	-1.224182	-1.710119	0.015003	-0.012063	-0.005791	-0.197218	0.017099	0.980211	-0.530684	0.838829	-0.121407	-0.824305	-0.544126	-0.156358
52815	9.636276	-1.245056	-1.665834	0.010553	-0.008187	-0.009435	-0.197183	0.016945	0.980220	-0.530789	0.838782	-0.121275	-0.824246	-0.544204	-0.156400
52816	9.585226	-1.192136	-1.668994	0.015712	0.001075	-0.005911	-0.197116	0.016875	0.980235	-0.530934	0.838700	-0.121204	-0.824169	-0.544332	-0.156362
52817	9.602116	-1.148014	-1.590269	0.010292	0.000390	-0.009582	-0.197067	0.016769	0.980247	-0.531053	0.838639	-0.121108	-0.824104	-0.544429	-0.156363
52818	9.601146	-1.158350	-1.568427	0.000264	0.002239	-0.010561	-0.196965	0.016666	0.980269	-0.531080	0.838642	-0.120968	-0.824111	-0.544427	-0.156332
52819	9.604866	-1.200983	-1.590200	0.006600	0.007036	-0.004751	-0.196860	0.016636	0.980290	-0.531146	0.838611	-0.120895	-0.824093	-0.544477	-0.156253
52820	9.577146	-1.158365	-1.569030	0.004400	0.006493	-0.004953	-0.196753	0.016603	0.980313	-0.531196	0.838591	-0.120816	-0.824087	-0.544509	-0.156176
52821	9.547218	-1.137964	-1.504619	0.001180	0.006351	-0.008423	-0.196646	0.016545	0.980335	-0.531165	0.838627	-0.120700	-0.824133	-0.544454	-0.156125
52822	9.547345	-1.137553	-1.504124	-0.001231	0.004018	-0.000175	-0.196585	0.016538	0.980347	-0.531159	0.838637	-0.120659	-0.824151	-0.544440	-0.156079
52823	9.549915	-1.191899	-1.504174	0.000996	0.007488	-0.003707	-0.196494	0.016527	0.980366	-0.531099	0.838685	-0.120587	-0.824211	-0.544366	-0.156019
52824	9.546401	-1.148603	-1.481532	0.003220	0.000143	0.003471	-0.196484	0.016530	0.980368	-0.531122	0.838670	-0.120588	-0.824198	-0.544389	-0.156005
52825	9.568896	-1.126195	-1.468626	-0.001179	-0.000942	0.003068	-0.196490	0.016520	0.980367	-0.531135	0.838663	-0.120585	-0.824189	-0.544401	-0.156014
52826	9.575301	-1.180122	-1.523921	-0.009977	-0.003112	0.002262	-0.196500	0.016495	0.980365	-0.531052	0.838720	-0.120554	-0.824240	-0.544314	-0.156048
52827	9.606035	-1.232846	-1.577447	-0.008929	-0.000585	0.001798	-0.196493	0.016480	0.980367	-0.530962	0.838782	-0.120520	-0.824300	-0.544219	-0.156064
52828	9.607123	-1.221738	-1.599148	-0.002331	0.001043	0.002402	-0.196469	0.016479	0.980371	-0.530942	0.838797	-0.120502	-0.824318	-0.544195	-0.156048
52829	9.583938	-1.211519	-1.622501	-0.003298	0.001890	-0.002980	-0.196407	0.016433	0.980385	-0.530941	0.838808	-0.120427	-0.824334	-0.544179	-0.156022
52830	9.577556	-1.157637	-1.567062	0.000890	0.006593	0.000518	-0.196328	0.016447	0.980400	-0.530951	0.838806	-0.120396	-0.824346	-0.544182	-0.155949
52831	9.575862	-1.135992	-1.555366	-0.003509	0.005508	0.000115	-0.196225	0.016441	0.980421	-0.530979	0.838797	-0.120338	-0.824352	-0.544197	-0.155863
52832	9.602068	-1.156550	-1.564104	-0.003588	0.007540	0.000606	-0.196139	0.016460	0.980438	-0.530952	0.838819	-0.120301	-0.824390	-0.544161	-0.155786
52833	9.551291	-1.181221	-1.523743	-0.008119	0.008039	0.002806	-0.196061	0.016502	0.980453	-0.530848	0.838889	-0.120273	-0.824476	-0.544052	-0.155714
52834	9.575703	-1.180224	-1.521312	-0.001310	0.006050	0.000317	-0.195986	0.016510	0.980468	-0.530841	0.838899	-0.120236	-0.824498	-0.544037	-0.155648
52835	9.575130	-1.147442	-1.531160	-0.000315	0.008129	0.001965	-0.195887	0.016545	0.980487	-0.530794	0.838933	-0.120201	-0.824552	-0.543982	-0.155555
52836	9.572273	-1.137174	-1.497931	-0.006810	0.001989	0.002489	-0.195857	0.016549	0.980493	-0.530737	0.838973	-0.120177	-0.824596	-0.543921	-0.155535
52837	9.575200	-1.147818	-1.530441	-0.008094	0.005558	0.004426	-0.195842	0.016598	0.980495	-0.530580	0.839072	-0.120181	-0.824701	-0.543767	-0.155519
52838	9.575858	-1.181230	-1.519553	-0.003723	0.003714	0.008563	-0.195829	0.016663	0.980496	-0.530536	0.839094	-0.120221	-0.824732	-0.543731	-0.155479
52839	9.574048	-1.160335	-1.507987	-0.008280	0.006692	0.009141	-0.195761	0.016743	0.980509	-0.530473	0.839131	-0.120239	-0.824789	-0.543671	-0.155387
52840	9.572871	-1.172162	-1.486190	-0.009038	-0.001483	0.006018	-0.195777	0.016758	0.980505	-0.530390	0.839182	-0.120246	-0.824838	-0.543592	-0.155404
52841	9.572797	-1.172713	-1.486236	-0.008123	0.002627	0.008158	-0.195743	0.016807	0.980511	-0.530343	0.839210	-0.120259	-0.824876	-0.543548	-0.155356
52842	9.552465	-1.173551	-1.542346	-0.009196	0.002579	0.007001	-0.195731	0.016852	0.980513	-0.530258	0.839262	-0.120275	-0.824934	-0.543466	-0.155334
52843	9.575595	-1.184295	-1.518829	-0.008045	0.000594	0.007666	-0.195734	0.016888	0.980512	-0.530207	0.839290	-0.120298	-0.824966	-0.543421	-0.155324
52844	9.577297	-1.206457	-1.530051	-0.005713	-0.000447	0.005265	-0.195738	0.016902	0.980511	-0.530154	0.839324	-0.120303	-0.824999	-0.543369	-0.155327
52845	9.577197	-1.207035	-1.530221	0.003189	-0.002790	0.007204	-0.195778	0.016920	0.980502	-0.530157	0.839316	-0.120341	-0.824988	-0.543380	-0.155349
52846	9.595432	-1.108858	-1.505663	-0.001289	-0.001843	0.007290	-0.195804	0.016944	0.980497	-0.530136	0.839325	-0.120372	-0.824995	-0.543366	-0.155361
52847	9.572152	-1.099537	-1.529068	-0.012787	0.004705	0.012960	-0.195787	0.017046	0.980498	-0.530033	0.839382	-0.120430	-0.825065	-0.543275	-0.155305
52848	9.605250	-1.207405	-1.583003	-0.021322	-0.000630	0.006942	-0.195802	0.017074	0.980495	-0.529847	0.839499	-0.120427	-0.825181	-0.543092	-0.155329
52849	9.577403	-1.242650	-1.520254	-0.011294	-0.002480	0.007925	-0.195842	0.017099	0.980486	-0.529731	0.839569	-0.120450	-0.825246	-0.542983	-0.155365
52850	9.577288	-1.243306	-1.520443	-0.001367	0.000185	0.007782	-0.195854	0.017138	0.980483	-0.529709	0.839578	-0.120486	-0.825258	-0.542968	-0.155357
52851	9.573680	-1.200610	-1.498131	0.002092	-0.000358	0.004426	-0.195837	0.017137	0.980487	-0.529786	0.839529	-0.120489	-0.825212	-0.543045	-0.155332
52852	9.597300	-1.167088	-1.506946	-0.005635	-0.002481	0.004772	-0.195855	0.017136	0.980483	-0.529734	0.839562	-0.120490	-0.825241	-0.542994	-0.155355
52853	9.575854	-1.178614	-1.541648	-0.007828	0.002390	-0.000781	-0.195816	0.017124	0.980491	-0.529571	0.839674	-0.120427	-0.825355	-0.542821	-0.155353
52854	9.574756	-1.189835	-1.519784	-0.016970	0.005414	0.004107	-0.195765	0.017161	0.980501	-0.529426	0.839768	-0.120403	-0.825460	-0.542674	-0.155312
52855	9.623459	-1.187620	-1.515889	-0.007774	0.002840	-0.002893	-0.195716	0.017129	0.980511	-0.529332	0.839838	-0.120329	-0.825532	-0.542567	-0.155303
52856	9.598534	-1.155587	-1.528171	-0.008932	-0.000589	0.001792	-0.195703	0.017113	0.980514	-0.529259	0.839889	-0.120295	-0.825582	-0.542488	-0.155312
52857	9.575987	-1.178097	-1.541222	-0.011102	0.001800	-0.002142	-0.195628	0.017070	0.980530	-0.529221	0.839926	-0.120208	-0.825624	-0.542433	-0.155279
52858	9.574937	-1.188868	-1.519400	-0.009998	0.004778	-0.004715	-0.195536	0.017029	0.980549	-0.529151	0.839984	-0.120109	-0.825690	-0.542344	-0.155236
52859	9.607586	-1.262593	-1.583566	-0.004447	0.003878	-0.003644	-0.195467	0.016994	0.980563	-0.529098	0.840029	-0.120029	-0.825741	-0.542275	-0.155206
52860	9.651044	-1.195107	-1.546071	0.000085	0.003383	-0.005842	-0.195380	0.016936	0.980581	-0.529114	0.840033	-0.119934	-0.825751	-0.542272	-0.155165
52861	9.598433	-1.120392	-1.537050	-0.003524	0.013400	-0.006850	-0.195188	0.016923	0.980620	-0.529083	0.840070	-0.119809	-0.825817	-0.542214	-0.155018
52862	9.581486	-1.207002	-1.582546	-0.016670	0.010591	-0.010184	-0.195019	0.016867	0.980654	-0.528968	0.840165	-0.119645	-0.825930	-0.542068	-0.154926
52863	9.558076	-1.240020	-1.572947	-0.010258	0.013348	-0.004857	-0.194839	0.016868	0.980690	-0.528900	0.840225	-0.119531	-0.826016	-0.541976	-0.154787
52864	9.577957	-1.206260	-1.526067	-0.005646	0.010823	-0.007547	-0.194682	0.016836	0.980722	-0.528871	0.840260	-0.119411	-0.826071	-0.541923	-0.154679
52865	9.547419	-1.152783	-1.471694	-0.007871	0.012760	-0.009370	-0.194531	0.016803	0.980752	-0.528805	0.840319	-0.119285	-0.826150	-0.541831	-0.154583
52866	9.550640	-1.162137	-1.503442	-0.011198	0.011718	-0.008621	-0.194361	0.016767	0.980787	-0.528733	0.840385	-0.119145	-0.826236	-0.541731	-0.154473
52867	9.575863	-1.192855	-1.490351	-0.016592	0.008551	-0.010682	-0.194195	0.016690	0.980821	-0.528656	0.840457	-0.118971	-0.826324	-0.541621	-0.154389
52868	9.603884	-1.156925	-1.552638	-0.008975	0.009778	-0.006798	-0.194051	0.016659	0.980850	-0.528599	0.840510	-0.118853	-0.826394	-0.541540	-0.154296
52869	9.550700	-1.126182	-1.511768	-0.007611	0.004184	-0.009232	-0.193953	0.016577	0.980871	-0.528551	0.840559	-0.118719	-0.826448	-0.541466	-0.154268
52870	9.532638	-1.223912	-1.536203	-0.016672	0.010576	-0.010190	-0.193785	0.016521	0.980905	-0.528436	0.840654	-0.118555	-0.826561	-0.541320	-0.154176
52871	9.582198	-1.253524	-1.521300	-0.007714	0.008693	-0.010357	-0.193631	0.016455	0.980937	-0.528370	0.840718	-0.118399	-0.826639	-0.541223	-0.154095
52872	9.580007	-1.197816	-1.519841	-0.000901	0.006717	-0.012841	-0.193480	0.016356	0.980968	-0.528391	0.840728	-0.118234	-0.826661	-0.541211	-0.154022
52873	9.555294	-1.164676	-1.531508	-0.007580	0.007111	-0.012963	-0.193341	0.016259	0.980997	-0.528343	0.840782	-0.118065	-0.826724	-0.541130	-0.153967
52874	9.583536	-1.205220	-1.551416	-0.008543	0.007963	-0.018346	-0.193151	0.016121	0.981037	-0.528311	0.840834	-0.117834	-0.826789	-0.541053	-0.153891
52875	9.613008	-1.234117	-1.592844	-0.006289	0.008957	-0.020253	-0.192947	0.015973	0.981079	-0.528275	0.840892	-0.117586	-0.826859	-0.540968	-0.153810
52876	9.538628	-1.213728	-1.586404	0.001518	0.009060	-0.021083	-0.192734	0.015818	0.981124	-0.528332	0.840890	-0.117344	-0.826873	-0.540975	-0.153711
52877	9.581730	-1.188784	-1.516064	-0.005188	0.011928	-0.022825	-0.192492	0.015664	0.981174	-0.528314	0.840939	-0.117073	-0.826941	-0.540903	-0.153598
52878	9.552569	-1.199671	-1.440983	-0.000437	0.007828	-0.028120	-0.192251	0.015443	0.981224	-0.528368	0.840949	-0.116758	-0.826963	-0.540894	-0.153513
52879	9.554866	-1.218714	-1.451309	-0.002854	0.010888	-0.025227	-0.192006	0.015270	0.981275	-0.528308	0.841027	-0.116462	-0.827057	-0.540777	-0.153415
52880	9.626116	-1.114177	-1.476408	0.003104	-0.000150	-0.026620	-0.191839	0.015018	0.981311	-0.528389	0.841018	-0.116167	-0.827045	-0.540799	-0.153405
52881	9.575230	-1.059341	-1.479279	-0.009265	0.002701	-0.025217	-0.191629	0.014784	0.981356	-0.528435	0.841032	-0.115857	-0.827064	-0.540784	-0.153354
52882	9.578118	-1.111169	-1.479979	-0.019218	0.002487	-0.026709	-0.191440	0.014545	0.981397	-0.528330	0.841143	-0.115527	-0.827175	-0.540618	-0.153343
52883	9.605378	-1.161524	-1.478900	-0.016828	0.001898	-0.031223	-0.191253	0.014272	0.981437	-0.528188	0.841282	-0.115162	-0.827309	-0.540408	-0.153359
52884	9.574558	-1.106518	-1.425972	-0.005748	-0.008204	-0.019989	-0.191188	0.014033	0.981453	-0.528182	0.841319	-0.114919	-0.827328	-0.540357	-0.153438
52885	9.575752	-1.093330	-1.448634	-0.004566	-0.012664	-0.017707	-0.191145	0.013787	0.981465	-0.528158	0.841366	-0.114681	-0.827353	-0.540289	-0.153542
52886	9.628819	-1.044441	-1.532902	-0.011353	-0.018587	-0.008260	-0.191228	0.013590	0.981452	-0.528083	0.841432	-0.114544	-0.827381	-0.540192	-0.153729
52887	9.628196	-1.087873	-1.503016	-0.024794	-0.021203	-0.002667	-0.191364	0.013420	0.981427	-0.527942	0.841534	-0.114448	-0.827440	-0.540038	-0.153955
52888	9.562090	-1.221276	-1.523791	-0.023668	-0.020709	-0.003622	-0.191489	0.013251	0.981405	-0.527756	0.841665	-0.114338	-0.827530	-0.539837	-0.154177
52889	9.536062	-1.277067	-1.474315	-0.004456	-0.022586	-0.011245	-0.191604	0.013012	0.981386	-0.527683	0.841732	-0.114185	-0.827549	-0.539739	-0.154413
52890	9.601776	-1.262911	-1.383892	0.003758	-0.027213	-0.019900	-0.191697	0.012671	0.981372	-0.527756	0.841717	-0.113957	-0.827482	-0.539770	-0.154668
52891	9.691415	-1.169801	-1.334449	0.008592	-0.033344	-0.025697	-0.191791	0.012244	0.981359	-0.527893	0.841670	-0.113670	-0.827372	-0.539854	-0.154961
52892	9.608895	-1.062819	-1.287338	-0.006775	-0.039689	-0.025520	-0.191958	0.011788	0.981332	-0.527890	0.841712	-0.113371	-0.827336	-0.539798	-0.155350
52893	9.562957	-1.072551	-1.328072	-0.018631	-0.046125	-0.030810	-0.192127	0.011249	0.981306	-0.527814	0.841811	-0.112989	-0.827345	-0.539655	-0.155798
52894	9.569074	-1.167141	-1.356324	-0.027453	-0.051280	-0.027905	-0.192377	0.010710	0.981263	-0.527644	0.841965	-0.112634	-0.827395	-0.539426	-0.156324
52895	9.619174	-1.182965	-1.369828	-0.011079	-0.066413	-0.037786	-0.192726	0.010011	0.981201	-0.527604	0.842045	-0.112223	-0.827339	-0.539315	-0.157003
52896	9.616749	-1.157975	-1.365340	0.006776	-0.073526	-0.032313	-0.193137	0.009315	0.981128	-0.527726	0.842014	-0.111878	-0.827166	-0.539375	-0.157708
52897	9.567393	-1.157453	-1.376333	0.014891	-0.084498	-0.031427	-0.193681	0.008570	0.981027	-0.527927	0.841928	-0.111582	-0.826910	-0.539522	-0.158542
52898	9.540170	-1.222536	-1.311320	0.013144	-0.094823	-0.036240	-0.194247	0.007726	0.980922	-0.528110	0.841863	-0.111209	-0.826661	-0.539636	-0.159449
52899	9.584284	-1.129242	-1.326613	0.020192	-0.102943	-0.040254	-0.194856	0.006805	0.980808	-0.528354	0.841762	-0.110808	-0.826362	-0.539805	-0.160427
52900	9.678727	-1.010651	-1.382614	0.015982	-0.110676	-0.040051	-0.195531	0.005844	0.980680	-0.528567	0.841682	-0.110403	-0.826065	-0.539943	-0.161486
52901	9.598150	-1.045804	-1.279551	-0.002638	-0.123155	-0.035856	-0.196352	0.004853	0.980521	-0.528622	0.841697	-0.110024	-0.825836	-0.539928	-0.162704
52902	9.531411	-1.221478	-1.278311	0.008946	-0.146024	-0.025586	-0.197395	0.003822	0.980317	-0.528749	0.841653	-0.109749	-0.825505	-0.540006	-0.164117
52903	9.572842	-1.197280	-1.224557	0.062979	-0.180558	-0.008158	-0.198810	0.002755	0.980034	-0.529254	0.841338	-0.109730	-0.824842	-0.540503	-0.165808
52904	9.776444	-1.135169	-1.064297	0.103798	-0.212683	0.000579	-0.200539	0.001583	0.979684	-0.530113	0.840779	-0.109871	-0.823872	-0.541376	-0.167770
52905	9.946338	-1.024245	-0.800708	0.137873	-0.269007	0.043217	-0.202938	0.000456	0.979192	-0.531220	0.839999	-0.110486	-0.822570	-0.542588	-0.170226
52906	10.328658	-1.026605	-0.731081	0.230672	-0.350861	0.126543	-0.206466	-0.000416	0.978454	-0.532860	0.838748	-0.112084	-0.820629	-0.544520	-0.173395
52907	10.592104	-1.132060	-0.667790	0.305360	-0.425175	0.208977	-0.211009	-0.001014	0.977484	-0.534951	0.837073	-0.114611	-0.818109	-0.547090	-0.177173
52908	10.544244	-0.987654	-0.515582	0.339836	-0.476787	0.262686	-0.216284	-0.001460	0.976329	-0.537169	0.835215	-0.117749	-0.815273	-0.549922	-0.181427
52909	10.302973	-0.974598	-0.246129	0.336639	-0.505681	0.272305	-0.221873	-0.001991	0.975073	-0.539299	0.833374	-0.121013	-0.812360	-0.552706	-0.185977
52910	9.605316	-0.792562	0.343088	0.308353	-0.551547	0.278663	-0.227824	-0.002753	0.973698	-0.541178	0.831675	-0.124272	-0.809459	-0.555256	-0.190965
52911	9.913089	-0.520967	0.987085	0.245073	-0.618175	0.277586	-0.234317	-0.003906	0.972152	-0.542547	0.830303	-0.127434	-0.806683	-0.557298	-0.196674
52912	10.921359	0.290191	1.591337	0.124194	-0.687809	0.262170	-0.241253	-0.005593	0.970446	-0.542929	0.829625	-0.130191	-0.804379	-0.558293	-0.203186
52913	10.936251	0.152231	1.565198	-0.078428	-0.795512	0.275372	-0.249123	-0.007758	0.968441	-0.541613	0.830092	-0.132675	-0.802866	-0.557573	-0.210997
52914	10.961706	-0.196550	1.231984	-0.134835	-0.920234	0.276887	-0.257974	-0.010611	0.966094	-0.539835	0.830871	-0.135025	-0.801266	-0.556364	-0.220071
52915	11.199247	-0.474359	0.753462	-0.160961	-1.032821	0.288024	-0.267776	-0.013974	0.963380	-0.537826	0.831780	-0.137427	-0.799399	-0.554930	-0.230246
52916	11.331094	-0.855205	0.182046	-0.076720	-1.137015	0.320500	-0.278544	-0.017639	0.960261	-0.536345	0.832258	-0.140291	-0.796710	-0.554108	-0.241281
52917	11.221847	-0.819276	-0.319666	-0.033025	-1.200785	0.364731	-0.290060	-0.021278	0.956772	-0.535122	0.832460	-0.143716	-0.793417	-0.553676	-0.252850
52918	10.937047	-0.833350	-0.676281	-0.087439	-1.230122	0.398552	-0.301902	-0.024791	0.953017	-0.533257	0.833037	-0.147259	-0.790248	-0.552661	-0.264716
52919	10.961846	-1.224512	-1.154684	-0.217588	-1.243256	0.422707	-0.313995	-0.028111	0.949008	-0.530189	0.834379	-0.150706	-0.787596	-0.550474	-0.276895
52920	10.785346	-1.978128	-1.561226	-0.182867	-1.233830	0.429541	-0.325939	-0.031332	0.944872	-0.527385	0.835513	-0.154219	-0.784620	-0.548577	-0.288850
52921	10.412702	-1.926432	-1.704559	-0.183768	-1.222460	0.463420	-0.337980	-0.034166	0.940533	-0.524450	0.836640	-0.158069	-0.781487	-0.546686	-0.300687
52922	10.161992	-1.708289	-2.118661	-0.123436	-1.190097	0.490023	-0.349797	-0.036589	0.936111	-0.521812	0.837488	-0.162252	-0.778045	-0.545229	-0.312044
52923	10.184895	-1.122332	-2.190652	-0.163059	-1.087973	0.488791	-0.360871	-0.038403	0.931825	-0.518785	0.838564	-0.166352	-0.775006	-0.543448	-0.322536
52924	10.101594	-1.255056	-2.114530	-0.245698	-0.913159	0.457589	-0.370278	-0.039541	0.928079	-0.515221	0.840075	-0.169768	-0.772943	-0.541027	-0.331434
52925	9.914362	-1.730420	-2.079421	-0.248510	-0.725480	0.422442	-0.378087	-0.039900	0.924910	-0.511717	0.841582	-0.172876	-0.771489	-0.538654	-0.338609
52926	9.591958	-2.360826	-2.120930	-0.119571	-0.542545	0.362173	-0.384092	-0.039797	0.922437	-0.509426	0.842370	-0.175777	-0.770038	-0.537428	-0.343822
52927	9.403827	-3.060199	-2.441222	0.109841	-0.330788	0.282807	-0.388102	-0.039205	0.920782	-0.509215	0.841864	-0.178785	-0.768164	-0.538263	-0.346693
52928	9.447513	-3.430705	-2.335714	0.376551	-0.110613	0.201731	-0.389954	-0.038133	0.920044	-0.511330	0.839911	-0.181912	-0.765818	-0.541383	-0.347025
52929	9.367967	-3.046371	-1.817249	0.705081	0.129555	0.122484	-0.389647	-0.036397	0.920245	-0.516255	0.836100	-0.185522	-0.762664	-0.547369	-0.344574
52930	9.020538	-2.600243	-1.712054	0.913986	0.380695	0.035908	-0.386911	-0.034025	0.921489	-0.523082	0.831075	-0.188943	-0.759398	-0.555119	-0.339350
52931	8.757311	-1.864930	-1.623208	1.005231	0.641160	-0.063347	-0.381752	-0.030935	0.923747	-0.530927	0.825434	-0.191770	-0.756560	-0.563651	-0.331535
52932	8.373784	-1.500684	-1.674734	0.925806	0.898657	-0.192574	-0.373903	-0.027445	0.927062	-0.538663	0.820124	-0.192975	-0.755009	-0.571527	-0.321430
52933	8.475983	-1.896432	-1.882053	0.867234	1.133930	-0.333593	-0.363529	-0.023624	0.931283	-0.546438	0.815046	-0.192628	-0.754488	-0.578914	-0.309201
52934	8.460199	-1.995463	-1.971996	0.834562	1.351858	-0.423173	-0.350971	-0.019214	0.936189	-0.554258	0.810096	-0.191162	-0.754730	-0.585982	-0.294970
52935	8.311679	-2.106583	-1.989459	0.809654	1.536116	-0.505844	-0.336547	-0.014224	0.941559	-0.562125	0.805224	-0.188759	-0.755481	-0.592800	-0.278991
52936	8.187219	-2.307831	-2.145063	0.800861	1.705236	-0.608500	-0.320182	-0.008969	0.947314	-0.570187	0.800381	-0.185139	-0.756552	-0.599424	-0.261381
52937	8.200949	-2.334519	-2.325131	0.848652	1.853040	-0.706515	-0.302074	-0.003415	0.953278	-0.578839	0.795197	-0.180574	-0.757427	-0.606342	-0.242185
52938	8.208286	-2.152824	-2.353472	0.886995	1.960044	-0.793084	-0.282567	0.002229	0.959245	-0.587887	0.789785	-0.175011	-0.757987	-0.613380	-0.221857
52939	8.172951	-1.976459	-2.485678	0.906404	2.050658	-0.862108	-0.261899	0.008122	0.965061	-0.597127	0.784217	-0.168649	-0.758187	-0.620433	-0.200536
52940	8.295744	-1.938494	-2.590098	0.946564	2.117173	-0.928383	-0.240233	0.014057	0.970613	-0.606640	0.778416	-0.161420	-0.757810	-0.627591	-0.178474
52941	8.542949	-1.818025	-2.545306	0.998523	2.159725	-0.956298	-0.217964	0.020277	0.975746	-0.616474	0.772217	-0.153756	-0.756605	-0.635035	-0.155815
52942	8.773250	-1.499298	-2.313374	0.998874	2.184257	-0.972228	-0.195385	0.026725	0.980362	-0.626038	0.766069	-0.145652	-0.754918	-0.642202	-0.132948
52943	8.968725	-1.857811	-2.277904	1.006332	2.180650	-0.977940	-0.172691	0.033377	0.984410	-0.635446	0.759852	-0.137236	-0.752586	-0.649239	-0.110010
52944	9.132673	-1.810135	-2.061350	1.096728	2.150254	-0.972754	-0.150286	0.040037	0.987832	-0.645255	0.753051	-0.128688	-0.749040	-0.656743	-0.087339
52945	9.351867	-1.539325	-1.863296	1.132333	2.101259	-0.946467	-0.128384	0.046831	0.990618	-0.655096	0.745929	-0.120164	-0.744558	-0.664377	-0.065086
52946	9.647298	-1.225796	-1.436707	1.118969	2.032763	-0.902926	-0.107310	0.053685	0.992775	-0.664465	0.738912	-0.111780	-0.739575	-0.671660	-0.043621
52947	9.845831	-1.185835	-1.141075	1.053641	1.948221	-0.847885	-0.087194	0.060614	0.994346	-0.673112	0.732240	-0.103661	-0.734383	-0.678344	-0.023048
52948	9.894221	-1.230068	-0.716770	0.988561	1.838548	-0.782441	-0.068411	0.067415	0.995377	-0.680954	0.726010	-0.095972	-0.729123	-0.684372	-0.003761
52949	10.088269	-1.432452	-0.375767	0.900025	1.711789	-0.703890	-0.051100	0.074128	0.995939	-0.687907	0.720332	-0.088910	-0.723997	-0.689657	0.014184
52950	10.185550	-1.519293	-0.149108	0.830378	1.593317	-0.627757	-0.035235	0.080628	0.996121	-0.694168	0.715077	-0.082433	-0.718950	-0.694380	0.030774
52951	10.248537	-1.328230	0.041068	0.706354	1.455843	-0.537702	-0.020936	0.086963	0.995991	-0.699411	0.710587	-0.076745	-0.714413	-0.698214	0.045946
52952	10.071018	-1.147267	0.138320	0.535065	1.312782	-0.429495	-0.008536	0.093082	0.995622	-0.703285	0.707237	-0.072150	-0.710857	-0.700822	0.059426
52953	9.999198	-1.125678	0.169171	0.352620	1.167404	-0.316616	0.002087	0.099066	0.995079	-0.705822	0.705049	-0.068711	-0.708386	-0.702205	0.071394
52954	9.686788	-1.134211	0.043239	0.178585	1.034477	-0.200444	0.010857	0.104899	0.994424	-0.707070	0.704006	-0.066544	-0.707060	-0.702405	0.081814
52955	9.472240	-0.970758	-0.262131	0.031411	0.916919	-0.091485	0.018121	0.110713	0.993687	-0.707328	0.703843	-0.065520	-0.706653	-0.701675	0.091065
52956	9.214019	-0.913805	-0.544465	-0.118315	0.817893	0.013527	0.023841	0.116520	0.992902	-0.706491	0.704663	-0.065730	-0.707321	-0.699909	0.099120
52957	8.925861	-1.030545	-0.818520	-0.224873	0.730155	0.106604	0.028376	0.122411	0.992074	-0.704931	0.706108	-0.066963	-0.708708	-0.697443	0.106328
52958	8.655024	-1.258117	-1.184187	-0.281141	0.670870	0.165874	0.032002	0.128233	0.991228	-0.702982	0.707864	-0.068879	-0.710487	-0.694611	0.112798
52959	8.462609	-1.426914	-1.416456	-0.314670	0.622327	0.211938	0.035016	0.134092	0.990350	-0.700786	0.709797	-0.071328	-0.712512	-0.691525	0.118824
52960	8.278807	-1.702973	-1.632452	-0.272489	0.581307	0.240221	0.037514	0.139791	0.989470	-0.698925	0.711357	-0.074001	-0.714211	-0.688789	0.124389
52961	8.188577	-1.751309	-1.759277	-0.159919	0.535712	0.243332	0.039762	0.145227	0.988599	-0.697895	0.712099	-0.076539	-0.715096	-0.686895	0.129668
52962	8.177729	-1.538851	-1.839867	-0.019654	0.502251	0.225019	0.041816	0.150257	0.987762	-0.697842	0.711910	-0.078752	-0.715031	-0.686008	0.134624
52963	8.204475	-1.274361	-1.894963	0.109348	0.459454	0.199708	0.043732	0.154841	0.986971	-0.698715	0.710849	-0.080562	-0.714062	-0.686088	0.139277
52964	8.262550	-1.093323	-1.782585	0.199414	0.408384	0.153128	0.045606	0.158711	0.986271	-0.700201	0.709249	-0.081755	-0.712487	-0.686860	0.143476
52965	8.354619	-1.129161	-1.913305	0.297463	0.353272	0.100935	0.047470	0.161862	0.985671	-0.702366	0.707045	-0.082281	-0.710232	-0.688396	0.147250
52966	9.032322	-0.983932	-1.039137	0.371711	0.305067	0.049321	0.049318	0.164293	0.985178	-0.705020	0.704410	-0.082177	-0.707471	-0.690517	0.150570
52967	9.109210	-0.451450	-1.790179	0.603675	0.182534	0.045426	0.050335	0.165882	0.984860	-0.709280	0.700179	-0.081682	-0.703128	-0.694430	0.152900
52968	8.359339	0.173682	-2.186211	0.470361	-0.017057	0.111807	0.049453	0.166524	0.984796	-0.712630	0.696728	-0.082027	-0.699794	-0.697739	0.153126
52969	9.657952	1.298249	-0.035871	0.207774	-0.151064	0.178559	0.047173	0.166700	0.984879	-0.714157	0.694996	-0.083428	-0.698394	-0.699423	0.151835
52970	11.636160	1.635716	2.054459	0.048095	-0.030071	0.146792	0.045947	0.167489	0.984803	-0.714557	0.694423	-0.084765	-0.698067	-0.699803	0.151587
52971	11.722916	2.421027	2.333488	-0.050752	0.160596	0.113271	0.046318	0.169381	0.984462	-0.714241	0.694608	-0.085906	-0.698366	-0.699163	0.153152
52972	11.085823	3.779203	2.692425	-0.427464	0.197100	0.128461	0.046815	0.171630	0.984049	-0.711304	0.697380	-0.087792	-0.701324	-0.695848	0.154729
52973	10.893482	3.214756	3.240097	-0.894183	0.112924	0.171197	0.046445	0.173584	0.983723	-0.705063	0.703306	-0.090814	-0.707622	-0.689369	0.155052
52974	10.991340	1.309476	2.981396	-1.064615	-0.014656	0.203918	0.044943	0.174904	0.983559	-0.697578	0.710259	-0.094429	-0.715098	-0.681866	0.153930
52975	10.731898	-0.332384	2.556349	-1.002135	-0.121172	0.246626	0.042408	0.175810	0.983510	-0.690457	0.716658	-0.098336	-0.722129	-0.674902	0.151781
52976	10.293402	-1.152931	2.180772	-0.868829	-0.185139	0.308682	0.038976	0.176765	0.983481	-0.684278	0.721961	-0.102643	-0.728179	-0.668974	0.149096
52977	9.729501	-1.512043	1.921174	-0.656029	-0.250017	0.385906	0.034553	0.177856	0.983450	-0.679613	0.725672	-0.107359	-0.732756	-0.664656	0.145948
52978	9.619262	-1.547159	2.041564	-0.566165	-0.315066	0.410261	0.029490	0.178730	0.983456	-0.675581	0.728703	-0.112174	-0.736696	-0.661096	0.142236
52979	9.798281	-2.717137	2.361071	-0.680107	-0.394088	0.419663	0.023794	0.179167	0.983531	-0.670653	0.732453	-0.117205	-0.741390	-0.656819	0.137587
52980	9.852770	-5.051338	1.183307	-0.559144	-0.509847	0.447653	0.017042	0.179091	0.983685	-0.666584	0.735325	-0.122325	-0.745235	-0.653624	0.131911
52981	9.971340	-4.121948	0.272708	-0.089294	-0.596838	0.461736	0.009554	0.178561	0.983883	-0.665963	0.735105	-0.126944	-0.745924	-0.654016	0.125938
52982	9.880455	-1.475038	0.093217	0.037212	-0.572908	0.447671	0.002331	0.178077	0.984014	-0.666264	0.734072	-0.131267	-0.745713	-0.655307	0.120357
52983	10.119042	-0.232827	-0.104807	-0.149147	-0.545140	0.424723	-0.004542	0.177598	0.984093	-0.665138	0.734307	-0.135590	-0.746707	-0.655173	0.114792
52984	10.059159	-0.761158	-0.284244	-0.349802	-0.505008	0.411844	-0.011021	0.177300	0.984095	-0.662487	0.735874	-0.139998	-0.748992	-0.653493	0.109349
52985	9.965487	-1.674577	-0.468889	-0.337460	-0.499841	0.398893	-0.017376	0.176946	0.984067	-0.659893	0.737384	-0.144241	-0.751158	-0.651886	0.103953
52986	9.966877	-1.722408	-0.309529	-0.225194	-0.496497	0.390688	-0.023652	0.176572	0.984004	-0.658118	0.738170	-0.148278	-0.752543	-0.651097	0.098746
52987	9.911686	-1.516266	-0.078829	-0.226760	-0.458832	0.379587	-0.029574	0.176358	0.983882	-0.656296	0.738995	-0.152190	-0.753923	-0.650219	0.093888
52988	9.618601	-2.000312	0.041368	-0.253056	-0.405093	0.359704	-0.034957	0.176365	0.983704	-0.654269	0.740014	-0.155924	-0.755454	-0.649057	0.089521
52989	9.378189	-2.470260	0.238332	-0.205996	-0.380597	0.338210	-0.040011	0.176369	0.983511	-0.652561	0.740783	-0.159389	-0.756679	-0.648178	0.085452
52990	9.227101	-2.539118	0.519987	-0.119260	-0.352035	0.308616	-0.044657	0.176353	0.983313	-0.651526	0.741021	-0.162488	-0.757311	-0.647910	0.081807
52991	9.190710	-2.500976	0.846991	-0.015484	-0.338701	0.287756	-0.049068	0.176259	0.983120	-0.651253	0.740641	-0.165290	-0.757273	-0.648370	0.078447
52992	9.227854	-2.375709	1.012413	0.113726	-0.342832	0.270863	-0.053396	0.176016	0.982938	-0.651974	0.739435	-0.167829	-0.756359	-0.649811	0.075275
52993	9.151888	-1.933824	1.199774	0.252342	-0.359771	0.276227	-0.057885	0.175685	0.982743	-0.653718	0.737323	-0.170316	-0.754521	-0.652296	0.072169
52994	9.254174	-1.292268	1.471310	0.328446	-0.392522	0.290270	-0.062712	0.175234	0.982528	-0.656016	0.734675	-0.172901	-0.752137	-0.655397	0.068883
52995	9.339985	-1.019055	1.847329	0.299228	-0.432942	0.302144	-0.067919	0.174579	0.982298	-0.658057	0.732199	-0.175630	-0.749899	-0.658337	0.065152
52996	9.467668	-1.013370	2.007601	0.285413	-0.489783	0.325793	-0.073703	0.173707	0.982036	-0.659963	0.729758	-0.178614	-0.747674	-0.661271	0.060855
52997	9.491885	-0.353799	2.235017	0.222564	-0.570212	0.367161	-0.080363	0.172577	0.981712	-0.661337	0.727660	-0.182053	-0.745771	-0.663873	0.055655
52998	9.479245	0.571796	2.814383	0.032625	-0.662586	0.423840	-0.088073	0.171234	0.981286	-0.661224	0.726724	-0.186160	-0.745001	-0.665245	0.049219
52999	9.150260	-0.886385	2.585819	-0.345563	-0.768174	0.493156	-0.097023	0.169691	0.980710	-0.658188	0.728192	-0.191113	-0.746575	-0.664034	0.041037
53000	9.013414	-1.439947	2.523147	-0.192543	-0.883608	0.504147	-0.106904	0.167474	0.980063	-0.656237	0.728630	-0.196090	-0.746943	-0.664117	0.032009
53001	9.178330	-1.556507	2.005042	-0.202650	-0.971571	0.530320	-0.117610	0.164863	0.979279	-0.654122	0.729109	-0.201305	-0.747190	-0.664244	0.022090
53002	9.144754	-2.014671	0.960558	-0.212939	-1.031211	0.542049	-0.128824	0.161945	0.978355	-0.651864	0.729647	-0.206610	-0.747313	-0.664371	0.011570
53003	9.279045	-2.425989	0.305675	-0.197206	-1.057018	0.530975	-0.140152	0.158777	0.977316	-0.649668	0.730123	-0.211783	-0.747188	-0.664613	0.000824
53004	9.157397	-2.915920	-0.532940	-0.234873	-1.020846	0.489801	-0.150925	0.155549	0.976230	-0.647202	0.730923	-0.216520	-0.747229	-0.664497	-0.009643
53005	9.492397	-3.877091	-1.582286	-0.167811	-0.976559	0.431818	-0.160982	0.152195	0.975152	-0.645281	0.731379	-0.220674	-0.746791	-0.664772	-0.019530
53006	9.808706	-3.828043	-2.492803	-0.026825	-0.887998	0.368629	-0.169954	0.148961	0.974128	-0.644474	0.731010	-0.224224	-0.745499	-0.665909	-0.028237
53007	9.914617	-3.533144	-3.042713	-0.018946	-0.757311	0.325846	-0.177669	0.146273	0.973159	-0.643774	0.730660	-0.227357	-0.744304	-0.666888	-0.035649
53008	9.853739	-3.121017	-3.290752	-0.081328	-0.623971	0.250083	-0.183890	0.143917	0.972354	-0.642720	0.730848	-0.229722	-0.743704	-0.667195	-0.041897
53009	9.976721	-3.541937	-3.450946	-0.059772	-0.520986	0.192122	-0.188969	0.141823	0.971688	-0.641913	0.730987	-0.231528	-0.743127	-0.667491	-0.047096
53010	10.738528	-1.816483	-2.508170	-0.032061	-0.407366	0.169115	-0.193050	0.140318	0.971104	-0.641356	0.730971	-0.233119	-0.742559	-0.667827	-0.051120
53011	8.811086	-4.664487	-2.927345	-0.170876	-0.325600	0.131492	-0.196283	0.139078	0.970634	-0.639833	0.731938	-0.234264	-0.743025	-0.667026	-0.054681
53012	9.837378	-3.625067	-1.653531	0.378151	-0.366432	0.103548	-0.199634	0.137363	0.970195	-0.642436	0.729275	-0.235445	-0.739880	-0.670291	-0.057341
53013	9.803289	-1.267752	-0.423664	0.354745	-0.318777	0.083922	-0.202504	0.135808	0.969819	-0.644876	0.726798	-0.236431	-0.736972	-0.673291	-0.059600
53014	9.672424	-0.717235	0.295514	0.108568	-0.313403	0.128050	-0.205607	0.134605	0.969333	-0.645419	0.725901	-0.237702	-0.735636	-0.674499	-0.062374
53015	9.446827	-2.922973	-0.080859	0.026798	-0.348202	0.162929	-0.209187	0.133411	0.968732	-0.645276	0.725517	-0.239256	-0.734751	-0.675149	-0.065682
53016	8.893711	-2.952882	0.111020	0.176372	-0.418462	0.167229	-0.213307	0.131773	0.968058	-0.646222	0.724111	-0.240958	-0.732733	-0.676978	-0.069303
53017	9.339441	-1.957832	0.601423	0.204420	-0.464578	0.176497	-0.217822	0.129872	0.967309	-0.647338	0.722506	-0.242774	-0.730416	-0.679057	-0.073307
53018	9.101854	-1.527519	0.866583	0.089095	-0.498232	0.173809	-0.222552	0.127720	0.966519	-0.647610	0.721684	-0.244486	-0.728747	-0.680338	-0.077900
53019	8.836138	-1.813022	0.882829	-0.038720	-0.548182	0.173689	-0.227641	0.125220	0.965660	-0.646936	0.721742	-0.246097	-0.727773	-0.680742	-0.083289
53020	8.819788	-2.317659	0.757950	-0.029775	-0.642343	0.192088	-0.233523	0.122211	0.964641	-0.646282	0.721714	-0.247888	-0.726489	-0.681317	-0.089554
53021	9.163735	-1.711173	0.797876	-0.053490	-0.708881	0.214839	-0.240026	0.118911	0.963456	-0.645388	0.721829	-0.249875	-0.725163	-0.681780	-0.096515
53022	8.886952	-1.963058	0.423232	-0.136212	-0.748192	0.226470	-0.246878	0.115425	0.962148	-0.643856	0.722499	-0.251882	-0.724225	-0.681668	-0.104053
53023	8.823255	-2.478650	-0.112115	-0.177034	-0.799297	0.223473	-0.254072	0.111575	0.960728	-0.642019	0.723460	-0.253806	-0.723366	-0.681291	-0.112178
53024	8.998648	-2.781227	-0.538111	-0.178615	-0.834781	0.226953	-0.261531	0.107511	0.959189	-0.640149	0.724435	-0.255741	-0.722364	-0.680908	-0.120639
53025	9.221872	-2.780460	-1.128678	-0.177584	-0.834149	0.215178	-0.268900	0.103372	0.957605	-0.638309	0.725417	-0.257548	-0.721287	-0.680503	-0.129081
53026	9.331585	-2.933640	-1.779163	-0.196580	-0.817549	0.195195	-0.276006	0.099207	0.956022	-0.636368	0.726563	-0.259117	-0.720317	-0.679900	-0.137404
53027	9.426711	-2.992750	-2.223852	-0.233347	-0.778667	0.170402	-0.282673	0.095138	0.954487	-0.634217	0.727989	-0.260386	-0.719629	-0.678956	-0.145444
53028	9.560909	-3.072338	-2.595172	-0.251249	-0.734265	0.141742	-0.288822	0.091169	0.953032	-0.632012	0.729568	-0.261327	-0.719126	-0.677805	-0.153096
53029	9.435016	-3.084048	-2.551054	-0.255938	-0.685824	0.114167	-0.294447	0.087337	0.951669	-0.629849	0.731202	-0.261981	-0.718742	-0.676547	-0.160291
53030	9.294967	-3.204237	-2.230408	-0.250331	-0.661977	0.078735	-0.299669	0.083418	0.950389	-0.627825	0.732833	-0.262283	-0.718355	-0.675276	-0.167236
53031	9.439696	-3.552924	-1.965625	-0.216570	-0.649732	0.033338	-0.304523	0.079257	0.949202	-0.626175	0.734272	-0.262200	-0.717754	-0.674212	-0.173974
53032	9.725055	-2.726743	-1.704480	-0.146337	-0.638652	0.018886	-0.309192	0.075070	0.948032	-0.625076	0.735250	-0.262084	-0.716715	-0.673626	-0.180409
53033	9.580200	-2.123335	-1.300341	-0.204795	-0.642129	0.023053	-0.313909	0.070895	0.946803	-0.623551	0.736612	-0.261892	-0.715993	-0.672590	-0.187023
53034	9.481336	-2.300036	-0.966206	-0.229914	-0.684337	0.045711	-0.319062	0.066612	0.945390	-0.621770	0.738131	-0.261850	-0.715264	-0.671361	-0.194092
53035	9.602481	-2.210336	-0.645194	-0.203896	-0.732270	0.071184	-0.324708	0.062206	0.943766	-0.620098	0.739452	-0.262087	-0.714173	-0.670329	-0.201533
53036	9.521619	-1.615121	-0.346188	-0.179904	-0.801420	0.124852	-0.331169	0.057739	0.941803	-0.618414	0.740588	-0.262858	-0.712665	-0.669475	-0.209553
53037	9.457068	-1.490380	-0.205055	-0.243886	-0.883220	0.145762	-0.338331	0.052899	0.939539	-0.616201	0.742138	-0.263681	-0.711216	-0.668157	-0.218492
53038	9.466618	-1.722390	-0.034754	-0.289661	-0.970105	0.169291	-0.346235	0.047662	0.936936	-0.613574	0.743990	-0.264587	-0.709682	-0.666489	-0.228352
53039	9.299806	-2.113650	0.254049	-0.301356	-1.072412	0.185784	-0.354951	0.041889	0.933946	-0.610801	0.745910	-0.265594	-0.707765	-0.664728	-0.239176
53040	9.224546	-2.159950	0.702366	-0.307108	-1.186847	0.217712	-0.364635	0.035615	0.930469	-0.607858	0.747869	-0.266835	-0.705372	-0.662891	-0.251050
53041	9.101590	-2.329789	1.127071	-0.248702	-1.345142	0.235581	-0.375502	0.028453	0.926385	-0.605261	0.749430	-0.268356	-0.701896	-0.661472	-0.264191
53042	9.818923	-2.055651	1.553261	-0.152141	-1.543371	0.259609	-0.387837	0.020175	0.921507	-0.603217	0.750376	-0.270306	-0.696930	-0.660703	-0.278854
53043	10.026368	-1.352974	1.915614	-0.063252	-1.780261	0.302040	-0.401971	0.010663	0.915590	-0.601624	0.750725	-0.272874	-0.690267	-0.660528	-0.295354
53044	10.581995	-0.662572	2.064604	-0.075356	-2.026647	0.352271	-0.417969	-0.000096	0.908461	-0.599675	0.751207	-0.275822	-0.682417	-0.660066	-0.314038
53045	11.560274	-0.333762	2.106687	-0.142472	-2.280205	0.431103	-0.435973	-0.011910	0.899881	-0.596915	0.752143	-0.279238	-0.673513	-0.658892	-0.335023
53046	12.819574	0.304360	2.134276	-0.239142	-2.538596	0.518874	-0.456006	-0.024724	0.889633	-0.593015	0.753813	-0.283017	-0.663620	-0.656624	-0.358405
53047	13.880380	0.487526	1.819633	-0.390023	-2.757990	0.630115	-0.477843	-0.038040	0.877621	-0.587562	0.756526	-0.287121	-0.653022	-0.652856	-0.383852
53048	14.649785	0.997864	0.368356	-0.458446	-2.897160	0.747921	-0.500939	-0.051238	0.863964	-0.580949	0.759844	-0.291780	-0.641528	-0.648084	-0.410402
53049	13.925559	0.984612	-0.927087	-0.790907	-2.932794	0.861887	-0.524523	-0.063585	0.849019	-0.571562	0.765393	-0.295789	-0.631025	-0.640415	-0.437809
53050	13.065385	0.016999	-1.903215	-1.251695	-2.969897	0.935655	-0.548396	-0.075253	0.832826	-0.558715	0.773986	-0.297964	-0.622173	-0.628715	-0.466496
53051	13.041422	-2.133797	-2.588419	-1.504644	-2.985286	0.927619	-0.571913	-0.086613	0.815729	-0.544288	0.784051	-0.298354	-0.613732	-0.614624	-0.495551
53052	12.666397	-4.053412	-3.407432	-1.518310	-2.925654	0.894352	-0.594518	-0.097348	0.798167	-0.529839	0.794094	-0.297801	-0.604830	-0.599948	-0.523682
53053	11.673779	-5.424259	-4.645093	-1.367958	-2.858597	0.866319	-0.616146	-0.107416	0.780273	-0.516467	0.803049	-0.297279	-0.594665	-0.586153	-0.550272
53054	11.294655	-6.082022	-5.536253	-1.240596	-2.809332	0.827848	-0.636895	-0.117042	0.762014	-0.503993	0.811166	-0.296648	-0.583400	-0.572983	-0.575617
53055	11.071626	-5.976861	-5.877893	-1.112232	-2.754691	0.752389	-0.656495	-0.126566	0.743636	-0.492798	0.818334	-0.295771	-0.571108	-0.560635	-0.599604
53056	10.331311	-5.569435	-6.062630	-0.995314	-2.698213	0.684534	-0.675045	-0.135938	0.725145	-0.482643	0.824751	-0.294687	-0.558005	-0.548913	-0.622354
53057	9.666087	-5.179711	-5.963983	-0.896749	-2.605487	0.592713	-0.692189	-0.145240	0.706952	-0.473752	0.830397	-0.293258	-0.544458	-0.537910	-0.643599
53058	8.689253	-4.894243	-5.983284	-0.679429	-2.454428	0.502368	-0.707721	-0.154172	0.689465	-0.466608	0.834768	-0.292299	-0.530479	-0.528576	-0.662721
53059	7.669329	-4.169309	-5.977263	-0.464502	-2.252562	0.417398	-0.721394	-0.162561	0.673175	-0.461308	0.837800	-0.292036	-0.516513	-0.521214	-0.679375
53060	6.458533	-3.683450	-6.273339	-0.343204	-2.019338	0.350604	-0.733280	-0.170108	0.658303	-0.457033	0.840158	-0.291987	-0.503409	-0.514974	-0.693816
53061	5.458610	-3.356287	-6.650348	-0.346211	-1.766079	0.272952	-0.743255	-0.176917	0.645192	-0.453416	0.842334	-0.291356	-0.491921	-0.509092	-0.706286
53062	4.370018	-3.489817	-7.090521	-0.423705	-1.432470	0.126397	-0.750789	-0.183126	0.634650	-0.450432	0.844700	-0.289124	-0.483143	-0.502937	-0.716678
53063	5.658004	-4.980958	-5.438806	-0.226924	-1.051916	-0.112317	-0.755272	-0.189411	0.627446	-0.450310	0.845558	-0.286796	-0.476219	-0.499154	-0.723920
53064	7.452006	-4.770485	-3.295571	0.492961	-0.628008	-0.253218	-0.757074	-0.194719	0.623637	-0.454582	0.842599	-0.288761	-0.469249	-0.502108	-0.726425
53065	7.385739	-4.396287	-3.564118	1.082960	-0.265914	-0.292664	-0.756910	-0.198593	0.622614	-0.461974	0.836458	-0.294818	-0.462242	-0.510783	-0.724868
53066	7.082030	-3.424843	-3.880780	1.390247	0.095877	-0.381003	-0.754670	-0.201296	0.624462	-0.471267	0.828507	-0.302462	-0.456487	-0.522547	-0.720114
53067	5.777271	-2.500472	-3.772741	1.458757	0.462859	-0.578752	-0.749739	-0.203689	0.629604	-0.482396	0.819525	-0.309310	-0.452973	-0.535620	-0.712689
53068	7.003770	-2.502129	-3.382456	1.406855	0.761758	-0.797578	-0.742374	-0.206084	0.637503	-0.494737	0.810258	-0.314193	-0.451792	-0.548645	-0.703472
53069	7.660271	-3.194875	-3.285946	1.608625	1.102091	-0.957857	-0.732516	-0.207732	0.648280	-0.509214	0.799226	-0.319279	-0.451798	-0.563990	-0.691226
53070	7.807628	-2.407238	-3.068382	1.804269	1.407518	-1.072506	-0.720580	-0.208201	0.661375	-0.525192	0.786658	-0.324566	-0.452701	-0.581224	-0.676196
53071	7.313733	-1.892020	-3.211670	1.811664	1.749041	-1.222873	-0.706035	-0.207484	0.677101	-0.542290	0.773311	-0.328498	-0.455452	-0.599116	-0.658501
53072	6.977478	-1.709878	-3.645004	1.685053	2.048234	-1.366258	-0.689102	-0.205536	0.694906	-0.559563	0.760243	-0.330029	-0.460465	-0.616267	-0.638895
53073	7.012120	-2.207329	-3.965341	1.628041	2.341442	-1.480956	-0.669744	-0.202123	0.714555	-0.577323	0.746931	-0.329837	-0.467056	-0.633435	-0.616943
53074	6.812431	-2.102863	-3.922269	1.608190	2.606501	-1.581522	-0.648168	-0.197117	0.735542	-0.595342	0.733443	-0.328068	-0.474811	-0.650543	-0.592747
53075	6.899170	-1.616451	-3.837521	1.466188	2.861120	-1.669944	-0.624277	-0.190456	0.757631	-0.613140	0.720423	-0.324116	-0.484085	-0.666872	-0.566519
53076	7.046728	-1.646562	-4.219266	1.259574	3.100447	-1.768069	-0.598074	-0.182203	0.780455	-0.630136	0.708629	-0.317448	-0.495213	-0.681650	-0.538625
53077	7.176601	-1.950138	-4.642021	1.004992	3.311318	-1.841435	-0.569627	-0.172401	0.803618	-0.646065	0.698320	-0.308138	-0.508060	-0.694714	-0.509165
53078	7.511348	-2.489538	-4.997486	0.887405	3.508129	-1.902848	-0.539094	-0.161035	0.826708	-0.661204	0.688924	-0.296973	-0.521716	-0.706719	-0.477872
53079	7.335375	-3.252256	-5.435555	0.859540	3.691218	-1.983285	-0.506239	-0.148321	0.849543	-0.676240	0.679605	-0.284317	-0.535184	-0.718427	-0.444343
53080	8.051638	-4.217619	-5.752504	1.114235	3.857761	-2.054644	-0.471280	-0.134222	0.871711	-0.692327	0.668620	-0.271348	-0.546423	-0.731390	-0.408033
53081	8.178951	-2.642995	-5.535788	1.147546	3.943473	-1.951860	-0.435793	-0.118073	0.892269	-0.707626	0.657567	-0.258596	-0.556193	-0.744086	-0.370115
53082	7.741573	-2.500694	-5.340366	1.044456	4.054976	-2.010252	-0.398641	-0.100804	0.911550	-0.721888	0.647533	-0.244089	-0.565653	-0.755341	-0.330902
53083	7.830402	-2.981434	-5.399619	1.022014	4.210382	-2.081442	-0.359396	-0.082143	0.929563	-0.735708	0.637737	-0.228090	-0.574081	-0.765862	-0.289633
53084	8.387585	-2.862472	-5.232539	0.983524	4.339404	-2.121568	-0.318537	-0.062152	0.945871	-0.748596	0.628625	-0.210795	-0.581497	-0.775221	-0.246767
53085	8.560417	-2.987025	-5.064073	0.857497	4.462702	-2.144975	-0.276177	-0.040758	0.960242	-0.760084	0.620731	-0.192262	-0.588216	-0.782963	-0.202412
53086	8.773373	-2.845824	-4.449663	0.743937	4.566874	-2.172817	-0.232513	-0.018293	0.972421	-0.770019	0.614242	-0.172562	-0.594146	-0.788905	-0.156905
53087	9.457362	-2.900437	-4.021215	0.572583	4.631081	-2.167057	-0.188027	0.005109	0.982151	-0.778075	0.609473	-0.152128	-0.599371	-0.792791	-0.110622
53088	10.206773	-2.814577	-3.742917	0.416938	4.654965	-2.145644	-0.143219	0.028998	0.989266	-0.784143	0.606531	-0.131302	-0.603828	-0.794531	-0.064128
53089	11.295962	-2.404604	-3.258804	0.222782	4.639137	-2.078435	-0.098713	0.053291	0.993688	-0.788078	0.605528	-0.110762	-0.607609	-0.794038	-0.017775
53090	12.427536	-1.831449	-2.393103	-0.050957	4.558884	-1.964391	-0.055387	0.077494	0.995453	-0.789283	0.607221	-0.091187	-0.611527	-0.790745	0.027533
53091	12.825790	-1.456938	-1.313197	-0.344836	4.384341	-1.798434	-0.014242	0.101122	0.994772	-0.787853	0.611469	-0.073437	-0.615698	-0.784780	0.070961
53092	12.841570	-2.057405	-0.839916	-0.737617	4.130119	-1.653958	0.024336	0.123157	0.992089	-0.783205	0.619086	-0.057640	-0.621287	-0.775606	0.111523
53093	12.139676	-2.402412	-0.009602	-0.928656	3.755768	-1.485911	0.059418	0.142866	0.987957	-0.776841	0.628149	-0.044114	-0.626887	-0.764865	0.148307
53094	11.379598	-2.044357	-0.252110	-0.973362	3.287009	-1.217975	0.089564	0.160103	0.983029	-0.769802	0.637393	-0.033673	-0.631967	-0.753722	0.180335
53095	8.589530	-1.538647	-0.288266	-1.091830	2.751232	-0.877305	0.113790	0.175093	0.977954	-0.762032	0.646969	-0.027167	-0.637463	-0.742141	0.207045
53096	8.162547	-1.111934	0.141923	-1.063034	2.150672	-0.522909	0.131558	0.187515	0.973412	-0.754579	0.655758	-0.024341	-0.642887	-0.731314	0.227765
53097	7.704116	-1.040576	0.194851	-0.956624	1.593013	-0.228276	0.143593	0.197631	0.969703	-0.748140	0.663094	-0.024358	-0.647818	-0.721976	0.243071
53098	6.750056	-1.153781	0.030851	-0.854495	0.986563	0.034804	0.149782	0.204930	0.967248	-0.742628	0.669169	-0.026777	-0.652740	-0.714295	0.252416
53099	6.193770	-1.906315	-0.595548	-0.758937	0.378307	0.240124	0.150520	0.209276	0.966203	-0.738063	0.674019	-0.031011	-0.657729	-0.708450	0.255912
53100	6.354340	-3.101327	-2.333813	-0.565463	-0.152031	0.419081	0.146463	0.211015	0.966448	-0.734946	0.677144	-0.036468	-0.662119	-0.704946	0.254261
53101	6.436909	-3.433578	-3.819905	-0.261921	-0.524133	0.561343	0.138898	0.211162	0.967532	-0.734055	0.677757	-0.042539	-0.664734	-0.704313	0.249144
53102	6.268412	-3.366395	-5.355440	-0.014853	-0.711634	0.615812	0.129674	0.210297	0.968999	-0.734777	0.676573	-0.048503	-0.665799	-0.705709	0.242255
53103	5.868562	-2.957004	-6.206050	0.126249	-0.756868	0.610855	0.120175	0.209100	0.970482	-0.736418	0.674360	-0.054107	-0.665768	-0.708178	0.235026
53104	6.560981	-2.907296	-5.543135	0.208880	-0.716414	0.553369	0.111361	0.207723	0.971828	-0.738443	0.671734	-0.058962	-0.665057	-0.711073	0.228196
53105	5.923775	-3.278733	-6.664650	0.438693	-0.694174	0.450896	0.103448	0.205805	0.973110	-0.741864	0.667646	-0.062337	-0.662522	-0.715467	0.221747
53106	6.306091	-2.925357	-5.940011	0.717404	-0.843962	0.401402	0.094921	0.202390	0.974694	-0.746994	0.661680	-0.064648	-0.658019	-0.721954	0.213992
53107	8.908220	-1.977132	-3.234387	0.943779	-0.932881	0.352326	0.086201	0.197936	0.976417	-0.753507	0.654111	-0.066078	-0.651764	-0.730041	0.205532
53108	12.803333	1.264163	1.614178	1.191061	-0.730300	0.235974	0.079718	0.194087	0.977740	-0.761411	0.644907	-0.065938	-0.643349	-0.739206	0.199191
53109	15.976725	3.333907	5.617734	1.151832	-0.397491	0.070031	0.076676	0.191575	0.978478	-0.768833	0.636208	-0.064314	-0.634836	-0.747355	0.196071
53110	17.864233	5.828031	3.926442	1.139203	-0.301071	-0.049078	0.075191	0.188987	0.979097	-0.775975	0.627751	-0.061577	-0.626266	-0.755124	0.193850
53111	15.451112	6.405491	2.228832	0.466587	-0.516164	0.213821	0.070344	0.186404	0.979952	-0.779043	0.623823	-0.062740	-0.623011	-0.759012	0.189099
53112	13.161161	4.778121	1.786223	-0.203220	-0.818272	0.590235	0.060676	0.183860	0.981078	-0.778158	0.624281	-0.068867	-0.625130	-0.759255	0.180951
53113	11.421402	1.680311	1.401430	-0.882499	-1.042069	0.802450	0.047945	0.180970	0.982319	-0.773031	0.629524	-0.078245	-0.632553	-0.755612	0.170078
53114	10.441363	-3.292092	1.238391	-1.107715	-1.245260	0.918487	0.032976	0.177388	0.983588	-0.766343	0.636230	-0.089049	-0.641584	-0.750830	0.156920
53115	9.415836	-7.329428	-0.757048	-0.461934	-1.419906	0.986100	0.016341	0.172984	0.984789	-0.763600	0.637993	-0.099396	-0.645482	-0.750361	0.142516
53116	8.799904	-5.683238	-1.086420	0.508233	-1.465720	0.957554	-0.000387	0.168010	0.985785	-0.766946	0.632540	-0.108107	-0.641711	-0.756086	0.128610
53117	8.864676	-2.676231	-1.058815	0.762198	-1.381110	0.835467	-0.015595	0.162751	0.986544	-0.771741	0.625385	-0.115370	-0.635746	-0.763155	0.115848
53118	9.671350	-1.140351	-0.412441	0.472310	-1.282091	0.773557	-0.029668	0.157738	0.987035	-0.774559	0.620536	-0.122449	-0.631806	-0.768149	0.103767
53119	9.961177	-1.068477	-0.580487	0.078915	-1.179286	0.737378	-0.042785	0.153211	0.987267	-0.774781	0.618803	-0.129606	-0.630781	-0.770460	0.092229
53120	10.008885	-1.539058	-0.998335	-0.158091	-1.131072	0.694173	-0.055263	0.148773	0.987326	-0.773443	0.618981	-0.136561	-0.631452	-0.771187	0.080861
53121	10.162538	-1.489715	-1.458903	-0.233756	-1.087402	0.673600	-0.067299	0.144531	0.987209	-0.771541	0.619821	-0.143341	-0.632610	-0.771319	0.069798
53122	10.171629	-1.211248	-1.507224	-0.318474	-1.012810	0.663467	-0.078791	0.140824	0.986894	-0.769040	0.621337	-0.150059	-0.634326	-0.770785	0.059343
53123	10.018079	-1.304729	-1.467402	-0.452832	-0.940377	0.642835	-0.089662	0.137554	0.986428	-0.765604	0.623961	-0.156599	-0.637033	-0.769254	0.049366
53124	9.736953	-1.864085	-1.499053	-0.544619	-0.870282	0.614244	-0.099877	0.134696	0.985841	-0.761545	0.627315	-0.162864	-0.640370	-0.767028	0.039923
53125	9.730396	-2.323730	-1.329315	-0.579780	-0.803014	0.577632	-0.109380	0.132147	0.985177	-0.757197	0.631022	-0.168711	-0.643963	-0.764427	0.031040
53126	9.669101	-2.631328	-1.042211	-0.578375	-0.744794	0.538785	-0.118224	0.129857	0.984459	-0.752852	0.634736	-0.174136	-0.647485	-0.761740	0.022722
53127	9.521553	-2.753225	-0.709038	-0.491075	-0.688031	0.490726	-0.126336	0.127711	0.983732	-0.749044	0.637879	-0.179007	-0.650364	-0.759473	0.015074
53128	9.491478	-2.673151	-0.337964	-0.458902	-0.658127	0.447180	-0.133932	0.125562	0.983004	-0.745475	0.640800	-0.183421	-0.652939	-0.757370	0.007780
53129	9.553346	-2.910061	-0.108178	-0.430284	-0.646423	0.411491	-0.141184	0.123281	0.982277	-0.742073	0.643582	-0.187432	-0.655282	-0.755384	0.000619
53130	9.513057	-2.875116	-0.171686	-0.370490	-0.624202	0.364150	-0.147944	0.120902	0.981578	-0.739119	0.645939	-0.190961	-0.657127	-0.753754	-0.006202
53131	9.584897	-2.641338	-0.176334	-0.368870	-0.605860	0.323513	-0.154281	0.118401	0.980907	-0.736183	0.648366	-0.194051	-0.658962	-0.752066	-0.012866
53132	9.601328	-2.423281	0.035155	-0.350916	-0.600680	0.298196	-0.160403	0.115808	0.980234	-0.733403	0.650659	-0.196883	-0.660599	-0.750488	-0.019433
53133	9.669717	-2.920508	-0.164106	-0.386283	-0.608183	0.289291	-0.166508	0.113103	0.979532	-0.730357	0.653258	-0.199581	-0.662460	-0.748640	-0.026167
53134	9.213347	-3.295764	-0.693302	-0.214015	-0.601647	0.248228	-0.172273	0.110208	0.978865	-0.728523	0.654588	-0.201913	-0.663005	-0.747910	-0.032479
53135	9.526849	-2.245910	-0.315962	-0.057605	-0.609338	0.217208	-0.177859	0.107041	0.978217	-0.727746	0.654814	-0.203971	-0.662384	-0.748171	-0.038566
53136	9.454103	-2.381545	-0.434084	-0.126205	-0.626488	0.218442	-0.183564	0.103769	0.977515	-0.726520	0.655534	-0.206019	-0.662173	-0.748002	-0.044942
53137	9.432351	-1.711101	-0.206851	-0.051360	-0.634280	0.184466	-0.189068	0.100203	0.976838	-0.725822	0.655761	-0.207751	-0.661389	-0.748290	-0.051253
53138	9.578743	-1.977540	-0.501998	-0.178942	-0.638810	0.206544	-0.194757	0.096764	0.976067	-0.724248	0.656901	-0.209634	-0.661464	-0.747742	-0.057856
53139	9.834593	-1.102229	-0.277772	-0.153758	-0.646016	0.199677	-0.200442	0.093218	0.975261	-0.722822	0.657891	-0.211442	-0.661325	-0.747322	-0.064489
53140	9.053554	-2.880783	-0.943618	-0.367399	-0.621223	0.187069	-0.205871	0.089797	0.974450	-0.720016	0.660467	-0.212980	-0.662717	-0.745466	-0.071316
53141	9.292908	-2.586165	-0.567736	-0.080176	-0.696777	0.218232	-0.212024	0.086016	0.973472	-0.719015	0.660902	-0.215000	-0.661863	-0.745526	-0.078280
53142	9.131790	-1.964513	-0.013802	0.012840	-0.733786	0.221136	-0.218431	0.081986	0.972402	-0.718631	0.660626	-0.217126	-0.660195	-0.746225	-0.085383
53143	9.155813	-1.263908	0.521975	-0.008295	-0.770544	0.248947	-0.225268	0.077851	0.971182	-0.718012	0.660516	-0.219493	-0.658569	-0.746765	-0.092895
53144	9.071245	-1.727205	0.524397	-0.073991	-0.826280	0.251302	-0.232475	0.073324	0.969835	-0.716957	0.660883	-0.221824	-0.657212	-0.746899	-0.101069
53145	9.241370	-1.777416	0.452456	-0.036009	-0.890369	0.263475	-0.240173	0.068387	0.968318	-0.716090	0.660989	-0.224295	-0.655387	-0.747273	-0.109780
53146	9.122628	-1.599372	0.351809	-0.036344	-0.951303	0.282129	-0.248385	0.063124	0.966602	-0.715171	0.661079	-0.226947	-0.653327	-0.747656	-0.119057
53147	8.951986	-1.822055	0.136106	-0.065817	-1.008678	0.292720	-0.257023	0.057494	0.964694	-0.713997	0.661415	-0.229649	-0.651266	-0.747813	-0.128949
53148	8.998925	-2.058622	-0.149261	-0.074665	-1.056292	0.301711	-0.266011	0.051573	0.962590	-0.712730	0.661813	-0.232420	-0.649041	-0.747893	-0.139292
53149	9.044095	-2.099909	-0.423650	-0.086849	-1.098768	0.312309	-0.275320	0.045401	0.960280	-0.711321	0.662328	-0.235255	-0.646701	-0.747838	-0.150057
53150	9.054087	-2.388430	-0.831248	-0.112074	-1.140524	0.318537	-0.284913	0.038967	0.957761	-0.709714	0.663034	-0.238100	-0.644306	-0.747574	-0.161252
53151	9.059333	-2.509612	-1.206730	-0.102201	-1.153519	0.321699	-0.294578	0.032458	0.955076	-0.708126	0.663697	-0.240965	-0.641702	-0.747297	-0.172526
53152	8.981478	-2.702043	-1.350535	-0.129384	-1.175180	0.312967	-0.304285	0.025740	0.952233	-0.706370	0.664575	-0.243684	-0.639103	-0.746778	-0.184039
53153	9.125647	-2.743158	-1.539413	-0.120667	-1.186003	0.302172	-0.313947	0.018875	0.949253	-0.704669	0.665420	-0.246288	-0.636300	-0.746231	-0.195606
53154	9.056577	-3.050939	-1.836738	-0.130462	-1.193195	0.286466	-0.323507	0.011865	0.946151	-0.702938	0.666351	-0.248704	-0.633420	-0.745544	-0.207229
53155	8.987490	-3.339420	-1.981241	-0.135226	-1.206707	0.262477	-0.332943	0.004604	0.942936	-0.701228	0.667346	-0.250857	-0.630419	-0.744734	-0.218960
53156	9.516534	-3.086073	-2.357435	-0.073802	-1.218529	0.242748	-0.342272	-0.002864	0.939596	-0.699955	0.667895	-0.252941	-0.626827	-0.744250	-0.230607
53157	9.801240	-2.016070	-2.526342	-0.103778	-1.191903	0.261847	-0.351522	-0.010000	0.936126	-0.698406	0.668690	-0.255113	-0.623427	-0.743474	-0.242043
53158	9.730753	-1.853671	-2.902919	-0.204221	-1.177472	0.258231	-0.360616	-0.017034	0.932559	-0.696227	0.670243	-0.256985	-0.620664	-0.741946	-0.253560
53159	9.765817	-2.056273	-2.893262	-0.227285	-1.185723	0.251936	-0.369679	-0.024150	0.928846	-0.693906	0.671988	-0.258702	-0.617925	-0.740169	-0.265177
53160	9.829574	-2.076298	-2.471290	-0.146170	-1.220421	0.214325	-0.378653	-0.031751	0.924994	-0.692216	0.673129	-0.260258	-0.614377	-0.738843	-0.276861
53161	9.739968	-2.010354	-1.816583	-0.094154	-1.273242	0.200688	-0.387805	-0.039819	0.920881	-0.690877	0.673905	-0.261804	-0.610161	-0.737744	-0.288854
53162	9.583673	-2.001572	-1.218919	-0.078881	-1.339910	0.204693	-0.397331	-0.048335	0.916402	-0.689607	0.674577	-0.263418	-0.605451	-0.736621	-0.301362
53163	9.548697	-1.877200	-0.637161	-0.115671	-1.447061	0.240084	-0.407677	-0.057381	0.911322	-0.687952	0.675560	-0.265217	-0.600434	-0.735069	-0.314886
53164	9.677271	-1.669935	0.034289	-0.180727	-1.583738	0.296288	-0.419148	-0.067020	0.905441	-0.685661	0.677070	-0.267292	-0.595133	-0.732860	-0.329746
53165	10.389089	-1.498499	0.768141	-0.243089	-1.763579	0.316402	-0.431724	-0.077791	0.898645	-0.682891	0.679076	-0.269288	-0.589300	-0.729935	-0.346296
53166	11.208292	-1.008099	1.853762	-0.302544	-1.980177	0.347951	-0.445668	-0.089860	0.890677	-0.679606	0.681569	-0.271291	-0.582680	-0.726215	-0.364823
53167	12.222355	-0.651685	2.645313	-0.334089	-2.257390	0.392319	-0.461352	-0.103541	0.881155	-0.675920	0.684354	-0.273480	-0.574705	-0.721761	-0.385714
53168	13.476932	0.288260	2.904213	-0.367368	-2.534676	0.472346	-0.478953	-0.118547	0.869799	-0.671621	0.687518	-0.276123	-0.565269	-0.716425	-0.408908
53169	14.399514	1.255376	2.817720	-0.559713	-2.782426	0.618552	-0.498635	-0.134130	0.856371	-0.665502	0.692261	-0.279073	-0.555400	-0.709073	-0.434449
53170	14.711319	1.370870	2.332466	-0.855234	-2.973610	0.777603	-0.520123	-0.149673	0.840874	-0.656849	0.699382	-0.281806	-0.545914	-0.698901	-0.462078
53171	14.767886	0.197640	0.757109	-1.223835	-3.119574	0.905282	-0.542862	-0.164911	0.823471	-0.645463	0.709237	-0.283479	-0.537287	-0.685411	-0.491462
53172	15.353924	-1.147852	-1.214996	-1.515397	-3.174429	0.960931	-0.565905	-0.179559	0.804680	-0.632072	0.721151	-0.283595	-0.529374	-0.669103	-0.521597
53173	15.141492	-1.292158	-2.023416	-1.826018	-3.149271	1.004235	-0.588682	-0.193045	0.784976	-0.616738	0.735016	-0.281755	-0.522578	-0.649989	-0.551749
53174	14.060165	-1.846744	-2.412215	-2.002056	-3.108689	1.020111	-0.611010	-0.205373	0.764519	-0.600240	0.749846	-0.278285	-0.516119	-0.628930	-0.581436
53175	13.051590	-3.590439	-3.786112	-1.951796	-3.050523	0.991282	-0.632448	-0.216767	0.743655	-0.584157	0.763950	-0.274119	-0.508695	-0.607777	-0.609784
53176	12.801711	-4.790585	-5.423122	-1.883587	-2.964912	0.945679	-0.652836	-0.227210	0.722621	-0.568596	0.777293	-0.269285	-0.500504	-0.586678	-0.636635
53177	12.513710	-4.852723	-6.694786	-1.727505	-2.883713	0.948234	-0.672387	-0.236452	0.701418	-0.553845	0.789385	-0.264815	-0.491073	-0.566535	-0.661730
53178	11.716254	-4.370733	-7.091118	-1.588024	-2.753718	0.964882	-0.691023	-0.244142	0.680355	-0.539571	0.800541	-0.260762	-0.480989	-0.547292	-0.684924
53179	10.365983	-4.174157	-7.008617	-1.391631	-2.539858	0.940750	-0.708051	-0.250296	0.660315	-0.526479	0.810289	-0.257395	-0.470621	-0.529890	-0.705501
53180	8.839141	-3.892973	-6.673499	-1.112320	-2.224004	0.862729	-0.722875	-0.254917	0.642237	-0.515152	0.818273	-0.255044	-0.460510	-0.515215	-0.722831
53181	7.559550	-3.476422	-6.276618	-0.798433	-1.872233	0.785824	-0.735346	-0.258063	0.626634	-0.505904	0.824280	-0.254212	-0.450919	-0.503950	-0.736686
53182	6.000345	-2.837866	-6.880925	-0.513149	-1.506230	0.742688	-0.745779	-0.259479	0.613583	-0.498138	0.828759	-0.254986	-0.442348	-0.495812	-0.747328
53183	3.403688	-2.126730	-9.020454	-0.785923	-1.144168	0.691269	-0.754154	-0.259415	0.603287	-0.489620	0.834334	-0.253296	-0.437634	-0.486406	-0.756231
53184	2.514231	-3.811013	-7.755031	-1.130418	-0.877617	0.489978	-0.760346	-0.259553	0.595404	-0.480996	0.841029	-0.247615	-0.436483	-0.474660	-0.764317
53185	4.997321	-5.345701	-4.814151	-0.446501	-0.491896	0.170244	-0.763236	-0.260507	0.591276	-0.477875	0.843507	-0.245217	-0.434865	-0.469714	-0.768284
53186	5.690417	-6.070204	-4.684232	0.658273	-0.115665	0.028023	-0.763849	-0.260844	0.590335	-0.480537	0.840462	-0.250414	-0.430835	-0.474956	-0.767331
53187	5.325616	-4.220921	-4.854178	1.588301	0.144074	0.043627	-0.763370	-0.259855	0.591389	-0.487129	0.832838	-0.262842	-0.424230	-0.488728	-0.762347
53188	4.246185	-1.816093	-4.964137	1.724025	0.442709	-0.023779	-0.761365	-0.257880	0.594829	-0.494607	0.824209	-0.275759	-0.419151	-0.504160	-0.755073
53189	3.503498	-1.392834	-5.201012	1.442062	0.797716	-0.309406	-0.756407	-0.256410	0.601750	-0.503128	0.815951	-0.284755	-0.417984	-0.518148	-0.746198
53190	3.629818	-2.509855	-5.345027	1.321041	1.129552	-0.609896	-0.748553	-0.255456	0.611891	-0.513278	0.807447	-0.290818	-0.419779	-0.531763	-0.735536
53191	4.520828	-3.856153	-5.242396	1.576535	1.407723	-0.824044	-0.738269	-0.254529	0.624639	-0.526173	0.796740	-0.297233	-0.422020	-0.548106	-0.722135
53192	5.002235	-3.840572	-4.862979	1.938057	1.642467	-0.961800	-0.726165	-0.252990	0.639281	-0.541438	0.783479	-0.304969	-0.423709	-0.567589	-0.705913
53193	5.219416	-3.070981	-4.769901	2.037983	1.866647	-1.112205	-0.712041	-0.250894	0.655782	-0.558227	0.768797	-0.311985	-0.425888	-0.588221	-0.687470
53194	5.389288	-2.810835	-4.980722	2.004654	2.113457	-1.338090	-0.695386	-0.248451	0.674322	-0.576243	0.753449	-0.316638	-0.429398	-0.608759	-0.667106
53195	5.568741	-2.832326	-5.175620	1.972169	2.324814	-1.551486	-0.676180	-0.245676	0.694567	-0.595525	0.737298	-0.318970	-0.433740	-0.629314	-0.644852
53196	5.831503	-3.393688	-5.550382	1.998877	2.512688	-1.751956	-0.654583	-0.242390	0.716078	-0.615924	0.720226	-0.319236	-0.438359	-0.650016	-0.620742
53197	6.192946	-3.164119	-5.411670	2.138451	2.707567	-1.924558	-0.630510	-0.238215	0.738723	-0.637833	0.701353	-0.318235	-0.442297	-0.671832	-0.594151
53198	6.298086	-2.690446	-5.180816	2.098587	2.898589	-2.074597	-0.604133	-0.232801	0.762120	-0.659992	0.682133	-0.314809	-0.446580	-0.693180	-0.565746
53199	6.617283	-2.987874	-5.365537	2.044613	3.068837	-2.212490	-0.575424	-0.226110	0.785978	-0.682335	0.662551	-0.308943	-0.450895	-0.714073	-0.535530
53200	6.736279	-2.999596	-5.409973	2.031299	3.217097	-2.326611	-0.544686	-0.218008	0.809808	-0.704588	0.642662	-0.300902	-0.454834	-0.734478	-0.503655
53201	6.937923	-3.186649	-5.312480	2.051586	3.347883	-2.423947	-0.511970	-0.208422	0.833335	-0.726865	0.622096	-0.290969	-0.457770	-0.754690	-0.469989
53202	7.343110	-2.544930	-4.993192	2.061959	3.462712	-2.481669	-0.477739	-0.197142	0.856096	-0.748626	0.601290	-0.279301	-0.459700	-0.774329	-0.434845
53203	7.311136	-2.442102	-5.061695	1.960614	3.600904	-2.556803	-0.441658	-0.184037	0.878105	-0.769508	0.580933	-0.265282	-0.461298	-0.792873	-0.398192
53204	8.056068	-2.932922	-5.153462	2.050125	3.715790	-2.593272	-0.404261	-0.169039	0.898888	-0.789950	0.559903	-0.249976	-0.461034	-0.811132	-0.359879
53205	8.716308	-0.643877	-4.245416	1.917888	3.793407	-2.466250	-0.366988	-0.151502	0.917806	-0.808382	0.540117	-0.234077	-0.460259	-0.827841	-0.320688
53206	8.499385	-0.775702	-4.139389	1.453967	3.918025	-2.480002	-0.328640	-0.132015	0.935183	-0.823728	0.524461	-0.215438	-0.462026	-0.841138	-0.281103
53207	9.240894	-1.228365	-4.104836	1.202753	4.069972	-2.436689	-0.289466	-0.110144	0.950830	-0.836905	0.511220	-0.195563	-0.464543	-0.852363	-0.240161
53208	9.762186	-0.981487	-3.786588	0.943014	4.185605	-2.319881	-0.250370	-0.086027	0.964321	-0.847574	0.500860	-0.175377	-0.467903	-0.861243	-0.198314
53209	9.937399	-0.907224	-3.461332	0.632758	4.285183	-2.219629	-0.211238	-0.059988	0.975592	-0.855735	0.493675	-0.154930	-0.472331	-0.867575	-0.155617
53210	10.254545	-1.106451	-3.220142	0.293218	4.402073	-2.116450	-0.172103	-0.032136	0.984555	-0.861192	0.490150	-0.134540	-0.478256	-0.871046	-0.112031
53211	10.797054	-1.592957	-3.162744	0.030850	4.464300	-1.989348	-0.133365	-0.002932	0.991063	-0.864432	0.489450	-0.114876	-0.484739	-0.872027	-0.067810
53212	11.666098	-1.635219	-3.085687	-0.165249	4.492279	-1.846697	-0.095422	0.027154	0.995066	-0.865742	0.491115	-0.096423	-0.491310	-0.870672	-0.023355
53213	12.223391	-1.332362	-2.511401	-0.452578	4.491609	-1.690054	-0.058495	0.057872	0.996609	-0.864846	0.495696	-0.079545	-0.498618	-0.866566	0.021055
53214	12.454120	-1.130434	-2.026124	-0.671259	4.421496	-1.504788	-0.023244	0.088526	0.995803	-0.862089	0.502597	-0.064803	-0.506224	-0.859977	0.064635
53215	11.993334	0.253775	1.042908	-1.057272	4.224451	-1.275494	0.009366	0.118213	0.992944	-0.856811	0.512901	-0.052981	-0.515545	-0.850270	0.106090
53216	13.226883	-1.806092	0.810572	-1.643494	3.901022	-1.216672	0.040143	0.144774	0.988650	-0.847927	0.528370	-0.042943	-0.528590	-0.836579	0.143969
53217	9.928124	-2.363231	-0.546895	-1.791514	3.418275	-1.130892	0.068028	0.167085	0.983593	-0.837761	0.544938	-0.034628	-0.541783	-0.821660	0.177048
53218	9.222285	-1.642893	-0.269956	-2.089371	2.734427	-0.861539	0.090254	0.184544	0.978671	-0.825596	0.563458	-0.030112	-0.556997	-0.805269	0.203213
53219	8.458925	-2.721876	-0.954296	-2.117138	2.203988	-0.565950	0.107386	0.198906	0.974117	-0.813115	0.581376	-0.029074	-0.572112	-0.788947	0.224165
53220	7.769462	-2.133248	-1.332935	-1.859354	1.701960	-0.275781	0.119498	0.210574	0.970247	-0.802038	0.596485	-0.030675	-0.585197	-0.774509	0.240166
53221	6.851312	-0.905655	-1.339369	-1.624637	1.233686	-0.054623	0.127270	0.219751	0.967219	-0.792400	0.609047	-0.034108	-0.596577	-0.762083	0.251644
53222	6.122997	-0.050303	-1.339543	-1.636893	0.753496	0.126270	0.130850	0.226211	0.965250	-0.782695	0.621153	-0.039467	-0.608496	-0.750332	0.258332
53223	6.094654	-1.510175	-2.112085	-1.755821	0.279449	0.295502	0.130318	0.230165	0.964387	-0.772305	0.633523	-0.046837	-0.621741	-0.738697	0.260317
53224	5.961904	-4.221939	-4.227693	-1.509007	-0.136652	0.430917	0.126186	0.231898	0.964521	-0.763381	0.643613	-0.054871	-0.633503	-0.729373	0.258241
53225	5.205826	-5.102955	-6.304256	-0.813623	-0.489266	0.526874	0.119103	0.231753	0.965456	-0.758866	0.648289	-0.062002	-0.640264	-0.725267	0.253083
53226	4.985696	-4.278196	-7.754857	-0.117607	-0.736198	0.528582	0.110406	0.229820	0.966950	-0.758714	0.647932	-0.067368	-0.642000	-0.726201	0.245903
53227	5.490409	-3.262573	-8.158948	0.404875	-0.924644	0.477227	0.100891	0.226165	0.968850	-0.761823	0.643886	-0.070974	-0.639881	-0.730931	0.237260
53228	6.316777	-3.144236	-7.603463	0.813905	-1.119218	0.422610	0.090561	0.220632	0.971144	-0.767410	0.636970	-0.073149	-0.634728	-0.738642	0.226999
53229	9.230455	-2.721756	-1.938890	1.102964	-1.228435	0.386062	0.079870	0.213923	0.973580	-0.774695	0.627941	-0.074422	-0.627271	-0.748283	0.215879
53230	16.016204	-0.152223	6.504885	1.526753	-0.942638	0.166774	0.072744	0.207837	0.975455	-0.784310	0.616085	-0.072778	-0.616089	-0.759765	0.207826
53231	19.480572	4.016801	4.615367	1.916288	-0.476753	-0.106384	0.070721	0.203520	0.976513	-0.795894	0.601633	-0.067750	-0.601291	-0.772410	0.204529
53232	15.940293	7.520302	2.939016	1.243429	-0.643241	0.143228	0.065773	0.199365	0.977716	-0.803407	0.591694	-0.066605	-0.591787	-0.781123	0.199088
53233	13.159655	4.656207	4.150564	-0.228207	-1.016771	0.583963	0.055101	0.194849	0.979284	-0.802394	0.592349	-0.072712	-0.594246	-0.781765	0.188984
53234	12.066489	-3.045614	1.217142	-1.099783	-1.330672	0.840521	0.040447	0.189467	0.981054	-0.796206	0.599317	-0.082918	-0.603673	-0.777767	0.175095
53235	11.358136	-5.186507	-3.894317	-0.499142	-1.765990	1.021131	0.021677	0.181829	0.983091	-0.793485	0.601330	-0.093724	-0.608204	-0.778036	0.157313
53236	10.653065	-1.328600	-2.413730	0.223755	-1.883421	1.073808	0.001742	0.173555	0.984823	-0.794969	0.597683	-0.103923	-0.606648	-0.782722	0.139012
53237	8.791211	-1.260255	-2.032889	0.150507	-1.700181	0.956172	-0.016122	0.165880	0.986014	-0.795793	0.594914	-0.113096	-0.605354	-0.786487	0.122415
53238	9.139226	-1.696543	-1.254558	-0.185789	-1.570530	0.855236	-0.032404	0.158591	0.986812	-0.794460	0.594995	-0.121710	-0.606451	-0.787927	0.106714
53239	9.649346	-4.392253	-1.910959	-0.383969	-1.426394	0.780287	-0.047217	0.151963	0.987258	-0.791794	0.596851	-0.129739	-0.608961	-0.787830	0.092142
53240	9.546610	-4.002771	-2.457579	-0.027564	-1.332429	0.716257	-0.060963	0.145712	0.987447	-0.791240	0.596008	-0.136799	-0.608459	-0.789647	0.078959
53241	9.727845	-2.060520	-2.164621	-0.012923	-1.207785	0.644140	-0.073363	0.139961	0.987436	-0.790704	0.595235	-0.143116	-0.607787	-0.791269	0.066999
53242	9.963417	-1.230993	-1.778199	-0.243062	-1.064842	0.584513	-0.084422	0.135004	0.987242	-0.788767	0.596360	-0.149001	-0.608867	-0.791283	0.056140
53243	10.058509	-1.442289	-1.451904	-0.381211	-0.943034	0.552071	-0.094483	0.130801	0.986896	-0.785919	0.598693	-0.154591	-0.611068	-0.790227	0.046233
53244	9.750616	-2.239701	-1.252537	-0.401649	-0.860016	0.502712	-0.103657	0.127012	0.986470	-0.782965	0.601221	-0.159683	-0.613368	-0.788924	0.037125
53245	9.501347	-2.633148	-0.830622	-0.259546	-0.820146	0.441477	-0.112107	0.123156	0.986035	-0.780864	0.602772	-0.164067	-0.614560	-0.788352	0.028593
53246	9.670884	-2.401467	-0.392194	-0.188852	-0.790847	0.414938	-0.120172	0.119411	0.985545	-0.779224	0.603762	-0.168168	-0.615116	-0.788170	0.020492
53247	9.629894	-2.250927	-0.225528	-0.177315	-0.766631	0.395694	-0.127934	0.115715	0.985009	-0.777611	0.604751	-0.172041	-0.615593	-0.787964	0.012612
53248	9.554264	-1.693680	0.218790	-0.213328	-0.752819	0.390213	-0.135568	0.112132	0.984402	-0.775787	0.605991	-0.175866	-0.616260	-0.787528	0.004838
53249	9.556806	-1.719244	0.244699	-0.347105	-0.753241	0.377144	-0.143102	0.108451	0.983748	-0.773089	0.608362	-0.179526	-0.617945	-0.786215	-0.003216
53250	9.596454	-2.144632	-0.033384	-0.364624	-0.765306	0.350995	-0.150512	0.104564	0.983063	-0.770322	0.610857	-0.182915	-0.619637	-0.784806	-0.011393
53251	9.687883	-1.763181	-0.040061	-0.388829	-0.772543	0.338855	-0.157878	0.100539	0.982327	-0.767357	0.613612	-0.186130	-0.621481	-0.783181	-0.019727
53252	9.447780	-1.818956	-0.032586	-0.491269	-0.762168	0.322641	-0.165061	0.096549	0.981546	-0.763782	0.617140	-0.189145	-0.624013	-0.780907	-0.028123
53253	9.409937	-2.358131	-0.348414	-0.615273	-0.770447	0.308348	-0.172197	0.092413	0.980718	-0.759382	0.621697	-0.191916	-0.627445	-0.777787	-0.036878
53254	9.326478	-3.140580	-0.515492	-0.512353	-0.764387	0.284773	-0.179126	0.088238	0.979861	-0.755667	0.625422	-0.194462	-0.629986	-0.775282	-0.045351
53255	9.265915	-3.380677	-0.790694	-0.318860	-0.761937	0.233330	-0.185659	0.083757	0.979038	-0.753203	0.627741	-0.196536	-0.631044	-0.773903	-0.053460
53256	9.357670	-2.549885	-0.591561	-0.230896	-0.746910	0.202473	-0.191863	0.079237	0.978218	-0.751369	0.629366	-0.198350	-0.631373	-0.773059	-0.061215
53257	9.484674	-2.487624	-0.815023	-0.257777	-0.743892	0.170959	-0.197815	0.074529	0.977402	-0.749382	0.631273	-0.199802	-0.631899	-0.771971	-0.069024
53258	9.496167	-2.867692	-1.350214	-0.205849	-0.733843	0.142806	-0.203488	0.069754	0.976589	-0.747801	0.632762	-0.201012	-0.631970	-0.771198	-0.076597
53259	9.740296	-1.558381	-0.849672	-0.176295	-0.716069	0.127172	-0.208934	0.065002	0.975767	-0.746399	0.634081	-0.202062	-0.631850	-0.770529	-0.083964
53260	9.393788	-2.643236	-1.187385	-0.234569	-0.704098	0.085730	-0.213990	0.060109	0.974985	-0.744743	0.635837	-0.202657	-0.632113	-0.769479	-0.091297
53261	9.486039	-1.875298	-0.717610	-0.255823	-0.720257	0.099768	-0.219259	0.055169	0.974106	-0.742883	0.637792	-0.203336	-0.632495	-0.768230	-0.098857
53262	9.457852	-2.376566	-0.806802	-0.142960	-0.747737	0.092398	-0.224639	0.050001	0.973158	-0.741782	0.638844	-0.204053	-0.631900	-0.767710	-0.106419
53263	9.445202	-1.471514	-0.442343	-0.130375	-0.762662	0.100089	-0.230170	0.044752	0.972121	-0.740707	0.639841	-0.204833	-0.631170	-0.767203	-0.114124
53264	9.192985	-1.518373	-0.461938	-0.183773	-0.785731	0.104197	-0.235865	0.039378	0.970988	-0.739312	0.641209	-0.205593	-0.630702	-0.766355	-0.122126
53265	8.961507	-1.707257	-0.382358	-0.204686	-0.823315	0.110051	-0.241842	0.033744	0.969729	-0.737736	0.642779	-0.206352	-0.630284	-0.765308	-0.130556
53266	9.120304	-1.705085	-0.255503	-0.195580	-0.872923	0.132723	-0.248286	0.027906	0.968285	-0.736187	0.644236	-0.207339	-0.629590	-0.764318	-0.139410
53267	8.963433	-1.810773	-0.113454	-0.198370	-0.926361	0.153709	-0.255217	0.021788	0.966638	-0.734531	0.645752	-0.208491	-0.628751	-0.763236	-0.148803
53268	8.957753	-1.890947	-0.116047	-0.181572	-0.990621	0.162981	-0.262603	0.015270	0.964783	-0.732977	0.647108	-0.209750	-0.627522	-0.762245	-0.158740
53269	9.173202	-1.839939	-0.296375	-0.178921	-1.039355	0.168119	-0.270321	0.008411	0.962733	-0.731391	0.648486	-0.211029	-0.626094	-0.761180	-0.169148
53270	9.017631	-1.794526	-0.707269	-0.218569	-1.072617	0.199664	-0.278456	0.001534	0.960448	-0.729485	0.650140	-0.212532	-0.624751	-0.759813	-0.179916
53271	9.019575	-1.989970	-1.293638	-0.256136	-1.115591	0.215264	-0.286959	-0.005561	0.957927	-0.727263	0.652120	-0.214075	-0.623492	-0.758096	-0.191176
53272	9.086957	-2.117397	-1.723530	-0.256792	-1.131095	0.224629	-0.295602	-0.012675	0.955227	-0.725020	0.654085	-0.215683	-0.622066	-0.756315	-0.202539
53273	9.032646	-2.319244	-1.894321	-0.265305	-1.152903	0.221570	-0.304342	-0.019961	0.952354	-0.722693	0.656155	-0.217197	-0.620557	-0.754362	-0.214121
53274	9.188682	-2.685238	-2.136274	-0.216786	-1.172665	0.201173	-0.313026	-0.027492	0.949347	-0.720740	0.657837	-0.218598	-0.618505	-0.752659	-0.225735
53275	9.354569	-3.073726	-2.514926	-0.162983	-1.193048	0.181351	-0.321669	-0.035296	0.946194	-0.719147	0.659147	-0.219894	-0.615919	-0.751185	-0.237411
53276	9.670762	-2.506932	-2.959298	-0.079361	-1.190499	0.172299	-0.330188	-0.043114	0.942930	-0.718109	0.659810	-0.221293	-0.612614	-0.750195	-0.248822
53277	9.548294	-2.364083	-3.211333	-0.127929	-1.173638	0.165245	-0.338521	-0.050846	0.939584	-0.716764	0.660873	-0.222478	-0.609634	-0.748773	-0.260164
53278	9.648117	-2.473199	-3.360403	-0.080491	-1.177712	0.127980	-0.346565	-0.058828	0.936179	-0.715848	0.661544	-0.223430	-0.606180	-0.747595	-0.271380
53279	10.012974	-1.715839	-3.054789	0.055673	-1.202626	0.094504	-0.354481	-0.067218	0.932644	-0.715841	0.661215	-0.224423	-0.601593	-0.747179	-0.282505
53280	10.127456	-1.032039	-2.466805	0.035393	-1.204171	0.095647	-0.362350	-0.075596	0.928971	-0.715723	0.661018	-0.225381	-0.597029	-0.746553	-0.293626
53281	10.070965	-1.014399	-1.876573	-0.055534	-1.244651	0.125680	-0.370631	-0.084075	0.924967	-0.714920	0.661560	-0.226333	-0.592893	-0.745164	-0.305301
53282	9.972885	-1.142351	-1.314658	-0.116953	-1.326337	0.184753	-0.379755	-0.092739	0.920427	-0.713549	0.662592	-0.227640	-0.588756	-0.743217	-0.317796
53283	9.925848	-1.273969	-0.539224	-0.233423	-1.432839	0.227402	-0.389758	-0.101883	0.915264	-0.711296	0.664570	-0.228923	-0.584934	-0.740248	-0.331491
53284	10.513899	-2.236182	0.034471	-0.281719	-1.591972	0.204024	-0.400453	-0.112298	0.909410	-0.708861	0.666866	-0.229795	-0.580649	-0.736668	-0.346653
53285	11.757024	-1.495854	1.260820	-0.186856	-1.784457	0.226285	-0.412336	-0.123926	0.902564	-0.706861	0.668523	-0.231138	-0.574741	-0.733293	-0.363254
53286	12.691198	-0.570816	2.567014	-0.175549	-2.026054	0.249739	-0.425639	-0.137090	0.894448	-0.704826	0.670129	-0.232695	-0.567496	-0.729474	-0.381858
53287	13.630949	0.423098	3.429126	-0.236021	-2.294745	0.310923	-0.440720	-0.151707	0.884732	-0.702161	0.672297	-0.234494	-0.559228	-0.724571	-0.402817
53288	14.324455	1.103484	3.582855	-0.395423	-2.551023	0.425765	-0.457826	-0.167253	0.873168	-0.698069	0.675823	-0.236565	-0.550541	-0.717837	-0.426163
53289	14.650834	1.235942	3.350121	-0.663065	-2.783182	0.549137	-0.476803	-0.183393	0.859666	-0.691908	0.681499	-0.238374	-0.542146	-0.708467	-0.451832
53290	14.680069	0.802666	2.928264	-1.010984	-2.984875	0.670886	-0.497457	-0.199770	0.844173	-0.683213	0.689878	-0.239349	-0.534562	-0.695816	-0.479670
53291	14.736148	0.200428	1.886628	-1.234305	-3.151638	0.785855	-0.519456	-0.216020	0.826741	-0.672711	0.699976	-0.239778	-0.526902	-0.680712	-0.508925
53292	14.467252	-0.578375	0.564974	-1.351496	-3.237958	0.859955	-0.542092	-0.231743	0.807732	-0.661098	0.710982	-0.239697	-0.518734	-0.663928	-0.538623
53293	13.933387	-1.517515	-0.912353	-1.556441	-3.251790	0.889997	-0.564594	-0.246666	0.787648	-0.648221	0.723251	-0.238152	-0.510923	-0.645030	-0.568238
53294	13.491729	-2.891405	-2.440122	-1.675690	-3.262199	0.893713	-0.586837	-0.260875	0.766529	-0.634601	0.736149	-0.235301	-0.502896	-0.624523	-0.597551
53295	13.993942	-3.216821	-3.987943	-1.643439	-3.236421	0.917168	-0.608651	-0.273970	0.744637	-0.621005	0.748636	-0.232156	-0.493859	-0.603725	-0.625795
53296	13.995734	-3.641521	-5.341328	-1.647970	-3.136893	0.947080	-0.629788	-0.285449	0.722417	-0.607099	0.761052	-0.228541	-0.484560	-0.582511	-0.652597
53297	12.875278	-3.853352	-6.181884	-1.489216	-2.984014	0.948202	-0.649710	-0.295299	0.700482	-0.593985	0.772263	-0.225372	-0.474404	-0.562502	-0.677150
53298	11.496765	-3.429780	-6.818847	-1.385238	-2.739990	0.913466	-0.667917	-0.303374	0.679596	-0.581486	0.782648	-0.222116	-0.464501	-0.543531	-0.699152
53299	9.750736	-3.420258	-6.932526	-1.235470	-2.389715	0.868487	-0.683825	-0.309366	0.660815	-0.570038	0.791844	-0.219178	-0.455456	-0.526569	-0.717833
53300	8.091601	-2.805800	-6.653283	-0.944896	-1.997949	0.832209	-0.697518	-0.313153	0.644518	-0.560051	0.799335	-0.217731	-0.447003	-0.512834	-0.732932
53301	6.409435	-2.443099	-8.378516	-0.737671	-1.603697	0.816801	-0.709081	-0.314785	0.630963	-0.551148	0.805564	-0.217490	-0.439819	-0.501972	-0.744704
53302	3.538436	-2.701055	-10.758310	-1.228467	-1.239496	0.772146	-0.718709	-0.314693	0.620021	-0.540271	0.814066	-0.213084	-0.437681	-0.488125	-0.755096
53303	3.770099	-4.474764	-7.593976	-1.140215	-0.983674	0.527654	-0.725756	-0.315172	0.611511	-0.531584	0.821151	-0.207677	-0.436689	-0.475792	-0.763495
53304	5.967267	-5.297823	-4.714133	-0.100822	-0.487541	0.251904	-0.729190	-0.315441	0.607272	-0.529339	0.822413	-0.208418	-0.433685	-0.473428	-0.766670
53305	5.863461	-5.583071	-4.933270	1.059594	-0.068440	0.225279	-0.730598	-0.313975	0.606338	-0.532374	0.817982	-0.217907	-0.427556	-0.482001	-0.764769
53306	5.336396	-2.743954	-4.961495	1.848316	0.219523	0.346388	-0.731499	-0.310105	0.607244	-0.537694	0.809998	-0.234071	-0.419279	-0.497734	-0.759254
53307	4.463838	-0.160998	-4.715003	1.629601	0.611632	0.290479	-0.730431	-0.304729	0.611236	-0.542492	0.802569	-0.248164	-0.414937	-0.512858	-0.751535
53308	4.217132	-0.220736	-4.922174	1.159913	1.087020	0.015911	-0.725975	-0.298983	0.619330	-0.547224	0.796585	-0.256900	-0.416540	-0.525416	-0.741911
53309	4.971180	-1.729610	-5.173222	1.011590	1.544626	-0.254029	-0.718016	-0.292837	0.631427	-0.553420	0.790368	-0.262763	-0.422113	-0.538112	-0.729559
53310	5.541265	-3.008106	-5.402599	1.224926	1.950700	-0.398659	-0.707465	-0.285349	0.646583	-0.561502	0.782520	-0.269032	-0.429196	-0.553388	-0.713830
53311	4.516836	-2.420794	-5.425110	1.490617	2.294397	-0.492987	-0.694651	-0.276325	0.664157	-0.571532	0.772662	-0.276305	-0.436819	-0.571522	-0.694659
53312	4.793956	-1.482532	-5.279490	1.354287	2.570516	-0.686706	-0.679308	-0.266704	0.683673	-0.582257	0.762930	-0.280917	-0.446673	-0.588903	-0.673555
53313	4.798472	-1.507567	-5.370063	1.189846	2.911181	-0.920649	-0.660622	-0.256336	0.705600	-0.593930	0.753325	-0.282397	-0.459158	-0.605635	-0.649908
53314	5.128509	-2.307598	-5.747635	1.035194	3.143642	-1.085018	-0.639426	-0.245195	0.728707	-0.605834	0.744244	-0.281185	-0.473391	-0.621273	-0.624437
53315	5.497640	-2.236097	-5.688660	1.115284	3.366555	-1.217766	-0.615704	-0.233035	0.752731	-0.618946	0.734223	-0.278968	-0.487663	-0.637661	-0.596300
53316	5.927336	-1.659454	-5.449745	1.038264	3.560226	-1.320819	-0.589782	-0.219707	0.777101	-0.632071	0.724522	-0.274871	-0.502636	-0.653297	-0.566181
53317	6.003890	-0.890841	-5.272271	0.860285	3.763119	-1.455380	-0.561183	-0.205353	0.801813	-0.644943	0.715660	-0.268102	-0.518770	-0.667578	-0.534057
53318	6.133428	-1.019181	-5.466436	0.518824	3.896580	-1.587116	-0.530259	-0.190440	0.826170	-0.656364	0.709018	-0.257837	-0.536667	-0.678989	-0.500962
53319	6.676706	-2.410188	-5.959860	0.564252	4.063421	-1.744043	-0.496462	-0.174930	0.850250	-0.668487	0.701888	-0.245925	-0.553760	-0.690473	-0.465399
53320	6.908177	-3.398631	-6.236875	0.776206	4.138765	-1.787196	-0.461143	-0.158582	0.873040	-0.681418	0.693493	-0.233959	-0.568346	-0.702794	-0.427860
53321	7.400141	-3.355135	-6.194883	1.127634	4.185075	-1.805630	-0.424609	-0.141299	0.894283	-0.695969	0.682704	-0.222580	-0.579080	-0.716903	-0.388222
53322	7.409466	-3.160123	-6.226072	1.419120	4.235129	-1.829623	-0.387015	-0.123004	0.913832	-0.711681	0.669998	-0.211219	-0.586285	-0.732102	-0.346839
53323	7.752986	-2.187804	-5.861053	1.625066	4.286284	-1.873799	-0.348223	-0.103699	0.931658	-0.728205	0.655776	-0.199187	-0.590304	-0.747799	-0.303871
53324	8.186726	-1.727895	-5.648008	1.677640	4.367653	-1.924071	-0.308189	-0.083201	0.947680	-0.744455	0.641301	-0.185796	-0.592290	-0.762765	-0.259581
53325	8.398369	-1.419571	-5.329815	1.639148	4.461174	-1.984726	-0.266743	-0.061440	0.961807	-0.759935	0.627187	-0.170692	-0.592745	-0.776442	-0.213988
53326	8.980953	-1.626810	-5.157753	1.574194	4.530222	-2.003178	-0.224503	-0.038433	0.973715	-0.774191	0.613864	-0.154270	-0.591800	-0.788475	-0.167569
53327	9.770306	-1.440989	-4.656838	1.423490	4.602189	-1.987516	-0.181717	-0.013982	0.983252	-0.786688	0.601996	-0.136829	-0.590001	-0.798376	-0.120392
53328	10.319076	-1.272352	-4.186721	1.216693	4.666399	-1.972152	-0.138574	0.011661	0.990283	-0.797020	0.592213	-0.118503	-0.587841	-0.805697	-0.072772
53329	11.182481	-1.006906	-3.687379	0.975362	4.712876	-1.941896	-0.095293	0.038331	0.994711	-0.805049	0.584777	-0.099658	-0.585504	-0.810288	-0.024867
53330	12.011194	-0.551403	-2.905308	0.634415	4.719733	-1.846523	-0.052741	0.065837	0.996436	-0.810129	0.580596	-0.081241	-0.583875	-0.811526	0.022716
53331	12.477198	-0.554327	-2.474687	0.314504	4.652382	-1.715065	-0.011614	0.093617	0.995541	-0.812539	0.579387	-0.063963	-0.582791	-0.809658	0.069338
53332	12.590175	-0.642052	-2.032457	-0.008409	4.519494	-1.536595	0.027245	0.121175	0.992257	-0.812369	0.581110	-0.048659	-0.582506	-0.804754	0.114271
53333	11.610064	0.061375	0.487591	-0.327702	4.255996	-1.290362	0.062586	0.147744	0.987043	-0.809893	0.585455	-0.036280	-0.583230	-0.797129	0.156298
53334	10.971564	-0.440056	-0.581414	-0.728176	3.867826	-1.110292	0.094202	0.171821	0.980614	-0.804761	0.593002	-0.026596	-0.586076	-0.786655	0.194137
53335	9.832942	-1.918952	-0.255172	-1.067249	3.438436	-1.019298	0.122665	0.192557	0.973589	-0.797382	0.603181	-0.018833	-0.590877	-0.774012	0.227531
53336	8.293293	-1.416910	0.183677	-1.064144	2.838308	-0.810720	0.145973	0.209410	0.966871	-0.789975	0.612991	-0.013499	-0.595510	-0.761833	0.254909
53337	6.475719	-1.304178	0.433091	-1.002594	2.189136	-0.516420	0.163177	0.222777	0.961116	-0.783187	0.621687	-0.011132	-0.599993	-0.750917	0.275921
53338	5.320377	-0.299552	0.574615	-0.908133	1.445987	-0.171333	0.173258	0.232484	0.957044	-0.777422	0.628864	-0.012022	-0.604646	-0.741944	0.289694
53339	4.896497	-0.103503	0.261422	-0.828741	0.664672	0.105318	0.176533	0.238051	0.955075	-0.772575	0.634737	-0.015407	-0.609889	-0.735147	0.295964
53340	4.790197	-0.375524	-0.511209	-0.786328	-0.073815	0.299124	0.173810	0.239401	0.955237	-0.768272	0.639793	-0.020554	-0.616074	-0.730310	0.295128
53341	5.367920	-1.924898	-2.950500	-0.703043	-0.702396	0.459851	0.165989	0.237222	0.957170	-0.764698	0.643824	-0.026952	-0.622643	-0.727472	0.288271
53342	5.188322	-3.234807	-4.912569	-0.478695	-1.196049	0.631028	0.153723	0.232575	0.960353	-0.762707	0.645833	-0.034320	-0.628209	-0.727193	0.276666
53343	5.969219	-3.702908	-6.314880	-0.121692	-1.552053	0.730127	0.138428	0.225960	0.964251	-0.763001	0.645056	-0.041624	-0.631401	-0.729962	0.261701
53344	6.932591	-3.351418	-5.926573	0.218719	-1.706190	0.767643	0.121817	0.218384	0.968230	-0.765376	0.641757	-0.048453	-0.631949	-0.735158	0.245323
53345	9.966578	-0.796469	-1.837931	0.639687	-1.556188	0.678941	0.106838	0.211190	0.971589	-0.770169	0.635595	-0.053466	-0.628828	-0.742576	0.230558
53346	12.385180	0.792304	2.051424	0.699451	-1.040459	0.446808	0.096900	0.206240	0.973692	-0.775004	0.629453	-0.056199	-0.624483	-0.749169	0.220831
53347	14.017150	1.254153	4.946165	0.820598	-0.759356	0.311604	0.089801	0.202438	0.975169	-0.780376	0.622671	-0.057399	-0.618829	-0.755844	0.213894
53348	16.614149	2.650777	4.410153	0.903032	-0.827489	0.225296	0.082976	0.197533	0.976778	-0.786127	0.615369	-0.057665	-0.612470	-0.763087	0.206348
53349	16.270900	1.877295	1.834308	0.473823	-0.968408	0.382251	0.074097	0.192425	0.978510	-0.789302	0.611028	-0.060390	-0.609518	-0.767865	0.197157
53350	12.833955	1.676959	-0.240867	0.144987	-1.070925	0.613139	0.062763	0.187911	0.980179	-0.790602	0.608754	-0.066081	-0.609105	-0.770784	0.186770
53351	11.397553	-2.264611	0.041049	-0.797575	-1.115704	0.767352	0.049931	0.183968	0.981663	-0.786123	0.613505	-0.074989	-0.616050	-0.767963	0.175254
53352	12.530472	-6.089544	-5.337154	-0.555681	-1.421122	0.981329	0.033475	0.179079	0.983265	-0.783093	0.615995	-0.085529	-0.621003	-0.767125	0.160856
53353	12.707105	-1.212149	-4.382956	0.235128	-1.730116	1.161831	0.013680	0.172850	0.984853	-0.784796	0.612189	-0.096543	-0.619604	-0.771588	0.144027
53354	9.925741	-0.990958	-3.552502	0.274127	-1.517101	1.063171	-0.004023	0.167586	0.985849	-0.786542	0.608265	-0.106609	-0.617524	-0.775841	0.129366
53355	8.893229	-0.817852	-3.171653	0.167416	-1.310290	0.911818	-0.019238	0.162870	0.986460	-0.787430	0.605519	-0.115331	-0.616104	-0.778987	0.116600
53356	10.368160	-1.160316	-1.600111	-0.445452	-1.150728	0.883863	-0.033258	0.159258	0.986677	-0.784447	0.607569	-0.124509	-0.619304	-0.778136	0.104723
53357	10.183752	-3.840318	-2.093170	-0.586827	-0.978583	0.869831	-0.046104	0.156884	0.986540	-0.780410	0.610826	-0.133607	-0.623566	-0.776066	0.094272
53358	9.588956	-4.035215	-1.922178	-0.200678	-0.916739	0.788445	-0.057938	0.154572	0.986281	-0.778749	0.611162	-0.141529	-0.624654	-0.776266	0.084963
53359	9.625863	-2.587652	-0.825619	-0.067852	-0.820379	0.677688	-0.068301	0.152272	0.985976	-0.777851	0.610724	-0.148203	-0.624726	-0.777064	0.076732
53360	9.742669	-1.758513	-0.029062	-0.211592	-0.707587	0.596693	-0.077327	0.150407	0.985595	-0.776096	0.611471	-0.154204	-0.625856	-0.776840	0.069447
53361	9.676262	-1.577097	0.302081	-0.378191	-0.660121	0.577824	-0.085908	0.148755	0.985135	-0.773205	0.613618	-0.160083	-0.628310	-0.775464	0.062303
53362	9.576068	-1.907555	0.372202	-0.427269	-0.648660	0.572027	-0.094372	0.147233	0.984589	-0.770002	0.616087	-0.165932	-0.631024	-0.773795	0.055228
53363	9.309096	-1.861157	0.667060	-0.411163	-0.666406	0.565766	-0.102900	0.145508	0.983991	-0.766797	0.618514	-0.171649	-0.633588	-0.772184	0.047930
53364	9.151496	-2.122511	0.760323	-0.382179	-0.674529	0.547350	-0.111336	0.143680	0.983341	-0.763788	0.620676	-0.177167	-0.635792	-0.770790	0.040638
53365	9.268003	-2.312867	0.842202	-0.342458	-0.704508	0.513019	-0.119700	0.141380	0.982692	-0.760969	0.622657	-0.182274	-0.637650	-0.769617	0.033054
53366	9.386408	-2.354620	0.768685	-0.291565	-0.713573	0.480173	-0.127869	0.138870	0.982021	-0.758518	0.624233	-0.187041	-0.638984	-0.768797	0.025515
53367	9.406378	-2.335184	0.282216	-0.342734	-0.716872	0.466350	-0.135955	0.136218	0.981306	-0.755666	0.626295	-0.191632	-0.640691	-0.767593	0.017787
53368	9.468587	-2.458777	-0.046470	-0.399627	-0.722141	0.443334	-0.143898	0.133447	0.980553	-0.752486	0.628767	-0.196000	-0.642696	-0.766057	0.009939
53369	9.457078	-2.575194	-0.262685	-0.387016	-0.708918	0.417215	-0.151564	0.130592	0.979783	-0.749336	0.631248	-0.200053	-0.644611	-0.764508	0.002183
53370	9.547731	-2.083306	-0.229973	-0.402915	-0.709190	0.408218	-0.159161	0.127743	0.978953	-0.746106	0.633803	-0.204009	-0.646524	-0.762873	-0.005567
53371	9.433598	-3.235322	-0.746808	-0.381136	-0.692120	0.374469	-0.166402	0.124789	0.978130	-0.742987	0.636303	-0.207578	-0.648291	-0.761279	-0.013165
53372	9.595854	-2.548149	-0.513858	-0.251352	-0.678700	0.334535	-0.173252	0.121741	0.977324	-0.740794	0.637808	-0.210771	-0.649005	-0.760513	-0.020317
53373	9.541139	-2.662613	-0.806403	-0.197820	-0.666723	0.311290	-0.179857	0.118604	0.976517	-0.738919	0.639006	-0.213707	-0.649346	-0.760003	-0.027291
53374	9.400948	-2.198738	-0.451174	-0.178318	-0.667299	0.308260	-0.186432	0.115489	0.975656	-0.737202	0.640005	-0.216625	-0.649443	-0.759642	-0.034179
53375	9.451720	-2.472608	-0.255194	-0.175373	-0.672282	0.292802	-0.192929	0.112204	0.974776	-0.735467	0.641070	-0.219357	-0.649513	-0.759236	-0.041159
53376	9.470834	-2.723748	-0.185916	-0.096290	-0.690389	0.290760	-0.199515	0.108811	0.973835	-0.734278	0.641485	-0.222111	-0.648868	-0.759379	-0.048088
53377	9.232495	-2.128503	0.134854	-0.011014	-0.714702	0.292597	-0.206271	0.105206	0.972823	-0.733573	0.641321	-0.224897	-0.647552	-0.760026	-0.055110
53378	9.188779	-1.550812	0.549550	-0.055715	-0.755264	0.305856	-0.213366	0.101410	0.971695	-0.732578	0.641433	-0.227803	-0.646378	-0.760447	-0.062569
53379	9.180607	-1.801622	0.734035	-0.107676	-0.804286	0.310512	-0.220809	0.097236	0.970458	-0.731171	0.642006	-0.230690	-0.645471	-0.760509	-0.070665
53380	9.226793	-2.024855	0.623722	-0.110361	-0.865234	0.323200	-0.228717	0.092715	0.969068	-0.729740	0.642542	-0.233706	-0.644335	-0.760620	-0.079302
53381	9.122475	-1.902564	0.658274	-0.101111	-0.925771	0.333211	-0.237080	0.087767	0.967517	-0.728279	0.643070	-0.236792	-0.642964	-0.760762	-0.088540
53382	9.101084	-1.856959	0.556632	-0.116170	-0.993738	0.347995	-0.245960	0.082430	0.965769	-0.726701	0.643661	-0.240013	-0.641412	-0.760858	-0.098413
53383	9.085744	-2.015989	0.212424	-0.120387	-1.049471	0.364385	-0.255302	0.076747	0.963811	-0.724986	0.644342	-0.243349	-0.639700	-0.760876	-0.108861
53384	9.012208	-2.307991	-0.214720	-0.135268	-1.095958	0.377001	-0.265000	0.070823	0.961644	-0.723150	0.645097	-0.246788	-0.637832	-0.760811	-0.119735
53385	8.936678	-2.566684	-0.811993	-0.133055	-1.120806	0.371587	-0.274795	0.064654	0.959327	-0.721272	0.645909	-0.250137	-0.635810	-0.760671	-0.130860
53386	8.997834	-2.734684	-1.386641	-0.121858	-1.130132	0.363496	-0.284554	0.058391	0.956880	-0.719491	0.646616	-0.253418	-0.633531	-0.760578	-0.141985
53387	9.026327	-2.808521	-1.920752	-0.143611	-1.111698	0.354283	-0.294106	0.052190	0.954347	-0.717532	0.647562	-0.256539	-0.631387	-0.760224	-0.153004
53388	8.871102	-3.338613	-2.472885	-0.198232	-1.073391	0.326215	-0.303179	0.046133	0.951816	-0.715318	0.648910	-0.259299	-0.629606	-0.759465	-0.163736
53389	8.954486	-3.767799	-2.950345	-0.181338	-1.037108	0.292045	-0.311762	0.040118	0.949313	-0.713253	0.650211	-0.261717	-0.627753	-0.758694	-0.174097
53390	9.063304	-3.715487	-3.206705	-0.158246	-0.975328	0.254876	-0.319659	0.034364	0.946909	-0.711468	0.651318	-0.263815	-0.625805	-0.758026	-0.183751
53391	9.083168	-3.668499	-3.012853	-0.157530	-0.933755	0.220093	-0.327039	0.028686	0.944576	-0.709744	0.652493	-0.265549	-0.623946	-0.757252	-0.193030
53392	9.342173	-3.424632	-2.879368	-0.107024	-0.892804	0.180397	-0.333847	0.023089	0.942345	-0.708493	0.653258	-0.267006	-0.621759	-0.756783	-0.201729
53393	9.566140	-3.043488	-2.791297	-0.028032	-0.876310	0.151725	-0.340341	0.017412	0.940141	-0.707780	0.653490	-0.268326	-0.619044	-0.756735	-0.210086
53394	10.042773	-2.248849	-2.752943	0.018659	-0.858934	0.138605	-0.346594	0.011800	0.937941	-0.707431	0.653330	-0.269633	-0.615966	-0.756982	-0.218092
53395	10.111349	-1.818775	-2.602487	0.000513	-0.844739	0.143845	-0.352786	0.006308	0.935683	-0.706902	0.653364	-0.270932	-0.613051	-0.757017	-0.226039
53396	9.802171	-2.065306	-2.272084	0.002537	-0.859981	0.134824	-0.358966	0.000662	0.933350	-0.706450	0.653341	-0.272164	-0.609977	-0.757063	-0.234060
53397	9.888624	-2.195393	-1.440254	0.051969	-0.913321	0.132467	-0.365440	-0.005426	0.930819	-0.706258	0.653004	-0.273471	-0.606344	-0.757335	-0.242466
53398	10.101001	-1.926122	-0.541970	0.105367	-0.983954	0.143289	-0.372365	-0.011962	0.928009	-0.706378	0.652218	-0.275028	-0.601975	-0.757937	-0.251313
53399	9.753223	-1.439789	0.283425	0.091146	-1.080987	0.178028	-0.380087	-0.019032	0.924755	-0.706230	0.651604	-0.276860	-0.597305	-0.758320	-0.261107
53400	9.607215	-1.096829	0.833409	-0.008937	-1.215095	0.226381	-0.388883	-0.026785	0.920898	-0.705319	0.651724	-0.278891	-0.592701	-0.757983	-0.272336
53401	9.745297	-0.884350	1.218750	-0.141926	-1.371791	0.292387	-0.399022	-0.035299	0.916262	-0.703310	0.652933	-0.281130	-0.588334	-0.756593	-0.285360
53402	10.111653	-0.769689	1.390383	-0.294756	-1.538874	0.366081	-0.410581	-0.044544	0.910735	-0.700114	0.655305	-0.283577	-0.584178	-0.754050	-0.300241
53403	10.310373	-0.638184	1.487359	-0.413693	-1.722686	0.443596	-0.423678	-0.054618	0.904165	-0.695844	0.658671	-0.286274	-0.579912	-0.750446	-0.317070
53404	10.511000	-0.355184	1.998308	-0.576162	-1.941311	0.524097	-0.438495	-0.065691	0.896330	-0.690271	0.663295	-0.289077	-0.575541	-0.745469	-0.336196
53405	10.727473	-0.436008	2.583070	-0.670510	-2.178103	0.580960	-0.454935	-0.078019	0.887100	-0.683831	0.668716	-0.291879	-0.570446	-0.739413	-0.357574
53406	11.156317	-1.034165	2.111654	-0.722634	-2.453579	0.637084	-0.473157	-0.091815	0.876181	-0.676792	0.674574	-0.294794	-0.563982	-0.732476	-0.381319
53407	12.283337	-0.911272	0.681104	-0.683362	-2.667227	0.703674	-0.492788	-0.106512	0.863606	-0.669577	0.680265	-0.298172	-0.555722	-0.725186	-0.406544
53408	12.894839	0.100565	-0.254286	-0.834964	-2.815083	0.791772	-0.513550	-0.121406	0.849427	-0.661006	0.687182	-0.301416	-0.547118	-0.716269	-0.433153
53409	13.258706	0.913960	-0.608691	-1.137352	-2.899389	0.872929	-0.534979	-0.135990	0.833849	-0.650269	0.696391	-0.303626	-0.539395	-0.704660	-0.460985
53410	13.137228	0.420947	-1.221401	-1.495878	-2.929226	0.933389	-0.556668	-0.149881	0.817103	-0.637172	0.708153	-0.304190	-0.533042	-0.689967	-0.489706
53411	12.582624	-1.302869	-3.140891	-1.802195	-2.881018	0.957094	-0.577927	-0.162689	0.799708	-0.622206	0.721928	-0.302786	-0.528071	-0.672572	-0.518448
53412	12.067224	-2.634884	-4.845060	-2.053534	-2.783094	0.985563	-0.598597	-0.173965	0.781932	-0.605622	0.737193	-0.299614	-0.524312	-0.652904	-0.546638
53413	11.286388	-3.040723	-5.213464	-2.167576	-2.705737	1.058355	-0.618997	-0.183486	0.763660	-0.587884	0.753006	-0.295592	-0.520803	-0.631913	-0.573977
53414	10.780469	-4.775301	-5.517169	-2.233795	-2.574054	0.994796	-0.638096	-0.191924	0.745653	-0.570054	0.768741	-0.289959	-0.517564	-0.610084	-0.599938
53415	10.304845	-7.079481	-6.000695	-1.979405	-2.507820	0.905670	-0.656046	-0.199973	0.727746	-0.554037	0.782382	-0.284465	-0.512490	-0.589821	-0.624072
53416	10.922117	-8.234197	-6.045103	-1.558502	-2.500724	0.805091	-0.673145	-0.208187	0.709601	-0.540785	0.793077	-0.280324	-0.504409	-0.572440	-0.646440
53417	11.022756	-7.623299	-5.896112	-1.123191	-2.488130	0.737604	-0.689452	-0.216404	0.691249	-0.530208	0.800970	-0.278076	-0.493493	-0.558225	-0.666970
53418	10.553806	-6.411821	-5.660527	-0.644865	-2.472115	0.701196	-0.705148	-0.224463	0.672595	-0.522205	0.806075	-0.278471	-0.479655	-0.547595	-0.685617
53419	10.201137	-5.146558	-5.578773	-0.293789	-2.361906	0.613032	-0.719420	-0.232388	0.654546	-0.516519	0.809038	-0.280475	-0.464373	-0.539865	-0.702071
53420	9.985578	-4.209868	-5.746650	-0.122998	-2.137017	0.523372	-0.731854	-0.239646	0.637934	-0.512185	0.810925	-0.282960	-0.449506	-0.533826	-0.716222
53421	9.572488	-3.796753	-5.389259	-0.042869	-1.862809	0.456955	-0.742371	-0.245874	0.623242	-0.508705	0.812220	-0.285514	-0.436009	-0.529004	-0.728046
53422	8.505186	-3.350318	-5.253715	0.278467	-1.571706	0.415276	-0.751207	-0.250828	0.610552	-0.506827	0.811772	-0.290092	-0.422866	-0.527363	-0.736935
53423	6.894608	-2.457482	-6.336034	0.489622	-1.265799	0.371253	-0.758297	-0.254540	0.600163	-0.506153	0.810076	-0.295949	-0.410847	-0.528191	-0.743114
53424	4.638365	-1.188995	-7.472625	0.022002	-1.013181	0.291620	-0.763870	-0.257540	0.591756	-0.504050	0.810698	-0.297828	-0.403033	-0.525777	-0.749081
53425	5.651791	-3.298129	-5.475069	-0.266158	-0.812466	0.065962	-0.767391	-0.261301	0.585519	-0.502565	0.812215	-0.296200	-0.398170	-0.521563	-0.754608
53426	8.548540	-3.974551	-3.268315	0.522003	-0.416779	-0.194779	-0.768034	-0.265085	0.582970	-0.506151	0.808963	-0.298981	-0.392346	-0.524699	-0.755484
53427	8.839965	-3.579819	-3.388870	1.380492	-0.025486	-0.278666	-0.766641	-0.267508	0.583696	-0.513750	0.800846	-0.307745	-0.385126	-0.535804	-0.751393
53428	8.294761	-1.407637	-3.685069	1.837920	0.307197	-0.254923	-0.764125	-0.267889	0.586812	-0.522741	0.790164	-0.319972	-0.377960	-0.551249	-0.743821
53429	7.232569	0.048754	-4.158499	1.673453	0.700391	-0.370031	-0.759462	-0.266925	0.593270	-0.531959	0.779759	-0.330144	-0.374484	-0.566327	-0.734191
53430	6.707127	0.246077	-4.431286	1.247515	1.116145	-0.611797	-0.751965	-0.265300	0.603460	-0.541292	0.770978	-0.335553	-0.376232	-0.578972	-0.723354
53431	6.691324	-1.202437	-4.697598	0.993415	1.519757	-0.831766	-0.741576	-0.262833	0.617239	-0.551373	0.762908	-0.337580	-0.382169	-0.590669	-0.710673
53432	7.134783	-2.327419	-4.870450	1.099770	1.876805	-0.927361	-0.729142	-0.258678	0.633591	-0.562464	0.753912	-0.339487	-0.389854	-0.603906	-0.695206
53433	6.912240	-2.157939	-4.846691	1.190719	2.253134	-0.988231	-0.714545	-0.252344	0.652493	-0.574399	0.744041	-0.341275	-0.399363	-0.618648	-0.676597
53434	6.343756	-1.890520	-4.949555	1.224304	2.619143	-1.133112	-0.697328	-0.244329	0.673823	-0.587383	0.733549	-0.341887	-0.410749	-0.634200	-0.655038
53435	6.175246	-1.589324	-5.230774	1.028367	2.912826	-1.293009	-0.677386	-0.235097	0.697049	-0.600668	0.723784	-0.339610	-0.424672	-0.648742	-0.631496
53436	6.457208	-1.458470	-5.273813	0.860885	3.179509	-1.419067	-0.654983	-0.224482	0.721530	-0.613872	0.714871	-0.334844	-0.440634	-0.662244	-0.606032
53437	6.355817	-1.982822	-5.352928	0.671909	3.407946	-1.507954	-0.630212	-0.212449	0.746792	-0.626678	0.707020	-0.327715	-0.458374	-0.674528	-0.578709
53438	6.188242	-2.714156	-5.638781	0.559723	3.597099	-1.598684	-0.603239	-0.199244	0.772272	-0.639179	0.699914	-0.318701	-0.477025	-0.685873	-0.549568
53439	6.096928	-3.635922	-5.900441	0.605091	3.754562	-1.718901	-0.573784	-0.185260	0.797778	-0.652327	0.692361	-0.308392	-0.495218	-0.697363	-0.518116
53440	5.988021	-4.394959	-6.175163	0.867699	3.916227	-1.822000	-0.542022	-0.170242	0.822940	-0.666881	0.683008	-0.297942	-0.511352	-0.710294	-0.483736
53441	5.831900	-4.593135	-6.221776	1.175597	4.032109	-1.971991	-0.507719	-0.154670	0.847525	-0.683405	0.671306	-0.286890	-0.524575	-0.724862	-0.446537
53442	6.843478	-3.384558	-5.731894	1.361341	4.077316	-1.913766	-0.472840	-0.137548	0.870346	-0.700021	0.658533	-0.276233	-0.535156	-0.739875	-0.407667
53443	6.055312	-3.298768	-5.912110	1.322570	4.151069	-1.981720	-0.436292	-0.119472	0.891838	-0.716245	0.646049	-0.263845	-0.544649	-0.753888	-0.367437
53444	6.281665	-3.351237	-5.989065	1.337743	4.283317	-2.057549	-0.397847	-0.100073	0.911978	-0.732185	0.633610	-0.249886	-0.552832	-0.767153	-0.325352
53445	6.620857	-2.873199	-5.670593	1.372920	4.396282	-2.161064	-0.357305	-0.079621	0.930588	-0.748042	0.620997	-0.234084	-0.559254	-0.779758	-0.281445
53446	6.924617	-2.612353	-5.402402	1.234318	4.523386	-2.239320	-0.314919	-0.057897	0.947351	-0.762523	0.609762	-0.216213	-0.565141	-0.790467	-0.236174
53447	7.110120	-3.021155	-5.285080	1.073344	4.627851	-2.299738	-0.270859	-0.035018	0.961982	-0.775404	0.600120	-0.196480	-0.570424	-0.799143	-0.189701
53448	7.764293	-3.079402	-4.845161	0.973610	4.722894	-2.310602	-0.225729	-0.010890	0.974129	-0.786726	0.591773	-0.175688	-0.574550	-0.806031	-0.142148
53449	8.548077	-3.497575	-4.494036	0.844655	4.797842	-2.326333	-0.179581	0.014223	0.983640	-0.796345	0.584949	-0.153845	-0.577568	-0.810945	-0.093720
53450	10.219639	-2.982496	-4.180685	0.711856	4.874696	-2.326828	-0.132714	0.040265	0.990336	-0.804104	0.579801	-0.131331	-0.579486	-0.813763	-0.044570
53451	11.691262	-2.419255	-4.118633	0.467660	4.923956	-2.296379	-0.085525	0.067063	0.994076	-0.809350	0.577204	-0.108572	-0.581066	-0.813842	0.004912
53452	12.846622	-1.285996	-2.536787	0.117558	4.912948	-2.198679	-0.039062	0.094260	0.994781	-0.811406	0.578027	-0.086632	-0.583176	-0.810556	0.053904
53453	13.041518	-0.903950	-0.932975	-0.333513	4.760446	-2.051980	0.005500	0.120772	0.992665	-0.809814	0.582913	-0.066432	-0.586661	-0.803509	0.101009
53454	13.113807	-2.597992	-1.027155	-0.756738	4.529432	-1.935270	0.047852	0.145556	0.988192	-0.804837	0.591538	-0.048158	-0.591563	-0.793030	0.145455
53455	12.950294	-2.400460	0.835616	-0.758471	4.158484	-1.759327	0.086706	0.167821	0.981997	-0.799161	0.600264	-0.032021	-0.594831	-0.781997	0.186162
53456	10.590354	-0.987164	-0.531013	-0.746051	3.653886	-1.469979	0.120223	0.187296	0.974919	-0.793189	0.608675	-0.019122	-0.596990	-0.770996	0.221738
53457	7.867909	0.089420	0.484885	-1.069355	2.978120	-1.009938	0.146108	0.203868	0.968034	-0.785438	0.618829	-0.011777	-0.601448	-0.758610	0.250542
53458	6.856815	-1.405159	0.794708	-1.251456	2.269675	-0.589866	0.164474	0.217247	0.962160	-0.776949	0.629494	-0.009321	-0.607699	-0.746016	0.272325
53459	5.690460	-1.794372	0.974417	-0.921153	1.541669	-0.241458	0.175809	0.227138	0.957862	-0.770919	0.636862	-0.009523	-0.612189	-0.736759	0.287071
53460	4.990715	-1.695103	1.253936	-0.676606	0.726623	0.014677	0.180193	0.232548	0.955747	-0.766782	0.641802	-0.011594	-0.616097	-0.730761	0.293962
53461	5.505727	-2.289852	0.575804	-0.508002	-0.108400	0.223928	0.177868	0.233190	0.956026	-0.764043	0.644986	-0.015173	-0.620162	-0.727747	0.292890
53462	5.986993	-3.444826	-1.701999	-0.245596	-0.821985	0.418477	0.169595	0.229891	0.958325	-0.763236	0.645814	-0.019853	-0.623464	-0.728062	0.284989
53463	6.288431	-3.559905	-3.924585	0.001345	-1.335431	0.611912	0.156635	0.224087	0.961899	-0.764243	0.644417	-0.025676	-0.625618	-0.731103	0.272196
53464	6.762530	-3.753083	-6.049986	0.280049	-1.683849	0.762642	0.140292	0.216614	0.966124	-0.767122	0.640689	-0.032254	-0.625972	-0.736611	0.256053
53465	6.721166	-3.672390	-7.608451	0.500476	-1.838143	0.837263	0.122403	0.208332	0.970369	-0.771346	0.635215	-0.039079	-0.624534	-0.743707	0.238448
53466	7.453584	-3.356045	-6.008924	0.717575	-1.906511	0.841444	0.104049	0.199373	0.974384	-0.776764	0.628141	-0.045580	-0.621138	-0.752123	0.220223
53467	10.826909	-1.638386	-1.561237	1.144675	-1.621146	0.658926	0.088931	0.191171	0.977520	-0.784453	0.618207	-0.049535	-0.613780	-0.762413	0.204942
53468	13.960846	-0.170925	2.975937	1.575347	-1.200015	0.364681	0.078790	0.184167	0.979732	-0.794334	0.605426	-0.049926	-0.602350	-0.774301	0.193991
53469	16.285200	2.613086	3.592495	1.967239	-1.043964	0.202112	0.070996	0.177186	0.981613	-0.806173	0.589719	-0.048140	-0.587405	-0.787932	0.184710
53470	15.709453	4.715664	1.137027	1.441115	-1.074300	0.296714	0.062375	0.170384	0.983402	-0.814754	0.577781	-0.048429	-0.576442	-0.798210	0.174860
53471	13.497796	4.943969	-0.332903	0.504157	-1.109702	0.545133	0.051588	0.164595	0.985011	-0.817942	0.572864	-0.052887	-0.572983	-0.802954	0.164182
53472	10.972316	1.054002	0.004900	-0.599229	-1.073079	0.723794	0.039537	0.160134	0.986303	-0.814820	0.576502	-0.060937	-0.578364	-0.801251	0.153274
53473	12.313430	-5.488424	-4.596258	-0.893202	-1.307299	0.916817	0.024523	0.154939	0.987620	-0.809888	0.582244	-0.071233	-0.586072	-0.798114	0.139762
53474	13.227843	-2.954872	-5.287913	-0.153781	-1.735294	1.160567	0.004980	0.147815	0.989002	-0.809155	0.581722	-0.082869	-0.587574	-0.799844	0.122502
53475	10.322979	-2.173155	-3.397666	0.146185	-1.606233	1.118770	-0.013470	0.141374	0.989865	-0.809933	0.578987	-0.093713	-0.586367	-0.802987	0.106705
53476	8.224566	-3.413771	-4.128199	0.406735	-1.393662	0.877561	-0.028699	0.135202	0.990402	-0.812126	0.574504	-0.101960	-0.582775	-0.807258	0.093313
53477	9.755066	-1.018061	-1.466239	0.156149	-1.244182	0.765648	-0.042131	0.129466	0.990688	-0.812727	0.572292	-0.109352	-0.581120	-0.809766	0.081109
53478	10.538353	-2.727136	-0.844625	-0.195602	-1.100264	0.775623	-0.054794	0.124983	0.990645	-0.811214	0.572894	-0.117147	-0.582176	-0.810044	0.069997
53479	9.585973	-3.291796	-1.123139	-0.066553	-1.031116	0.750610	-0.066857	0.120858	0.990416	-0.810331	0.572578	-0.124570	-0.582146	-0.810893	0.059654
53480	9.299361	-2.125419	-0.646672	0.019974	-0.984924	0.653450	-0.077845	0.116590	0.990125	-0.809977	0.571645	-0.130994	-0.581273	-0.812175	0.049936
53481	9.634803	-1.053763	0.040053	-0.122322	-0.920994	0.585794	-0.087919	0.112392	0.989767	-0.808740	0.572037	-0.136796	-0.581558	-0.812491	0.040603
53482	9.779397	-0.875704	0.249496	-0.277281	-0.898850	0.592916	-0.097907	0.108475	0.989266	-0.806578	0.573639	-0.142727	-0.582964	-0.811894	0.031331
53483	9.650364	-1.213604	0.134219	-0.349791	-0.897964	0.599378	-0.107956	0.104569	0.988641	-0.803879	0.575907	-0.148694	-0.584914	-0.810800	0.021888
53484	9.562546	-1.573156	0.048203	-0.318498	-0.910872	0.590282	-0.117993	0.100580	0.987908	-0.801350	0.577887	-0.154546	-0.586444	-0.809895	0.012413
53485	9.444780	-1.663073	-0.286852	-0.294818	-0.904333	0.585756	-0.127969	0.096585	0.987064	-0.798859	0.579765	-0.160299	-0.587748	-0.809039	0.002966
53486	9.694413	-1.866569	-0.430781	-0.363590	-0.900543	0.571967	-0.137795	0.092615	0.986121	-0.795963	0.582168	-0.165900	-0.589453	-0.807777	-0.006502
53487	9.709446	-2.020616	-0.703849	-0.423132	-0.848561	0.531349	-0.147008	0.088806	0.985141	-0.792669	0.585169	-0.171037	-0.591663	-0.806034	-0.015631
53488	9.653524	-2.509026	-1.492461	-0.493462	-0.786307	0.486632	-0.155485	0.085320	0.984147	-0.789011	0.588722	-0.175694	-0.594379	-0.803821	-0.024219
53489	9.915344	-2.875200	-1.806201	-0.524191	-0.721977	0.431952	-0.163170	0.082013	0.983183	-0.785159	0.592637	-0.179742	-0.597412	-0.801284	-0.032307
53490	9.868030	-2.803743	-1.928763	-0.549387	-0.644485	0.389509	-0.170047	0.079161	0.982251	-0.781224	0.596721	-0.183336	-0.600643	-0.798534	-0.039628
53491	9.811533	-2.562472	-1.974773	-0.587472	-0.589117	0.333366	-0.176180	0.076399	0.981389	-0.777066	0.601215	-0.186303	-0.604259	-0.795427	-0.046555
53492	9.814611	-3.657570	-2.285203	-0.521005	-0.514850	0.281032	-0.181444	0.073992	0.980614	-0.773413	0.605144	-0.188766	-0.607380	-0.792670	-0.052574
53493	9.819768	-2.469624	-1.585016	-0.358232	-0.465341	0.237357	-0.186098	0.071683	0.979913	-0.770753	0.607880	-0.190844	-0.609349	-0.790787	-0.057875
53494	9.575083	-2.848405	-1.215112	-0.275756	-0.441414	0.225660	-0.190493	0.069555	0.979221	-0.768652	0.609903	-0.192852	-0.610644	-0.789418	-0.062719
53495	9.490018	-2.795138	-0.739848	-0.097590	-0.461577	0.215135	-0.194957	0.067161	0.978510	-0.767597	0.610598	-0.194845	-0.610562	-0.789088	-0.067488
53496	9.478054	-2.123887	-0.265998	-0.041805	-0.474393	0.202591	-0.199373	0.064641	0.977789	-0.766949	0.610798	-0.196761	-0.609950	-0.789144	-0.072200
53497	9.537765	-1.193292	0.299803	-0.085074	-0.489282	0.201878	-0.203898	0.061952	0.977030	-0.765980	0.611411	-0.198622	-0.609672	-0.788884	-0.077211
53498	9.093651	-1.723092	0.314433	-0.192169	-0.536437	0.204014	-0.208696	0.058957	0.976202	-0.764394	0.612807	-0.200425	-0.610039	-0.788031	-0.082824
53499	9.208785	-1.529777	0.670219	-0.163144	-0.603634	0.214259	-0.214008	0.055457	0.975256	-0.762904	0.614036	-0.202327	-0.610063	-0.787327	-0.089100
53500	9.162461	-1.505000	0.958295	-0.185197	-0.686089	0.229096	-0.219905	0.051452	0.974163	-0.761285	0.615374	-0.204352	-0.609990	-0.786554	-0.096155
53501	9.053805	-1.492021	1.135142	-0.193209	-0.768187	0.241141	-0.226415	0.046843	0.972904	-0.759530	0.616838	-0.206458	-0.609795	-0.785695	-0.104083
53502	8.975126	-1.160047	1.306090	-0.198440	-0.871040	0.265726	-0.233707	0.041629	0.971416	-0.757717	0.618281	-0.208790	-0.609300	-0.784854	-0.112954
53503	8.803933	-1.196542	1.434278	-0.253876	-0.979967	0.301639	-0.241947	0.035760	0.969630	-0.755419	0.620213	-0.211369	-0.608936	-0.783618	-0.123045
53504	8.692036	-1.532800	1.238731	-0.253162	-1.095014	0.336051	-0.251112	0.029258	0.967516	-0.753058	0.622089	-0.214263	-0.608150	-0.782400	-0.134181
53505	8.555931	-1.875571	0.761566	-0.237275	-1.197307	0.360706	-0.261085	0.022097	0.965063	-0.750664	0.623903	-0.217367	-0.606909	-0.781189	-0.146304
53506	8.798482	-2.362622	-0.235568	-0.200661	-1.266410	0.371726	-0.271512	0.014517	0.962326	-0.748467	0.625403	-0.220608	-0.605044	-0.780167	-0.158939
53507	8.875908	-2.463945	-1.155710	-0.191852	-1.286510	0.384267	-0.282140	0.006850	0.959349	-0.746219	0.626905	-0.223936	-0.602954	-0.779066	-0.171763
53508	8.585403	-2.770425	-1.960418	-0.265157	-1.288729	0.387890	-0.292756	-0.000759	0.956187	-0.743517	0.628958	-0.227143	-0.601229	-0.777439	-0.184695
53509	8.630571	-3.400823	-2.775962	-0.239133	-1.275336	0.348751	-0.302987	-0.008508	0.952957	-0.741019	0.630876	-0.229970	-0.599241	-0.775837	-0.197452
53510	8.717318	-3.554952	-3.612621	-0.150972	-1.237575	0.317944	-0.312707	-0.016111	0.949713	-0.739148	0.632086	-0.232652	-0.596552	-0.774730	-0.209566
53511	8.848956	-3.833464	-4.148737	-0.115027	-1.179545	0.263627	-0.321665	-0.023616	0.946559	-0.737602	0.633074	-0.234861	-0.593696	-0.773731	-0.221057
53512	9.153574	-3.963859	-4.271733	-0.078400	-1.120209	0.199452	-0.329735	-0.031031	0.943563	-0.736500	0.633735	-0.236534	-0.590629	-0.772927	-0.231820
53513	9.727360	-3.669460	-4.339997	0.000867	-1.050416	0.144184	-0.336980	-0.038275	0.940734	-0.735997	0.633825	-0.237853	-0.587156	-0.772529	-0.241756
53514	9.891218	-2.647811	-4.175541	0.005781	-0.969901	0.122807	-0.343529	-0.045003	0.938063	-0.735625	0.633831	-0.238986	-0.583818	-0.772161	-0.250845
53515	9.829494	-2.364730	-4.091228	-0.007918	-0.918822	0.088877	-0.349533	-0.051572	0.935504	-0.735242	0.633983	-0.239759	-0.580729	-0.771625	-0.259516
53516	10.244675	-1.960046	-3.556617	0.064995	-0.908257	0.052578	-0.355145	-0.058263	0.932994	-0.735445	0.633510	-0.240387	-0.577055	-0.771538	-0.267837
53517	10.409068	-1.559236	-2.751156	0.130165	-0.911757	0.022765	-0.360556	-0.065196	0.930456	-0.736082	0.632570	-0.240912	-0.572872	-0.771754	-0.276066
53518	10.316415	-1.064776	-1.802507	0.147455	-0.941382	0.041057	-0.366197	-0.072218	0.927731	-0.736787	0.631459	-0.241672	-0.568371	-0.772039	-0.284448
53519	10.293845	-0.729852	-0.967668	0.070356	-1.000990	0.088927	-0.372520	-0.079424	0.924619	-0.736828	0.631033	-0.242656	-0.564193	-0.771679	-0.293595
53520	10.221758	-0.454019	-0.242147	-0.046659	-1.106778	0.189382	-0.380106	-0.086778	0.920863	-0.735866	0.631549	-0.244229	-0.560376	-0.770465	-0.303912
53521	10.320721	-0.777880	0.370257	-0.199983	-1.256049	0.269025	-0.389094	-0.094777	0.916309	-0.733689	0.633378	-0.246035	-0.557051	-0.768017	-0.315981
53522	10.361449	-0.661623	0.978488	-0.252353	-1.421358	0.314005	-0.399253	-0.103696	0.910958	-0.731064	0.635621	-0.248055	-0.553302	-0.765005	-0.329582
53523	10.117759	-0.356866	1.733187	-0.335502	-1.627276	0.349857	-0.410763	-0.113918	0.904597	-0.727779	0.638601	-0.250052	-0.549191	-0.761059	-0.345221
53524	10.420441	-1.057400	2.211448	-0.446401	-1.881455	0.359704	-0.423631	-0.125902	0.897042	-0.723852	0.642415	-0.251677	-0.544587	-0.755944	-0.363282
53525	11.460268	-1.694049	3.110136	-0.461949	-2.196900	0.366784	-0.438156	-0.140111	0.887913	-0.719762	0.646409	-0.253177	-0.538482	-0.750017	-0.384074
53526	12.615722	-1.164661	4.089543	-0.374876	-2.537703	0.414026	-0.454652	-0.156399	0.876830	-0.715926	0.649819	-0.255314	-0.529849	-0.743825	-0.407412
53527	13.709997	0.715181	4.186104	-0.305246	-2.831528	0.521481	-0.473192	-0.173993	0.863606	-0.711914	0.652950	-0.258524	-0.518910	-0.737145	-0.432839
53528	14.394675	2.201693	3.016274	-0.541864	-3.029140	0.679323	-0.493533	-0.191750	0.848326	-0.705865	0.658157	-0.261888	-0.508115	-0.728054	-0.460171
53529	14.496573	1.987975	1.647547	-1.074753	-3.143181	0.833955	-0.515172	-0.208916	0.831235	-0.696266	0.667574	-0.263740	-0.499812	-0.714632	-0.489376
53530	14.477752	0.210381	-0.736130	-1.630384	-3.202525	0.923457	-0.537431	-0.225307	0.812653	-0.683319	0.681079	-0.263071	-0.494209	-0.696684	-0.519990
53531	14.161013	-0.796291	-2.678183	-1.968735	-3.163876	0.960705	-0.559435	-0.240421	0.793240	-0.668396	0.696812	-0.260194	-0.490183	-0.675760	-0.550517
53532	12.914911	-1.527412	-4.016906	-2.261045	-3.049366	0.979633	-0.580786	-0.253779	0.773488	-0.651773	0.714240	-0.255054	-0.487729	-0.652271	-0.580227
53533	11.310142	-2.878418	-5.033250	-2.326600	-2.969407	1.006160	-0.601634	-0.265532	0.753346	-0.634551	0.731723	-0.248851	-0.485162	-0.627753	-0.608723
53534	11.182715	-4.670723	-6.212768	-2.182121	-2.886280	0.989017	-0.621748	-0.276011	0.732972	-0.617977	0.747831	-0.242597	-0.481180	-0.603794	-0.635531
53535	11.416828	-5.549732	-7.154301	-1.938741	-2.738429	0.943698	-0.640541	-0.285141	0.713023	-0.602797	0.761941	-0.236815	-0.475756	-0.581498	-0.659937
53536	10.955051	-5.292788	-7.329956	-1.742384	-2.580760	0.939810	-0.658309	-0.292683	0.693517	-0.588481	0.774598	-0.231705	-0.469381	-0.560655	-0.682163
53537	9.948715	-4.901907	-7.124266	-1.530580	-2.392294	0.914757	-0.674707	-0.298759	0.674918	-0.575315	0.785705	-0.227335	-0.462368	-0.541675	-0.702000
53538	8.913102	-4.714373	-6.911153	-1.208053	-2.140433	0.852612	-0.689353	-0.303469	0.657799	-0.563984	0.794709	-0.224407	-0.454658	-0.525684	-0.718987
53539	7.498074	-4.403844	-6.707252	-0.804587	-1.868601	0.786841	-0.702100	-0.306930	0.642534	-0.554955	0.801251	-0.223655	-0.446184	-0.513606	-0.732891
53540	6.579262	-3.929269	-6.480351	-0.542624	-1.559803	0.689422	-0.712774	-0.309354	0.629487	-0.547704	0.806127	-0.224009	-0.438149	-0.504440	-0.744020
53541	5.900042	-3.644547	-6.508150	-0.223255	-1.287791	0.614683	-0.721644	-0.310881	0.618533	-0.542401	0.809108	-0.226154	-0.430153	-0.498696	-0.752510
53542	4.542373	-2.407016	-8.204815	-0.277303	-0.944462	0.508355	-0.728402	-0.311471	0.610259	-0.537556	0.812055	-0.227158	-0.424811	-0.493511	-0.758935
53543	3.537621	-4.231084	-8.034170	-0.736516	-0.653666	0.341173	-0.732932	-0.311927	0.604577	-0.532013	0.816678	-0.223604	-0.423997	-0.485529	-0.764519
53544	6.453137	-6.487176	-5.262545	0.011803	-0.317658	0.025929	-0.734389	-0.313281	0.602103	-0.531899	0.816691	-0.223827	-0.421611	-0.484634	-0.766403
53545	6.849675	-7.266923	-4.683242	1.361829	0.053148	-0.162635	-0.733228	-0.314378	0.602946	-0.538868	0.809453	-0.233253	-0.414727	-0.495936	-0.762922
53546	6.232332	-4.964291	-4.426550	2.508641	0.190897	-0.258158	-0.731017	-0.315508	0.605037	-0.551035	0.795927	-0.250720	-0.402461	-0.516677	-0.755692
53547	6.812101	-2.292531	-4.383119	2.847898	0.433617	-0.370837	-0.727157	-0.316171	0.609326	-0.565111	0.779636	-0.269848	-0.389735	-0.540558	-0.745589
53548	6.313775	-0.593424	-4.550031	2.546870	0.780394	-0.622550	-0.720562	-0.316693	0.616843	-0.579456	0.763605	-0.284846	-0.380816	-0.562683	-0.733735
53549	6.300689	-0.704022	-4.742796	2.128316	1.111921	-0.923170	-0.710857	-0.317338	0.627677	-0.594213	0.748423	-0.294575	-0.376288	-0.582375	-0.720588
53550	6.860724	-1.720434	-4.796050	1.968180	1.429819	-1.151492	-0.698531	-0.317425	0.641323	-0.609743	0.733106	-0.301280	-0.374524	-0.601496	-0.705645
53551	7.172340	-2.042572	-4.575247	2.011534	1.722412	-1.253363	-0.684257	-0.316004	0.657217	-0.626029	0.716760	-0.307152	-0.374006	-0.621608	-0.688276
53552	7.147092	-1.264474	-4.349580	1.970582	2.035053	-1.325194	-0.668200	-0.312555	0.675143	-0.642399	0.700134	-0.311668	-0.375277	-0.641968	-0.668614
53553	6.753343	-0.672350	-4.542836	1.690430	2.372095	-1.439477	-0.649790	-0.307086	0.695321	-0.658360	0.684581	-0.312907	-0.379914	-0.661095	-0.647007
53554	6.716244	-0.722001	-4.929043	1.368139	2.683852	-1.584259	-0.628903	-0.299862	0.717331	-0.673766	0.670598	-0.310383	-0.387969	-0.678514	-0.623778
53555	6.799427	-0.893466	-5.033821	1.105263	2.960227	-1.675269	-0.605752	-0.290678	0.740656	-0.688544	0.657985	-0.304899	-0.398713	-0.694667	-0.598720
53556	7.054501	-1.301248	-5.160347	0.945181	3.202549	-1.725098	-0.580752	-0.279453	0.764613	-0.702628	0.646418	-0.297417	-0.411146	-0.709965	-0.571760
53557	7.241019	-0.871476	-5.111711	0.800598	3.440977	-1.727906	-0.554009	-0.265856	0.788920	-0.715863	0.635889	-0.288420	-0.424987	-0.724546	-0.542604
53558	7.411376	-0.259257	-5.007743	0.602573	3.647932	-1.714354	-0.525817	-0.250023	0.813022	-0.727747	0.627051	-0.277833	-0.440342	-0.737764	-0.511668
53559	7.376878	-0.306173	-5.251175	0.302997	3.838757	-1.722071	-0.495853	-0.232227	0.836780	-0.737981	0.620576	-0.265082	-0.457726	-0.748970	-0.479094
53560	7.487449	-1.161512	-5.789223	0.125483	4.010975	-1.720831	-0.464314	-0.212641	0.859765	-0.746847	0.615795	-0.251031	-0.476060	-0.758670	-0.444733
53561	7.753428	-2.134060	-6.010696	0.209174	4.168939	-1.704770	-0.431196	-0.191256	0.881755	-0.755562	0.610693	-0.237023	-0.493149	-0.768424	-0.407834
53562	7.946761	-1.817966	-6.230039	0.351146	4.286141	-1.620327	-0.397385	-0.167970	0.902148	-0.764049	0.605060	-0.223899	-0.508246	-0.778260	-0.368779
53563	8.246686	-1.431897	-5.962347	0.405344	4.375925	-1.518411	-0.363080	-0.142844	0.920743	-0.771969	0.599473	-0.211411	-0.521762	-0.787545	-0.327928
53564	8.016043	-1.589757	-5.958016	0.343300	4.506254	-1.492254	-0.327665	-0.116097	0.937634	-0.778950	0.594820	-0.198561	-0.534671	-0.795431	-0.285335
53565	8.355516	-2.292599	-6.054821	0.413037	4.643683	-1.494036	-0.290784	-0.087829	0.952749	-0.785850	0.589952	-0.185461	-0.545788	-0.802647	-0.240569
53566	8.360546	-2.346450	-5.837281	0.456718	4.752857	-1.497138	-0.252765	-0.058338	0.965767	-0.792444	0.585176	-0.172054	-0.555106	-0.808805	-0.194142
53567	8.691905	-2.394735	-5.606540	0.494724	4.855816	-1.522527	-0.213417	-0.027803	0.976565	-0.798795	0.580473	-0.158041	-0.562476	-0.813804	-0.146092
53568	9.173666	-2.468155	-5.179178	0.426325	4.928677	-1.538107	-0.173172	0.003476	0.984885	-0.804187	0.576810	-0.143436	-0.568591	-0.816871	-0.097092
53569	9.953705	-2.668984	-4.463212	0.304661	4.987108	-1.571756	-0.131920	0.035196	0.990635	-0.808351	0.574603	-0.128061	-0.573729	-0.817675	-0.047351
53570	10.589385	-2.617627	-3.796654	0.214632	4.976588	-1.607373	-0.090211	0.066621	0.993692	-0.811376	0.573670	-0.112121	-0.577521	-0.816372	0.002304
53571	11.492545	-2.526827	-3.729739	0.204210	4.910765	-1.622705	-0.048535	0.097341	0.994067	-0.813700	0.573325	-0.095870	-0.579255	-0.813525	0.051380
53572	11.315771	-1.452626	-0.620612	0.001427	4.743282	-1.568614	-0.008216	0.126789	0.991896	-0.814154	0.575077	-0.080253	-0.580591	-0.808215	0.098501
53573	11.784730	-1.743966	-1.614971	-0.306729	4.450706	-1.569123	0.030509	0.153522	0.987674	-0.812203	0.579739	-0.065025	-0.582576	-0.800208	0.142378
53574	12.163058	-3.274357	-1.642401	-0.491606	4.185888	-1.662019	0.068445	0.177113	0.981808	-0.808509	0.586405	-0.049421	-0.584490	-0.790418	0.183334
53575	11.856563	-1.939689	-0.669385	-0.413263	3.751164	-1.539768	0.102864	0.197501	0.974891	-0.804775	0.592540	-0.035127	-0.584599	-0.780955	0.219895
53576	8.785543	-1.540223	-1.207792	-0.452138	3.299089	-1.290672	0.132544	0.215409	0.967487	-0.800608	0.598723	-0.023622	-0.584345	-0.771447	0.251815
53577	6.656906	-1.501861	0.109944	-0.328001	2.676601	-0.925690	0.155627	0.230372	0.960578	-0.797354	0.603313	-0.015508	-0.583101	-0.763507	0.277579
53578	6.148091	-1.581199	0.823379	-0.050909	2.001218	-0.589911	0.172002	0.242023	0.954903	-0.796085	0.605103	-0.009970	-0.580228	-0.758469	0.296750
53579	5.951164	-0.983490	1.664342	0.151459	1.256765	-0.265711	0.181445	0.249916	0.951115	-0.796484	0.604620	-0.006925	-0.576793	-0.756291	0.308760
53580	5.765571	-1.457837	1.502606	0.294114	0.463749	-0.005357	0.184191	0.253378	0.949670	-0.798159	0.602418	-0.005925	-0.573600	-0.756896	0.313196
53581	5.551979	-2.624499	-0.135981	0.404798	-0.278222	0.208760	0.180983	0.252506	0.950519	-0.800849	0.598830	-0.006594	-0.570864	-0.760029	0.310598
53582	6.067986	-3.805519	-1.909348	0.565442	-0.901412	0.425465	0.172470	0.248152	0.953244	-0.804814	0.593461	-0.008877	-0.567916	-0.765653	0.302070
53583	6.784487	-4.123059	-4.131546	0.855752	-1.332069	0.579828	0.160299	0.241299	0.957120	-0.810611	0.585465	-0.011840	-0.563218	-0.773954	0.289449
53584	6.948891	-3.583001	-5.556134	1.017844	-1.561889	0.700793	0.145879	0.233191	0.961427	-0.817380	0.575886	-0.015657	-0.557323	-0.783567	0.274615
53585	6.954207	-2.883453	-5.807753	0.943818	-1.681873	0.816266	0.129887	0.224571	0.965762	-0.823728	0.566597	-0.020967	-0.551907	-0.792802	0.258579
53586	7.753747	-2.753767	-3.976659	0.776557	-1.704466	0.902543	0.113094	0.216053	0.969810	-0.829089	0.558429	-0.027722	-0.547560	-0.800923	0.242282
53587	10.629242	-0.880898	0.320821	0.857367	-1.428053	0.798700	0.098696	0.208948	0.972934	-0.834587	0.549861	-0.033427	-0.541963	-0.808699	0.228654
53588	12.620875	0.592262	3.581951	0.919968	-0.971376	0.561184	0.088801	0.204108	0.974913	-0.840064	0.541239	-0.036795	-0.535170	-0.815721	0.219526
53589	14.626212	2.868108	4.516520	1.374320	-0.859537	0.390907	0.080975	0.199111	0.976626	-0.847658	0.529208	-0.037611	-0.524327	-0.824799	0.211630
53590	16.123184	4.346711	3.700209	1.149066	-1.020099	0.368663	0.072571	0.192577	0.978595	-0.853911	0.518971	-0.038803	-0.515335	-0.832817	0.202106
53591	14.656516	3.484873	1.654471	0.644476	-1.178271	0.596454	0.061457	0.185766	0.980670	-0.857598	0.512491	-0.043335	-0.510635	-0.838358	0.190809
53592	11.982100	2.543992	-0.359608	0.071123	-1.268654	0.814543	0.048026	0.179268	0.982627	-0.858405	0.510415	-0.051164	-0.510720	-0.841035	0.178398
53593	11.687138	-1.924583	-0.675414	-0.632914	-1.427457	0.978235	0.032349	0.172228	0.984526	-0.855525	0.514058	-0.061816	-0.516750	-0.840287	0.163974
53594	12.276606	-5.005757	-4.525197	-0.291620	-1.698362	1.179915	0.013497	0.164003	0.986368	-0.854283	0.514534	-0.073862	-0.519633	-0.841640	0.147049
53595	11.080461	-1.526037	-4.231437	0.219122	-1.803347	1.254972	-0.006556	0.155165	0.987867	-0.855438	0.510732	-0.085898	-0.517863	-0.845622	0.129386
