// General information: 
//  MT Manager version: 2022.2.0 
//  XDA version: 2022.2.0 build 7381 rev 124627 built on 2023-07-19
// Device information: 
//  DeviceId: 00B4CAF0
//  ProductCode: MTW2-3A7G6
//  Firmware Version: 4.6.0
//  Hardware Version: 2.0.0
// Device settings: 
//  Filter Profile: human(46.1)
//  Option Flags: Orientation Smoother Disabled, Position/Velocity Smoother Disabled, Continuous Zero Rotation Update Disabled, AHS Disabled, ICC Disabled
// Coordinate system: ENU
PacketCounter	Acc_X	Acc_Y	Acc_Z	Gyr_X	Gyr_Y	Gyr_Z	Mat[1][1]	Mat[2][1]	Mat[3][1]	Mat[1][2]	Mat[2][2]	Mat[3][2]	Mat[1][3]	Mat[2][3]	Mat[3][3]
22645	4.479165	-1.022615	9.206224	0.004671	0.004374	0.004157	0.880199	0.190908	0.434516	-0.164692	0.981503	-0.097615	-0.445114	0.014359	0.895359
22646	4.460503	-0.993269	9.206584	-0.000413	0.002129	0.000486	0.880193	0.190885	0.434538	-0.164655	0.981507	-0.097637	-0.445139	0.014391	0.895346
22647	4.433768	-0.989511	9.228552	0.004603	0.002758	0.002030	0.880207	0.190820	0.434539	-0.164597	0.981520	-0.097607	-0.445134	0.014390	0.895349
22648	4.486489	-0.996606	9.185026	0.001357	0.002581	0.003577	0.880198	0.190827	0.434554	-0.164595	0.981518	-0.097626	-0.445152	0.014405	0.895339
22649	4.441515	-0.963479	9.207147	0.006236	-0.000023	0.000867	0.880179	0.190842	0.434586	-0.164634	0.981516	-0.097579	-0.445175	0.014340	0.895329
22650	4.461726	-0.950450	9.202386	0.001288	0.000965	0.001450	0.880166	0.190828	0.434617	-0.164613	0.981519	-0.097590	-0.445208	0.014352	0.895312
22651	4.465956	-1.008772	9.190036	0.002252	-0.000061	0.004733	0.880119	0.190873	0.434694	-0.164651	0.981510	-0.097612	-0.445288	0.014337	0.895273
22652	4.486166	-0.996031	9.185247	0.001770	0.000452	0.003091	0.880101	0.190875	0.434728	-0.164646	0.981510	-0.097626	-0.445324	0.014344	0.895254
22653	4.492406	-1.012239	9.168242	0.004691	-0.001364	0.003378	0.880058	0.190878	0.434814	-0.164652	0.981509	-0.097617	-0.445407	0.014316	0.895214
22654	4.512379	-0.999182	9.163603	0.006767	0.006817	0.005415	0.880065	0.190902	0.434789	-0.164690	0.981505	-0.097596	-0.445379	0.014286	0.895228
22655	4.517952	-1.014982	9.146974	0.007761	0.007054	-0.000863	0.880055	0.190897	0.434811	-0.164709	0.981507	-0.097545	-0.445391	0.014228	0.895223
22656	4.478278	-0.978028	9.203244	0.008054	0.007782	0.006866	0.880064	0.190935	0.434776	-0.164765	0.981500	-0.097519	-0.445353	0.014187	0.895243
22657	4.477348	-0.977581	9.203745	0.006197	0.011450	0.002427	0.880110	0.190888	0.434706	-0.164733	0.981509	-0.097479	-0.445275	0.014182	0.895281
22658	4.449796	-0.973322	9.226144	0.010406	0.010599	0.004165	0.880136	0.190899	0.434648	-0.164776	0.981508	-0.097420	-0.445208	0.014123	0.895316
22659	4.455083	-0.989042	9.209664	0.006610	0.009320	0.001942	0.880176	0.190861	0.434582	-0.164760	0.981516	-0.097370	-0.445134	0.014100	0.895353
22660	4.454024	-0.968609	9.260906	0.007436	0.005061	0.000972	0.880183	0.190842	0.434578	-0.164762	0.981520	-0.097323	-0.445120	0.014061	0.895360
22661	4.441441	-0.955245	9.244348	0.003708	0.005399	0.000876	0.880177	0.190858	0.434582	-0.164788	0.981517	-0.097306	-0.445122	0.014033	0.895360
22662	4.467611	-0.958702	9.222715	0.003057	0.001417	0.004543	0.880161	0.190874	0.434607	-0.164801	0.981514	-0.097315	-0.445148	0.014029	0.895347
22663	4.447266	-0.971399	9.227566	0.000481	-0.000513	0.001642	0.880143	0.190837	0.434660	-0.164752	0.981521	-0.097328	-0.445201	0.014051	0.895320
22664	4.506566	-0.995220	9.166894	0.000704	-0.001400	0.007245	0.880111	0.190880	0.434707	-0.164779	0.981513	-0.097369	-0.445256	0.014065	0.895293
22665	4.512705	-1.011676	9.149930	0.004826	0.001869	0.007635	0.880107	0.190857	0.434724	-0.164755	0.981517	-0.097366	-0.445272	0.014069	0.895285
22666	4.479832	-1.011142	9.138189	0.008311	0.008154	0.002908	0.880124	0.190856	0.434690	-0.164778	0.981518	-0.097320	-0.445230	0.014027	0.895306
22667	4.523672	-1.043401	9.116789	0.009993	0.012725	0.004653	0.880172	0.190856	0.434594	-0.164812	0.981519	-0.097252	-0.445123	0.013972	0.895360
22668	4.477382	-1.009520	9.139569	0.013959	0.018496	0.001569	0.880237	0.190840	0.434468	-0.164848	0.981523	-0.097150	-0.444980	0.013894	0.895432
22669	4.519857	-1.021218	9.169585	0.017667	0.023891	0.002448	0.880308	0.190872	0.434311	-0.164952	0.981518	-0.097017	-0.444802	0.013764	0.895523
22670	4.473050	-1.006647	9.142007	0.018061	0.027495	0.002744	0.880411	0.190867	0.434103	-0.165016	0.981521	-0.096883	-0.444573	0.013663	0.895638
22671	4.482030	-0.997829	9.211206	0.020673	0.030680	-0.003913	0.880531	0.190769	0.433903	-0.165003	0.981541	-0.096698	-0.444340	0.013550	0.895756
22672	4.434650	-0.962984	9.234518	0.020172	0.024197	0.003234	0.880619	0.190770	0.433724	-0.165081	0.981543	-0.096548	-0.444137	0.013422	0.895858
22673	4.438563	-0.977873	9.218828	0.014264	0.026211	0.000525	0.880706	0.190768	0.433548	-0.165137	0.981545	-0.096436	-0.443944	0.013337	0.895955
22674	4.430634	-0.980105	9.186140	0.014763	0.019962	0.001393	0.880778	0.190751	0.433409	-0.165175	0.981549	-0.096326	-0.443787	0.013254	0.896034
22675	4.475112	-0.949933	9.211447	0.013542	0.020613	0.002069	0.880854	0.190724	0.433268	-0.165199	0.981555	-0.096223	-0.443629	0.013183	0.896114
22676	4.485680	-0.981557	9.178603	0.014828	0.021576	0.003524	0.880929	0.190728	0.433113	-0.165256	0.981556	-0.096122	-0.443457	0.013102	0.896200
22677	4.475786	-1.025789	9.150663	0.016441	0.024527	0.003145	0.881012	0.190737	0.432940	-0.165330	0.981555	-0.095999	-0.443265	0.012998	0.896296
22678	4.482894	-0.936723	9.176500	0.020476	0.031906	0.002197	0.881135	0.190727	0.432694	-0.165400	0.981559	-0.095841	-0.442994	0.012882	0.896432
22679	4.490096	-0.989926	9.199711	0.017640	0.029603	0.003255	0.881258	0.190678	0.432465	-0.165417	0.981569	-0.095704	-0.442742	0.012803	0.896557
22680	4.455165	-1.007843	9.138513	0.025729	0.038625	0.000583	0.881414	0.190650	0.432159	-0.165495	0.981577	-0.095492	-0.442403	0.012647	0.896727
22681	4.450964	-0.985639	9.191323	0.022330	0.040947	-0.001351	0.881585	0.190612	0.431827	-0.165557	0.981586	-0.095292	-0.442039	0.012516	0.896909
22682	4.453463	-0.999741	9.176484	0.026862	0.042076	-0.001425	0.881759	0.190564	0.431492	-0.165622	0.981597	-0.095061	-0.441667	0.012356	0.897094
22683	4.370931	-0.924251	9.289764	0.021829	0.047178	-0.002203	0.881955	0.190542	0.431103	-0.165702	0.981603	-0.094862	-0.441247	0.012229	0.897302
22684	4.395473	-0.864352	9.315866	0.013036	0.026835	0.001231	0.882057	0.190522	0.430903	-0.165730	0.981607	-0.094766	-0.441032	0.012176	0.897409
22685	4.418341	-0.928897	9.249462	0.013449	0.024705	0.000750	0.882159	0.190505	0.430701	-0.165770	0.981612	-0.094651	-0.440813	0.012100	0.897517
22686	4.369301	-0.936753	9.276983	0.010552	0.020789	-0.000325	0.882237	0.190471	0.430557	-0.165773	0.981619	-0.094571	-0.440655	0.012059	0.897595
22687	4.385937	-0.964828	9.277949	0.016060	0.015171	0.002110	0.882293	0.190424	0.430462	-0.165785	0.981629	-0.094444	-0.440538	0.011963	0.897654
22688	4.398773	-0.934575	9.290763	0.013039	0.008395	0.008469	0.882302	0.190478	0.430420	-0.165877	0.981620	-0.094380	-0.440486	0.011875	0.897681
22689	4.378721	-0.966366	9.245034	0.010226	-0.000007	-0.002951	0.882286	0.190456	0.430462	-0.165900	0.981625	-0.094284	-0.440509	0.011772	0.897671
22690	4.404862	-0.949177	9.274162	0.008819	-0.003831	0.003031	0.882250	0.190458	0.430535	-0.165925	0.981626	-0.094234	-0.440572	0.011702	0.897641
22691	4.336831	-1.032275	9.259159	0.004163	-0.008200	-0.001147	0.882220	0.190321	0.430657	-0.165788	0.981652	-0.094200	-0.440683	0.011707	0.897586
22692	4.374143	-0.948015	9.261304	0.003708	-0.013421	-0.003567	0.882153	0.190259	0.430822	-0.165732	0.981665	-0.094167	-0.440839	0.011669	0.897510
22693	4.338666	-0.869225	9.311106	-0.003224	-0.024709	-0.003699	0.882062	0.190146	0.431057	-0.165598	0.981686	-0.094177	-0.441071	0.011688	0.897396
22694	4.453907	-0.900971	9.206389	-0.006059	-0.027006	-0.002647	0.881934	0.190094	0.431344	-0.165507	0.981696	-0.094236	-0.441362	0.011720	0.897252
22695	4.462153	-0.897920	9.238957	-0.007611	-0.028339	-0.000140	0.881839	0.189954	0.431599	-0.165318	0.981722	-0.094297	-0.441623	0.011804	0.897123
22696	4.450829	-0.927697	9.225468	-0.005913	-0.029504	0.000835	0.881693	0.189937	0.431905	-0.165259	0.981725	-0.094370	-0.441936	0.011829	0.896969
22697	4.492272	-0.944841	9.219307	-0.005023	-0.032145	0.002000	0.881521	0.189957	0.432247	-0.165243	0.981721	-0.094437	-0.442285	0.011822	0.896797
22698	4.454550	-0.970841	9.227406	-0.004482	-0.031039	0.005774	0.881360	0.189989	0.432561	-0.165233	0.981715	-0.094518	-0.442609	0.011831	0.896637
22699	4.427080	-0.929436	9.208989	-0.005768	-0.032006	0.004323	0.881227	0.189910	0.432867	-0.165107	0.981730	-0.094589	-0.442922	0.011885	0.896481
22700	4.413402	-0.961196	9.301505	-0.006949	-0.042823	0.003453	0.881017	0.189921	0.433289	-0.165066	0.981727	-0.094682	-0.443354	0.011895	0.896268
22701	4.432247	-0.953030	9.260710	-0.010243	-0.050349	0.002097	0.880767	0.189915	0.433799	-0.164994	0.981728	-0.094797	-0.443876	0.011920	0.896009
22702	4.343459	-0.952306	9.361869	-0.018382	-0.066733	0.001894	0.880453	0.189913	0.434436	-0.164889	0.981728	-0.094986	-0.444537	0.011997	0.895680
22703	4.275328	-1.001612	9.411447	-0.027942	-0.087331	-0.003999	0.880076	0.189798	0.435250	-0.164633	0.981748	-0.095221	-0.445378	0.012146	0.895260
22704	4.262510	-1.079484	9.365824	-0.045306	-0.103509	-0.007471	0.879613	0.189709	0.436225	-0.164324	0.981762	-0.095610	-0.446407	0.012417	0.894744
22705	4.394990	-1.007550	9.331255	-0.056168	-0.125105	-0.014769	0.879046	0.189586	0.437418	-0.163941	0.981782	-0.096063	-0.447662	0.012733	0.894112
22706	4.445541	-0.906433	9.272011	-0.061336	-0.129016	-0.020506	0.878487	0.189372	0.438633	-0.163445	0.981818	-0.096538	-0.448939	0.013115	0.893466
22707	4.468381	-0.823986	9.289666	-0.066088	-0.147805	-0.018681	0.877841	0.189160	0.440017	-0.162923	0.981853	-0.097056	-0.450391	0.013511	0.892729
22708	4.476865	-0.812757	9.299174	-0.059031	-0.164907	-0.010671	0.877099	0.189049	0.441540	-0.162523	0.981871	-0.097551	-0.451977	0.013802	0.891923
22709	4.404415	-0.873969	9.383124	-0.049350	-0.190327	-0.010857	0.876228	0.188974	0.443298	-0.162203	0.981883	-0.097955	-0.453778	0.013927	0.891006
22710	4.385828	-0.963988	9.477539	-0.044197	-0.222672	-0.011665	0.875220	0.188861	0.445333	-0.161859	0.981904	-0.098312	-0.455842	0.013964	0.889951
22711	4.342201	-0.988701	9.498706	-0.030624	-0.261259	-0.019306	0.874028	0.188678	0.447745	-0.161507	0.981942	-0.098515	-0.458247	0.013791	0.888718
22712	4.339707	-1.051523	9.568365	-0.037237	-0.305334	-0.025481	0.872651	0.188441	0.450523	-0.161072	0.981990	-0.098746	-0.461017	0.013604	0.887287
22713	4.302328	-1.139276	9.646179	-0.026791	-0.362798	-0.039721	0.871007	0.188131	0.453822	-0.160632	0.982056	-0.098814	-0.464268	0.013170	0.885597
22714	4.252728	-1.199229	9.828797	-0.028571	-0.424145	-0.057999	0.869107	0.187588	0.457672	-0.159953	0.982166	-0.098818	-0.468047	0.012677	0.883613
22715	4.204510	-1.281521	9.924354	-0.022048	-0.506354	-0.076961	0.866822	0.186897	0.462264	-0.159178	0.982307	-0.098669	-0.472526	0.011947	0.881236
22716	4.110014	-1.318566	10.130549	-0.000505	-0.595628	-0.100061	0.864136	0.185953	0.467644	-0.158268	0.982499	-0.098223	-0.477725	0.010865	0.878442
22717	3.858514	-1.420080	10.413120	0.069603	-0.732752	-0.123738	0.860798	0.184778	0.474220	-0.157496	0.982740	-0.097037	-0.483965	0.008841	0.875042
22718	3.972241	-1.181625	10.353626	0.128723	-0.889262	-0.149237	0.856679	0.183348	0.482167	-0.156801	0.983030	-0.095213	-0.491442	0.005963	0.870890
22719	4.446886	-1.273704	9.922818	0.166825	-0.989123	-0.187599	0.852048	0.181517	0.490984	-0.155983	0.983385	-0.092866	-0.499683	0.002541	0.866205
22720	4.632612	-1.358181	9.907612	0.205093	-1.045888	-0.249878	0.847148	0.179036	0.500286	-0.154852	0.983842	-0.089869	-0.508292	-0.001338	0.861184
22721	4.564555	-1.523363	9.927235	0.233707	-1.127557	-0.326971	0.841822	0.175837	0.510311	-0.153346	0.984403	-0.086230	-0.517514	-0.005664	0.855656
22722	4.889074	-2.124101	9.754534	0.279538	-1.207579	-0.439712	0.836165	0.171380	0.521016	-0.151076	0.985149	-0.081592	-0.527261	-0.010489	0.849638
22723	5.072122	-1.588483	9.464667	0.339111	-1.269734	-0.535371	0.830167	0.165948	0.532244	-0.148422	0.986005	-0.075925	-0.537395	-0.015966	0.843180
22724	5.313084	-1.635648	9.331157	0.364027	-1.328715	-0.599234	0.823818	0.159756	0.543876	-0.145399	0.986918	-0.069655	-0.547889	-0.021696	0.836270
22725	5.507973	-1.366655	9.291506	0.338772	-1.405243	-0.643932	0.816947	0.153014	0.556043	-0.141929	0.987850	-0.063315	-0.558975	-0.027194	0.828739
22726	5.872571	-1.654105	9.229303	0.253122	-1.466943	-0.670408	0.809580	0.145924	0.568583	-0.137864	0.988783	-0.057468	-0.570591	-0.031863	0.820616
22727	6.297463	-2.490256	9.107018	0.181165	-1.478782	-0.687988	0.801950	0.138662	0.581076	-0.133407	0.989693	-0.052054	-0.582305	-0.035774	0.812183
22728	6.507741	-2.902776	8.737554	0.299835	-1.436122	-0.713331	0.794423	0.131019	0.593065	-0.129433	0.990546	-0.045452	-0.593413	-0.040654	0.803871
22729	6.756812	-3.306293	8.525446	0.466798	-1.400808	-0.744283	0.786920	0.123110	0.604649	-0.126421	0.991275	-0.037298	-0.603966	-0.047089	0.795618
22730	6.381014	-1.929810	8.379003	0.638208	-1.322066	-0.779108	0.779825	0.114678	0.615404	-0.124160	0.991881	-0.027500	-0.613561	-0.054963	0.787732
22731	6.340483	-1.058468	8.178748	0.551737	-1.304753	-0.793100	0.772671	0.106093	0.625879	-0.121440	0.992430	-0.018306	-0.623083	-0.061862	0.779706
22732	6.472430	-0.398047	7.970508	0.486619	-1.241983	-0.810946	0.765824	0.097205	0.635661	-0.118212	0.992944	-0.009421	-0.632091	-0.067928	0.771911
22733	5.818524	-0.398222	7.541177	0.326501	-1.197439	-0.830831	0.759091	0.088177	0.644985	-0.114011	0.993478	-0.001639	-0.640923	-0.072291	0.764193
22734	4.909478	-0.502349	7.845105	0.123795	-1.119023	-0.844782	0.752786	0.078928	0.653516	-0.108380	0.994098	0.004781	-0.649281	-0.074428	0.756898
22735	3.900668	-1.377247	7.737763	-0.039761	-0.989755	-0.798501	0.747045	0.070385	0.661037	-0.102293	0.994707	0.009690	-0.656856	-0.074859	0.750291
22736	2.601793	-3.362812	8.436376	-0.086316	-0.767826	-0.610805	0.742563	0.063702	0.666741	-0.097131	0.995185	0.013095	-0.662696	-0.074485	0.745175
22737	5.356029	-4.355046	9.323405	-0.096924	-0.589232	-0.124935	0.738650	0.062141	0.671219	-0.095683	0.995325	0.013149	-0.667264	-0.073937	0.741142
22738	6.718888	-3.986386	10.687205	-0.242791	0.038763	0.462528	0.738436	0.066740	0.671013	-0.097436	0.995208	0.008241	-0.667247	-0.071466	0.741400
22739	4.064064	-4.103848	10.103591	-0.325241	0.508882	0.939653	0.740761	0.076597	0.667387	-0.102381	0.994745	-0.000532	-0.663921	-0.067933	0.744711
22740	2.572992	-4.066759	9.239251	-0.363190	0.770965	1.238731	0.744524	0.089390	0.661584	-0.109136	0.993961	-0.011482	-0.658615	-0.063654	0.749783
22741	2.022259	-3.554914	8.925855	-0.354180	0.844971	1.420076	0.748349	0.104112	0.655083	-0.117452	0.992798	-0.023611	-0.652823	-0.059272	0.755188
22742	2.347093	-2.906270	8.914165	-0.362287	0.863136	1.516072	0.752085	0.119613	0.648121	-0.126429	0.991313	-0.036241	-0.646826	-0.054685	0.760674
22743	2.806836	-2.462242	9.045691	-0.381024	0.881964	1.552713	0.755601	0.135652	0.640832	-0.135871	0.989501	-0.049254	-0.640785	-0.049854	0.766100
22744	3.133860	-2.051299	9.215051	-0.385688	0.929865	1.543538	0.759338	0.151319	0.632858	-0.145061	0.987475	-0.062057	-0.634321	-0.044681	0.771777
22745	3.226555	-1.771404	9.268033	-0.378035	0.980529	1.488500	0.763218	0.166517	0.624316	-0.154036	0.985254	-0.074480	-0.627512	-0.039322	0.777613
22746	3.363717	-1.651089	9.313976	-0.359392	1.023831	1.385314	0.767391	0.180496	0.615249	-0.162353	0.982988	-0.085880	-0.620284	-0.033984	0.783641
22747	3.671449	-1.600623	9.290048	-0.335367	1.065363	1.251633	0.771808	0.193227	0.605785	-0.169943	0.980737	-0.096307	-0.612725	-0.028618	0.789778
22748	3.848922	-1.682579	9.211323	-0.297493	1.119178	1.105869	0.776682	0.204323	0.595833	-0.176652	0.978622	-0.105319	-0.604614	-0.023456	0.796173
22749	4.011824	-1.736014	9.216795	-0.253803	1.178752	0.965229	0.781953	0.214107	0.585413	-0.182654	0.976637	-0.113215	-0.595976	-0.018399	0.802792
22750	4.261001	-1.663860	9.334176	-0.210084	1.247596	0.850469	0.787733	0.222576	0.574401	-0.188045	0.974820	-0.119851	-0.586614	-0.013603	0.809753
22751	4.329605	-1.512481	9.296492	-0.184583	1.329518	0.775455	0.793909	0.230328	0.562723	-0.193024	0.973075	-0.125965	-0.576585	-0.008614	0.816992
22752	4.275785	-1.249724	9.278389	-0.194869	1.397452	0.731426	0.800444	0.237496	0.550351	-0.197700	0.971383	-0.131646	-0.565866	-0.003429	0.824490
22753	4.454256	-1.107939	9.382711	-0.230770	1.444476	0.698707	0.807111	0.244333	0.537470	-0.201953	0.969688	-0.137549	-0.554786	0.002474	0.831990
22754	4.581545	-1.066231	9.373424	-0.272459	1.492622	0.672067	0.813917	0.250733	0.524091	-0.205863	0.968016	-0.143406	-0.543285	0.008829	0.839502
22755	4.696679	-1.119369	9.453499	-0.297588	1.535869	0.644197	0.820792	0.256866	0.510216	-0.209532	0.966319	-0.149412	-0.531410	0.015730	0.846968
22756	4.860778	-1.003980	9.461282	-0.311998	1.572790	0.610081	0.827748	0.262427	0.495949	-0.212882	0.964681	-0.155150	-0.519148	0.022846	0.854379
22757	5.075377	-0.807560	9.514831	-0.320352	1.608313	0.558760	0.834745	0.267515	0.481287	-0.215945	0.963078	-0.160775	-0.506527	0.030275	0.861693
22758	5.139931	-0.598493	9.366169	-0.337477	1.638657	0.489580	0.841860	0.271643	0.466350	-0.218322	0.961649	-0.166031	-0.493566	0.037960	0.868879
22759	5.227401	-0.326047	9.306448	-0.361076	1.641710	0.407521	0.848913	0.274976	0.451370	-0.220048	0.960350	-0.171192	-0.480546	0.046004	0.875762
22760	5.257207	-0.144517	9.253196	-0.408240	1.612678	0.327983	0.855822	0.277290	0.436668	-0.220869	0.959245	-0.176254	-0.467745	0.054395	0.882188
22761	5.481203	-0.044121	9.225296	-0.451047	1.565143	0.252136	0.862462	0.278856	0.422374	-0.220956	0.958252	-0.181470	-0.455344	0.063185	0.888070
22762	5.565770	-0.112969	9.148356	-0.498941	1.515516	0.179499	0.868862	0.279525	0.408588	-0.220229	0.957419	-0.186678	-0.443371	0.072215	0.893424
22763	6.001696	-0.378758	9.184494	-0.478098	1.452223	0.124986	0.874910	0.279689	0.395356	-0.219257	0.956674	-0.191577	-0.431809	0.080928	0.898327
22764	6.068662	-0.459774	9.188307	-0.446717	1.383898	0.077293	0.880627	0.279229	0.382788	-0.217993	0.956083	-0.195920	-0.420684	0.089087	0.902823
22765	6.097346	-0.624128	8.920617	-0.395250	1.311888	0.038072	0.885973	0.278428	0.370849	-0.216692	0.955585	-0.199753	-0.409995	0.096615	0.906956
22766	6.014989	-0.688966	8.661518	-0.343794	1.208472	0.003089	0.890849	0.277228	0.359906	-0.215290	0.955237	-0.202909	-0.400048	0.103277	0.910657
22767	6.071786	-0.802056	8.488116	-0.272023	1.081881	-0.033919	0.895161	0.275839	0.350141	-0.213958	0.955014	-0.205355	-0.391034	0.108910	0.913910
22768	6.311519	-0.900957	8.363840	-0.206902	0.953144	-0.053723	0.898954	0.274245	0.341573	-0.212638	0.954935	-0.207084	-0.382972	0.113527	0.916757
22769	6.424836	-0.829982	8.212183	-0.128584	0.840557	-0.055300	0.902234	0.272811	0.333987	-0.211684	0.954914	-0.208159	-0.375717	0.117108	0.919305
22770	6.531525	-0.878259	8.059775	-0.065574	0.740354	-0.047789	0.905082	0.271457	0.327318	-0.210971	0.954969	-0.208626	-0.369212	0.119769	0.921595
22771	6.392647	-0.783135	7.987054	-0.003868	0.621738	-0.030791	0.907407	0.270454	0.321664	-0.210689	0.955029	-0.208636	-0.363625	0.121547	0.923582
22772	6.683593	-0.532349	7.965961	0.025846	0.504986	0.008233	0.909204	0.269895	0.317025	-0.210821	0.955042	-0.208446	-0.359031	0.122684	0.925227
22773	6.726195	-0.391672	7.765856	0.030682	0.406628	0.062108	0.910506	0.270021	0.313156	-0.211502	0.954897	-0.208420	-0.355310	0.123534	0.926550
22774	6.673725	-0.481107	7.550043	0.049387	0.302710	0.119918	0.911314	0.270771	0.310147	-0.212733	0.954637	-0.208358	-0.352495	0.123901	0.927575
22775	6.521870	-0.740824	7.264886	0.118203	0.176820	0.154218	0.911590	0.272043	0.308216	-0.214549	0.954354	-0.207791	-0.350675	0.123293	0.928346
22776	6.291268	-0.963925	7.148813	0.249160	0.044529	0.165722	0.911378	0.273550	0.307506	-0.216896	0.954210	-0.206010	-0.349779	0.121056	0.928978
22777	5.827773	-1.135599	6.792390	0.632552	-0.254191	0.105114	0.910242	0.274873	0.309685	-0.220071	0.954656	-0.200500	-0.350754	0.114351	0.929460
22778	7.054168	-0.632679	6.168801	0.611179	-0.451613	0.115402	0.908386	0.276455	0.313700	-0.223236	0.955019	-0.195202	-0.353554	0.107290	0.929241
22779	7.465180	0.905457	7.001934	0.735210	-0.581716	0.075187	0.906136	0.277775	0.318995	-0.226516	0.955564	-0.188647	-0.357222	0.098682	0.928792
22780	8.006881	0.890633	7.335492	0.660603	-0.650350	0.069848	0.903630	0.279037	0.324949	-0.229487	0.955999	-0.182761	-0.361648	0.090577	0.927904
22781	8.000272	1.385821	7.347315	0.549705	-0.669319	0.034560	0.901103	0.279932	0.331135	-0.231768	0.956384	-0.177800	-0.366465	0.083470	0.926680
22782	6.502543	0.885090	7.501487	0.390261	-0.659717	-0.032380	0.898734	0.280132	0.337346	-0.232880	0.956795	-0.174100	-0.371542	0.077909	0.925141
22783	4.684977	-1.305696	8.561483	0.468589	-0.667865	-0.139404	0.896557	0.279252	0.343809	-0.233325	0.957547	-0.169303	-0.376491	0.071571	0.923651
22784	4.072976	-0.787145	9.004907	0.603575	-0.614656	-0.278580	0.894869	0.276977	0.349990	-0.233078	0.958736	-0.162786	-0.380636	0.064098	0.922501
22785	2.723881	-0.597703	8.989213	0.625051	-0.637180	-0.393942	0.893341	0.273532	0.356541	-0.231890	0.960210	-0.155638	-0.384927	0.056360	0.921225
22786	1.530432	-0.818097	9.193276	0.626693	-0.726385	-0.561525	0.891811	0.268491	0.364123	-0.229269	0.962066	-0.147868	-0.390012	0.048388	0.919538
22787	1.185213	-0.231900	9.835947	0.654426	-0.763764	-0.770680	0.890557	0.261355	0.372294	-0.224912	0.964410	-0.139022	-0.395378	0.040074	0.917644
22788	2.051442	-0.563835	10.451505	0.629818	-0.765625	-0.958160	0.889623	0.252353	0.380643	-0.218853	0.967104	-0.129662	-0.400842	0.032045	0.915587
22789	2.535345	-0.301293	10.233784	0.631631	-0.677451	-1.131307	0.889320	0.241532	0.388295	-0.211276	0.970089	-0.119537	-0.405553	0.024269	0.913749
22790	2.110644	2.196131	9.860524	0.595247	-0.669678	-1.274138	0.889211	0.229264	0.395908	-0.202336	0.973217	-0.109127	-0.410323	0.016931	0.911783
22791	3.622842	2.919593	6.889288	-0.435408	-1.082319	-0.689973	0.886076	0.222672	0.406554	-0.194332	0.974713	-0.110314	-0.420837	0.018740	0.906943
22792	12.636932	-2.386017	14.199445	0.042145	-1.604602	-0.248168	0.879676	0.220496	0.421368	-0.192283	0.975276	-0.108924	-0.434968	0.014796	0.900325
22793	20.839683	-11.364112	15.490902	0.209558	0.388967	0.166577	0.881034	0.221987	0.417732	-0.194577	0.974955	-0.107720	-0.431182	0.013624	0.902162
22794	-4.233123	0.988317	5.143392	0.513074	0.891223	0.020914	0.884784	0.222056	0.409694	-0.196913	0.974976	-0.103186	-0.422355	0.010623	0.906368
22795	3.852581	-1.381006	10.082256	0.113055	-0.636834	0.031353	0.882007	0.222360	0.415475	-0.197602	0.974931	-0.102290	-0.427804	0.008122	0.903835
22796	8.240063	-0.382727	12.426285	0.128512	-0.014147	0.010330	0.881913	0.222436	0.415634	-0.198205	0.974923	-0.101190	-0.427720	0.006860	0.903885
22797	1.265122	-0.097919	8.217523	-0.058363	0.006295	0.008552	0.881917	0.222454	0.415617	-0.197960	0.974915	-0.101749	-0.427826	0.007459	0.903831
22798	4.623268	-1.546132	9.498856	-0.047438	-0.334668	0.011671	0.880443	0.222566	0.418670	-0.197821	0.974891	-0.102245	-0.430914	0.007199	0.902364
22799	4.653015	-0.927380	9.329480	0.019058	-0.093892	0.012934	0.880006	0.222634	0.419552	-0.197948	0.974878	-0.102124	-0.431748	0.006820	0.901968
22800	4.015883	-0.764533	9.388827	0.007628	-0.228987	0.024667	0.878952	0.222863	0.421634	-0.198159	0.974830	-0.102177	-0.433792	0.006258	0.900991
22801	4.926748	0.000910	9.472213	0.080068	0.007749	0.043607	0.878892	0.223223	0.421568	-0.198819	0.974752	-0.101636	-0.433612	0.005511	0.901083
22802	4.644101	-0.587305	9.108237	0.062597	-0.085981	0.066028	0.878374	0.223845	0.422318	-0.199633	0.974613	-0.101369	-0.434287	0.004731	0.900762
22803	5.076037	-1.252639	9.184980	0.062925	0.003590	0.066735	0.878251	0.224425	0.422267	-0.200418	0.974482	-0.101077	-0.434176	0.004141	0.900819
22804	4.528886	-0.905234	9.286070	0.065973	-0.013468	0.062943	0.878052	0.225013	0.422367	-0.201219	0.974350	-0.100767	-0.434207	0.003490	0.900807
22805	4.681884	-0.829690	9.517332	0.036463	0.007027	0.064039	0.877948	0.225566	0.422288	-0.201865	0.974223	-0.100702	-0.434118	0.003166	0.900850
22806	4.556246	-1.324008	9.365729	0.010475	-0.008407	0.054534	0.877788	0.226071	0.422352	-0.202350	0.974106	-0.100856	-0.434216	0.003067	0.900804
22807	4.467150	-1.376484	9.350667	0.004515	0.004963	0.027914	0.877747	0.226273	0.422328	-0.202540	0.974059	-0.100927	-0.434209	0.003050	0.900807
22808	4.576540	-1.034207	9.434199	-0.009806	-0.006532	0.021292	0.877662	0.226454	0.422407	-0.202646	0.974017	-0.101123	-0.434332	0.003153	0.900747
22809	4.439181	-1.097610	9.304834	-0.011754	0.008753	0.004787	0.877684	0.226431	0.422373	-0.202563	0.974022	-0.101243	-0.434325	0.003303	0.900750
22810	4.558037	-0.868737	9.400206	-0.010162	0.005944	0.003646	0.877689	0.226440	0.422358	-0.202513	0.974019	-0.101369	-0.434339	0.003437	0.900743
22811	4.428559	-0.886579	9.299886	-0.023578	0.024103	0.004666	0.877778	0.226416	0.422186	-0.202378	0.974023	-0.101595	-0.434222	0.003736	0.900798
22812	4.468618	-1.023835	9.274442	-0.012124	0.027297	-0.000257	0.877884	0.226386	0.421983	-0.202285	0.974030	-0.101721	-0.434052	0.003939	0.900879
22813	4.320432	-0.989782	9.224440	-0.003099	0.027742	-0.002470	0.878003	0.226292	0.421785	-0.202176	0.974051	-0.101732	-0.433861	0.004047	0.900971
22814	4.334954	-1.020100	9.226342	-0.007194	0.030295	-0.002144	0.878125	0.226243	0.421557	-0.202087	0.974062	-0.101806	-0.433655	0.004208	0.901069
22815	4.347996	-1.032839	9.138717	0.005549	0.034419	-0.005577	0.878280	0.226119	0.421302	-0.201989	0.974090	-0.101727	-0.433388	0.004246	0.901197
22816	4.254280	-1.045423	9.085853	0.009928	0.038292	0.002698	0.878426	0.226117	0.420996	-0.202018	0.974091	-0.101667	-0.433077	0.004258	0.901347
22817	4.301500	-1.113225	9.140389	0.017291	0.044037	-0.001890	0.878615	0.226028	0.420651	-0.202002	0.974112	-0.101497	-0.432702	0.004205	0.901527
22818	4.263108	-1.051406	9.141047	0.025239	0.044268	0.002251	0.878789	0.226021	0.420292	-0.202092	0.974114	-0.101297	-0.432307	0.004081	0.901717
22819	4.210995	-0.896780	9.185808	0.027346	0.034340	0.007693	0.878915	0.226028	0.420024	-0.202206	0.974113	-0.101078	-0.431997	0.003908	0.901867
22820	4.282834	-0.750486	9.246943	0.039965	0.022408	0.021624	0.878955	0.226211	0.419842	-0.202530	0.974072	-0.100827	-0.431764	0.003591	0.901979
22821	4.263090	-0.697107	9.297717	0.041892	0.015332	0.035374	0.878943	0.226487	0.419718	-0.202948	0.974009	-0.100592	-0.431592	0.003233	0.902063
22822	4.287909	-0.658241	9.377899	0.042313	-0.005700	0.043958	0.878816	0.226888	0.419768	-0.203479	0.973917	-0.100413	-0.431601	0.002831	0.902060
22823	4.253164	-0.856059	9.353885	0.043722	-0.009764	0.052518	0.878661	0.227330	0.419853	-0.204054	0.973815	-0.100232	-0.431645	0.002397	0.902041
22824	4.160057	-1.048754	9.338081	0.018848	-0.021358	0.052734	0.878448	0.227817	0.420035	-0.204560	0.973702	-0.100302	-0.431839	0.002187	0.901948
22825	4.268475	-1.049335	9.302776	0.011260	-0.031924	0.050892	0.878200	0.228244	0.420322	-0.204982	0.973602	-0.100407	-0.432143	0.002019	0.901803
22826	4.347101	-1.087258	9.293659	0.004649	-0.037822	0.053164	0.877914	0.228735	0.420652	-0.205430	0.973487	-0.100607	-0.432511	0.001910	0.901627
22827	4.291374	-1.082754	9.300520	0.001237	-0.041138	0.050392	0.877627	0.229157	0.421021	-0.205804	0.973388	-0.100802	-0.432916	0.001819	0.901432
22828	4.333248	-1.145466	9.194124	-0.011556	-0.034542	0.047527	0.877366	0.229593	0.421327	-0.206132	0.973285	-0.101124	-0.433288	0.001874	0.901253
22829	4.310418	-1.119025	9.403775	-0.025856	-0.056703	0.047201	0.877017	0.229985	0.421839	-0.206360	0.973192	-0.101550	-0.433886	0.002010	0.900966
22830	4.292452	-1.096901	9.366608	-0.018096	-0.049014	0.040749	0.876707	0.230356	0.422282	-0.206601	0.973104	-0.101903	-0.434398	0.002096	0.900719
22831	4.480800	-1.036535	9.327382	-0.016436	-0.050229	0.041773	0.876396	0.230696	0.422740	-0.206823	0.973024	-0.102222	-0.434919	0.002155	0.900467
22832	4.352160	-1.054718	9.330658	-0.006777	-0.044981	0.030156	0.876125	0.230963	0.423157	-0.207019	0.972960	-0.102429	-0.435372	0.002139	0.900248
22833	4.515674	-1.067252	9.251354	-0.005180	-0.043695	0.027637	0.875871	0.231165	0.423571	-0.207166	0.972912	-0.102587	-0.435812	0.002104	0.900035
22834	4.409052	-0.951213	9.306483	-0.000846	-0.037343	0.032384	0.875628	0.231454	0.423916	-0.207407	0.972844	-0.102750	-0.436186	0.002048	0.899854
22835	4.499565	-1.002156	9.313949	0.004741	-0.044340	0.028781	0.875369	0.231667	0.424335	-0.207607	0.972793	-0.102824	-0.436611	0.001914	0.899649
22836	4.433103	-0.983263	9.303639	0.004384	-0.038107	0.027874	0.875131	0.231912	0.424691	-0.207831	0.972735	-0.102921	-0.436980	0.001805	0.899469
22837	4.415844	-1.016777	9.256230	0.000960	-0.041412	0.025104	0.874891	0.232091	0.425087	-0.207984	0.972693	-0.103013	-0.437388	0.001714	0.899271
22838	4.364481	-0.969278	9.257836	0.003090	-0.039043	0.026404	0.874652	0.232321	0.425453	-0.208190	0.972638	-0.103116	-0.437768	0.001615	0.899086
22839	4.358623	-1.015888	9.227639	0.000487	-0.045006	0.024838	0.874397	0.232496	0.425882	-0.208336	0.972596	-0.103212	-0.438207	0.001522	0.898873
22840	4.326497	-1.036582	9.268979	-0.004537	-0.049605	0.024606	0.874115	0.232709	0.426345	-0.208492	0.972545	-0.103375	-0.438696	0.001472	0.898634
22841	4.382628	-0.969378	9.285331	-0.008676	-0.059367	0.029125	0.873788	0.232924	0.426896	-0.208635	0.972494	-0.103572	-0.439278	0.001435	0.898350
22842	4.383436	-1.193549	9.220839	-0.014525	-0.061310	0.027702	0.873448	0.233167	0.427461	-0.208774	0.972436	-0.103838	-0.439890	0.001455	0.898051
22843	4.383888	-1.019523	9.251348	-0.007189	-0.063814	0.025862	0.873106	0.233354	0.428056	-0.208898	0.972391	-0.104008	-0.440509	0.001390	0.897747
22844	4.349404	-1.103833	9.246931	-0.017961	-0.064631	0.024967	0.872755	0.233570	0.428653	-0.208997	0.972339	-0.104294	-0.441156	0.001436	0.897429
22845	4.441711	-1.198368	9.151895	-0.021357	-0.059715	0.019421	0.872446	0.233692	0.429216	-0.208999	0.972309	-0.104564	-0.441767	0.001520	0.897129
22846	4.328261	-1.108024	9.228679	-0.024881	-0.064632	0.014522	0.872116	0.233807	0.429823	-0.208977	0.972282	-0.104867	-0.442428	0.001633	0.896803
22847	4.352307	-1.220819	9.164584	-0.028963	-0.062065	0.014869	0.871804	0.233887	0.430413	-0.208908	0.972262	-0.105186	-0.443076	0.001785	0.896482
22848	4.397676	-1.099969	9.264282	-0.024126	-0.045840	0.003066	0.871580	0.233891	0.430863	-0.208788	0.972261	-0.105433	-0.443571	0.001934	0.896237
22849	4.333974	-1.162288	9.191963	-0.033545	-0.060916	-0.000459	0.871304	0.233823	0.431458	-0.208566	0.972277	-0.105727	-0.444218	0.002133	0.895916
22850	4.504700	-1.013551	9.161282	-0.034170	-0.050932	0.001253	0.871062	0.233809	0.431955	-0.208385	0.972280	-0.106056	-0.444778	0.002368	0.895638
22851	4.441111	-1.034510	9.190006	-0.031373	-0.050326	-0.001949	0.870835	0.233727	0.432456	-0.208158	0.972299	-0.106325	-0.445328	0.002572	0.895364
22852	4.439836	-1.040866	9.153707	-0.025980	-0.047872	-0.002198	0.870612	0.233679	0.432929	-0.207984	0.972310	-0.106565	-0.445844	0.002735	0.895107
22853	4.445677	-1.101783	9.140085	-0.023841	-0.045503	-0.000909	0.870404	0.233608	0.433387	-0.207800	0.972327	-0.106771	-0.446336	0.002877	0.894861
22854	4.491843	-1.059815	9.178511	-0.023459	-0.043526	-0.002773	0.870202	0.233555	0.433821	-0.207632	0.972339	-0.106987	-0.446809	0.003025	0.894624
22855	4.448690	-1.068212	9.202776	-0.019963	-0.046865	0.004934	0.869976	0.233540	0.434283	-0.207515	0.972342	-0.107182	-0.447303	0.003126	0.894377
22856	4.432327	-1.061285	9.255945	-0.025971	-0.043777	-0.003559	0.869773	0.233479	0.434721	-0.207329	0.972356	-0.107416	-0.447783	0.003298	0.894136
22857	4.389480	-1.070303	9.280091	-0.033435	-0.051142	-0.001011	0.869538	0.233409	0.435228	-0.207103	0.972372	-0.107707	-0.448343	0.003518	0.893854
22858	4.328054	-0.911971	9.376605	-0.040554	-0.064771	0.002470	0.869229	0.233408	0.435847	-0.206903	0.972371	-0.108097	-0.449035	0.003783	0.893506
22859	4.384220	-0.870094	9.446752	-0.081681	-0.107207	0.002491	0.868735	0.233372	0.436849	-0.206486	0.972378	-0.108834	-0.450181	0.004344	0.892927
22860	4.323406	-0.939225	9.477605	-0.112625	-0.130625	0.002328	0.868127	0.233374	0.438055	-0.205959	0.972373	-0.109866	-0.451593	0.005156	0.892209
22861	4.144265	-1.138588	9.419126	-0.123544	-0.160410	0.011393	0.867370	0.233430	0.439521	-0.205431	0.972355	-0.111013	-0.453285	0.005998	0.891346
22862	4.338664	-0.914043	9.511055	-0.158653	-0.217213	0.014621	0.866339	0.233559	0.441482	-0.204797	0.972317	-0.112508	-0.455538	0.007056	0.890188
22863	4.269739	-1.040871	9.580567	-0.186497	-0.238200	0.009648	0.865224	0.233607	0.443638	-0.203958	0.972295	-0.114206	-0.458027	0.008330	0.888899
22864	4.219378	-1.143600	9.660176	-0.248447	-0.272949	0.005668	0.863944	0.233660	0.446098	-0.202826	0.972266	-0.116454	-0.460937	0.010130	0.887375
22865	4.126943	-1.101404	9.889555	-0.303648	-0.337470	-0.001585	0.862378	0.233619	0.449139	-0.201336	0.972250	-0.119135	-0.464508	0.012311	0.885483
22866	4.096590	-1.227458	9.734050	-0.333182	-0.385185	-0.022739	0.860612	0.233423	0.452616	-0.199546	0.972265	-0.121996	-0.468539	0.014673	0.883321
22867	4.065460	-1.026764	9.952211	-0.351718	-0.448214	-0.029522	0.858552	0.233146	0.456653	-0.197568	0.972292	-0.124959	-0.473134	0.017064	0.880825
22868	4.277770	-0.867303	9.754007	-0.368397	-0.555122	-0.031291	0.855956	0.232916	0.461616	-0.195507	0.972304	-0.128071	-0.478661	0.019374	0.877786
22869	4.087033	-0.711082	9.954777	-0.336803	-0.661079	-0.025112	0.852811	0.232744	0.467487	-0.193601	0.972309	-0.130900	-0.485008	0.021127	0.874254
22870	3.845945	-0.494849	10.252503	-0.301897	-0.804598	-0.011680	0.848885	0.232778	0.474562	-0.191985	0.972276	-0.133493	-0.492480	0.022211	0.870040
22871	3.371791	-0.298748	10.839112	-0.307422	-1.037696	0.008907	0.843701	0.233033	0.483596	-0.190462	0.972201	-0.136193	-0.501890	0.022800	0.864631
22872	2.970412	-0.533009	11.187682	-0.333000	-1.325560	-0.001358	0.836955	0.233297	0.495055	-0.188719	0.972134	-0.139068	-0.513704	0.022968	0.857660
22873	2.479826	-1.384220	11.563577	-0.369343	-1.640168	-0.024029	0.828449	0.233371	0.509128	-0.186522	0.972122	-0.142088	-0.528093	0.022749	0.848882
22874	2.328329	-2.453149	11.898621	-0.385042	-1.981289	-0.119082	0.818018	0.232629	0.526052	-0.183435	0.972319	-0.144732	-0.545159	0.021897	0.838047
22875	2.066185	-2.366023	11.894297	-0.212745	-2.348219	-0.268248	0.805463	0.230435	0.546011	-0.180012	0.972911	-0.145051	-0.564645	0.018544	0.825125
22876	2.084345	-1.572957	11.290434	-0.179723	-2.848060	-0.389987	0.789726	0.227073	0.569887	-0.175824	0.973780	-0.144354	-0.587724	0.013800	0.808944
22877	3.150921	-1.127483	11.025485	-0.004681	-3.387104	-0.511233	0.770240	0.222380	0.597727	-0.171752	0.974940	-0.141398	-0.614192	0.006250	0.789132
22878	2.822965	-1.194467	10.998661	0.098510	-3.914790	-0.594430	0.746600	0.216611	0.629021	-0.167820	0.976253	-0.136994	-0.643758	-0.003283	0.765222
22879	3.436418	-1.804582	11.579013	0.184706	-4.531082	-0.657827	0.717756	0.209729	0.663958	-0.164166	0.977649	-0.131349	-0.676665	-0.014722	0.736143
22880	4.545279	-2.884321	11.244938	0.205364	-5.011417	-0.724069	0.684115	0.201568	0.700969	-0.160472	0.979102	-0.124934	-0.711503	-0.027017	0.702164
22881	7.427056	-2.590438	10.867603	0.249240	-5.326870	-0.750022	0.646435	0.192396	0.738312	-0.157254	0.980504	-0.117824	-0.746587	-0.039937	0.664088
22882	11.024539	-2.705458	10.517350	0.150525	-5.393429	-0.667108	0.606262	0.183353	0.773839	-0.154181	0.981696	-0.111809	-0.780176	-0.051526	0.623435
22883	16.621705	-3.571523	12.197615	0.192428	-4.929560	-0.532560	0.567876	0.175292	0.804232	-0.152537	0.982548	-0.106451	-0.808857	-0.062224	0.584704
22884	15.167706	-4.541915	11.595648	0.451895	-4.143552	-0.383163	0.534452	0.168677	0.828196	-0.154088	0.982907	-0.100751	-0.831034	-0.073768	0.551307
22885	12.379926	-2.817064	10.399189	0.700958	-3.804888	-0.319644	0.502949	0.162455	0.848911	-0.158292	0.982878	-0.094310	-0.849698	-0.086943	0.520053
22886	10.609705	-2.103116	9.724072	0.700502	-3.618888	-0.249271	0.472264	0.156597	0.867435	-0.163045	0.982630	-0.088626	-0.866247	-0.099576	0.489593
22887	7.941437	-1.691803	9.303153	0.538589	-3.474159	-0.177725	0.442178	0.151192	0.884093	-0.166917	0.982342	-0.084511	-0.881259	-0.110201	0.459606
22888	5.184813	-2.003197	8.866239	0.276128	-3.414107	-0.165221	0.412089	0.145641	0.899428	-0.168623	0.982281	-0.081799	-0.895404	-0.117956	0.429345
22889	2.645133	-2.893393	7.539979	0.142948	-3.388257	-0.200383	0.381842	0.139564	0.913629	-0.169107	0.982395	-0.079392	-0.908625	-0.124185	0.398721
22890	-1.601674	-2.199990	6.747951	0.358001	-3.267716	-0.358197	0.352536	0.131823	0.926467	-0.171024	0.982430	-0.074709	-0.920038	-0.132111	0.368887
22891	18.674322	-3.446001	9.432027	0.334044	-3.131965	-0.836078	0.324974	0.119365	0.938160	-0.171290	0.983025	-0.065739	-0.930082	-0.139334	0.339903
22892	19.115677	-2.232362	8.888868	0.899244	-0.959228	-0.625461	0.317100	0.111800	0.941779	-0.177613	0.982458	-0.056826	-0.931612	-0.149253	0.331395
22893	9.783811	-3.507965	8.622364	0.975715	0.631819	-0.413994	0.323709	0.108723	0.939889	-0.185375	0.981411	-0.049681	-0.927819	-0.158150	0.337846
22894	6.219339	-3.941953	7.697270	1.024575	1.504321	-0.139652	0.337845	0.109761	0.934780	-0.194344	0.979909	-0.044820	-0.920919	-0.166527	0.352389
22895	2.571152	-4.108085	5.569142	1.153600	1.718624	0.054841	0.353477	0.113279	0.928559	-0.205146	0.977864	-0.041200	-0.912671	-0.175927	0.368891
22896	-0.463858	-3.307046	3.990300	1.133954	1.410275	0.209838	0.365820	0.117840	0.923195	-0.216168	0.975582	-0.038869	-0.905233	-0.185346	0.382361
22897	0.084098	-2.936172	3.066252	1.011957	0.904051	0.334792	0.373223	0.122878	0.919568	-0.226594	0.973244	-0.038084	-0.899644	-0.194155	0.391081
22898	1.750761	-2.762211	3.521911	0.861346	0.618078	0.450007	0.377697	0.128440	0.916978	-0.235974	0.970984	-0.038809	-0.895355	-0.201725	0.397046
22899	3.334818	-2.679972	4.386569	0.702687	0.604034	0.569204	0.381710	0.135275	0.914329	-0.244484	0.968775	-0.041264	-0.891361	-0.207788	0.402864
22900	3.863967	-2.960002	4.942410	0.548385	0.746994	0.684341	0.386622	0.143429	0.911017	-0.251949	0.966681	-0.045269	-0.887155	-0.212028	0.409877
22901	3.980396	-3.151487	5.265808	0.460662	0.896588	0.774092	0.392560	0.152912	0.906926	-0.259126	0.964524	-0.050461	-0.882468	-0.215199	0.418257
22902	4.621890	-3.188320	5.349388	0.379797	1.061449	0.848925	0.399640	0.163349	0.902001	-0.265791	0.962372	-0.056521	-0.877293	-0.217155	0.428019
22903	4.985099	-2.839747	5.462927	0.329759	1.249150	0.900540	0.408118	0.174836	0.896031	-0.272412	0.960099	-0.063261	-0.871339	-0.218272	0.439461
22904	5.228429	-2.604908	5.480528	0.245233	1.433803	0.951400	0.417913	0.187051	0.889022	-0.278430	0.957855	-0.070649	-0.864769	-0.218005	0.452381
22905	5.220416	-2.415239	5.606514	0.186783	1.604330	0.975507	0.428959	0.199998	0.880906	-0.284282	0.955521	-0.078507	-0.857425	-0.216750	0.466735
22906	5.289552	-2.367571	5.834497	0.135130	1.759689	0.966482	0.441174	0.212980	0.871783	-0.289600	0.953247	-0.086327	-0.849410	-0.214383	0.482227
22907	5.583902	-2.325987	6.031680	0.124812	1.923982	0.917151	0.454720	0.225949	0.861497	-0.294886	0.950922	-0.093754	-0.840400	-0.211412	0.499032
22908	5.879632	-2.171846	6.189722	0.138046	2.119550	0.821027	0.469956	0.238155	0.849955	-0.299795	0.948740	-0.100072	-0.830220	-0.207783	0.517264
22909	6.048866	-1.935542	6.203885	0.143438	2.332894	0.685219	0.487084	0.249601	0.836928	-0.304388	0.946722	-0.105194	-0.818594	-0.203513	0.537109
22910	5.670042	-1.524274	5.947201	0.119493	2.508205	0.509311	0.505871	0.259423	0.822675	-0.307847	0.945199	-0.108761	-0.805807	-0.198239	0.558011
22911	5.322507	-1.180623	5.842577	0.050710	2.588327	0.312823	0.525548	0.267591	0.807585	-0.310002	0.944219	-0.111126	-0.792274	-0.191951	0.579186
22912	5.314165	-0.994620	5.713556	-0.058932	2.627055	0.123994	0.545770	0.273670	0.791985	-0.310163	0.944008	-0.112463	-0.778417	-0.184265	0.600094
22913	5.525644	-1.035087	5.687593	-0.179988	2.649642	-0.051109	0.566326	0.278121	0.775838	-0.308629	0.944415	-0.113267	-0.764214	-0.175300	0.620682
22914	5.606354	-1.034870	5.660828	-0.321049	2.670902	-0.173999	0.587055	0.280985	0.759219	-0.305154	0.945460	-0.113957	-0.749831	-0.164780	0.640781
22915	5.615024	-1.412900	5.670092	-0.457946	2.661976	-0.273843	0.607610	0.282798	0.742183	-0.300256	0.946902	-0.114990	-0.735293	-0.152976	0.660259
22916	5.922702	-2.001819	5.791692	-0.546373	2.621022	-0.328383	0.627645	0.283498	0.725045	-0.294209	0.948646	-0.116241	-0.720765	-0.140357	0.678821
22917	6.351510	-2.464774	6.098476	-0.588441	2.586266	-0.343465	0.647052	0.283881	0.707627	-0.287964	0.950351	-0.117943	-0.705975	-0.127456	0.696674
22918	7.091183	-2.849834	6.491693	-0.598928	2.584559	-0.329777	0.666019	0.283839	0.689822	-0.281575	0.952023	-0.119868	-0.690749	-0.114403	0.713987
22919	7.893811	-2.846334	6.829160	-0.603740	2.653048	-0.252936	0.684789	0.284479	0.670922	-0.275892	0.953334	-0.122631	-0.674498	-0.101126	0.731318
22920	8.063372	-2.862674	7.000927	-0.631999	2.747341	-0.118040	0.703384	0.285911	0.650773	-0.270824	0.954276	-0.126535	-0.657195	-0.087242	0.748654
22921	8.003367	-3.041352	7.099826	-0.635621	2.823140	0.052868	0.721488	0.288876	0.629290	-0.267232	0.954574	-0.131814	-0.638782	-0.073064	0.765911
22922	7.944974	-3.160251	7.304555	-0.592662	2.869359	0.241892	0.738876	0.293052	0.606781	-0.265229	0.954272	-0.137908	-0.619448	-0.059039	0.782815
22923	8.080961	-2.975135	7.419309	-0.519978	2.911977	0.423409	0.755443	0.298815	0.583109	-0.265379	0.953228	-0.144673	-0.599066	-0.045452	0.799408
22924	7.843640	-2.551990	7.315128	-0.455489	2.953932	0.577292	0.771270	0.305433	0.558438	-0.267066	0.951670	-0.151659	-0.577771	-0.032170	0.815565
22925	7.616592	-1.896620	7.355325	-0.420271	2.939401	0.711303	0.785966	0.313152	0.533097	-0.270376	0.949512	-0.159136	-0.556016	-0.019061	0.830953
22926	7.117103	-1.221498	7.331843	-0.422865	2.885921	0.833918	0.799412	0.321394	0.507589	-0.274643	0.946927	-0.167034	-0.534334	-0.005877	0.845253
22927	6.521402	-0.656539	7.272894	-0.441017	2.757756	0.918172	0.811255	0.330252	0.482493	-0.279876	0.943865	-0.175469	-0.513357	0.007312	0.858144
22928	6.237253	-0.284230	7.589655	-0.494844	2.535802	0.934661	0.821374	0.338683	0.458953	-0.284975	0.940678	-0.184159	-0.494098	0.020474	0.869165
22929	6.649215	-0.421857	8.122095	-0.548378	2.299536	0.888817	0.829924	0.346592	0.437150	-0.289791	0.937416	-0.193061	-0.476705	0.033543	0.878423
22930	7.316620	-1.010719	8.898681	-0.527919	2.133102	0.789928	0.837602	0.353115	0.416812	-0.293867	0.934450	-0.201111	-0.460506	0.045964	0.886466
22931	8.571594	-1.510816	9.900879	-0.424948	2.086512	0.675415	0.844986	0.358509	0.396826	-0.297755	0.931760	-0.207762	-0.444231	0.057399	0.894071
22932	9.565719	-1.330125	10.529684	-0.294321	2.192983	0.577879	0.852791	0.362490	0.375963	-0.301343	0.929499	-0.212658	-0.426543	0.068059	0.901903
22933	9.296285	-0.634792	10.507634	-0.231441	2.357657	0.503666	0.861038	0.365586	0.353498	-0.304809	0.927432	-0.216704	-0.407069	0.078841	0.909988
22934	8.300387	-0.278899	9.849935	-0.249897	2.416355	0.441231	0.869271	0.367614	0.330496	-0.307599	0.925610	-0.220519	-0.386976	0.090031	0.917684
22935	7.461980	-0.141328	9.167675	-0.288960	2.349706	0.364361	0.876961	0.368863	0.308025	-0.309787	0.923935	-0.224445	-0.367385	0.101408	0.924524
22936	6.946507	-0.256314	8.712836	-0.332475	2.188005	0.284947	0.883908	0.369134	0.287134	-0.311070	0.922534	-0.228400	-0.349201	0.112566	0.930262
22937	6.939809	-0.386172	8.643693	-0.347036	2.005293	0.227450	0.889993	0.368975	0.267899	-0.311984	0.921236	-0.232359	-0.332533	0.123218	0.935008
22938	7.122313	-0.465962	8.717208	-0.346184	1.839661	0.173895	0.895421	0.368199	0.250300	-0.312379	0.920156	-0.236078	-0.317239	0.133201	0.938944
22939	7.306549	-0.510298	8.822846	-0.342551	1.683152	0.132345	0.900193	0.367185	0.234153	-0.312568	0.919154	-0.239703	-0.303238	0.142590	0.942186
22940	7.445518	-0.669699	8.701591	-0.350585	1.525664	0.080185	0.904468	0.365662	0.219612	-0.312218	0.918349	-0.243218	-0.290616	0.151416	0.944783
22941	7.422145	-1.007025	8.224063	-0.322840	1.357152	0.007789	0.908282	0.363693	0.206764	-0.311416	0.917784	-0.246360	-0.279364	0.159375	0.946866
22942	7.165229	-1.246169	7.685565	-0.269881	1.150262	-0.074417	0.911667	0.361123	0.196094	-0.309966	0.917618	-0.248794	-0.269785	0.166035	0.948498
22943	7.010718	-1.462089	7.215843	-0.178253	0.891305	-0.143865	0.914459	0.358353	0.188009	-0.308210	0.917807	-0.250273	-0.262242	0.170918	0.949745
22944	7.034930	-1.460243	6.873293	-0.101389	0.614557	-0.187443	0.916627	0.355557	0.182687	-0.306199	0.918304	-0.250916	-0.256977	0.174058	0.950614
22945	6.962911	-1.257189	6.452611	-0.032893	0.326941	-0.204950	0.918069	0.353141	0.180114	-0.304255	0.918951	-0.250914	-0.254124	0.175555	0.951105
22946	6.797810	-1.181782	6.124720	0.028007	0.008688	-0.200056	0.918694	0.351272	0.180581	-0.302457	0.919708	-0.250314	-0.254010	0.175344	0.951175
22947	6.623600	-1.256939	5.912259	0.126091	-0.321224	-0.218429	0.918518	0.349846	0.184210	-0.300779	0.920678	-0.248765	-0.256628	0.173089	0.950885
22948	6.409677	-1.323669	5.797949	0.304216	-0.666491	-0.279933	0.917625	0.348388	0.191285	-0.298966	0.922177	-0.245375	-0.261884	0.167974	0.950369
22949	6.881580	-1.011116	6.272132	0.508543	-0.989877	-0.365547	0.916072	0.346648	0.201611	-0.296960	0.924272	-0.239868	-0.269493	0.159866	0.949640
22950	5.323819	-5.477397	6.283313	1.211297	-1.427291	-0.379576	0.913280	0.345283	0.216099	-0.296778	0.927427	-0.227599	-0.279002	0.143729	0.949473
22951	5.954730	1.032801	6.502366	1.676655	-1.644081	-0.475536	0.910010	0.343061	0.232790	-0.297195	0.931289	-0.210654	-0.289062	0.122513	0.949439
22952	5.770583	2.921681	9.587205	1.537414	-1.640426	-0.465085	0.906560	0.340549	0.249348	-0.297462	0.934614	-0.194967	-0.299441	0.102578	0.948585
22953	4.318693	0.322597	9.467267	1.289965	-1.622627	-0.400406	0.902799	0.338305	0.265526	-0.297741	0.937188	-0.181737	-0.310330	0.085014	0.946820
22954	2.452041	0.518646	9.620894	1.255995	-1.665142	-0.419342	0.898780	0.335621	0.282053	-0.297899	0.939566	-0.168736	-0.321639	0.067633	0.944444
22955	2.367711	0.548341	10.439113	1.174571	-1.634205	-0.435893	0.894726	0.332459	0.298221	-0.297791	0.941730	-0.156412	-0.332844	0.051138	0.941594
22956	1.395266	0.592855	11.226772	1.100012	-1.540259	-0.460798	0.890882	0.328762	0.313439	-0.297363	0.943738	-0.144685	-0.343371	0.035692	0.938521
22957	1.324068	0.520872	11.670194	1.012540	-1.447182	-0.512514	0.887361	0.324292	0.327758	-0.296283	0.945715	-0.133566	-0.353280	0.021412	0.935272
22958	2.100434	0.735818	9.908747	0.959891	-1.408397	-0.634137	0.884181	0.318470	0.341762	-0.294070	0.947901	-0.122505	-0.362971	0.007815	0.931768
22959	0.460909	3.112548	9.173025	0.849083	-1.544902	-0.845560	0.880953	0.310416	0.357159	-0.289682	0.950587	-0.111663	-0.374173	-0.005093	0.927345
22960	4.004380	6.064505	9.150478	-0.064609	-1.927869	-0.526569	0.875077	0.305233	0.375597	-0.284776	0.952221	-0.110352	-0.391334	-0.010394	0.920190
22961	4.637703	-0.941394	9.842565	-0.064265	-1.853237	-0.340891	0.868643	0.301671	0.393007	-0.281471	0.953288	-0.109619	-0.407718	-0.015400	0.912978
22962	7.851536	-2.472015	11.308577	0.290736	-1.893288	-0.524686	0.862232	0.296269	0.410829	-0.278103	0.954808	-0.104887	-0.423338	-0.023816	0.905659
22963	31.755054	-5.082952	22.569970	-0.258466	-1.787902	0.258949	0.853800	0.298213	0.426725	-0.279132	0.954127	-0.108289	-0.439444	-0.026655	0.897875
22964	6.877673	-3.957435	8.298332	1.351495	1.493127	-0.016259	0.860272	0.298493	0.413320	-0.284784	0.953767	-0.096054	-0.422883	-0.035074	0.905505
22965	-4.817535	0.425602	6.187501	0.078407	-0.681286	0.009066	0.857348	0.298245	0.419528	-0.285110	0.953739	-0.095368	-0.428563	-0.037848	0.902719
22966	10.673990	-1.196895	14.449720	0.315726	-0.612675	-0.030639	0.854785	0.297680	0.425123	-0.286171	0.953712	-0.092411	-0.432953	-0.042666	0.900406
22967	2.284702	1.016802	8.677301	0.087605	-0.065282	-0.045141	0.854633	0.297136	0.425808	-0.286080	0.953835	-0.091415	-0.433313	-0.043689	0.900184
22968	6.458481	-1.763674	10.355969	0.061233	-0.616648	-0.067982	0.852128	0.296184	0.431454	-0.285730	0.954018	-0.090592	-0.438447	-0.046083	0.897575
22969	3.486876	-0.857966	8.850419	0.116007	0.009551	-0.066624	0.852363	0.295465	0.431484	-0.285583	0.954189	-0.089246	-0.438087	-0.047154	0.897695
22970	7.030426	1.592017	10.423046	0.110279	-0.309607	0.044835	0.850863	0.295717	0.434263	-0.286414	0.954013	-0.088470	-0.440455	-0.049103	0.896431
22971	3.651838	-0.454005	8.169423	0.046744	0.113262	0.032987	0.851270	0.295992	0.433276	-0.286807	0.953922	-0.088173	-0.439410	-0.049208	0.896938
22972	5.724854	-1.265730	9.193008	0.021951	-0.017895	0.065666	0.850991	0.296583	0.433420	-0.287426	0.953726	-0.088279	-0.439546	-0.049451	0.896858
22973	4.462565	-0.593521	9.357118	0.063990	-0.001863	0.054241	0.850831	0.297004	0.433446	-0.288076	0.953563	-0.087919	-0.439431	-0.050061	0.896880
22974	4.617592	-0.824910	9.330252	0.040465	0.017524	0.047640	0.850759	0.297440	0.433289	-0.288622	0.953410	-0.087782	-0.439212	-0.050376	0.896970
22975	4.768194	-1.355699	9.191671	0.001212	0.030914	0.033513	0.850802	0.297679	0.433040	-0.288819	0.953340	-0.087894	-0.438998	-0.050290	0.897079
22976	4.513772	-1.090909	9.233270	-0.006398	0.047119	0.027117	0.850918	0.297935	0.432634	-0.288986	0.953272	-0.088088	-0.438663	-0.050070	0.897256
22977	4.577200	-0.694241	9.248898	0.002469	0.061218	0.024843	0.851119	0.298108	0.432121	-0.289116	0.953227	-0.088152	-0.438188	-0.049905	0.897497
22978	4.431893	-0.605322	9.298649	0.003739	0.057150	0.033768	0.851260	0.298432	0.431619	-0.289383	0.953133	-0.088284	-0.437738	-0.049751	0.897725
22979	4.474662	-0.603954	9.274153	0.023149	0.041341	0.034767	0.851344	0.298689	0.431275	-0.289688	0.953048	-0.088205	-0.437372	-0.049843	0.897898
22980	4.410672	-0.650785	9.276830	0.037084	0.028738	0.040726	0.851340	0.299065	0.431023	-0.290160	0.952917	-0.088066	-0.437067	-0.050091	0.898033
22981	4.415028	-0.708610	9.197611	0.050291	0.018819	0.045373	0.851295	0.299410	0.430872	-0.290673	0.952787	-0.087789	-0.436814	-0.050509	0.898133
22982	4.426794	-0.808728	9.283485	0.047567	0.009644	0.053478	0.851170	0.299898	0.430780	-0.291299	0.952612	-0.087611	-0.436640	-0.050914	0.898194
22983	4.385191	-0.731644	9.261991	0.045370	0.015225	0.053232	0.851086	0.300317	0.430654	-0.291857	0.952459	-0.087411	-0.436431	-0.051295	0.898274
22984	4.486531	-0.900092	9.146903	0.045199	0.011118	0.054801	0.850963	0.300818	0.430548	-0.292484	0.952281	-0.087260	-0.436252	-0.051673	0.898340
22985	4.437602	-0.799223	9.247070	0.037056	0.010103	0.060454	0.850834	0.301304	0.430462	-0.293068	0.952110	-0.087166	-0.436111	-0.051991	0.898390
22986	4.289110	-1.035041	9.330213	0.020529	0.007302	0.063723	0.850667	0.301887	0.430383	-0.293664	0.951916	-0.087275	-0.436035	-0.052146	0.898417
22987	4.289682	-0.965064	9.247778	0.009792	0.001592	0.057914	0.850508	0.302345	0.430376	-0.294107	0.951767	-0.087415	-0.436047	-0.052229	0.898407
22988	4.466782	-0.907043	9.187818	-0.002875	-0.003139	0.055127	0.850321	0.302841	0.430397	-0.294527	0.951611	-0.087697	-0.436129	-0.052193	0.898369
22989	4.367036	-0.894424	9.256697	-0.008486	-0.001548	0.057936	0.850147	0.303298	0.430418	-0.294892	0.951470	-0.088002	-0.436220	-0.052112	0.898330
22990	4.473281	-0.872911	9.179558	-0.015163	-0.005459	0.062530	0.849928	0.303864	0.430453	-0.295321	0.951297	-0.088427	-0.436358	-0.051965	0.898271
22991	4.483474	-0.890057	9.197174	-0.019662	-0.001308	0.055121	0.849763	0.304295	0.430474	-0.295613	0.951170	-0.088821	-0.436481	-0.051777	0.898222
22992	4.598711	-0.953458	9.220443	-0.020199	-0.013605	0.059798	0.849515	0.304830	0.430584	-0.295996	0.951008	-0.089278	-0.436703	-0.051608	0.898124
22993	4.444292	-0.859679	9.214528	-0.027202	-0.023238	0.063798	0.849229	0.305331	0.430793	-0.296328	0.950857	-0.089778	-0.437035	-0.051414	0.897974
22994	4.499575	-0.970821	9.238241	-0.014131	-0.013290	0.055054	0.848996	0.305821	0.430904	-0.296698	0.950706	-0.090161	-0.437236	-0.051302	0.897882
22995	4.460419	-1.047760	9.274174	-0.012956	-0.019458	0.049688	0.848767	0.306192	0.431092	-0.296974	0.950590	-0.090471	-0.437493	-0.051234	0.897761
22996	4.485557	-0.904255	9.298843	-0.004858	-0.026357	0.043028	0.848513	0.306561	0.431331	-0.297281	0.950470	-0.090719	-0.437778	-0.051250	0.897621
22997	4.467134	-0.993930	9.279630	-0.010857	-0.027156	0.035651	0.848292	0.306793	0.431599	-0.297446	0.950397	-0.090951	-0.438094	-0.051224	0.897469
22998	4.391376	-0.857825	9.324188	-0.013923	-0.022962	0.035620	0.848074	0.307093	0.431815	-0.297650	0.950304	-0.091249	-0.438377	-0.051144	0.897335
22999	4.452574	-0.836879	9.272603	-0.013690	-0.033008	0.034194	0.847831	0.307311	0.432137	-0.297791	0.950236	-0.091501	-0.438751	-0.051109	0.897154
23000	4.457661	-0.816822	9.320068	-0.027873	-0.037265	0.036196	0.847548	0.307609	0.432479	-0.297939	0.950148	-0.091926	-0.439197	-0.050941	0.896945
23001	4.387677	-0.992035	9.269756	-0.029103	-0.044403	0.035837	0.847250	0.307837	0.432902	-0.298027	0.950082	-0.092323	-0.439713	-0.050795	0.896701
23002	4.442237	-0.936325	9.248480	-0.035898	-0.047457	0.034578	0.846927	0.308114	0.433337	-0.298125	0.950004	-0.092814	-0.440269	-0.050582	0.896440
23003	4.418329	-0.955913	9.218082	-0.034405	-0.047901	0.029813	0.846631	0.308282	0.433795	-0.298136	0.949959	-0.093233	-0.440830	-0.050396	0.896175
23004	4.433091	-0.973592	9.233347	-0.038421	-0.053000	0.029009	0.846299	0.308504	0.434285	-0.298176	0.949899	-0.093721	-0.441440	-0.050177	0.895887
23005	4.524461	-0.939649	9.208260	-0.035456	-0.050952	0.027916	0.845994	0.308654	0.434772	-0.298168	0.949860	-0.094141	-0.442029	-0.049992	0.895606
23006	4.429672	-0.814113	9.257850	-0.019051	-0.044437	0.027187	0.845705	0.308863	0.435185	-0.298277	0.949795	-0.094449	-0.442509	-0.049930	0.895373
23007	4.431018	-0.990278	9.264823	-0.035132	-0.061879	0.032397	0.845338	0.309050	0.435765	-0.298306	0.949742	-0.094887	-0.443189	-0.049780	0.895045
23008	4.587273	-1.474739	9.022599	-0.042604	-0.059751	0.026111	0.844984	0.309242	0.436317	-0.298301	0.949692	-0.095400	-0.443868	-0.049542	0.894721
23009	4.557969	-0.988591	9.199099	-0.051765	-0.052974	0.009129	0.844724	0.309215	0.436838	-0.298062	0.949718	-0.095886	-0.444523	-0.049208	0.894415
23010	4.409398	-1.020225	9.300577	-0.066506	-0.055833	0.003573	0.844453	0.309194	0.437376	-0.297760	0.949750	-0.096514	-0.445239	-0.048731	0.894085
23011	4.567073	-0.923406	9.216794	-0.073365	-0.050135	-0.002512	0.844240	0.309060	0.437883	-0.297326	0.949821	-0.097143	-0.445933	-0.048182	0.893768
23012	4.506270	-0.958684	9.230984	-0.064188	-0.043213	0.002198	0.844029	0.309033	0.438308	-0.297021	0.949855	-0.097744	-0.446536	-0.047688	0.893494
23013	4.565863	-0.999905	9.169584	-0.063362	-0.049710	0.000964	0.843806	0.308932	0.438808	-0.296661	0.949911	-0.098297	-0.447195	-0.047233	0.893188
23014	4.481983	-1.002637	9.254607	-0.055667	-0.045269	0.001994	0.843586	0.308903	0.439252	-0.296391	0.949940	-0.098821	-0.447789	-0.046826	0.892912
23015	4.442811	-1.027679	9.263272	-0.068190	-0.045854	-0.002257	0.843388	0.308776	0.439720	-0.295984	0.950007	-0.099404	-0.448431	-0.046313	0.892617
23016	4.385280	-0.926969	9.309625	-0.083172	-0.058232	-0.010954	0.843147	0.308618	0.440292	-0.295481	0.950088	-0.100117	-0.449214	-0.045685	0.892255
23017	4.519326	-0.900538	9.222253	-0.106531	-0.080757	-0.004910	0.842800	0.308450	0.441074	-0.294876	0.950179	-0.101030	-0.450262	-0.044914	0.891766
23018	4.425789	-1.031518	9.255130	-0.121169	-0.084540	-0.004478	0.842420	0.308343	0.441873	-0.294255	0.950257	-0.102108	-0.451378	-0.044005	0.891247
23019	4.434402	-1.043410	9.249673	-0.143720	-0.099815	-0.011914	0.842007	0.308101	0.442830	-0.293419	0.950384	-0.103319	-0.452692	-0.042939	0.890633
23020	4.252115	-1.120345	9.344216	-0.136502	-0.114066	-0.005033	0.841492	0.307977	0.443893	-0.292721	0.950467	-0.104530	-0.454098	-0.041975	0.889962
23021	4.528828	-1.112443	9.227815	-0.158069	-0.148441	-0.011403	0.840850	0.307726	0.445281	-0.291824	0.950594	-0.105871	-0.455861	-0.040922	0.889110
23022	4.366444	-1.082639	9.461684	-0.177107	-0.146468	-0.016011	0.840216	0.307488	0.446642	-0.290843	0.950725	-0.107391	-0.457655	-0.039671	0.888245
23023	4.502082	-1.145763	9.310287	-0.203742	-0.166973	-0.024018	0.839521	0.307111	0.448205	-0.289623	0.950905	-0.109077	-0.459699	-0.038238	0.887251
23024	4.500175	-0.965248	9.258611	-0.223507	-0.176556	-0.029710	0.838781	0.306735	0.449844	-0.288306	0.951090	-0.110943	-0.461872	-0.036636	0.886189
23025	4.531031	-0.899997	9.340195	-0.249084	-0.196347	-0.019726	0.837929	0.306395	0.451660	-0.286904	0.951266	-0.113044	-0.464285	-0.034860	0.885000
23026	4.511309	-0.923400	9.283406	-0.251119	-0.220329	-0.013553	0.836930	0.306164	0.453666	-0.285584	0.951402	-0.115221	-0.466895	-0.033128	0.883692
23027	4.598169	-0.990666	9.333528	-0.258271	-0.255062	-0.006316	0.835752	0.305941	0.455980	-0.284240	0.951531	-0.117457	-0.469814	-0.031443	0.882205
23028	4.515153	-1.067310	9.241585	-0.272995	-0.273468	-0.005202	0.834465	0.305782	0.458438	-0.282872	0.951639	-0.119856	-0.472918	-0.029664	0.880607
23029	4.438257	-1.077310	9.477284	-0.273877	-0.312636	0.000513	0.832980	0.305614	0.461243	-0.281494	0.951744	-0.122251	-0.476346	-0.028004	0.878812
23030	4.394920	-1.156475	9.500106	-0.278934	-0.359863	-0.002892	0.831254	0.305462	0.464447	-0.280097	0.951837	-0.124703	-0.480170	-0.026430	0.876777
23031	4.204586	-1.168946	9.778258	-0.270831	-0.426413	-0.009319	0.829224	0.305179	0.468245	-0.278628	0.951963	-0.127015	-0.484514	-0.025142	0.874422
23032	4.025189	-1.067969	10.041316	-0.261057	-0.542311	-0.023233	0.826633	0.304797	0.473050	-0.277125	0.952108	-0.129201	-0.489775	-0.024293	0.871511
23033	3.912376	-1.002287	10.133486	-0.262844	-0.680923	-0.023711	0.823340	0.304328	0.479057	-0.275554	0.952269	-0.131357	-0.496166	-0.023855	0.867900
23034	3.836911	-0.890214	10.175878	-0.273531	-0.853589	-0.033599	0.819150	0.303778	0.486532	-0.273872	0.952445	-0.133578	-0.503973	-0.023827	0.863391
23035	3.783409	-0.531114	10.418900	-0.263886	-1.038754	-0.037921	0.813969	0.303086	0.495573	-0.272138	0.952649	-0.135646	-0.513220	-0.024452	0.857909
23036	3.556092	-0.455613	10.670077	-0.248964	-1.250414	-0.038502	0.807573	0.302378	0.506353	-0.270496	0.952838	-0.137596	-0.524078	-0.025847	0.851278
23037	3.042968	-0.647765	11.109668	-0.246705	-1.519959	-0.049489	0.799641	0.301415	0.519348	-0.268708	0.953080	-0.139412	-0.537001	-0.028073	0.843114
23038	2.577323	-1.317162	11.552413	-0.229277	-1.849034	-0.115393	0.789862	0.299738	0.535047	-0.266502	0.953504	-0.140739	-0.552354	-0.031427	0.833017
23039	1.631211	-1.942592	12.209863	-0.180425	-2.265411	-0.232114	0.777755	0.296678	0.554147	-0.263590	0.954282	-0.140949	-0.570628	-0.036444	0.820399
23040	1.452992	-2.507560	12.042565	-0.128019	-2.887656	-0.367571	0.761894	0.291984	0.578155	-0.259975	0.955424	-0.139919	-0.593237	-0.043703	0.803840
23041	2.417196	-3.188744	11.636105	-0.034662	-3.453013	-0.549744	0.742366	0.284991	0.606360	-0.255561	0.957047	-0.136932	-0.619339	-0.053309	0.783312
23042	2.523068	-2.428377	10.511103	0.118844	-3.960962	-0.767851	0.719186	0.275251	0.637972	-0.250662	0.959137	-0.131246	-0.648028	-0.065525	0.758792
23043	4.124159	-2.323746	10.619537	0.277200	-4.594371	-0.905544	0.690914	0.263146	0.673344	-0.246065	0.961388	-0.123229	-0.679772	-0.080546	0.728987
23044	4.772973	-1.727881	11.407262	0.312130	-5.113764	-0.949029	0.657572	0.249448	0.710897	-0.241799	0.963554	-0.114442	-0.713535	-0.096640	0.693922
23045	7.603527	-1.842244	12.489974	0.240657	-5.594585	-0.921021	0.618843	0.234668	0.749643	-0.237633	0.965545	-0.106084	-0.748708	-0.112491	0.653285
23046	11.741189	-3.437878	13.516774	0.095815	-5.813715	-0.857491	0.576290	0.219395	0.787246	-0.233200	0.967388	-0.098888	-0.783267	-0.126598	0.608659
23047	17.394674	-5.322002	15.172175	0.154106	-5.342736	-0.809645	0.535508	0.204415	0.819418	-0.229889	0.968909	-0.091470	-0.812639	-0.139392	0.565851
23048	14.909774	-6.518838	13.972022	0.567003	-4.640696	-0.721185	0.498893	0.190582	0.845449	-0.230790	0.969512	-0.082360	-0.835369	-0.154032	0.527667
23049	11.565921	-3.939222	11.877216	0.978242	-4.320851	-0.691337	0.463989	0.176832	0.868012	-0.235706	0.969194	-0.071450	-0.853907	-0.171443	0.491375
23050	9.767107	-2.400840	11.087581	1.052011	-4.190589	-0.577799	0.429209	0.163652	0.888256	-0.242155	0.968294	-0.061388	-0.870139	-0.188747	0.455229
23051	7.115228	-0.795205	10.393101	0.883204	-4.022119	-0.406405	0.394898	0.151825	0.906093	-0.248225	0.967203	-0.053882	-0.884556	-0.203637	0.419633
23052	3.645334	0.070745	9.120286	0.410410	-4.006115	-0.301338	0.359894	0.140521	0.922351	-0.250708	0.966798	-0.049468	-0.898678	-0.213437	0.383174
23053	0.388149	-1.574143	7.669778	0.050647	-3.907934	-0.190728	0.324979	0.130226	0.936712	-0.250517	0.966945	-0.047516	-0.911937	-0.219221	0.346860
23054	7.637050	-3.196666	6.881279	0.080251	-4.193550	-0.369802	0.287357	0.117294	0.950614	-0.250083	0.967235	-0.043748	-0.924599	-0.225161	0.307275
23055	26.884292	-5.224816	9.887667	0.896505	-2.058387	-0.217729	0.268836	0.110459	0.956831	-0.257803	0.965409	-0.039016	-0.928044	-0.236185	0.288013
23056	12.304271	-4.564546	7.245340	1.156592	0.027516	0.101043	0.268791	0.111463	0.956727	-0.268753	0.962512	-0.036632	-0.924945	-0.247277	0.288671
23057	6.683712	-4.111702	6.301251	1.450972	1.101429	0.332846	0.278016	0.117489	0.953364	-0.283071	0.958439	-0.035566	-0.917920	-0.259982	0.299719
23058	3.382712	-3.050061	4.582788	1.585722	1.489622	0.476332	0.290206	0.125978	0.948636	-0.298873	0.953643	-0.035212	-0.909096	-0.273303	0.314405
23059	-0.427076	-1.739765	3.064291	1.539697	1.232877	0.502399	0.299816	0.134260	0.944502	-0.314343	0.948662	-0.035069	-0.900721	-0.286383	0.326628
23060	-0.853716	-0.795700	1.991080	1.251857	0.675962	0.500369	0.304249	0.140931	0.942110	-0.327054	0.944333	-0.035643	-0.894689	-0.297277	0.333405
23061	0.899509	-0.538039	1.801832	0.919381	0.298292	0.484176	0.305299	0.146456	0.940927	-0.336799	0.940843	-0.037163	-0.890707	-0.305557	0.336565
23062	1.952695	-0.406552	2.496394	0.594246	0.211879	0.471593	0.305550	0.151501	0.940046	-0.343487	0.938323	-0.039578	-0.888063	-0.310801	0.338743
23063	2.339033	-0.986633	3.525692	0.297263	0.230744	0.465031	0.305984	0.156645	0.939061	-0.347610	0.936654	-0.042978	-0.886307	-0.313277	0.341053
23064	3.359675	-1.944679	4.047672	0.140696	0.340980	0.465910	0.307349	0.162038	0.937700	-0.350248	0.935485	-0.046855	-0.884796	-0.314026	0.344273
23065	4.450281	-2.767705	4.216527	0.095839	0.557049	0.462681	0.310639	0.168186	0.935530	-0.352597	0.934390	-0.050903	-0.882711	-0.314052	0.349560
23066	5.140943	-3.067585	4.294954	0.147241	0.880361	0.489732	0.316634	0.175485	0.932174	-0.355392	0.933101	-0.054943	-0.879454	-0.313891	0.357817
23067	4.885724	-3.092725	4.384162	0.220874	1.196475	0.548769	0.325158	0.184444	0.927498	-0.359175	0.931385	-0.059299	-0.874795	-0.313852	0.369095
23068	4.505696	-3.062114	4.376496	0.310618	1.449451	0.617111	0.335536	0.194697	0.921688	-0.363884	0.929255	-0.063825	-0.868910	-0.313972	0.382646
23069	4.160046	-2.870766	4.435766	0.393502	1.656870	0.676740	0.347379	0.206285	0.914754	-0.369696	0.926619	-0.068569	-0.861773	-0.314361	0.398151
23070	4.098623	-2.389923	4.686052	0.444200	1.816523	0.718025	0.360256	0.218603	0.906878	-0.376009	0.923713	-0.073293	-0.853717	-0.314590	0.414970
23071	4.806028	-2.005552	5.295685	0.441328	1.982903	0.739510	0.374273	0.231776	0.897886	-0.382579	0.920610	-0.078168	-0.844721	-0.314256	0.433232
23072	5.769796	-1.766280	5.810196	0.410012	2.231230	0.740629	0.390126	0.245540	0.887419	-0.388815	0.917574	-0.082953	-0.834641	-0.312679	0.453439
23073	6.062645	-1.708891	5.748045	0.402661	2.544373	0.707328	0.408419	0.260071	0.874961	-0.395089	0.914476	-0.087395	-0.822860	-0.309994	0.476241
23074	5.219428	-1.319282	5.216006	0.408189	2.808433	0.619384	0.428852	0.274343	0.860710	-0.400976	0.911580	-0.090770	-0.809508	-0.306197	0.500938
23075	4.247534	-0.686642	4.873305	0.351773	2.884684	0.508451	0.449923	0.287875	0.845398	-0.406151	0.909022	-0.093386	-0.795368	-0.301343	0.525910
23076	4.276319	-0.357885	5.011703	0.209792	2.794947	0.390802	0.470345	0.299722	0.830025	-0.409566	0.907265	-0.095528	-0.781685	-0.295019	0.549484
23077	4.842147	-0.686377	5.371509	0.066018	2.683173	0.291369	0.489917	0.310325	0.814665	-0.411595	0.906121	-0.097641	-0.768486	-0.287477	0.571652
23078	5.646901	-1.483491	5.793130	-0.009839	2.630352	0.227328	0.509001	0.319801	0.799153	-0.412618	0.905450	-0.099531	-0.755424	-0.279083	0.592830
23079	6.006232	-1.990767	6.220166	-0.022696	2.623426	0.210333	0.527739	0.329065	0.783076	-0.413660	0.904765	-0.101423	-0.741874	-0.270402	0.613600
23080	6.526766	-2.180386	6.634202	-0.008808	2.635694	0.241629	0.546086	0.338226	0.766416	-0.414854	0.903999	-0.103351	-0.727796	-0.261513	0.633975
23081	7.138160	-1.943765	7.295700	-0.037725	2.674824	0.307570	0.564039	0.348034	0.748820	-0.416416	0.902972	-0.106020	-0.713062	-0.252021	0.654238
23082	8.020506	-1.485396	7.842998	-0.104324	2.780934	0.396443	0.581981	0.358437	0.729945	-0.417914	0.901846	-0.109648	-0.697600	-0.241241	0.674653
23083	8.370635	-1.337219	8.148982	-0.197231	2.965527	0.469639	0.600412	0.369804	0.709049	-0.419459	0.900527	-0.114478	-0.680852	-0.228683	0.695805
23084	8.227144	-1.120625	8.253564	-0.251968	3.146173	0.513294	0.619374	0.381364	0.686248	-0.420859	0.899175	-0.119846	-0.662762	-0.214584	0.717426
23085	7.822402	-0.792319	8.029242	-0.289655	3.269369	0.541641	0.638396	0.393163	0.661720	-0.422500	0.897603	-0.125706	-0.643386	-0.199326	0.739137
23086	7.459527	-0.220899	7.762345	-0.318798	3.307346	0.542182	0.657033	0.404323	0.636263	-0.423955	0.896068	-0.131624	-0.623353	-0.183265	0.760161
23087	7.163040	0.224920	7.954303	-0.383202	3.231680	0.510852	0.674638	0.414711	0.610637	-0.425128	0.894573	-0.137859	-0.603431	-0.166594	0.779819
23088	7.612425	0.069828	8.355123	-0.453342	3.114213	0.432156	0.691278	0.423468	0.585499	-0.425351	0.893494	-0.144031	-0.584133	-0.149477	0.797776
23089	8.024452	-0.097215	8.720033	-0.442898	3.036156	0.318815	0.707314	0.430748	0.560503	-0.425151	0.892687	-0.149523	-0.564760	-0.132538	0.814543
23090	8.244640	-0.098574	9.044737	-0.421090	2.959194	0.187162	0.722933	0.436068	0.535922	-0.424115	0.892414	-0.154026	-0.545430	-0.115942	0.830098
23091	8.900938	0.016155	9.770284	-0.418199	2.875529	0.049751	0.738081	0.439751	0.511718	-0.422344	0.892580	-0.157879	-0.526177	-0.099594	0.844523
23092	10.071105	0.021932	10.474030	-0.450873	2.854022	-0.061349	0.753069	0.441783	0.487560	-0.419522	0.893276	-0.161427	-0.506841	-0.082976	0.858037
23093	10.719546	-0.583542	10.761760	-0.482883	2.909174	-0.136891	0.768049	0.442847	0.462588	-0.416176	0.894182	-0.165034	-0.486723	-0.065763	0.871078
23094	10.931747	-1.231351	10.759981	-0.449117	2.979339	-0.181008	0.782975	0.442906	0.436789	-0.412598	0.895253	-0.168179	-0.465525	-0.048538	0.883703
23095	10.540549	-1.597225	10.419652	-0.376565	3.010828	-0.188468	0.797390	0.442534	0.410283	-0.409478	0.896187	-0.170808	-0.443279	-0.031801	0.895819
23096	10.011683	-1.304426	10.005440	-0.311641	2.947658	-0.162438	0.810782	0.441759	0.384034	-0.406791	0.896992	-0.172993	-0.420896	-0.015962	0.906968
23097	9.743652	-0.720462	9.375459	-0.283518	2.815712	-0.116737	0.822763	0.441041	0.358531	-0.404744	0.897486	-0.175216	-0.399054	-0.000952	0.916927
23098	9.205326	-0.081639	8.535470	-0.292120	2.621165	-0.087828	0.833302	0.440070	0.334583	-0.402847	0.897866	-0.177625	-0.378578	0.013230	0.925475
23099	8.881680	0.265770	7.723307	-0.305814	2.318984	-0.121572	0.842328	0.438593	0.313240	-0.400752	0.898304	-0.180135	-0.360391	0.026201	0.932433
23100	9.014517	0.344337	7.131749	-0.269473	1.955164	-0.243447	0.850190	0.435765	0.295441	-0.397709	0.899292	-0.181938	-0.344970	0.037183	0.937877
23101	9.341806	0.216919	6.512157	-0.180225	1.591016	-0.425910	0.857238	0.431322	0.281256	-0.393497	0.901038	-0.182457	-0.332120	0.045735	0.942128
23102	9.842029	0.359447	6.120984	-0.068028	1.244940	-0.640630	0.863805	0.424915	0.270717	-0.387730	0.903756	-0.181356	-0.321723	0.051691	0.945422
23103	8.413252	-2.575719	6.225654	0.118940	0.837186	-0.885896	0.869854	0.416477	0.264389	-0.380444	0.907531	-0.177901	-0.314033	0.054163	0.947866
23104	12.654427	2.645200	2.569388	0.363445	-0.004673	-1.100494	0.873975	0.406446	0.266402	-0.371956	0.912259	-0.171560	-0.312757	0.050849	0.948471
23105	12.844951	-0.312826	4.577280	0.610547	-0.154060	-1.226488	0.877993	0.395304	0.269932	-0.363113	0.917464	-0.162508	-0.311893	0.044665	0.949067
23106	14.456043	0.456849	3.614164	0.434807	-0.373700	-1.188481	0.881081	0.384507	0.275410	-0.353988	0.922288	-0.155167	-0.313671	0.039223	0.948721
23107	13.069616	-0.424798	3.122658	0.495439	-0.544184	-1.053289	0.883052	0.374942	0.282202	-0.346227	0.926475	-0.147549	-0.316775	0.032587	0.947941
23108	12.486551	-1.297290	2.583960	0.562304	-0.894832	-0.830994	0.883039	0.367461	0.291915	-0.340654	0.929727	-0.139863	-0.322796	0.024062	0.946163
23109	9.169195	-1.595785	4.392234	0.814203	-1.125322	-0.492926	0.881043	0.363031	0.303267	-0.338910	0.931695	-0.130707	-0.330003	0.012379	0.943899
23110	6.416204	1.744120	11.690314	0.602996	-1.219932	-0.059681	0.877161	0.362542	0.314884	-0.340369	0.931964	-0.124864	-0.338729	0.002349	0.940881
23111	5.827984	-0.437102	9.818635	-0.048697	-0.950536	0.526115	0.872104	0.367385	0.323207	-0.344737	0.930069	-0.126998	-0.347262	-0.000666	0.937768
23112	-1.242779	-2.869798	8.925121	0.203683	-1.147203	0.678989	0.865697	0.373626	0.333125	-0.351321	0.927554	-0.127344	-0.356571	-0.006793	0.934244
23113	-0.272838	-1.156698	9.539020	0.341023	-1.394177	0.656440	0.858326	0.379494	0.345343	-0.358150	0.925070	-0.126391	-0.367431	-0.015200	0.929927
23114	-0.082280	-0.104045	8.867829	0.249069	-1.598567	0.555688	0.850336	0.384295	0.359508	-0.363796	0.922909	-0.126063	-0.380238	-0.023592	0.924588
23115	-0.238623	1.414014	7.567725	0.232007	-1.840818	0.268551	0.842222	0.386197	0.376183	-0.366908	0.921832	-0.124913	-0.395019	-0.032820	0.918087
23116	0.468148	0.314716	8.916995	0.156449	-2.158731	-0.100435	0.833865	0.384433	0.396082	-0.366664	0.922171	-0.123117	-0.412585	-0.042566	0.909924
23117	22.755694	-4.494103	17.935072	1.215185	-3.143142	-0.740884	0.823271	0.375831	0.425411	-0.365611	0.924354	-0.109081	-0.434227	-0.065731	0.898402
23118	21.935518	0.404828	15.524647	0.269144	0.920197	0.045752	0.827051	0.376829	0.417117	-0.367111	0.924017	-0.106870	-0.425696	-0.064741	0.902547
23119	-11.715902	-1.442659	1.629665	0.863371	-0.409454	-0.138623	0.825825	0.375175	0.421018	-0.369556	0.923975	-0.098484	-0.425959	-0.074259	0.901690
23120	13.279016	-6.397808	15.828317	0.654561	-1.591866	-0.167416	0.819570	0.372324	0.435523	-0.370967	0.924087	-0.091905	-0.436680	-0.086243	0.895474
23121	5.277296	5.897904	10.117615	0.796913	0.770259	-0.158727	0.823490	0.371469	0.428807	-0.373036	0.924001	-0.084061	-0.427444	-0.090737	0.899477
23122	8.862074	2.201408	12.171390	-0.180338	-0.776002	0.083421	0.819825	0.371504	0.435743	-0.372910	0.923868	-0.086060	-0.434541	-0.091939	0.895947
23123	1.579753	-1.826938	9.212592	0.059690	0.161825	0.018137	0.820468	0.371726	0.434340	-0.373229	0.923783	-0.085582	-0.433050	-0.091891	0.896674
23124	5.758371	-0.599094	9.001891	-0.028113	0.006947	0.003433	0.820476	0.371737	0.434316	-0.373101	0.923809	-0.085869	-0.433146	-0.091590	0.896658
23125	5.170913	-0.165540	8.966596	-0.087126	-0.097771	0.002583	0.820051	0.371581	0.435252	-0.372658	0.923915	-0.086642	-0.434330	-0.091150	0.896130
23126	5.351127	0.035254	8.888164	-0.030433	-0.045114	0.037063	0.819707	0.371856	0.435665	-0.372795	0.923817	-0.087095	-0.434861	-0.091021	0.895885
23127	5.020575	-0.213398	9.018961	-0.036192	-0.003049	0.065776	0.819458	0.372365	0.435698	-0.373087	0.923644	-0.087684	-0.435080	-0.090700	0.895812
23128	4.904450	-0.675360	9.180872	-0.053719	-0.010540	0.085279	0.819084	0.373117	0.435758	-0.373517	0.923387	-0.088556	-0.435415	-0.090228	0.895697
23129	4.883326	-1.038991	9.232471	-0.040985	-0.005606	0.082169	0.818763	0.373773	0.435799	-0.373920	0.923156	-0.089257	-0.435673	-0.089874	0.895607
23130	4.604410	-1.001866	9.245594	-0.031756	-0.008800	0.067205	0.818464	0.374358	0.435859	-0.374297	0.922945	-0.089854	-0.435912	-0.089599	0.895518
23131	4.610645	-1.053814	9.306138	-0.018340	-0.003278	0.055567	0.818251	0.374771	0.435903	-0.374581	0.922793	-0.090237	-0.436066	-0.089444	0.895459
23132	4.583457	-1.143922	9.291304	-0.019158	-0.009781	0.046836	0.818024	0.375168	0.435989	-0.374846	0.922646	-0.090632	-0.436266	-0.089289	0.895377
23133	4.435762	-1.206843	9.260677	-0.024071	-0.002685	0.037623	0.817881	0.375417	0.436043	-0.374959	0.922565	-0.090990	-0.436437	-0.089079	0.895314
23134	4.565167	-1.241934	9.203108	-0.019643	-0.015993	0.033852	0.817674	0.375688	0.436196	-0.375115	0.922468	-0.091332	-0.436690	-0.088944	0.895205
23135	4.518730	-1.127268	9.083042	-0.024745	-0.002918	0.027575	0.817567	0.375846	0.436261	-0.375144	0.922425	-0.091653	-0.436865	-0.088728	0.895140
23136	4.467490	-0.983138	9.084217	-0.029390	0.001167	0.024049	0.817472	0.376042	0.436269	-0.375177	0.922372	-0.092040	-0.437014	-0.088438	0.895096
23137	4.502259	-0.841979	9.103913	-0.027778	-0.001047	0.031299	0.817359	0.376237	0.436313	-0.375224	0.922317	-0.092405	-0.437185	-0.088187	0.895037
23138	4.447123	-0.785419	9.175593	-0.033040	-0.002199	0.039793	0.817191	0.376575	0.436337	-0.375369	0.922209	-0.092893	-0.437375	-0.087876	0.894975
23139	4.425140	-0.681730	9.231562	-0.030979	-0.013415	0.049797	0.816954	0.376930	0.436475	-0.375553	0.922086	-0.093367	-0.437660	-0.087642	0.894859
23140	4.469095	-0.777272	9.274021	-0.027877	-0.012359	0.054731	0.816685	0.377397	0.436575	-0.375843	0.921916	-0.093875	-0.437914	-0.087417	0.894757
23141	4.524069	-0.896599	9.228711	-0.035713	-0.016458	0.053683	0.816420	0.377785	0.436735	-0.376037	0.921783	-0.094408	-0.438241	-0.087152	0.894623
23142	4.567953	-0.992667	9.270921	-0.030376	-0.012377	0.053845	0.816153	0.378243	0.436836	-0.376308	0.921618	-0.094934	-0.438504	-0.086904	0.894518
23143	4.494871	-1.090334	9.176831	-0.031976	-0.006369	0.049181	0.815949	0.378598	0.436910	-0.376482	0.921497	-0.095414	-0.438735	-0.086635	0.894431
23144	4.481384	-1.232904	9.149980	-0.038694	0.000963	0.049134	0.815759	0.379025	0.436895	-0.376678	0.921357	-0.095994	-0.438921	-0.086261	0.894376
23145	4.405166	-1.258515	9.240254	-0.063437	0.002610	0.042169	0.815620	0.379325	0.436895	-0.376657	0.921289	-0.096726	-0.439197	-0.085668	0.894297
23146	4.447567	-1.179112	9.214868	-0.078878	0.004045	0.028802	0.815520	0.379567	0.436872	-0.376510	0.921260	-0.097576	-0.439509	-0.084911	0.894216
23147	4.333462	-1.091830	9.309997	-0.100101	-0.006052	0.026950	0.815400	0.379720	0.436962	-0.376204	0.921279	-0.098570	-0.439993	-0.084013	0.894063
23148	4.421147	-1.053158	9.299243	-0.119703	-0.014174	0.016332	0.815266	0.379832	0.437114	-0.375775	0.921329	-0.099731	-0.440607	-0.082949	0.893860
23149	4.469781	-1.006541	9.348329	-0.141970	-0.028574	0.006125	0.815125	0.379777	0.437426	-0.375115	0.921459	-0.101008	-0.441430	-0.081750	0.893564
23150	4.464728	-1.016506	9.221218	-0.142906	-0.038436	0.007377	0.814917	0.379787	0.437803	-0.374508	0.921559	-0.102336	-0.442327	-0.080565	0.893228
23151	4.639515	-1.026669	9.163554	-0.130074	-0.046640	0.008654	0.814686	0.379742	0.438273	-0.373919	0.921666	-0.103518	-0.443251	-0.079544	0.892861
23152	4.552978	-0.996775	9.172172	-0.112504	-0.051784	0.006035	0.814424	0.379730	0.438770	-0.373433	0.921745	-0.104567	-0.444141	-0.078689	0.892494
23153	4.597516	-1.079014	9.226366	-0.099700	-0.039284	0.008046	0.814226	0.379686	0.439175	-0.372972	0.921828	-0.105475	-0.444891	-0.077919	0.892189
23154	4.561252	-1.141364	9.205183	-0.088241	-0.039808	0.006799	0.814014	0.379691	0.439564	-0.372599	0.921883	-0.106310	-0.445592	-0.077243	0.891898
23155	4.553775	-1.064024	9.172506	-0.088722	-0.038366	-0.001048	0.813853	0.379565	0.439969	-0.372111	0.921991	-0.107079	-0.446291	-0.076570	0.891606
23156	4.485677	-1.057251	9.218330	-0.083564	-0.044348	-0.002189	0.813654	0.379484	0.440408	-0.371684	0.922075	-0.107833	-0.447011	-0.075954	0.891298
23157	4.495099	-0.853391	9.303817	-0.099715	-0.076099	0.003123	0.813308	0.379369	0.441145	-0.371180	0.922174	-0.108718	-0.448057	-0.075323	0.890826
23158	4.505231	-1.069781	9.243523	-0.102745	-0.074294	0.006944	0.812939	0.379351	0.441841	-0.370740	0.922237	-0.109683	-0.449090	-0.074643	0.890363
23159	4.498324	-1.029118	9.251275	-0.119441	-0.087685	0.002641	0.812541	0.379224	0.442680	-0.370141	0.922351	-0.110740	-0.450302	-0.073873	0.889815
23160	4.542220	-1.011404	9.215572	-0.120954	-0.103291	0.003347	0.812053	0.379152	0.443637	-0.369587	0.922440	-0.111849	-0.451636	-0.073135	0.889200
23161	4.611039	-1.058575	9.184486	-0.126682	-0.111582	0.005009	0.811536	0.379031	0.444685	-0.368972	0.922548	-0.112980	-0.453066	-0.072389	0.888533
23162	4.593689	-1.102243	9.135541	-0.121856	-0.105708	0.009888	0.811010	0.379020	0.445654	-0.368463	0.922611	-0.114125	-0.454420	-0.071651	0.887901
23163	4.604779	-1.185710	9.140545	-0.109773	-0.105213	0.012620	0.810491	0.378975	0.446635	-0.367983	0.922676	-0.115138	-0.455734	-0.071036	0.887277
23164	4.586935	-1.227420	9.091845	-0.092903	-0.106316	0.014899	0.809940	0.379011	0.447602	-0.367644	0.922698	-0.116047	-0.456984	-0.070568	0.886671
23165	4.631460	-1.206770	9.055673	-0.076980	-0.108786	0.017414	0.809384	0.379010	0.448608	-0.367350	0.922721	-0.116790	-0.458204	-0.070269	0.886065
23166	4.652506	-1.246343	9.052425	-0.065506	-0.097037	0.017794	0.808863	0.379079	0.449488	-0.367158	0.922712	-0.117468	-0.459277	-0.070018	0.885529
23167	4.697711	-1.242494	9.001680	-0.061128	-0.085841	0.017317	0.808410	0.379094	0.450289	-0.366934	0.922723	-0.118070	-0.460252	-0.069778	0.885042
23168	4.672473	-1.296418	9.011708	-0.056002	-0.083341	0.015243	0.807960	0.379150	0.451050	-0.366764	0.922717	-0.118652	-0.461178	-0.069562	0.884577
23169	4.674988	-1.264428	9.038323	-0.050294	-0.075109	0.013687	0.807568	0.379140	0.451759	-0.366560	0.922734	-0.119142	-0.462025	-0.069382	0.884149
23170	4.651996	-1.228378	8.981084	-0.041126	-0.065497	0.012728	0.807208	0.379186	0.452364	-0.366437	0.922727	-0.119581	-0.462752	-0.069236	0.883780
23171	4.653293	-1.195208	9.008604	-0.039761	-0.064717	0.014289	0.806861	0.379189	0.452980	-0.366286	0.922734	-0.119981	-0.463476	-0.069113	0.883410
23172	4.668697	-1.213072	9.022881	-0.039766	-0.064731	0.014313	0.806498	0.379250	0.453576	-0.366181	0.922720	-0.120414	-0.464191	-0.068977	0.883045
23173	4.646398	-1.248789	8.976951	-0.036678	-0.059019	0.015732	0.806170	0.379271	0.454139	-0.366057	0.922720	-0.120793	-0.464857	-0.068861	0.882704
23174	4.646799	-1.269129	9.030963	-0.036314	-0.063386	0.014959	0.805810	0.379339	0.454722	-0.365972	0.922700	-0.121200	-0.465548	-0.068752	0.882348
23175	4.788611	-1.324879	8.878989	-0.034963	-0.054110	0.015632	0.805505	0.379363	0.455241	-0.365854	0.922699	-0.121563	-0.466167	-0.068632	0.882030
23176	4.733519	-1.346687	8.928439	-0.028895	-0.041711	0.012355	0.805255	0.379422	0.455636	-0.365783	0.922684	-0.121892	-0.466656	-0.068509	0.881781
23177	4.758661	-1.341624	8.920206	-0.019128	-0.026340	0.011868	0.805092	0.379432	0.455914	-0.365709	0.922686	-0.122099	-0.466994	-0.068431	0.881609
23178	4.640265	-1.361872	9.038762	-0.019494	-0.021986	0.012666	0.804932	0.379507	0.456134	-0.365683	0.922663	-0.122347	-0.467289	-0.068320	0.881461
23179	4.653666	-1.316881	9.134964	-0.022646	-0.031490	0.008682	0.804757	0.379484	0.456462	-0.365568	0.922679	-0.122571	-0.467681	-0.068228	0.881260
23180	4.675372	-1.220575	9.131742	-0.027117	-0.038016	0.005766	0.804547	0.379485	0.456831	-0.365451	0.922688	-0.122854	-0.468134	-0.068108	0.881029
23181	4.624576	-1.092024	9.193940	-0.033442	-0.043531	0.005993	0.804325	0.379430	0.457268	-0.365263	0.922721	-0.123161	-0.468662	-0.067962	0.880760
23182	4.573085	-1.079087	9.201577	-0.043389	-0.065247	0.007799	0.803980	0.379431	0.457874	-0.365086	0.922733	-0.123596	-0.469392	-0.067794	0.880384
23183	4.615813	-1.127325	9.177862	-0.056575	-0.078254	0.010349	0.803578	0.379393	0.458610	-0.364824	0.922765	-0.124127	-0.470283	-0.067567	0.879926
23184	4.599456	-1.122740	9.195063	-0.069222	-0.097812	0.011732	0.803064	0.379408	0.459498	-0.364556	0.922780	-0.124807	-0.471368	-0.067285	0.879366
23185	4.728522	-1.245091	8.999260	-0.077707	-0.107719	0.010372	0.802521	0.379351	0.460492	-0.364194	0.922826	-0.125523	-0.472571	-0.066973	0.878744
23186	4.683363	-1.308409	9.014243	-0.077406	-0.110910	0.016125	0.801926	0.379399	0.461487	-0.363920	0.922828	-0.126294	-0.473789	-0.066666	0.878111
23187	4.753751	-1.370396	8.965610	-0.086396	-0.115501	0.009510	0.801347	0.379330	0.462549	-0.363508	0.922883	-0.127082	-0.475084	-0.066303	0.877439
23188	4.745673	-1.344515	9.029986	-0.090057	-0.114748	0.009413	0.800756	0.379315	0.463585	-0.363118	0.922918	-0.127933	-0.476377	-0.065893	0.876768
23189	4.641282	-1.275763	9.182927	-0.092900	-0.120157	0.003852	0.800171	0.379192	0.464692	-0.362628	0.922998	-0.128750	-0.477731	-0.065488	0.876062
23190	4.552540	-1.233563	9.443424	-0.103200	-0.147351	0.001022	0.799451	0.379079	0.466023	-0.362105	0.923073	-0.129676	-0.479330	-0.065080	0.875218
23191	4.400401	-1.115295	9.564194	-0.126093	-0.198936	0.003174	0.798487	0.378900	0.467818	-0.361447	0.923175	-0.130779	-0.481430	-0.064666	0.874096
23192	4.294022	-0.903159	9.839163	-0.143151	-0.275058	-0.002998	0.797158	0.378669	0.470265	-0.360695	0.923291	-0.132032	-0.484188	-0.064372	0.872593
23193	4.152029	-0.867412	9.931458	-0.178586	-0.382904	0.004267	0.795284	0.378384	0.473655	-0.359784	0.923422	-0.133594	-0.487933	-0.064169	0.870519
23194	4.139673	-0.815837	9.897843	-0.204907	-0.499683	0.006223	0.792800	0.378094	0.478031	-0.358792	0.923542	-0.135421	-0.492684	-0.064152	0.867841
23195	4.079750	-0.810117	9.790771	-0.229775	-0.634307	0.018321	0.789593	0.377777	0.483557	-0.357721	0.923652	-0.137483	-0.498577	-0.064423	0.864448
23196	4.100471	-0.813556	9.805935	-0.251773	-0.759066	0.029200	0.785665	0.377529	0.490104	-0.356650	0.923717	-0.139813	-0.505501	-0.064949	0.860378
23197	4.154109	-0.998813	9.761379	-0.286895	-0.903427	0.036963	0.780932	0.377203	0.497858	-0.355401	0.923797	-0.142440	-0.513649	-0.065704	0.855481
23198	4.023870	-1.125681	9.920677	-0.312549	-1.034425	0.038886	0.775420	0.376850	0.506663	-0.354046	0.923869	-0.145315	-0.522853	-0.066702	0.849809
23199	3.646397	-0.946593	10.262071	-0.343128	-1.217276	0.034127	0.768872	0.376269	0.516970	-0.352422	0.924004	-0.148376	-0.533512	-0.068109	0.843046
23200	3.576803	-0.822808	10.489676	-0.442811	-1.464459	0.029627	0.760847	0.375508	0.529251	-0.350220	0.924209	-0.152260	-0.546314	-0.069508	0.834692
23201	3.293179	-0.765572	10.507963	-0.545680	-1.745788	0.032095	0.751066	0.374503	0.543735	-0.347367	0.924503	-0.156940	-0.561459	-0.071003	0.824453
23202	3.138037	-0.851041	10.713215	-0.610622	-2.074067	0.003350	0.739211	0.373012	0.560740	-0.343871	0.924943	-0.161968	-0.579069	-0.073094	0.811996
23203	2.568744	-1.415391	11.252922	-0.594441	-2.488402	-0.046190	0.724707	0.370647	0.580880	-0.339959	0.925590	-0.166465	-0.599356	-0.076837	0.796786
23204	2.725495	-1.252977	11.471037	-0.553507	-2.983798	-0.079805	0.706727	0.367500	0.604551	-0.335967	0.926339	-0.170362	-0.622626	-0.082710	0.778136
23205	3.022218	-1.657566	11.171593	-0.527618	-3.491300	-0.126637	0.684953	0.363235	0.631585	-0.331667	0.927286	-0.173604	-0.648719	-0.090565	0.755620
23206	2.977370	-1.600930	10.583701	-0.490724	-4.009220	-0.148177	0.658836	0.358002	0.661642	-0.327378	0.928301	-0.176296	-0.677317	-0.100456	0.728800
23207	4.331393	-1.371035	10.375220	-0.479141	-4.586026	-0.113753	0.627424	0.352007	0.694572	-0.323268	0.929239	-0.178919	-0.708404	-0.112275	0.696820
23208	5.454171	-1.150276	10.673845	-0.515568	-5.049236	-0.031982	0.590908	0.345686	0.728923	-0.319297	0.929976	-0.182194	-0.740863	-0.125083	0.659906
23209	6.859441	-1.307508	10.903484	-0.607208	-5.469841	0.080748	0.549209	0.339181	0.763758	-0.315104	0.930522	-0.186652	-0.774002	-0.138152	0.617928
23210	10.811986	-1.327377	11.794919	-0.768959	-5.566460	0.201935	0.504571	0.333016	0.796560	-0.310053	0.930963	-0.192807	-0.805776	-0.149691	0.572990
23211	14.607912	-1.321989	12.478473	-0.846639	-5.335710	0.308815	0.459860	0.327588	0.825357	-0.304548	0.931275	-0.199943	-0.834133	-0.159415	0.528023
23212	16.627650	-1.284339	11.999850	-1.100547	-4.730376	0.438311	0.418477	0.323976	0.848479	-0.297119	0.931644	-0.209189	-0.858252	-0.164559	0.486131
23213	12.651186	-2.616012	9.471183	-1.240357	-4.312308	0.530346	0.379460	0.321707	0.867476	-0.288405	0.932014	-0.219483	-0.879109	-0.166900	0.446444
23214	11.142063	-4.112785	9.619193	-1.089188	-4.205781	0.417703	0.340878	0.318480	0.884518	-0.280195	0.932526	-0.227783	-0.897381	-0.170191	0.407114
23215	9.748325	-4.831304	9.852945	-0.613990	-4.058774	0.284370	0.303363	0.314021	0.899645	-0.275508	0.932718	-0.232663	-0.912177	-0.177278	0.369467
23216	7.928572	-4.205612	9.529204	-0.072113	-3.968009	0.204480	0.266338	0.308629	0.913133	-0.275390	0.932228	-0.234758	-0.923701	-0.188943	0.333281
23217	5.164880	-3.864543	9.418030	0.321497	-3.885360	0.219689	0.229670	0.302999	0.924902	-0.278888	0.930943	-0.235725	-0.932456	-0.203805	0.298312
23218	1.963478	-2.837077	8.487581	0.323658	-3.906915	0.240068	0.192384	0.296948	0.935313	-0.282388	0.929554	-0.237035	-0.939811	-0.218519	0.262686
23219	-4.207114	-1.566374	7.366133	0.400622	-3.911526	0.093716	0.155249	0.288940	0.944675	-0.286315	0.928386	-0.236904	-0.945474	-0.233695	0.226858
23220	14.061714	-1.274876	9.290018	0.185645	-3.785533	-1.158417	0.122647	0.269053	0.955284	-0.286429	0.931188	-0.225492	-0.950219	-0.245966	0.191272
23221	17.405862	0.490342	11.249157	1.379222	-1.552997	-1.531675	0.112394	0.250807	0.961490	-0.297718	0.931668	-0.208226	-0.948014	-0.262850	0.179384
23222	8.375348	-1.337681	11.428625	1.370632	0.374963	-1.620495	0.120822	0.236678	0.964046	-0.308757	0.931950	-0.190102	-0.943436	-0.274688	0.185676
23223	7.509838	-1.821168	11.768561	1.531635	1.691215	-1.747051	0.142245	0.225104	0.963896	-0.320858	0.931703	-0.170236	-0.936385	-0.285058	0.204756
23224	4.588078	-2.513084	9.987520	1.468469	2.617877	-1.759565	0.172354	0.216241	0.961007	-0.331741	0.931357	-0.150072	-0.927492	-0.292940	0.232260
23225	1.036180	-3.225972	7.683531	1.413383	2.986719	-1.752718	0.205838	0.208760	0.956060	-0.341479	0.930891	-0.129745	-0.917073	-0.299767	0.262900
23226	-1.000037	-3.613126	6.054415	1.326399	2.938648	-1.753225	0.238656	0.201306	0.950010	-0.349637	0.930484	-0.109335	-0.905978	-0.306066	0.292450
23227	-0.981404	-3.660972	5.385244	1.191429	2.690068	-1.724868	0.269005	0.193581	0.943485	-0.356018	0.930198	-0.089347	-0.894923	-0.311863	0.319146
23228	0.041766	-3.687860	5.205109	0.993323	2.471752	-1.622968	0.296780	0.186210	0.936615	-0.360227	0.930175	-0.070786	-0.884397	-0.316386	0.343135
23229	0.978568	-3.786311	5.456301	0.725414	2.308211	-1.448646	0.322353	0.180099	0.929329	-0.362167	0.930507	-0.054703	-0.874599	-0.318938	0.365178
23230	2.283200	-3.924314	6.173083	0.428902	2.204531	-1.200401	0.345855	0.175917	0.921649	-0.361851	0.931291	-0.041971	-0.865707	-0.318984	0.385747
23231	3.894210	-4.696325	6.916202	0.149517	2.216635	-0.888156	0.368195	0.174743	0.913180	-0.360026	0.932350	-0.033248	-0.857213	-0.316527	0.406199
23232	5.457776	-5.800915	7.417743	-0.006965	2.367492	-0.546115	0.390318	0.177054	0.903495	-0.357857	0.933347	-0.028306	-0.848287	-0.312274	0.427662
23233	6.929139	-6.576660	7.607847	-0.048460	2.626709	-0.192328	0.413187	0.183481	0.891970	-0.356753	0.933813	-0.026830	-0.837856	-0.307128	0.451297
23234	7.771696	-6.592484	7.388854	0.046470	2.936165	0.181461	0.436930	0.194081	0.878308	-0.357872	0.933344	-0.028213	-0.825239	-0.301995	0.477262
23235	7.366004	-6.096166	6.974439	0.156014	3.175349	0.548763	0.460953	0.208831	0.862503	-0.361711	0.931731	-0.032281	-0.810362	-0.297097	0.505021
23236	6.675090	-5.504022	6.632191	0.253025	3.267819	0.854348	0.484028	0.226376	0.845264	-0.367739	0.929142	-0.038259	-0.794030	-0.292318	0.532978
23237	6.498751	-4.689089	6.508973	0.328749	3.259293	1.049453	0.505743	0.245711	0.826953	-0.375632	0.925660	-0.045313	-0.776611	-0.287714	0.560443
23238	6.738467	-4.008776	6.527714	0.352276	3.239726	1.122776	0.526324	0.265287	0.807840	-0.384092	0.921803	-0.052468	-0.758588	-0.282670	0.587062
23239	6.890063	-2.872236	6.408920	0.353091	3.278659	1.101473	0.546613	0.284761	0.787481	-0.392776	0.917725	-0.059222	-0.739555	-0.276932	0.613487
23240	6.576739	-1.979453	6.347962	0.238976	3.292724	1.011499	0.566618	0.302987	0.766253	-0.400113	0.914116	-0.065584	-0.720315	-0.269426	0.639183
23241	6.407897	-1.303760	6.461122	0.059943	3.245000	0.859729	0.586217	0.319599	0.744450	-0.405629	0.911215	-0.071781	-0.701295	-0.259892	0.663808
23242	6.408006	-1.290649	6.564407	-0.140988	3.176275	0.667693	0.605465	0.333714	0.722528	-0.408593	0.909409	-0.077635	-0.682981	-0.248215	0.686968
23243	6.443106	-1.486469	6.866000	-0.308690	3.105186	0.445038	0.624563	0.345440	0.700422	-0.409386	0.908574	-0.083051	-0.665074	-0.234872	0.708880
23244	7.148766	-1.929676	7.141123	-0.413600	3.066811	0.194882	0.643875	0.354160	0.678230	-0.407870	0.908850	-0.087376	-0.647354	-0.220370	0.729637
23245	7.920301	-1.968374	7.614213	-0.480905	3.108955	-0.046896	0.663887	0.360528	0.655190	-0.404632	0.909969	-0.090721	-0.628909	-0.204882	0.749998
23246	8.910452	-1.908474	8.164140	-0.565062	3.208422	-0.278896	0.684861	0.364260	0.631094	-0.399214	0.912106	-0.093231	-0.609585	-0.188091	0.770083
23247	9.958849	-1.815745	8.440698	-0.685246	3.381420	-0.467228	0.706947	0.366222	0.605069	-0.391994	0.914967	-0.095794	-0.588700	-0.169462	0.790389
23248	10.152912	-1.965396	8.256262	-0.810462	3.586677	-0.590325	0.729931	0.366489	0.576963	-0.383035	0.918434	-0.098806	-0.566114	-0.148875	0.810772
23249	9.857136	-2.285001	7.897691	-0.917237	3.740079	-0.666124	0.753142	0.365694	0.546850	-0.373148	0.922070	-0.102701	-0.541791	-0.126708	0.830908
23250	9.300549	-2.519972	7.337452	-1.021394	3.811796	-0.680445	0.775803	0.363764	0.515563	-0.362504	0.925740	-0.107686	-0.516450	-0.103350	0.850058
23251	8.577750	-2.554775	6.862974	-1.094498	3.789273	-0.631596	0.797107	0.361547	0.483636	-0.352158	0.928966	-0.114046	-0.490514	-0.079409	0.867808
23252	8.050841	-2.272151	6.772827	-1.185737	3.646922	-0.522351	0.816340	0.359116	0.452356	-0.342241	0.931658	-0.122003	-0.465254	-0.055219	0.883453
23253	8.078393	-1.925741	6.954206	-1.297565	3.439537	-0.395513	0.833229	0.357079	0.422165	-0.333229	0.933568	-0.131943	-0.441234	-0.030738	0.896865
23254	8.336406	-1.746431	7.171082	-1.383849	3.228150	-0.296986	0.848077	0.354878	0.393480	-0.324746	0.934891	-0.143242	-0.418694	-0.006300	0.908105
23255	8.720620	-1.370427	7.639937	-1.481688	3.013243	-0.242843	0.861118	0.352592	0.366272	-0.316750	0.935599	-0.155965	-0.397675	0.018287	0.917344
23256	9.641973	-0.657944	8.304218	-1.589313	2.820584	-0.223443	0.872751	0.349613	0.340699	-0.308612	0.935903	-0.169836	-0.378238	0.043081	0.924705
23257	10.866090	-0.131617	8.763561	-1.704787	2.702487	-0.227876	0.883378	0.346124	0.315976	-0.300438	0.935684	-0.185020	-0.359694	0.068511	0.930552
23258	11.473548	0.289843	8.837910	-1.798906	2.663838	-0.258831	0.893476	0.341512	0.291669	-0.291799	0.935113	-0.201040	-0.341401	0.094515	0.935154
23259	11.615461	0.659561	8.457096	-1.844331	2.623404	-0.313726	0.903059	0.335885	0.267703	-0.282953	0.934136	-0.217550	-0.323143	0.120713	0.938620
23260	11.502053	1.043421	7.717151	-1.830477	2.526778	-0.393470	0.912089	0.328822	0.244889	-0.273596	0.933004	-0.233771	-0.305351	0.146219	0.940947
23261	11.005009	1.516600	6.824481	-1.765451	2.318123	-0.493360	0.920273	0.320656	0.224227	-0.263910	0.931765	-0.249331	-0.288877	0.170277	0.942102
23262	10.627878	1.524252	5.812577	-1.644331	1.993593	-0.626942	0.927507	0.311192	0.207099	-0.253451	0.930769	-0.263498	-0.274759	0.191907	0.942167
23263	10.638732	1.276301	5.005783	-1.437075	1.579891	-0.747965	0.933593	0.301133	0.194226	-0.242678	0.930132	-0.275613	-0.263652	0.210176	0.941442
23264	10.785121	0.230895	4.307169	-1.098237	1.106997	-0.826608	0.938425	0.291029	0.186171	-0.232056	0.930197	-0.284401	-0.255945	0.223687	0.940455
23265	10.953144	-0.882349	3.790205	-0.599932	0.628826	-0.851500	0.941938	0.281730	0.182706	-0.222563	0.931241	-0.288541	-0.251434	0.231124	0.939874
23266	10.896889	-1.767372	3.356841	-0.039525	0.160477	-0.804830	0.944095	0.273842	0.183563	-0.214843	0.933384	-0.287465	-0.250055	0.231957	0.940036
23267	10.740322	-1.639665	3.061410	0.501390	-0.295042	-0.705010	0.944833	0.267969	0.188367	-0.209461	0.936420	-0.281503	-0.251825	0.226518	0.940890
23268	7.037708	-6.499460	3.535737	1.082706	-0.820071	-0.501338	0.943785	0.265059	0.197520	-0.207452	0.940141	-0.270367	-0.257360	0.214193	0.942278
23269	11.757473	-0.421399	0.114177	2.377955	-1.966643	-0.235673	0.939065	0.266818	0.216716	-0.211529	0.945512	-0.247513	-0.270949	0.186589	0.944336
23270	6.643407	2.517466	7.170153	2.966379	-2.156573	0.007002	0.933050	0.270527	0.237136	-0.219806	0.950527	-0.219510	-0.284787	0.152690	0.946352
23271	9.457904	4.416552	10.862905	2.105937	-1.989890	0.449528	0.926216	0.277609	0.255064	-0.230124	0.952231	-0.200747	-0.298609	0.127239	0.945856
23272	4.567699	1.620315	10.724424	1.859840	-1.702055	0.744537	0.919269	0.286655	0.269765	-0.242621	0.952291	-0.185142	-0.309966	0.104745	0.944960
23273	-0.791037	1.615388	10.920316	1.885013	-1.682852	0.718712	0.912160	0.295061	0.284435	-0.255121	0.951959	-0.169371	-0.320745	0.081928	0.943616
23274	-0.600688	2.023998	11.336330	1.624091	-1.914787	0.551355	0.904449	0.301655	0.301623	-0.265413	0.951478	-0.155710	-0.333959	0.060776	0.940626
23275	1.089190	2.244820	10.085129	1.373397	-2.088205	0.240231	0.896660	0.304991	0.320908	-0.272237	0.951455	-0.143598	-0.349125	0.041396	0.936161
23276	2.284155	3.398907	8.671687	1.311267	-2.191932	-0.256680	0.889524	0.303223	0.341764	-0.274594	0.952659	-0.130530	-0.365165	0.022264	0.930677
23277	-0.714753	7.145634	10.902298	1.096579	-2.065260	-0.645382	0.883583	0.297324	0.361773	-0.272919	0.954760	-0.118103	-0.380522	0.005619	0.924755
23278	4.139228	8.659885	8.990978	-0.224324	-2.639912	-0.317096	0.874071	0.294346	0.386472	-0.269217	0.955699	-0.119001	-0.404378	-0.000029	0.914592
23279	21.530396	-2.267379	19.836583	0.725086	-3.709222	-0.485423	0.859813	0.289308	0.420741	-0.267985	0.957071	-0.110451	-0.434633	-0.017786	0.900432
23280	39.303361	-7.584417	19.630267	0.072549	0.749389	0.146743	0.862639	0.290816	0.413861	-0.269527	0.956640	-0.110429	-0.428030	-0.016287	0.903618
23281	-18.044574	1.332919	1.911443	0.660356	0.730627	-0.003862	0.865742	0.290826	0.407323	-0.272205	0.956557	-0.104418	-0.419995	-0.020477	0.907296
23282	10.876651	-0.816896	14.728663	0.183071	-1.886170	0.026430	0.857587	0.290600	0.424378	-0.273181	0.956444	-0.102894	-0.435794	-0.027692	0.899620
23283	10.354414	5.328962	12.818381	0.335746	0.377351	-0.001099	0.859223	0.290617	0.421044	-0.274547	0.956375	-0.099850	-0.431694	-0.029803	0.901528
23284	0.262113	-2.024913	8.278565	-0.081491	-0.662940	-0.020671	0.856386	0.290193	0.427073	-0.273980	0.956468	-0.100516	-0.437651	-0.030929	0.898613
23285	7.404949	-0.824759	9.576722	0.214608	0.115590	0.018111	0.856840	0.290311	0.426081	-0.274984	0.956375	-0.098641	-0.436130	-0.032646	0.899292
23286	6.075320	1.338475	9.545697	-0.031965	-0.201399	0.128294	0.855594	0.291447	0.427805	-0.275908	0.956021	-0.099496	-0.437988	-0.032907	0.898378
23287	3.989131	-0.729060	9.434934	0.045900	-0.045741	0.126567	0.855044	0.292542	0.428158	-0.277096	0.955666	-0.099597	-0.438313	-0.033481	0.898199
23288	4.971928	-1.695407	9.269957	-0.019027	-0.036020	0.109682	0.854569	0.293553	0.428413	-0.277915	0.955359	-0.100258	-0.438720	-0.033385	0.898004
23289	4.615330	-0.863733	9.486482	-0.048140	-0.066760	0.088745	0.854029	0.294281	0.428992	-0.278368	0.955145	-0.101043	-0.439484	-0.033124	0.897639
23290	4.582635	-1.261333	9.387287	-0.081244	-0.055473	0.073526	0.853568	0.294940	0.429456	-0.278602	0.954963	-0.102108	-0.440230	-0.032492	0.897297
23291	4.638740	-1.661000	9.201843	-0.083787	-0.048921	0.053635	0.853202	0.295339	0.429908	-0.278597	0.954862	-0.103063	-0.440941	-0.031838	0.896971
23292	4.615533	-1.262755	9.179592	-0.066121	-0.019032	0.037741	0.853001	0.295668	0.430081	-0.278592	0.954780	-0.103838	-0.441334	-0.031243	0.896799
23293	4.565676	-1.067715	9.122356	-0.051402	-0.002419	0.031331	0.852902	0.295871	0.430138	-0.278540	0.954733	-0.104408	-0.441558	-0.030761	0.896705
23294	4.537125	-0.988098	9.167512	-0.043213	0.006491	0.026831	0.852844	0.296104	0.430093	-0.278542	0.954675	-0.104931	-0.441669	-0.030310	0.896666
23295	4.467859	-0.968166	9.157913	-0.031573	0.008205	0.027735	0.852801	0.296276	0.430059	-0.278547	0.954632	-0.105308	-0.441748	-0.029985	0.896638
23296	4.465251	-0.894994	9.182509	-0.026888	0.002753	0.028815	0.852721	0.296527	0.430045	-0.278639	0.954563	-0.105693	-0.441846	-0.029701	0.896599
23297	4.446092	-0.962616	9.212472	-0.019401	0.003130	0.031439	0.852646	0.296732	0.430052	-0.278729	0.954505	-0.105977	-0.441934	-0.029507	0.896562
23298	4.461398	-0.960474	9.173673	-0.016084	0.005548	0.026250	0.852585	0.296960	0.430016	-0.278846	0.954440	-0.106253	-0.441977	-0.029318	0.896547
23299	4.514581	-1.055945	9.107261	-0.001820	0.008992	0.030197	0.852539	0.297155	0.429972	-0.279003	0.954380	-0.106374	-0.441966	-0.029275	0.896554
23300	4.414537	-1.119504	9.151290	0.006380	0.017906	0.025692	0.852534	0.297381	0.429825	-0.279215	0.954310	-0.106447	-0.441842	-0.029264	0.896616
23301	4.475224	-1.149370	9.128015	0.011663	0.016007	0.027000	0.852528	0.297548	0.429721	-0.279405	0.954256	-0.106434	-0.441733	-0.029328	0.896667
23302	4.374603	-1.211661	9.172415	0.017313	0.022301	0.025304	0.852544	0.297771	0.429536	-0.279661	0.954184	-0.106407	-0.441541	-0.029408	0.896759
23303	4.418588	-0.918536	9.229897	0.030044	0.005075	0.027007	0.852489	0.297937	0.429530	-0.279933	0.954124	-0.106229	-0.441474	-0.029680	0.896783
23304	4.428418	-0.944193	9.338297	0.017136	-0.006233	0.029328	0.852367	0.298190	0.429596	-0.280223	0.954040	-0.106221	-0.441526	-0.029843	0.896752
23305	4.345211	-1.024657	9.292965	0.004286	-0.015047	0.027968	0.852221	0.298358	0.429770	-0.280389	0.953985	-0.106279	-0.441703	-0.029930	0.896662
23306	4.355666	-0.948714	9.244052	-0.002985	-0.031288	0.037020	0.851967	0.298677	0.430052	-0.280656	0.953883	-0.106484	-0.442024	-0.029976	0.896502
23307	4.386474	-1.149385	9.213075	-0.005507	-0.039266	0.035042	0.851693	0.298906	0.430435	-0.280840	0.953810	-0.106660	-0.442434	-0.030042	0.896298
23308	4.401992	-1.241970	9.204200	-0.012862	-0.051243	0.028700	0.851374	0.299139	0.430905	-0.280991	0.953736	-0.106918	-0.442953	-0.030053	0.896041
23309	4.536784	-1.185678	9.170978	-0.016903	-0.047594	0.023069	0.851096	0.299252	0.431374	-0.281023	0.953701	-0.107146	-0.443466	-0.030035	0.895788
23310	4.536146	-1.170064	9.184695	-0.014032	-0.039280	0.020936	0.850851	0.299415	0.431745	-0.281103	0.953651	-0.107381	-0.443886	-0.030000	0.895581
23311	4.585688	-1.093529	9.181335	-0.015101	-0.033553	0.014224	0.850660	0.299449	0.432098	-0.281068	0.953642	-0.107555	-0.444274	-0.029956	0.895390
23312	4.656313	-1.006190	9.173268	0.001842	-0.022528	0.007973	0.850525	0.299493	0.432332	-0.281108	0.953626	-0.107592	-0.444507	-0.030022	0.895272
23313	4.575255	-0.963736	9.251451	0.000691	-0.013934	0.009738	0.850433	0.299490	0.432515	-0.281104	0.953625	-0.107605	-0.444684	-0.030071	0.895183
23314	4.612155	-0.971579	9.157514	0.014867	-0.004267	0.012601	0.850367	0.299584	0.432581	-0.281242	0.953592	-0.107546	-0.444724	-0.030206	0.895158
23315	4.491783	-1.042749	9.206428	0.015606	0.000892	0.015008	0.850326	0.299635	0.432625	-0.281349	0.953571	-0.107448	-0.444734	-0.030353	0.895148
23316	4.407240	-1.121935	9.161929	0.016501	0.002298	0.014797	0.850283	0.299752	0.432630	-0.281513	0.953530	-0.107384	-0.444714	-0.030484	0.895154
23317	4.429184	-1.111415	9.156758	0.013780	-0.009777	0.014329	0.850196	0.299794	0.432770	-0.281607	0.953512	-0.107300	-0.444819	-0.030645	0.895096
23318	4.466076	-1.132742	9.153247	0.001904	-0.006822	0.010199	0.850125	0.299864	0.432861	-0.281666	0.953489	-0.107346	-0.444918	-0.030665	0.895046
23319	4.396867	-1.144761	9.184359	-0.009553	-0.004410	0.007806	0.850081	0.299847	0.432960	-0.281602	0.953497	-0.107443	-0.445043	-0.030587	0.894987
23320	4.499681	-1.138369	9.164801	-0.014809	-0.024459	0.005362	0.849945	0.299865	0.433215	-0.281545	0.953494	-0.107618	-0.445338	-0.030500	0.894843
23321	4.462347	-1.078214	9.232386	-0.032482	-0.012799	-0.002874	0.849893	0.299744	0.433400	-0.281288	0.953541	-0.107874	-0.445599	-0.030229	0.894722
23322	4.444705	-1.131635	9.171127	-0.030595	-0.016238	-0.002226	0.849815	0.299692	0.433589	-0.281097	0.953565	-0.108157	-0.445869	-0.029967	0.894596
23323	4.562613	-1.044168	9.136926	-0.026476	-0.022765	-0.005064	0.849724	0.299548	0.433866	-0.280849	0.953616	-0.108351	-0.446198	-0.029782	0.894439
23324	4.473174	-1.067467	9.172356	-0.027469	-0.017924	-0.005916	0.849649	0.299461	0.434074	-0.280639	0.953651	-0.108590	-0.446473	-0.029555	0.894309
23325	4.579640	-1.116116	9.177123	-0.024875	-0.024058	-0.003974	0.849549	0.299327	0.434361	-0.280407	0.953698	-0.108774	-0.446808	-0.029389	0.894147
23326	4.446834	-1.045549	9.206890	-0.025449	-0.019762	-0.003088	0.849457	0.299266	0.434582	-0.280231	0.953723	-0.109007	-0.447093	-0.029187	0.894011
23327	4.598293	-1.037966	9.160455	-0.017517	-0.025306	-0.003540	0.849351	0.299136	0.434880	-0.280036	0.953767	-0.109127	-0.447418	-0.029095	0.893852
23328	4.548087	-1.022545	9.201606	-0.008749	-0.015332	-0.004167	0.849282	0.299067	0.435063	-0.279925	0.953790	-0.109206	-0.447619	-0.029038	0.893753
23329	4.532286	-1.050661	9.190034	0.000159	-0.020362	0.001027	0.849184	0.298982	0.435311	-0.279848	0.953815	-0.109188	-0.447852	-0.029100	0.893634
23330	4.555835	-1.041141	9.183914	-0.004704	-0.019001	0.001472	0.849083	0.298965	0.435521	-0.279803	0.953821	-0.109256	-0.448072	-0.029093	0.893524
23331	4.486147	-1.075664	9.165059	-0.003199	-0.014036	0.001485	0.849012	0.298886	0.435712	-0.279715	0.953845	-0.109270	-0.448261	-0.029104	0.893429
23332	4.466051	-1.099495	9.259905	-0.007435	-0.014472	-0.002639	0.848942	0.298832	0.435886	-0.279622	0.953863	-0.109343	-0.448451	-0.029057	0.893335
23333	4.438853	-1.151374	9.271176	-0.019965	-0.022933	-0.008078	0.848859	0.298660	0.436167	-0.279378	0.953921	-0.109466	-0.448762	-0.028934	0.893183
23334	4.370359	-1.087718	9.326187	-0.035093	-0.025263	-0.015445	0.848776	0.298480	0.436451	-0.279053	0.953986	-0.109731	-0.449120	-0.028656	0.893012
23335	4.412788	-1.053656	9.329771	-0.059127	-0.039185	-0.024340	0.848664	0.298149	0.436894	-0.278495	0.954102	-0.110132	-0.449678	-0.028208	0.892745
23336	4.171990	-0.718851	9.623585	-0.088715	-0.082305	-0.026761	0.848355	0.297845	0.437700	-0.277832	0.954215	-0.110825	-0.450669	-0.027588	0.892265
23337	4.559607	-1.072201	9.174019	-0.120489	-0.119884	-0.029318	0.847892	0.297446	0.438868	-0.276954	0.954363	-0.111751	-0.452079	-0.026794	0.891575
23338	4.351279	-1.125374	9.194866	-0.102052	-0.137728	-0.010227	0.847284	0.297286	0.440148	-0.276369	0.954429	-0.112634	-0.453575	-0.026210	0.890833
23339	4.600218	-1.121647	9.160493	-0.101948	-0.166057	-0.010205	0.846554	0.297059	0.441705	-0.275734	0.954512	-0.113476	-0.455322	-0.025729	0.889955
23340	4.420207	-1.233075	9.290133	-0.100489	-0.144519	-0.013713	0.845919	0.296866	0.443047	-0.275123	0.954587	-0.114328	-0.456867	-0.025180	0.889178
23341	4.584774	-1.309721	9.210128	-0.126804	-0.160839	-0.023657	0.845244	0.296514	0.444570	-0.274257	0.954716	-0.115329	-0.458635	-0.024445	0.888289
23342	4.544480	-1.188205	9.335390	-0.151652	-0.150198	-0.032376	0.844629	0.296143	0.445982	-0.273250	0.954856	-0.116550	-0.460364	-0.023423	0.887421
23343	4.566386	-1.046856	9.304698	-0.170632	-0.167804	-0.041842	0.843965	0.295620	0.447585	-0.272025	0.955046	-0.117856	-0.462305	-0.022288	0.886441
23344	4.587599	-1.017758	9.394429	-0.193528	-0.183323	-0.032945	0.843191	0.295240	0.449290	-0.270814	0.955193	-0.119441	-0.464422	-0.020962	0.885366
23345	4.441584	-0.974633	9.495624	-0.209118	-0.213348	-0.029545	0.842273	0.294830	0.451278	-0.269507	0.955349	-0.121138	-0.466843	-0.019591	0.884123
23346	4.498947	-0.939529	9.504795	-0.239689	-0.250238	-0.017819	0.841136	0.294587	0.453552	-0.268197	0.955455	-0.123193	-0.469639	-0.018020	0.882675
23347	4.348306	-0.885955	9.692672	-0.244953	-0.298809	-0.007718	0.839743	0.294376	0.456261	-0.266894	0.955546	-0.125296	-0.472863	-0.016556	0.880980
23348	4.334822	-0.989792	9.676601	-0.275816	-0.375445	-0.001219	0.837950	0.294280	0.459608	-0.265537	0.955601	-0.127735	-0.476792	-0.015007	0.878888
23349	4.357411	-1.120197	9.618589	-0.269453	-0.439591	0.001343	0.835835	0.294144	0.463528	-0.264173	0.955662	-0.130085	-0.481240	-0.013722	0.876482
23350	4.103756	-1.112071	9.777352	-0.272160	-0.523587	0.001656	0.833284	0.294066	0.468149	-0.262832	0.955701	-0.132491	-0.486372	-0.012642	0.873661
23351	4.033898	-1.137887	9.902062	-0.258733	-0.622297	-0.005775	0.830249	0.293849	0.473645	-0.261434	0.955776	-0.134698	-0.492280	-0.011995	0.870354
23352	3.930195	-0.975594	10.066367	-0.251191	-0.772324	-0.013040	0.826438	0.293608	0.480410	-0.260043	0.955853	-0.136833	-0.499377	-0.011843	0.866304
23353	3.867781	-0.822584	10.098426	-0.269141	-0.927170	-0.023328	0.821824	0.293190	0.488512	-0.258412	0.955979	-0.139022	-0.507767	-0.011986	0.861411
23354	3.791605	-0.839011	10.223396	-0.270556	-1.114974	-0.022779	0.816151	0.292810	0.498156	-0.256801	0.956087	-0.141248	-0.517640	-0.012647	0.855505
23355	3.454745	-0.763228	10.477836	-0.279667	-1.315781	-0.034330	0.809347	0.292223	0.509473	-0.254975	0.956250	-0.143433	-0.529098	-0.013816	0.848448
23356	3.095373	-0.683562	10.928559	-0.313214	-1.584297	-0.057606	0.800986	0.291416	0.522970	-0.252795	0.956472	-0.145794	-0.542693	-0.015425	0.839789
23357	2.404366	-1.138651	11.509170	-0.356869	-1.958549	-0.117234	0.790485	0.289886	0.539536	-0.249814	0.956898	-0.148121	-0.559219	-0.017697	0.828831
23358	1.897774	-1.941127	11.942092	-0.336879	-2.449942	-0.197921	0.777011	0.287486	0.560006	-0.246306	0.957543	-0.149815	-0.579299	-0.021525	0.814831
23359	1.486816	-2.380452	11.897858	-0.254335	-3.019588	-0.346845	0.759999	0.283341	0.584910	-0.242061	0.958619	-0.149851	-0.603165	-0.027697	0.797135
23360	2.276841	-2.866489	11.362699	-0.222184	-3.583483	-0.501336	0.739071	0.277371	0.613873	-0.236893	0.960103	-0.148604	-0.630600	-0.035593	0.775291
23361	2.558220	-1.919792	10.811839	0.000835	-4.190040	-0.665429	0.713561	0.269175	0.646819	-0.231998	0.961942	-0.144377	-0.661065	-0.047039	0.748853
23362	4.146988	-1.393627	10.709593	0.062761	-4.851915	-0.718143	0.682288	0.259623	0.683432	-0.227370	0.963816	-0.139147	-0.694828	-0.060454	0.716631
23363	5.537210	-0.772746	11.111038	0.101778	-5.373591	-0.670196	0.645495	0.249451	0.721880	-0.223585	0.965471	-0.133699	-0.730305	-0.075100	0.678981
23364	8.177184	-1.124289	11.705146	-0.032278	-5.762258	-0.571062	0.603601	0.239178	0.760566	-0.219735	0.966902	-0.129680	-0.766409	-0.088848	0.636179
23365	11.673275	-1.998399	12.314917	-0.155221	-5.864205	-0.450556	0.558613	0.229185	0.797136	-0.215841	0.968122	-0.127089	-0.800852	-0.101061	0.590273
23366	17.259181	-4.290993	13.825433	-0.273215	-5.428136	-0.362813	0.515069	0.219894	0.828463	-0.211623	0.969236	-0.125690	-0.830614	-0.110583	0.545758
23367	15.129955	-5.138624	12.557744	0.016204	-4.658429	-0.311109	0.476485	0.211429	0.853382	-0.210163	0.969904	-0.122953	-0.853694	-0.120764	0.506579
23368	12.524292	-3.926250	10.572819	0.265876	-4.257973	-0.341200	0.440411	0.202703	0.874614	-0.210854	0.970284	-0.118700	-0.872685	-0.132139	0.470064
23369	11.031626	-3.551150	9.858272	0.437156	-4.054778	-0.347551	0.407012	0.190341	0.893371	-0.205027	0.972128	-0.113713	-0.890115	-0.136882	0.434693
23370	8.193619	-2.894297	9.420568	0.547889	-3.845440	-0.312689	0.373126	0.181766	0.909801	-0.208683	0.971936	-0.108595	-0.904007	-0.149340	0.400585
23371	5.067687	-2.012148	9.023994	0.445425	-3.786293	-0.292370	0.340769	0.170083	0.924634	-0.203005	0.973610	-0.104276	-0.917968	-0.152171	0.366303
23372	2.929008	-2.035355	8.022425	0.075882	-3.841758	-0.303862	0.305844	0.161109	0.938351	-0.202684	0.974004	-0.101168	-0.930257	-0.159247	0.330547
23373	-2.408328	0.200242	6.399323	0.019327	-3.733671	-0.487910	0.271902	0.150266	0.950521	-0.201432	0.974740	-0.096474	-0.941007	-0.165234	0.295302
23374	23.813067	-2.092268	8.847303	-0.388413	-3.831682	-1.263719	0.238105	0.131536	0.962291	-0.194495	0.977175	-0.085445	-0.951566	-0.166816	0.258253
23375	21.553096	-2.279745	9.490210	0.359027	-1.086556	-1.055441	0.229829	0.119351	0.965885	-0.195425	0.977897	-0.074335	-0.953408	-0.171674	0.248074
23376	11.732992	-3.659997	8.282539	0.544192	0.717753	-0.921072	0.238440	0.111559	0.964728	-0.198412	0.978023	-0.064057	-0.950673	-0.176140	0.255335
23377	8.971642	-4.321428	6.734991	0.726140	1.768249	-0.782155	0.256793	0.107052	0.960519	-0.203345	0.977584	-0.054590	-0.944832	-0.181299	0.272805
23378	5.345289	-4.294584	4.854415	0.882649	2.212377	-0.533965	0.278680	0.105881	0.954529	-0.210183	0.976534	-0.046958	-0.937102	-0.187540	0.294395
23379	0.972745	-4.435917	3.057745	0.978922	2.006628	-0.319306	0.298115	0.106601	0.948559	-0.218397	0.975001	-0.040934	-0.929209	-0.194959	0.313944
23380	-0.262151	-4.540644	1.594909	0.996286	1.335163	-0.088965	0.310644	0.108358	0.944330	-0.227314	0.973123	-0.036885	-0.922946	-0.203201	0.326926
23381	1.349927	-4.665890	1.155304	1.044892	0.686334	0.121051	0.316707	0.110977	0.942009	-0.237326	0.970814	-0.034581	-0.918353	-0.212611	0.333801
23382	2.385323	-4.108587	1.758793	0.995078	0.303692	0.357875	0.318590	0.115072	0.940882	-0.247546	0.968258	-0.034599	-0.914998	-0.221889	0.336963
23383	3.732652	-3.684824	3.216186	0.912253	0.064158	0.597661	0.317689	0.121027	0.940439	-0.257807	0.965482	-0.037160	-0.912474	-0.230647	0.337925
23384	5.764908	-3.761528	4.402556	0.776523	0.109110	0.791974	0.316572	0.128883	0.939772	-0.267356	0.962684	-0.041963	-0.910111	-0.237970	0.339216
23385	6.861557	-3.689879	4.615142	0.679771	0.414766	0.932571	0.317827	0.138890	0.937921	-0.276525	0.959786	-0.048424	-0.906929	-0.243969	0.343452
23386	6.608834	-3.767538	4.356472	0.617637	0.766955	1.014891	0.321884	0.150470	0.934746	-0.285322	0.956808	-0.055770	-0.902764	-0.248752	0.350913
23387	5.801401	-3.821641	4.007274	0.610172	1.033564	1.066285	0.328119	0.163306	0.930414	-0.294326	0.953588	-0.063577	-0.897614	-0.252984	0.360955
23388	4.533889	-3.553369	3.635459	0.642615	1.171878	1.107497	0.335262	0.176800	0.925387	-0.303711	0.950079	-0.071486	-0.891829	-0.257084	0.372221
23389	3.892820	-3.446807	3.560293	0.684238	1.193309	1.131022	0.342394	0.190688	0.920002	-0.313680	0.946205	-0.079378	-0.885647	-0.261407	0.383790
23390	4.479844	-3.058045	4.023751	0.731285	1.247157	1.121040	0.349794	0.204525	0.914228	-0.323974	0.942076	-0.086799	-0.879025	-0.265824	0.395793
23391	5.230523	-2.499486	4.606457	0.739948	1.425804	1.095231	0.358684	0.218720	0.907473	-0.334394	0.937749	-0.093846	-0.871508	-0.269793	0.409494
23392	5.711912	-2.028895	5.024492	0.714130	1.695687	1.055736	0.369778	0.233161	0.899389	-0.344395	0.933442	-0.100393	-0.862935	-0.272622	0.425466
23393	5.666100	-1.668822	5.097752	0.671255	1.999567	0.984450	0.383510	0.247886	0.889647	-0.353932	0.929207	-0.106335	-0.853025	-0.274094	0.444095
23394	5.167250	-1.378616	4.990620	0.628847	2.268329	0.863413	0.399614	0.262075	0.878422	-0.362604	0.925297	-0.111103	-0.841919	-0.274121	0.464791
23395	4.643365	-1.012749	4.706806	0.566307	2.464421	0.687744	0.417704	0.275263	0.865883	-0.370222	0.921864	-0.114463	-0.829734	-0.272757	0.486975
23396	4.149538	-0.671953	4.572023	0.464746	2.573604	0.491307	0.437036	0.286732	0.852516	-0.376110	0.919239	-0.116364	-0.817031	-0.269785	0.509584
23397	4.016210	-0.708661	4.480864	0.356192	2.624578	0.307144	0.457156	0.296678	0.838445	-0.380445	0.917352	-0.117163	-0.803909	-0.265421	0.532243
23398	4.117039	-1.144139	4.624533	0.269584	2.636050	0.169032	0.477503	0.305117	0.823950	-0.383346	0.916151	-0.117100	-0.790592	-0.259942	0.554431
23399	4.250877	-1.585825	4.816425	0.240131	2.656479	0.094745	0.497965	0.312917	0.808773	-0.385767	0.915202	-0.116576	-0.776669	-0.253947	0.576451
23400	4.693644	-2.365498	5.150075	0.245777	2.679653	0.113497	0.518121	0.320642	0.792931	-0.388196	0.914242	-0.116041	-0.762138	-0.247689	0.598160
23401	5.127122	-2.649868	5.513524	0.298748	2.740392	0.196576	0.538030	0.329254	0.775961	-0.391567	0.912830	-0.115829	-0.746457	-0.241521	0.620056
23402	5.407133	-2.806720	5.652186	0.357688	2.833241	0.334899	0.557601	0.339030	0.757720	-0.396003	0.910875	-0.116141	-0.729563	-0.235299	0.642162
23403	5.295823	-2.657603	5.760216	0.396804	2.912669	0.509148	0.576555	0.350542	0.738040	-0.401834	0.908152	-0.117428	-0.711417	-0.228866	0.664460
23404	5.324527	-2.233291	5.986868	0.414467	2.951142	0.695483	0.594434	0.363469	0.717314	-0.408777	0.904751	-0.119694	-0.692495	-0.222072	0.686392
23405	5.318622	-1.935870	6.216926	0.385517	2.977979	0.859765	0.611210	0.377858	0.695446	-0.416680	0.900672	-0.123155	-0.672904	-0.214505	0.707946
23406	5.627012	-1.530698	6.544685	0.345087	3.024873	0.977171	0.627131	0.392966	0.672521	-0.424980	0.896197	-0.127367	-0.652762	-0.205932	0.729036
23407	6.013353	-1.340499	7.104960	0.326234	3.100660	1.064869	0.642459	0.408850	0.648142	-0.433924	0.891218	-0.132064	-0.631630	-0.196399	0.749980
23408	5.989099	-0.864931	7.463256	0.307627	3.210807	1.090867	0.657586	0.424650	0.622296	-0.442888	0.886100	-0.136664	-0.609451	-0.185739	0.770760
23409	5.790650	-0.229935	7.644562	0.280532	3.288325	1.076223	0.672415	0.440200	0.595049	-0.451810	0.880885	-0.141100	-0.586282	-0.173971	0.791207
23410	5.422662	0.458277	7.943083	0.177664	3.304939	0.977849	0.686940	0.454294	0.567213	-0.459442	0.876231	-0.145373	-0.563051	-0.160739	0.810639
23411	5.545111	0.562515	8.317659	0.051687	3.231428	0.810298	0.701000	0.466459	0.539458	-0.465435	0.872364	-0.149505	-0.540342	-0.146280	0.828633
23412	5.913090	0.584070	9.181860	-0.078925	3.115001	0.563342	0.714853	0.475656	0.512579	-0.468970	0.869836	-0.153144	-0.518703	-0.130908	0.844873
23413	7.213660	0.363338	10.528403	-0.217586	3.003111	0.264617	0.728855	0.481754	0.486501	-0.469854	0.868781	-0.156388	-0.498003	-0.114601	0.859569
23414	9.531892	-0.094192	11.822884	-0.336728	3.067091	-0.044209	0.744007	0.484586	0.460032	-0.467852	0.869366	-0.159114	-0.477041	-0.096845	0.873529
23415	10.547051	-0.453479	12.531758	-0.435848	3.275432	-0.314162	0.760703	0.484800	0.431625	-0.463531	0.871218	-0.161613	-0.454389	-0.077132	0.887458
23416	10.664015	-1.295040	12.664350	-0.513901	3.482039	-0.512869	0.778456	0.482614	0.401360	-0.457277	0.874054	-0.164093	-0.430004	-0.055794	0.901101
23417	10.389481	-1.672143	12.514207	-0.541122	3.561735	-0.608340	0.796056	0.478969	0.369977	-0.450294	0.877178	-0.166717	-0.404388	-0.033883	0.913960
23418	9.950493	-1.587172	11.656850	-0.543489	3.527513	-0.627749	0.812665	0.474243	0.338629	-0.443083	0.880308	-0.169514	-0.378489	-0.012283	0.925524
23419	9.503893	-0.969423	10.734121	-0.579101	3.316304	-0.601383	0.827431	0.469075	0.308749	-0.436086	0.883117	-0.173013	-0.353818	0.008515	0.935276
23420	9.196172	-0.424442	9.799754	-0.623588	2.959245	-0.583562	0.840098	0.463355	0.282024	-0.429049	0.885736	-0.177169	-0.331891	0.027838	0.942907
23421	8.873828	-0.380329	8.769453	-0.593178	2.461811	-0.643744	0.850764	0.456812	0.259854	-0.421737	0.888451	-0.181088	-0.313591	0.044473	0.948516
23422	6.424530	-1.694912	9.268977	-0.481676	1.910342	-0.803989	0.859973	0.448662	0.243208	-0.413352	0.891855	-0.183670	-0.299312	0.057421	0.952426
23423	6.911470	-0.828448	5.728213	1.019145	0.042579	-1.147434	0.864787	0.438420	0.244809	-0.406518	0.897459	-0.171204	-0.294765	0.048536	0.954336
23424	15.299538	-3.393942	0.282022	0.447259	-0.276371	-1.406451	0.869610	0.425860	0.249845	-0.395610	0.903751	-0.163483	-0.295418	0.043325	0.954385
23425	18.992837	2.158178	4.625732	1.156168	-0.755308	-1.512122	0.873266	0.412452	0.259403	-0.385880	0.910495	-0.148648	-0.297495	0.029710	0.954261
23426	20.382078	2.093009	4.542869	1.199392	-0.638412	-1.383366	0.876639	0.399940	0.267492	-0.377319	0.916398	-0.133583	-0.298554	0.016174	0.954256
23427	18.717062	2.537880	2.476990	0.968074	-0.759053	-0.999188	0.878096	0.390836	0.276032	-0.371442	0.920450	-0.121665	-0.301625	0.004304	0.953417
23428	17.214912	3.865413	0.615103	0.532564	-1.191683	-0.272374	0.875458	0.388300	0.287745	-0.370651	0.921518	-0.115852	-0.310148	-0.005230	0.950674
23429	7.757994	0.601277	2.716188	0.245758	-1.451181	0.685251	0.868308	0.394429	0.300777	-0.377354	0.918832	-0.115550	-0.321940	-0.013167	0.946669
23430	8.473410	-0.661127	11.544436	-0.128101	-1.884675	0.987677	0.858310	0.403154	0.317444	-0.385425	0.914925	-0.119836	-0.338749	-0.019495	0.940675
23431	7.746606	0.341803	13.869077	0.201870	-1.321516	1.096797	0.849482	0.412804	0.328593	-0.395426	0.910428	-0.121490	-0.349312	-0.026730	0.936625
23432	3.309923	-2.036210	11.368676	0.269741	-1.350112	1.030853	0.840564	0.421728	0.339996	-0.405061	0.906054	-0.122439	-0.359691	-0.034802	0.932422
23433	2.431519	0.442064	9.051666	0.320588	-1.574800	0.816376	0.831467	0.428427	0.353711	-0.412996	0.902485	-0.122293	-0.371613	-0.044398	0.927325
23434	4.220085	1.303666	9.523726	0.243398	-1.674818	0.667741	0.822350	0.433597	0.368420	-0.419405	0.899499	-0.122476	-0.384499	-0.053799	0.921556
23435	4.862697	0.506721	10.366110	0.220300	-1.550645	0.514588	0.814128	0.437253	0.382107	-0.424409	0.897162	-0.122381	-0.396324	-0.062536	0.915979
23436	3.054186	0.172543	9.493016	0.199471	-1.375680	0.331388	0.807186	0.439284	0.394311	-0.427863	0.895590	-0.121867	-0.406675	-0.070342	0.910861
23437	2.953980	-5.119791	9.966178	0.501847	-1.671369	-0.195927	0.801136	0.436184	0.409787	-0.428288	0.896099	-0.116516	-0.418032	-0.082162	0.904709
23438	23.652979	4.155004	18.386462	1.063307	-1.411307	-0.270109	0.796341	0.432467	0.422864	-0.430578	0.896329	-0.105817	-0.424788	-0.097810	0.899994
23439	2.069107	-1.730486	8.099723	0.334025	0.639445	-0.031710	0.799178	0.432722	0.417214	-0.431652	0.896180	-0.102657	-0.418321	-0.098049	0.902992
23440	-3.834809	-2.155969	5.211819	0.519501	-0.810823	-0.111172	0.796242	0.430871	0.424676	-0.432915	0.896143	-0.097526	-0.422592	-0.106195	0.900077
23441	10.597371	-4.516565	13.289639	0.693164	-1.063707	-0.171747	0.792464	0.428067	0.434464	-0.434427	0.896144	-0.090553	-0.428105	-0.116983	0.896126
23442	7.105713	2.342529	8.808613	0.589848	0.329656	-0.138681	0.794463	0.427189	0.431669	-0.435803	0.896050	-0.084680	-0.422971	-0.120847	0.898049
23443	6.337642	-0.899256	9.993776	0.370347	-0.606249	-0.093280	0.792298	0.425519	0.437261	-0.436558	0.896028	-0.080943	-0.426241	-0.126759	0.895685
23444	6.162313	0.764689	9.232990	-0.069753	0.595263	0.034381	0.794665	0.426545	0.431935	-0.436501	0.895983	-0.081737	-0.421871	-0.123587	0.898193
23445	5.713966	-0.722923	9.978293	-0.020299	-0.049096	0.053668	0.794226	0.426877	0.432413	-0.436761	0.895820	-0.082137	-0.422426	-0.123626	0.897927
23446	4.131979	-0.350044	9.518052	-0.062352	0.228762	0.023130	0.795083	0.427337	0.430379	-0.436648	0.895812	-0.082817	-0.420929	-0.122078	0.898841
23447	4.905649	-0.519390	9.228561	-0.053109	0.153727	0.015850	0.795664	0.427577	0.429065	-0.436470	0.895850	-0.083348	-0.420016	-0.120957	0.899420
23448	4.498758	-0.698363	9.447065	-0.084846	0.112629	0.033052	0.795985	0.427982	0.428065	-0.436343	0.895825	-0.084272	-0.419538	-0.119704	0.899810
23449	4.300988	-0.491321	9.426000	-0.036194	0.063485	0.026449	0.796140	0.428205	0.427553	-0.436321	0.895796	-0.084696	-0.419268	-0.119120	0.900014
23450	4.236321	-0.394372	9.490603	-0.033051	0.027765	0.035226	0.796095	0.428526	0.427314	-0.436429	0.895699	-0.085164	-0.419240	-0.118694	0.900083
23451	4.435315	-0.379294	9.480187	-0.024969	-0.008190	0.046029	0.795865	0.428839	0.427430	-0.436609	0.895573	-0.085570	-0.419490	-0.118518	0.899990
23452	4.581318	-0.445764	9.281577	-0.017950	-0.030521	0.056985	0.795481	0.429286	0.427697	-0.436953	0.895364	-0.085994	-0.419860	-0.118477	0.899822
23453	4.564545	-0.519104	9.335322	0.001118	-0.046127	0.067786	0.794995	0.429747	0.428135	-0.437415	0.895113	-0.086258	-0.420298	-0.118698	0.899589
23454	4.540286	-0.705711	9.252916	0.015779	-0.051479	0.077654	0.794432	0.430354	0.428572	-0.438064	0.894775	-0.086468	-0.420687	-0.119049	0.899361
