// General information: 
//  MT Manager version: 2022.2.0 
//  XDA version: 2022.2.0 build 7381 rev 124627 built on 2023-07-19
// Device information: 
//  DeviceId: 00B4CBA7
//  ProductCode: MTW2-3A7G6
//  Firmware Version: 4.6.0
//  Hardware Version: 2.0.0
// Device settings: 
//  Filter Profile: human(46.1)
//  Option Flags: Orientation Smoother Disabled, Position/Velocity Smoother Disabled, Continuous Zero Rotation Update Disabled, AHS Disabled, ICC Disabled
// Coordinate system: ENU
PacketCounter	Acc_X	Acc_Y	Acc_Z	Gyr_X	Gyr_Y	Gyr_Z	Mat[1][1]	Mat[2][1]	Mat[3][1]	Mat[1][2]	Mat[2][2]	Mat[3][2]	Mat[1][3]	Mat[2][3]	Mat[3][3]
19851	9.509528	-0.103348	-1.631884	0.037461	0.073669	-0.044104	-0.122847	-0.122307	0.984860	-0.823648	0.566173	-0.032426	-0.553636	-0.815162	-0.170291
19852	9.466696	0.025041	-1.538346	-0.014200	0.058629	-0.042364	-0.122193	-0.121999	0.984980	-0.823505	0.566406	-0.032006	-0.553994	-0.815046	-0.169678
19853	9.495136	-0.197989	-1.558654	-0.059803	0.013390	-0.037778	-0.121791	-0.122121	0.985015	-0.823216	0.566854	-0.031508	-0.554512	-0.814717	-0.169569
19854	9.626558	-0.180343	-1.163945	-0.018240	-0.001768	-0.022466	-0.121643	-0.122316	0.985009	-0.823239	0.566832	-0.031277	-0.554509	-0.814702	-0.169646
19855	9.723747	-0.227610	-0.929142	-0.044641	-0.011210	-0.015598	-0.121560	-0.122512	0.984994	-0.823007	0.567184	-0.031023	-0.554872	-0.814428	-0.169775
19856	9.592371	-0.624850	-0.853019	-0.052646	-0.045356	-0.020184	-0.121621	-0.123004	0.984926	-0.822747	0.567577	-0.030712	-0.555244	-0.814080	-0.170230
19857	9.524690	-0.972419	-0.900391	0.011996	-0.088316	-0.028526	-0.121860	-0.123901	0.984784	-0.822845	0.567451	-0.030427	-0.555047	-0.814032	-0.171101
19858	9.492225	-1.435573	-0.979857	0.141089	-0.139449	-0.044527	-0.122253	-0.125290	0.984559	-0.823668	0.566267	-0.030215	-0.553738	-0.814644	-0.172426
19859	9.500979	-1.783033	-1.040855	0.313424	-0.186762	-0.062199	-0.122755	-0.127181	0.984254	-0.825471	0.563640	-0.030121	-0.550934	-0.816171	-0.174174
19860	9.537292	-1.996275	-1.258602	0.522236	-0.210396	-0.088004	-0.123213	-0.129324	0.983918	-0.828350	0.559397	-0.030206	-0.546494	-0.818750	-0.176050
19861	9.485638	-2.193393	-1.426006	0.769554	-0.230270	-0.111806	-0.123518	-0.131852	0.983544	-0.832664	0.552942	-0.030444	-0.539828	-0.822722	-0.178087
19862	9.405315	-2.350308	-1.750709	1.047423	-0.252348	-0.137037	-0.123632	-0.134621	0.983154	-0.838340	0.544272	-0.030895	-0.530944	-0.828037	-0.180147
19863	9.432516	-2.236882	-1.888025	1.342306	-0.280959	-0.145578	-0.123864	-0.137757	0.982691	-0.845565	0.532920	-0.031873	-0.519305	-0.834877	-0.182492
19864	9.483139	-1.895872	-2.015213	1.604052	-0.290071	-0.162466	-0.123835	-0.140991	0.982235	-0.853879	0.519419	-0.033095	-0.505526	-0.842808	-0.184711
19865	9.520643	-1.495039	-2.176281	1.805845	-0.300839	-0.166862	-0.123881	-0.144409	0.981733	-0.863068	0.503889	-0.034788	-0.489660	-0.851612	-0.187057
19866	9.522047	-0.914784	-2.202029	1.918911	-0.298596	-0.177372	-0.123793	-0.147792	0.981240	-0.872518	0.487201	-0.036695	-0.472639	-0.860693	-0.189263
19867	9.398541	-0.402704	-2.123965	1.961658	-0.289921	-0.192488	-0.123430	-0.151236	0.980761	-0.881853	0.469949	-0.038515	-0.455083	-0.869641	-0.191374
19868	9.437062	0.009088	-2.119708	1.915888	-0.279278	-0.202067	-0.122812	-0.154539	0.980324	-0.890581	0.453050	-0.040150	-0.437931	-0.877988	-0.193269
19869	9.507001	0.315112	-2.063669	1.820182	-0.265829	-0.202147	-0.122126	-0.157796	0.979891	-0.898646	0.436690	-0.041678	-0.421332	-0.885665	-0.195134
19870	9.630282	0.632946	-2.023017	1.711813	-0.231779	-0.197430	-0.121104	-0.160535	0.979573	-0.905709	0.421728	-0.042858	-0.406233	-0.892398	-0.196471
19871	9.876729	0.972608	-2.053065	1.589926	-0.160932	-0.177041	-0.120116	-0.162723	0.979333	-0.912263	0.407211	-0.044229	-0.391598	-0.898722	-0.197358
19872	9.919283	1.542736	-2.053318	1.494092	-0.082854	-0.146835	-0.119001	-0.163882	0.979276	-0.918005	0.393935	-0.045631	-0.378293	-0.904410	-0.197323
19873	9.836446	2.639053	-1.425977	1.290151	-0.062106	-0.100656	-0.118285	-0.164847	0.979201	-0.922926	0.382078	-0.047165	-0.366356	-0.909309	-0.197336
19874	9.824104	3.894038	-0.723868	0.846809	-0.102188	-0.035656	-0.118080	-0.165639	0.979092	-0.925655	0.375294	-0.048145	-0.359472	-0.911986	-0.197639
19875	10.148591	4.613737	-0.409291	0.124744	-0.152556	0.033235	-0.118914	-0.166917	0.978774	-0.926061	0.374221	-0.048691	-0.358150	-0.912194	-0.199075
19876	10.108025	3.538461	-0.722712	-0.781885	-0.184108	0.079192	-0.120188	-0.168027	0.978428	-0.922814	0.382280	-0.047707	-0.366017	-0.908641	-0.201003
19877	9.824825	0.619894	-1.616243	-1.364306	-0.268316	0.109187	-0.122170	-0.170044	0.977834	-0.917602	0.394832	-0.045984	-0.378261	-0.902880	-0.204269
19878	9.916637	-2.345505	-2.411350	-1.437669	-0.346094	0.163864	-0.124958	-0.172258	0.977094	-0.911610	0.408635	-0.044543	-0.391602	-0.896295	-0.208095
19879	10.042296	-3.742300	-2.330651	-1.082650	-0.340430	0.271280	-0.128753	-0.174190	0.976258	-0.906972	0.418791	-0.044892	-0.401028	-0.891219	-0.211906
19880	10.166888	-3.392181	-1.792977	-0.689415	-0.307135	0.388863	-0.133421	-0.175173	0.975455	-0.903498	0.426000	-0.047077	-0.407297	-0.887603	-0.215106
19881	10.210527	-2.186329	-1.609712	-0.710808	-0.260892	0.469014	-0.138700	-0.175481	0.974663	-0.899939	0.433129	-0.050084	-0.413366	-0.884085	-0.217997
19882	9.874574	-1.569545	-2.113945	-1.000390	-0.228114	0.484161	-0.143851	-0.175293	0.973950	-0.894945	0.443085	-0.052435	-0.422351	-0.879175	-0.220616
19883	9.525438	-1.660211	-2.321606	-1.309362	-0.221200	0.471287	-0.148980	-0.175126	0.973209	-0.888647	0.455391	-0.054089	-0.433719	-0.872897	-0.223469
19884	9.328594	-2.112146	-2.466791	-1.555846	-0.207718	0.466230	-0.154103	-0.174418	0.972538	-0.880847	0.470165	-0.055253	-0.447617	-0.865172	-0.226089
19885	9.278489	-2.484883	-2.839446	-1.690663	-0.188302	0.485208	-0.159192	-0.173733	0.971841	-0.872392	0.485577	-0.056097	-0.462158	-0.856757	-0.228863
19886	9.245522	-2.357782	-2.827471	-1.706936	-0.180273	0.514900	-0.164516	-0.172461	0.971180	-0.863343	0.501364	-0.057217	-0.477047	-0.847875	-0.231376
19887	9.295169	-2.152659	-2.638475	-1.737558	-0.172679	0.532269	-0.169903	-0.171220	0.970472	-0.854032	0.516942	-0.058314	-0.491694	-0.838722	-0.234058
19888	9.259098	-1.843098	-2.594622	-1.728119	-0.157650	0.543104	-0.175293	-0.169455	0.969823	-0.844348	0.532472	-0.059576	-0.506309	-0.829312	-0.236418
19889	9.263710	-1.402440	-2.489818	-1.641771	-0.140546	0.556017	-0.180664	-0.167626	0.969155	-0.834930	0.546961	-0.061039	-0.519859	-0.820204	-0.238772
19890	9.359441	-1.042061	-2.441332	-1.586843	-0.138637	0.581073	-0.186192	-0.165370	0.968496	-0.825523	0.560847	-0.062941	-0.532770	-0.811236	-0.240942
19891	9.454482	-0.859398	-2.616311	-1.462638	-0.126999	0.606929	-0.191840	-0.162966	0.967801	-0.816492	0.573658	-0.065250	-0.544553	-0.802720	-0.243111
19892	9.239688	-0.225687	-2.818788	-1.306969	-0.105220	0.620749	-0.197525	-0.160039	0.967146	-0.808172	0.584978	-0.068257	-0.554835	-0.795103	-0.244886
19893	9.053071	0.641914	-2.950556	-1.205576	-0.087068	0.611716	-0.202913	-0.157131	0.966507	-0.800195	0.595501	-0.071183	-0.564371	-0.787838	-0.246570
19894	9.030816	1.403222	-2.975205	-1.227075	-0.057827	0.587311	-0.207901	-0.153835	0.965977	-0.791941	0.606107	-0.073920	-0.574114	-0.780365	-0.247839
19895	8.956933	1.805310	-3.151134	-1.355759	-0.017695	0.550854	-0.212323	-0.150616	0.965522	-0.782921	0.617480	-0.075845	-0.584768	-0.772032	-0.249026
19896	8.916097	1.706662	-3.390298	-1.454358	0.022883	0.514333	-0.216252	-0.147097	0.965193	-0.773408	0.629166	-0.077397	-0.595881	-0.763225	-0.249825
19897	8.864764	1.293218	-3.551815	-1.430465	0.067317	0.461018	-0.219374	-0.143673	0.965004	-0.763794	0.640700	-0.078243	-0.607037	-0.754229	-0.250289
19898	8.904377	0.864231	-3.524848	-1.316608	0.109282	0.393264	-0.221761	-0.139979	0.965002	-0.754683	0.651323	-0.078950	-0.617476	-0.745778	-0.250077
19899	8.883697	0.444355	-3.521036	-1.121894	0.141042	0.311611	-0.223206	-0.136903	0.965110	-0.747006	0.660092	-0.079129	-0.626228	-0.738604	-0.249604
19900	8.888232	0.248156	-3.453759	-0.861719	0.164583	0.228115	-0.223898	-0.134094	0.965344	-0.741090	0.666710	-0.079274	-0.632974	-0.733156	-0.248651
19901	8.967427	-0.001265	-3.431761	-0.581672	0.188990	0.127016	-0.223619	-0.131876	0.965714	-0.737102	0.671144	-0.079032	-0.637710	-0.729503	-0.247287
19902	9.025420	-0.161713	-3.265008	-0.252313	0.207361	0.022237	-0.222499	-0.130263	0.966191	-0.735615	0.672814	-0.078691	-0.639817	-0.728253	-0.245524
19903	9.112744	-0.217516	-2.978033	0.065734	0.231858	-0.082558	-0.220391	-0.129143	0.966825	-0.736211	0.672239	-0.078028	-0.639861	-0.728983	-0.243232
19904	9.256440	-0.283891	-2.963156	0.344167	0.259424	-0.184029	-0.217371	-0.128497	0.967594	-0.738893	0.669398	-0.077097	-0.637799	-0.731707	-0.240453
19905	9.426504	-0.505775	-2.724808	0.601088	0.306705	-0.268659	-0.213413	-0.128052	0.968534	-0.743286	0.664653	-0.075906	-0.634019	-0.736097	-0.237025
19906	9.529369	-1.027190	-2.589737	0.778220	0.328824	-0.296705	-0.209130	-0.127614	0.969525	-0.748828	0.658524	-0.074847	-0.628905	-0.741661	-0.233278
19907	9.593074	-1.178263	-2.476229	0.957054	0.339476	-0.262452	-0.205015	-0.126816	0.970508	-0.755352	0.651072	-0.074489	-0.622425	-0.748347	-0.229271
19908	9.640861	-0.598793	-1.995664	1.020236	0.334947	-0.203991	-0.201330	-0.125606	0.971437	-0.761936	0.643327	-0.074730	-0.615565	-0.755218	-0.225225
19909	9.792764	0.151000	-1.620244	0.843791	0.320338	-0.146032	-0.198234	-0.124125	0.972263	-0.767389	0.636760	-0.075170	-0.609768	-0.761006	-0.221480
19910	9.761927	0.596073	-1.288668	0.493541	0.295529	-0.099486	-0.195654	-0.122501	0.972992	-0.770491	0.632995	-0.075239	-0.606682	-0.764402	-0.218234
19911	9.776885	0.554832	-1.177819	0.088297	0.263506	-0.074957	-0.193461	-0.120973	0.973621	-0.771164	0.632241	-0.074676	-0.606530	-0.765269	-0.215604
19912	9.839615	0.073472	-1.257580	-0.234226	0.236352	-0.056399	-0.191550	-0.119561	0.974173	-0.769781	0.634057	-0.073542	-0.608889	-0.763987	-0.213489
19913	9.936105	-0.544155	-1.337044	-0.372475	0.212218	-0.050765	-0.189847	-0.118277	0.974663	-0.767596	0.636851	-0.072230	-0.612172	-0.761860	-0.211693
19914	10.064554	-1.081666	-1.495626	-0.361220	0.199138	-0.053427	-0.188203	-0.117145	0.975119	-0.765462	0.639562	-0.070905	-0.615343	-0.759761	-0.210038
19915	10.094090	-1.390037	-1.714416	-0.235226	0.194156	-0.054514	-0.186573	-0.116034	0.975565	-0.764106	0.641297	-0.069856	-0.617521	-0.758468	-0.208311
19916	9.976843	-1.398377	-1.717733	-0.024442	0.200813	-0.068904	-0.184794	-0.114999	0.976026	-0.764062	0.641433	-0.069086	-0.618110	-0.758511	-0.206400
19917	9.809612	-1.116049	-1.775649	0.119957	0.190957	-0.084457	-0.182952	-0.114105	0.976478	-0.764950	0.640438	-0.068483	-0.617559	-0.759486	-0.204454
19918	9.720574	-0.766403	-1.750411	0.192530	0.187102	-0.090282	-0.181092	-0.113287	0.976919	-0.766263	0.638924	-0.067950	-0.616480	-0.760882	-0.202512
19919	9.668941	-0.632294	-1.877784	0.204473	0.174808	-0.089696	-0.179310	-0.112541	0.977334	-0.767675	0.637278	-0.067461	-0.615242	-0.762372	-0.200666
19920	9.622338	-0.504741	-1.814283	0.203266	0.176100	-0.087558	-0.177510	-0.111824	0.977745	-0.769074	0.635646	-0.066927	-0.614016	-0.763838	-0.198835
19921	9.561820	-0.422010	-1.830217	0.161379	0.170943	-0.077708	-0.175846	-0.111024	0.978137	-0.770193	0.634339	-0.066461	-0.613092	-0.765041	-0.197056
19922	9.555194	-0.437052	-1.823011	0.109303	0.168905	-0.078924	-0.174140	-0.110256	0.978529	-0.770924	0.633518	-0.065812	-0.612660	-0.765832	-0.195319
19923	9.667402	-0.489135	-1.738555	0.081578	0.173249	-0.060380	-0.172596	-0.109324	0.978907	-0.771520	0.632840	-0.065355	-0.612346	-0.766526	-0.193571
19924	9.608738	-0.455227	-1.781715	0.077113	0.170256	-0.050938	-0.171152	-0.108394	0.979264	-0.772067	0.632212	-0.064960	-0.612061	-0.767176	-0.191891
19925	9.521627	-0.234115	-1.693486	0.081098	0.163186	-0.044983	-0.169789	-0.107439	0.979606	-0.772632	0.631554	-0.064649	-0.611729	-0.767852	-0.190241
19926	9.475543	-0.119883	-1.612833	0.049658	0.154777	-0.037236	-0.168495	-0.106530	0.979929	-0.772939	0.631216	-0.064283	-0.611699	-0.768256	-0.188698
19927	9.529954	-0.064237	-1.576247	0.008296	0.148316	-0.036052	-0.167292	-0.105632	0.980232	-0.773041	0.631127	-0.063920	-0.611899	-0.768453	-0.187240
19928	9.482735	-0.161941	-1.610681	-0.016111	0.140689	-0.024086	-0.166214	-0.104753	0.980510	-0.772933	0.631294	-0.063582	-0.612329	-0.768437	-0.185897
19929	9.533966	-0.300570	-1.539332	-0.017920	0.136118	-0.016944	-0.165233	-0.103828	0.980774	-0.772843	0.631427	-0.063357	-0.612709	-0.768453	-0.184575
19930	9.543267	-0.369991	-1.509851	-0.002787	0.128379	-0.010692	-0.164315	-0.102937	0.981022	-0.772787	0.631514	-0.063173	-0.613026	-0.768501	-0.183315
19931	9.601778	-0.376210	-1.480120	0.005721	0.117973	-0.001189	-0.163565	-0.102051	0.981240	-0.772815	0.631482	-0.063147	-0.613191	-0.768646	-0.182155
19932	9.696984	-0.430263	-1.452537	0.017062	0.108193	0.003362	-0.162871	-0.101235	0.981440	-0.772859	0.631430	-0.063125	-0.613321	-0.768796	-0.181082
19933	9.683401	-0.494407	-1.418938	0.036472	0.098234	0.008670	-0.162319	-0.100439	0.981613	-0.773059	0.631172	-0.063251	-0.613214	-0.769112	-0.180096
19934	9.649734	-0.423922	-1.339770	0.053624	0.085977	0.012056	-0.161878	-0.099749	0.981756	-0.773351	0.630798	-0.063424	-0.612964	-0.769509	-0.179253
19935	9.625953	-0.370052	-1.299301	0.055139	0.077764	0.011553	-0.161474	-0.099091	0.981890	-0.773661	0.630399	-0.063611	-0.612679	-0.769921	-0.178456
19936	9.632114	-0.329137	-1.325628	0.036689	0.061937	0.019227	-0.161214	-0.098526	0.981989	-0.773818	0.630186	-0.063810	-0.612548	-0.770168	-0.177836
19937	9.591275	-0.400471	-1.380428	0.036846	0.048244	0.015940	-0.161025	-0.098068	0.982066	-0.774009	0.629931	-0.064007	-0.612357	-0.770435	-0.177340
19938	9.584741	-0.332017	-1.393177	0.035991	0.040132	0.023719	-0.160930	-0.097644	0.982124	-0.774150	0.629734	-0.064243	-0.612203	-0.770650	-0.176935
19939	9.570845	-0.332386	-1.442607	0.025531	0.024509	0.030642	-0.161000	-0.097276	0.982149	-0.774248	0.629580	-0.064564	-0.612061	-0.770822	-0.176678
19940	9.575797	-0.395453	-1.445067	0.022172	0.012262	0.037676	-0.161183	-0.097019	0.982144	-0.774305	0.629476	-0.064892	-0.611941	-0.770939	-0.176584
19941	9.580533	-0.459063	-1.448490	0.028835	0.003627	0.041386	-0.161464	-0.096745	0.982125	-0.774406	0.629308	-0.065324	-0.611739	-0.771111	-0.176530
19942	9.612759	-0.488021	-1.492325	0.040417	-0.004312	0.044785	-0.161786	-0.096544	0.982092	-0.774535	0.629104	-0.065750	-0.611490	-0.771302	-0.176557
19943	9.592393	-0.496699	-1.464890	0.047648	-0.009646	0.047627	-0.162197	-0.096333	0.982045	-0.774740	0.628796	-0.066276	-0.611122	-0.771580	-0.176622
19944	9.614952	-0.407749	-1.501461	0.056228	-0.017452	0.052962	-0.162707	-0.096178	0.981976	-0.774987	0.628430	-0.066860	-0.610673	-0.771897	-0.176787
19945	9.605104	-0.295110	-1.494776	0.040351	-0.021518	0.063175	-0.163311	-0.095961	0.981897	-0.775121	0.628193	-0.067526	-0.610341	-0.772117	-0.176972
19946	9.644865	-0.331053	-1.599956	0.000673	-0.025558	0.059662	-0.163890	-0.095818	0.981814	-0.774989	0.628300	-0.068048	-0.610354	-0.772048	-0.177230
19947	9.688908	-0.389427	-1.662232	-0.021853	-0.020971	0.066162	-0.164513	-0.095578	0.981733	-0.774738	0.628546	-0.068633	-0.610505	-0.771877	-0.177452
19948	9.614319	-0.476624	-1.727622	-0.036448	-0.020827	0.064414	-0.165126	-0.095368	0.981651	-0.774381	0.628928	-0.069160	-0.610792	-0.771592	-0.177704
19949	9.589621	-0.536419	-1.838941	-0.024166	-0.014949	0.063016	-0.165688	-0.095101	0.981582	-0.774120	0.629188	-0.069710	-0.610971	-0.771413	-0.177869
19950	9.561136	-0.540577	-1.753274	0.000920	-0.010808	0.064771	-0.166219	-0.094803	0.981521	-0.773973	0.629306	-0.070288	-0.611013	-0.771354	-0.177978
19951	9.530423	-0.497092	-1.641696	-0.008393	-0.011837	0.070256	-0.166818	-0.094466	0.981452	-0.773796	0.629451	-0.070937	-0.611074	-0.771277	-0.178101
19952	9.525558	-0.517534	-1.733305	-0.029889	-0.016147	0.072937	-0.167418	-0.094149	0.981380	-0.773431	0.629833	-0.071520	-0.611372	-0.771003	-0.178263
19953	9.517793	-0.559246	-1.531134	-0.017824	-0.020451	0.073951	-0.168098	-0.093854	0.981292	-0.773189	0.630054	-0.072189	-0.611492	-0.770859	-0.178478
19954	9.573472	-0.609784	-1.562631	-0.041917	-0.028500	0.074388	-0.168805	-0.093642	0.981191	-0.772772	0.630498	-0.072775	-0.611824	-0.770522	-0.178795
19955	9.596857	-0.635696	-1.550715	-0.037588	-0.031129	0.074951	-0.169557	-0.093423	0.981082	-0.772406	0.630871	-0.073418	-0.612078	-0.770243	-0.179129
19956	9.622411	-0.636722	-1.470382	-0.015935	-0.035935	0.076511	-0.170343	-0.093274	0.980960	-0.772158	0.631098	-0.074077	-0.612173	-0.770075	-0.179525
19957	9.603494	-0.658761	-1.424944	-0.012862	-0.044794	0.077310	-0.171196	-0.093145	0.980824	-0.771938	0.631283	-0.074786	-0.612212	-0.769939	-0.179975
19958	9.573915	-0.586704	-1.440385	-0.021534	-0.052855	0.071419	-0.172011	-0.093139	0.980682	-0.771642	0.631577	-0.075363	-0.612357	-0.769698	-0.180508
19959	9.562808	-0.576751	-1.408378	-0.019930	-0.061830	0.073942	-0.172943	-0.093161	0.980516	-0.771383	0.631813	-0.076026	-0.612421	-0.769502	-0.181131
19960	9.541449	-0.586799	-1.387271	-0.028464	-0.078969	0.072294	-0.173944	-0.093368	0.980319	-0.771060	0.632137	-0.076608	-0.612544	-0.769211	-0.181949
19961	9.560117	-0.553581	-1.376339	-0.046373	-0.091748	0.080663	-0.175111	-0.093577	0.980092	-0.770626	0.632583	-0.077288	-0.612757	-0.768818	-0.182885
19962	9.598143	-0.553671	-1.441813	-0.059531	-0.099755	0.078459	-0.176301	-0.093909	0.979846	-0.770105	0.633145	-0.077882	-0.613071	-0.768316	-0.183944
19963	9.573580	-0.588882	-1.492913	-0.078535	-0.108207	0.083173	-0.177587	-0.094227	0.979584	-0.769468	0.633840	-0.078526	-0.613500	-0.767703	-0.185067
19964	9.573036	-0.643640	-1.529831	-0.077707	-0.111410	0.082345	-0.178865	-0.094601	0.979315	-0.768823	0.634548	-0.079123	-0.613937	-0.767072	-0.186229
19965	9.570001	-0.686751	-1.588935	-0.073904	-0.123104	0.080779	-0.180224	-0.095046	0.979023	-0.768215	0.635205	-0.079750	-0.614300	-0.766473	-0.187495
19966	9.588666	-0.737887	-1.655591	-0.070287	-0.128686	0.080702	-0.181583	-0.095545	0.978723	-0.767602	0.635872	-0.080338	-0.614667	-0.765858	-0.188804
19967	9.630307	-0.730896	-1.805347	-0.074136	-0.130706	0.079028	-0.182976	-0.096058	0.978413	-0.766993	0.636529	-0.080945	-0.615013	-0.765247	-0.190145
19968	9.647494	-0.817809	-1.919796	-0.077699	-0.122544	0.074958	-0.184267	-0.096556	0.978122	-0.766348	0.637240	-0.081466	-0.615433	-0.764593	-0.191417
19969	9.603244	-0.873061	-2.093764	-0.065192	-0.114527	0.070801	-0.185497	-0.096994	0.977846	-0.765807	0.637821	-0.082007	-0.615736	-0.764053	-0.192592
19970	9.640842	-0.919655	-2.187181	-0.040517	-0.102935	0.067845	-0.186600	-0.097405	0.977595	-0.765406	0.638237	-0.082506	-0.615901	-0.763653	-0.193649
19971	9.628812	-0.879397	-2.281930	-0.010746	-0.086115	0.072054	-0.187665	-0.097617	0.977370	-0.765196	0.638403	-0.083163	-0.615838	-0.763487	-0.194502
19972	9.577967	-0.762172	-2.245099	-0.008926	-0.076207	0.069448	-0.188647	-0.097795	0.977164	-0.764992	0.638567	-0.083777	-0.615792	-0.763327	-0.195276
19973	9.573554	-0.756610	-2.273196	-0.024162	-0.062166	0.064804	-0.189508	-0.097871	0.976989	-0.764712	0.638829	-0.084337	-0.615875	-0.763098	-0.195906
19974	9.605216	-0.798106	-2.302111	-0.050101	-0.046219	0.061755	-0.190221	-0.097836	0.976854	-0.764250	0.639322	-0.084790	-0.616229	-0.762690	-0.196383
19975	9.594276	-0.870183	-2.342238	-0.062268	-0.032710	0.056666	-0.190838	-0.097738	0.976744	-0.763750	0.639866	-0.085195	-0.616658	-0.762246	-0.196758
19976	9.573168	-0.961471	-2.390503	-0.050586	-0.012782	0.050617	-0.191280	-0.097564	0.976675	-0.763316	0.640338	-0.085528	-0.617058	-0.761871	-0.196956
19977	9.629251	-0.973161	-2.374400	-0.040708	0.000230	0.041461	-0.191577	-0.097312	0.976641	-0.762977	0.640703	-0.085826	-0.617385	-0.761597	-0.196991
19978	9.590729	-1.031112	-2.343868	-0.010959	0.012039	0.039581	-0.191779	-0.097032	0.976630	-0.762810	0.640862	-0.086119	-0.617529	-0.761499	-0.196921
19979	9.588468	-0.921581	-2.140172	0.014961	0.021854	0.036010	-0.191901	-0.096649	0.976644	-0.762825	0.640797	-0.086474	-0.617473	-0.761602	-0.196696
19980	9.583420	-0.884028	-2.031016	-0.002601	0.025326	0.030654	-0.191988	-0.096321	0.976659	-0.762733	0.640872	-0.086730	-0.617559	-0.761581	-0.196507
19981	9.507506	-0.881255	-2.017423	-0.024905	0.030392	0.022959	-0.191958	-0.095957	0.976701	-0.762526	0.641097	-0.086879	-0.617824	-0.761437	-0.196234
19982	9.545885	-0.942431	-1.995292	-0.020760	0.037226	0.017744	-0.191837	-0.095600	0.976759	-0.762336	0.641313	-0.086956	-0.618095	-0.761301	-0.195907
19983	9.572169	-0.927419	-1.929693	-0.026339	0.042010	0.016279	-0.191685	-0.095191	0.976829	-0.762134	0.641543	-0.087037	-0.618393	-0.761158	-0.195522
19984	9.564613	-0.959937	-1.914130	-0.014663	0.044857	0.014139	-0.191479	-0.094807	0.976907	-0.761991	0.641706	-0.087078	-0.618632	-0.761068	-0.195115
19985	9.606083	-0.917922	-1.918572	-0.003485	0.047017	0.008660	-0.191237	-0.094408	0.976993	-0.761944	0.641755	-0.087129	-0.618764	-0.761077	-0.194661
19986	9.560019	-0.842575	-1.895088	-0.004049	0.052054	0.008343	-0.190981	-0.094007	0.977082	-0.761884	0.641821	-0.087167	-0.618917	-0.761070	-0.194198
19987	9.616173	-0.887492	-1.920554	-0.013120	0.050975	0.000963	-0.190656	-0.093628	0.977182	-0.761792	0.641936	-0.087125	-0.619131	-0.761020	-0.193714
19988	9.529074	-0.937911	-1.962041	0.000214	0.056165	-0.005600	-0.190238	-0.093280	0.977296	-0.761774	0.641973	-0.087010	-0.619282	-0.761032	-0.193186
19989	9.504817	-0.953333	-2.018594	0.019323	0.058801	-0.013385	-0.189754	-0.092934	0.977423	-0.761910	0.641828	-0.086890	-0.619262	-0.761197	-0.192597
19990	9.530676	-0.888741	-1.924078	0.050552	0.061966	-0.014222	-0.189221	-0.092622	0.977556	-0.762225	0.641471	-0.086762	-0.619038	-0.761535	-0.191979
19991	9.518373	-0.848759	-1.922330	0.056248	0.065133	-0.012414	-0.188706	-0.092220	0.977694	-0.762588	0.641046	-0.086722	-0.618749	-0.761942	-0.191295
19992	9.559497	-0.757777	-1.897984	0.048514	0.066883	-0.012795	-0.188137	-0.091812	0.977842	-0.762878	0.640714	-0.086620	-0.618565	-0.762270	-0.190583
19993	9.580604	-0.753926	-1.919530	0.033275	0.063891	-0.013572	-0.187621	-0.091427	0.977977	-0.763100	0.640462	-0.086524	-0.618447	-0.762528	-0.189932
19994	9.625929	-0.769502	-1.926298	0.023232	0.072105	-0.018594	-0.186983	-0.091059	0.978134	-0.763252	0.640312	-0.086296	-0.618452	-0.762698	-0.189229
19995	9.556557	-0.834413	-1.891783	0.034825	0.080676	-0.017670	-0.186332	-0.090572	0.978303	-0.763492	0.640044	-0.086162	-0.618353	-0.762981	-0.188412
19996	9.574858	-0.770631	-1.906902	0.038637	0.082659	-0.015951	-0.185657	-0.090074	0.978477	-0.763730	0.639780	-0.086016	-0.618262	-0.763262	-0.187572
19997	9.589175	-0.761583	-1.867254	0.038333	0.089533	-0.017455	-0.184953	-0.089517	0.978662	-0.763990	0.639485	-0.085890	-0.618151	-0.763574	-0.186665
19998	9.580600	-0.780227	-1.867982	0.035394	0.092685	-0.021215	-0.184184	-0.088976	0.978856	-0.764217	0.639241	-0.085691	-0.618101	-0.763842	-0.185735
19999	9.570908	-0.750864	-1.842414	0.041918	0.092663	-0.020249	-0.183440	-0.088413	0.979047	-0.764504	0.638917	-0.085544	-0.617967	-0.764178	-0.184795
20000	9.578159	-0.820920	-1.816234	0.046681	0.099408	-0.019066	-0.182647	-0.087822	0.979248	-0.764801	0.638584	-0.085379	-0.617834	-0.764524	-0.183802
20001	9.579674	-0.735787	-1.732704	0.061199	0.099481	-0.018858	-0.181871	-0.087197	0.979449	-0.765204	0.638114	-0.085280	-0.617564	-0.764988	-0.182778
20002	9.587769	-0.692063	-1.756179	0.047015	0.092137	-0.016017	-0.181164	-0.086694	0.979624	-0.765506	0.637773	-0.085126	-0.617398	-0.765330	-0.181906
20003	9.553534	-0.721007	-1.648116	0.039962	0.096798	-0.015793	-0.180428	-0.086069	0.979815	-0.765772	0.637468	-0.085017	-0.617283	-0.765655	-0.180927
20004	9.504137	-0.782759	-1.640252	0.044237	0.089165	-0.021272	-0.179630	-0.085560	0.980006	-0.766050	0.637165	-0.084785	-0.617172	-0.765964	-0.179997
20005	9.562083	-0.790008	-1.613376	0.058268	0.085181	-0.017146	-0.178955	-0.085032	0.980176	-0.766431	0.636718	-0.084695	-0.616894	-0.766394	-0.179115
20006	9.560223	-0.729775	-1.600256	0.061317	0.084630	-0.017561	-0.178299	-0.084579	0.980335	-0.766822	0.636264	-0.084572	-0.616599	-0.766821	-0.178302
20007	9.557824	-0.706028	-1.634556	0.053647	0.085989	-0.016485	-0.177625	-0.084040	0.980503	-0.767173	0.635853	-0.084479	-0.616357	-0.767221	-0.177417
20008	9.560750	-0.753367	-1.652186	0.056935	0.078947	-0.016884	-0.176946	-0.083574	0.980666	-0.767524	0.635449	-0.084334	-0.616115	-0.767607	-0.176586
20009	9.564079	-0.763888	-1.622964	0.050783	0.075058	-0.022059	-0.176297	-0.083153	0.980818	-0.767866	0.635055	-0.084180	-0.615874	-0.767978	-0.175809
20010	9.567366	-0.773982	-1.593954	0.042714	0.075336	-0.022830	-0.175630	-0.082783	0.980969	-0.768146	0.634745	-0.083961	-0.615715	-0.768274	-0.175070
20011	9.621541	-0.721238	-1.563794	0.048341	0.070187	-0.019768	-0.175029	-0.082385	0.981110	-0.768469	0.634372	-0.083825	-0.615483	-0.768625	-0.174344
20012	9.634879	-0.711707	-1.525598	0.052651	0.067529	-0.019196	-0.174429	-0.082017	0.981248	-0.768800	0.633992	-0.083672	-0.615241	-0.768978	-0.173642
20013	9.658347	-0.682020	-1.478125	0.041305	0.061154	-0.022884	-0.173860	-0.081708	0.981375	-0.769085	0.633670	-0.083492	-0.615046	-0.769276	-0.173010
20014	9.637070	-0.708543	-1.513180	0.020774	0.056412	-0.025330	-0.173269	-0.081439	0.981502	-0.769226	0.633533	-0.083228	-0.615036	-0.769418	-0.172416
20015	9.684115	-0.734340	-1.498842	0.021627	0.053217	-0.026174	-0.172723	-0.081210	0.981617	-0.769395	0.633360	-0.082982	-0.614978	-0.769584	-0.171878
20016	9.661140	-0.712505	-1.508887	0.032069	0.049475	-0.026427	-0.172223	-0.081103	0.981714	-0.769624	0.633117	-0.082711	-0.614831	-0.769796	-0.171456
20017	9.595821	-0.649359	-1.438010	0.043088	0.045688	-0.020310	-0.171768	-0.080896	0.981810	-0.769915	0.632783	-0.082559	-0.614595	-0.770092	-0.170975
20018	9.603325	-0.531691	-1.372357	0.031294	0.043583	-0.021336	-0.171310	-0.080779	0.981900	-0.770127	0.632556	-0.082324	-0.614456	-0.770291	-0.170573
20019	9.551429	-0.508387	-1.296980	0.018795	0.035218	-0.015767	-0.170955	-0.080623	0.981975	-0.770261	0.632413	-0.082174	-0.614388	-0.770425	-0.170215
20020	9.563856	-0.498701	-1.262946	-0.004235	0.022639	-0.010250	-0.170718	-0.080576	0.982020	-0.770233	0.632468	-0.082006	-0.614489	-0.770384	-0.170036
20021	9.576042	-0.525884	-1.277485	-0.026125	0.008704	-0.006775	-0.170595	-0.080567	0.982042	-0.770075	0.632679	-0.081868	-0.614721	-0.770212	-0.169974
20022	9.600022	-0.581382	-1.309145	-0.038682	0.000712	-0.002724	-0.170540	-0.080633	0.982046	-0.769823	0.633006	-0.081711	-0.615052	-0.769936	-0.170026
20023	9.585065	-0.654835	-1.264702	-0.037175	-0.007885	-0.001714	-0.170558	-0.080721	0.982036	-0.769587	0.633306	-0.081604	-0.615342	-0.769681	-0.170137
20024	9.548954	-0.643438	-1.312811	-0.026512	-0.021452	0.005300	-0.170687	-0.080918	0.981997	-0.769399	0.633545	-0.081529	-0.615542	-0.769463	-0.170396
20025	9.533044	-0.555728	-1.295400	-0.029530	-0.034595	0.002412	-0.170901	-0.081185	0.981938	-0.769203	0.633789	-0.081475	-0.615726	-0.769234	-0.170763
20026	9.542693	-0.536009	-1.289480	-0.033579	-0.042156	0.010612	-0.171203	-0.081584	0.981852	-0.768974	0.634076	-0.081397	-0.615929	-0.768955	-0.171291
20027	9.550325	-0.505196	-1.306325	-0.046957	-0.060646	0.012213	-0.171653	-0.081989	0.981740	-0.768655	0.634462	-0.081410	-0.616202	-0.768593	-0.171928
20028	9.539066	-0.562381	-1.369838	-0.056460	-0.069187	0.015862	-0.172165	-0.082429	0.981613	-0.768259	0.634940	-0.081427	-0.616553	-0.768152	-0.172642
20029	9.563774	-0.594625	-1.340482	-0.049512	-0.076817	0.021424	-0.172786	-0.082899	0.981465	-0.767907	0.635352	-0.081524	-0.616817	-0.767760	-0.173439
20030	9.506486	-0.551599	-1.319794	-0.046364	-0.086449	0.025246	-0.173503	-0.083447	0.981292	-0.767558	0.635757	-0.081649	-0.617050	-0.767365	-0.174356
20031	9.533679	-0.518833	-1.368174	-0.060471	-0.094180	0.029535	-0.174294	-0.083998	0.981105	-0.767125	0.636261	-0.081806	-0.617367	-0.766888	-0.175333
20032	9.578221	-0.548907	-1.369246	-0.081050	-0.102286	0.034354	-0.175105	-0.084627	0.980906	-0.766561	0.636929	-0.081890	-0.617837	-0.766263	-0.176401
20033	9.563954	-0.595991	-1.458567	-0.084445	-0.111923	0.037186	-0.176064	-0.085264	0.980679	-0.765964	0.637622	-0.082078	-0.618305	-0.765616	-0.177571
20034	9.584108	-0.606487	-1.476512	-0.085827	-0.117772	0.035920	-0.176969	-0.086023	0.980450	-0.765371	0.638326	-0.082142	-0.618780	-0.764945	-0.178804
20035	9.562869	-0.696329	-1.534490	-0.086572	-0.129035	0.036496	-0.178030	-0.086793	0.980190	-0.764761	0.639034	-0.082317	-0.619230	-0.764266	-0.180143
20036	9.574296	-0.738389	-1.542413	-0.084876	-0.130466	0.040841	-0.179041	-0.087554	0.979938	-0.764154	0.639741	-0.082457	-0.619687	-0.763587	-0.181445
20037	9.541833	-0.686196	-1.634873	-0.082018	-0.138592	0.038607	-0.180178	-0.088381	0.979655	-0.763568	0.640416	-0.082659	-0.620081	-0.762926	-0.182874
20038	9.565330	-0.720242	-1.612746	-0.076408	-0.143764	0.041654	-0.181337	-0.089237	0.979364	-0.763003	0.641061	-0.082865	-0.620438	-0.762284	-0.184336
20039	9.576393	-0.684797	-1.719235	-0.073587	-0.146551	0.043946	-0.182564	-0.090088	0.979058	-0.762457	0.641676	-0.083131	-0.620749	-0.761667	-0.185835
20040	9.607086	-0.724211	-1.756956	-0.071953	-0.147608	0.046778	-0.183801	-0.090924	0.978749	-0.761906	0.642295	-0.083412	-0.621061	-0.761046	-0.187330
20041	9.635556	-0.751820	-1.816092	-0.065797	-0.145714	0.040206	-0.184995	-0.091791	0.978443	-0.761414	0.642846	-0.083653	-0.621310	-0.760476	-0.188814
20042	9.587600	-0.774186	-1.864573	-0.066255	-0.141463	0.042937	-0.186179	-0.092640	0.978139	-0.760908	0.643414	-0.083893	-0.621576	-0.759893	-0.190281
20043	9.570780	-0.821111	-1.957371	-0.052303	-0.141705	0.038255	-0.187333	-0.093487	0.977838	-0.760502	0.643861	-0.084139	-0.621725	-0.759410	-0.191714
20044	9.569931	-0.835487	-1.949788	-0.043362	-0.136863	0.036939	-0.188441	-0.094270	0.977550	-0.760134	0.644262	-0.084400	-0.621841	-0.758973	-0.193063
20045	9.542834	-0.818387	-1.977464	-0.037261	-0.132635	0.040597	-0.189557	-0.095032	0.977260	-0.759816	0.644597	-0.084697	-0.621890	-0.758593	-0.194394
20046	9.592026	-0.806543	-2.015538	-0.036736	-0.128952	0.038243	-0.190639	-0.095743	0.976980	-0.759488	0.644944	-0.084996	-0.621960	-0.758208	-0.195667
20047	9.599727	-0.789828	-2.018171	-0.032303	-0.123676	0.039098	-0.191687	-0.096445	0.976706	-0.759204	0.645241	-0.085286	-0.621985	-0.757867	-0.196906
20048	9.605244	-0.761435	-2.041681	-0.027110	-0.121203	0.037565	-0.192689	-0.097188	0.976435	-0.758953	0.645504	-0.085522	-0.621981	-0.757548	-0.198143
20049	9.602572	-0.764621	-2.053029	-0.024677	-0.111000	0.039838	-0.193664	-0.097789	0.976182	-0.758714	0.645744	-0.085834	-0.621970	-0.757266	-0.199251
20050	9.609002	-0.784047	-2.101415	-0.033879	-0.100621	0.038548	-0.194567	-0.098380	0.975943	-0.758417	0.646061	-0.086074	-0.622051	-0.756919	-0.200315
20051	9.592505	-0.878299	-2.216217	-0.028361	-0.093284	0.030092	-0.195358	-0.098909	0.975732	-0.758173	0.646319	-0.086283	-0.622100	-0.756630	-0.201254
20052	9.544784	-0.899996	-2.258498	-0.008454	-0.082802	0.028931	-0.196099	-0.099420	0.975531	-0.758048	0.646437	-0.086500	-0.622020	-0.756462	-0.202131
20053	9.544638	-0.867227	-2.217998	0.031534	-0.071355	0.032289	-0.196770	-0.099768	0.975360	-0.758172	0.646245	-0.086851	-0.621657	-0.756580	-0.202803
20054	9.520561	-0.814496	-2.190814	0.014311	-0.066375	0.027313	-0.197331	-0.100182	0.975205	-0.758200	0.646187	-0.087038	-0.621445	-0.756575	-0.203470
20055	9.570910	-0.802713	-2.222321	0.002309	-0.056597	0.031030	-0.197900	-0.100427	0.975064	-0.758144	0.646214	-0.087317	-0.621332	-0.756519	-0.204024
20056	9.561269	-0.837082	-2.215458	0.008231	-0.042466	0.027409	-0.198358	-0.100615	0.974952	-0.758119	0.646212	-0.087554	-0.621216	-0.756497	-0.204459
20057	9.608198	-0.832240	-2.164461	0.007169	-0.038106	0.023755	-0.198757	-0.100767	0.974855	-0.758108	0.646195	-0.087772	-0.621102	-0.756490	-0.204828
20058	9.583095	-0.814660	-2.181583	0.017922	-0.025974	0.023955	-0.199037	-0.100822	0.974792	-0.758154	0.646114	-0.087976	-0.620957	-0.756552	-0.205039
20059	9.582093	-0.769770	-2.156930	0.009781	-0.014213	0.029355	-0.199331	-0.100757	0.974739	-0.758147	0.646084	-0.088254	-0.620871	-0.756587	-0.205173
20060	9.568835	-0.828159	-2.215337	-0.002058	-0.007520	0.025835	-0.199570	-0.100722	0.974693	-0.758066	0.646153	-0.088444	-0.620892	-0.756533	-0.205307
20061	9.551910	-0.893324	-2.192449	0.008925	0.001123	0.020300	-0.199700	-0.100599	0.974679	-0.758072	0.646120	-0.088632	-0.620843	-0.756577	-0.205292
20062	9.553909	-0.859647	-2.144200	0.029399	0.006540	0.019398	-0.199804	-0.100522	0.974666	-0.758203	0.645942	-0.088811	-0.620650	-0.756740	-0.205278
20063	9.610380	-0.823144	-2.099875	0.021134	0.013361	0.018748	-0.199846	-0.100317	0.974678	-0.758288	0.645815	-0.089009	-0.620533	-0.756875	-0.205133
20064	9.582841	-0.859963	-2.058132	0.011262	0.020850	0.016820	-0.199836	-0.100099	0.974703	-0.758302	0.645779	-0.089149	-0.620518	-0.756935	-0.204955
20065	9.602585	-0.858401	-2.084175	0.018283	0.024889	0.013818	-0.199769	-0.099839	0.974743	-0.758379	0.645668	-0.089293	-0.620446	-0.757063	-0.204700
20066	9.583308	-0.815682	-2.026682	0.012879	0.028919	0.015398	-0.199661	-0.099469	0.974803	-0.758399	0.645623	-0.089457	-0.620457	-0.757151	-0.204342
20067	9.551282	-0.828396	-2.026247	0.012918	0.031931	0.009674	-0.199519	-0.099181	0.974862	-0.758451	0.645549	-0.089550	-0.620439	-0.757251	-0.204023
20068	9.545879	-0.872725	-1.989977	0.013905	0.036694	0.009123	-0.199336	-0.098898	0.974928	-0.758501	0.645482	-0.089607	-0.620436	-0.757346	-0.203682
20069	9.494238	-0.840684	-1.934190	0.023429	0.036479	0.008042	-0.199153	-0.098587	0.974997	-0.758622	0.645327	-0.089704	-0.620348	-0.757519	-0.203309
20070	9.488490	-0.837246	-1.871341	0.027657	0.034183	0.007025	-0.198901	-0.098378	0.975069	-0.758785	0.645136	-0.089692	-0.620229	-0.757708	-0.202966
20071	9.469253	-0.793860	-1.813364	0.023532	0.030365	0.006534	-0.198745	-0.098123	0.975127	-0.758909	0.644979	-0.089775	-0.620127	-0.757875	-0.202652
20072	9.441491	-0.781599	-1.744375	0.016737	0.022839	0.003804	-0.198626	-0.097861	0.975177	-0.758963	0.644902	-0.089869	-0.620100	-0.757974	-0.202367
20073	9.522289	-0.763598	-1.684753	0.000540	0.020480	0.008195	-0.198543	-0.097670	0.975213	-0.758941	0.644921	-0.089922	-0.620153	-0.757983	-0.202170
20074	9.511444	-0.736055	-1.666546	-0.009666	0.012055	0.005609	-0.198463	-0.097567	0.975240	-0.758856	0.645024	-0.089898	-0.620282	-0.757908	-0.202053
20075	9.503101	-0.768024	-1.654248	-0.017249	0.004329	0.010986	-0.198503	-0.097480	0.975241	-0.758718	0.645180	-0.089942	-0.620438	-0.757786	-0.202030
20076	9.566119	-0.782270	-1.696725	-0.027024	-0.003025	0.010229	-0.198613	-0.097552	0.975211	-0.758516	0.645421	-0.089918	-0.620650	-0.757572	-0.202184
20077	9.544135	-0.774155	-1.690573	-0.035348	-0.010269	0.007729	-0.198718	-0.097598	0.975185	-0.758272	0.645711	-0.089893	-0.620914	-0.757319	-0.202320
20078	9.547939	-0.767044	-1.772762	-0.046654	-0.017343	0.007205	-0.198888	-0.097798	0.975130	-0.757957	0.646094	-0.089795	-0.621244	-0.756966	-0.202628
20079	9.572292	-0.882779	-1.813387	-0.024467	-0.018727	0.006098	-0.199034	-0.097918	0.975089	-0.757784	0.646300	-0.089777	-0.621409	-0.756775	-0.202836
20080	9.595192	-0.824441	-1.897658	-0.033516	-0.014427	0.003285	-0.199109	-0.097998	0.975065	-0.757547	0.646587	-0.089707	-0.621673	-0.756519	-0.202980
20081	9.625104	-0.865708	-2.093939	-0.040142	-0.013990	0.000877	-0.199185	-0.098116	0.975038	-0.757287	0.646906	-0.089605	-0.621966	-0.756231	-0.203156
20082	9.557768	-0.859011	-1.972196	0.004413	-0.008796	-0.001029	-0.199154	-0.098236	0.975032	-0.757318	0.646883	-0.089510	-0.621939	-0.756235	-0.203225
20083	9.561338	-0.803625	-2.027331	-0.023943	-0.011630	-0.003515	-0.199182	-0.098364	0.975013	-0.757167	0.647075	-0.089399	-0.622113	-0.756054	-0.203364
20084	9.507152	-0.853545	-2.050238	-0.015260	-0.002930	-0.000691	-0.199145	-0.098405	0.975017	-0.757055	0.647219	-0.089305	-0.622261	-0.755926	-0.203389
20085	9.528909	-0.861464	-2.057693	-0.012357	-0.002709	-0.004181	-0.199113	-0.098470	0.975017	-0.756977	0.647323	-0.089211	-0.622366	-0.755829	-0.203430
20086	9.550726	-0.869194	-2.064949	-0.016310	0.001434	-0.004347	-0.199047	-0.098463	0.975031	-0.756853	0.647481	-0.089122	-0.622538	-0.755694	-0.203401
20087	9.542463	-0.899891	-2.053018	0.000959	0.008172	-0.007780	-0.198920	-0.098469	0.975056	-0.756865	0.647480	-0.089020	-0.622564	-0.755694	-0.203324
20088	9.544446	-0.815537	-1.977943	0.008959	0.008235	-0.008628	-0.198753	-0.098505	0.975087	-0.756932	0.647421	-0.088883	-0.622536	-0.755740	-0.203239
20089	9.574624	-0.744104	-1.969015	0.005006	0.012377	-0.008795	-0.198592	-0.098486	0.975121	-0.756972	0.647389	-0.088779	-0.622539	-0.755770	-0.203118
20090	9.576946	-0.707440	-1.920080	-0.005975	0.012481	-0.005969	-0.198366	-0.098338	0.975182	-0.756915	0.647469	-0.088675	-0.622680	-0.755720	-0.202869
20091	9.549358	-0.741381	-1.879094	-0.009543	0.012360	-0.008845	-0.198204	-0.098320	0.975217	-0.756864	0.647547	-0.088541	-0.622793	-0.755656	-0.202761
20092	9.590920	-0.745484	-1.913374	-0.009467	0.011970	-0.007333	-0.198053	-0.098365	0.975243	-0.756807	0.647637	-0.088371	-0.622911	-0.755573	-0.202710
20093	9.528442	-0.779031	-1.896367	-0.004370	0.011812	-0.004690	-0.197926	-0.098323	0.975273	-0.756780	0.647679	-0.088288	-0.622984	-0.755542	-0.202602
20094	9.563567	-0.778956	-1.871389	-0.007861	0.011301	-0.006056	-0.197847	-0.098334	0.975288	-0.756718	0.647765	-0.088197	-0.623084	-0.755468	-0.202570
20095	9.556843	-0.742932	-1.934143	-0.007784	0.010911	-0.004545	-0.197728	-0.098299	0.975316	-0.756670	0.647833	-0.088108	-0.623181	-0.755413	-0.202474
20096	9.540280	-0.805268	-1.910078	-0.001313	0.011255	-0.005156	-0.197575	-0.098264	0.975350	-0.756654	0.647866	-0.088004	-0.623249	-0.755390	-0.202354
20097	9.535902	-0.781298	-1.951431	0.007120	0.012389	-0.004167	-0.197449	-0.098214	0.975381	-0.756697	0.647822	-0.087949	-0.623236	-0.755434	-0.202230
20098	9.546509	-0.713742	-1.914096	0.017546	0.008592	-0.004610	-0.197367	-0.098211	0.975398	-0.756790	0.647718	-0.087915	-0.623149	-0.755523	-0.202163
20099	9.511852	-0.713510	-1.936957	0.015935	0.011573	0.004377	-0.197310	-0.098113	0.975419	-0.756872	0.647617	-0.087961	-0.623068	-0.755623	-0.202040
20100	9.513953	-0.678196	-1.888243	0.008399	0.006855	0.004021	-0.197249	-0.097979	0.975445	-0.756879	0.647603	-0.088004	-0.623079	-0.755652	-0.201897
20101	9.525112	-0.706738	-1.904470	-0.000312	0.003873	0.004220	-0.197240	-0.097939	0.975451	-0.756859	0.647624	-0.088016	-0.623105	-0.755639	-0.201864
20102	9.503696	-0.746619	-1.923539	0.003254	0.003994	0.007098	-0.197313	-0.097982	0.975432	-0.756854	0.647626	-0.088044	-0.623088	-0.755632	-0.201944
20103	9.494920	-0.731218	-1.885181	0.009524	0.002101	0.009189	-0.197352	-0.097925	0.975430	-0.756887	0.647578	-0.088125	-0.623037	-0.755681	-0.201919
20104	9.527379	-0.721019	-1.882483	0.000535	-0.002728	0.010577	-0.197437	-0.097951	0.975410	-0.756862	0.647600	-0.088167	-0.623039	-0.755658	-0.201996
20105	9.557848	-0.746768	-1.927693	-0.005227	-0.000155	0.011830	-0.197510	-0.097893	0.975401	-0.756797	0.647666	-0.088244	-0.623095	-0.755610	-0.202006
20106	9.601032	-0.717015	-1.915284	-0.003267	0.000634	0.013430	-0.197589	-0.097903	0.975384	-0.756747	0.647719	-0.088284	-0.623131	-0.755563	-0.202070
20107	9.579493	-0.757707	-1.934550	-0.011579	0.004444	0.018493	-0.197684	-0.097768	0.975378	-0.756629	0.647839	-0.088413	-0.623244	-0.755477	-0.202041
20108	9.588524	-0.823038	-1.998848	-0.006402	0.001581	0.012385	-0.197738	-0.097707	0.975373	-0.756548	0.647926	-0.088470	-0.623326	-0.755410	-0.202040
20109	9.531823	-0.815245	-2.015521	0.005444	0.003611	0.013233	-0.197799	-0.097612	0.975371	-0.756546	0.647913	-0.088582	-0.623308	-0.755434	-0.202004
20110	9.542546	-0.796938	-2.005349	0.013368	0.004063	0.010880	-0.197806	-0.097609	0.975369	-0.756613	0.647831	-0.088611	-0.623226	-0.755505	-0.201997
20111	9.534151	-0.829678	-1.993027	0.016243	0.010004	0.010424	-0.197805	-0.097484	0.975382	-0.756684	0.647733	-0.088717	-0.623139	-0.755605	-0.201889
20112	9.523178	-0.803120	-1.975241	0.016470	0.008835	0.014958	-0.197856	-0.097338	0.975386	-0.756727	0.647662	-0.088868	-0.623070	-0.755685	-0.201802
20113	9.527892	-0.827971	-1.931502	0.004138	0.014866	0.008073	-0.197807	-0.097191	0.975411	-0.756728	0.647653	-0.088927	-0.623085	-0.755711	-0.201658
20114	9.560641	-0.817971	-1.927306	0.011267	0.015105	0.013832	-0.197813	-0.097041	0.975425	-0.756752	0.647610	-0.089039	-0.623055	-0.755767	-0.201541
20115	9.558587	-0.807630	-1.946857	0.011827	0.018799	0.011454	-0.197765	-0.096842	0.975454	-0.756794	0.647547	-0.089146	-0.623019	-0.755847	-0.201352
20116	9.563114	-0.784758	-1.875892	0.010653	0.020536	0.012008	-0.197694	-0.096743	0.975478	-0.756854	0.647472	-0.089174	-0.622968	-0.755924	-0.201221
20117	9.552639	-0.805546	-1.883738	0.007906	0.017221	0.008253	-0.197632	-0.096577	0.975507	-0.756878	0.647435	-0.089241	-0.622959	-0.755977	-0.201051
20118	9.605301	-0.839792	-1.933983	0.014377	0.017559	0.007648	-0.197545	-0.096465	0.975536	-0.756960	0.647335	-0.089272	-0.622887	-0.756077	-0.200898
20119	9.575036	-0.815931	-1.886903	0.023294	0.022767	0.004755	-0.197422	-0.096280	0.975579	-0.757086	0.647178	-0.089337	-0.622772	-0.756235	-0.200660
20120	9.594652	-0.765622	-1.886521	0.012978	0.020463	0.003668	-0.197254	-0.096183	0.975623	-0.757170	0.647086	-0.089292	-0.622724	-0.756325	-0.200467
20121	9.525753	-0.813112	-1.958665	0.010035	0.025967	0.010183	-0.197152	-0.095939	0.975667	-0.757203	0.647035	-0.089383	-0.622715	-0.756401	-0.200209
20122	9.528124	-0.778101	-1.908366	0.026986	0.025507	0.003431	-0.196964	-0.095763	0.975723	-0.757368	0.646839	-0.089402	-0.622574	-0.756590	-0.199932
20123	9.528872	-0.826805	-1.932256	0.015719	0.023777	0.007427	-0.196855	-0.095553	0.975765	-0.757443	0.646742	-0.089476	-0.622518	-0.756700	-0.199690
20124	9.533084	-0.755865	-1.834414	0.025676	0.024620	0.008201	-0.196641	-0.095392	0.975824	-0.757614	0.646542	-0.089466	-0.622377	-0.756891	-0.199407
20125	9.553042	-0.753542	-1.860354	-0.007184	0.022263	0.007852	-0.196545	-0.095191	0.975863	-0.757545	0.646619	-0.089499	-0.622492	-0.756851	-0.199201
20126	9.512638	-0.844561	-1.875883	0.009990	0.020633	0.005645	-0.196439	-0.095110	0.975892	-0.757592	0.646566	-0.089483	-0.622468	-0.756906	-0.199065
20127	9.512976	-0.875837	-1.750632	0.028974	0.020568	0.002019	-0.196309	-0.094960	0.975933	-0.757759	0.646363	-0.089531	-0.622306	-0.757098	-0.198843
20128	9.554696	-0.851292	-1.907149	-0.002345	0.014534	0.008668	-0.196236	-0.094848	0.975959	-0.757726	0.646401	-0.089536	-0.622368	-0.757080	-0.198716
20129	9.563105	-0.803281	-1.767583	0.032776	0.017196	-0.000820	-0.196105	-0.094741	0.975995	-0.757923	0.646166	-0.089564	-0.622170	-0.757293	-0.198523
20130	9.541518	-0.795335	-1.759174	0.004516	0.010604	0.005365	-0.196072	-0.094733	0.976003	-0.757942	0.646147	-0.089549	-0.622158	-0.757311	-0.198493
20131	9.548654	-0.848116	-1.844017	0.000993	0.004761	-0.000548	-0.196021	-0.094719	0.976014	-0.757940	0.646153	-0.089516	-0.622176	-0.757307	-0.198451
20132	9.535762	-0.886648	-1.751113	0.029115	0.008730	-0.002514	-0.195880	-0.094702	0.976044	-0.758134	0.645931	-0.089476	-0.621984	-0.757499	-0.198322
20133	9.590373	-0.853628	-1.877601	0.016564	0.003796	-0.004029	-0.195809	-0.094718	0.976057	-0.758236	0.645816	-0.089441	-0.621882	-0.757595	-0.198275
20134	9.557605	-0.817167	-1.853298	0.032244	0.007780	-0.001459	-0.195641	-0.094767	0.976086	-0.758483	0.645539	-0.089352	-0.621634	-0.757825	-0.198173
20135	9.564476	-0.822189	-1.911518	0.022569	0.008783	-0.003430	-0.195543	-0.094741	0.976108	-0.758621	0.645379	-0.089333	-0.621496	-0.757965	-0.198072
20136	9.545042	-0.825353	-1.882345	0.031241	0.006412	-0.008146	-0.195401	-0.094780	0.976133	-0.758831	0.645143	-0.089260	-0.621285	-0.758161	-0.197984
20137	9.545612	-0.873108	-1.907616	0.027436	0.009784	-0.005306	-0.195282	-0.094759	0.976159	-0.759003	0.644944	-0.089233	-0.621112	-0.758332	-0.197868
20138	9.521851	-0.852505	-1.920965	0.021422	0.008186	-0.013143	-0.194988	-0.094713	0.976222	-0.759150	0.644792	-0.089073	-0.621024	-0.758467	-0.197628
20139	9.559028	-0.864041	-1.874583	0.032622	0.006904	-0.011394	-0.194840	-0.094753	0.976247	-0.759366	0.644549	-0.088996	-0.620806	-0.758669	-0.197536
20140	9.534882	-0.795465	-1.861734	0.031374	0.009028	-0.012357	-0.194662	-0.094889	0.976270	-0.759601	0.644293	-0.088837	-0.620575	-0.758869	-0.197497
20141	9.560988	-0.778808	-1.798487	0.038123	0.011206	-0.014139	-0.194467	-0.094914	0.976306	-0.759856	0.644005	-0.088745	-0.620323	-0.759111	-0.197359
20142	9.550134	-0.749938	-1.780844	0.030662	0.006111	-0.012993	-0.194278	-0.094994	0.976336	-0.760081	0.643759	-0.088611	-0.620107	-0.759310	-0.197271
20143	9.574358	-0.769360	-1.765595	0.021135	0.006337	-0.011947	-0.194130	-0.095041	0.976361	-0.760227	0.643601	-0.088506	-0.619975	-0.759437	-0.197195
20144	9.559473	-0.764760	-1.817276	0.006171	0.005260	-0.013882	-0.193998	-0.095133	0.976378	-0.760263	0.643579	-0.088351	-0.619971	-0.759445	-0.197179
20145	9.564916	-0.882281	-1.826538	-0.001295	0.003548	-0.019980	-0.193807	-0.095253	0.976405	-0.760285	0.643584	-0.088124	-0.620004	-0.759425	-0.197150
20146	9.570172	-0.921721	-1.932752	0.009436	0.006928	-0.017042	-0.193593	-0.095342	0.976438	-0.760387	0.643492	-0.087925	-0.619947	-0.759492	-0.197072
20147	9.596443	-0.873950	-1.993198	0.026386	0.006456	-0.023758	-0.193354	-0.095464	0.976474	-0.760587	0.643283	-0.087716	-0.619775	-0.759654	-0.196990
20148	9.605789	-0.888826	-2.029928	0.027798	0.012288	-0.022480	-0.193061	-0.095442	0.976534	-0.760771	0.643087	-0.087553	-0.619640	-0.759822	-0.196765
20149	9.591487	-0.961929	-1.983389	0.059455	0.016403	-0.021531	-0.192778	-0.095474	0.976587	-0.761172	0.642629	-0.087430	-0.619236	-0.760205	-0.196557
20150	9.582146	-0.848617	-1.890720	0.083173	0.023456	-0.025491	-0.192383	-0.095536	0.976658	-0.761762	0.641954	-0.087258	-0.618634	-0.760768	-0.196277
20151	9.610657	-0.735195	-2.025174	0.042694	0.022470	-0.024765	-0.192038	-0.095542	0.976726	-0.762065	0.641620	-0.087070	-0.618368	-0.761049	-0.196025
20152	9.574237	-0.751831	-1.944348	0.072268	0.031912	-0.023908	-0.191653	-0.095526	0.976803	-0.762550	0.641063	-0.086923	-0.617889	-0.761520	-0.195705
20153	9.606510	-0.823610	-2.011362	0.034236	0.035782	-0.025497	-0.191220	-0.095435	0.976897	-0.762802	0.640792	-0.086712	-0.617712	-0.761759	-0.195330
20154	9.594312	-0.859873	-1.915043	0.058987	0.038495	-0.025768	-0.190713	-0.095268	0.977012	-0.763201	0.640341	-0.086537	-0.617376	-0.762160	-0.194830
20155	9.535047	-0.874603	-1.996745	0.052249	0.045031	-0.026714	-0.190213	-0.095114	0.977125	-0.763565	0.639931	-0.086349	-0.617080	-0.762523	-0.194349
20156	9.558997	-0.797550	-1.925153	0.080967	0.048963	-0.022246	-0.189679	-0.094910	0.977248	-0.764112	0.639295	-0.086223	-0.616566	-0.763082	-0.193783
20157	9.551048	-0.780005	-1.881987	0.073100	0.051498	-0.025658	-0.189148	-0.094699	0.977372	-0.764603	0.638727	-0.086084	-0.616122	-0.763584	-0.193221
20158	9.574140	-0.787249	-1.883095	0.065657	0.055111	-0.027245	-0.188627	-0.094630	0.977479	-0.765087	0.638177	-0.085859	-0.615680	-0.764051	-0.192778
20159	9.555617	-0.789096	-1.849175	0.079892	0.053292	-0.025893	-0.188083	-0.094407	0.977605	-0.765618	0.637557	-0.085730	-0.615185	-0.764597	-0.192194
20160	9.568800	-0.731741	-1.786609	0.081828	0.054088	-0.024275	-0.187483	-0.094271	0.977734	-0.766211	0.636874	-0.085517	-0.614631	-0.765183	-0.191634
20161	9.571267	-0.694294	-1.733849	0.077853	0.049507	-0.021741	-0.186994	-0.094049	0.977849	-0.766721	0.636272	-0.085423	-0.614143	-0.765711	-0.191088
20162	9.591304	-0.642437	-1.730944	0.071730	0.050620	-0.020850	-0.186490	-0.093810	0.977968	-0.767205	0.635702	-0.085320	-0.613693	-0.766213	-0.190524
20163	9.565305	-0.639138	-1.638728	0.065464	0.043777	-0.020241	-0.186048	-0.093622	0.978070	-0.767635	0.635196	-0.085217	-0.613288	-0.766656	-0.190045
20164	9.578767	-0.629838	-1.603324	0.058370	0.040135	-0.018785	-0.185557	-0.093532	0.978172	-0.768069	0.634700	-0.085011	-0.612894	-0.767078	-0.189612
20165	9.551200	-0.663069	-1.559353	0.053568	0.033390	-0.019911	-0.185181	-0.093421	0.978254	-0.768425	0.634285	-0.084888	-0.612561	-0.767434	-0.189244
20166	9.585106	-0.698781	-1.578883	0.047311	0.026549	-0.019305	-0.184753	-0.093421	0.978335	-0.768799	0.633863	-0.084656	-0.612221	-0.767783	-0.188930
20167	9.564553	-0.737360	-1.595292	0.048973	0.020148	-0.020990	-0.184450	-0.093418	0.978392	-0.769129	0.633481	-0.084513	-0.611898	-0.768098	-0.188696
20168	9.592070	-0.739059	-1.680345	0.051884	0.017003	-0.017192	-0.184107	-0.093418	0.978457	-0.769510	0.633040	-0.084352	-0.611522	-0.768462	-0.188433
20169	9.597609	-0.732720	-1.759074	0.057782	0.013676	-0.015342	-0.183887	-0.093429	0.978497	-0.769883	0.632596	-0.084281	-0.611119	-0.768826	-0.188256
20170	9.550821	-0.740743	-1.812852	0.060003	0.010943	-0.019425	-0.183627	-0.093452	0.978544	-0.770264	0.632146	-0.084172	-0.610717	-0.769193	-0.188061
20171	9.571070	-0.737321	-1.839109	0.072839	0.017378	-0.017552	-0.183367	-0.093448	0.978593	-0.770732	0.631584	-0.084107	-0.610204	-0.769655	-0.187835
20172	9.516172	-0.691811	-1.807913	0.077206	0.014332	-0.015477	-0.183082	-0.093530	0.978638	-0.771269	0.630944	-0.083987	-0.609611	-0.770170	-0.187652
20173	9.546921	-0.669093	-1.824557	0.076431	0.017157	-0.013118	-0.182858	-0.093500	0.978683	-0.771750	0.630357	-0.083972	-0.609069	-0.770654	-0.187424
20174	9.578828	-0.609676	-1.794030	0.068157	0.020636	-0.006653	-0.182562	-0.093420	0.978746	-0.772225	0.629782	-0.083929	-0.608556	-0.771134	-0.187115
20175	9.553159	-0.570084	-1.657661	0.053782	0.019852	-0.003815	-0.182393	-0.093310	0.978788	-0.772551	0.629378	-0.083962	-0.608193	-0.771477	-0.186880
20176	9.566984	-0.610142	-1.650128	0.033377	0.014433	-0.003090	-0.182188	-0.093329	0.978824	-0.772822	0.629056	-0.083865	-0.607909	-0.771737	-0.186734
20177	9.571377	-0.632940	-1.605340	0.019698	0.016575	0.000360	-0.182071	-0.093218	0.978857	-0.772933	0.628919	-0.083875	-0.607803	-0.771862	-0.186559
20178	9.638429	-0.707089	-1.648625	0.004983	0.014334	0.002879	-0.181937	-0.093081	0.978895	-0.772957	0.628892	-0.083862	-0.607813	-0.771901	-0.186367
20179	9.644772	-0.741110	-1.582804	0.009710	0.007371	0.000784	-0.181880	-0.093038	0.978909	-0.773006	0.628832	-0.083857	-0.607767	-0.771955	-0.186291
20180	9.663641	-0.775706	-1.657254	0.003813	0.001994	0.001705	-0.181794	-0.092968	0.978932	-0.773040	0.628792	-0.083843	-0.607750	-0.771995	-0.186179
20181	9.643729	-0.778934	-1.629067	0.017762	-0.001631	0.004320	-0.181819	-0.092972	0.978927	-0.773132	0.628674	-0.083888	-0.607626	-0.772092	-0.186184
20182	9.635211	-0.810728	-1.617076	0.029220	-0.006419	0.000472	-0.181797	-0.093080	0.978921	-0.773326	0.628438	-0.083861	-0.607385	-0.772270	-0.186230
20183	9.574642	-0.695164	-1.606547	0.038518	-0.008835	0.002217	-0.181849	-0.093153	0.978904	-0.773547	0.628157	-0.083924	-0.607087	-0.772490	-0.186288
20184	9.507627	-0.622115	-1.562705	0.030747	-0.015395	0.003048	-0.181915	-0.093273	0.978880	-0.773729	0.627929	-0.083958	-0.606836	-0.772662	-0.186398
20185	9.504105	-0.649100	-1.632801	0.012215	-0.022935	0.011132	-0.182121	-0.093399	0.978830	-0.773775	0.627859	-0.084059	-0.606716	-0.772703	-0.186616
20186	9.506625	-0.709714	-1.638896	0.003895	-0.029847	0.007111	-0.182289	-0.093634	0.978776	-0.773810	0.627816	-0.084056	-0.606621	-0.772709	-0.186899
20187	9.537394	-0.736207	-1.685624	0.005767	-0.028666	0.007205	-0.182499	-0.093829	0.978719	-0.773823	0.627793	-0.084107	-0.606541	-0.772705	-0.187179
20188	9.538914	-0.748357	-1.666792	0.012010	-0.030524	0.009377	-0.182682	-0.094053	0.978663	-0.773917	0.627672	-0.084142	-0.606366	-0.772775	-0.187453
20189	9.544675	-0.707049	-1.703474	0.002502	-0.030307	0.010361	-0.182927	-0.094241	0.978599	-0.773905	0.627677	-0.084217	-0.606307	-0.772749	-0.187752
20190	9.551262	-0.714272	-1.765630	-0.005966	-0.034399	0.015062	-0.183234	-0.094398	0.978527	-0.773808	0.627781	-0.084338	-0.606339	-0.772645	-0.188077
20191	9.581833	-0.741362	-1.812689	-0.001597	-0.028745	0.014347	-0.183501	-0.094549	0.978462	-0.773764	0.627821	-0.084445	-0.606315	-0.772594	-0.188364
20192	9.557195	-0.723040	-1.830378	0.005202	-0.026943	0.014100	-0.183698	-0.094691	0.978411	-0.773791	0.627777	-0.084524	-0.606220	-0.772612	-0.188592
20193	9.608860	-0.710338	-1.858375	0.007907	-0.028966	0.013362	-0.183957	-0.094850	0.978347	-0.773806	0.627742	-0.084639	-0.606122	-0.772621	-0.188873
20194	9.569509	-0.689595	-1.928244	0.008046	-0.021009	0.013600	-0.184077	-0.095003	0.978310	-0.773851	0.627685	-0.084652	-0.606029	-0.772648	-0.189061
20195	9.580393	-0.719643	-1.945979	-0.005206	-0.017761	0.018885	-0.184312	-0.095041	0.978262	-0.773776	0.627758	-0.084797	-0.606052	-0.772585	-0.189243
20196	9.560993	-0.772269	-1.944489	-0.008952	-0.011427	0.015910	-0.184542	-0.095055	0.978217	-0.773683	0.627853	-0.084947	-0.606102	-0.772506	-0.189407
20197	9.558564	-0.762533	-1.967040	-0.007840	-0.007412	0.018348	-0.184709	-0.095016	0.978189	-0.773594	0.627945	-0.085081	-0.606165	-0.772436	-0.189491
20198	9.595015	-0.775098	-1.921709	-0.011793	-0.003277	0.018097	-0.184802	-0.094991	0.978174	-0.773503	0.628047	-0.085144	-0.606251	-0.772356	-0.189541
20199	9.605444	-0.756501	-1.912512	-0.012484	0.002496	0.014689	-0.184881	-0.094899	0.978168	-0.773393	0.628171	-0.085234	-0.606369	-0.772266	-0.189531
20200	9.625180	-0.831110	-1.841790	-0.019351	0.006455	0.017904	-0.184905	-0.094760	0.978177	-0.773260	0.628325	-0.085301	-0.606530	-0.772158	-0.189454
20201	9.570868	-0.834932	-1.837164	-0.024829	0.014182	0.010601	-0.184881	-0.094603	0.978197	-0.773082	0.628541	-0.085327	-0.606765	-0.772002	-0.189341
20202	9.590073	-0.784613	-1.838840	-0.014837	0.014676	0.012948	-0.184778	-0.094491	0.978227	-0.773038	0.628599	-0.085300	-0.606853	-0.771968	-0.189196
20203	9.561957	-0.819373	-1.797185	-0.008801	0.013920	0.010567	-0.184755	-0.094337	0.978246	-0.772957	0.628691	-0.085356	-0.606962	-0.771912	-0.189072
20204	9.541565	-0.774412	-1.742420	-0.005538	0.015559	0.007411	-0.184590	-0.094241	0.978287	-0.772972	0.628681	-0.085287	-0.606993	-0.771932	-0.188894
20205	9.519828	-0.766594	-1.734595	-0.004570	0.011615	0.009610	-0.184574	-0.094111	0.978302	-0.772919	0.628739	-0.085341	-0.607065	-0.771900	-0.188789
20206	9.542250	-0.766628	-1.569508	0.003130	0.009837	0.010043	-0.184409	-0.093975	0.978347	-0.773011	0.628629	-0.085322	-0.606999	-0.772007	-0.188568
20207	9.553616	-0.795975	-1.584800	-0.017278	0.004450	0.010790	-0.184445	-0.093892	0.978348	-0.772879	0.628786	-0.085364	-0.607156	-0.771889	-0.188544
20208	9.597390	-0.813703	-1.597847	-0.016866	0.000156	0.008134	-0.184454	-0.093874	0.978348	-0.772760	0.628934	-0.085346	-0.607304	-0.771771	-0.188551
20209	9.583901	-0.774220	-1.603851	-0.016940	-0.004858	0.002137	-0.184480	-0.093917	0.978339	-0.772646	0.629080	-0.085304	-0.607442	-0.771646	-0.188617
20210	9.602227	-0.808690	-1.679827	-0.026111	-0.011867	0.006224	-0.184479	-0.094027	0.978328	-0.772543	0.629220	-0.085201	-0.607573	-0.771519	-0.188718
20211	9.534951	-0.820200	-1.708251	-0.019794	-0.010791	0.002636	-0.184545	-0.094113	0.978308	-0.772410	0.629389	-0.085158	-0.607721	-0.771370	-0.188845
20212	9.531325	-0.845869	-1.777881	0.001790	-0.012532	-0.003121	-0.184511	-0.094241	0.978302	-0.772444	0.629361	-0.085058	-0.607689	-0.771377	-0.188920
20213	9.532455	-0.808595	-1.732256	0.014071	-0.015156	-0.003340	-0.184557	-0.094399	0.978278	-0.772528	0.629263	-0.085021	-0.607568	-0.771438	-0.189060
20214	9.511614	-0.762932	-1.680434	0.009760	-0.021178	-0.001110	-0.184560	-0.094546	0.978263	-0.772629	0.629147	-0.084960	-0.607439	-0.771515	-0.189164
20215	9.508393	-0.703267	-1.678933	-0.002670	-0.026511	-0.001132	-0.184692	-0.094777	0.978216	-0.772608	0.629180	-0.084912	-0.607426	-0.771460	-0.189430
20216	9.555956	-0.742775	-1.651529	-0.007181	-0.026038	0.001036	-0.184816	-0.095015	0.978169	-0.772574	0.629230	-0.084849	-0.607432	-0.771389	-0.189698
20217	9.567453	-0.685643	-1.598162	-0.015033	-0.032216	0.000365	-0.184994	-0.095281	0.978110	-0.772474	0.629360	-0.084793	-0.607504	-0.771251	-0.190030
20218	9.614165	-0.676584	-1.546697	-0.034899	-0.042639	0.001503	-0.185050	-0.095623	0.978066	-0.772369	0.629517	-0.084586	-0.607621	-0.771080	-0.190349
20219	9.624093	-0.656072	-1.541758	-0.052882	-0.043183	-0.000049	-0.185292	-0.095975	0.977985	-0.772040	0.629938	-0.084454	-0.607965	-0.770692	-0.190820
20220	9.633236	-0.720548	-1.609415	-0.076077	-0.046178	-0.000039	-0.185466	-0.096507	0.977900	-0.771685	0.630415	-0.084141	-0.608363	-0.770236	-0.191394
20221	9.597020	-0.804483	-1.711310	-0.073047	-0.052125	-0.004955	-0.185724	-0.096960	0.977806	-0.771242	0.630986	-0.083921	-0.608845	-0.769711	-0.191969
20222	9.549752	-0.802706	-1.601409	-0.040225	-0.055484	-0.007431	-0.185858	-0.097480	0.977729	-0.771089	0.631209	-0.083646	-0.608998	-0.769463	-0.192481
20223	9.585417	-0.736135	-1.660055	-0.055102	-0.065671	-0.005107	-0.186198	-0.098037	0.977609	-0.770756	0.631641	-0.083458	-0.609316	-0.769038	-0.193172
20224	9.548131	-0.771436	-1.738045	-0.056027	-0.067476	-0.010263	-0.186481	-0.098651	0.977493	-0.770433	0.632070	-0.083189	-0.609637	-0.768606	-0.193873
20225	9.530156	-0.831781	-1.720988	-0.052930	-0.073791	-0.013673	-0.186805	-0.099324	0.977363	-0.770129	0.632476	-0.082921	-0.609923	-0.768185	-0.194642
20226	9.527337	-0.866665	-1.775662	-0.045438	-0.077782	-0.010542	-0.187127	-0.100020	0.977231	-0.769914	0.632771	-0.082664	-0.610096	-0.767852	-0.195415
20227	9.522170	-0.890699	-1.851785	-0.026680	-0.074691	-0.006895	-0.187509	-0.100656	0.977092	-0.769757	0.632982	-0.082513	-0.610176	-0.767595	-0.196171
20228	9.517418	-0.781697	-1.829546	-0.006917	-0.077963	-0.011311	-0.187828	-0.101425	0.976951	-0.769814	0.632941	-0.082293	-0.610006	-0.767528	-0.196963
20229	9.578234	-0.698203	-1.827739	-0.017534	-0.076380	-0.008220	-0.188210	-0.102083	0.976809	-0.769715	0.633080	-0.082146	-0.610012	-0.767326	-0.197727
20230	9.567749	-0.651537	-1.920989	-0.021845	-0.073706	-0.008743	-0.188484	-0.102729	0.976688	-0.769655	0.633181	-0.081932	-0.610004	-0.767156	-0.198411
20231	9.565833	-0.601818	-1.902761	-0.035621	-0.076563	-0.011198	-0.188845	-0.103407	0.976547	-0.769452	0.633455	-0.081720	-0.610148	-0.766839	-0.199191
20232	9.559003	-0.690858	-1.902139	-0.062752	-0.070068	-0.006808	-0.189153	-0.103978	0.976427	-0.769093	0.633921	-0.081483	-0.610505	-0.766376	-0.199877
20233	9.536893	-0.776947	-1.953671	-0.053253	-0.070290	-0.007850	-0.189501	-0.104586	0.976295	-0.768776	0.634334	-0.081268	-0.610797	-0.765952	-0.200610
20234	9.570943	-0.823523	-1.962401	-0.038390	-0.068803	-0.007448	-0.189694	-0.105166	0.976195	-0.768656	0.634512	-0.081009	-0.610888	-0.765725	-0.201200
20235	9.556127	-0.782465	-1.974374	-0.025404	-0.068497	-0.007134	-0.190037	-0.105756	0.976064	-0.768507	0.634712	-0.080856	-0.610969	-0.765478	-0.201892
20236	9.565542	-0.761600	-1.971506	-0.016290	-0.064429	-0.005519	-0.190295	-0.106261	0.975959	-0.768469	0.634774	-0.080725	-0.610936	-0.765356	-0.202453
20237	9.569784	-0.669787	-1.985407	-0.015748	-0.060755	-0.007923	-0.190585	-0.106796	0.975844	-0.768381	0.634899	-0.080584	-0.610956	-0.765179	-0.203062
20238	9.607449	-0.662571	-2.048108	-0.028474	-0.059230	-0.009417	-0.190815	-0.107392	0.975734	-0.768276	0.635056	-0.080348	-0.611017	-0.764964	-0.203685
20239	9.596072	-0.729082	-2.088917	-0.035404	-0.054915	-0.007641	-0.191071	-0.107880	0.975630	-0.768067	0.635331	-0.080169	-0.611200	-0.764667	-0.204252
20240	9.612431	-0.761266	-2.169587	-0.033451	-0.045395	-0.008807	-0.191232	-0.108315	0.975550	-0.767891	0.635571	-0.079959	-0.611370	-0.764407	-0.204716
20241	9.592659	-0.810988	-2.171086	-0.021826	-0.036842	-0.008024	-0.191375	-0.108668	0.975483	-0.767766	0.635741	-0.079803	-0.611482	-0.764215	-0.205096
20242	9.576401	-0.806676	-2.226596	-0.010714	-0.028992	-0.010580	-0.191353	-0.108988	0.975452	-0.767779	0.635753	-0.079581	-0.611473	-0.764159	-0.205332
20243	9.603101	-0.723150	-2.243691	-0.002138	-0.019879	-0.009339	-0.191382	-0.109219	0.975420	-0.767777	0.635772	-0.079453	-0.611467	-0.764111	-0.205531
20244	9.556741	-0.694027	-2.252505	0.004913	-0.010487	-0.007867	-0.191267	-0.109394	0.975423	-0.767885	0.635663	-0.079282	-0.611367	-0.764177	-0.205584
20245	9.569398	-0.636859	-2.196576	0.001666	-0.003428	-0.007446	-0.191210	-0.109488	0.975424	-0.767903	0.635654	-0.079180	-0.611363	-0.764170	-0.205619
20246	9.536955	-0.647760	-2.198806	-0.000712	0.005797	-0.003379	-0.191006	-0.109434	0.975470	-0.767986	0.635567	-0.079077	-0.611322	-0.764251	-0.205441
20247	9.568467	-0.653715	-2.093397	-0.003089	0.015021	0.000687	-0.190898	-0.109335	0.975502	-0.767959	0.635603	-0.079045	-0.611390	-0.764235	-0.205300
20248	9.551948	-0.667979	-2.041979	-0.006033	0.018174	-0.003079	-0.190616	-0.109253	0.975566	-0.768001	0.635572	-0.078882	-0.611424	-0.764272	-0.205057
20249	9.554826	-0.679323	-2.018658	0.000201	0.022048	0.002005	-0.190475	-0.109092	0.975612	-0.767992	0.635584	-0.078870	-0.611480	-0.764285	-0.204845
20250	9.549486	-0.722365	-1.983049	0.002161	0.022853	0.003597	-0.190344	-0.108924	0.975656	-0.767980	0.635599	-0.078868	-0.611536	-0.764296	-0.204634
20251	9.541238	-0.705836	-1.943090	0.001726	0.021769	0.001775	-0.190203	-0.108766	0.975701	-0.767980	0.635600	-0.078857	-0.611579	-0.764318	-0.204424
20252	9.556780	-0.661061	-1.863018	0.003333	0.021113	0.003057	-0.190023	-0.108497	0.975766	-0.768005	0.635565	-0.078894	-0.611603	-0.764385	-0.204099
20253	9.559575	-0.672728	-1.839718	-0.003912	0.018221	0.001539	-0.189902	-0.108367	0.975804	-0.767972	0.635609	-0.078869	-0.611683	-0.764367	-0.203927
20254	9.562730	-0.732374	-1.842656	-0.006769	0.012277	0.002043	-0.189786	-0.108282	0.975836	-0.767913	0.635688	-0.078809	-0.611793	-0.764314	-0.203796
20255	9.526588	-0.750167	-1.763356	-0.001949	0.010307	0.005890	-0.189746	-0.108186	0.975855	-0.767883	0.635721	-0.078830	-0.611843	-0.764300	-0.203700
20256	9.581007	-0.747713	-1.767180	0.009556	0.005156	0.003423	-0.189560	-0.108148	0.975895	-0.768030	0.635553	-0.078752	-0.611716	-0.764445	-0.203536
20257	9.567039	-0.660063	-1.746101	0.006378	0.000725	-0.002126	-0.189517	-0.108176	0.975900	-0.768066	0.635514	-0.078712	-0.611684	-0.764473	-0.203527
20258	9.595125	-0.673963	-1.812260	-0.007471	0.000637	0.004181	-0.189412	-0.108106	0.975928	-0.768060	0.635527	-0.078669	-0.611724	-0.764472	-0.203409
20259	9.558153	-0.710660	-1.883511	0.001994	-0.004940	-0.001392	-0.189410	-0.108173	0.975921	-0.768068	0.635523	-0.078627	-0.611715	-0.764467	-0.203458
20260	9.610396	-0.744272	-1.935769	0.003521	-0.005219	-0.001623	-0.189333	-0.108230	0.975930	-0.768125	0.635464	-0.078546	-0.611667	-0.764508	-0.203448
20261	9.551154	-0.724202	-1.974328	0.002619	-0.001640	-0.002285	-0.189303	-0.108276	0.975931	-0.768139	0.635453	-0.078496	-0.611659	-0.764510	-0.203465
20262	9.538010	-0.732438	-2.005303	0.007198	-0.002476	-0.002978	-0.189295	-0.108333	0.975926	-0.768173	0.635417	-0.078463	-0.611620	-0.764532	-0.203499
20263	9.556956	-0.681414	-2.007838	0.013701	0.003238	0.000907	-0.189260	-0.108322	0.975934	-0.768248	0.635325	-0.078467	-0.611536	-0.764610	-0.203460
20264	9.556595	-0.633580	-1.981559	0.009395	0.005912	0.000396	-0.189161	-0.108347	0.975950	-0.768332	0.635232	-0.078399	-0.611461	-0.764683	-0.203408
20265	9.554282	-0.622298	-2.002347	-0.006220	0.007238	0.002393	-0.189114	-0.108296	0.975965	-0.768282	0.635295	-0.078377	-0.611538	-0.764639	-0.203345
20266	9.546638	-0.701961	-2.015251	-0.000503	0.010407	0.004144	-0.189007	-0.108277	0.975988	-0.768331	0.635242	-0.078319	-0.611509	-0.764685	-0.203258
20267	9.566198	-0.699309	-2.042719	-0.005435	0.009782	0.004526	-0.188960	-0.108193	0.976006	-0.768283	0.635301	-0.078319	-0.611584	-0.764649	-0.203169
20268	9.555716	-0.719853	-2.050927	0.013711	0.014349	0.008391	-0.188958	-0.108007	0.976027	-0.768297	0.635269	-0.078443	-0.611567	-0.764701	-0.203021
20269	9.576913	-0.633210	-2.004671	0.021226	0.019077	0.008710	-0.188887	-0.107826	0.976061	-0.768404	0.635128	-0.078538	-0.611455	-0.764844	-0.202821
20270	9.587937	-0.614757	-1.993217	0.009527	0.022014	0.013889	-0.188788	-0.107611	0.976104	-0.768498	0.635002	-0.078629	-0.611367	-0.764979	-0.202580
20271	9.599017	-0.596444	-1.981455	-0.000452	0.026888	0.016120	-0.188726	-0.107322	0.976148	-0.768459	0.635035	-0.078753	-0.611436	-0.764992	-0.202320
20272	9.566945	-0.609270	-1.981355	-0.002412	0.026084	0.014528	-0.188521	-0.107019	0.976221	-0.768493	0.634988	-0.078795	-0.611456	-0.765073	-0.201952
20273	9.563890	-0.664882	-1.923838	-0.003155	0.028906	0.016892	-0.188452	-0.106710	0.976268	-0.768436	0.635042	-0.078921	-0.611549	-0.765072	-0.201675
20274	9.536158	-0.652742	-1.854825	-0.002293	0.031072	0.020541	-0.188403	-0.106328	0.976319	-0.768381	0.635084	-0.079112	-0.611633	-0.765090	-0.201352
20275	9.540886	-0.629528	-1.783331	-0.008596	0.029973	0.024177	-0.188384	-0.105965	0.976362	-0.768276	0.635188	-0.079298	-0.611770	-0.765054	-0.201069
20276	9.499943	-0.626177	-1.745495	-0.014510	0.024590	0.025137	-0.188305	-0.105660	0.976410	-0.768222	0.635238	-0.079414	-0.611862	-0.765054	-0.200789
20277	9.472365	-0.662723	-1.703117	-0.018389	0.019633	0.029205	-0.188387	-0.105344	0.976429	-0.768048	0.635422	-0.079630	-0.612055	-0.764946	-0.200615
20278	9.515644	-0.633952	-1.689919	-0.031471	0.010990	0.030146	-0.188545	-0.105137	0.976420	-0.767804	0.635694	-0.079813	-0.612313	-0.764748	-0.200582
20279	9.542494	-0.715618	-1.679406	-0.037077	0.001705	0.026914	-0.188719	-0.104973	0.976405	-0.767520	0.636017	-0.079968	-0.612616	-0.764501	-0.200597
20280	9.551452	-0.782626	-1.743250	-0.031172	-0.001635	0.028715	-0.188935	-0.104848	0.976376	-0.767260	0.636310	-0.080139	-0.612875	-0.764275	-0.200667
20281	9.540031	-0.756366	-1.727731	-0.022688	-0.011981	0.023730	-0.189168	-0.104808	0.976335	-0.767069	0.636520	-0.080293	-0.613042	-0.764106	-0.200804
20282	9.546014	-0.763536	-1.788438	-0.017291	-0.016024	0.022190	-0.189402	-0.104828	0.976288	-0.766911	0.636695	-0.080418	-0.613167	-0.763957	-0.200985
20283	9.547870	-0.776967	-1.768808	-0.014438	-0.018805	0.024448	-0.189683	-0.104836	0.976232	-0.766770	0.636843	-0.080595	-0.613257	-0.763833	-0.201183
20284	9.553322	-0.736342	-1.804405	-0.017229	-0.025124	0.026458	-0.189953	-0.104870	0.976176	-0.766616	0.637010	-0.080741	-0.613366	-0.763689	-0.201397
20285	9.550011	-0.678882	-1.802515	-0.022243	-0.025362	0.025324	-0.190280	-0.104922	0.976107	-0.766425	0.637218	-0.080910	-0.613503	-0.763508	-0.201665
20286	9.547302	-0.717332	-1.852532	-0.027967	-0.028520	0.023567	-0.190579	-0.105131	0.976026	-0.766269	0.637398	-0.080966	-0.613605	-0.763329	-0.202033
20287	9.525091	-0.758518	-1.874403	-0.029929	-0.029319	0.021974	-0.190905	-0.105234	0.975951	-0.766037	0.637661	-0.081087	-0.613793	-0.763095	-0.202346
20288	9.535117	-0.740430	-1.868012	-0.028249	-0.030363	0.024773	-0.191349	-0.105329	0.975854	-0.765748	0.637983	-0.081290	-0.614016	-0.762813	-0.202733
20289	9.525917	-0.773503	-1.859408	-0.026267	-0.035306	0.023376	-0.191723	-0.105469	0.975766	-0.765536	0.638219	-0.081432	-0.614164	-0.762596	-0.203101
20290	9.527467	-0.786625	-1.841550	-0.026426	-0.034546	0.020352	-0.192015	-0.105610	0.975693	-0.765361	0.638418	-0.081519	-0.614291	-0.762410	-0.203416
20291	9.530540	-0.781351	-1.925819	-0.043432	-0.036044	0.015368	-0.192332	-0.105807	0.975609	-0.765058	0.638777	-0.081547	-0.614569	-0.762082	-0.203805
20292	9.514575	-0.874802	-2.033526	-0.025219	-0.033307	0.014068	-0.192692	-0.105983	0.975519	-0.764808	0.639064	-0.081641	-0.614767	-0.761817	-0.204199
20293	9.561557	-0.772044	-1.930261	-0.007125	-0.033175	0.016992	-0.193004	-0.106147	0.975440	-0.764725	0.639148	-0.081760	-0.614772	-0.761723	-0.204531
20294	9.646731	-0.729752	-2.059011	-0.035630	-0.029492	0.014504	-0.193320	-0.106293	0.975361	-0.764463	0.639453	-0.081833	-0.614999	-0.761447	-0.204877
20295	9.588107	-0.787759	-2.002536	-0.010515	-0.025349	0.014400	-0.193564	-0.106414	0.975299	-0.764364	0.639560	-0.081919	-0.615045	-0.761340	-0.205135
20296	9.547874	-0.812777	-2.097678	-0.034226	-0.026022	0.005510	-0.193787	-0.106665	0.975228	-0.764147	0.639827	-0.081863	-0.615245	-0.761081	-0.205498
20297	9.582497	-0.860939	-2.102153	-0.031883	-0.015042	0.004676	-0.193894	-0.106770	0.975195	-0.763935	0.640086	-0.081810	-0.615474	-0.760848	-0.205674
20298	9.560576	-0.900219	-2.122463	-0.005477	-0.010034	-0.000211	-0.193914	-0.106983	0.975168	-0.763949	0.640085	-0.081690	-0.615451	-0.760819	-0.205851
20299	9.568666	-0.821038	-2.109228	0.011018	-0.009242	0.001416	-0.193959	-0.107064	0.975150	-0.764008	0.640014	-0.081694	-0.615363	-0.760867	-0.205935
20300	9.559932	-0.756476	-2.045699	0.002973	-0.000182	-0.001981	-0.193836	-0.107086	0.975172	-0.764072	0.639949	-0.081601	-0.615322	-0.760919	-0.205867
20301	9.557547	-0.744747	-2.067008	-0.006185	0.001511	-0.000578	-0.193800	-0.107098	0.975178	-0.764029	0.640007	-0.081549	-0.615387	-0.760868	-0.205860
20302	9.543207	-0.818608	-2.021644	-0.010565	0.004582	-0.002589	-0.193719	-0.107142	0.975189	-0.764003	0.640051	-0.081446	-0.615445	-0.760825	-0.205847
20303	9.565139	-0.826728	-2.028045	0.001828	0.010287	-0.004174	-0.193602	-0.107111	0.975216	-0.764016	0.640044	-0.081376	-0.615465	-0.760835	-0.205748
20304	9.534948	-0.753162	-1.956154	0.009101	0.007418	-0.005656	-0.193436	-0.107192	0.975240	-0.764143	0.639912	-0.081230	-0.615360	-0.760935	-0.205692
20305	9.524231	-0.724499	-1.938668	0.008210	0.011001	-0.006309	-0.193298	-0.107169	0.975270	-0.764200	0.639854	-0.081153	-0.615333	-0.760987	-0.205581
20306	9.537664	-0.715802	-1.906961	-0.002378	0.006855	-0.006160	-0.193197	-0.107285	0.975277	-0.764281	0.639773	-0.081022	-0.615263	-0.761039	-0.205598
20307	9.551148	-0.755202	-1.901628	-0.002497	0.004248	-0.001933	-0.193134	-0.107285	0.975289	-0.764264	0.639801	-0.080965	-0.615305	-0.761015	-0.205562
20308	9.542697	-0.738032	-1.863433	-0.001923	0.002195	-0.007333	-0.193009	-0.107460	0.975295	-0.764383	0.639682	-0.080788	-0.615196	-0.761091	-0.205605
20309	9.553707	-0.765594	-1.879947	-0.001032	-0.001389	-0.006679	-0.192945	-0.107534	0.975299	-0.764383	0.639693	-0.080688	-0.615216	-0.761071	-0.205623
20310	9.534207	-0.720246	-1.825665	0.007195	-0.002486	-0.002994	-0.192790	-0.107644	0.975318	-0.764571	0.639486	-0.080553	-0.615031	-0.761230	-0.205588
20311	9.518368	-0.668526	-1.852372	0.005329	-0.009400	-0.006073	-0.192780	-0.107775	0.975305	-0.764610	0.639450	-0.080472	-0.614986	-0.761241	-0.205679
20312	9.520610	-0.679867	-1.831945	-0.006921	-0.010136	0.001536	-0.192754	-0.107890	0.975298	-0.764626	0.639442	-0.080381	-0.614975	-0.761231	-0.205750
20313	9.559086	-0.673590	-1.890016	-0.005099	-0.014313	-0.002897	-0.192797	-0.108038	0.975273	-0.764594	0.639489	-0.080308	-0.615000	-0.761171	-0.205897
20314	9.558842	-0.673204	-1.891385	-0.011205	-0.013186	-0.001962	-0.192734	-0.108251	0.975262	-0.764669	0.639421	-0.080142	-0.614927	-0.761198	-0.206014
20315	9.536969	-0.712416	-1.911695	-0.012572	-0.013670	0.001299	-0.192805	-0.108368	0.975235	-0.764583	0.639529	-0.080095	-0.615011	-0.761091	-0.206161
20316	9.493135	-0.695289	-1.899175	-0.008986	-0.019277	0.001171	-0.192954	-0.108511	0.975189	-0.764505	0.639622	-0.080096	-0.615062	-0.760992	-0.206375
20317	9.516944	-0.715360	-1.886762	-0.002523	-0.018944	0.000547	-0.193053	-0.108672	0.975152	-0.764483	0.639653	-0.080062	-0.615058	-0.760943	-0.206565
20318	9.527338	-0.695790	-1.879362	-0.006409	-0.023908	0.004617	-0.193181	-0.108961	0.975094	-0.764541	0.639591	-0.079997	-0.614945	-0.760954	-0.206862
20319	9.561841	-0.696336	-1.858107	-0.016721	-0.026214	0.003573	-0.193347	-0.109158	0.975039	-0.764426	0.639733	-0.079964	-0.615036	-0.760806	-0.207134
20320	9.567357	-0.701588	-1.920053	-0.015035	-0.027262	0.006365	-0.193526	-0.109444	0.974972	-0.764339	0.639846	-0.079891	-0.615088	-0.760670	-0.207479
20321	9.536639	-0.724700	-1.903878	-0.009289	-0.029849	0.005113	-0.193726	-0.109660	0.974908	-0.764266	0.639933	-0.079888	-0.615115	-0.760566	-0.207781
20322	9.577057	-0.730480	-1.942429	-0.000133	-0.031540	0.003702	-0.193802	-0.109923	0.974863	-0.764415	0.639764	-0.079827	-0.614907	-0.760670	-0.208014
20323	9.508718	-0.693932	-1.945435	0.008098	-0.032639	0.007377	-0.194036	-0.110145	0.974791	-0.764445	0.639721	-0.079882	-0.614796	-0.760674	-0.208329
20324	9.529764	-0.703125	-1.955706	0.004165	-0.034229	0.004198	-0.194202	-0.110389	0.974731	-0.764445	0.639724	-0.079856	-0.614744	-0.760636	-0.208622
20325	9.553240	-0.723742	-1.944863	-0.002576	-0.036405	0.006032	-0.194449	-0.110648	0.974652	-0.764412	0.639761	-0.079875	-0.614706	-0.760567	-0.208982
20326	9.515003	-0.760127	-2.019390	0.001837	-0.036485	0.002298	-0.194585	-0.110948	0.974591	-0.764497	0.639667	-0.079817	-0.614558	-0.760603	-0.209289
20327	9.540933	-0.792209	-1.987324	0.014483	-0.037665	0.002232	-0.194811	-0.111241	0.974512	-0.764576	0.639570	-0.079836	-0.614388	-0.760642	-0.209648
20328	9.548470	-0.713533	-1.976854	0.015453	-0.041633	0.004399	-0.195042	-0.111557	0.974430	-0.764733	0.639378	-0.079870	-0.614119	-0.760756	-0.210017
20329	9.536776	-0.734084	-1.990002	0.011675	-0.038252	0.007250	-0.195310	-0.111823	0.974346	-0.764785	0.639308	-0.079932	-0.613969	-0.760776	-0.210384
20330	9.536817	-0.668711	-2.069517	0.006488	-0.037717	0.003112	-0.195449	-0.112146	0.974281	-0.764909	0.639167	-0.079875	-0.613770	-0.760848	-0.210706
20331	9.590310	-0.714737	-2.103878	0.004763	-0.033923	0.009063	-0.195704	-0.112367	0.974204	-0.764915	0.639151	-0.079940	-0.613681	-0.760828	-0.211035
20332	9.617167	-0.681415	-2.147145	0.011412	-0.025629	0.008707	-0.195839	-0.112555	0.974155	-0.765007	0.639040	-0.079958	-0.613524	-0.760894	-0.211255
20333	9.649240	-0.671409	-2.146864	0.008994	-0.016023	0.011289	-0.196001	-0.112626	0.974114	-0.765035	0.638994	-0.080053	-0.613437	-0.760922	-0.211407
20334	9.571061	-0.637238	-2.259281	0.008547	-0.011362	0.012461	-0.196126	-0.112651	0.974086	-0.765080	0.638927	-0.080153	-0.613341	-0.760974	-0.211497
20335	9.554200	-0.605349	-2.184096	0.002444	-0.004493	0.016410	-0.196256	-0.112601	0.974066	-0.765058	0.638938	-0.080284	-0.613327	-0.760973	-0.211542
20336	9.564894	-0.635172	-2.200799	-0.011813	0.003096	0.018211	-0.196283	-0.112480	0.974075	-0.765038	0.638950	-0.080379	-0.613344	-0.760981	-0.211466
20337	9.555730	-0.733776	-2.112432	-0.018969	0.008578	0.015485	-0.196326	-0.112336	0.974083	-0.764886	0.639122	-0.080455	-0.613519	-0.760858	-0.211400
20338	9.506539	-0.760906	-2.063927	-0.016114	0.011524	0.020722	-0.196484	-0.112147	0.974072	-0.764656	0.639375	-0.080629	-0.613755	-0.760673	-0.211381
20339	9.525136	-0.729822	-1.963427	-0.003025	0.011412	0.022467	-0.196563	-0.111937	0.974081	-0.764588	0.639433	-0.080808	-0.613814	-0.760654	-0.211275
20340	9.506054	-0.686866	-1.908061	-0.005994	0.005857	0.021460	-0.196744	-0.111846	0.974055	-0.764487	0.639533	-0.080980	-0.613882	-0.760584	-0.211329
20341	9.510989	-0.711870	-1.865071	-0.021165	0.002569	0.022357	-0.196876	-0.111705	0.974044	-0.764308	0.639729	-0.081119	-0.614063	-0.760440	-0.211324
20342	9.494792	-0.758016	-1.943427	-0.021084	-0.003552	0.020872	-0.196996	-0.111642	0.974027	-0.764203	0.639841	-0.081221	-0.614155	-0.760355	-0.211363
20343	9.523896	-0.755291	-1.860898	0.012918	-0.002978	0.020458	-0.197148	-0.111555	0.974006	-0.764237	0.639776	-0.081414	-0.614064	-0.760423	-0.211385
20344	9.523877	-0.661795	-1.809403	0.006948	-0.011342	0.027182	-0.197473	-0.111504	0.973946	-0.764158	0.639837	-0.081684	-0.614058	-0.760379	-0.211557
20345	9.480059	-0.647046	-1.796419	-0.007949	-0.018518	0.023879	-0.197747	-0.111513	0.973890	-0.764056	0.639934	-0.081866	-0.614096	-0.760295	-0.211747
20346	9.503542	-0.717236	-1.810371	-0.021599	-0.022083	0.024541	-0.198041	-0.111591	0.973821	-0.763945	0.640048	-0.082016	-0.614140	-0.760188	-0.212005
20347	9.546058	-0.784317	-1.853515	-0.020277	-0.030332	0.024020	-0.198388	-0.111689	0.973739	-0.763768	0.640239	-0.082173	-0.614248	-0.760013	-0.212320
20348	9.545086	-0.834238	-1.882642	-0.006191	-0.031434	0.022183	-0.198597	-0.111850	0.973678	-0.763820	0.640167	-0.082255	-0.614116	-0.760050	-0.212569
20349	9.528546	-0.784698	-1.911832	-0.008443	-0.034068	0.021801	-0.198951	-0.111991	0.973590	-0.763720	0.640265	-0.082415	-0.614126	-0.759946	-0.212911
20350	9.609515	-0.875179	-2.141001	-0.019015	-0.035201	0.016250	-0.199315	-0.112175	0.973494	-0.763547	0.640457	-0.082531	-0.614223	-0.759758	-0.213303
20351	9.527647	-0.847542	-2.174484	0.024231	-0.031014	0.018877	-0.199627	-0.112311	0.973414	-0.763653	0.640304	-0.082732	-0.613989	-0.759867	-0.213588
20352	9.519313	-0.737268	-2.086710	0.039964	-0.024057	0.015562	-0.199834	-0.112384	0.973363	-0.763834	0.640064	-0.082915	-0.613697	-0.760058	-0.213749
20353	9.530252	-0.701427	-2.181382	0.012338	-0.023894	0.013858	-0.200063	-0.112498	0.973303	-0.763878	0.639996	-0.083043	-0.613568	-0.760098	-0.213974
20354	9.483295	-0.692456	-2.088109	0.021861	-0.018410	0.015727	-0.200306	-0.112676	0.973233	-0.764032	0.639794	-0.083177	-0.613296	-0.760242	-0.214243
20355	9.569105	-0.776304	-2.144923	-0.018855	-0.018108	0.012299	-0.200488	-0.112757	0.973186	-0.763887	0.639961	-0.083222	-0.613417	-0.760089	-0.214438
20356	9.581219	-0.913067	-2.193854	-0.007526	-0.011068	0.012722	-0.200555	-0.112848	0.973161	-0.763929	0.639910	-0.083231	-0.613343	-0.760119	-0.214545
20357	9.523936	-0.875248	-2.082710	0.031889	-0.005867	0.007924	-0.200629	-0.112863	0.973144	-0.764104	0.639686	-0.083342	-0.613101	-0.760305	-0.214578
20358	9.572947	-0.850774	-2.131029	0.008558	-0.008395	0.006710	-0.200693	-0.113025	0.973112	-0.764176	0.639604	-0.083314	-0.612990	-0.760350	-0.214735
20359	9.540497	-0.814822	-2.107412	0.024826	-0.000754	0.006719	-0.200727	-0.113009	0.973107	-0.764310	0.639433	-0.083399	-0.612812	-0.760496	-0.214725
20360	9.529481	-0.835388	-2.116514	0.024853	0.002239	0.000974	-0.200513	-0.113064	0.973145	-0.764705	0.638971	-0.083326	-0.612390	-0.760876	-0.214583
20361	9.538031	-0.804698	-2.127881	0.020924	0.006398	0.000802	-0.200457	-0.113032	0.973160	-0.764827	0.638822	-0.083345	-0.612256	-0.761006	-0.214506
20362	9.472910	-0.827190	-2.131163	0.024532	0.009511	-0.002086	-0.200332	-0.113050	0.973184	-0.765000	0.638621	-0.083291	-0.612080	-0.761172	-0.214419
20363	9.508334	-0.828243	-2.106407	0.022742	0.013694	0.002353	-0.200243	-0.112952	0.973214	-0.765131	0.638460	-0.083329	-0.611946	-0.761321	-0.214270
20364	9.547215	-0.774941	-2.136098	0.021050	0.014745	-0.000435	-0.200084	-0.112895	0.973253	-0.765256	0.638316	-0.083281	-0.611841	-0.761451	-0.214111
20365	9.541989	-0.770144	-2.074923	0.023945	0.020678	-0.000949	-0.199928	-0.112765	0.973300	-0.765401	0.638142	-0.083288	-0.611712	-0.761616	-0.213893
20366	9.523313	-0.773259	-2.044146	0.011219	0.022273	-0.002370	-0.199810	-0.112667	0.973335	-0.765452	0.638082	-0.083274	-0.611685	-0.761681	-0.213737
20367	9.526286	-0.784705	-2.020696	0.008884	0.020023	-0.004264	-0.199632	-0.112564	0.973384	-0.765511	0.638019	-0.083218	-0.611670	-0.761749	-0.213538
20368	9.488442	-0.790214	-1.961531	0.008800	0.020405	-0.005778	-0.199376	-0.112538	0.973439	-0.765707	0.637800	-0.083094	-0.611508	-0.761936	-0.213333
20369	9.535020	-0.770814	-1.926613	0.006280	0.021672	-0.001961	-0.199206	-0.112407	0.973489	-0.765745	0.637759	-0.083054	-0.611516	-0.761989	-0.213121
20370	9.537874	-0.782102	-1.903623	0.005178	0.011553	-0.005882	-0.199031	-0.112401	0.973526	-0.765837	0.637662	-0.082948	-0.611457	-0.762072	-0.212995
20371	9.494440	-0.734294	-1.760048	0.021230	0.011228	-0.006134	-0.198893	-0.112376	0.973557	-0.765975	0.637503	-0.082899	-0.611329	-0.762209	-0.212872
20372	9.541386	-0.696612	-1.828670	-0.020241	-0.000112	-0.007463	-0.198865	-0.112374	0.973563	-0.765741	0.637797	-0.082796	-0.611631	-0.761962	-0.212886
20373	9.483645	-0.752372	-1.769105	-0.011013	-0.002210	-0.007379	-0.198800	-0.112460	0.973566	-0.765684	0.637882	-0.082667	-0.611724	-0.761879	-0.212920
20374	9.477625	-0.794266	-1.736426	-0.009697	-0.010461	-0.007891	-0.198739	-0.112617	0.973561	-0.765696	0.637888	-0.082518	-0.611730	-0.761851	-0.213003
20375	9.502500	-0.747604	-1.800066	-0.018898	-0.023215	-0.006695	-0.198806	-0.112858	0.973519	-0.765589	0.638034	-0.082378	-0.611841	-0.761693	-0.213248
20376	9.486123	-0.743144	-1.854522	-0.009835	-0.024548	-0.009642	-0.198807	-0.113115	0.973489	-0.765605	0.638035	-0.082215	-0.611821	-0.761653	-0.213447
20377	9.542501	-0.751280	-1.840933	-0.007711	-0.030263	-0.008021	-0.198907	-0.113419	0.973433	-0.765570	0.638094	-0.082087	-0.611832	-0.761559	-0.213752
20378	9.569529	-0.716019	-1.884792	-0.011136	-0.036892	-0.010843	-0.198900	-0.113855	0.973384	-0.765724	0.637940	-0.081848	-0.611642	-0.761623	-0.214067
20379	9.555907	-0.704923	-2.021149	-0.020648	-0.036639	-0.009713	-0.199026	-0.114217	0.973315	-0.765613	0.638095	-0.081675	-0.611739	-0.761438	-0.214444
20380	9.576565	-0.760097	-2.058157	-0.022985	-0.038891	-0.011604	-0.199165	-0.114674	0.973233	-0.765573	0.638169	-0.081475	-0.611744	-0.761308	-0.214893
20381	9.559800	-0.755249	-2.113814	-0.011940	-0.033690	-0.009981	-0.199272	-0.115016	0.973171	-0.765516	0.638258	-0.081318	-0.611781	-0.761182	-0.215233
20382	9.556620	-0.742721	-2.138274	0.000352	-0.030615	-0.007398	-0.199360	-0.115391	0.973109	-0.765624	0.638145	-0.081182	-0.611617	-0.761220	-0.215567
20383	9.562246	-0.651130	-2.148246	-0.007789	-0.024143	-0.006537	-0.199435	-0.115638	0.973064	-0.765586	0.638206	-0.081067	-0.611641	-0.761132	-0.215811
20384	9.569898	-0.667022	-2.188413	-0.010196	-0.020271	-0.006948	-0.199428	-0.115971	0.973026	-0.765694	0.638100	-0.080881	-0.611507	-0.761170	-0.216053
20385	9.555695	-0.722100	-2.246791	-0.024520	-0.012277	-0.006634	-0.199429	-0.116129	0.973007	-0.765553	0.638287	-0.080729	-0.611683	-0.760988	-0.216196
20386	9.490206	-0.743065	-2.252232	-0.013573	-0.012429	-0.009528	-0.199394	-0.116326	0.972990	-0.765534	0.638332	-0.080564	-0.611719	-0.760921	-0.216331
20387	9.527928	-0.754458	-2.208103	-0.004659	0.001238	-0.000789	-0.199357	-0.116343	0.972996	-0.765503	0.638375	-0.080512	-0.611770	-0.760882	-0.216326
20388	9.511823	-0.720879	-2.131957	-0.004295	0.002697	-0.000479	-0.199262	-0.116372	0.973012	-0.765515	0.638373	-0.080419	-0.611786	-0.760879	-0.216288
20389	9.525806	-0.664585	-2.074894	-0.008590	0.005395	-0.000958	-0.199198	-0.116359	0.973027	-0.765460	0.638446	-0.080357	-0.611875	-0.760820	-0.216245
20390	9.520390	-0.659299	-2.015260	-0.013719	0.002563	0.002174	-0.199347	-0.116288	0.973004	-0.765183	0.638769	-0.080427	-0.612173	-0.760559	-0.216319
20391	9.484867	-0.676749	-1.936615	-0.022069	0.001068	0.002763	-0.199339	-0.116284	0.973007	-0.765039	0.638949	-0.080372	-0.612356	-0.760409	-0.216329
20392	9.517430	-0.665540	-1.934938	-0.031338	-0.005574	0.005448	-0.199224	-0.116346	0.973023	-0.765028	0.638979	-0.080234	-0.612406	-0.760375	-0.216308
20393	9.541156	-0.733861	-1.947827	-0.023460	-0.008150	0.008781	-0.199318	-0.116373	0.973000	-0.764863	0.639176	-0.080234	-0.612582	-0.760205	-0.216409
20394	9.529958	-0.753780	-1.958141	-0.020583	-0.007951	0.005271	-0.199259	-0.116432	0.973005	-0.764834	0.639223	-0.080137	-0.612637	-0.760156	-0.216422
20395	9.532636	-0.747498	-2.039720	-0.010902	-0.008970	0.007157	-0.199345	-0.116476	0.972982	-0.764750	0.639323	-0.080149	-0.612715	-0.760065	-0.216521
20396	9.521720	-0.719647	-2.024101	-0.010105	-0.012173	0.006294	-0.199262	-0.116657	0.972978	-0.764965	0.639080	-0.080038	-0.612473	-0.760242	-0.216583
20397	9.548880	-0.685799	-2.065898	-0.013069	-0.011988	0.008292	-0.199376	-0.116717	0.972947	-0.764864	0.639198	-0.080056	-0.612562	-0.760134	-0.216714
20398	9.526589	-0.725684	-2.085847	-0.011181	-0.010814	0.008361	-0.199463	-0.116825	0.972916	-0.764787	0.639293	-0.080029	-0.612630	-0.760037	-0.216862
20399	9.512688	-0.734381	-2.117710	-0.004997	-0.012338	0.008905	-0.199584	-0.116884	0.972885	-0.764735	0.639350	-0.080070	-0.612655	-0.759980	-0.216989
20400	9.512809	-0.686954	-2.092544	-0.001199	-0.006991	0.003298	-0.199607	-0.116979	0.972868	-0.764760	0.639324	-0.080036	-0.612616	-0.759987	-0.217075
20401	9.547479	-0.735967	-2.096005	-0.002466	-0.007861	0.008081	-0.199694	-0.117009	0.972847	-0.764726	0.639361	-0.080075	-0.612631	-0.759952	-0.217156
20402	9.512047	-0.736143	-2.119980	-0.004786	-0.004373	0.009189	-0.199774	-0.117049	0.972826	-0.764726	0.639356	-0.080114	-0.612605	-0.759949	-0.217237
20403	9.539097	-0.721052	-2.058978	0.005261	-0.003935	0.011381	-0.199862	-0.117028	0.972810	-0.764732	0.639338	-0.080201	-0.612569	-0.759968	-0.217274
20404	9.517316	-0.713645	-2.051901	0.004101	-0.002190	0.011935	-0.199826	-0.117063	0.972813	-0.764907	0.639127	-0.080211	-0.612361	-0.760140	-0.217257
20405	9.525585	-0.683584	-2.064107	-0.007214	-0.003497	0.014527	-0.199935	-0.117019	0.972796	-0.764831	0.639207	-0.080302	-0.612421	-0.760080	-0.217300
20406	9.494985	-0.755190	-2.071258	-0.013569	-0.001201	0.010958	-0.199933	-0.117036	0.972795	-0.764843	0.639193	-0.080293	-0.612406	-0.760089	-0.217310
20407	9.540716	-0.784955	-2.064860	0.000601	-0.002696	0.010596	-0.200007	-0.117011	0.972782	-0.764823	0.639209	-0.080362	-0.612408	-0.760079	-0.217339
20408	9.527378	-0.746170	-2.069664	0.005624	-0.002478	0.011692	-0.200056	-0.116985	0.972775	-0.764926	0.639074	-0.080456	-0.612263	-0.760197	-0.217336
20409	9.546286	-0.744426	-2.098450	0.009038	-0.001590	0.011517	-0.200131	-0.116946	0.972765	-0.764955	0.639027	-0.080553	-0.612203	-0.760242	-0.217347
20410	9.513944	-0.708693	-2.074502	0.004014	-0.001807	0.010421	-0.200135	-0.116959	0.972762	-0.765106	0.638840	-0.080602	-0.612012	-0.760397	-0.217340
20411	9.527001	-0.749569	-2.070174	0.001673	-0.004055	0.008529	-0.200202	-0.116958	0.972749	-0.765096	0.638845	-0.080654	-0.612003	-0.760393	-0.217382
20412	9.529479	-0.762108	-2.049040	0.005818	-0.000249	0.008976	-0.200181	-0.117002	0.972748	-0.765320	0.638573	-0.080687	-0.611729	-0.760615	-0.217374
20413	9.532443	-0.726955	-2.001516	0.009768	0.001327	0.012139	-0.200242	-0.116936	0.972743	-0.765352	0.638521	-0.080792	-0.611669	-0.760669	-0.217356
20414	9.521346	-0.747957	-2.010691	0.008243	0.001613	0.012382	-0.200281	-0.116824	0.972749	-0.765355	0.638504	-0.080897	-0.611653	-0.760700	-0.217292
20415	9.529720	-0.718077	-2.022491	0.006439	0.000055	0.013829	-0.200362	-0.116758	0.972740	-0.765364	0.638479	-0.081011	-0.611615	-0.760731	-0.217289
20416	9.521151	-0.750777	-2.010566	0.004549	-0.001118	0.013761	-0.200381	-0.116753	0.972736	-0.765449	0.638370	-0.081059	-0.611502	-0.760823	-0.217286
20417	9.564250	-0.769462	-2.025380	0.004183	-0.002577	0.013451	-0.200476	-0.116709	0.972722	-0.765445	0.638362	-0.081164	-0.611476	-0.760837	-0.217311
20418	9.550944	-0.730909	-2.030198	0.004183	-0.002577	0.013451	-0.200700	-0.116583	0.972691	-0.765219	0.638609	-0.081349	-0.611686	-0.760649	-0.217380
20419	9.524015	-0.700283	-2.065752	0.002207	-0.003365	0.011870	-0.200787	-0.116555	0.972676	-0.765206	0.638614	-0.081435	-0.611673	-0.760649	-0.217415
20420	9.515372	-0.732613	-2.054231	-0.000134	-0.005611	0.009978	-0.200839	-0.116539	0.972668	-0.765244	0.638560	-0.081501	-0.611608	-0.760697	-0.217428
20421	9.536304	-0.790267	-2.088137	0.000317	-0.004537	0.011803	-0.200933	-0.116520	0.972650	-0.765220	0.638579	-0.081582	-0.611608	-0.760684	-0.217475
20422	9.528176	-0.774779	-2.050351	0.005987	-0.001021	0.012005	-0.201022	-0.116509	0.972633	-0.765270	0.638506	-0.081680	-0.611516	-0.760747	-0.217514
20423	9.525451	-0.764653	-2.071787	0.009291	-0.002750	0.016062	-0.201139	-0.116449	0.972617	-0.765292	0.638462	-0.081822	-0.611451	-0.760793	-0.217537
20424	9.531719	-0.675195	-2.079212	0.003645	-0.003267	0.010114	-0.201221	-0.116342	0.972612	-0.765213	0.638543	-0.081931	-0.611523	-0.760741	-0.217515
20425	9.533607	-0.736027	-2.084303	0.002377	-0.004134	0.014900	-0.201337	-0.116300	0.972593	-0.765194	0.638550	-0.082047	-0.611508	-0.760742	-0.217556
20426	9.485119	-0.685600	-1.882419	0.024275	-0.001730	0.017835	-0.201335	-0.116251	0.972600	-0.765446	0.638233	-0.082167	-0.611193	-0.761015	-0.217483
20427	9.545105	-0.642085	-1.921551	-0.024572	-0.009745	0.016618	-0.201498	-0.116241	0.972567	-0.765259	0.638447	-0.082240	-0.611373	-0.760837	-0.217601
20428	9.507926	-0.786220	-2.024132	-0.035411	-0.006963	0.015293	-0.201504	-0.116313	0.972557	-0.765297	0.638405	-0.082212	-0.611323	-0.760861	-0.217655
20429	9.504815	-0.794068	-1.944444	0.010674	-0.011395	0.017052	-0.201680	-0.116313	0.972521	-0.765325	0.638352	-0.082366	-0.611230	-0.760906	-0.217760
20430	9.526594	-0.756537	-1.926927	-0.002986	-0.014928	0.017758	-0.201890	-0.116340	0.972474	-0.765283	0.638384	-0.082504	-0.611214	-0.760875	-0.217916
20431	9.534333	-0.756266	-2.068389	-0.028810	-0.013158	0.014666	-0.202059	-0.116368	0.972435	-0.765075	0.638628	-0.082549	-0.611419	-0.760666	-0.218071
20432	9.440808	-0.831703	-1.931346	0.009118	-0.016849	0.014294	-0.202333	-0.116432	0.972371	-0.765005	0.638691	-0.082708	-0.611415	-0.760603	-0.218299
20433	9.518965	-0.832953	-2.026435	-0.006152	-0.019706	0.013733	-0.202535	-0.116516	0.972319	-0.764937	0.638762	-0.082793	-0.611433	-0.760531	-0.218499
20434	9.557062	-0.780281	-2.059736	-0.009936	-0.022047	0.013601	-0.202769	-0.116640	0.972255	-0.764792	0.638928	-0.082850	-0.611538	-0.760372	-0.218761
20435	9.499649	-0.772217	-2.077687	0.008467	-0.020155	0.015186	-0.202985	-0.116719	0.972201	-0.764810	0.638890	-0.082981	-0.611443	-0.760393	-0.218953
20436	9.493782	-0.768561	-2.020439	0.008346	-0.025507	0.010673	-0.203121	-0.116875	0.972153	-0.764910	0.638763	-0.083025	-0.611272	-0.760474	-0.219145
20437	9.550176	-0.760967	-2.108735	-0.001952	-0.022029	0.012695	-0.203329	-0.116984	0.972097	-0.764870	0.638801	-0.083110	-0.611254	-0.760426	-0.219364
20438	9.560126	-0.790643	-2.127273	0.003022	-0.015700	0.015271	-0.203351	-0.117061	0.972083	-0.765118	0.638496	-0.083167	-0.610935	-0.760671	-0.219404
20439	9.521788	-0.779672	-2.173324	0.008944	-0.016084	0.011264	-0.203512	-0.117133	0.972041	-0.765148	0.638449	-0.083261	-0.610845	-0.760699	-0.219556
20440	9.561921	-0.786903	-2.210718	0.017752	-0.013538	0.012484	-0.203651	-0.117199	0.972003	-0.765309	0.638238	-0.083389	-0.610596	-0.760866	-0.219671
20441	9.507346	-0.790594	-2.206028	0.016376	-0.004898	0.011493	-0.203745	-0.117185	0.971985	-0.765383	0.638135	-0.083502	-0.610472	-0.760955	-0.219708
20442	9.531331	-0.812263	-2.192422	0.019250	-0.004706	0.007975	-0.203763	-0.117226	0.971977	-0.765591	0.637877	-0.083565	-0.610206	-0.761164	-0.219723
20443	9.510342	-0.757072	-2.158980	0.024399	0.000853	0.013577	-0.203838	-0.117155	0.971970	-0.765710	0.637715	-0.083716	-0.610032	-0.761311	-0.219697
20444	9.515497	-0.781908	-2.115939	0.021463	0.004044	0.009832	-0.203932	-0.117146	0.971951	-0.765827	0.637558	-0.083841	-0.609853	-0.761444	-0.219732
20445	9.513637	-0.723699	-2.110643	0.016893	0.004912	0.010566	-0.203959	-0.117063	0.971955	-0.765906	0.637449	-0.083946	-0.609745	-0.761548	-0.219673
20446	9.542971	-0.768652	-2.053613	0.013194	0.002190	0.011952	-0.203989	-0.117007	0.971956	-0.766003	0.637320	-0.084042	-0.609613	-0.761664	-0.219634
20447	9.499122	-0.800472	-2.064337	0.017175	0.006754	0.009361	-0.203996	-0.116918	0.971965	-0.766086	0.637208	-0.084136	-0.609506	-0.761772	-0.219557
20448	9.537044	-0.814168	-2.019054	0.013931	0.005107	0.012571	-0.203943	-0.116847	0.971985	-0.766262	0.636987	-0.084203	-0.609302	-0.761968	-0.219445
20449	9.510285	-0.783703	-2.053851	0.022699	0.001908	0.010797	-0.203990	-0.116786	0.971982	-0.766376	0.636834	-0.084323	-0.609143	-0.762105	-0.219410
20450	9.534363	-0.805701	-2.039585	0.025915	0.000560	0.013340	-0.204047	-0.116684	0.971982	-0.766477	0.636693	-0.084472	-0.608998	-0.762238	-0.219350
20451	9.513455	-0.750529	-2.006025	0.015867	0.000151	0.011158	-0.204107	-0.116634	0.971976	-0.766548	0.636593	-0.084580	-0.608888	-0.762330	-0.219338
20452	9.488489	-0.779450	-2.045844	0.006275	0.000818	0.010799	-0.204177	-0.116620	0.971963	-0.766582	0.636541	-0.084659	-0.608821	-0.762375	-0.219365
20453	9.506613	-0.825770	-2.100563	0.010104	-0.002970	0.009451	-0.204243	-0.116604	0.971951	-0.766622	0.636482	-0.084738	-0.608749	-0.762426	-0.219389
20454	9.490082	-0.841345	-2.050639	0.023025	-0.002377	0.008116	-0.204307	-0.116596	0.971938	-0.766770	0.636290	-0.084848	-0.608542	-0.762588	-0.219401
20455	9.510438	-0.743887	-2.027589	0.027394	-0.005475	0.010107	-0.204394	-0.116596	0.971920	-0.766913	0.636100	-0.084972	-0.608331	-0.762746	-0.219434
20456	9.497293	-0.705307	-2.032579	0.014757	-0.004225	0.010236	-0.204422	-0.116551	0.971920	-0.767001	0.635984	-0.085056	-0.608212	-0.762850	-0.219404
20457	9.502263	-0.729643	-1.990352	0.004511	-0.006856	0.010777	-0.204522	-0.116557	0.971898	-0.767004	0.635970	-0.085135	-0.608174	-0.762861	-0.219469
20458	9.556295	-0.728792	-1.996543	-0.005194	-0.008794	0.014657	-0.204624	-0.116504	0.971883	-0.766971	0.635995	-0.085241	-0.608181	-0.762848	-0.219495
20459	9.523300	-0.740837	-1.999298	-0.009847	-0.007538	0.013874	-0.204752	-0.116495	0.971857	-0.766880	0.636094	-0.085319	-0.608252	-0.762767	-0.219579
20460	9.560167	-0.784405	-2.083559	-0.005650	-0.009869	0.012834	-0.204845	-0.116513	0.971835	-0.766890	0.636073	-0.085388	-0.608209	-0.762782	-0.219649
20461	9.503797	-0.727890	-2.074573	-0.014004	-0.011331	0.013440	-0.204993	-0.116536	0.971801	-0.766775	0.636203	-0.085453	-0.608304	-0.762670	-0.219774
20462	9.518150	-0.828341	-2.075819	-0.017876	-0.013282	0.011799	-0.205043	-0.116591	0.971784	-0.766771	0.636207	-0.085457	-0.608292	-0.762658	-0.219849
20463	9.547910	-0.806835	-2.096683	-0.019228	-0.013758	0.015075	-0.205219	-0.116622	0.971743	-0.766621	0.636378	-0.085526	-0.608422	-0.762510	-0.220002
20464	9.498430	-0.832867	-2.049891	-0.017592	-0.011440	0.010592	-0.205322	-0.116739	0.971707	-0.766600	0.636404	-0.085527	-0.608414	-0.762471	-0.220160
20465	9.492918	-0.810219	-2.093915	-0.016898	-0.014264	0.008217	-0.205448	-0.116818	0.971671	-0.766478	0.636550	-0.085534	-0.608525	-0.762337	-0.220316
20466	9.524471	-0.847955	-2.119282	-0.020267	-0.009400	0.011392	-0.205476	-0.116899	0.971655	-0.766476	0.636557	-0.085503	-0.608519	-0.762319	-0.220397
20467	9.508653	-0.814932	-2.044448	-0.015006	-0.013098	0.008280	-0.205595	-0.116968	0.971622	-0.766365	0.636688	-0.085516	-0.608617	-0.762199	-0.220540
20468	9.508327	-0.815340	-2.045797	-0.015092	-0.012714	0.006765	-0.205637	-0.117035	0.971605	-0.766332	0.636731	-0.085494	-0.608645	-0.762152	-0.220623
20469	9.514029	-0.790919	-1.978683	-0.019166	-0.016890	0.007847	-0.205776	-0.117136	0.971563	-0.766197	0.636893	-0.085493	-0.608768	-0.762001	-0.220806
20470	9.499847	-0.799171	-2.011010	-0.026865	-0.015048	0.007561	-0.205822	-0.117245	0.971541	-0.766144	0.636965	-0.085440	-0.608819	-0.761925	-0.220928
20471	9.512341	-0.839287	-2.008372	-0.025308	-0.021464	0.005837	-0.205973	-0.117393	0.971491	-0.765976	0.637171	-0.085406	-0.608980	-0.761729	-0.221160
20472	9.527321	-0.872756	-2.086588	-0.017125	-0.019236	0.002194	-0.206000	-0.117601	0.971460	-0.766008	0.637146	-0.085303	-0.608930	-0.761719	-0.221335
20473	9.476087	-0.838531	-2.035799	0.002926	-0.024183	0.003540	-0.206150	-0.117785	0.971406	-0.766017	0.637135	-0.085309	-0.608868	-0.761699	-0.221570
20474	9.497980	-0.799724	-2.019590	0.002181	-0.027099	0.002923	-0.206237	-0.117989	0.971362	-0.766114	0.637021	-0.085282	-0.608716	-0.761763	-0.221771
20475	9.545516	-0.822384	-2.096565	-0.008789	-0.029641	-0.002891	-0.206371	-0.118255	0.971301	-0.766065	0.637091	-0.085199	-0.608732	-0.761663	-0.222069
20476	9.517293	-0.837869	-2.160345	-0.000927	-0.023132	-0.003851	-0.206382	-0.118574	0.971260	-0.766196	0.636955	-0.085047	-0.608564	-0.761728	-0.222306
20477	9.538367	-0.846432	-2.169852	0.007888	-0.020601	-0.002645	-0.206462	-0.118770	0.971219	-0.766247	0.636898	-0.085004	-0.608472	-0.761744	-0.222502
20478	9.522425	-0.794894	-2.197381	0.017074	-0.016612	-0.001132	-0.206452	-0.118909	0.971204	-0.766438	0.636673	-0.084974	-0.608235	-0.761911	-0.222579
20479	9.511847	-0.766687	-2.181828	0.018016	-0.011467	-0.003238	-0.206473	-0.119039	0.971184	-0.766553	0.636538	-0.084947	-0.608084	-0.762003	-0.222677
20480	9.527830	-0.752148	-2.233062	0.004261	-0.014582	-0.004007	-0.206618	-0.119151	0.971140	-0.766383	0.636744	-0.084931	-0.608248	-0.761813	-0.222878
20481	9.510452	-0.814219	-2.209980	0.005947	-0.006521	-0.005498	-0.206591	-0.119258	0.971132	-0.766429	0.636699	-0.084856	-0.608199	-0.761834	-0.222939
20482	9.499144	-0.833475	-2.219725	0.012780	-0.004771	-0.005872	-0.206477	-0.119420	0.971137	-0.766657	0.636441	-0.084739	-0.607951	-0.762025	-0.222964
20483	9.489733	-0.757103	-2.177241	0.018353	-0.003883	-0.001452	-0.206465	-0.119481	0.971132	-0.766770	0.636306	-0.084731	-0.607813	-0.762128	-0.222989
20484	9.470818	-0.760009	-2.148626	0.012089	-0.001948	-0.003494	-0.206400	-0.119518	0.971141	-0.766871	0.636189	-0.084690	-0.607707	-0.762220	-0.222964
20485	9.495897	-0.732477	-2.108849	0.004654	-0.001259	0.000774	-0.206389	-0.119545	0.971140	-0.766896	0.636161	-0.084672	-0.607679	-0.762239	-0.222975
20486	9.495869	-0.732540	-2.108954	-0.001894	-0.001167	-0.000060	-0.206237	-0.119595	0.971166	-0.767038	0.636004	-0.084567	-0.607552	-0.762362	-0.222901
20487	9.482223	-0.758618	-2.037840	-0.003985	-0.004561	0.002603	-0.206260	-0.119635	0.971156	-0.767006	0.636045	-0.084548	-0.607584	-0.762322	-0.222951
20488	9.525159	-0.776438	-2.053128	0.004370	-0.003102	0.001982	-0.206235	-0.119683	0.971155	-0.767061	0.635983	-0.084516	-0.607523	-0.762366	-0.222967
20489	9.528600	-0.740171	-2.006478	-0.013457	-0.010395	0.002304	-0.206292	-0.119770	0.971133	-0.766973	0.636095	-0.084473	-0.607615	-0.762259	-0.223081
20490	9.536028	-0.756945	-2.045499	-0.009668	-0.008062	0.002424	-0.206209	-0.119899	0.971134	-0.767145	0.635900	-0.084385	-0.607426	-0.762401	-0.223108
20491	9.527267	-0.787921	-2.034386	-0.012199	-0.009533	-0.002489	-0.206223	-0.120009	0.971118	-0.767074	0.635996	-0.084298	-0.607510	-0.762304	-0.223213
20492	9.520813	-0.812321	-2.104061	-0.015067	-0.009719	0.001037	-0.206233	-0.120074	0.971108	-0.767030	0.636056	-0.084248	-0.607563	-0.762244	-0.223276
20493	9.520587	-0.812028	-2.105192	-0.009440	-0.011959	-0.001777	-0.206267	-0.120198	0.971085	-0.766975	0.636132	-0.084174	-0.607620	-0.762161	-0.223402
20494	9.515046	-0.788641	-2.148875	-0.002058	-0.009520	0.001185	-0.206278	-0.120365	0.971062	-0.767087	0.636004	-0.084115	-0.607475	-0.762241	-0.223524
20495	9.484741	-0.811029	-2.130339	-0.002519	-0.010594	-0.000637	-0.206313	-0.120472	0.971041	-0.767072	0.636029	-0.084068	-0.607483	-0.762203	-0.223632
20496	9.490474	-0.768048	-2.164531	-0.003384	-0.007000	-0.001289	-0.206353	-0.120527	0.971026	-0.766978	0.636148	-0.084030	-0.607588	-0.762095	-0.223713
20497	9.490345	-0.767976	-2.165122	0.002015	-0.005343	0.000097	-0.206362	-0.120589	0.971017	-0.766988	0.636139	-0.084000	-0.607572	-0.762093	-0.223765
20498	9.468722	-0.759330	-2.158082	0.003998	-0.004561	0.001671	-0.206481	-0.120573	0.970993	-0.766821	0.636334	-0.084047	-0.607742	-0.761933	-0.223849
20499	9.503990	-0.760227	-2.135606	-0.006713	-0.008261	0.000415	-0.206510	-0.120655	0.970977	-0.766778	0.636392	-0.084001	-0.607787	-0.761871	-0.223937
20500	9.506491	-0.771819	-2.115053	-0.012340	-0.006022	0.003231	-0.206510	-0.120779	0.970961	-0.766789	0.636390	-0.083924	-0.607774	-0.761853	-0.224033
20501	9.516636	-0.800222	-2.132357	-0.007118	-0.003594	0.001586	-0.206519	-0.120818	0.970955	-0.766741	0.636452	-0.083888	-0.607831	-0.761795	-0.224076
20502	9.483765	-0.811083	-2.134660	-0.001314	-0.006604	0.001800	-0.206553	-0.120898	0.970937	-0.766797	0.636385	-0.083884	-0.607749	-0.761838	-0.224152
20503	9.540568	-0.820733	-2.119610	0.000404	-0.004667	-0.001171	-0.206548	-0.120963	0.970930	-0.766800	0.636387	-0.083839	-0.607746	-0.761826	-0.224199
20504	9.532491	-0.785696	-2.183860	-0.000834	-0.002531	-0.002130	-0.206598	-0.121022	0.970912	-0.766734	0.636469	-0.083817	-0.607812	-0.761749	-0.224285
20505	9.570160	-0.779880	-2.241508	0.003328	0.001261	-0.001705	-0.206553	-0.121045	0.970919	-0.766757	0.636448	-0.083773	-0.607799	-0.761763	-0.224272
20506	9.541136	-0.754376	-2.195603	0.006057	0.004959	0.000485	-0.206500	-0.121143	0.970918	-0.766937	0.636236	-0.083732	-0.607590	-0.761924	-0.224292
20507	9.530061	-0.773853	-2.204194	0.001509	0.008833	-0.004524	-0.206387	-0.121126	0.970944	-0.766954	0.636225	-0.083656	-0.607606	-0.761935	-0.224207
20508	9.513729	-0.769918	-2.255118	0.005387	0.010781	-0.002890	-0.206260	-0.121155	0.970968	-0.767086	0.636076	-0.083582	-0.607483	-0.762056	-0.224134
20509	9.509084	-0.764667	-2.194542	0.007653	0.013406	-0.002523	-0.206135	-0.121092	0.971002	-0.767137	0.636020	-0.083539	-0.607461	-0.762112	-0.224000
20510	9.460474	-0.789920	-2.144844	0.006592	0.014771	-0.000452	-0.206098	-0.120994	0.971022	-0.767065	0.636107	-0.083547	-0.607565	-0.762056	-0.223911
20511	9.513346	-0.728437	-2.144365	0.009636	0.014188	-0.000947	-0.205980	-0.120914	0.971057	-0.767124	0.636038	-0.083524	-0.607530	-0.762126	-0.223768
20512	9.519021	-0.752027	-2.100017	0.013195	0.020418	0.003373	-0.205896	-0.120706	0.971101	-0.767090	0.636072	-0.083579	-0.607601	-0.762131	-0.223557
20513	9.540897	-0.761262	-2.105686	0.007051	0.015844	0.001372	-0.205786	-0.120599	0.971138	-0.767129	0.636025	-0.083572	-0.607589	-0.762186	-0.223400
20514	9.538577	-0.750122	-2.125343	0.011015	0.017408	0.004523	-0.205672	-0.120474	0.971177	-0.767224	0.635908	-0.083595	-0.607509	-0.762304	-0.223219
20515	9.509767	-0.725128	-2.078058	0.009405	0.018084	0.003255	-0.205562	-0.120338	0.971217	-0.767273	0.635846	-0.083613	-0.607483	-0.762377	-0.223038
20516	9.491194	-0.728551	-2.047683	0.010357	0.014106	0.005424	-0.205449	-0.120236	0.971254	-0.767378	0.635718	-0.083625	-0.607389	-0.762500	-0.222874
20517	9.532778	-0.687257	-2.056521	0.003896	0.013814	0.006105	-0.205388	-0.120115	0.971282	-0.767389	0.635701	-0.083658	-0.607397	-0.762533	-0.222740
20518	9.508150	-0.733572	-1.993133	0.002089	0.012263	0.007561	-0.205349	-0.119958	0.971309	-0.767343	0.635749	-0.083712	-0.607467	-0.762518	-0.222600
20519	9.499697	-0.765575	-1.980096	0.005998	0.008086	0.007721	-0.205335	-0.119870	0.971323	-0.767363	0.635718	-0.083765	-0.607447	-0.762557	-0.222519
20520	9.500700	-0.718347	-1.953519	-0.003101	0.003712	0.007725	-0.205161	-0.119860	0.971361	-0.767568	0.635478	-0.083704	-0.607246	-0.762759	-0.222376
20521	9.492080	-0.750436	-1.941213	-0.001318	0.002267	0.012025	-0.205215	-0.119789	0.971359	-0.767535	0.635508	-0.083782	-0.607270	-0.762745	-0.222358
20522	9.473014	-0.754163	-1.912948	-0.005041	-0.012316	0.008950	-0.205265	-0.119880	0.971337	-0.767614	0.635412	-0.083793	-0.607154	-0.762811	-0.222450
20523	9.488955	-0.740653	-1.964257	-0.007912	-0.012501	0.012475	-0.205412	-0.119919	0.971301	-0.767539	0.635493	-0.083861	-0.607198	-0.762738	-0.222580
20524	9.520350	-0.778857	-1.989935	-0.002942	-0.018045	0.010565	-0.205556	-0.120075	0.971251	-0.767623	0.635385	-0.083908	-0.607043	-0.762803	-0.222780
20525	9.509621	-0.751363	-1.975072	-0.005210	-0.020669	0.010198	-0.205735	-0.120190	0.971199	-0.767570	0.635442	-0.083960	-0.607050	-0.762737	-0.222987
20526	9.524368	-0.785783	-2.053242	-0.008627	-0.021543	0.010385	-0.205848	-0.120403	0.971149	-0.767656	0.635340	-0.083945	-0.606903	-0.762788	-0.223212
20527	9.518530	-0.763499	-2.098100	-0.007304	-0.024064	0.012862	-0.206068	-0.120528	0.971087	-0.767585	0.635417	-0.084018	-0.606918	-0.762705	-0.223454
20528	9.504040	-0.772193	-2.131085	-0.011445	-0.024856	0.006681	-0.206146	-0.120732	0.971045	-0.767680	0.635306	-0.083984	-0.606771	-0.762764	-0.223650
20529	9.522331	-0.769895	-2.162195	-0.012134	-0.022032	0.009061	-0.206324	-0.120865	0.970990	-0.767587	0.635415	-0.084009	-0.606828	-0.762653	-0.223876
20530	9.506868	-0.826542	-2.220802	-0.012449	-0.017751	0.011747	-0.206461	-0.120983	0.970946	-0.767563	0.635441	-0.084035	-0.606812	-0.762613	-0.224056
20531	9.506397	-0.827291	-2.222539	-0.001599	-0.017571	0.007286	-0.206598	-0.121094	0.970903	-0.767538	0.635467	-0.084067	-0.606797	-0.762573	-0.224230
20532	9.514596	-0.796991	-2.236030	0.004637	-0.013387	0.010802	-0.206579	-0.121182	0.970897	-0.767779	0.635174	-0.084082	-0.606499	-0.762804	-0.224254
20533	9.531920	-0.753701	-2.159139	-0.000879	-0.008530	0.009380	-0.206678	-0.121210	0.970872	-0.767754	0.635197	-0.084136	-0.606497	-0.762780	-0.224340
20534	9.553192	-0.763327	-2.167320	-0.009724	-0.004929	0.009663	-0.206750	-0.121277	0.970848	-0.767798	0.635139	-0.084168	-0.606416	-0.762817	-0.224431
20535	9.473571	-0.793366	-2.201862	-0.015525	-0.001915	0.009450	-0.206809	-0.121254	0.970839	-0.767684	0.635274	-0.084190	-0.606540	-0.762709	-0.224465
20536	9.488981	-0.845453	-2.176339	-0.009615	-0.002315	0.005424	-0.206745	-0.121279	0.970849	-0.767745	0.635207	-0.084143	-0.606485	-0.762760	-0.224437
20537	9.481325	-0.829071	-2.138584	-0.008005	-0.002994	0.006691	-0.206790	-0.121282	0.970839	-0.767682	0.635281	-0.084155	-0.606550	-0.762698	-0.224476
20538	9.514005	-0.818848	-2.137021	-0.007257	-0.000078	0.007307	-0.206927	-0.121306	0.970807	-0.767550	0.635435	-0.084203	-0.606670	-0.762566	-0.224598
20539	9.506418	-0.802486	-2.098976	-0.005911	0.000400	0.004027	-0.206931	-0.121300	0.970807	-0.767505	0.635490	-0.084193	-0.606725	-0.762521	-0.224601
20540	9.490174	-0.817031	-2.049142	-0.009018	-0.004753	0.001529	-0.206829	-0.121409	0.970815	-0.767637	0.635345	-0.084087	-0.606593	-0.762625	-0.224606
20541	9.514180	-0.837621	-2.035931	-0.005798	-0.006110	0.004063	-0.206872	-0.121453	0.970800	-0.767593	0.635399	-0.084078	-0.606634	-0.762573	-0.224673
20542	9.533917	-0.787100	-2.039434	-0.006547	-0.009026	0.003447	-0.206893	-0.121525	0.970787	-0.767646	0.635337	-0.084067	-0.606561	-0.762613	-0.224735
20543	9.500915	-0.797903	-2.042238	-0.007384	-0.011556	0.001316	-0.206948	-0.121628	0.970762	-0.767598	0.635400	-0.084027	-0.606602	-0.762544	-0.224856
20544	9.516856	-0.783211	-2.093452	-0.006127	-0.010691	-0.003479	-0.206799	-0.121905	0.970759	-0.767998	0.634937	-0.083871	-0.606146	-0.762886	-0.224927
20545	9.556937	-0.788873	-2.130906	0.001570	-0.012542	-0.003210	-0.206825	-0.122044	0.970736	-0.768014	0.634926	-0.083808	-0.606117	-0.762873	-0.225050
20546	9.566942	-0.817162	-2.148563	0.005052	-0.005932	-0.000405	-0.206726	-0.122146	0.970744	-0.768244	0.634656	-0.083745	-0.605860	-0.763080	-0.225038
20547	9.497061	-0.767197	-2.169119	0.002891	-0.005939	-0.005010	-0.206698	-0.122246	0.970738	-0.768271	0.634633	-0.083668	-0.605834	-0.763084	-0.225095
20548	9.507158	-0.795277	-2.186423	0.006397	-0.005453	-0.003685	-0.206588	-0.122422	0.970739	-0.768461	0.634421	-0.083532	-0.605631	-0.763232	-0.225141
20549	9.508214	-0.747076	-2.160651	0.005535	-0.001858	-0.004336	-0.206540	-0.122487	0.970741	-0.768504	0.634378	-0.083466	-0.605593	-0.763257	-0.225156
20550	9.527018	-0.744129	-2.189544	0.001522	-0.000293	-0.000249	-0.206493	-0.122531	0.970745	-0.768631	0.634227	-0.083446	-0.605448	-0.763376	-0.225144
20551	9.504461	-0.783187	-2.207995	-0.002758	0.002430	-0.000709	-0.206448	-0.122540	0.970754	-0.768616	0.634251	-0.083397	-0.605483	-0.763354	-0.225125
20552	9.534673	-0.760635	-2.227127	0.007319	0.005818	-0.004314	-0.206378	-0.122512	0.970772	-0.768603	0.634273	-0.083353	-0.605523	-0.763341	-0.225063
20553	9.529953	-0.755588	-2.167150	0.011090	0.005147	0.001557	-0.206334	-0.122486	0.970785	-0.768667	0.634194	-0.083357	-0.605456	-0.763410	-0.225007
20554	9.508570	-0.746939	-2.159131	0.004078	0.004174	-0.001092	-0.206188	-0.122478	0.970817	-0.768814	0.634025	-0.083297	-0.605320	-0.763552	-0.224891
20555	9.516264	-0.763789	-2.196451	0.008993	0.010878	-0.000053	-0.206096	-0.122418	0.970844	-0.768868	0.633960	-0.083281	-0.605282	-0.763615	-0.224781
20556	9.511612	-0.759001	-2.136018	0.012213	0.009521	0.002480	-0.206026	-0.122350	0.970868	-0.768913	0.633906	-0.083284	-0.605249	-0.763671	-0.224678
20557	9.511832	-0.759422	-2.134890	0.004890	0.012829	0.002517	-0.205942	-0.122259	0.970897	-0.768937	0.633876	-0.083283	-0.605246	-0.763710	-0.224551
20558	9.479299	-0.770576	-2.135439	0.009543	0.011564	0.003286	-0.205815	-0.122214	0.970930	-0.769129	0.633645	-0.083279	-0.605047	-0.763910	-0.224411
20559	9.507425	-0.755269	-2.073015	0.016378	0.013308	0.002906	-0.205731	-0.122116	0.970960	-0.769222	0.633528	-0.083308	-0.604956	-0.764022	-0.224271
20560	9.506030	-0.696432	-2.067226	0.013623	0.006613	0.006473	-0.205776	-0.121946	0.970971	-0.769143	0.633608	-0.083426	-0.605042	-0.763983	-0.224175
20561	9.531373	-0.669815	-2.026541	0.004867	0.009830	0.008272	-0.205754	-0.121841	0.970989	-0.769156	0.633585	-0.083482	-0.605033	-0.764018	-0.224078
20562	9.539009	-0.687638	-2.063862	-0.003601	0.005766	0.013140	-0.205712	-0.121766	0.971008	-0.769294	0.633409	-0.083547	-0.604872	-0.764177	-0.223974
20563	9.500253	-0.742152	-2.031872	-0.004525	0.003621	0.009495	-0.205737	-0.121701	0.971010	-0.769247	0.633459	-0.083594	-0.604922	-0.764145	-0.223945
20564	9.500224	-0.743090	-2.031668	-0.004724	0.001392	0.012219	-0.205735	-0.121694	0.971012	-0.769378	0.633294	-0.083645	-0.604756	-0.764284	-0.223920
20565	9.505016	-0.749530	-2.091097	-0.000271	-0.002102	0.015714	-0.205843	-0.121633	0.970996	-0.769345	0.633319	-0.083761	-0.604762	-0.764272	-0.223942
20566	9.518828	-0.742955	-2.060608	-0.001594	0.000420	0.013238	-0.205957	-0.121554	0.970982	-0.769254	0.633414	-0.083873	-0.604839	-0.764206	-0.223962
20567	9.485899	-0.754865	-2.062631	-0.007570	-0.004916	0.014270	-0.206071	-0.121523	0.970962	-0.769179	0.633494	-0.083959	-0.604895	-0.764145	-0.224018
20568	9.463063	-0.795015	-2.081845	-0.017912	-0.007142	0.013324	-0.206205	-0.121455	0.970942	-0.768950	0.633763	-0.084029	-0.605141	-0.763933	-0.224078
20569	9.498238	-0.796979	-2.059503	-0.009467	-0.006081	0.014212	-0.206325	-0.121434	0.970919	-0.768864	0.633857	-0.084110	-0.605210	-0.763858	-0.224147
20570	9.528079	-0.775864	-2.079971	0.000146	-0.012898	0.013065	-0.206321	-0.121575	0.970902	-0.769183	0.633466	-0.084133	-0.604805	-0.764160	-0.224211
20571	9.531515	-0.740573	-2.033885	-0.012952	-0.012690	0.011409	-0.206460	-0.121623	0.970867	-0.769081	0.633583	-0.084179	-0.604887	-0.764055	-0.224347
20572	9.491930	-0.776765	-2.105629	-0.026935	-0.011887	0.014859	-0.206558	-0.121671	0.970840	-0.769050	0.633616	-0.084217	-0.604893	-0.764020	-0.224450
20573	9.457580	-0.836161	-2.134914	-0.016748	-0.015018	0.011292	-0.206710	-0.121737	0.970799	-0.768926	0.633762	-0.084253	-0.604999	-0.763889	-0.224612
20574	9.483918	-0.869093	-2.101399	-0.004200	-0.015914	0.009606	-0.206777	-0.121807	0.970776	-0.768970	0.633705	-0.084279	-0.604920	-0.763925	-0.224702
20575	9.500850	-0.807827	-2.126922	0.004422	-0.015629	0.013522	-0.206950	-0.121863	0.970732	-0.768969	0.633692	-0.084385	-0.604862	-0.763927	-0.224852
20576	9.511752	-0.789498	-2.119115	0.000827	-0.015726	0.010683	-0.207178	-0.121862	0.970684	-0.768767	0.633922	-0.084498	-0.605041	-0.763736	-0.225018
20577	9.516167	-0.795571	-2.179965	-0.000783	-0.015045	0.009417	-0.207316	-0.121940	0.970645	-0.768743	0.633944	-0.084552	-0.605024	-0.763705	-0.225167
20578	9.489493	-0.782756	-2.114381	0.011259	-0.013894	0.013139	-0.207450	-0.122033	0.970604	-0.768856	0.633795	-0.084644	-0.604835	-0.763814	-0.225306
20579	9.492981	-0.747586	-2.068380	0.008256	-0.016427	0.006403	-0.207573	-0.122140	0.970564	-0.768893	0.633744	-0.084689	-0.604745	-0.763839	-0.225461
20580	9.506271	-0.829581	-2.172171	-0.020433	-0.014722	0.006949	-0.207651	-0.122258	0.970533	-0.768821	0.633837	-0.084649	-0.604811	-0.763743	-0.225611
20581	9.506834	-0.871281	-2.280211	-0.001906	-0.010291	0.004219	-0.207720	-0.122332	0.970509	-0.768801	0.633861	-0.084650	-0.604812	-0.763711	-0.225715
20582	9.487795	-0.874817	-2.252118	0.024958	-0.007421	0.006609	-0.207706	-0.122414	0.970502	-0.769120	0.633466	-0.084704	-0.604411	-0.764026	-0.225725
20583	9.490099	-0.779852	-2.200484	0.021274	-0.007131	0.002255	-0.207740	-0.122476	0.970486	-0.769245	0.633310	-0.084739	-0.604240	-0.764145	-0.225778
20584	9.517426	-0.746563	-2.241783	0.004540	-0.003887	0.005007	-0.207742	-0.122503	0.970483	-0.769272	0.633278	-0.084732	-0.604205	-0.764167	-0.225797
20585	9.501230	-0.761667	-2.191712	0.004614	0.001853	0.008001	-0.207766	-0.122461	0.970483	-0.769284	0.633257	-0.084785	-0.604182	-0.764192	-0.225777
20586	9.544124	-0.780079	-2.206593	0.002451	0.001848	0.003396	-0.207687	-0.122552	0.970488	-0.769552	0.632933	-0.084760	-0.603867	-0.764445	-0.225762
20587	9.502685	-0.822310	-2.195848	0.002060	0.006516	0.004567	-0.207657	-0.122496	0.970502	-0.769556	0.632927	-0.084774	-0.603872	-0.764459	-0.225699
20588	9.495370	-0.806016	-2.157051	0.002436	0.007973	0.004874	-0.207636	-0.122437	0.970514	-0.769593	0.632878	-0.084808	-0.603833	-0.764509	-0.225635
20589	9.525665	-0.784288	-2.175790	0.004334	0.009136	0.004931	-0.207593	-0.122358	0.970533	-0.769609	0.632855	-0.084830	-0.603827	-0.764541	-0.225544
20590	9.509679	-0.799327	-2.124726	0.009362	0.009321	0.006005	-0.207531	-0.122271	0.970557	-0.769762	0.632661	-0.084893	-0.603654	-0.764715	-0.225416
20591	9.523825	-0.792173	-2.093265	0.005943	0.008454	0.006198	-0.207502	-0.122190	0.970573	-0.769785	0.632627	-0.084931	-0.603633	-0.764756	-0.225331
20592	9.499864	-0.772281	-2.106175	0.007376	0.008545	0.004432	-0.207424	-0.122173	0.970592	-0.769959	0.632414	-0.084942	-0.603439	-0.764935	-0.225246
20593	9.512619	-0.705238	-2.070115	0.001971	0.006902	0.003051	-0.207380	-0.122123	0.970608	-0.769966	0.632407	-0.084940	-0.603446	-0.764949	-0.225179
20594	9.496549	-0.720203	-2.019354	-0.003763	0.006540	0.010114	-0.207319	-0.122097	0.970624	-0.770082	0.632264	-0.084950	-0.603318	-0.765072	-0.225105
20595	9.516757	-0.777789	-2.052530	-0.016006	0.003164	0.009118	-0.207344	-0.122038	0.970626	-0.769967	0.632401	-0.084967	-0.603456	-0.764968	-0.225090
20596	9.502731	-0.786208	-2.083008	-0.011819	0.000820	0.008062	-0.207304	-0.122089	0.970628	-0.770106	0.632234	-0.084952	-0.603293	-0.765098	-0.225086
20597	9.458481	-0.817034	-2.094104	-0.002517	-0.001725	0.009597	-0.207362	-0.122065	0.970619	-0.770072	0.632269	-0.085004	-0.603316	-0.765073	-0.225107
20598	9.472374	-0.810041	-2.063689	0.003944	-0.001450	0.008905	-0.207343	-0.122055	0.970624	-0.770169	0.632147	-0.085031	-0.603199	-0.765175	-0.225074
20599	9.494949	-0.771848	-2.045556	0.002436	-0.007280	0.007677	-0.207421	-0.122085	0.970604	-0.770169	0.632141	-0.085075	-0.603172	-0.765175	-0.225145
20600	9.513546	-0.769806	-2.075092	-0.001071	-0.007760	0.006353	-0.207413	-0.122076	0.970607	-0.770160	0.632152	-0.085072	-0.603186	-0.765168	-0.225134
20601	9.542161	-0.796074	-2.121704	-0.013140	-0.011905	0.008389	-0.207524	-0.122136	0.970575	-0.770065	0.632266	-0.085088	-0.603270	-0.765064	-0.225263
20602	9.513880	-0.812599	-2.183666	0.006320	-0.005344	0.009307	-0.207575	-0.122157	0.970562	-0.770166	0.632133	-0.085154	-0.603122	-0.765170	-0.225296
20603	9.490062	-0.811075	-2.096137	0.012706	-0.010809	0.005620	-0.207657	-0.122227	0.970536	-0.770232	0.632046	-0.085202	-0.603010	-0.765231	-0.225392
20604	9.523453	-0.735120	-2.171128	0.000827	-0.006598	0.006411	-0.207684	-0.122248	0.970527	-0.770315	0.631940	-0.085241	-0.602895	-0.765315	-0.225414
20605	9.513213	-0.814952	-2.185690	-0.000229	-0.005231	0.008484	-0.207755	-0.122257	0.970511	-0.770297	0.631956	-0.085287	-0.602893	-0.765301	-0.225466
20606	9.510405	-0.803974	-2.207459	0.001117	-0.004755	0.005202	-0.207680	-0.122309	0.970520	-0.770458	0.631765	-0.085251	-0.602714	-0.765450	-0.225439
20607	9.510278	-0.804502	-2.207816	-0.001548	-0.002706	0.006009	-0.207717	-0.122315	0.970512	-0.770437	0.631787	-0.085270	-0.602727	-0.765430	-0.225468
20608	9.508859	-0.852852	-2.234095	-0.001723	-0.001933	0.002976	-0.207791	-0.122346	0.970492	-0.770386	0.631847	-0.085292	-0.602767	-0.765377	-0.225545
20609	9.465953	-0.835422	-2.219001	0.010522	0.001436	0.003969	-0.207786	-0.122332	0.970495	-0.770443	0.631774	-0.085318	-0.602696	-0.765439	-0.225524
20610	9.502745	-0.789129	-2.169745	0.013563	0.000844	0.003469	-0.207682	-0.122323	0.970518	-0.770683	0.631479	-0.085329	-0.602424	-0.765683	-0.225419
20611	9.491411	-0.809340	-2.178514	0.013553	0.006969	0.004947	-0.207652	-0.122261	0.970532	-0.770756	0.631385	-0.085371	-0.602342	-0.765771	-0.225342
20612	9.474046	-0.764871	-2.122945	0.008700	0.006015	0.006907	-0.207527	-0.122235	0.970562	-0.770982	0.631110	-0.085369	-0.602096	-0.766002	-0.225213
20613	9.517006	-0.783498	-2.137330	0.004050	0.007290	0.006140	-0.207504	-0.122163	0.970576	-0.770995	0.631089	-0.085402	-0.602088	-0.766030	-0.225141
20614	9.498328	-0.786878	-2.107700	0.004427	0.008747	0.006447	-0.207557	-0.122070	0.970577	-0.770914	0.631178	-0.085476	-0.602172	-0.765972	-0.225111
20615	9.477005	-0.778594	-2.099423	-0.000891	0.006722	0.006583	-0.207541	-0.121999	0.970589	-0.770897	0.631196	-0.085502	-0.602200	-0.765969	-0.225048
20616	9.503738	-0.811264	-2.063999	0.002073	0.000389	0.003090	-0.207560	-0.121954	0.970591	-0.770823	0.631284	-0.085519	-0.602288	-0.765903	-0.225035
20617	9.503736	-0.811715	-2.063830	0.004437	0.002621	0.004971	-0.207556	-0.121926	0.970595	-0.770840	0.631259	-0.085542	-0.602267	-0.765928	-0.225007
20618	9.507670	-0.775858	-2.016506	0.002926	-0.003208	0.003744	-0.207495	-0.122010	0.970597	-0.771044	0.631014	-0.085512	-0.602027	-0.766117	-0.225008
20619	9.493541	-0.784200	-2.047394	-0.003448	-0.003864	0.005952	-0.207538	-0.122025	0.970586	-0.771013	0.631051	-0.085526	-0.602053	-0.766084	-0.225050
20620	9.490757	-0.772930	-2.069270	-0.007711	-0.007256	0.004015	-0.207497	-0.122131	0.970582	-0.771169	0.630866	-0.085482	-0.601867	-0.766220	-0.225086
20621	9.480453	-0.852274	-2.083999	-0.004670	-0.007850	0.003516	-0.207545	-0.122191	0.970564	-0.771135	0.630909	-0.085470	-0.601894	-0.766174	-0.225168
20622	9.507803	-0.818715	-2.125740	0.007497	-0.010224	0.001517	-0.207515	-0.122255	0.970562	-0.771278	0.630735	-0.085458	-0.601720	-0.766307	-0.225180
20623	9.512321	-0.824303	-2.186069	0.010626	-0.011204	0.002534	-0.207576	-0.122347	0.970538	-0.771338	0.630660	-0.085470	-0.601622	-0.766354	-0.225281
20624	9.513499	-0.776733	-2.160724	0.013484	-0.004900	0.000477	-0.207406	-0.122470	0.970558	-0.771713	0.630212	-0.085390	-0.601200	-0.766704	-0.225222
20625	9.522113	-0.745963	-2.173309	0.011294	-0.007904	0.001631	-0.207440	-0.122543	0.970542	-0.771779	0.630130	-0.085396	-0.601103	-0.766759	-0.225290
20626	9.511951	-0.717994	-2.156955	0.001871	-0.001839	0.005817	-0.207495	-0.122519	0.970533	-0.771710	0.630211	-0.085430	-0.601174	-0.766697	-0.225315
20627	9.523244	-0.699031	-2.148017	-0.000406	-0.004457	0.005454	-0.207537	-0.122541	0.970522	-0.771698	0.630223	-0.085446	-0.601175	-0.766682	-0.225360
20628	9.492953	-0.721709	-2.128692	-0.012194	-0.000623	0.007761	-0.207447	-0.122529	0.970542	-0.771774	0.630135	-0.085408	-0.601108	-0.766757	-0.225285
20629	9.524339	-0.759688	-2.153083	-0.014769	0.001042	0.010084	-0.207492	-0.122480	0.970539	-0.771666	0.630264	-0.085437	-0.601231	-0.766659	-0.225289
20630	9.501475	-0.799343	-2.171566	-0.016290	0.001339	0.010335	-0.207498	-0.122437	0.970543	-0.771637	0.630296	-0.085459	-0.601266	-0.766640	-0.225262
20631	9.518126	-0.803719	-2.119604	-0.008018	0.003153	0.008181	-0.207516	-0.122384	0.970546	-0.771574	0.630370	-0.085485	-0.601341	-0.766587	-0.225240
20632	9.463837	-0.805945	-2.113674	-0.011729	0.000447	0.009585	-0.207615	-0.122281	0.970538	-0.771347	0.630639	-0.085548	-0.601598	-0.766382	-0.225251
20633	9.499242	-0.807829	-2.090638	-0.003281	0.001489	0.010464	-0.207660	-0.122226	0.970535	-0.771307	0.630680	-0.085606	-0.601633	-0.766357	-0.225241
20634	9.507908	-0.777653	-2.102848	0.003274	-0.004754	0.009810	-0.207655	-0.122231	0.970535	-0.771493	0.630444	-0.085669	-0.601397	-0.766551	-0.225215
20635	9.510359	-0.790253	-2.082005	-0.004709	-0.004725	0.010754	-0.207740	-0.122221	0.970518	-0.771444	0.630496	-0.085727	-0.601431	-0.766509	-0.225266
20636	9.506109	-0.827391	-2.129949	-0.005554	-0.007253	0.008624	-0.207897	-0.122211	0.970486	-0.771309	0.630649	-0.085814	-0.601549	-0.766385	-0.225373
20637	9.523260	-0.873348	-2.185516	0.002341	-0.006897	0.006163	-0.207960	-0.122247	0.970468	-0.771312	0.630642	-0.085843	-0.601524	-0.766385	-0.225439
20638	9.481468	-0.915764	-2.175567	0.016022	-0.003450	0.005387	-0.207954	-0.122240	0.970470	-0.771417	0.630508	-0.085882	-0.601391	-0.766496	-0.225415
