// General information: 
//  MT Manager version: 2022.2.0 
//  XDA version: 2022.2.0 build 7381 rev 124627 built on 2023-07-19
// Device information: 
//  DeviceId: 00B4CB9F
//  ProductCode: MTW2-3A7G6
//  Firmware Version: 4.6.0
//  Hardware Version: 2.0.0
// Device settings: 
//  Filter Profile: human(46.1)
//  Option Flags: Orientation Smoother Disabled, Position/Velocity Smoother Disabled, Continuous Zero Rotation Update Disabled, AHS Disabled, ICC Disabled
// Coordinate system: ENU
PacketCounter	Acc_X	Acc_Y	Acc_Z	Gyr_X	Gyr_Y	Gyr_Z	Mat[1][1]	Mat[2][1]	Mat[3][1]	Mat[1][2]	Mat[2][2]	Mat[3][2]	Mat[1][3]	Mat[2][3]	Mat[3][3]
06710	9.747031	-0.212836	-1.389396	0.012263	-0.012942	0.003873	-0.129642	-0.067396	0.989268	-0.481930	0.876203	-0.003463	-0.866566	-0.477206	-0.146073
06711	9.741137	-0.222738	-1.368749	0.012504	-0.012150	0.005193	-0.129820	-0.067415	0.989243	-0.482051	0.876136	-0.003553	-0.866472	-0.477327	-0.146237
06712	9.735269	-0.232794	-1.347918	0.013201	-0.009294	0.007010	-0.129850	-0.067402	0.989240	-0.482177	0.876067	-0.003601	-0.866398	-0.477456	-0.146257
06713	9.728781	-0.254713	-1.359136	0.014328	-0.003900	0.007180	-0.129965	-0.067364	0.989228	-0.482312	0.875992	-0.003714	-0.866305	-0.477599	-0.146339
06714	9.757943	-0.242519	-1.346528	0.020708	-0.007037	0.001454	-0.129971	-0.067375	0.989226	-0.482418	0.875933	-0.003724	-0.866245	-0.477705	-0.146349
06715	9.718560	-0.205756	-1.341105	0.019235	0.002148	0.006714	-0.130031	-0.067313	0.989222	-0.482597	0.875834	-0.003839	-0.866136	-0.477895	-0.146371
06716	9.679876	-0.111821	-1.392783	0.007583	0.000828	0.000872	-0.130019	-0.067223	0.989230	-0.482653	0.875803	-0.003922	-0.866107	-0.477965	-0.146316
06717	9.724931	-0.140215	-1.420154	-0.003297	0.000935	0.003274	-0.130073	-0.067197	0.989225	-0.482641	0.875809	-0.003970	-0.866106	-0.477957	-0.146351
06718	9.737036	-0.110021	-1.431326	-0.016225	0.001033	0.002120	-0.130072	-0.067106	0.989231	-0.482586	0.875840	-0.004040	-0.866136	-0.477914	-0.146307
06719	9.661409	-0.117948	-1.481709	-0.027179	0.002569	-0.001906	-0.130087	-0.067117	0.989228	-0.482373	0.875957	-0.004002	-0.866253	-0.477698	-0.146326
06720	9.690673	-0.104425	-1.468565	-0.031651	-0.000938	-0.003085	-0.130037	-0.067071	0.989238	-0.482222	0.876040	-0.003993	-0.866344	-0.477551	-0.146261
06721	9.689298	-0.127177	-1.533656	-0.033644	-0.001900	-0.002355	-0.130088	-0.067107	0.989229	-0.481954	0.876188	-0.003941	-0.866486	-0.477275	-0.146324
06722	9.706428	-0.143926	-1.509557	-0.033640	-0.001900	-0.002353	-0.130211	-0.067128	0.989211	-0.481498	0.876438	-0.003905	-0.866720	-0.476812	-0.146444
06723	9.700031	-0.164096	-1.520348	-0.031666	-0.000461	-0.005224	-0.130236	-0.067182	0.989204	-0.481252	0.876574	-0.003828	-0.866854	-0.476555	-0.146493
06724	9.722856	-0.171319	-1.518220	-0.025451	-0.005821	-0.005845	-0.130270	-0.067187	0.989200	-0.481017	0.876703	-0.003800	-0.866979	-0.476316	-0.146526
06725	9.705016	-0.210099	-1.485615	-0.022758	-0.002005	-0.004755	-0.130310	-0.067244	0.989190	-0.480846	0.876797	-0.003740	-0.867067	-0.476136	-0.146590
06726	9.734238	-0.196808	-1.472729	-0.007792	-0.002098	-0.000049	-0.130361	-0.067209	0.989186	-0.480775	0.876836	-0.003783	-0.867099	-0.476069	-0.146617
06727	9.740618	-0.175769	-1.462107	0.002236	0.001754	0.000591	-0.130394	-0.067202	0.989182	-0.480815	0.876814	-0.003813	-0.867073	-0.476110	-0.146643
06728	9.695593	-0.147768	-1.434406	0.002236	0.001754	0.000591	-0.130447	-0.067143	0.989179	-0.480758	0.876845	-0.003881	-0.867096	-0.476062	-0.146661
06729	9.673365	-0.082474	-1.494151	0.003561	-0.000617	0.000186	-0.130499	-0.067150	0.989172	-0.480809	0.876816	-0.003909	-0.867060	-0.476113	-0.146710
06730	9.672678	-0.094198	-1.526674	-0.005556	-0.000345	0.000543	-0.130531	-0.067157	0.989167	-0.480669	0.876894	-0.003894	-0.867133	-0.475970	-0.146742
06731	9.696234	-0.090701	-1.491643	0.000455	0.002062	0.000498	-0.130561	-0.067149	0.989164	-0.480693	0.876880	-0.003921	-0.867115	-0.475996	-0.146764
06732	9.724820	-0.089293	-1.510897	-0.007628	0.000130	-0.005156	-0.130564	-0.067182	0.989161	-0.480575	0.876945	-0.003872	-0.867180	-0.475872	-0.146783
06733	9.672724	-0.093294	-1.526437	-0.005633	0.001091	-0.005885	-0.130572	-0.067235	0.989156	-0.480556	0.876956	-0.003826	-0.867189	-0.475844	-0.146816
06734	9.701353	-0.136970	-1.455998	-0.006087	-0.000971	-0.006383	-0.130559	-0.067238	0.989158	-0.480456	0.877010	-0.003801	-0.867246	-0.475743	-0.146806
06735	9.733625	-0.206496	-1.505044	0.000820	-0.003475	-0.005188	-0.130609	-0.067306	0.989147	-0.480492	0.876991	-0.003771	-0.867219	-0.475769	-0.146883
06736	9.733646	-0.251615	-1.415585	0.006401	-0.003609	-0.003588	-0.130662	-0.067330	0.989138	-0.480536	0.876967	-0.003783	-0.867186	-0.475811	-0.146941
06737	9.735558	-0.171024	-1.408342	0.015570	-0.004838	0.000340	-0.130751	-0.067356	0.989125	-0.480692	0.876881	-0.003830	-0.867086	-0.475965	-0.147031
06738	9.706944	-0.172430	-1.389289	0.019801	-0.002122	0.000202	-0.130781	-0.067365	0.989120	-0.480826	0.876807	-0.003859	-0.867008	-0.476100	-0.147060
06739	9.690407	-0.143556	-1.381430	0.012036	-0.004699	0.002297	-0.130878	-0.067373	0.989107	-0.480949	0.876740	-0.003919	-0.866925	-0.476223	-0.147149
06740	9.690318	-0.143769	-1.382032	0.009320	-0.008038	-0.000934	-0.130913	-0.067415	0.989099	-0.480953	0.876738	-0.003900	-0.866917	-0.476221	-0.147200
06741	9.741679	-0.150583	-1.399428	0.002815	-0.002515	-0.005916	-0.130951	-0.067485	0.989089	-0.481007	0.876708	-0.003866	-0.866882	-0.476265	-0.147267
06742	9.701604	-0.124284	-1.426510	-0.002982	-0.003652	-0.006693	-0.130972	-0.067433	0.989090	-0.481055	0.876682	-0.003930	-0.866852	-0.476322	-0.147260
06743	9.700316	-0.192421	-1.401797	-0.005874	0.000297	-0.007204	-0.130979	-0.067501	0.989084	-0.481036	0.876693	-0.003871	-0.866862	-0.476292	-0.147299
06744	9.717506	-0.209172	-1.377498	-0.002313	-0.000320	-0.007018	-0.130867	-0.067559	0.989095	-0.481047	0.876687	-0.003766	-0.866872	-0.476294	-0.147228
06745	9.705459	-0.238713	-1.366284	0.003219	0.000505	-0.009704	-0.130860	-0.067647	0.989090	-0.481109	0.876653	-0.003695	-0.866839	-0.476344	-0.147265
06746	9.734002	-0.236954	-1.385879	0.004168	-0.005363	-0.004178	-0.130903	-0.067676	0.989083	-0.481065	0.876677	-0.003683	-0.866857	-0.476295	-0.147316
06747	9.723159	-0.198217	-1.399840	0.007098	-0.000754	-0.001770	-0.130946	-0.067701	0.989075	-0.481151	0.876630	-0.003696	-0.866803	-0.476379	-0.147365
06748	9.711081	-0.228306	-1.388783	0.011935	-0.002784	-0.006273	-0.130992	-0.067711	0.989068	-0.481236	0.876583	-0.003724	-0.866749	-0.476463	-0.147410
06749	9.739599	-0.226717	-1.408510	0.013263	-0.005155	-0.006677	-0.131049	-0.067800	0.989055	-0.481382	0.876503	-0.003698	-0.866659	-0.476598	-0.147502
06750	9.745257	-0.216931	-1.430626	0.017708	-0.001168	-0.007639	-0.131042	-0.067819	0.989054	-0.481490	0.876444	-0.003696	-0.866600	-0.476704	-0.147505
06751	9.699521	-0.200160	-1.435572	0.021726	0.000279	-0.006956	-0.131050	-0.067885	0.989049	-0.481709	0.876323	-0.003680	-0.866477	-0.476916	-0.147543
06752	9.700231	-0.188014	-1.402979	0.021942	0.001549	-0.007778	-0.131018	-0.067869	0.989054	-0.481865	0.876238	-0.003704	-0.866395	-0.477075	-0.147506
06753	9.688210	-0.217877	-1.391613	0.025267	0.000141	-0.008910	-0.131018	-0.067952	0.989048	-0.482118	0.876099	-0.003673	-0.866255	-0.477319	-0.147545
06754	9.712342	-0.156849	-1.413896	0.022425	0.003135	-0.005138	-0.131001	-0.068032	0.989045	-0.482032	0.876146	-0.003580	-0.866305	-0.477220	-0.147570
06755	9.700347	-0.186723	-1.402353	0.012799	0.002293	-0.009563	-0.130979	-0.068111	0.989043	-0.482178	0.876066	-0.003525	-0.866227	-0.477356	-0.147588
06756	9.677521	-0.177815	-1.404589	0.012799	0.002293	-0.009563	-0.130924	-0.068128	0.989049	-0.482287	0.876006	-0.003500	-0.866174	-0.477464	-0.147548
06757	9.706114	-0.175565	-1.423868	0.006257	-0.000752	-0.016439	-0.130895	-0.068282	0.989042	-0.482386	0.875953	-0.003367	-0.866124	-0.477540	-0.147596
06758	9.711820	-0.164856	-1.445725	0.012057	0.000389	-0.015662	-0.130859	-0.068419	0.989037	-0.482349	0.875973	-0.003222	-0.866150	-0.477482	-0.147631
06759	9.718220	-0.142442	-1.434948	0.008948	0.003067	-0.015354	-0.130802	-0.068545	0.989036	-0.482469	0.875908	-0.003103	-0.866091	-0.477585	-0.147641
06760	9.711945	-0.162136	-1.445192	0.012727	0.003722	-0.015990	-0.130663	-0.068654	0.989047	-0.482618	0.875826	-0.002964	-0.866029	-0.477719	-0.147572
06761	9.689774	-0.140888	-1.415078	0.011847	-0.000880	-0.014837	-0.130643	-0.068794	0.989040	-0.482763	0.875746	-0.002855	-0.865952	-0.477845	-0.147621
06762	9.717670	-0.150224	-1.467012	0.013392	-0.001981	-0.016062	-0.130586	-0.068900	0.989040	-0.483038	0.875595	-0.002780	-0.865807	-0.478107	-0.147622
06763	9.712649	-0.146540	-1.412894	0.017222	-0.002276	-0.012412	-0.130589	-0.069026	0.989031	-0.483226	0.875491	-0.002702	-0.865701	-0.478278	-0.147685
06764	9.689087	-0.149251	-1.448020	0.017223	-0.002276	-0.012412	-0.130590	-0.069063	0.989028	-0.483304	0.875448	-0.002683	-0.865658	-0.478352	-0.147703
06765	9.682052	-0.181142	-1.491406	0.021882	-0.006053	-0.013943	-0.130618	-0.069220	0.989013	-0.483535	0.875321	-0.002597	-0.865525	-0.478562	-0.147803
06766	9.706645	-0.107622	-1.482114	0.021884	-0.006053	-0.013942	-0.130629	-0.069330	0.989004	-0.483778	0.875187	-0.002547	-0.865387	-0.478791	-0.147865
06767	9.705918	-0.118379	-1.515049	0.022100	-0.004784	-0.014766	-0.130642	-0.069488	0.988991	-0.484012	0.875058	-0.002453	-0.865254	-0.479004	-0.147952
06768	9.706527	-0.105432	-1.483043	0.020319	-0.004478	-0.014859	-0.130622	-0.069585	0.988987	-0.483901	0.875119	-0.002339	-0.865319	-0.478878	-0.147983
06769	9.699476	-0.137154	-1.526546	0.012523	-0.006588	-0.014904	-0.130650	-0.069753	0.988972	-0.484053	0.875036	-0.002230	-0.865230	-0.479006	-0.148088
06770	9.670860	-0.137069	-1.507686	0.012976	-0.004524	-0.014410	-0.130632	-0.069866	0.988966	-0.484061	0.875032	-0.002122	-0.865229	-0.478997	-0.148126
06771	9.694331	-0.132027	-1.473441	0.013620	-0.009753	-0.016620	-0.130679	-0.070064	0.988946	-0.484224	0.874942	-0.001998	-0.865130	-0.479132	-0.148263
06772	9.705201	-0.169078	-1.460132	0.017185	-0.001328	-0.016695	-0.130640	-0.070172	0.988943	-0.484381	0.874855	-0.001911	-0.865048	-0.479275	-0.148281
06773	9.728085	-0.175798	-1.457888	0.014739	-0.004356	-0.016457	-0.130641	-0.070343	0.988931	-0.484554	0.874760	-0.001790	-0.864951	-0.479424	-0.148364
06774	9.729412	-0.150790	-1.393159	0.017877	0.001531	-0.014884	-0.130534	-0.070402	0.988941	-0.484474	0.874804	-0.001671	-0.865012	-0.479334	-0.148299
06775	9.735129	-0.140326	-1.414690	0.016758	0.005169	-0.015310	-0.130457	-0.070517	0.988943	-0.484663	0.874700	-0.001564	-0.864918	-0.479508	-0.148288
06776	9.723955	-0.157835	-1.370175	0.014380	0.009757	-0.008909	-0.130284	-0.070495	0.988967	-0.484655	0.874704	-0.001497	-0.864948	-0.479503	-0.148125
06777	9.712486	-0.130494	-1.415586	0.010125	0.007507	-0.010908	-0.130208	-0.070560	0.988973	-0.484781	0.874634	-0.001424	-0.864889	-0.479621	-0.148091
06778	9.689703	-0.121538	-1.417351	-0.000768	0.007593	-0.008506	-0.130106	-0.070573	0.988985	-0.484656	0.874704	-0.001341	-0.864975	-0.479492	-0.148007
06779	9.701755	-0.090401	-1.428032	-0.000980	0.006325	-0.007681	-0.130056	-0.070615	0.988989	-0.484682	0.874690	-0.001283	-0.864968	-0.479512	-0.147984
06780	9.724161	-0.109457	-1.457032	-0.009024	0.012449	-0.009311	-0.129965	-0.070573	0.989004	-0.484545	0.874766	-0.001253	-0.865058	-0.479379	-0.147885
06781	9.707078	-0.091190	-1.480380	-0.013230	0.009252	-0.007024	-0.129893	-0.070596	0.989012	-0.484463	0.874811	-0.001184	-0.865114	-0.479294	-0.147833
06782	9.713848	-0.012291	-1.526584	-0.018794	0.008896	-0.006483	-0.129798	-0.070477	0.989033	-0.484540	0.874768	-0.001255	-0.865086	-0.479389	-0.147693
06783	9.644289	-0.055833	-1.508151	-0.030158	0.007389	-0.006718	-0.129744	-0.070506	0.989038	-0.484312	0.874895	-0.001164	-0.865222	-0.479154	-0.147659
06784	9.655050	-0.047954	-1.583896	-0.035072	0.001803	-0.008386	-0.129662	-0.070490	0.989050	-0.484165	0.874976	-0.001113	-0.865316	-0.479007	-0.147580
06785	9.700885	-0.062749	-1.578774	-0.037064	0.000838	-0.007655	-0.129660	-0.070558	0.989045	-0.483878	0.875135	-0.001003	-0.865477	-0.478707	-0.147611
06786	9.689609	-0.079666	-1.534895	-0.031567	0.002617	-0.014621	-0.129644	-0.070713	0.989036	-0.483325	0.875441	-0.000764	-0.865788	-0.478125	-0.147673
06787	9.689662	-0.077935	-1.534651	-0.031304	0.002937	-0.011160	-0.129607	-0.070802	0.989034	-0.483093	0.875569	-0.000627	-0.865923	-0.477877	-0.147684
06788	9.741453	-0.128396	-1.461470	-0.021076	-0.000476	-0.013230	-0.129603	-0.070768	0.989037	-0.483223	0.875497	-0.000677	-0.865851	-0.478014	-0.147664
06789	9.701578	-0.146851	-1.398573	-0.021241	-0.002696	-0.008122	-0.129629	-0.070857	0.989028	-0.483075	0.875579	-0.000585	-0.865930	-0.477850	-0.147730
06790	9.712566	-0.184144	-1.384954	-0.015252	0.000202	-0.010310	-0.129652	-0.070923	0.989020	-0.483043	0.875596	-0.000534	-0.865944	-0.477809	-0.147782
06791	9.742352	-0.158241	-1.339596	-0.010329	-0.003248	-0.008381	-0.129682	-0.071017	0.989009	-0.482989	0.875626	-0.000456	-0.865970	-0.477740	-0.147853
06792	9.713150	-0.170649	-1.352946	-0.006033	-0.001948	-0.002096	-0.129689	-0.070935	0.989014	-0.483201	0.875509	-0.000568	-0.865851	-0.477966	-0.147819
06793	9.742294	-0.157133	-1.340143	-0.002962	-0.003668	-0.006687	-0.129730	-0.071016	0.989003	-0.483208	0.875505	-0.000518	-0.865840	-0.477962	-0.147895
06794	9.749153	-0.123621	-1.297320	-0.011403	-0.000562	-0.004519	-0.129724	-0.071033	0.989002	-0.483023	0.875607	-0.000468	-0.865945	-0.477772	-0.147898
06795	9.742863	-0.144233	-1.308170	-0.012041	-0.004372	-0.002049	-0.129794	-0.071077	0.988990	-0.482947	0.875650	-0.000450	-0.865977	-0.477688	-0.147981
06796	9.690757	-0.148838	-1.323931	-0.018273	0.000970	-0.001433	-0.129772	-0.071019	0.988997	-0.482913	0.875668	-0.000484	-0.865999	-0.477662	-0.147933
06797	9.679106	-0.121585	-1.370386	-0.028976	-0.005770	-0.003883	-0.129845	-0.071086	0.988983	-0.482692	0.875790	-0.000424	-0.866111	-0.477429	-0.148029
06798	9.707590	-0.119630	-1.390320	-0.026956	-0.005280	-0.002470	-0.129888	-0.071097	0.988976	-0.482213	0.876054	-0.000353	-0.866372	-0.476943	-0.148073
06799	9.706895	-0.130669	-1.423371	-0.034529	-0.006131	-0.003339	-0.129967	-0.071160	0.988962	-0.481943	0.876203	-0.000289	-0.866510	-0.476661	-0.148172
06800	9.683900	-0.121611	-1.426487	-0.036566	-0.006144	-0.006891	-0.130000	-0.071201	0.988954	-0.481588	0.876398	-0.000209	-0.866702	-0.476295	-0.148221
06801	9.712363	-0.118971	-1.446581	-0.044371	-0.007789	-0.009078	-0.130066	-0.071322	0.988937	-0.481240	0.876589	-0.000074	-0.866886	-0.475926	-0.148337
06802	9.699773	-0.159561	-1.468470	-0.039930	-0.003790	-0.010037	-0.130149	-0.071360	0.988923	-0.480808	0.876826	-0.000006	-0.867113	-0.475483	-0.148428
06803	9.733670	-0.204532	-1.452832	-0.043698	-0.004455	-0.009398	-0.130184	-0.071468	0.988911	-0.480466	0.877013	0.000131	-0.867297	-0.475121	-0.148511
06804	9.716367	-0.185562	-1.477453	-0.037478	-0.000759	-0.010264	-0.130177	-0.071547	0.988906	-0.480064	0.877234	0.000273	-0.867521	-0.474702	-0.148543
06805	9.693452	-0.176098	-1.480062	-0.030116	-0.001179	-0.008574	-0.130188	-0.071632	0.988898	-0.479839	0.877356	0.000382	-0.867644	-0.474462	-0.148593
06806	9.687202	-0.195819	-1.490878	-0.021021	-0.000942	-0.011073	-0.130149	-0.071708	0.988898	-0.479688	0.877439	0.000494	-0.867733	-0.474298	-0.148595
06807	9.704526	-0.211739	-1.466595	-0.011505	0.001839	-0.015216	-0.130101	-0.071837	0.988895	-0.479633	0.877469	0.000641	-0.867771	-0.474223	-0.148615
06808	9.745470	-0.224120	-1.406827	0.008512	0.009611	-0.013939	-0.129932	-0.071826	0.988918	-0.479867	0.877341	0.000674	-0.867666	-0.474462	-0.148461
06809	9.711497	-0.233681	-1.364384	0.022506	0.015436	-0.014757	-0.129768	-0.071887	0.988935	-0.480107	0.877209	0.000766	-0.867558	-0.474696	-0.148347
06810	9.728635	-0.204515	-1.428301	0.028086	0.015320	-0.013159	-0.129636	-0.071881	0.988953	-0.480447	0.877023	0.000767	-0.867390	-0.475040	-0.148229
06811	9.712985	-0.105618	-1.443435	0.033199	0.013621	-0.014200	-0.129491	-0.071945	0.988967	-0.480779	0.876841	0.000837	-0.867228	-0.475366	-0.148132
06812	9.713832	-0.092890	-1.409303	0.025168	0.019738	-0.015807	-0.129280	-0.071960	0.988994	-0.480930	0.876758	0.000928	-0.867175	-0.475517	-0.147955
06813	9.684915	-0.104759	-1.420925	0.005194	0.011001	-0.012806	-0.129164	-0.072025	0.989004	-0.481018	0.876710	0.001026	-0.867144	-0.475596	-0.147884
06814	9.690127	-0.105810	-1.474286	0.002733	0.008446	-0.014716	-0.129127	-0.071990	0.989011	-0.481155	0.876635	0.000990	-0.867073	-0.475740	-0.147836
06815	9.679169	-0.065977	-1.487283	0.002076	0.005111	-0.014393	-0.129055	-0.072096	0.989013	-0.481218	0.876600	0.001108	-0.867049	-0.475788	-0.147823
06816	9.678649	-0.076176	-1.519491	-0.000830	0.000492	-0.016802	-0.128949	-0.072209	0.989019	-0.481106	0.876662	0.001279	-0.867127	-0.475658	-0.147784
06817	9.660765	-0.068650	-1.576495	-0.003969	-0.004921	-0.020530	-0.128934	-0.072416	0.989006	-0.481124	0.876651	0.001467	-0.867119	-0.475645	-0.147871
06818	9.683593	-0.074608	-1.574734	0.000486	-0.009953	-0.021246	-0.128970	-0.072594	0.988988	-0.481116	0.876655	0.001608	-0.867118	-0.475611	-0.147988
06819	9.689123	-0.063200	-1.597264	0.001589	-0.004553	-0.021070	-0.128949	-0.072804	0.988975	-0.481184	0.876618	0.001793	-0.867084	-0.475647	-0.148071
06820	9.690166	-0.037631	-1.532985	0.011347	-0.009530	-0.025787	-0.128956	-0.073045	0.988956	-0.481317	0.876544	0.001980	-0.867009	-0.475746	-0.148193
06821	9.672706	-0.017843	-1.558253	0.003779	-0.010392	-0.026657	-0.128959	-0.073332	0.988935	-0.481410	0.876492	0.002217	-0.866956	-0.475798	-0.148334
06822	9.666310	-0.036305	-1.570222	-0.003106	-0.016956	-0.027607	-0.129037	-0.073618	0.988903	-0.481460	0.876465	0.002424	-0.866917	-0.475804	-0.148541
06823	9.706320	-0.058887	-1.545161	0.000228	-0.018349	-0.028739	-0.129099	-0.073961	0.988870	-0.481525	0.876428	0.002687	-0.866872	-0.475819	-0.148760
06824	9.706002	-0.113284	-1.489704	0.005344	-0.020043	-0.029778	-0.129206	-0.074261	0.988833	-0.481513	0.876434	0.002903	-0.866863	-0.475761	-0.148999
06825	9.723082	-0.128225	-1.467372	0.012983	-0.020611	-0.022489	-0.129318	-0.074560	0.988796	-0.481682	0.876341	0.003085	-0.866752	-0.475886	-0.149241
06826	9.733432	-0.176237	-1.488068	0.018731	-0.018489	-0.025993	-0.129447	-0.074791	0.988762	-0.482045	0.876141	0.003164	-0.866531	-0.476218	-0.149466
06827	9.733778	-0.162646	-1.457394	0.019033	-0.019129	-0.018253	-0.129565	-0.075045	0.988727	-0.482260	0.876022	0.003294	-0.866394	-0.476397	-0.149693
06828	9.739680	-0.140241	-1.448689	0.027971	-0.021102	-0.015650	-0.129663	-0.075196	0.988703	-0.482512	0.875883	0.003336	-0.866239	-0.476629	-0.149853
06829	9.711418	-0.071896	-1.455998	0.029113	-0.016655	-0.011197	-0.129795	-0.075377	0.988672	-0.482806	0.875721	0.003382	-0.866055	-0.476898	-0.150056
06830	9.694340	-0.042246	-1.449784	0.031380	-0.023926	-0.010359	-0.130001	-0.075444	0.988639	-0.483254	0.875474	0.003263	-0.865774	-0.477340	-0.150271
06831	9.682728	-0.003149	-1.466030	0.022930	-0.028927	-0.012212	-0.130233	-0.075693	0.988590	-0.483495	0.875341	0.003328	-0.865605	-0.477545	-0.150596
06832	9.693375	0.016383	-1.512742	0.018510	-0.032937	-0.011244	-0.130562	-0.075847	0.988535	-0.483669	0.875245	0.003274	-0.865458	-0.477696	-0.150959
06833	9.674306	-0.046159	-1.548086	0.007882	-0.040659	-0.009399	-0.130909	-0.076127	0.988467	-0.483776	0.875186	0.003333	-0.865346	-0.477760	-0.151398
06834	9.655784	-0.096803	-1.551457	-0.001910	-0.043299	-0.010843	-0.131352	-0.076331	0.988393	-0.483919	0.875107	0.003272	-0.865199	-0.477872	-0.151886
06835	9.689312	-0.141855	-1.539851	-0.007022	-0.049694	-0.013823	-0.131757	-0.076693	0.988311	-0.483903	0.875115	0.003397	-0.865146	-0.477799	-0.152414
06836	9.723499	-0.174997	-1.496054	-0.004790	-0.047928	-0.013236	-0.132125	-0.076876	0.988248	-0.484022	0.875050	0.003358	-0.865024	-0.477890	-0.152825
06837	9.788009	-0.114105	-1.431475	-0.003980	-0.042369	-0.018666	-0.132442	-0.077244	0.988176	-0.484039	0.875039	0.003526	-0.864966	-0.477849	-0.153281
06838	9.795072	-0.067628	-1.359526	-0.006922	-0.029876	-0.017287	-0.132714	-0.077458	0.988123	-0.483954	0.875086	0.003598	-0.864971	-0.477729	-0.153622
06839	9.721706	-0.027789	-1.282516	-0.027881	-0.024237	-0.017864	-0.132878	-0.077732	0.988079	-0.483764	0.875190	0.003794	-0.865053	-0.477493	-0.153898
06840	9.675847	-0.066827	-1.232085	-0.053047	-0.021343	-0.018286	-0.132992	-0.077900	0.988051	-0.483239	0.875479	0.003981	-0.865328	-0.476936	-0.154076
06841	9.733202	-0.049784	-1.240684	-0.074582	-0.020000	-0.014242	-0.133138	-0.078122	0.988014	-0.482640	0.875809	0.004213	-0.865640	-0.476294	-0.154308
06842	9.696953	-0.093125	-1.298494	-0.101323	-0.015065	-0.017698	-0.133299	-0.078195	0.987986	-0.481808	0.876266	0.004347	-0.866079	-0.475440	-0.154480
06843	9.701065	-0.034802	-1.411689	-0.127311	-0.016312	-0.019085	-0.133390	-0.078441	0.987955	-0.480757	0.876841	0.004709	-0.866648	-0.474338	-0.154673
06844	9.688512	-0.073089	-1.434601	-0.147283	-0.015116	-0.020523	-0.133521	-0.078606	0.987924	-0.479536	0.877508	0.005009	-0.867305	-0.473076	-0.154860
06845	9.686852	-0.091925	-1.501346	-0.166088	-0.017559	-0.021542	-0.133612	-0.078879	0.987890	-0.478151	0.878261	0.005456	-0.868055	-0.471631	-0.155062
06846	9.686075	-0.029659	-1.560325	-0.179526	-0.020895	-0.022294	-0.133775	-0.079037	0.987855	-0.476603	0.879100	0.005794	-0.868881	-0.470039	-0.155271
06847	9.690466	-0.026326	-1.616713	-0.186791	-0.020023	-0.026059	-0.133867	-0.079361	0.987817	-0.475041	0.879941	0.006318	-0.869721	-0.468408	-0.155495
06848	9.643571	0.052923	-1.680104	-0.187573	-0.023673	-0.029168	-0.133957	-0.079520	0.987792	-0.474067	0.880464	0.006591	-0.870239	-0.467397	-0.155642
06849	9.573565	0.140967	-1.745597	-0.191783	-0.023985	-0.039672	-0.134019	-0.079982	0.987746	-0.472478	0.881313	0.007257	-0.871093	-0.465716	-0.155902
06850	9.583770	0.098881	-1.767304	-0.214541	-0.026444	-0.047739	-0.134055	-0.080386	0.987708	-0.470694	0.882261	0.007920	-0.872053	-0.463846	-0.156108
06851	9.620671	-0.101137	-1.827220	-0.227876	-0.037355	-0.054691	-0.134165	-0.081041	0.987640	-0.468806	0.883257	0.008791	-0.873052	-0.461832	-0.156495
06852	9.698220	-0.395528	-1.839279	-0.205087	-0.043261	-0.054102	-0.134300	-0.081617	0.987574	-0.467006	0.884202	0.009566	-0.873996	-0.459919	-0.156864
06853	9.744476	-0.461162	-1.783642	-0.153213	-0.040697	-0.051400	-0.134457	-0.082258	0.987499	-0.465764	0.884849	0.010290	-0.874635	-0.458558	-0.157287
06854	9.746393	-0.490434	-1.666436	-0.108045	-0.035378	-0.046399	-0.134577	-0.082714	0.987445	-0.464850	0.885324	0.010806	-0.875102	-0.457559	-0.157594
06855	9.766685	-0.389242	-1.538873	-0.070581	-0.033220	-0.037169	-0.134737	-0.083194	0.987383	-0.464310	0.885601	0.011260	-0.875364	-0.456934	-0.157951
06856	9.780969	-0.309804	-1.421435	-0.059227	-0.020812	-0.040080	-0.134743	-0.083470	0.987359	-0.463857	0.885835	0.011586	-0.875603	-0.456432	-0.158078
06857	9.770831	-0.244296	-1.370287	-0.069956	-0.009516	-0.042817	-0.134669	-0.083892	0.987333	-0.463329	0.886104	0.012094	-0.875894	-0.455832	-0.158200
06858	9.697210	-0.214254	-1.322860	-0.090837	-0.002444	-0.049616	-0.134426	-0.084211	0.987339	-0.462452	0.886554	0.012652	-0.876395	-0.454896	-0.158119
06859	9.691283	-0.228527	-1.333900	-0.111104	0.008472	-0.058827	-0.134120	-0.084693	0.987339	-0.461585	0.886995	0.013384	-0.876899	-0.453946	-0.158057
06860	9.686220	-0.231083	-1.311736	-0.136669	0.008419	-0.060918	-0.133883	-0.085003	0.987345	-0.460592	0.887502	0.013952	-0.877457	-0.452895	-0.157974
06861	9.697145	-0.202545	-1.354107	-0.159525	0.016004	-0.073347	-0.133447	-0.085580	0.987354	-0.459317	0.888147	0.014902	-0.878191	-0.451520	-0.157829
06862	9.669164	-0.195376	-1.333239	-0.197132	0.018226	-0.072488	-0.132962	-0.085956	0.987387	-0.457752	0.888940	0.015745	-0.879081	-0.449885	-0.157542
06863	9.629121	-0.229402	-1.335076	-0.228900	0.013600	-0.075012	-0.132541	-0.086560	0.987391	-0.455866	0.889889	0.016820	-0.880124	-0.447889	-0.157406
06864	9.652495	-0.226455	-1.332649	-0.255750	0.006546	-0.079955	-0.132119	-0.087023	0.987406	-0.453727	0.890963	0.017813	-0.881293	-0.445659	-0.157198
06865	9.675802	-0.222503	-1.330905	-0.266321	0.000499	-0.090084	-0.131748	-0.087821	0.987385	-0.451525	0.892054	0.019095	-0.882478	-0.443313	-0.157179
06866	9.671504	-0.129533	-1.266280	-0.279298	-0.000599	-0.095836	-0.131355	-0.088496	0.987378	-0.449173	0.893214	0.020301	-0.883736	-0.440837	-0.157078
06867	9.702007	-0.162696	-1.198393	-0.290330	0.000347	-0.106557	-0.130915	-0.089443	0.987351	-0.446773	0.894382	0.021783	-0.885017	-0.438270	-0.157049
06868	9.673148	-0.161557	-1.212421	-0.308896	-0.002483	-0.110912	-0.130466	-0.090251	0.987337	-0.444221	0.895618	0.023168	-0.886367	-0.435573	-0.156939
06869	9.621966	-0.222146	-1.207458	-0.312219	-0.010698	-0.116497	-0.130085	-0.091337	0.987287	-0.441631	0.896854	0.024781	-0.887716	-0.432793	-0.157005
06870	9.698157	-0.279328	-1.171183	-0.315910	-0.021495	-0.120509	-0.129773	-0.092267	0.987242	-0.439094	0.898059	0.026214	-0.889020	-0.430090	-0.157057
06871	9.698223	-0.263869	-1.174217	-0.303524	-0.023727	-0.123387	-0.129484	-0.093473	0.987166	-0.436581	0.899233	0.027881	-0.890298	-0.427368	-0.157245
06872	9.664088	-0.272018	-1.169777	-0.296811	-0.027695	-0.124905	-0.129218	-0.094478	0.987105	-0.434478	0.900206	0.029285	-0.891365	-0.425092	-0.157371
06873	9.658283	-0.276838	-1.185154	-0.284498	-0.029359	-0.129929	-0.128957	-0.095767	0.987015	-0.432137	0.901276	0.030987	-0.892540	-0.422529	-0.157610
06874	9.628671	-0.193485	-1.189912	-0.255387	-0.034970	-0.142569	-0.128632	-0.096995	0.986937	-0.430080	0.902202	0.032613	-0.893580	-0.420267	-0.157768
06875	9.663218	-0.143065	-1.168000	-0.237113	-0.032774	-0.148438	-0.128329	-0.098466	0.986831	-0.428179	0.903038	0.034425	-0.894536	-0.418123	-0.158047
06876	9.683882	-0.195677	-1.062267	-0.219858	-0.035963	-0.154654	-0.128026	-0.099743	0.986743	-0.426526	0.903758	0.036015	-0.895369	-0.416260	-0.158247
06877	9.709254	-0.246948	-1.011212	-0.194214	-0.033863	-0.155502	-0.127707	-0.101282	0.986627	-0.425013	0.904396	0.037828	-0.896133	-0.414499	-0.158544
06878	9.692380	-0.192816	-0.971291	-0.170735	-0.034070	-0.154873	-0.127350	-0.102628	0.986534	-0.424003	0.904804	0.039392	-0.896662	-0.413277	-0.158741
06879	9.679785	-0.137108	-0.985661	-0.158579	-0.036182	-0.157860	-0.127046	-0.104198	0.986409	-0.422810	0.905283	0.041172	-0.897269	-0.411832	-0.159069
06880	9.643782	-0.073986	-1.001722	-0.151834	-0.039330	-0.158143	-0.126767	-0.105514	0.986305	-0.422127	0.905534	0.042619	-0.897630	-0.410943	-0.159332
06881	9.658031	-0.068337	-0.895173	-0.148058	-0.037463	-0.162985	-0.126456	-0.107136	0.986170	-0.421032	0.905957	0.044433	-0.898187	-0.409591	-0.159671
06882	9.758584	-0.130721	-0.861092	-0.133748	-0.038867	-0.161140	-0.126149	-0.108554	0.986054	-0.420284	0.906226	0.045998	-0.898581	-0.408620	-0.159943
06883	9.761430	-0.175339	-0.812258	-0.120477	-0.034766	-0.162450	-0.125819	-0.110159	0.985918	-0.419434	0.906528	0.047762	-0.899024	-0.407518	-0.160264
06884	9.793910	-0.197951	-0.716002	-0.092686	-0.029968	-0.161403	-0.125456	-0.111574	0.985805	-0.418777	0.906748	0.049331	-0.899381	-0.406644	-0.160482
06885	9.801628	-0.286904	-0.547013	-0.053119	-0.019815	-0.156978	-0.125018	-0.113068	0.985691	-0.418525	0.906776	0.050934	-0.899560	-0.406168	-0.160685
06886	9.875993	-0.391556	-0.284554	-0.000222	-0.005860	-0.148350	-0.124439	-0.114190	0.985635	-0.419130	0.906430	0.052098	-0.899358	-0.406626	-0.160656
06887	9.984278	-0.472606	-0.027510	0.045097	0.014474	-0.134072	-0.123787	-0.115336	0.985583	-0.419730	0.906082	0.053316	-0.899168	-0.407079	-0.160571
06888	9.972438	-0.628489	0.165100	0.079860	0.046182	-0.118676	-0.122846	-0.116004	0.985623	-0.420914	0.905485	0.054111	-0.898744	-0.408215	-0.160063
06889	9.975297	-0.797718	0.472212	0.113644	0.089267	-0.090192	-0.121703	-0.116446	0.985712	-0.422074	0.904904	0.054787	-0.898355	-0.409376	-0.159279
06890	9.930794	-0.909503	0.607520	0.152663	0.132166	-0.063642	-0.120192	-0.116355	0.985908	-0.423700	0.904128	0.055051	-0.897793	-0.411112	-0.157969
06891	9.854842	-0.947796	0.780916	0.161637	0.177957	-0.040761	-0.118462	-0.115980	0.986162	-0.425228	0.903404	0.055167	-0.897300	-0.412808	-0.156337
06892	9.897901	-0.868514	0.853015	0.164953	0.232818	-0.019315	-0.116329	-0.115038	0.986526	-0.426851	0.902652	0.054924	-0.896809	-0.414711	-0.154108
06893	9.896686	-0.641437	0.745098	0.125674	0.281046	-0.006190	-0.113822	-0.113916	0.986949	-0.428014	0.902111	0.054762	-0.896576	-0.416195	-0.151438
06894	9.809454	-0.304447	0.538343	0.060633	0.327044	-0.001317	-0.110894	-0.112400	0.987456	-0.428784	0.901762	0.054492	-0.896575	-0.417362	-0.148195
06895	9.754619	-0.034668	0.335281	-0.057466	0.366819	-0.001166	-0.107639	-0.110869	0.987989	-0.428299	0.901989	0.054556	-0.897203	-0.417282	-0.144574
06896	9.773796	0.153178	0.195297	-0.217671	0.412325	-0.009791	-0.103906	-0.109066	0.988589	-0.426408	0.902870	0.054791	-0.898543	-0.415849	-0.140321
06897	9.764511	0.191599	-0.112415	-0.400076	0.460016	-0.015304	-0.099743	-0.107288	0.989212	-0.422855	0.904499	0.055463	-0.900691	-0.412761	-0.135585
06898	9.739052	0.133339	-0.532120	-0.583011	0.488167	-0.014897	-0.095277	-0.105247	0.989871	-0.417799	0.906800	0.056200	-0.903530	-0.408213	-0.130369
06899	9.462572	0.013654	-1.171194	-0.735294	0.459249	-0.002500	-0.091149	-0.103397	0.990455	-0.411176	0.909764	0.057134	-0.906988	-0.402043	-0.125438
06900	9.320210	-0.170359	-1.799861	-0.824667	0.339293	0.009456	-0.088096	-0.101802	0.990896	-0.403882	0.912977	0.057890	-0.910559	-0.395106	-0.121546
06901	9.526786	-0.309701	-2.213446	-0.822313	0.214333	0.030956	-0.086304	-0.100668	0.991170	-0.396385	0.916216	0.058541	-0.914019	-0.387832	-0.118977
06902	10.007376	-0.319086	-2.430087	-0.742531	0.142665	0.038703	-0.085114	-0.099588	0.991382	-0.389811	0.919013	0.058851	-0.916953	-0.381442	-0.117041
06903	10.636953	-0.320640	-2.310212	-0.613022	0.137297	0.044595	-0.084065	-0.098644	0.991566	-0.384176	0.921367	0.059090	-0.919425	-0.375968	-0.115352
06904	11.364613	-0.384367	-1.779554	-0.413666	0.211380	0.057028	-0.082373	-0.097193	0.991851	-0.380347	0.922969	0.058855	-0.921168	-0.372399	-0.112995
06905	12.046255	-0.564982	-1.105055	-0.160210	0.344417	0.075980	-0.079526	-0.095197	0.992277	-0.378841	0.923627	0.058248	-0.922038	-0.371283	-0.109517
06906	11.953258	-0.594020	-0.417186	0.142727	0.486065	0.104938	-0.075421	-0.092282	0.992872	-0.380272	0.923122	0.056913	-0.921795	-0.373269	-0.104715
06907	11.503471	-0.596305	0.051688	0.341182	0.568696	0.147291	-0.070782	-0.088776	0.993533	-0.383340	0.921964	0.055071	-0.920891	-0.376963	-0.099290
06908	11.607161	-0.599763	0.370502	0.326518	0.613525	0.227574	-0.066042	-0.084203	0.994258	-0.386338	0.920872	0.052326	-0.919990	-0.380664	-0.093347
06909	12.080593	-0.402538	0.708722	0.176194	0.783608	0.297298	-0.060024	-0.078460	0.995109	-0.387805	0.920428	0.049180	-0.919785	-0.382956	-0.085675
06910	11.194936	0.062980	1.041048	0.143705	1.045012	0.312258	-0.051652	-0.071406	0.996109	-0.389269	0.919987	0.045765	-0.919675	-0.385390	-0.075315
06911	9.175858	0.381486	1.491526	0.130137	1.126886	0.251028	-0.042306	-0.064729	0.997006	-0.390382	0.919642	0.043142	-0.919680	-0.387388	-0.064175
06912	8.385362	0.393837	1.299629	0.150752	0.860529	0.214506	-0.035299	-0.059265	0.997618	-0.391838	0.919132	0.040738	-0.919357	-0.389467	-0.055667
06913	8.529696	0.345421	0.833478	0.151075	0.688853	0.146925	-0.029583	-0.055212	0.998036	-0.393215	0.918612	0.039163	-0.918971	-0.391284	-0.048886
06914	9.008842	0.528664	0.407031	0.202987	0.643773	0.074630	-0.024043	-0.051847	0.998366	-0.395223	0.917793	0.038145	-0.918271	-0.393660	-0.042557
06915	9.770031	0.565365	0.209885	0.273682	0.679660	0.056960	-0.018070	-0.048625	0.998654	-0.397758	0.916726	0.037439	-0.917312	-0.396546	-0.035906
06916	10.389131	0.462196	0.281845	0.333306	0.804210	0.073962	-0.011070	-0.044587	0.998944	-0.401021	0.915345	0.036412	-0.916002	-0.400195	-0.028013
06917	10.277946	0.232902	0.283630	0.333307	0.845073	0.112487	-0.003826	-0.040148	0.999186	-0.404101	0.914038	0.035179	-0.914707	-0.403637	-0.019721
06918	10.183822	0.170925	-0.656905	0.439949	0.754682	0.169872	0.002260	-0.035401	0.999371	-0.408309	0.912238	0.033238	-0.912841	-0.408127	-0.012393
06919	10.334129	0.663045	-0.824769	0.604676	0.718483	0.207392	0.007917	-0.030545	0.999502	-0.413869	0.909806	0.031082	-0.910302	-0.413909	-0.005439
06920	10.810101	1.210419	-0.225554	0.615151	0.835166	0.228810	0.014480	-0.024828	0.999587	-0.419779	0.907175	0.028614	-0.907511	-0.420020	0.002714
06921	10.692054	1.374407	-0.352022	0.394509	0.912347	0.230020	0.021742	-0.018881	0.999585	-0.423435	0.905544	0.026314	-0.905665	-0.423832	0.011694
06922	10.610704	0.731056	-0.644524	0.175673	0.882298	0.233559	0.028659	-0.012856	0.999507	-0.425326	0.904726	0.023833	-0.904586	-0.425799	0.020460
06923	10.902720	0.655831	-0.692726	0.017556	0.848255	0.247316	0.035238	-0.006993	0.999354	-0.425602	0.904659	0.021338	-0.904224	-0.426080	0.028903
06924	10.951939	0.110695	-0.627960	-0.076853	0.868004	0.280522	0.041854	-0.000575	0.999124	-0.425246	0.904892	0.018334	-0.904110	-0.425640	0.037629
06925	10.831416	-0.315511	-0.478989	-0.092838	0.902149	0.324411	0.048592	0.006211	0.998799	-0.424592	0.905260	0.015027	-0.904080	-0.424813	0.046626
06926	10.771810	-0.588931	-0.271250	-0.028928	0.908345	0.353302	0.055275	0.013460	0.998380	-0.424757	0.905237	0.011313	-0.903618	-0.424695	0.055754
06927	10.757924	-0.660081	-0.076793	0.041233	0.888603	0.377601	0.061656	0.020666	0.997883	-0.425390	0.904979	0.007542	-0.902907	-0.424955	0.064589
06928	10.822117	-0.906574	0.000495	0.159695	0.898230	0.409502	0.067983	0.028388	0.997283	-0.427340	0.904085	0.003396	-0.901532	-0.426409	0.073594
06929	10.984470	-1.109155	0.164623	0.339861	0.939291	0.456260	0.074444	0.036542	0.996555	-0.430765	0.902463	-0.000913	-0.899388	-0.429214	0.082924
06930	10.967729	-1.019905	0.379865	0.554126	0.998949	0.482942	0.081281	0.045405	0.995656	-0.436362	0.899755	-0.005409	-0.896093	-0.434027	0.092946
06931	10.733891	-0.775709	0.596849	0.711025	1.041084	0.481442	0.088432	0.054291	0.994602	-0.443168	0.896388	-0.009527	-0.892066	-0.439934	0.103330
06932	10.668532	-0.381307	0.953732	0.808464	1.065487	0.478225	0.095732	0.063496	0.993380	-0.451047	0.892397	-0.013574	-0.887351	-0.446762	0.114070
06933	10.639785	-0.062074	1.193611	0.859677	1.112285	0.488699	0.103309	0.072867	0.991977	-0.459182	0.888171	-0.017421	-0.882315	-0.453698	0.125216
06934	10.457489	0.297628	1.360533	0.909063	1.163649	0.506030	0.111152	0.082876	0.990342	-0.467962	0.883489	-0.021412	-0.876731	-0.461062	0.136984
06935	10.207445	0.791199	1.607768	0.919634	1.204481	0.501277	0.119270	0.092901	0.988506	-0.476618	0.878753	-0.025080	-0.870983	-0.468148	0.149087
06936	10.023538	1.220208	1.754764	0.873440	1.217851	0.467414	0.127544	0.102939	0.986477	-0.485010	0.874044	-0.028498	-0.865158	-0.474816	0.161405
06937	9.815180	1.782536	1.873355	0.782309	1.209884	0.426707	0.135853	0.112450	0.984327	-0.492361	0.869824	-0.031415	-0.859724	-0.480376	0.173534
06938	9.666662	2.353158	1.861207	0.656149	1.207480	0.376351	0.144286	0.121733	0.982020	-0.498733	0.866086	-0.034084	-0.854662	-0.484847	0.185676
06939	9.461294	2.714773	1.729543	0.485971	1.186222	0.325869	0.152727	0.130330	0.979637	-0.503402	0.863287	-0.036370	-0.850448	-0.487596	0.197455
06940	9.294940	2.948910	1.362284	0.278199	1.142143	0.268590	0.161013	0.138392	0.977201	-0.506385	0.861445	-0.038562	-0.847142	-0.488631	0.208784
06941	9.013963	3.047463	1.063015	0.048956	1.081997	0.196376	0.169133	0.145377	0.974813	-0.507166	0.860901	-0.040394	-0.845090	-0.487560	0.219337
06942	8.670507	2.891771	0.681974	-0.152364	1.012128	0.137500	0.176935	0.151629	0.972472	-0.506293	0.861329	-0.042183	-0.844015	-0.484892	0.229168
06943	8.332728	2.941832	0.288769	-0.293414	0.929812	0.081354	0.184331	0.156833	0.970271	-0.504007	0.862594	-0.043678	-0.843800	-0.480972	0.238048
06944	8.092758	2.693959	-0.192826	-0.498588	0.804630	0.043497	0.190859	0.161178	0.968295	-0.500029	0.864818	-0.045394	-0.844715	-0.475512	0.245652
06945	8.295057	1.795770	-0.371704	-0.874153	0.670190	0.058334	0.196201	0.164854	0.966607	-0.492789	0.868816	-0.048150	-0.847741	-0.466886	0.251700
06946	9.261706	0.253024	0.183590	-1.131007	0.645687	0.109373	0.201110	0.168882	0.964901	-0.483519	0.873779	-0.052156	-0.851918	-0.456059	0.257383
06947	9.870251	-1.194429	0.361462	-1.120773	0.695744	0.186809	0.206116	0.173667	0.962993	-0.474374	0.878483	-0.056893	-0.855854	-0.445092	0.263453
06948	9.976469	-1.931583	0.330609	-0.886160	0.687794	0.270660	0.210691	0.179167	0.960994	-0.467458	0.881844	-0.061923	-0.858541	-0.436177	0.269549
06949	10.269381	-2.087938	0.710884	-0.527400	0.683180	0.320924	0.215027	0.184974	0.958931	-0.463656	0.883519	-0.066459	-0.859527	-0.430323	0.275744
06950	10.362769	-1.824144	1.104814	-0.154152	0.711327	0.356536	0.219435	0.191262	0.956696	-0.463221	0.883445	-0.070370	-0.858647	-0.427720	0.282455
06951	10.242316	-1.437593	1.395309	0.127013	0.732631	0.398567	0.223828	0.197928	0.954319	-0.465239	0.882101	-0.073832	-0.856419	-0.427461	0.289523
06952	9.877697	-0.849597	1.688914	0.342019	0.745501	0.420154	0.228183	0.204907	0.951812	-0.469225	0.879724	-0.076898	-0.853089	-0.429067	0.296886
06953	9.464309	-0.069646	2.104282	0.502959	0.764477	0.414599	0.232694	0.211854	0.949195	-0.474506	0.876669	-0.079343	-0.848939	-0.431937	0.304521
06954	9.209576	0.693638	2.387266	0.526668	0.759524	0.387550	0.237221	0.218616	0.946537	-0.479982	0.873489	-0.081452	-0.844597	-0.434999	0.312142
06955	9.134894	1.326702	2.571485	0.426682	0.749121	0.349782	0.241808	0.224948	0.943890	-0.484461	0.870826	-0.083425	-0.840730	-0.437105	0.319551
06956	9.003793	1.557775	2.478758	0.207657	0.716624	0.319809	0.246217	0.230927	0.941302	-0.487075	0.869133	-0.085818	-0.837935	-0.437355	0.326474
06957	8.841111	1.137790	2.222513	-0.119781	0.677536	0.301121	0.250385	0.236513	0.938813	-0.486866	0.868925	-0.089057	-0.836821	-0.434777	0.332716
06958	8.533341	0.143543	1.877793	-0.404373	0.624793	0.305913	0.254081	0.241920	0.936439	-0.484328	0.869895	-0.093318	-0.837179	-0.429833	0.338192
06959	8.194996	-0.731722	1.699683	-0.523100	0.559412	0.320843	0.257180	0.247116	0.934233	-0.480812	0.871317	-0.098114	-0.838259	-0.423958	0.342901
06960	7.921846	-1.062447	1.646099	-0.534196	0.472395	0.333879	0.259496	0.252055	0.932271	-0.477260	0.872693	-0.103103	-0.839574	-0.418182	0.346756
06961	7.610346	-1.079899	1.602338	-0.525979	0.403392	0.339617	0.261232	0.256712	0.930514	-0.473771	0.873987	-0.108111	-0.841011	-0.412609	0.349936
06962	7.275922	-1.208982	1.725478	-0.535574	0.326611	0.352007	0.262272	0.261165	0.928981	-0.470248	0.875232	-0.113293	-0.842663	-0.407138	0.352361
06963	7.043018	-1.598040	1.949287	-0.509703	0.233042	0.343725	0.262588	0.265134	0.927767	-0.466897	0.876364	-0.118297	-0.844426	-0.402108	0.353913
06964	7.048085	-2.075445	2.172952	-0.404366	0.137268	0.310091	0.262255	0.268437	0.926911	-0.464356	0.877117	-0.122635	-0.845929	-0.398255	0.354679
06965	7.204785	-2.414527	2.474911	-0.220753	0.055527	0.253027	0.261513	0.270893	0.926406	-0.463197	0.877285	-0.125775	-0.846794	-0.396217	0.354898
06966	7.358298	-2.418227	2.730290	-0.031337	0.021092	0.198533	0.260719	0.272761	0.926082	-0.463520	0.876828	-0.127760	-0.846862	-0.395948	0.355036
06967	7.465235	-2.513051	2.879566	0.143975	-0.011693	0.153729	0.259867	0.274078	0.925932	-0.465186	0.875810	-0.128684	-0.846210	-0.397290	0.355091
06968	7.499756	-2.674988	3.024513	0.357561	-0.041329	0.113559	0.258933	0.274958	0.925933	-0.468581	0.874024	-0.128507	-0.844622	-0.400600	0.355153
06969	7.621216	-2.703307	3.065834	0.608478	-0.085819	0.075047	0.257816	0.275282	0.926148	-0.473953	0.871336	-0.127053	-0.841962	-0.406194	0.355115
06970	7.840163	-2.654530	3.172751	0.884625	-0.115885	0.054284	0.256525	0.275340	0.926490	-0.481610	0.867503	-0.124463	-0.838002	-0.414279	0.355143
06971	7.970121	-2.505769	3.386819	1.166575	-0.147200	0.064919	0.254940	0.275299	0.926939	-0.491568	0.862402	-0.120933	-0.832687	-0.424822	0.355189
06972	8.413230	-2.244073	3.937964	1.420457	-0.185408	0.084290	0.252921	0.275294	0.927493	-0.503658	0.855981	-0.116724	-0.826051	-0.437618	0.355150
06973	8.922758	-1.639476	4.600231	1.504792	-0.143941	0.119160	0.251090	0.275684	0.927875	-0.516379	0.848939	-0.112495	-0.818722	-0.450889	0.355518
06974	8.317539	-0.845465	4.636866	1.363546	-0.108254	0.133056	0.249449	0.276392	0.928107	-0.527931	0.842272	-0.108937	-0.811828	-0.462802	0.356020
06975	7.473828	0.163546	4.069178	1.145221	-0.227072	0.081158	0.247139	0.276024	0.928834	-0.537443	0.836658	-0.105632	-0.806274	-0.473090	0.355118
06976	7.203056	1.207661	3.554456	0.787871	-0.468665	0.051557	0.243027	0.274295	0.930430	-0.544012	0.832684	-0.103385	-0.803112	-0.481040	0.351584
06977	7.290692	1.921707	2.939528	0.406306	-0.716020	0.039199	0.237024	0.271170	0.932891	-0.547412	0.830581	-0.102347	-0.802595	-0.486418	0.345309
06978	7.913642	2.438086	2.925570	0.010989	-0.939557	0.032831	0.229236	0.266923	0.936057	-0.547668	0.830373	-0.102665	-0.804681	-0.489114	0.336537
06979	9.122736	2.430117	3.127211	-0.432373	-1.010523	0.061004	0.220708	0.262504	0.939351	-0.544360	0.832294	-0.104685	-0.809296	-0.488240	0.326591
06980	9.302646	1.986213	2.342197	-0.876607	-1.070402	0.116628	0.211327	0.258317	0.942663	-0.537559	0.836199	-0.108633	-0.816316	-0.483780	0.315572
06981	9.233005	1.568935	1.206318	-1.287324	-1.167452	0.209182	0.200589	0.254482	0.946046	-0.527466	0.841811	-0.114606	-0.825557	-0.476018	0.303088
06982	9.319709	0.679230	0.697380	-1.570629	-1.252091	0.276109	0.188702	0.250939	0.949432	-0.515005	0.848476	-0.121898	-0.836159	-0.465960	0.289344
06983	10.650900	0.335292	1.964788	-1.548751	-1.237990	0.275039	0.176848	0.247589	0.952588	-0.502523	0.854900	-0.128905	-0.846283	-0.455901	0.275607
06984	12.612786	-0.393477	4.603461	-1.274938	-0.969175	0.267713	0.167235	0.245513	0.954859	-0.492178	0.859976	-0.134916	-0.854279	-0.447398	0.264654
06985	13.883377	-2.161482	7.137054	-0.877411	-0.590094	0.288881	0.160727	0.245394	0.956007	-0.485178	0.863138	-0.139986	-0.859517	-0.441334	0.257789
06986	13.048982	-4.355774	6.509084	-0.526432	-0.388573	0.343310	0.155684	0.246662	0.956515	-0.481228	0.864582	-0.144629	-0.862660	-0.437786	0.253302
06987	10.938131	-5.130468	2.841710	-0.151033	-0.537685	0.283413	0.149639	0.246773	0.957451	-0.480402	0.864516	-0.147738	-0.864189	-0.437854	0.247915
06988	10.313272	-3.581126	1.016689	0.215228	-0.662617	0.184661	0.142980	0.245487	0.958798	-0.482595	0.863075	-0.149012	-0.864094	-0.441405	0.241873
06989	10.126944	-1.883961	1.162416	0.394364	-0.606021	0.172354	0.136871	0.244297	0.959992	-0.486286	0.860874	-0.149741	-0.863013	-0.446336	0.236627
06990	9.438238	-0.550458	1.224113	0.295821	-0.520530	0.218650	0.131268	0.243876	0.960881	-0.489194	0.858972	-0.151181	-0.862240	-0.450212	0.232059
06991	8.712292	0.085205	1.375098	-0.053845	-0.541019	0.285067	0.125166	0.243900	0.961689	-0.489139	0.858491	-0.154065	-0.863178	-0.451116	0.226755
06992	8.570831	-0.584791	1.314045	-0.484957	-0.664015	0.352005	0.117665	0.243960	0.962621	-0.485424	0.859780	-0.158561	-0.866325	-0.448622	0.219590
06993	9.140443	-1.792510	1.007140	-0.761885	-0.759480	0.371883	0.109234	0.243786	0.963658	-0.479272	0.862245	-0.163804	-0.870842	-0.443961	0.211027
06994	9.523206	-2.735351	0.651181	-0.771922	-0.745850	0.330014	0.101107	0.243362	0.964652	-0.472927	0.864819	-0.168607	-0.875282	-0.439162	0.202531
06995	9.769687	-3.198315	0.661990	-0.611810	-0.681007	0.247843	0.093929	0.242544	0.965583	-0.467846	0.866865	-0.172236	-0.878805	-0.435566	0.194896
06996	10.089061	-3.280362	0.675855	-0.320644	-0.609557	0.172940	0.087712	0.241414	0.966450	-0.465230	0.867809	-0.174551	-0.880833	-0.434312	0.188430
06997	10.314784	-2.814451	0.746200	0.022712	-0.536259	0.117166	0.082403	0.240112	0.967241	-0.465573	0.867401	-0.175663	-0.881165	-0.435847	0.183266
06998	10.309805	-1.887598	0.923541	0.284239	-0.475063	0.093992	0.077731	0.238871	0.967935	-0.468201	0.865898	-0.176091	-0.880196	-0.439501	0.179147
06999	9.805875	-0.961920	1.371381	0.368683	-0.475561	0.101682	0.073030	0.237665	0.968598	-0.471564	0.863999	-0.176444	-0.878803	-0.443870	0.175172
07000	9.555059	-0.674446	1.587214	0.299671	-0.515535	0.105253	0.067956	0.236294	0.969302	-0.474313	0.862384	-0.176976	-0.877729	-0.447727	0.170682
07001	9.437991	-0.836496	1.603214	0.183708	-0.547149	0.101609	0.062632	0.234726	0.970042	-0.476034	0.861291	-0.177675	-0.877193	-0.450645	0.165682
07002	9.410310	-1.200006	1.563571	0.082477	-0.566560	0.084310	0.057214	0.232906	0.970815	-0.476846	0.860695	-0.178385	-0.877123	-0.452723	0.160304
07003	9.505069	-1.494547	1.544649	0.005631	-0.576405	0.064665	0.051809	0.230863	0.971606	-0.476973	0.860492	-0.179028	-0.877390	-0.454154	0.154696
07004	9.532737	-1.670411	1.557996	-0.014598	-0.578949	0.056562	0.046412	0.228729	0.972383	-0.476908	0.860403	-0.179625	-0.877727	-0.455400	0.149015
07005	9.558227	-1.624074	1.601140	-0.023423	-0.556407	0.050844	0.041245	0.226643	0.973104	-0.476766	0.860366	-0.180178	-0.878062	-0.456512	0.143541
07006	9.401417	-1.627165	1.717368	-0.059347	-0.554270	0.056273	0.036062	0.224606	0.973782	-0.476301	0.860486	-0.180835	-0.878542	-0.457292	0.138011
07007	9.410924	-1.744985	1.648012	-0.128823	-0.571837	0.057467	0.030723	0.222499	0.974449	-0.475230	0.860918	-0.181593	-0.879325	-0.457508	0.132188
07008	9.452957	-1.906754	1.580562	-0.191642	-0.568257	0.048349	0.025447	0.220329	0.975094	-0.473593	0.861663	-0.182339	-0.880376	-0.457157	0.126273
07009	9.245581	-1.911862	1.535580	-0.241769	-0.555917	0.040197	0.020320	0.218150	0.975704	-0.471513	0.862651	-0.183054	-0.881625	-0.456338	0.120390
07010	9.138348	-2.023982	1.605989	-0.308444	-0.572689	0.032453	0.015068	0.215835	0.976314	-0.468835	0.863959	-0.183761	-0.883157	-0.454961	0.114209
07011	9.140030	-2.051994	1.534214	-0.351591	-0.571488	0.035347	0.009811	0.213560	0.976881	-0.465773	0.865452	-0.184522	-0.884850	-0.453194	0.107961
07012	9.170780	-2.160004	1.569386	-0.381802	-0.582171	0.014043	0.004543	0.211066	0.977461	-0.462433	0.867120	-0.185091	-0.886643	-0.451169	0.101543
07013	9.296380	-2.189004	1.480655	-0.403975	-0.571328	-0.006741	-0.000537	0.208451	0.978033	-0.458888	0.868925	-0.185448	-0.888494	-0.448907	0.095189
07014	9.348627	-2.038161	1.391079	-0.434841	-0.558680	-0.026703	-0.005431	0.205738	0.978592	-0.455067	0.870895	-0.185622	-0.890441	-0.446333	0.088895
07015	9.250925	-2.041247	1.293084	-0.504871	-0.566553	-0.036459	-0.010356	0.202915	0.979141	-0.450610	0.873188	-0.185724	-0.892661	-0.443134	0.082393
07016	9.334560	-2.033577	1.034906	-0.574531	-0.579376	-0.044749	-0.015381	0.199991	0.979677	-0.445529	0.875780	-0.185777	-0.895135	-0.439332	0.075631
07017	9.239247	-2.076004	0.763701	-0.677402	-0.587914	-0.043975	-0.020497	0.197052	0.980179	-0.439505	0.878801	-0.185862	-0.898006	-0.434603	0.068592
07018	9.275171	-2.178429	0.419103	-0.764688	-0.616396	-0.064279	-0.025808	0.193849	0.980692	-0.432693	0.882195	-0.185767	-0.901172	-0.429132	0.061109
07019	9.381745	-2.122622	0.123398	-0.814568	-0.629677	-0.076512	-0.031204	0.190505	0.981190	-0.425401	0.885788	-0.185511	-0.904467	-0.423188	0.053401
07020	9.492923	-1.931880	-0.139061	-0.846164	-0.628072	-0.102710	-0.036509	0.186981	0.981685	-0.417820	0.889503	-0.184962	-0.907796	-0.416920	0.045650
07021	9.591202	-1.894091	-0.391648	-0.863786	-0.633923	-0.130123	-0.041774	0.183215	0.982185	-0.410056	0.893292	-0.184074	-0.911103	-0.410440	0.037812
07022	9.768707	-1.789039	-0.599576	-0.856209	-0.656802	-0.159264	-0.047169	0.179141	0.982692	-0.402363	0.897036	-0.182840	-0.914264	-0.404023	0.029768
07023	9.912502	-1.675687	-0.795611	-0.829294	-0.666118	-0.181927	-0.052582	0.174852	0.983190	-0.394901	0.900659	-0.181295	-0.917218	-0.397795	0.021691
07024	9.880543	-1.688448	-0.850741	-0.802427	-0.675214	-0.201211	-0.058044	0.170395	0.983665	-0.387686	0.904146	-0.179497	-0.919962	-0.391772	0.013580
07025	9.930529	-1.745684	-0.761194	-0.760469	-0.682520	-0.214891	-0.063544	0.165811	0.984108	-0.380852	0.907442	-0.177485	-0.922450	-0.386078	0.005487
07026	9.935389	-1.871907	-0.642242	-0.704652	-0.669836	-0.220396	-0.068945	0.161260	0.984501	-0.374531	0.910480	-0.175364	-0.924648	-0.380816	-0.002376
07027	9.823697	-2.150784	-0.514676	-0.627399	-0.645877	-0.222451	-0.074134	0.156805	0.984843	-0.368923	0.913186	-0.173167	-0.926499	-0.376169	-0.009849
07028	9.857547	-2.044179	-0.250004	-0.512222	-0.621333	-0.214377	-0.079157	0.152542	0.985122	-0.364379	0.915411	-0.171026	-0.927880	-0.372496	-0.016878
07029	9.773008	-1.909387	0.005221	-0.429756	-0.560483	-0.215895	-0.083616	0.148503	0.985371	-0.360606	0.917309	-0.168845	-0.928963	-0.369448	-0.023150
07030	9.655805	-1.634822	0.146250	-0.384763	-0.511546	-0.195065	-0.087717	0.144852	0.985557	-0.357238	0.918987	-0.166863	-0.929885	-0.366715	-0.028865
07031	9.554492	-1.604132	0.382064	-0.409495	-0.501142	-0.169823	-0.091814	0.141478	0.985674	-0.353621	0.920705	-0.165092	-0.930872	-0.363713	-0.034504
07032	9.762172	-1.616074	0.540355	-0.447970	-0.482282	-0.150062	-0.095825	0.138374	0.985733	-0.349633	0.922512	-0.163488	-0.931973	-0.360312	-0.040019
07033	9.652964	-1.770569	0.429310	-0.491106	-0.402795	-0.133444	-0.099156	0.135718	0.985773	-0.345224	0.924434	-0.161997	-0.933268	-0.356375	-0.044810
07034	9.486898	-1.539921	0.116659	-0.557530	-0.393596	-0.113833	-0.102487	0.133297	0.985763	-0.340179	0.926535	-0.160656	-0.934759	-0.351801	-0.049613
07035	9.378974	-1.304456	-0.560706	-0.651227	-0.398426	-0.095556	-0.105930	0.131039	0.985702	-0.334226	0.928915	-0.159408	-0.936521	-0.346333	-0.054603
07036	9.335454	-1.130451	-1.026471	-0.765265	-0.404471	-0.090943	-0.109466	0.128833	0.985606	-0.327197	0.931633	-0.158119	-0.938594	-0.339796	-0.059828
07037	9.531248	-1.187449	-1.175849	-0.867982	-0.422719	-0.085577	-0.113199	0.126634	0.985469	-0.319176	0.934640	-0.156766	-0.940911	-0.332284	-0.065382
07038	9.706043	-1.258784	-1.257373	-0.939743	-0.420321	-0.090791	-0.116918	0.124430	0.985316	-0.310469	0.937816	-0.155272	-0.943366	-0.324064	-0.071016
07039	9.744141	-1.367474	-1.339748	-0.964501	-0.408533	-0.102169	-0.120501	0.122184	0.985165	-0.301520	0.941008	-0.153588	-0.945815	-0.315555	-0.076552
07040	9.834483	-1.596673	-1.509953	-0.956770	-0.425155	-0.112262	-0.124238	0.119827	0.984991	-0.292637	0.944103	-0.151763	-0.948118	-0.307100	-0.082228
07041	9.911774	-1.920891	-1.568263	-0.933803	-0.432371	-0.119550	-0.128034	0.117407	0.984796	-0.283965	0.947057	-0.149826	-0.950248	-0.298830	-0.087916
07042	9.928022	-2.237266	-1.529988	-0.838455	-0.423534	-0.112920	-0.131791	0.115111	0.984571	-0.276174	0.949645	-0.147995	-0.952029	-0.291417	-0.093364
07043	9.923397	-2.535960	-1.428040	-0.741258	-0.422221	-0.113849	-0.135539	0.112834	0.984326	-0.269304	0.951894	-0.146198	-0.953470	-0.284898	-0.098632
07044	9.889893	-2.727349	-1.200499	-0.576577	-0.401498	-0.100975	-0.139145	0.110766	0.984058	-0.263986	0.953616	-0.144667	-0.954437	-0.279907	-0.103451
07045	9.827495	-2.907180	-0.778562	-0.410791	-0.357900	-0.080630	-0.142387	0.109023	0.983789	-0.260217	0.954831	-0.143476	-0.954994	-0.276428	-0.107585
07046	9.742804	-3.032689	-0.286590	-0.273194	-0.318886	-0.061217	-0.145320	0.107594	0.983517	-0.257748	0.955627	-0.142626	-0.955221	-0.274226	-0.111139
07047	9.619006	-3.153624	0.073106	-0.159429	-0.274207	-0.047831	-0.147851	0.106409	0.983269	-0.256335	0.956099	-0.142013	-0.955213	-0.273043	-0.114084
07048	9.424751	-3.261334	0.386912	-0.059151	-0.233025	-0.035194	-0.150032	0.105477	0.983039	-0.255889	0.956271	-0.141659	-0.954993	-0.272802	-0.116481
07049	9.218737	-3.262632	0.522911	-0.002790	-0.196421	-0.028433	-0.151870	0.104692	0.982840	-0.255945	0.956292	-0.141413	-0.954687	-0.273030	-0.118437
07050	8.965306	-3.133314	0.320190	0.019521	-0.181602	-0.039431	-0.153547	0.103869	0.982667	-0.256276	0.956247	-0.141121	-0.954330	-0.273502	-0.120210
07051	8.795291	-2.778638	-0.131222	0.021359	-0.202316	-0.052405	-0.155379	0.102836	0.982488	-0.256600	0.956226	-0.140668	-0.953946	-0.273963	-0.122190
07052	8.823577	-2.316088	-0.580549	-0.056980	-0.228520	-0.082575	-0.157390	0.101478	0.982309	-0.256284	0.956428	-0.139868	-0.953701	-0.273764	-0.124525
07053	9.037264	-1.811614	-0.986819	-0.119908	-0.241771	-0.116904	-0.159432	0.099722	0.982159	-0.255366	0.956858	-0.138606	-0.953609	-0.272908	-0.127089
07054	9.276740	-1.435840	-1.190057	-0.160459	-0.235721	-0.138194	-0.161371	0.097817	0.982034	-0.254161	0.957391	-0.137127	-0.953604	-0.271724	-0.129634
07055	9.460906	-1.298054	-1.333757	-0.233083	-0.232640	-0.158120	-0.163225	0.095696	0.981937	-0.252235	0.958160	-0.135307	-0.953800	-0.269764	-0.132258
07056	9.450063	-1.402733	-1.452226	-0.293487	-0.259013	-0.170407	-0.165311	0.093427	0.981806	-0.249819	0.959070	-0.133326	-0.954077	-0.267314	-0.135205
07057	9.446445	-1.595631	-1.636042	-0.301968	-0.302472	-0.178276	-0.167789	0.090934	0.981620	-0.247274	0.960022	-0.131200	-0.954307	-0.264743	-0.138595
07058	9.423803	-1.719790	-1.848370	-0.255879	-0.355666	-0.190930	-0.170756	0.088223	0.981356	-0.245259	0.960830	-0.129052	-0.954301	-0.262723	-0.142430
07059	9.524570	-1.615540	-2.072167	-0.191275	-0.417753	-0.204987	-0.174275	0.085181	0.981006	-0.243827	0.961493	-0.126803	-0.954032	-0.261294	-0.146795
07060	9.679273	-1.352159	-2.194416	-0.102003	-0.457069	-0.223939	-0.178132	0.081895	0.980593	-0.243353	0.961909	-0.124541	-0.953440	-0.260815	-0.151417
07061	9.793376	-1.052633	-2.183087	-0.040000	-0.490906	-0.235543	-0.182272	0.078371	0.980120	-0.243435	0.962187	-0.122209	-0.952636	-0.260871	-0.156301
07062	9.853483	-0.848007	-2.043224	-0.013409	-0.517262	-0.239696	-0.186656	0.074773	0.979576	-0.243850	0.962370	-0.119925	-0.951681	-0.261255	-0.161399
07063	9.812748	-0.676584	-1.811190	0.010653	-0.526027	-0.244922	-0.191096	0.071063	0.978996	-0.244453	0.962506	-0.117583	-0.950644	-0.261788	-0.166559
07064	9.678417	-0.580457	-1.481649	-0.008100	-0.540250	-0.247694	-0.195666	0.067319	0.978357	-0.244951	0.962664	-0.115228	-0.949586	-0.262196	-0.171870
07065	9.577788	-0.788865	-1.266781	-0.056642	-0.568826	-0.252137	-0.200481	0.063424	0.977642	-0.244951	0.962963	-0.112703	-0.948581	-0.262069	-0.177520
07066	9.598502	-0.986641	-0.940113	-0.107988	-0.582030	-0.254670	-0.205418	0.059501	0.976864	-0.244537	0.963369	-0.110101	-0.947631	-0.261496	-0.183343
07067	9.519722	-1.275599	-0.687040	-0.159784	-0.576946	-0.255252	-0.210295	0.055559	0.976058	-0.243592	0.963918	-0.107351	-0.946805	-0.260335	-0.189173
07068	9.461500	-1.371060	-0.538865	-0.204795	-0.578469	-0.258650	-0.215181	0.051618	0.975209	-0.242299	0.964555	-0.104517	-0.946038	-0.258782	-0.195047
07069	9.357832	-1.325207	-0.712111	-0.286320	-0.580247	-0.262203	-0.220070	0.047616	0.974321	-0.240200	0.965409	-0.101435	-0.945449	-0.256355	-0.201021
07070	9.422947	-1.267604	-0.882168	-0.346496	-0.567012	-0.263316	-0.224838	0.043683	0.973416	-0.237611	0.966379	-0.098251	-0.944981	-0.253385	-0.206899
07071	9.498740	-0.973943	-1.000656	-0.405023	-0.538500	-0.278637	-0.229303	0.039658	0.972547	-0.234454	0.967500	-0.094731	-0.944696	-0.249740	-0.212553
07072	9.552206	-0.626834	-1.431140	-0.486135	-0.528628	-0.288746	-0.233660	0.035611	0.971666	-0.230634	0.968779	-0.090966	-0.944569	-0.245355	-0.218152
07073	9.508195	-0.560231	-1.882946	-0.592185	-0.526393	-0.293164	-0.237998	0.031516	0.970754	-0.225769	0.970301	-0.086852	-0.944661	-0.239837	-0.223814
07074	9.589903	-0.778679	-2.295401	-0.670582	-0.526720	-0.296496	-0.242347	0.027445	0.969801	-0.220249	0.971945	-0.082544	-0.944859	-0.233602	-0.229503
07075	9.723071	-1.075349	-2.539658	-0.682630	-0.526783	-0.297269	-0.246712	0.023364	0.968807	-0.214562	0.973581	-0.078119	-0.945038	-0.227142	-0.235181
07076	9.840233	-1.367405	-2.666365	-0.649845	-0.533828	-0.299749	-0.251155	0.019302	0.967755	-0.209269	0.975072	-0.073758	-0.945054	-0.221046	-0.240854
07077	9.992072	-1.695397	-2.819619	-0.639064	-0.556098	-0.300702	-0.255821	0.015181	0.966605	-0.204029	0.976506	-0.069335	-0.944948	-0.214953	-0.246714
07078	10.247846	-2.073695	-2.799845	-0.564875	-0.570998	-0.290761	-0.260662	0.011184	0.965365	-0.199549	0.977716	-0.065209	-0.944582	-0.209635	-0.252621
07079	10.627927	-2.201345	-2.320920	-0.359948	-0.560832	-0.288860	-0.265417	0.007219	0.964107	-0.196947	0.978480	-0.061546	-0.943804	-0.206213	-0.258284
07080	10.869872	-1.844590	-1.604912	-0.090403	-0.473478	-0.298275	-0.269327	0.003385	0.963043	-0.197007	0.978653	-0.058536	-0.942683	-0.205492	-0.262910
07081	10.397148	-1.450945	-1.353059	0.052984	-0.402568	-0.309922	-0.272539	-0.000450	0.962145	-0.198383	0.978539	-0.055737	-0.941470	-0.206063	-0.266779
07082	10.136700	-1.466728	-1.337816	0.044074	-0.405446	-0.312082	-0.275760	-0.004277	0.961217	-0.199778	0.978409	-0.052960	-0.940237	-0.206635	-0.270661
07083	10.434305	-1.636566	-1.083437	0.049575	-0.384835	-0.316888	-0.278774	-0.008148	0.960322	-0.201159	0.978277	-0.050095	-0.939053	-0.207142	-0.274357
07084	10.820988	-1.629161	-0.792460	0.045107	-0.310577	-0.328938	-0.281049	-0.011944	0.959619	-0.202639	0.978117	-0.047174	-0.938056	-0.207714	-0.277319
07085	11.013114	-1.541705	-0.607873	-0.009082	-0.231963	-0.333153	-0.282581	-0.015658	0.959116	-0.203528	0.978080	-0.043997	-0.937403	-0.207640	-0.279573
07086	11.013114	-1.361619	-0.354710	-0.096514	-0.159334	-0.322334	-0.283437	-0.019071	0.958801	-0.203684	0.978188	-0.040756	-0.937110	-0.206845	-0.281140
07087	10.971302	-1.119877	-0.019718	-0.166555	-0.084010	-0.301875	-0.283644	-0.022171	0.958673	-0.203015	0.978460	-0.037437	-0.937193	-0.205244	-0.282035
07088	10.823195	-0.759641	0.337477	-0.256257	0.012052	-0.277247	-0.282984	-0.024787	0.958804	-0.201560	0.978880	-0.034183	-0.937707	-0.202930	-0.282003
07089	10.576212	-0.481501	0.460944	-0.408768	0.105434	-0.256425	-0.281514	-0.027059	0.959175	-0.198484	0.979626	-0.030618	-0.938804	-0.199001	-0.281150
07090	10.377629	-0.239243	0.482482	-0.590467	0.185954	-0.255712	-0.279274	-0.029124	0.959770	-0.193824	0.980674	-0.026640	-0.940446	-0.193467	-0.279522
07091	10.144778	-0.120098	0.468156	-0.771437	0.257365	-0.266183	-0.276376	-0.031221	0.960542	-0.187337	0.982050	-0.021982	-0.942614	-0.186021	-0.277264
07092	10.000420	0.018023	0.464781	-0.930478	0.321526	-0.286880	-0.272818	-0.033378	0.961487	-0.179521	0.983611	-0.016793	-0.945168	-0.177188	-0.274338
07093	9.792102	0.029758	0.407817	-1.091820	0.367784	-0.309220	-0.268827	-0.035762	0.962524	-0.170060	0.985374	-0.010886	-0.948057	-0.166614	-0.270977
07094	9.634685	-0.106350	0.396079	-1.230343	0.390055	-0.329598	-0.264578	-0.038304	0.963603	-0.159441	0.987197	-0.004536	-0.951093	-0.154838	-0.267298
07095	9.680948	-0.455159	0.365713	-1.324959	0.414960	-0.349185	-0.260119	-0.041110	0.964701	-0.147773	0.989019	0.002301	-0.954202	-0.141958	-0.263338
07096	9.621245	-0.940157	0.513495	-1.330691	0.462141	-0.355910	-0.255189	-0.043920	0.965893	-0.136165	0.990645	0.009071	-0.957255	-0.129206	-0.258782
07097	9.642409	-1.329979	0.559231	-1.259021	0.495584	-0.356664	-0.250002	-0.046816	0.967113	-0.125034	0.992028	0.015701	-0.960138	-0.116997	-0.253863
07098	9.728353	-1.561296	0.777261	-1.152591	0.562779	-0.347232	-0.244158	-0.049541	0.968469	-0.115018	0.993124	0.021806	-0.962890	-0.106067	-0.248178
07099	9.936233	-1.774317	1.056094	-1.051047	0.643769	-0.300219	-0.237650	-0.051844	0.969966	-0.105646	0.994031	0.027246	-0.965589	-0.095998	-0.241708
07100	10.381969	-2.054891	1.347535	-1.011637	0.775568	-0.215002	-0.229909	-0.053169	0.971759	-0.096593	0.994823	0.031578	-0.968407	-0.086605	-0.233854
07101	10.646162	-2.347697	1.533913	-1.006254	0.926197	-0.131450	-0.220834	-0.053688	0.973833	-0.087170	0.995574	0.035120	-0.971408	-0.077134	-0.224537
07102	10.541447	-2.371531	1.568458	-0.986429	1.016291	-0.041566	-0.210880	-0.053246	0.976061	-0.077915	0.996254	0.037514	-0.974402	-0.068139	-0.214239
07103	10.265477	-2.232465	1.223192	-0.865872	1.045974	0.009771	-0.200709	-0.052446	0.978246	-0.069488	0.996813	0.039184	-0.977183	-0.060111	-0.203714
07104	10.325175	-1.921508	0.909621	-0.713200	1.039828	0.040683	-0.190522	-0.051314	0.980341	-0.062708	0.997230	0.040011	-0.979678	-0.053852	-0.193212
07105	11.009012	-1.642289	0.612518	-0.596887	1.026659	0.087059	-0.180533	-0.049888	0.982303	-0.056735	0.997578	0.040237	-0.981931	-0.048467	-0.182926
07106	11.932356	-1.356270	0.274220	-0.463486	1.080371	0.164472	-0.169956	-0.047595	0.984302	-0.052189	0.997866	0.039240	-0.984069	-0.044701	-0.172077
07107	12.508538	-1.099905	-0.106474	-0.446645	1.174403	0.243190	-0.158536	-0.044633	0.986344	-0.047433	0.998169	0.037545	-0.986213	-0.040833	-0.160362
07108	12.941900	-1.094807	-0.577466	-0.403296	1.240255	0.321034	-0.146387	-0.040780	0.988386	-0.043276	0.998457	0.034786	-0.988280	-0.037681	-0.147926
07109	13.120636	-0.872543	-1.214772	-0.295469	1.363622	0.370499	-0.133079	-0.036550	0.990431	-0.039880	0.998708	0.031497	-0.990303	-0.035307	-0.134364
07110	12.266818	-0.208901	-1.281963	-0.216999	1.366457	0.432867	-0.119652	-0.031578	0.992314	-0.037508	0.998924	0.027266	-0.992107	-0.033957	-0.120707
07111	12.029470	-0.219819	-1.868543	-0.146413	1.253607	0.518185	-0.107422	-0.025949	0.993875	-0.035512	0.999122	0.022248	-0.993579	-0.032905	-0.108249
07112	11.838224	0.175371	-2.547072	-0.096641	1.222915	0.619144	-0.095432	-0.019179	0.995251	-0.034252	0.999286	0.015972	-0.994846	-0.032565	-0.096021
07113	11.591138	-0.598580	-3.426869	-0.058393	1.198772	0.689672	-0.083759	-0.011865	0.996415	-0.033101	0.999410	0.009118	-0.995936	-0.032218	-0.084103
07114	11.212655	-1.158166	-3.941270	0.124314	1.155421	0.758008	-0.072461	-0.003718	0.997364	-0.034075	0.999418	0.001250	-0.996789	-0.033895	-0.072545
07115	11.046348	-1.291200	-4.092910	0.284139	1.097945	0.802283	-0.061823	0.004722	0.998076	-0.036419	0.999312	-0.006983	-0.997422	-0.036781	-0.061609
07116	11.065345	-1.659424	-3.386713	0.502975	1.209000	0.790851	-0.050037	0.013299	0.998659	-0.041326	0.999027	-0.015374	-0.997892	-0.042040	-0.049439
07117	11.447278	-1.703105	-2.530975	0.797637	1.298985	0.803291	-0.037463	0.021952	0.999057	-0.048986	0.998516	-0.023777	-0.998097	-0.049830	-0.036332
07118	11.304162	-1.882297	-3.491741	1.111985	1.297952	0.842127	-0.024945	0.031286	0.999199	-0.060159	0.997652	-0.032739	-0.997877	-0.060927	-0.023004
07119	11.201054	-1.414225	-4.079116	1.307356	1.207673	0.815029	-0.013469	0.040258	0.999099	-0.073095	0.996476	-0.041137	-0.997234	-0.073584	-0.010478
07120	11.713401	-1.262396	-3.763415	1.338787	1.199720	0.781351	-0.002121	0.049218	0.998786	-0.086719	0.995016	-0.049216	-0.996231	-0.086718	0.002158
07121	12.330593	-1.547590	-3.294751	1.462296	1.356264	0.804457	0.010596	0.058518	0.998230	-0.101363	0.993207	-0.057147	-0.994793	-0.100578	0.016456
07122	12.218952	-1.682278	-3.163296	1.720176	1.558773	0.887716	0.025111	0.069242	0.997284	-0.118951	0.990718	-0.065791	-0.992583	-0.116976	0.033114
07123	11.640843	-1.150187	-2.955877	1.932804	1.698725	0.942465	0.040704	0.080736	0.995904	-0.138471	0.987568	-0.074401	-0.989530	-0.134875	0.051378
07124	11.280541	-0.624868	-2.718363	2.076965	1.799789	0.979951	0.057006	0.093222	0.994012	-0.159787	0.983649	-0.083086	-0.985504	-0.154094	0.070970
07125	10.901440	-0.061877	-2.305559	2.130263	1.829558	0.985744	0.073281	0.105921	0.991671	-0.181427	0.979168	-0.091179	-0.980670	-0.173235	0.090971
07126	10.592977	0.185333	-2.016826	2.123739	1.810452	0.947983	0.089142	0.118716	0.988919	-0.203281	0.974141	-0.098618	-0.975054	-0.192237	0.110970
07127	10.258357	0.793684	-1.724320	2.140357	1.802174	0.868947	0.104765	0.130819	0.985855	-0.224982	0.968728	-0.104638	-0.968714	-0.210837	0.130921
07128	9.743366	1.282468	-1.405880	2.133154	1.817584	0.772467	0.120458	0.142497	0.982438	-0.246735	0.962887	-0.109409	-0.961567	-0.229223	0.151146
07129	9.295922	1.605887	-1.127345	2.074583	1.815803	0.683531	0.136058	0.153406	0.978752	-0.267538	0.956923	-0.112794	-0.953893	-0.246507	0.171239
07130	9.053721	1.678432	-0.746972	2.028699	1.817217	0.575129	0.151682	0.163721	0.974776	-0.287897	0.950745	-0.114886	-0.945573	-0.263209	0.191346
07131	9.016851	1.815345	-0.350365	2.035071	1.825559	0.462441	0.167451	0.173084	0.970568	-0.307845	0.944423	-0.115309	-0.936585	-0.279475	0.211428
07132	9.035919	2.335763	-0.071042	2.047825	1.830096	0.339163	0.183383	0.181717	0.966100	-0.327750	0.937839	-0.114189	-0.926796	-0.295699	0.231541
07133	8.941469	2.932372	0.286327	2.014445	1.835046	0.217934	0.199526	0.189349	0.961424	-0.346791	0.931298	-0.111445	-0.916475	-0.311177	0.251483
07134	8.694326	3.431852	0.584626	1.933860	1.801044	0.119226	0.215469	0.196344	0.956568	-0.364849	0.924823	-0.107645	-0.905791	-0.325809	0.270906
07135	8.345674	3.643077	0.885460	1.777539	1.721259	0.063443	0.230698	0.202674	0.951684	-0.381056	0.918764	-0.103291	-0.895307	-0.338816	0.289187
07136	7.921170	3.527456	1.122355	1.593042	1.579016	0.043801	0.244544	0.208640	0.946925	-0.395509	0.913106	-0.099048	-0.885309	-0.350296	0.305813
07137	7.356305	3.450834	1.234657	1.362479	1.409569	0.035064	0.256782	0.213988	0.942482	-0.407655	0.908167	-0.095130	-0.876288	-0.359779	0.320434
07138	7.050953	3.229576	1.297172	1.018495	1.213245	0.020794	0.267243	0.218674	0.938490	-0.416725	0.904359	-0.092056	-0.868862	-0.366491	0.332811
07139	7.181246	2.780011	1.138781	0.491010	0.998698	-0.023486	0.275958	0.222157	0.935144	-0.420973	0.902578	-0.090193	-0.864077	-0.368781	0.342596
07140	7.455763	1.792948	0.877004	0.008885	0.848630	-0.061404	0.283501	0.224791	0.932253	-0.420980	0.902631	-0.089627	-0.861628	-0.367051	0.350530
07141	7.510669	0.770499	0.592484	-0.322915	0.737027	-0.056115	0.290048	0.226997	0.929701	-0.418096	0.903908	-0.090262	-0.860853	-0.362524	0.357083
07142	7.526918	0.088652	0.494747	-0.493886	0.616606	-0.031003	0.295450	0.228981	0.927511	-0.413836	0.905713	-0.091777	-0.861074	-0.356722	0.362353
07143	7.563503	-0.328984	0.475212	-0.589863	0.478317	0.004333	0.299517	0.230736	0.925770	-0.408825	0.907761	-0.093979	-0.862063	-0.350329	0.366220
07144	7.470041	-0.580927	0.625530	-0.635270	0.335792	0.051712	0.302168	0.232408	0.924490	-0.403570	0.909813	-0.096812	-0.863612	-0.343843	0.368709
07145	7.578797	-0.954605	0.941429	-0.662345	0.192899	0.116370	0.303333	0.234149	0.923668	-0.398253	0.911770	-0.100346	-0.865669	-0.337416	0.369821
07146	8.049929	-1.724120	1.440902	-0.680793	0.094891	0.209146	0.303291	0.236405	0.923107	-0.393050	0.913524	-0.104812	-0.868059	-0.331038	0.369983
07147	8.623934	-2.691161	1.950029	-0.670663	0.052121	0.334287	0.302403	0.239657	0.922560	-0.388290	0.914901	-0.110391	-0.870507	-0.324839	0.369725
07148	8.866465	-3.589801	2.270449	-0.651457	0.027976	0.460970	0.300827	0.243999	0.921937	-0.384067	0.915854	-0.117069	-0.872924	-0.318868	0.369225
07149	8.848984	-4.101775	2.185504	-0.516623	-0.022117	0.530625	0.298568	0.248815	0.921384	-0.381200	0.916155	-0.123878	-0.874953	-0.314246	0.368383
07150	8.604803	-3.948079	2.535229	-0.303665	-0.040105	0.532176	0.296147	0.253609	0.920858	-0.380200	0.915733	-0.129926	-0.876211	-0.311633	0.367614
07151	8.499900	-3.599380	3.498716	-0.097718	-0.008764	0.495767	0.294148	0.258145	0.920238	-0.380865	0.914743	-0.134862	-0.876595	-0.310817	0.367388
07152	8.608130	-3.409502	4.890391	0.119982	0.106405	0.482780	0.293188	0.262948	0.919184	-0.383423	0.913068	-0.138899	-0.875801	-0.311713	0.368521
07153	8.190026	-3.388225	5.674275	0.320936	0.254152	0.513309	0.293397	0.268449	0.917526	-0.387795	0.910674	-0.142439	-0.873804	-0.314021	0.371292
07154	7.321248	-3.028662	5.423927	0.442267	0.239137	0.508668	0.293446	0.273906	0.915896	-0.393254	0.907844	-0.145502	-0.871344	-0.317482	0.374118
07155	6.867416	-2.176994	4.742501	0.424562	0.111479	0.458656	0.292565	0.278444	0.914808	-0.398351	0.905194	-0.148121	-0.869323	-0.321080	0.375747
07156	6.635798	-1.327936	3.990413	0.282496	-0.034249	0.359996	0.290775	0.281680	0.914389	-0.401978	0.903212	-0.150408	-0.868253	-0.323829	0.375860
07157	6.515298	-0.769257	3.297206	0.117798	-0.149148	0.260740	0.288393	0.283574	0.914557	-0.403813	0.902064	-0.152363	-0.868196	-0.325370	0.374660
07158	6.413678	-0.608419	3.117601	-0.032280	-0.261927	0.219799	0.285178	0.284795	0.915186	-0.404288	0.901480	-0.154551	-0.869037	-0.325924	0.372221
07159	6.402384	-0.947451	3.258840	-0.199750	-0.363698	0.246228	0.280983	0.285855	0.916152	-0.403305	0.901399	-0.157558	-0.870858	-0.325218	0.368565
07160	5.988897	-1.743721	2.625674	-0.422655	-0.569764	0.280896	0.274832	0.286631	0.917774	-0.400522	0.901900	-0.161735	-0.874099	-0.323139	0.362673
07161	5.631565	-2.353140	1.472262	-0.645660	-0.894049	0.278147	0.265851	0.286292	0.920522	-0.395672	0.903151	-0.166617	-0.879071	-0.319930	0.353382
07162	5.831792	-3.267482	0.066620	-0.865633	-1.277205	0.267296	0.253480	0.284743	0.924483	-0.388858	0.905072	-0.172146	-0.885741	-0.315857	0.340142
07163	6.525671	-3.679364	-1.866293	-0.831916	-1.640232	0.181979	0.238154	0.281260	0.929610	-0.381964	0.907145	-0.176609	-0.892965	-0.313018	0.323472
07164	8.690703	-1.952188	-1.939120	-0.320540	-1.806766	-0.024603	0.222009	0.275455	0.935327	-0.379162	0.908155	-0.177455	-0.898303	-0.315244	0.306061
07165	12.019794	0.823620	1.278644	0.591369	-1.439030	-0.224942	0.209898	0.268835	0.940038	-0.384048	0.906848	-0.173590	-0.899138	-0.324584	0.293591
07166	14.796349	1.636147	5.971575	1.323661	-0.717463	-0.196782	0.204172	0.264751	0.942455	-0.395624	0.902927	-0.167940	-0.895430	-0.338569	0.289094
07167	15.526555	-0.310501	8.742884	1.501210	-0.296390	0.062432	0.201238	0.264313	0.943208	-0.409209	0.897543	-0.164209	-0.889973	-0.352924	0.288779
07168	15.653781	-3.141935	8.789704	1.453603	-0.246904	0.206152	0.198140	0.265330	0.943579	-0.422607	0.891716	-0.162004	-0.884389	-0.366664	0.288815
07169	14.256111	-3.885363	5.485594	1.693271	-0.199993	0.083189	0.195983	0.265343	0.944025	-0.437744	0.885124	-0.157910	-0.877480	-0.382294	0.289622
07170	11.482232	-0.796918	0.902713	1.790758	-0.409767	-0.089830	0.192752	0.263026	0.945338	-0.453331	0.878297	-0.151940	-0.870252	-0.399264	0.288531
07171	10.116425	2.182352	-0.482477	1.379542	-0.700338	-0.036423	0.186804	0.259884	0.947399	-0.465288	0.872756	-0.147665	-0.865223	-0.413229	0.283955
07172	8.842992	4.041486	-0.204220	0.645283	-0.890061	0.124867	0.178476	0.257309	0.949705	-0.471176	0.869690	-0.147083	-0.863794	-0.421227	0.276456
07173	7.859826	5.053083	0.242976	-0.261005	-1.059656	0.255299	0.168067	0.255085	0.952200	-0.469414	0.870103	-0.150238	-0.866836	-0.421726	0.265976
07174	7.610862	4.634672	0.693662	-1.252614	-1.223869	0.345797	0.155764	0.253004	0.954844	-0.459113	0.874431	-0.156801	-0.874616	-0.413957	0.252362
07175	8.080473	2.114607	0.473137	-2.190564	-1.392555	0.338047	0.141942	0.250340	0.957696	-0.440380	0.882445	-0.165400	-0.886520	-0.398273	0.235501
07176	9.166358	-1.046707	-0.415625	-2.712757	-1.449316	0.212922	0.128045	0.246590	0.960624	-0.416437	0.892441	-0.173579	-0.900103	-0.377813	0.216962
07177	10.040098	-3.616784	-0.760222	-2.680857	-1.325185	0.045617	0.115812	0.242154	0.963301	-0.392248	0.902151	-0.179624	-0.912540	-0.357050	0.199465
07178	10.555282	-5.586265	-0.531832	-2.092471	-1.114453	-0.072485	0.105830	0.237594	0.965582	-0.372979	0.909625	-0.182946	-0.921784	-0.340781	0.184883
07179	10.667262	-6.441307	-0.205684	-1.179962	-0.888563	-0.136202	0.098080	0.233388	0.967425	-0.361987	0.913889	-0.183773	-0.927009	-0.332171	0.174118
07180	10.605289	-6.014025	0.086373	-0.218342	-0.718376	-0.150693	0.091919	0.229631	0.968928	-0.359839	0.914951	-0.182702	-0.928475	-0.331865	0.166731
07181	10.241188	-4.111271	0.553433	0.486490	-0.634597	-0.144060	0.086516	0.226214	0.970228	-0.364279	0.913624	-0.180533	-0.927262	-0.337815	0.161448
07182	9.889676	-2.308755	0.767711	0.754700	-0.669519	-0.117565	0.080700	0.222866	0.971503	-0.371201	0.911289	-0.178219	-0.925039	-0.346240	0.156269
07183	9.659803	-0.898722	0.883046	0.732617	-0.697589	-0.071881	0.074487	0.219793	0.972699	-0.377968	0.908854	-0.176422	-0.922818	-0.354507	0.150773
07184	9.598965	-0.155342	0.977382	0.481107	-0.713585	-0.039304	0.068007	0.216895	0.973823	-0.382400	0.907205	-0.175353	-0.921491	-0.360465	0.144637
07185	9.615041	0.000122	1.041236	0.127899	-0.693030	-0.041456	0.061743	0.214036	0.974873	-0.383605	0.906804	-0.174796	-0.921431	-0.363174	0.138094
07186	9.306702	-0.194381	1.092615	-0.265138	-0.704402	-0.069018	0.055462	0.210857	0.975942	-0.381131	0.907904	-0.174497	-0.922856	-0.362284	0.130719
07187	9.137192	-0.909568	0.895280	-0.603828	-0.773575	-0.106577	0.048680	0.207124	0.977103	-0.375548	0.910275	-0.174248	-0.925523	-0.358467	0.122097
07188	9.220556	-1.709789	0.578219	-0.821736	-0.830855	-0.137903	0.041441	0.202911	0.978320	-0.367873	0.913474	-0.173879	-0.928952	-0.352692	0.112501
07189	9.445492	-2.345796	0.273540	-0.908244	-0.849205	-0.163464	0.034095	0.198473	0.979513	-0.359411	0.916949	-0.173285	-0.932556	-0.346139	0.102597
07190	9.470802	-2.644986	-0.011991	-0.929631	-0.850044	-0.158769	0.026668	0.194099	0.980619	-0.350678	0.920444	-0.172652	-0.936116	-0.339278	0.092612
07191	9.362894	-2.936680	-0.257660	-0.887185	-0.857584	-0.166240	0.019166	0.189710	0.981653	-0.342373	0.923718	-0.171829	-0.939369	-0.332798	0.082655
07192	9.406310	-3.013897	-0.498151	-0.799489	-0.861760	-0.179258	0.011615	0.185213	0.982630	-0.334832	0.926685	-0.170710	-0.942206	-0.327033	0.072779
07193	9.483357	-2.987841	-0.446767	-0.680474	-0.865901	-0.196650	0.004063	0.180602	0.983548	-0.328449	0.929230	-0.169271	-0.944513	-0.322357	0.063094
07194	9.410241	-2.795447	-0.214264	-0.545173	-0.834569	-0.218208	-0.003168	0.175905	0.984402	-0.323304	0.931359	-0.167467	-0.946290	-0.318792	0.053920
07195	9.446202	-2.652106	-0.037414	-0.440383	-0.823453	-0.244531	-0.010216	0.171037	0.985212	-0.319202	0.933157	-0.165310	-0.947632	-0.316170	0.045063
07196	9.479877	-2.434723	-0.010546	-0.294418	-0.831278	-0.261170	-0.017321	0.165989	0.985976	-0.316461	0.934516	-0.162885	-0.948447	-0.314844	0.036343
07197	9.496019	-2.259877	0.112759	-0.189730	-0.818919	-0.264486	-0.024290	0.160965	0.986661	-0.314768	0.935522	-0.160371	-0.948858	-0.314464	0.027943
07198	9.626400	-1.890267	0.242779	-0.123876	-0.794797	-0.266002	-0.031051	0.155992	0.987270	-0.313683	0.936322	-0.157808	-0.949020	-0.314590	0.019858
07199	9.583029	-1.428516	0.233640	-0.097501	-0.761792	-0.256973	-0.037511	0.151214	0.987789	-0.312897	0.937001	-0.155321	-0.949046	-0.314902	0.012167
07200	9.559918	-1.007228	0.149222	-0.121313	-0.747463	-0.253363	-0.043869	0.146503	0.988237	-0.311867	0.937748	-0.152862	-0.949113	-0.314904	0.004552
07201	9.650953	-0.687567	-0.098336	-0.205817	-0.745461	-0.266253	-0.050152	0.141687	0.988640	-0.310089	0.938757	-0.150268	-0.949384	-0.314102	-0.003145
07202	9.817980	-0.435365	-0.380362	-0.328111	-0.742367	-0.267328	-0.056432	0.136867	0.988981	-0.307129	0.940147	-0.147634	-0.949993	-0.312076	-0.011019
07203	9.770058	-0.342387	-0.466962	-0.472305	-0.708324	-0.264379	-0.062393	0.132207	0.989256	-0.302847	0.941946	-0.144985	-0.950995	-0.308640	-0.018733
07204	9.738004	-0.559367	-0.332693	-0.597449	-0.712654	-0.255381	-0.068464	0.127627	0.989456	-0.297335	0.944102	-0.142351	-0.952315	-0.303946	-0.026689
07205	9.822479	-1.009703	-0.302080	-0.669421	-0.715009	-0.256317	-0.074559	0.123077	0.989592	-0.291188	0.946419	-0.139647	-0.953756	-0.298569	-0.034725
07206	9.832466	-1.396698	-0.275551	-0.688739	-0.712614	-0.251446	-0.080691	0.118597	0.989658	-0.284812	0.948755	-0.136918	-0.955181	-0.292914	-0.042778
07207	9.908816	-1.853942	-0.170904	-0.651564	-0.683737	-0.244829	-0.086570	0.114315	0.989665	-0.278838	0.950911	-0.134229	-0.956428	-0.287577	-0.050446
07208	9.914006	-2.226636	0.021639	-0.552230	-0.640774	-0.219246	-0.092151	0.110412	0.989605	-0.273754	0.952728	-0.131789	-0.957375	-0.283053	-0.057569
07209	9.904921	-2.472660	0.271897	-0.401741	-0.596345	-0.179052	-0.097409	0.107054	0.989470	-0.270126	0.954034	-0.129813	-0.957885	-0.279926	-0.064013
07210	9.791538	-2.570381	0.490000	-0.263707	-0.546978	-0.128890	-0.102356	0.104316	0.989263	-0.267742	0.954897	-0.128395	-0.958038	-0.278009	-0.069810
07211	9.820059	-2.575650	0.957384	-0.125736	-0.496174	-0.079980	-0.106929	0.102202	0.989000	-0.266670	0.955310	-0.127553	-0.957838	-0.277375	-0.074896
07212	9.855113	-2.624274	1.472214	-0.023830	-0.423630	-0.032143	-0.110952	0.100746	0.988706	-0.266503	0.955396	-0.127258	-0.957427	-0.277613	-0.079154
07213	9.782950	-2.742491	1.893369	0.001118	-0.354645	0.000111	-0.114381	0.099789	0.988412	-0.266562	0.955374	-0.127301	-0.957007	-0.278034	-0.082676
07214	9.423614	-2.923390	2.073431	-0.048230	-0.296663	0.032556	-0.117356	0.099310	0.988112	-0.266108	0.955456	-0.127633	-0.956773	-0.277923	-0.085701
07215	8.952580	-2.929389	1.749636	-0.171108	-0.287424	0.048304	-0.120267	0.099003	0.987793	-0.264461	0.955864	-0.128002	-0.956868	-0.276627	-0.088777
07216	8.549081	-2.678790	0.898595	-0.323184	-0.323177	0.021608	-0.123463	0.098365	0.987462	-0.261407	0.956706	-0.127985	-0.957300	-0.273931	-0.092404
07217	8.513486	-1.996941	-0.017503	-0.444232	-0.356424	-0.041318	-0.126802	0.097028	0.987171	-0.257253	0.957936	-0.127199	-0.957989	-0.270082	-0.096508
07218	8.566429	-1.308928	-1.154298	-0.598736	-0.368701	-0.119344	-0.130076	0.094949	0.986947	-0.251745	0.959622	-0.125499	-0.959012	-0.264783	-0.100921
07219	8.636811	-0.813008	-2.340020	-0.815030	-0.409158	-0.192206	-0.133560	0.092062	0.986755	-0.244224	0.961912	-0.122801	-0.960477	-0.257390	-0.105989
07220	8.947242	-0.716653	-3.180697	-1.012928	-0.476624	-0.244664	-0.137600	0.088551	0.986522	-0.234891	0.964666	-0.119352	-0.962233	-0.248148	-0.111938
07221	9.286586	-0.979733	-3.885822	-1.093652	-0.529608	-0.277189	-0.142096	0.084614	0.986230	-0.224793	0.967549	-0.115400	-0.963990	-0.238096	-0.118464
07222	9.649460	-1.305850	-4.326217	-1.030617	-0.602908	-0.303700	-0.147291	0.080311	0.985827	-0.215354	0.970183	-0.111212	-0.965364	-0.228682	-0.125604
07223	10.018086	-1.542219	-4.509450	-0.825096	-0.661225	-0.329085	-0.153012	0.075657	0.985324	-0.207927	0.972280	-0.106945	-0.966102	-0.221239	-0.133039
07224	10.362169	-1.451845	-4.437556	-0.491026	-0.726660	-0.343392	-0.159375	0.070768	0.984678	-0.203774	0.973590	-0.102953	-0.965959	-0.217059	-0.140745
07225	10.679807	-1.104445	-4.223201	-0.097998	-0.789518	-0.349408	-0.166317	0.065683	0.983882	-0.203444	0.974026	-0.099415	-0.964857	-0.216699	-0.148635
07226	10.784233	-0.441029	-3.826894	0.271215	-0.796243	-0.352810	-0.173323	0.060551	0.983002	-0.206702	0.973641	-0.096420	-0.962930	-0.219900	-0.156239
07227	10.610749	0.089851	-3.319089	0.507655	-0.819328	-0.350686	-0.180499	0.055344	0.982017	-0.212250	0.972700	-0.093831	-0.960401	-0.225370	-0.163825
07228	10.277697	0.293797	-2.848810	0.589523	-0.838043	-0.352159	-0.187835	0.050042	0.980925	-0.218584	0.971526	-0.091419	-0.957569	-0.231587	-0.171548
07229	9.962016	0.303081	-2.369936	0.576794	-0.869655	-0.362694	-0.195378	0.044510	0.979718	-0.224840	0.970330	-0.088922	-0.954607	-0.237653	-0.179573
07230	9.877844	0.043770	-1.766724	0.491993	-0.895689	-0.354969	-0.203167	0.038947	0.978369	-0.230256	0.969287	-0.086401	-0.951686	-0.242830	-0.187959
07231	9.727040	-0.367889	-1.216282	0.415573	-0.896056	-0.338993	-0.210925	0.033497	0.976928	-0.234952	0.968377	-0.083931	-0.948846	-0.247234	-0.196385
07232	9.690493	-0.191819	-0.494316	0.292006	-0.910347	-0.357031	-0.218765	0.027805	0.975381	-0.238502	0.967751	-0.081081	-0.946181	-0.250368	-0.205079
07233	9.844439	-0.498015	-0.156500	0.121231	-0.871783	-0.360212	-0.226174	0.022160	0.973835	-0.240493	0.967522	-0.077871	-0.943932	-0.251813	-0.213499
07234	9.909596	-0.677366	-0.161645	-0.048301	-0.792159	-0.351166	-0.232856	0.016799	0.972366	-0.240862	0.967704	-0.074398	-0.942212	-0.251530	-0.221290
07235	10.096936	-0.800300	-0.366872	-0.175750	-0.697431	-0.356254	-0.238599	0.011630	0.971049	-0.240090	0.968181	-0.070589	-0.940971	-0.249982	-0.228214
07236	10.246090	-1.068922	-0.501313	-0.299321	-0.591672	-0.346059	-0.243390	0.006840	0.969904	-0.238134	0.968947	-0.066592	-0.940241	-0.247175	-0.234203
07237	10.533839	-1.637790	-0.545155	-0.431369	-0.555845	-0.329566	-0.247868	0.002312	0.968791	-0.234931	0.970006	-0.062423	-0.939877	-0.243072	-0.239890
07238	11.077591	-2.165334	-0.401414	-0.436987	-0.554628	-0.332156	-0.252355	-0.002212	0.967632	-0.231692	0.971046	-0.058204	-0.939487	-0.238881	-0.245561
07239	11.361933	-2.249299	-0.079822	-0.435023	-0.503203	-0.338261	-0.256335	-0.006661	0.966565	-0.228508	0.972049	-0.053903	-0.939189	-0.234685	-0.250692
07240	11.103053	-2.379445	-0.156480	-0.490623	-0.465302	-0.319308	-0.260026	-0.010804	0.965541	-0.224780	0.973144	-0.049645	-0.939074	-0.229943	-0.255471
07241	10.894439	-2.764394	-0.452810	-0.451708	-0.452824	-0.301137	-0.263637	-0.014738	0.964509	-0.221369	0.974122	-0.045624	-0.938878	-0.225540	-0.260078
07242	10.979693	-2.758457	-0.642773	-0.296080	-0.426040	-0.286770	-0.267043	-0.018437	0.963508	-0.219426	0.974718	-0.042164	-0.938371	-0.222678	-0.264337
07243	11.117931	-2.495741	-0.439365	-0.160742	-0.357624	-0.273049	-0.269831	-0.021863	0.962660	-0.218693	0.975008	-0.039156	-0.937745	-0.221093	-0.267868
07244	11.190297	-2.132648	0.166888	-0.098898	-0.237027	-0.261470	-0.271513	-0.024878	0.962113	-0.218571	0.975139	-0.036467	-0.937287	-0.220191	-0.270201
07245	11.126925	-1.627931	0.909486	-0.112905	-0.078730	-0.250062	-0.271736	-0.027460	0.961980	-0.218233	0.975311	-0.033806	-0.937301	-0.219122	-0.271020
07246	11.050705	-1.129482	1.602729	-0.222004	0.095946	-0.239785	-0.270339	-0.029526	0.962312	-0.216920	0.975697	-0.031001	-0.938010	-0.217125	-0.270174
07247	11.055544	-0.647158	2.199961	-0.421409	0.290279	-0.239603	-0.267130	-0.031210	0.963155	-0.213649	0.976520	-0.027612	-0.939679	-0.213153	-0.267526
07248	10.791303	-0.246223	2.701843	-0.682003	0.486824	-0.234107	-0.262070	-0.032408	0.964505	-0.207988	0.977845	-0.023657	-0.942370	-0.206805	-0.263004
07249	10.409418	0.002069	3.049856	-0.956317	0.651954	-0.225759	-0.255485	-0.033268	0.966240	-0.199585	0.979695	-0.019042	-0.945988	-0.197712	-0.256938
07250	9.867813	0.157587	3.309462	-1.281849	0.764773	-0.218747	-0.247814	-0.033875	0.968215	-0.188136	0.982046	-0.013795	-0.950365	-0.185574	-0.249738
07251	9.353545	0.080946	3.253231	-1.631628	0.784376	-0.206902	-0.239997	-0.034484	0.970161	-0.173138	0.984867	-0.007824	-0.955209	-0.169849	-0.242336
07252	9.026304	-0.138137	2.970985	-1.894149	0.733771	-0.232070	-0.232583	-0.035514	0.971928	-0.155717	0.987801	-0.001169	-0.960030	-0.151618	-0.235276
07253	9.166433	-0.569491	2.614394	-1.878912	0.673978	-0.266909	-0.225735	-0.037161	0.973480	-0.138295	0.990374	0.005738	-0.964323	-0.133332	-0.228701
07254	9.759391	-0.935640	2.271802	-1.676583	0.656485	-0.273867	-0.219018	-0.038968	0.974942	-0.122892	0.992347	0.012057	-0.967951	-0.117172	-0.222131
07255	11.092649	-1.826696	2.116688	-1.536248	0.728004	-0.190365	-0.211767	-0.040027	0.976500	-0.108452	0.993952	0.017223	-0.971284	-0.102257	-0.214828
07256	12.720806	-2.593366	2.274772	-1.485434	0.965061	-0.038842	-0.202311	-0.039399	0.978529	-0.094287	0.995332	0.020581	-0.974772	-0.088099	-0.205081
07257	13.176849	-3.515819	1.992355	-1.404641	1.344569	0.110434	-0.189302	-0.037170	0.981215	-0.080399	0.996515	0.022238	-0.978622	-0.074679	-0.191630
07258	11.227750	-3.162365	1.431671	-0.954389	1.389557	0.194465	-0.175789	-0.034140	0.983836	-0.070931	0.997240	0.021931	-0.981869	-0.065930	-0.177726
07259	10.304021	-2.148082	0.524168	-0.394623	1.163884	0.256899	-0.164552	-0.030795	0.985888	-0.066664	0.997574	0.020033	-0.984113	-0.062427	-0.166206
07260	11.070330	-1.080732	-0.530627	0.244688	1.120736	0.320205	-0.153686	-0.026754	0.987758	-0.068834	0.997495	0.016307	-0.985719	-0.065485	-0.155142
07261	11.885263	0.007619	-1.156581	0.494353	1.240253	0.391754	-0.141756	-0.021966	0.989658	-0.073182	0.997251	0.011652	-0.987193	-0.070773	-0.142973
07262	12.298672	-0.025319	-2.061909	0.398729	1.362237	0.431248	-0.128576	-0.016532	0.991562	-0.076814	0.997023	0.006663	-0.988720	-0.075310	-0.129463
07263	12.459333	-0.707739	-2.980596	0.472197	1.512379	0.508296	-0.114039	-0.010253	0.993423	-0.080921	0.996720	0.000998	-0.990175	-0.080275	-0.114495
07264	11.847167	-0.486905	-3.394723	0.715054	1.535250	0.564059	-0.099265	-0.003197	0.995056	-0.087681	0.996133	-0.005546	-0.991190	-0.087798	-0.099162
07265	11.451308	0.005141	-3.759234	0.961638	1.498504	0.596514	-0.084985	0.004165	0.996373	-0.096718	0.995234	-0.012410	-0.991677	-0.097422	-0.084178
07266	10.929226	-0.102345	-3.912513	1.074162	1.546373	0.603918	-0.070233	0.011912	0.997460	-0.107174	0.994051	-0.019417	-0.991757	-0.108266	-0.068538
07267	10.607622	-0.219263	-3.722931	0.987092	1.454521	0.604415	-0.056513	0.019596	0.998210	-0.116634	0.992832	-0.026093	-0.991566	-0.117900	-0.053822
07268	11.116723	-0.614887	-2.642203	0.898137	1.470069	0.592171	-0.042633	0.027420	0.998714	-0.125507	0.991558	-0.032581	-0.991176	-0.126735	-0.038831
07269	11.746572	-0.775230	-1.555006	0.884983	1.616533	0.578113	-0.027394	0.035299	0.999001	-0.134129	0.990209	-0.038666	-0.990585	-0.135055	-0.022391
07270	11.384673	-0.969454	-2.663257	0.957055	1.608887	0.585917	-0.012262	0.043497	0.998978	-0.143748	0.988599	-0.044810	-0.989538	-0.144151	-0.005869
07271	11.280311	-0.829562	-3.395464	0.982764	1.443321	0.570911	0.001133	0.051316	0.998682	-0.153491	0.986857	-0.050534	-0.988149	-0.153232	0.008995
07272	11.807729	-0.807187	-2.989182	0.983897	1.449040	0.574496	0.014537	0.059423	0.998127	-0.163502	0.984938	-0.056257	-0.986436	-0.162378	0.024034
07273	12.135666	-0.620599	-2.398221	1.020678	1.566828	0.622554	0.028897	0.068198	0.997253	-0.173753	0.982825	-0.062176	-0.984365	-0.171479	0.040250
07274	12.159468	-0.319554	-1.981718	1.024388	1.680647	0.689923	0.044184	0.078085	0.995967	-0.184318	0.980463	-0.068692	-0.981873	-0.180540	0.057713
07275	11.854695	-0.128342	-1.856196	1.028974	1.729718	0.754273	0.059683	0.088701	0.994269	-0.194857	0.977918	-0.075546	-0.979014	-0.189232	0.075649
07276	11.491457	0.250630	-1.795165	1.044927	1.736804	0.769780	0.075106	0.099734	0.992175	-0.205818	0.975112	-0.082438	-0.975704	-0.198016	0.093764
07277	10.956903	0.616426	-1.637563	1.027560	1.747730	0.724136	0.090568	0.110350	0.989758	-0.216485	0.972258	-0.088589	-0.972076	-0.206244	0.111945
07278	10.384932	0.995057	-1.463452	0.964056	1.755571	0.662785	0.106113	0.120614	0.987012	-0.226698	0.969409	-0.094091	-0.968167	-0.213770	0.130210
07279	9.823362	1.216479	-1.357880	0.863832	1.794667	0.600262	0.122033	0.130349	0.983929	-0.235789	0.966766	-0.098831	-0.964112	-0.219939	0.148712
07280	9.172094	1.111201	-1.280579	0.739641	1.796074	0.555803	0.137955	0.139839	0.980517	-0.243813	0.964313	-0.103224	-0.959960	-0.224823	0.167127
07281	8.714259	0.754147	-1.112351	0.724027	1.733235	0.509470	0.153263	0.148713	0.976931	-0.251551	0.961915	-0.106964	-0.955632	-0.229355	0.184835
07282	8.591297	0.625934	-1.012041	0.772287	1.644201	0.456811	0.167740	0.157029	0.973245	-0.259810	0.959373	-0.110012	-0.950979	-0.234406	0.201723
07283	8.697073	0.703988	-1.006275	0.820214	1.552263	0.389834	0.181402	0.164476	0.969557	-0.268333	0.956781	-0.112104	-0.946092	-0.239828	0.217696
07284	8.642636	0.810974	-1.013161	0.845702	1.473920	0.330974	0.194373	0.171316	0.965852	-0.277077	0.954123	-0.113475	-0.940982	-0.245559	0.232923
07285	8.542875	0.755167	-0.863803	0.840483	1.388124	0.293156	0.206542	0.177588	0.962187	-0.285615	0.951503	-0.114306	-0.935823	-0.251206	0.247247
07286	8.233134	0.861523	-0.413445	0.782557	1.310243	0.298680	0.217868	0.183835	0.958508	-0.293673	0.948933	-0.115247	-0.930747	-0.256379	0.260729
07287	7.660721	0.627724	-0.302268	0.659151	1.227336	0.317884	0.228285	0.190049	0.954865	-0.300564	0.946614	-0.116550	-0.926039	-0.260391	0.273219
07288	6.838892	0.534733	-0.294354	0.544688	1.137846	0.332680	0.237747	0.196243	0.951296	-0.306472	0.944506	-0.118249	-0.921711	-0.263433	0.284697
07289	6.336521	0.399932	-0.144918	0.411669	1.009280	0.331101	0.245976	0.202066	0.947980	-0.311123	0.942735	-0.120220	-0.917986	-0.265367	0.294757
07290	6.445911	0.168673	0.298835	0.329917	0.879532	0.340424	0.252928	0.207667	0.944935	-0.315080	0.941127	-0.122494	-0.914741	-0.266748	0.303469
07291	6.845140	-0.266414	1.004011	0.246958	0.793182	0.375912	0.258948	0.213351	0.942034	-0.318361	0.939652	-0.125300	-0.911917	-0.267461	0.311244
07292	7.142451	-0.981332	1.579118	0.106020	0.720096	0.466396	0.263975	0.219700	0.939175	-0.320621	0.938329	-0.129385	-0.909681	-0.266965	0.318136
07293	6.658092	-1.681999	1.356298	-0.018349	0.581646	0.549924	0.267461	0.226436	0.936585	-0.321979	0.937127	-0.134619	-0.908182	-0.265555	0.323552
07294	6.027688	-2.202450	0.725167	-0.039164	0.334819	0.529481	0.268749	0.232328	0.934772	-0.323116	0.935986	-0.139733	-0.907397	-0.264487	0.326614
07295	6.262937	-2.468646	0.721001	-0.072927	0.081723	0.447413	0.268010	0.236759	0.933872	-0.323718	0.935105	-0.144168	-0.907401	-0.263673	0.327261
07296	6.839398	-2.874662	0.795450	-0.053153	-0.062539	0.385397	0.266147	0.240246	0.933514	-0.324341	0.934294	-0.147976	-0.907727	-0.263394	0.326581
07297	7.069604	-2.992380	0.939183	0.081973	-0.144220	0.352529	0.263658	0.243186	0.933459	-0.326082	0.933201	-0.151016	-0.907830	-0.264568	0.325345
07298	7.147285	-2.767797	1.159955	0.181535	-0.244624	0.319405	0.260342	0.245570	0.933765	-0.328647	0.931903	-0.153451	-0.907862	-0.266930	0.323319
07299	7.281300	-2.310686	1.202987	0.228749	-0.363393	0.239441	0.256218	0.246854	0.934567	-0.331406	0.930675	-0.154968	-0.908032	-0.270015	0.320265
07300	7.594669	-1.381980	1.834241	0.294607	-0.422011	0.139182	0.251871	0.247059	0.935694	-0.334516	0.929493	-0.155376	-0.908108	-0.273870	0.316757
07301	8.370112	-0.448866	3.169320	0.296803	-0.393082	0.061313	0.248061	0.246574	0.936839	-0.337427	0.928498	-0.155032	-0.908080	-0.277658	0.313525
07302	8.544812	0.168526	3.079627	0.209673	-0.391346	-0.014272	0.244503	0.245404	0.938081	-0.339375	0.927912	-0.154288	-0.908319	-0.280637	0.310161
07303	8.412500	1.006646	2.245105	0.205214	-0.465258	-0.072187	0.240488	0.243450	0.939626	-0.341127	0.927483	-0.152996	-0.908734	-0.283738	0.306095
07304	8.277646	1.499184	1.409074	0.171822	-0.595121	-0.053041	0.235208	0.241304	0.941514	-0.342629	0.927091	-0.152012	-0.909551	-0.286836	0.300737
07305	7.699261	1.252900	0.928978	0.075370	-0.767782	0.019328	0.228118	0.239299	0.943768	-0.343422	0.926801	-0.151989	-0.911056	-0.289439	0.293601
07306	7.208131	0.082420	1.095824	-0.177936	-0.962004	0.125089	0.218864	0.237697	0.946361	-0.342124	0.926997	-0.153711	-0.913811	-0.290131	0.284208
07307	8.610691	-2.145594	3.775218	-0.564683	-1.028814	0.263551	0.208511	0.237199	0.948820	-0.337577	0.927976	-0.157803	-0.917913	-0.287397	0.273566
07308	12.927717	-4.956689	7.379009	-0.928316	-1.013376	0.383108	0.197856	0.237901	0.950924	-0.329855	0.929685	-0.163956	-0.923065	-0.281227	0.262417
07309	16.901531	-5.212573	4.362183	-0.450996	-1.011561	0.226356	0.187725	0.237200	0.953150	-0.326182	0.930386	-0.167292	-0.926480	-0.279496	0.252027
07310	17.285803	-0.457922	0.001710	0.930726	-1.006520	-0.254412	0.179197	0.232008	0.956065	-0.334397	0.928300	-0.162594	-0.925239	-0.290569	0.243931
07311	15.996752	2.700412	-1.307899	1.140697	-0.890306	-0.403600	0.172304	0.225652	0.958850	-0.344290	0.925811	-0.156008	-0.922917	-0.303241	0.237211
07312	12.060335	3.157392	-2.005775	0.405837	-0.745321	-0.150218	0.165896	0.221991	0.960832	-0.347805	0.924893	-0.153636	-0.922773	-0.308694	0.230645
07313	8.498794	3.310153	-0.347339	-0.299296	-0.723146	0.106096	0.158812	0.220773	0.962309	-0.345272	0.925554	-0.155359	-0.924968	-0.307585	0.223216
07314	6.440973	2.657249	1.139068	-0.927764	-0.955531	0.265474	0.148996	0.220302	0.963985	-0.337060	0.927799	-0.159936	-0.929619	-0.301091	0.212494
07315	6.409883	0.531396	0.162518	-1.572965	-1.377299	0.250404	0.135282	0.218592	0.966393	-0.322797	0.931869	-0.165596	-0.936750	-0.289546	0.196626
07316	8.304512	-2.101687	-1.169780	-1.940464	-1.606394	0.071119	0.119898	0.214690	0.969295	-0.304595	0.937206	-0.169905	-0.944906	-0.274871	0.177762
07317	10.236234	-3.897102	-1.667558	-1.838039	-1.443207	-0.135375	0.106576	0.209582	0.971965	-0.287067	0.942391	-0.171728	-0.951963	-0.260718	0.160600
07318	10.865036	-5.071463	-1.669212	-1.391473	-1.116412	-0.254384	0.096581	0.204299	0.974132	-0.273487	0.946484	-0.171386	-0.957015	-0.249860	0.147285
07319	11.141757	-5.753973	-1.522819	-0.737282	-0.923632	-0.277048	0.088443	0.199420	0.975915	-0.266223	0.948845	-0.169762	-0.959845	-0.244797	0.137009
07320	10.726423	-4.732463	-0.858093	-0.027963	-0.790881	-0.253401	0.081464	0.195056	0.977403	-0.265707	0.949422	-0.167326	-0.960606	-0.246072	0.129171
07321	9.812529	-2.892063	0.052219	0.413417	-0.809646	-0.226541	0.074262	0.190921	0.978792	-0.269560	0.948808	-0.164621	-0.960116	-0.251618	0.121925
07322	9.373320	-1.373398	0.633888	0.548213	-0.874117	-0.199421	0.066352	0.186791	0.980156	-0.274654	0.947793	-0.162030	-0.959251	-0.258452	0.114191
07323	9.234658	-0.498742	0.982511	0.491822	-0.967429	-0.189117	0.057567	0.182497	0.981520	-0.279310	0.946833	-0.159666	-0.958474	-0.264957	0.105479
07324	9.387254	-0.244453	1.078997	0.294337	-0.977722	-0.197737	0.048688	0.178000	0.982825	-0.281995	0.946411	-0.157436	-0.958180	-0.269486	0.096274
07325	9.445510	-0.692267	1.086564	0.087387	-0.946243	-0.200040	0.040152	0.173575	0.984002	-0.282801	0.946503	-0.155421	-0.958338	-0.272036	0.087091
07326	9.462895	-1.255443	1.117966	-0.047505	-0.901209	-0.216034	0.032059	0.169058	0.985085	-0.282231	0.947013	-0.153339	-0.958811	-0.273105	0.078074
07327	9.302553	-1.693970	1.013098	-0.129104	-0.879239	-0.221196	0.024215	0.164590	0.986065	-0.280987	0.947712	-0.151288	-0.959406	-0.273408	0.069197
07328	9.152949	-2.179234	0.879899	-0.182083	-0.910048	-0.214637	0.016018	0.160055	0.986978	-0.279161	0.948567	-0.149296	-0.960111	-0.273135	0.059875
07329	9.230077	-2.316833	0.748269	-0.154169	-0.949741	-0.221654	0.007480	0.155387	0.987825	-0.277711	0.949316	-0.147227	-0.960636	-0.273228	0.050254
07330	9.571743	-2.325034	0.644998	-0.121763	-0.952739	-0.233049	-0.001094	0.150563	0.988600	-0.276504	0.950012	-0.144992	-0.961012	-0.273511	0.040592
07331	9.516706	-2.048734	0.463807	-0.110822	-0.923450	-0.241429	-0.009336	0.145771	0.989274	-0.275507	0.950651	-0.142680	-0.961254	-0.273884	0.031285
07332	9.451859	-1.789511	0.269460	-0.131069	-0.912090	-0.225677	-0.017551	0.141125	0.989836	-0.274254	0.951338	-0.140499	-0.961497	-0.273932	0.022008
07333	9.500286	-1.696358	0.022214	-0.180202	-0.903521	-0.223559	-0.025661	0.136554	0.990300	-0.272624	0.952121	-0.138354	-0.961778	-0.273530	0.012795
07334	9.598117	-1.510553	-0.087513	-0.195893	-0.904735	-0.224709	-0.033820	0.131944	0.990680	-0.270785	0.952961	-0.136164	-0.962046	-0.272867	0.003499
07335	9.629140	-1.343346	-0.046688	-0.234903	-0.884350	-0.231315	-0.041739	0.127360	0.990978	-0.268666	0.953880	-0.133908	-0.962329	-0.271832	-0.005597
07336	9.680556	-1.246128	-0.013275	-0.258946	-0.866689	-0.230189	-0.049532	0.122817	0.991193	-0.266258	0.954873	-0.131622	-0.962628	-0.270432	-0.014596
07337	9.693894	-1.129214	-0.019534	-0.267930	-0.850805	-0.227092	-0.057155	0.118382	0.991322	-0.263853	0.955849	-0.129359	-0.962868	-0.268957	-0.023396
07338	9.695825	-1.062418	0.066350	-0.267041	-0.829464	-0.228632	-0.064609	0.113976	0.991380	-0.261399	0.956834	-0.127040	-0.963066	-0.267354	-0.032027
07339	9.765379	-0.972643	0.175836	-0.280973	-0.807136	-0.217867	-0.071850	0.109770	0.991357	-0.258895	0.957807	-0.124819	-0.963230	-0.265625	-0.040399
07340	9.876528	-1.024143	0.266872	-0.327904	-0.760654	-0.204125	-0.078719	0.105808	0.991266	-0.255868	0.958897	-0.122672	-0.963501	-0.263290	-0.048411
07341	10.020244	-1.268104	0.428999	-0.378049	-0.695561	-0.181179	-0.084995	0.102279	0.991118	-0.252426	0.960056	-0.120720	-0.963876	-0.260444	-0.055782
07342	9.923503	-1.562862	0.562924	-0.408207	-0.630105	-0.168086	-0.090715	0.099042	0.990940	-0.248620	0.961283	-0.118837	-0.964344	-0.257148	-0.062579
07343	9.925003	-1.795961	0.633847	-0.434713	-0.568191	-0.160461	-0.095832	0.096078	0.990750	-0.244628	0.962532	-0.117003	-0.964870	-0.253578	-0.068738
07344	9.880858	-1.873589	0.609325	-0.467149	-0.512745	-0.135736	-0.100516	0.093493	0.990533	-0.240242	0.963835	-0.115352	-0.965495	-0.249563	-0.074420
07345	9.516102	-1.909658	0.395968	-0.542742	-0.481349	-0.097298	-0.104967	0.091396	0.990267	-0.235152	0.965249	-0.114012	-0.966274	-0.244830	-0.079827
07346	9.343354	-1.916972	0.002706	-0.581353	-0.493766	-0.081500	-0.109612	0.089431	0.989943	-0.229618	0.966727	-0.112758	-0.967089	-0.239669	-0.085430
07347	9.348956	-1.877858	-0.297378	-0.587226	-0.482527	-0.078340	-0.114135	0.087560	0.989599	-0.224076	0.968171	-0.111508	-0.967865	-0.234472	-0.090882
07348	9.293972	-1.690242	-0.671806	-0.570401	-0.454787	-0.078935	-0.118424	0.085764	0.989252	-0.218651	0.969557	-0.110231	-0.968590	-0.229355	-0.096066
07349	9.273645	-1.383031	-1.164833	-0.565741	-0.440405	-0.101908	-0.122503	0.083807	0.988923	-0.213344	0.970910	-0.108709	-0.969267	-0.224298	-0.101059
07350	9.290578	-1.148745	-1.668067	-0.556971	-0.451113	-0.121310	-0.126681	0.081654	0.988577	-0.208104	0.972240	-0.106972	-0.969868	-0.219278	-0.106172
07351	9.272331	-0.970160	-2.239633	-0.587575	-0.485869	-0.132247	-0.131154	0.079346	0.988182	-0.202625	0.973603	-0.105069	-0.970434	-0.214010	-0.111615
07352	9.353661	-0.896270	-2.792866	-0.629467	-0.541413	-0.138412	-0.136195	0.076880	0.987695	-0.196706	0.975035	-0.103019	-0.970957	-0.208316	-0.117672
07353	9.553598	-0.781795	-3.333268	-0.639364	-0.599737	-0.144519	-0.141770	0.074270	0.987110	-0.190748	0.976443	-0.100863	-0.971348	-0.202588	-0.124263
07354	9.718661	-0.549560	-3.794359	-0.605589	-0.659017	-0.156100	-0.147943	0.071452	0.986411	-0.185090	0.977764	-0.098585	-0.971522	-0.197159	-0.131428
07355	10.106907	-0.450352	-4.003260	-0.542837	-0.731344	-0.170444	-0.154767	0.068392	0.985581	-0.180124	0.978927	-0.096215	-0.971392	-0.192418	-0.139186
07356	10.574337	-0.355067	-3.911021	-0.412869	-0.746002	-0.192005	-0.161738	0.065110	0.984683	-0.176404	0.979842	-0.093765	-0.970939	-0.188868	-0.146991
07357	10.670220	-0.307779	-3.612089	-0.253574	-0.730736	-0.207524	-0.168496	0.061736	0.983767	-0.174335	0.980436	-0.091387	-0.970163	-0.186904	-0.154437
07358	10.667350	-0.484658	-3.140698	-0.086864	-0.719372	-0.221236	-0.175158	0.058242	0.982816	-0.173848	0.980733	-0.089102	-0.969070	-0.186467	-0.161658
07359	10.382770	-0.694547	-2.746007	0.062206	-0.712789	-0.245150	-0.181663	0.054537	0.981847	-0.174936	0.980742	-0.086843	-0.967675	-0.187537	-0.168624
07360	10.069075	-0.984577	-2.295384	0.148125	-0.742433	-0.260866	-0.188457	0.050598	0.980777	-0.176819	0.980604	-0.084565	-0.966033	-0.189357	-0.175856
07361	9.976199	-1.588547	-1.596032	0.233970	-0.783577	-0.271956	-0.195565	0.046469	0.979589	-0.179647	0.980277	-0.082367	-0.964096	-0.192088	-0.183360
07362	10.258927	-2.132883	-0.774678	0.404956	-0.819178	-0.294066	-0.202993	0.042016	0.978278	-0.184103	0.979623	-0.080275	-0.961717	-0.196399	-0.191122
07363	10.248283	-2.076710	0.052958	0.565561	-0.794746	-0.304629	-0.210086	0.037481	0.976964	-0.190210	0.978604	-0.078447	-0.959001	-0.202309	-0.198462
07364	9.737310	-2.093259	0.295891	0.516070	-0.791450	-0.288398	-0.217181	0.033064	0.975571	-0.195752	0.977648	-0.076712	-0.956302	-0.207631	-0.205855
07365	9.193089	-1.888894	0.422685	0.412494	-0.860161	-0.268273	-0.224895	0.028669	0.973961	-0.200331	0.976853	-0.075012	-0.953567	-0.211984	-0.213946
07366	9.275811	-1.651358	0.685158	0.241197	-0.910561	-0.261725	-0.233106	0.024202	0.972150	-0.203226	0.976404	-0.073039	-0.950979	-0.214592	-0.222687
07367	9.707821	-1.466548	0.839798	0.049335	-0.872509	-0.264428	-0.240886	0.019777	0.970352	-0.204367	0.976343	-0.070632	-0.948793	-0.215322	-0.231145
07368	9.878549	-1.283940	0.810641	-0.123932	-0.761356	-0.261822	-0.247631	0.015621	0.968728	-0.203846	0.976649	-0.067857	-0.947167	-0.214274	-0.238665
07369	9.891169	-1.217366	0.841522	-0.278514	-0.652899	-0.251824	-0.253332	0.011802	0.967307	-0.201884	0.977264	-0.064796	-0.946079	-0.211699	-0.245189
07370	9.823542	-1.223304	0.697206	-0.452675	-0.602172	-0.237220	-0.258608	0.008261	0.965947	-0.198239	0.978226	-0.061440	-0.945422	-0.207377	-0.251340
07371	9.848594	-1.370300	0.527622	-0.580198	-0.560976	-0.230018	-0.263491	0.004894	0.964649	-0.193399	0.979416	-0.057795	-0.945076	-0.201791	-0.257121
07372	10.070898	-1.426323	0.524143	-0.653234	-0.534571	-0.227733	-0.268158	0.001644	0.963374	-0.187875	0.980709	-0.053970	-0.944878	-0.195466	-0.262676
07373	10.240014	-1.493651	0.562189	-0.704679	-0.488119	-0.231989	-0.272371	-0.001537	0.962191	-0.181888	0.982051	-0.049919	-0.944844	-0.188607	-0.267762
07374	10.278335	-1.689467	0.653395	-0.701031	-0.433918	-0.229346	-0.276103	-0.004546	0.961117	-0.175953	0.983328	-0.045895	-0.944885	-0.181783	-0.272300
07375	10.246284	-1.809442	0.935269	-0.669936	-0.350818	-0.234723	-0.279041	-0.007449	0.960250	-0.170317	0.984500	-0.041856	-0.945055	-0.175226	-0.275985
07376	10.018077	-1.861922	1.308993	-0.671067	-0.244338	-0.242810	-0.280978	-0.010208	0.959660	-0.164733	0.985616	-0.037748	-0.945471	-0.168694	-0.278618
07377	9.399919	-1.826297	1.682521	-0.784409	-0.172125	-0.246766	-0.282237	-0.012892	0.959258	-0.158051	0.986871	-0.033239	-0.946236	-0.160994	-0.280569
07378	8.692674	-1.587734	1.452343	-1.024775	-0.189104	-0.253511	-0.283662	-0.015632	0.958797	-0.149168	0.988415	-0.028016	-0.947251	-0.150969	-0.282708
07379	8.667858	-1.067721	0.591694	-1.229750	-0.254644	-0.279577	-0.285702	-0.018733	0.958135	-0.138352	0.990141	-0.021896	-0.948279	-0.138816	-0.285477
07380	9.472865	-0.823878	-0.289847	-1.449502	-0.265305	-0.349657	-0.287773	-0.022485	0.957435	-0.125720	0.991960	-0.014491	-0.949411	-0.124539	-0.288286
07381	11.120312	-1.081988	-0.486526	-1.577667	-0.187462	-0.379789	-0.289131	-0.026440	0.956924	-0.111870	0.993703	-0.006345	-0.950731	-0.108885	-0.290268
07382	12.435590	-1.178683	0.442820	-1.491981	0.058976	-0.384028	-0.288173	-0.030134	0.957104	-0.098911	0.995095	0.001549	-0.952456	-0.094222	-0.289740
07383	12.615695	-1.105568	1.783481	-1.265640	0.373158	-0.347511	-0.284317	-0.033229	0.958154	-0.087881	0.996095	0.008468	-0.954694	-0.081796	-0.286127
07384	11.952928	-0.829998	2.969963	-1.080953	0.639885	-0.284827	-0.277959	-0.035507	0.959936	-0.078498	0.996814	0.014141	-0.957380	-0.071422	-0.279861
07385	11.102183	-0.431720	3.717771	-1.067588	0.847945	-0.225925	-0.269688	-0.037161	0.962231	-0.068923	0.997437	0.019203	-0.960478	-0.061141	-0.271558
07386	10.321657	-0.324854	3.688930	-1.200064	0.984031	-0.206342	-0.260071	-0.038598	0.964818	-0.058096	0.998016	0.024266	-0.963840	-0.049741	-0.261798
07387	9.828952	-0.479410	3.032054	-1.279230	0.990777	-0.220840	-0.250416	-0.040334	0.967298	-0.046355	0.998485	0.029634	-0.967028	-0.037418	-0.251906
07388	9.883571	-0.278389	1.826492	-1.226721	0.961422	-0.220183	-0.240985	-0.042147	0.969613	-0.035206	0.998779	0.034664	-0.969890	-0.025783	-0.242174
07389	10.889702	0.283285	1.010021	-1.216451	1.004160	-0.199417	-0.231197	-0.043901	0.971916	-0.023909	0.998936	0.039434	-0.972613	-0.014121	-0.232001
07390	12.072644	0.679688	0.667491	-1.389725	1.203704	-0.145395	-0.219407	-0.045175	0.974587	-0.010900	0.998979	0.043851	-0.975572	-0.001002	-0.219676
07391	12.735756	0.484037	0.240797	-1.628414	1.409497	-0.029554	-0.205658	-0.045527	0.977564	0.004900	0.998857	0.047550	-0.978612	0.014569	-0.205199
07392	12.898673	-0.238086	-0.571482	-1.843801	1.534741	0.106936	-0.190555	-0.044724	0.980657	0.022975	0.998485	0.050002	-0.981408	0.032058	-0.189239
07393	13.386257	-1.411719	-1.438747	-1.912728	1.546924	0.264946	-0.175292	-0.042678	0.983591	0.042203	0.997816	0.050817	-0.983612	0.050418	-0.173108
07394	14.318585	-2.043939	-2.150619	-1.683403	1.581734	0.447505	-0.159440	-0.039034	0.986436	0.059307	0.997035	0.049040	-0.985425	0.066321	-0.156652
07395	14.647543	-2.567193	-2.931623	-1.306703	1.712033	0.558839	-0.142205	-0.034665	0.989230	0.072986	0.996299	0.045405	-0.987143	0.078657	-0.139149
07396	13.772621	-2.094479	-3.213855	-0.855725	1.743573	0.615751	-0.124447	-0.029850	0.991777	0.082023	0.995817	0.040264	-0.988830	0.086359	-0.121478
07397	13.657617	-2.263837	-3.919045	-0.515283	1.534195	0.674527	-0.108713	-0.024454	0.993772	0.087855	0.995549	0.034109	-0.990183	0.091016	-0.106080
07398	13.369358	-1.970912	-4.682174	-0.071538	1.445407	0.760623	-0.093664	-0.018061	0.995440	0.089078	0.995673	0.026447	-0.991611	0.091149	-0.091650
07399	12.666470	-1.127290	-5.174146	0.348787	1.406293	0.840578	-0.078991	-0.010905	0.996816	0.086288	0.996112	0.017735	-0.993134	0.087414	-0.077743
07400	12.128275	-0.864480	-4.416970	0.653626	1.519673	0.867705	-0.063118	-0.003386	0.998000	0.080145	0.996747	0.008450	-0.994783	0.080519	-0.062641
07401	12.272167	-0.684236	-2.423519	0.843466	1.639004	0.904023	-0.046132	0.004418	0.998926	0.072186	0.997391	-0.001078	-0.996324	0.072058	-0.046331
07402	12.913089	-1.071222	-2.359266	1.056885	1.726736	1.003539	-0.028206	0.013437	0.999512	0.061756	0.998023	-0.011674	-0.997693	0.061397	-0.028980
07403	12.670400	-1.034336	-3.974845	1.217532	1.731715	1.068393	-0.010345	0.023182	0.999678	0.049751	0.998505	-0.022640	-0.998708	0.049500	-0.011483
07404	12.454119	-0.851120	-4.408341	1.240970	1.712919	1.050772	0.007252	0.033099	0.999426	0.037103	0.998755	-0.033346	-0.999285	0.037323	0.006015
07405	12.456127	-0.831318	-3.800421	1.265492	1.756080	1.036673	0.025098	0.042943	0.998762	0.024228	0.998757	-0.043552	-0.999391	0.025291	0.024027
07406	12.629614	-0.861018	-3.130232	1.317521	1.865323	1.080829	0.043941	0.053553	0.997598	0.010429	0.998483	-0.054060	-0.998980	0.012779	0.043315
07407	12.485657	-1.174623	-2.938491	1.395177	2.009022	1.183001	0.064015	0.065273	0.995812	-0.004202	0.997867	-0.065138	-0.997940	-0.000014	0.064152
07408	12.036490	-1.036854	-2.893507	1.540423	2.089770	1.245574	0.084701	0.078021	0.993347	-0.020743	0.996852	-0.076527	-0.996190	-0.014123	0.086053
07409	11.537642	-0.232161	-2.623569	1.754908	2.125553	1.219422	0.105459	0.090675	0.990281	-0.039427	0.995432	-0.086948	-0.993642	-0.029874	0.108553
07410	10.943167	1.106580	-2.302772	1.986035	2.160001	1.130143	0.126312	0.102929	0.986636	-0.060681	0.993541	-0.095881	-0.990133	-0.047759	0.131742
07411	10.169559	2.192346	-1.832871	2.030953	2.176520	1.041127	0.147046	0.114533	0.982476	-0.082234	0.991250	-0.103248	-0.985705	-0.065611	0.155178
07412	9.739318	2.390788	-1.596211	1.921882	2.146525	0.982049	0.167221	0.126004	0.977834	-0.102890	0.988614	-0.109798	-0.980536	-0.082248	0.178282
07413	9.693657	2.074157	-1.556384	1.788756	2.105540	0.921474	0.186744	0.137027	0.972805	-0.122075	0.985787	-0.115422	-0.974795	-0.097201	0.200818
07414	9.896574	1.829707	-1.634634	1.720971	2.076636	0.848791	0.205778	0.147689	0.967390	-0.140648	0.982746	-0.120115	-0.968439	-0.111345	0.223000
07415	10.118639	1.944751	-1.509586	1.660687	2.073360	0.758381	0.224624	0.157612	0.961615	-0.158372	0.979617	-0.123568	-0.961490	-0.124537	0.245007
07416	10.016053	1.942248	-1.426636	1.650273	2.088272	0.673339	0.243461	0.167051	0.955417	-0.175906	0.976325	-0.125882	-0.953826	-0.137417	0.267082
07417	9.282478	1.933026	-1.384733	1.685589	2.113076	0.600945	0.262388	0.175983	0.948779	-0.193500	0.972854	-0.126936	-0.945362	-0.150283	0.289318
07418	8.506729	2.029770	-1.171609	1.732263	2.036758	0.562272	0.280369	0.184733	0.941948	-0.211446	0.969088	-0.127119	-0.936314	-0.163531	0.310763
07419	7.836288	2.155821	-1.144727	1.757711	1.870826	0.527878	0.296606	0.193058	0.935282	-0.229413	0.965080	-0.126455	-0.927035	-0.177058	0.330539
07420	7.304594	2.555730	-1.067133	1.777437	1.697624	0.457639	0.311125	0.200656	0.928945	-0.247287	0.960880	-0.124732	-0.917633	-0.190908	0.348574
07421	6.919294	2.998367	-0.762320	1.667175	1.498517	0.398207	0.323760	0.207466	0.923113	-0.263842	0.956757	-0.122491	-0.908607	-0.203898	0.364498
07422	6.540317	3.291048	-0.469107	1.401266	1.317372	0.343142	0.334697	0.213536	0.917813	-0.277703	0.953083	-0.120472	-0.900477	-0.214558	0.378294
07423	6.147180	3.194705	-0.314357	1.007554	1.168224	0.262236	0.344404	0.218612	0.913014	-0.287699	0.950297	-0.119015	-0.893653	-0.221685	0.390180
07424	5.727453	2.656130	-0.303361	0.617701	1.007407	0.174791	0.352821	0.222530	0.908844	-0.293837	0.948522	-0.118175	-0.888357	-0.225357	0.400046
07425	5.321418	1.872429	-0.354010	0.380153	0.832890	0.099233	0.359877	0.225387	0.905367	-0.297627	0.947418	-0.117551	-0.884255	-0.227158	0.408035
07426	5.226874	1.217960	0.110937	0.298606	0.656156	0.055319	0.365452	0.227387	0.902629	-0.300463	0.946613	-0.116818	-0.881003	-0.228515	0.414263
07427	5.304467	0.675056	0.790309	0.282591	0.510246	0.058510	0.369732	0.229143	0.900440	-0.303231	0.945809	-0.116178	-0.878265	-0.230086	0.419179
07428	5.362172	0.041738	1.592871	0.271750	0.353537	0.093299	0.372498	0.230809	0.898873	-0.305946	0.944973	-0.115861	-0.876152	-0.231848	0.422616
07429	5.594414	-0.859158	2.191721	0.198715	0.189602	0.139894	0.373696	0.232603	0.897913	-0.308274	0.944163	-0.116286	-0.874825	-0.233348	0.424536
07430	5.953989	-1.714249	2.367480	0.211926	0.043549	0.150252	0.373561	0.234088	0.897583	-0.310671	0.943324	-0.116720	-0.874034	-0.235251	0.425113
07431	6.523132	-2.172930	2.822574	0.340619	-0.029912	0.138392	0.372835	0.235353	0.897554	-0.314230	0.942169	-0.116524	-0.873072	-0.238594	0.425228
07432	7.243913	-2.486524	3.748316	0.492757	-0.011099	0.179140	0.372118	0.236983	0.897422	-0.319183	0.940564	-0.116026	-0.871579	-0.243266	0.425642
07433	7.357651	-2.425640	4.385454	0.563305	0.032978	0.252175	0.371560	0.239465	0.896995	-0.325091	0.938554	-0.115898	-0.869632	-0.248542	0.426577
07434	6.630442	-1.737786	3.972009	0.514941	-0.039985	0.223526	0.370427	0.241440	0.896934	-0.330392	0.936725	-0.115702	-0.868116	-0.253480	0.426758
07435	6.421403	-0.649999	3.691317	0.303891	-0.230425	0.164789	0.367846	0.242426	0.897730	-0.333704	0.935526	-0.115897	-0.867946	-0.256944	0.425029
07436	6.508912	0.373889	3.045049	-0.074529	-0.442699	0.087440	0.363655	0.242090	0.899526	-0.333379	0.935505	-0.116997	-0.869835	-0.257336	0.420909
07437	6.759420	1.460909	1.756261	-0.504660	-0.691613	-0.040141	0.357725	0.239976	0.902466	-0.328900	0.936869	-0.118753	-0.873990	-0.254340	0.414069
07438	7.347653	2.422349	0.456110	-0.988137	-0.991493	-0.183454	0.349568	0.235742	0.906768	-0.319572	0.939788	-0.121128	-0.880724	-0.247435	0.403856
07439	8.371723	2.850407	-0.729255	-1.564869	-1.287653	-0.297183	0.339062	0.229863	0.912250	-0.304760	0.944237	-0.124650	-0.890033	-0.235753	0.390208
07440	9.954120	2.742051	-0.813502	-2.111845	-1.323611	-0.235145	0.327850	0.224576	0.917649	-0.285025	0.949586	-0.130561	-0.900708	-0.218749	0.375332
07441	10.381853	1.299075	-0.186219	-2.434230	-1.173720	0.021094	0.317127	0.222362	0.921947	-0.263106	0.954594	-0.139735	-0.911156	-0.198256	0.361232
07442	10.034326	-1.345166	1.311950	-2.479049	-1.093596	0.312967	0.306265	0.223228	0.925403	-0.241296	0.958573	-0.151372	-0.920857	-0.176936	0.347441
07443	8.550507	-4.507042	1.603243	-2.369183	-1.158863	0.503633	0.294346	0.226162	0.928553	-0.220951	0.961377	-0.164117	-0.929807	-0.156858	0.332948
07444	8.480197	-7.157837	2.517839	-1.879625	-1.336951	0.443221	0.280861	0.228362	0.932184	-0.204598	0.963200	-0.174316	-0.937687	-0.141764	0.317248
07445	13.760978	-8.918407	10.153214	-0.858918	-1.107052	0.429347	0.269560	0.230995	0.934868	-0.197771	0.963390	-0.181016	-0.942456	-0.136095	0.305376
07446	19.517520	-12.018163	15.410640	0.308990	-0.389291	0.570719	0.264692	0.235922	0.935029	-0.202174	0.961640	-0.185404	-0.942902	-0.139964	0.302235
07447	15.716615	-10.675047	7.274541	2.011370	-0.272196	0.177176	0.261724	0.237248	0.935529	-0.221636	0.958186	-0.180989	-0.939350	-0.159978	0.303363
07448	13.607709	-2.467387	1.539017	3.391534	-0.444529	-0.477883	0.258637	0.231917	0.937721	-0.252166	0.953301	-0.166219	-0.932480	-0.193471	0.305041
07449	12.235347	3.229558	0.072610	3.433276	-0.283073	-0.556296	0.257465	0.226067	0.939471	-0.282667	0.947339	-0.150494	-0.924019	-0.226811	0.307808
07450	8.366157	4.850410	0.282597	2.420022	-0.311097	-0.148724	0.254974	0.223920	0.940664	-0.304575	0.941896	-0.141655	-0.917727	-0.250385	0.308359
07451	5.777403	5.276363	1.166409	0.833059	-0.650331	0.221982	0.248290	0.224379	0.942341	-0.312839	0.939250	-0.141216	-0.916779	-0.259739	0.303401
07452	5.221185	4.770596	1.815990	-0.630081	-1.004649	0.368496	0.237853	0.225218	0.944829	-0.307911	0.940058	-0.146566	-0.921204	-0.256062	0.292943
07453	6.366636	2.318221	1.713979	-1.777160	-1.297426	0.439467	0.224494	0.226154	0.947870	-0.292545	0.943471	-0.155818	-0.929527	-0.242314	0.277964
07454	8.117670	-1.318465	0.524111	-2.494129	-1.435945	0.400504	0.209890	0.226559	0.951114	-0.270046	0.948375	-0.166313	-0.939692	-0.221937	0.260236
07455	9.533966	-4.183647	-0.086916	-2.563469	-1.323176	0.253876	0.196706	0.226209	0.954011	-0.246416	0.953195	-0.175208	-0.948992	-0.200619	0.243241
07456	10.201997	-5.913649	-0.081502	-2.069437	-1.093948	0.096084	0.186000	0.224982	0.956445	-0.226828	0.956969	-0.180994	-0.956009	-0.183284	0.229029
07457	10.430649	-6.700436	0.078637	-1.296502	-0.902104	-0.013764	0.177354	0.223276	0.958485	-0.214443	0.959290	-0.183784	-0.960500	-0.172945	0.218014
07458	10.484906	-6.442936	0.384270	-0.424351	-0.792732	-0.075361	0.169827	0.221166	0.960336	-0.210186	0.960197	-0.183964	-0.962798	-0.170607	0.209553
07459	10.315978	-4.684096	0.711347	0.317065	-0.733551	-0.085238	0.162911	0.219112	0.962003	-0.213161	0.959818	-0.182516	-0.963339	-0.175328	0.203071
07460	9.779028	-2.342857	1.094017	0.682469	-0.724648	-0.108843	0.156098	0.216757	0.963665	-0.219529	0.958836	-0.180111	-0.963037	-0.183438	0.197257
07461	9.535398	-0.854836	1.232336	0.680542	-0.763247	-0.126802	0.149000	0.214143	0.965371	-0.225951	0.957814	-0.177593	-0.962676	-0.191666	0.191100
07462	9.499782	-0.465948	1.020181	0.515214	-0.793514	-0.127414	0.141580	0.211364	0.967099	-0.230691	0.957087	-0.175404	-0.962672	-0.198267	0.184264
07463	9.331308	-0.495172	0.854721	0.309260	-0.806346	-0.131436	0.134089	0.208521	0.968782	-0.233549	0.956722	-0.173600	-0.963055	-0.202981	0.176986
07464	9.328944	-1.008144	0.549183	0.111479	-0.875881	-0.139679	0.125904	0.205377	0.970551	-0.234398	0.956793	-0.172059	-0.963953	-0.205832	0.168604
07465	9.593111	-1.675762	0.220775	-0.009377	-0.913135	-0.151194	0.117419	0.202075	0.972306	-0.234185	0.957101	-0.170634	-0.965075	-0.207664	0.159705
07466	9.685307	-2.183769	-0.120718	-0.037975	-0.936903	-0.153439	0.108655	0.198634	0.974032	-0.233595	0.957499	-0.169204	-0.966244	-0.209144	0.150437
07467	9.786577	-2.288092	-0.196043	0.004039	-0.956194	-0.158220	0.099749	0.195142	0.975689	-0.233529	0.957782	-0.167685	-0.967220	-0.211126	0.141109
07468	9.757338	-2.134262	-0.107924	0.057488	-0.966732	-0.157668	0.090684	0.191561	0.977282	-0.233882	0.957976	-0.166075	-0.968027	-0.213509	0.131676
07469	9.846486	-2.036631	-0.128387	0.097755	-0.970334	-0.155289	0.081620	0.188020	0.978768	-0.234755	0.958041	-0.164462	-0.968622	-0.216347	0.122334
07470	9.800134	-1.722139	-0.141624	0.137868	-0.947804	-0.148193	0.072704	0.184519	0.980136	-0.235921	0.958029	-0.162857	-0.969049	-0.219394	0.113185
07471	9.601617	-1.369607	-0.049169	0.159255	-0.930291	-0.151710	0.064015	0.181042	0.981390	-0.237420	0.957934	-0.161228	-0.969296	-0.222680	0.104305
07472	9.565086	-1.071389	0.088249	0.161702	-0.918393	-0.167121	0.055425	0.177365	0.982583	-0.238827	0.957884	-0.159435	-0.969479	-0.225831	0.095451
07473	9.466278	-0.826872	0.126022	0.122549	-0.912400	-0.178857	0.046975	0.173610	0.983694	-0.239982	0.957900	-0.157598	-0.969640	-0.228666	0.086660
07474	9.569520	-0.635367	0.158739	0.054212	-0.906110	-0.199369	0.038580	0.169601	0.984757	-0.240356	0.958132	-0.155599	-0.969918	-0.230690	0.077729
07475	9.633563	-0.448767	0.340395	-0.018840	-0.903488	-0.202651	0.030269	0.165600	0.985728	-0.240162	0.958496	-0.153650	-0.970261	-0.232083	0.068784
07476	9.638943	-0.301397	0.440735	-0.116789	-0.892393	-0.215983	0.022038	0.161437	0.986637	-0.238899	0.959137	-0.151601	-0.970794	-0.232366	0.059705
07477	9.673455	-0.383182	0.470738	-0.254866	-0.894604	-0.228212	0.013860	0.157204	0.987469	-0.236440	0.960072	-0.149524	-0.971547	-0.231405	0.050476
07478	9.731503	-0.680394	0.215151	-0.372902	-0.893924	-0.234297	0.005632	0.152872	0.988230	-0.232714	0.961313	-0.147382	-0.972529	-0.229145	0.040989
07479	9.715782	-0.838351	-0.009632	-0.464456	-0.885659	-0.243313	-0.002458	0.148547	0.988902	-0.228247	0.962718	-0.145181	-0.973600	-0.226071	0.031539
07480	9.867336	-0.997077	-0.084900	-0.564299	-0.860493	-0.241505	-0.010386	0.144271	0.989484	-0.222683	0.964354	-0.142945	-0.974836	-0.221826	0.022111
07481	9.720447	-1.201842	0.108515	-0.567296	-0.820991	-0.230439	-0.017920	0.140275	0.989950	-0.217238	0.965910	-0.140801	-0.975954	-0.217578	0.013164
07482	9.822440	-1.213888	0.351111	-0.567696	-0.821946	-0.190952	-0.025627	0.136638	0.990289	-0.211652	0.967416	-0.138959	-0.977009	-0.213158	0.004128
07483	9.777986	-1.263459	0.539063	-0.595349	-0.776895	-0.191548	-0.032853	0.133178	0.990547	-0.205944	0.968912	-0.137100	-0.978012	-0.208501	-0.004404
07484	9.602121	-1.630670	0.648965	-0.630070	-0.723723	-0.210348	-0.039598	0.129630	0.990771	-0.199771	0.970503	-0.134963	-0.979042	-0.203272	-0.012533
07485	9.721163	-2.147446	0.918928	-0.624232	-0.691531	-0.210313	-0.045989	0.126232	0.990934	-0.193802	0.972009	-0.132816	-0.979962	-0.198153	-0.020238
07486	9.856809	-2.454391	1.136570	-0.547410	-0.600536	-0.196422	-0.051590	0.123133	0.991048	-0.188456	0.973340	-0.130743	-0.980726	-0.193514	-0.027009
07487	9.525392	-2.670309	0.751950	-0.476045	-0.536962	-0.161567	-0.056588	0.120564	0.991091	-0.183927	0.974433	-0.129039	-0.981310	-0.189591	-0.032966
07488	9.010621	-2.641220	-0.129928	-0.462109	-0.548775	-0.112838	-0.061856	0.118430	0.991034	-0.179395	0.975445	-0.127764	-0.981831	-0.185689	-0.039091
07489	9.099777	-2.180662	-0.299187	-0.423964	-0.573108	-0.087749	-0.067359	0.116552	0.990898	-0.175342	0.976314	-0.126756	-0.982201	-0.182284	-0.045327
07490	9.644203	-1.610523	0.100266	-0.363215	-0.538024	-0.094262	-0.072567	0.114661	0.990751	-0.171784	0.977087	-0.125662	-0.982458	-0.179314	-0.051208
07491	9.784777	-1.256222	-0.057886	-0.337956	-0.505870	-0.111203	-0.077379	0.112707	0.990611	-0.168601	0.977800	-0.124419	-0.982643	-0.176645	-0.056659
07492	9.706240	-0.964886	-0.406698	-0.359714	-0.518083	-0.148448	-0.082308	0.110352	0.990479	-0.165132	0.978603	-0.122751	-0.982831	-0.173663	-0.062324
07493	9.716465	-0.743410	-0.662830	-0.432556	-0.534770	-0.175316	-0.087309	0.107750	0.990337	-0.161082	0.979523	-0.120774	-0.983072	-0.170070	-0.068165
07494	9.672881	-0.777286	-1.018543	-0.540932	-0.556763	-0.187181	-0.092572	0.104987	0.990156	-0.155878	0.980636	-0.118551	-0.983429	-0.165318	-0.074414
07495	9.683954	-1.066258	-1.453878	-0.655015	-0.598855	-0.188725	-0.098204	0.102196	0.989905	-0.149668	0.981883	-0.116216	-0.983847	-0.159570	-0.081130
07496	9.750286	-1.276337	-1.718733	-0.701443	-0.652780	-0.197172	-0.104426	0.099244	0.989569	-0.142909	0.983185	-0.113684	-0.984211	-0.153290	-0.088487
07497	9.880473	-1.507169	-1.868034	-0.686816	-0.672196	-0.206601	-0.110783	0.096235	0.989174	-0.136423	0.984407	-0.111050	-0.984437	-0.147249	-0.095927
07498	9.795428	-1.826681	-1.935783	-0.612308	-0.709154	-0.209568	-0.117572	0.093154	0.988686	-0.130578	0.985496	-0.108381	-0.984442	-0.141843	-0.103703
07499	9.847776	-2.201067	-1.990143	-0.484628	-0.764436	-0.222551	-0.124840	0.089925	0.988093	-0.126129	0.986366	-0.105704	-0.984127	-0.137823	-0.111796
07500	9.967461	-2.503159	-1.939004	-0.306644	-0.794889	-0.244980	-0.132444	0.086434	0.987415	-0.123373	0.987006	-0.102947	-0.983482	-0.135455	-0.120059
07501	10.073902	-2.577633	-1.733722	-0.077907	-0.797452	-0.259924	-0.139991	0.082823	0.986683	-0.123012	0.987321	-0.100329	-0.982482	-0.135419	-0.128028
07502	10.050700	-2.275823	-1.499163	0.154442	-0.792543	-0.272162	-0.147525	0.079072	0.985892	-0.124872	0.987334	-0.097874	-0.981144	-0.137549	-0.135783
07503	9.970716	-1.993128	-1.123310	0.328998	-0.791811	-0.284354	-0.154957	0.075195	0.985055	-0.128578	0.987083	-0.095576	-0.979518	-0.141466	-0.143287
07504	9.718475	-1.737271	-0.712423	0.418615	-0.801034	-0.287660	-0.162509	0.071228	0.984133	-0.133090	0.986694	-0.093390	-0.977690	-0.146155	-0.150867
07505	9.533865	-1.624476	-0.344084	0.438854	-0.821918	-0.289261	-0.170175	0.067187	0.983121	-0.137907	0.986231	-0.091270	-0.975716	-0.151111	-0.158566
