// General information: 
//  MT Manager version: 2022.2.0 
//  XDA version: 2022.2.0 build 7381 rev 124627 built on 2023-07-19
// Device information: 
//  DeviceId: 00B4CAF0
//  ProductCode: MTW2-3A7G6
//  Firmware Version: 4.6.0
//  Hardware Version: 2.0.0
// Device settings: 
//  Filter Profile: human(46.1)
//  Option Flags: Orientation Smoother Disabled, Position/Velocity Smoother Disabled, Continuous Zero Rotation Update Disabled, AHS Disabled, ICC Disabled
// Coordinate system: ENU
PacketCounter	Acc_X	Acc_Y	Acc_Z	Gyr_X	Gyr_Y	Gyr_Z	Mat[1][1]	Mat[2][1]	Mat[3][1]	Mat[1][2]	Mat[2][2]	Mat[3][2]	Mat[1][3]	Mat[2][3]	Mat[3][3]
56251	4.335568	1.645274	9.154301	-0.011451	0.006313	0.004631	-0.616850	-0.660473	0.428101	0.772942	-0.610958	0.171148	0.148513	0.436470	0.887377
56252	4.395752	1.687044	9.175401	-0.014364	0.005196	-0.000070	-0.616889	-0.660488	0.428024	0.772891	-0.611067	0.170985	0.148618	0.436294	0.887446
56253	4.334481	1.642829	9.155255	-0.008975	0.008658	0.004486	-0.616892	-0.660513	0.427980	0.772877	-0.611115	0.170877	0.148679	0.436189	0.887487
56254	4.353813	1.657828	9.178895	-0.007953	0.010408	0.001194	-0.616942	-0.660543	0.427862	0.772831	-0.611204	0.170767	0.148712	0.436018	0.887566
56255	4.353430	1.647983	9.082155	-0.002235	0.007442	0.002863	-0.616956	-0.660553	0.427826	0.772817	-0.611234	0.170727	0.148728	0.435962	0.887591
56256	4.298547	1.650189	9.179988	0.002916	0.001040	0.003108	-0.616969	-0.660563	0.427793	0.772806	-0.611254	0.170704	0.148729	0.435920	0.887611
56257	4.366271	1.637147	9.181527	0.001461	0.000444	-0.000040	-0.616995	-0.660524	0.427815	0.772779	-0.611286	0.170709	0.148760	0.435933	0.887600
56258	4.291986	1.611993	9.134607	0.001009	0.002054	0.003082	-0.617012	-0.660534	0.427774	0.772763	-0.611317	0.170669	0.148773	0.435873	0.887627
56259	4.304895	1.772009	9.168291	0.006612	-0.005958	0.000206	-0.617027	-0.660469	0.427853	0.772746	-0.611326	0.170719	0.148803	0.435959	0.887579
56260	4.360007	1.691759	9.175867	0.002228	-0.007290	0.000325	-0.617051	-0.660423	0.427891	0.772715	-0.611370	0.170702	0.148864	0.435969	0.887564
56261	4.400944	1.719203	9.173179	0.005272	-0.001508	0.001604	-0.617061	-0.660386	0.427933	0.772704	-0.611375	0.170734	0.148877	0.436018	0.887538
56262	4.421663	1.648010	9.204461	0.008637	-0.002002	0.003183	-0.617070	-0.660380	0.427929	0.772701	-0.611370	0.170762	0.148855	0.436033	0.887534
56263	4.414710	1.693509	9.102062	0.014284	0.010867	0.002488	-0.617092	-0.660402	0.427863	0.772709	-0.611330	0.170870	0.148723	0.436056	0.887546
56264	4.292226	1.618900	9.157941	0.034939	0.005987	0.002465	-0.617118	-0.660427	0.427787	0.772741	-0.611215	0.171134	0.148448	0.436179	0.887531
56265	4.366298	1.644925	9.180124	0.035264	-0.000366	0.001171	-0.617133	-0.660393	0.427818	0.772772	-0.611092	0.171434	0.148223	0.436403	0.887458
56266	4.217400	1.607023	9.182950	0.035831	0.003071	0.002591	-0.617152	-0.660406	0.427770	0.772807	-0.610971	0.171706	0.147959	0.436553	0.887429
56267	4.271520	1.709175	9.221841	0.023790	-0.015473	-0.007529	-0.617213	-0.660252	0.427920	0.772767	-0.610956	0.171941	0.147916	0.436807	0.887311
56268	4.448776	1.709267	9.197350	0.009410	-0.009889	0.000366	-0.617233	-0.660193	0.427982	0.772747	-0.610969	0.171988	0.147938	0.436878	0.887272
56269	4.239767	1.622959	9.155657	-0.005272	0.001507	-0.001604	-0.617273	-0.660149	0.427991	0.772700	-0.611041	0.171940	0.148014	0.436843	0.887277
56270	4.307868	1.616049	9.229960	-0.015864	-0.016285	-0.005385	-0.617329	-0.660026	0.428101	0.772606	-0.611203	0.171788	0.148272	0.436803	0.887253
56271	4.322358	1.764466	9.166048	-0.030355	-0.015829	-0.003625	-0.617359	-0.659894	0.428261	0.772510	-0.611398	0.171526	0.148649	0.436729	0.887227
56272	4.431948	1.690033	9.197980	-0.040784	-0.007765	-0.002290	-0.617401	-0.659830	0.428300	0.772400	-0.611645	0.171139	0.149045	0.436480	0.887283
56273	4.418500	1.789506	9.139439	-0.038192	-0.000372	0.002106	-0.617409	-0.659801	0.428333	0.772327	-0.611837	0.170782	0.149388	0.436256	0.887335
56274	4.398557	1.684657	9.149807	-0.040541	0.002024	0.000421	-0.617446	-0.659793	0.428291	0.772233	-0.612066	0.170387	0.149723	0.435945	0.887432
56275	4.384629	1.698746	9.124407	-0.040420	0.006918	0.001777	-0.617468	-0.659794	0.428259	0.772154	-0.612269	0.170012	0.150037	0.435659	0.887519
56276	4.383904	1.695385	9.125380	-0.031652	0.009581	0.001536	-0.617501	-0.659832	0.428151	0.772085	-0.612446	0.169689	0.150253	0.435353	0.887633
56277	4.281855	1.626996	9.156577	-0.028854	0.005651	0.001688	-0.617522	-0.659827	0.428130	0.772024	-0.612599	0.169417	0.150486	0.435145	0.887695
56278	4.328954	1.687388	9.175785	-0.030118	-0.005887	0.002254	-0.617529	-0.659800	0.428162	0.771959	-0.612766	0.169106	0.150787	0.434951	0.887739
56279	4.329313	1.681818	9.151956	-0.038639	0.001160	0.003620	-0.617528	-0.659787	0.428183	0.771895	-0.612949	0.168739	0.151123	0.434713	0.887799
56280	4.335913	1.718965	9.222255	-0.033485	-0.005317	0.002264	-0.617542	-0.659754	0.428213	0.771819	-0.613138	0.168398	0.151452	0.434495	0.887849
56281	4.356821	1.729197	9.221379	-0.034509	-0.006996	0.007145	-0.617501	-0.659728	0.428313	0.771782	-0.613279	0.168053	0.151806	0.434337	0.887866
56282	4.425871	1.613946	9.109818	-0.025175	-0.000899	0.008338	-0.617469	-0.659759	0.428311	0.771762	-0.613384	0.167759	0.152039	0.434141	0.887922
56283	4.426064	1.611611	9.110137	-0.020337	-0.001247	0.003503	-0.617465	-0.659735	0.428354	0.771724	-0.613488	0.167555	0.152248	0.434031	0.887940
56284	4.432266	1.645631	9.131863	-0.019075	0.010365	0.004540	-0.617482	-0.659788	0.428247	0.771686	-0.613596	0.167332	0.152367	0.433797	0.888034
56285	4.397498	1.653001	9.156087	-0.007516	0.009244	0.007644	-0.617463	-0.659835	0.428204	0.771693	-0.613617	0.167224	0.152413	0.433697	0.888075
56286	4.403843	1.595819	9.137319	-0.008971	0.008653	0.004495	-0.617475	-0.659882	0.428112	0.771674	-0.613678	0.167091	0.152462	0.433537	0.888144
56287	4.449662	1.658020	9.156961	-0.006247	0.020709	0.005496	-0.617489	-0.659966	0.427963	0.771669	-0.613707	0.167004	0.152427	0.433369	0.888233
56288	4.359801	1.656960	9.157646	-0.003328	0.021670	0.007012	-0.617501	-0.660085	0.427762	0.771674	-0.613726	0.166910	0.152354	0.433160	0.888347
56289	4.405588	1.629496	9.161260	-0.003902	0.018383	0.008768	-0.617486	-0.660179	0.427639	0.771694	-0.613724	0.166830	0.152315	0.433021	0.888421
56290	4.329440	1.606286	9.139469	0.000615	0.024385	0.005240	-0.617514	-0.660301	0.427411	0.771696	-0.613735	0.166778	0.152193	0.432819	0.888541
56291	4.293550	1.619566	9.212428	0.002273	0.013660	0.004125	-0.617528	-0.660345	0.427322	0.771696	-0.613737	0.166772	0.152136	0.432749	0.888585
56292	4.387325	1.646934	9.137402	0.004739	0.016226	0.008766	-0.617517	-0.660451	0.427173	0.771724	-0.613709	0.166743	0.152034	0.432626	0.888662
56293	4.284276	1.586126	9.216675	0.008111	0.015581	0.007160	-0.617510	-0.660523	0.427073	0.771752	-0.613665	0.166776	0.151920	0.432580	0.888704
56294	4.350940	1.660778	9.210482	0.003478	0.004541	0.006134	-0.617507	-0.660558	0.427023	0.771758	-0.613665	0.166747	0.151903	0.432526	0.888733
56295	4.458399	1.672404	9.185916	0.002397	0.018552	0.005489	-0.617518	-0.660631	0.426893	0.771767	-0.613657	0.166736	0.151815	0.432425	0.888798
56296	4.375506	1.616231	9.167062	0.009827	0.025660	0.006666	-0.617537	-0.660766	0.426657	0.771791	-0.613620	0.166761	0.151615	0.432271	0.888906
56297	4.352713	1.690782	9.161083	0.007912	0.026822	0.009825	-0.617527	-0.660902	0.426461	0.771835	-0.613560	0.166781	0.151433	0.432149	0.888997
56298	4.323421	1.641933	9.142049	0.013332	0.029758	0.003238	-0.617579	-0.661032	0.426184	0.771842	-0.613531	0.166852	0.151183	0.431991	0.889116
56299	4.287044	1.653815	9.190746	0.008233	0.020473	0.008522	-0.617569	-0.661132	0.426042	0.771878	-0.613478	0.166880	0.151037	0.431913	0.889179
56300	4.380060	1.688297	9.188901	0.010139	0.019457	0.008548	-0.617569	-0.661247	0.425865	0.771910	-0.613432	0.166901	0.150877	0.431802	0.889260
56301	4.364987	1.619108	9.171568	0.008811	0.023758	0.006761	-0.617577	-0.661351	0.425691	0.771936	-0.613388	0.166942	0.150707	0.431706	0.889336
56302	4.315504	1.646537	9.169598	0.010717	0.022743	0.006788	-0.617589	-0.661475	0.425481	0.771964	-0.613344	0.166974	0.150517	0.431577	0.889430
56303	4.327264	1.627045	9.172312	0.010150	0.019309	0.005360	-0.617602	-0.661551	0.425344	0.771983	-0.613304	0.167033	0.150364	0.431519	0.889484
56304	4.325902	1.625479	9.148605	0.009583	0.015875	0.003932	-0.617629	-0.661624	0.425192	0.771988	-0.613288	0.167068	0.150229	0.431429	0.889550
56305	4.391370	1.709777	9.239878	0.014400	0.015894	0.007073	-0.617623	-0.661696	0.425089	0.772025	-0.613218	0.167157	0.150065	0.431419	0.889583
56306	4.451228	1.657241	9.172406	0.019938	0.023866	0.005036	-0.617657	-0.661806	0.424868	0.772049	-0.613154	0.167281	0.149802	0.431341	0.889665
56307	4.387758	1.615828	9.152520	0.018408	0.039485	0.007494	-0.617683	-0.661982	0.424556	0.772094	-0.613064	0.167404	0.149461	0.431199	0.889791
56308	4.330157	1.608522	9.129829	0.030095	0.043101	0.008794	-0.617708	-0.662206	0.424169	0.772164	-0.612922	0.167600	0.148997	0.431056	0.889938
56309	4.022284	1.497919	9.163444	0.029733	0.028347	0.003121	-0.617751	-0.662307	0.423948	0.772198	-0.612812	0.167843	0.148637	0.431058	0.889998
56310	4.122003	1.666897	9.271025	0.019371	-0.016436	0.000604	-0.617754	-0.662220	0.424080	0.772198	-0.612775	0.167980	0.148626	0.431244	0.889910
56311	4.320414	1.675038	9.197637	0.004439	-0.014584	0.000664	-0.617753	-0.662121	0.424237	0.772180	-0.612790	0.168008	0.148727	0.431374	0.889830
56312	4.199668	1.598659	9.252218	0.001509	-0.015394	0.002329	-0.617744	-0.662050	0.424361	0.772164	-0.612818	0.167978	0.148846	0.431444	0.889776
56313	4.337590	1.740322	9.165354	-0.000342	-0.030290	0.003071	-0.617700	-0.661898	0.424662	0.772154	-0.612838	0.167953	0.149081	0.431649	0.889637
56314	4.462087	1.643471	9.149955	-0.007261	-0.018049	0.002547	-0.617688	-0.661814	0.424811	0.772124	-0.612906	0.167845	0.149287	0.431682	0.889586
56315	4.469494	1.683530	9.219213	-0.002178	-0.008469	0.003626	-0.617673	-0.661759	0.424918	0.772114	-0.612930	0.167801	0.149401	0.431731	0.889543
56316	4.503641	1.752320	9.090673	-0.008145	0.021736	0.005418	-0.617696	-0.661866	0.424719	0.772102	-0.612980	0.167673	0.149367	0.431497	0.889663
56317	4.433425	1.594366	9.155344	0.001317	0.032718	0.007980	-0.617708	-0.662016	0.424467	0.772124	-0.612960	0.167642	0.149200	0.431295	0.889789
56318	4.328564	1.701947	9.145819	0.004378	0.038345	0.006078	-0.617748	-0.662200	0.424120	0.772138	-0.612949	0.167621	0.148965	0.431027	0.889958
56319	4.305185	1.600982	9.156700	0.005710	0.033969	0.006275	-0.617775	-0.662345	0.423854	0.772156	-0.612921	0.167637	0.148756	0.430844	0.890082
56320	4.221333	1.634970	9.153900	0.008830	0.023609	0.003554	-0.617813	-0.662450	0.423635	0.772160	-0.612908	0.167667	0.148578	0.430701	0.890180
56321	4.273844	1.644463	9.178654	0.003593	0.009438	0.007488	-0.617794	-0.662497	0.423590	0.772183	-0.612881	0.167659	0.148537	0.430667	0.890204
56322	4.253101	1.628665	9.155751	0.001142	0.006794	0.001254	-0.617828	-0.662512	0.423518	0.772159	-0.612920	0.167631	0.148525	0.430590	0.890243
56323	4.225302	1.673645	9.200374	-0.001018	-0.001901	0.000103	-0.617849	-0.662464	0.423561	0.772129	-0.612962	0.167613	0.148589	0.430603	0.890226
56324	4.374734	1.711609	9.173556	-0.006888	-0.003443	0.005024	-0.617844	-0.662452	0.423587	0.772111	-0.613016	0.167498	0.148706	0.430544	0.890235
56325	4.334511	1.593716	9.159885	-0.007651	0.004367	0.006247	-0.617827	-0.662469	0.423585	0.772110	-0.613046	0.167395	0.148783	0.430475	0.890256
56326	4.428286	1.721116	9.222460	-0.008670	0.002467	0.006349	-0.617814	-0.662498	0.423559	0.772103	-0.613092	0.167258	0.148873	0.430366	0.890293
56327	4.401523	1.661858	9.105671	0.003857	0.019073	0.007017	-0.617813	-0.662583	0.423427	0.772123	-0.613067	0.167254	0.148770	0.430270	0.890357
56328	4.452079	1.688947	9.300479	0.043058	0.021445	0.008121	-0.617821	-0.662698	0.423237	0.772199	-0.612886	0.167571	0.148347	0.430352	0.890388
56329	4.512490	1.623828	9.063059	0.079958	0.047399	0.016070	-0.617792	-0.662960	0.422868	0.772388	-0.612474	0.168206	0.147481	0.430534	0.890443
56330	4.311181	1.627814	9.159986	0.119055	0.044720	0.012623	-0.617793	-0.663207	0.422478	0.772607	-0.611929	0.169181	0.146325	0.430928	0.890444
56331	4.198407	1.549059	9.289787	0.122495	0.028001	0.008615	-0.617793	-0.663341	0.422269	0.772810	-0.611382	0.170226	0.145250	0.431498	0.890344
56332	4.137046	1.414285	9.131081	0.099732	0.023826	-0.000558	-0.617867	-0.663416	0.422044	0.772915	-0.611010	0.171084	0.144373	0.431911	0.890286
56333	4.167967	1.698316	9.299217	0.082911	-0.010486	-0.009829	-0.617953	-0.663270	0.422146	0.772945	-0.610755	0.171855	0.143841	0.432494	0.890089
56334	4.380925	1.767356	9.097273	0.066402	-0.014044	-0.012688	-0.618060	-0.663112	0.422237	0.772931	-0.610600	0.172467	0.143453	0.432955	0.889928
56335	4.307061	1.666009	9.105834	0.066218	-0.002872	-0.011678	-0.618172	-0.662988	0.422268	0.772925	-0.610430	0.173097	0.143004	0.433385	0.889790
56336	4.388440	1.729042	9.124103	0.066964	-0.010525	-0.009695	-0.618268	-0.662857	0.422334	0.772924	-0.610259	0.173702	0.142594	0.433826	0.889642
56337	4.402140	1.715616	9.124970	0.072184	0.003873	-0.008916	-0.618368	-0.662779	0.422309	0.772943	-0.610043	0.174373	0.142057	0.434248	0.889522
56338	4.368006	1.729692	9.122647	0.083158	-0.000605	-0.005606	-0.618444	-0.662718	0.422294	0.772992	-0.609772	0.175104	0.141459	0.434722	0.889385
56339	4.266429	1.762854	9.166226	0.088622	-0.013370	-0.006588	-0.618501	-0.662579	0.422427	0.773048	-0.609469	0.175911	0.140901	0.435357	0.889163
56340	4.301396	1.766296	9.189475	0.071068	-0.018589	-0.004537	-0.618550	-0.662441	0.422573	0.773080	-0.609249	0.176531	0.140511	0.435876	0.888971
56341	4.301969	1.779232	9.260669	0.040295	-0.011794	-0.001389	-0.618570	-0.662341	0.422701	0.773099	-0.609122	0.176886	0.140317	0.436206	0.888839
56342	4.335918	1.774230	9.261372	-0.004576	0.009849	0.001111	-0.618610	-0.662366	0.422603	0.773064	-0.609188	0.176809	0.140333	0.436075	0.888901
56343	4.321292	1.872495	9.178177	-0.031143	0.029062	0.003544	-0.618649	-0.662474	0.422377	0.773014	-0.609339	0.176508	0.140439	0.435700	0.889068
56344	4.352598	1.769639	9.142126	-0.042889	0.041435	0.002993	-0.618722	-0.662643	0.422003	0.772934	-0.609564	0.176083	0.140558	0.435127	0.889330
56345	4.320953	1.725870	9.222202	-0.044811	0.042618	0.006136	-0.618760	-0.662826	0.421660	0.772880	-0.609757	0.175650	0.140685	0.434578	0.889578
56346	4.377592	1.759710	9.197335	-0.042914	0.057177	-0.001062	-0.618879	-0.663046	0.421140	0.772781	-0.610000	0.175240	0.140703	0.433902	0.889906
56347	4.298347	1.555343	9.171510	-0.039885	0.063125	0.003372	-0.618967	-0.663300	0.420610	0.772718	-0.610189	0.174862	0.140665	0.433247	0.890231
56348	4.258275	1.653496	9.237201	-0.039211	0.050163	-0.003930	-0.619095	-0.663475	0.420146	0.772610	-0.610430	0.174497	0.140695	0.432639	0.890521
56349	4.199428	1.555547	9.249013	-0.043997	0.049967	-0.010270	-0.619270	-0.663588	0.419709	0.772456	-0.610727	0.174140	0.140771	0.432046	0.890797
56350	4.168335	1.589010	9.222908	-0.061654	0.039684	-0.012770	-0.619458	-0.663657	0.419322	0.772255	-0.611131	0.173612	0.141042	0.431369	0.891082
56351	4.212494	1.643817	9.219864	-0.079441	0.024583	-0.015022	-0.619635	-0.663631	0.419103	0.772021	-0.611611	0.172958	0.141548	0.430727	0.891313
56352	4.229846	1.652635	9.245541	-0.092421	0.025098	-0.021344	-0.619866	-0.663584	0.418835	0.771725	-0.612201	0.172191	0.142148	0.429961	0.891587
56353	4.234511	1.675227	9.220643	-0.114793	0.019921	-0.020916	-0.620081	-0.663501	0.418647	0.771403	-0.612872	0.171246	0.142955	0.429132	0.891857
56354	4.212351	1.651194	9.224429	-0.134766	0.011951	-0.026765	-0.620333	-0.663367	0.418487	0.771013	-0.613675	0.170123	0.143961	0.428192	0.892147
56355	4.211159	1.724728	9.194345	-0.140657	0.010491	-0.020290	-0.620530	-0.663247	0.418385	0.770656	-0.614449	0.168943	0.145025	0.427265	0.892419
56356	4.337924	1.743905	9.245198	-0.159619	0.004502	-0.024681	-0.620756	-0.663092	0.418295	0.770239	-0.615343	0.167589	0.146267	0.426219	0.892717
56357	3.988566	1.687172	9.394594	-0.199547	0.025290	-0.036675	-0.621101	-0.662934	0.418034	0.769689	-0.616473	0.165952	0.147692	0.424829	0.893145
56358	3.391419	1.579353	9.863238	-0.266055	-0.019293	-0.077287	-0.621700	-0.662348	0.418071	0.768777	-0.618166	0.163866	0.149901	0.423279	0.893512
56359	1.942456	1.114733	10.419917	0.089033	-0.249728	0.020836	-0.621190	-0.661377	0.420361	0.769012	-0.617689	0.164565	0.150813	0.425489	0.892309
56360	3.772000	1.296180	9.753961	0.142431	-0.430252	0.012833	-0.620472	-0.659594	0.424206	0.769272	-0.617048	0.165747	0.152429	0.429171	0.890268
56361	3.478636	1.388061	10.412418	0.201459	-0.445207	0.025407	-0.619620	-0.657790	0.428232	0.769709	-0.616050	0.167422	0.153684	0.433352	0.888024
56362	3.976782	1.591345	10.056553	0.264368	-0.535330	0.044463	-0.618479	-0.655714	0.433040	0.770363	-0.614652	0.169540	0.154999	0.438455	0.885287
56363	4.503139	2.410139	10.048571	0.318760	-0.526731	0.111314	-0.616827	-0.654032	0.437912	0.771517	-0.612555	0.171865	0.155840	0.443867	0.882437
56364	5.307691	3.005507	9.805448	0.299542	-0.498065	0.229437	-0.614304	-0.653196	0.442681	0.773368	-0.609764	0.173461	0.156627	0.448913	0.879742
56365	4.938341	2.663002	10.012381	0.175104	-0.429023	0.386159	-0.610663	-0.653569	0.447145	0.775980	-0.606491	0.173274	0.157943	0.452788	0.877518
56366	5.195459	2.905385	10.151572	-0.054493	-0.553291	0.625278	-0.604946	-0.654815	0.453053	0.779662	-0.602697	0.169953	0.161766	0.456041	0.875134
56367	4.788267	3.726376	10.509686	-0.254836	-0.817680	0.909722	-0.596504	-0.656491	0.461738	0.784677	-0.597938	0.163559	0.168716	0.459879	0.871806
56368	4.897564	4.567238	11.173786	-0.541120	-1.029603	1.214875	-0.585179	-0.658949	0.472602	0.790880	-0.592498	0.153153	0.179095	0.463393	0.867866
56369	4.591868	4.015867	9.680321	-0.488793	-1.358565	1.444263	-0.571214	-0.661076	0.486510	0.798298	-0.585285	0.141993	0.190879	0.469489	0.862059
56370	5.222680	7.334842	10.184689	-0.453802	-1.589819	1.777524	-0.553844	-0.663848	0.502556	0.807370	-0.575706	0.129290	0.203496	0.477355	0.854822
56371	3.815165	7.120419	10.839465	-0.361825	-1.955634	2.192802	-0.531928	-0.666849	0.521886	0.818487	-0.562903	0.114977	0.217098	0.488316	0.845231
56372	4.204212	14.621666	15.405464	-0.166516	-2.481009	2.503993	-0.505734	-0.668426	0.545380	0.831085	-0.547044	0.100204	0.231368	0.503934	0.832178
56373	4.308634	13.209556	14.216896	-1.874198	-2.784663	2.785847	-0.475623	-0.669349	0.570749	0.840118	-0.537973	0.069185	0.260739	0.512403	0.818204
56374	4.161941	9.799949	11.301177	-2.692575	-2.783041	2.959089	-0.442972	-0.670841	0.594767	0.846183	-0.532040	0.030132	0.296226	0.516629	0.803333
56375	3.623971	5.937254	8.130633	-3.144210	-2.793198	3.101887	-0.407875	-0.672775	0.617262	0.849433	-0.527519	-0.013671	0.334815	0.518747	0.786639
56376	1.478170	0.693885	6.302797	-2.997784	-2.854990	3.132363	-0.371183	-0.674339	0.638350	0.851028	-0.522056	-0.056639	0.371449	0.522230	0.767660
56377	-1.084224	-0.104631	11.256638	-2.748307	-2.613708	2.754585	-0.337631	-0.674929	0.656107	0.850108	-0.517912	-0.095307	0.404131	0.525583	0.748626
56378	1.770085	4.055088	11.542400	-2.478623	-2.021728	1.108122	-0.319863	-0.670049	0.669867	0.843374	-0.523535	-0.120964	0.431750	0.526256	0.732561
56379	9.430061	5.387501	13.460826	-1.168438	-1.346874	-0.077142	-0.314618	-0.662495	0.679791	0.837977	-0.530256	-0.128935	0.445882	0.529083	0.721984
56380	6.547040	5.655519	11.628784	-0.506020	-0.238145	-0.954471	-0.321614	-0.656119	0.682695	0.832661	-0.539257	-0.126003	0.450821	0.527930	0.719757
56381	2.031681	3.916469	8.630155	0.153705	0.577901	-1.743209	-0.338697	-0.649627	0.680638	0.827571	-0.549870	-0.113003	0.447673	0.525002	0.723852
56382	0.742832	5.041391	7.430670	0.567602	1.157982	-2.308286	-0.362970	-0.642836	0.674548	0.821977	-0.561854	-0.093139	0.438870	0.520656	0.732332
56383	-0.296754	4.313630	7.535663	0.644063	1.438277	-2.625939	-0.390715	-0.635311	0.666124	0.814845	-0.575341	-0.070780	0.428216	0.515133	0.742475
56384	-0.419468	3.448567	7.492994	0.649635	1.468771	-2.822515	-0.419909	-0.626379	0.656754	0.806133	-0.589853	-0.047154	0.416925	0.509630	0.752629
56385	-0.236926	2.443037	7.535763	0.644356	1.375127	-2.879996	-0.448660	-0.616112	0.647387	0.796246	-0.604517	-0.023489	0.405828	0.504941	0.761799
56386	0.198580	1.665437	7.440106	0.622025	1.277785	-2.824852	-0.476235	-0.605250	0.637866	0.785647	-0.618674	-0.000471	0.394916	0.500914	0.770147
56387	0.832802	0.946318	7.310624	0.590112	1.141377	-2.649073	-0.501374	-0.594344	0.628792	0.774968	-0.631656	0.020877	0.384772	0.497761	0.777293
56388	1.871601	-0.090090	7.437932	0.549978	1.003008	-2.393554	-0.523729	-0.584059	0.620147	0.764756	-0.643064	0.040212	0.375308	0.495322	0.783454
56389	3.243018	-0.878107	8.142375	0.606328	0.911044	-2.138407	-0.543378	-0.574669	0.611960	0.755561	-0.652491	0.058155	0.365879	0.493974	0.788748
56390	4.862252	-0.889042	9.420690	0.706810	0.943533	-1.928213	-0.561385	-0.566665	0.603107	0.747418	-0.660044	0.075552	0.355264	0.493186	0.794075
56391	6.218738	-0.467873	10.510396	0.782995	1.101695	-1.780705	-0.578493	-0.560239	0.592855	0.739971	-0.666256	0.092442	0.343204	0.492173	0.799986
56392	7.208163	-0.340711	11.077694	0.777156	1.357540	-1.664958	-0.595429	-0.555760	0.580168	0.732765	-0.671771	0.108532	0.329423	0.489750	0.807233
56393	7.436390	-0.097969	11.142871	0.722067	1.611726	-1.555029	-0.611976	-0.553089	0.565312	0.725668	-0.676907	0.123297	0.314470	0.485684	0.815610
56394	7.396432	0.313724	11.018130	0.600739	1.849028	-1.405277	-0.627897	-0.552459	0.548210	0.718746	-0.681818	0.136119	0.298579	0.479493	0.825189
56395	6.905312	0.421202	10.577588	0.461590	1.985421	-1.222170	-0.642430	-0.553496	0.530024	0.712291	-0.686417	0.146538	0.282709	0.471672	0.835225
56396	6.133668	0.103712	10.127349	0.356264	2.043656	-1.020592	-0.655383	-0.556010	0.511200	0.706593	-0.690457	0.154906	0.266832	0.462733	0.845387
56397	5.428871	0.144583	10.001757	0.303433	2.004834	-0.797945	-0.666218	-0.559630	0.492917	0.702072	-0.693553	0.161487	0.251491	0.453649	0.854959
56398	5.308141	0.249057	9.952778	0.314686	1.971957	-0.608556	-0.675377	-0.564252	0.474853	0.698701	-0.695604	0.167189	0.235973	0.444695	0.864039
56399	5.412091	0.437004	9.984569	0.386773	1.994963	-0.510823	-0.683505	-0.569438	0.456685	0.696078	-0.696832	0.172920	0.219765	0.436080	0.872661
56400	5.976135	0.522532	10.335630	0.509952	2.069809	-0.496565	-0.691403	-0.574906	0.437544	0.693682	-0.697516	0.179657	0.201908	0.427731	0.881067
56401	6.704969	0.636927	10.228603	0.651517	2.217810	-0.509330	-0.699209	-0.580705	0.417000	0.691358	-0.697734	0.187592	0.182020	0.419463	0.889337
56402	7.084298	0.876952	9.468977	0.805531	2.354790	-0.518255	-0.706888	-0.586858	0.394851	0.689033	-0.697461	0.196930	0.159823	0.411273	0.897391
56403	6.869583	1.123556	8.318296	0.930062	2.391508	-0.502681	-0.713911	-0.593056	0.372311	0.686807	-0.696672	0.207229	0.136480	0.403649	0.904677
56404	6.389383	0.833124	7.058018	1.035280	2.274011	-0.478689	-0.720099	-0.598815	0.350540	0.684608	-0.695427	0.218388	0.113001	0.397243	0.910730
56405	6.236296	0.527957	6.287415	1.161132	1.982089	-0.425855	-0.725054	-0.603651	0.331515	0.682682	-0.693432	0.230427	0.090786	0.393391	0.914878
56406	6.508443	0.856648	5.987516	1.286224	1.626915	-0.367888	-0.728934	-0.607477	0.315637	0.680984	-0.690656	0.243426	0.070121	0.392385	0.917124
56407	7.537096	2.002248	7.063899	1.310137	1.245359	-0.308450	-0.731818	-0.610206	0.303465	0.679501	-0.687419	0.256386	0.052159	0.393833	0.917701
56408	8.797811	3.230354	8.018747	1.132529	1.024213	-0.294743	-0.734332	-0.612202	0.293199	0.677786	-0.684800	0.267683	0.036907	0.395294	0.917813
56409	9.628407	3.483132	7.807696	0.819922	0.937464	-0.322878	-0.736831	-0.613656	0.283737	0.675633	-0.683574	0.276127	0.024509	0.395161	0.918285
56410	10.516553	2.866784	7.054689	0.510772	0.944108	-0.391013	-0.739702	-0.614675	0.273892	0.672788	-0.684010	0.281933	0.014047	0.392818	0.919509
56411	10.805818	1.862343	6.269064	0.224857	0.966946	-0.460638	-0.742913	-0.615255	0.263707	0.669366	-0.686000	0.285226	0.005417	0.388415	0.921469
56412	10.353574	0.711680	5.339239	0.071735	0.966949	-0.479290	-0.746175	-0.615658	0.253354	0.665746	-0.688715	0.287146	-0.002295	0.382931	0.923774
56413	10.201419	-0.649076	4.908459	0.095511	0.890751	-0.509549	-0.749531	-0.615490	0.243671	0.661900	-0.691524	0.289279	-0.009544	0.378110	0.925712
56414	8.355411	0.555952	6.433540	0.251869	0.860421	-0.592559	-0.753364	-0.614587	0.233935	0.657366	-0.694260	0.293041	-0.017687	0.374547	0.927039
56415	7.438262	6.319406	6.847713	-1.500518	-0.494395	-0.242493	-0.755036	-0.611020	0.237855	0.655671	-0.701345	0.279661	-0.004060	0.367109	0.930169
56416	10.509311	0.014706	4.629239	0.155028	0.220404	-0.550535	-0.758660	-0.607923	0.234232	0.651452	-0.704167	0.282417	-0.006749	0.366849	0.930256
56417	9.325773	2.658557	3.573605	-1.359940	-0.670010	-0.602550	-0.762595	-0.601173	0.238828	0.646835	-0.712795	0.271159	0.007222	0.361267	0.932435
56418	8.300371	6.510784	4.305586	-1.633737	-0.746922	-0.961338	-0.768696	-0.591553	0.243253	0.639185	-0.724402	0.258233	0.023454	0.353986	0.934957
56419	3.201469	7.376767	5.035612	-2.654182	-0.941359	-1.259583	-0.776369	-0.579015	0.248984	0.628479	-0.741019	0.236443	0.047598	0.340048	0.939203
56420	1.632345	1.622199	6.004420	-2.875270	-0.911861	-1.489464	-0.785113	-0.564772	0.254225	0.615082	-0.759106	0.213147	0.072604	0.323714	0.943365
56421	-6.116860	-7.992485	7.910643	-2.126729	-0.953956	-1.976507	-0.796330	-0.546513	0.259196	0.597656	-0.776888	0.198120	0.093091	0.312679	0.945286
56422	1.675275	-7.574551	9.141515	0.244239	-2.420602	-2.861081	-0.810662	-0.516286	0.276181	0.574874	-0.791339	0.208092	0.111118	0.327462	0.938308
56423	-0.262507	-3.441908	5.344366	-0.298804	-1.789703	-2.459492	-0.822433	-0.490692	0.287793	0.554397	-0.804741	0.212216	0.127466	0.334084	0.933884
56424	2.139556	-10.483139	9.306721	-0.428415	-2.410650	-1.081439	-0.825063	-0.473760	0.307934	0.544852	-0.811435	0.211446	0.149694	0.342235	0.927614
56425	10.199158	-17.061094	17.789540	-0.147270	-2.080128	0.143795	-0.820993	-0.467673	0.327493	0.545765	-0.811297	0.209614	0.167664	0.350826	0.921309
56426	12.351520	-15.718600	19.781141	-0.195122	-1.543413	0.576642	-0.815159	-0.466854	0.342875	0.550100	-0.809331	0.205848	0.181398	0.356414	0.916550
56427	9.386551	-4.993122	14.530946	-0.413372	-1.010132	0.460266	-0.810750	-0.466925	0.353080	0.553033	-0.808687	0.200451	0.191936	0.357780	0.913868
56428	5.867781	11.002138	10.711921	-0.628706	-0.854903	0.087816	-0.808590	-0.464553	0.361071	0.552465	-0.810568	0.194327	0.202398	0.356610	0.912066
56429	8.910868	19.216196	13.343109	-0.707095	-0.949475	0.147928	-0.805810	-0.462329	0.370029	0.552149	-0.812427	0.187333	0.214013	0.355266	0.909937
56430	10.460847	1.415914	6.977080	-0.759791	-0.410638	0.317299	-0.803176	-0.463423	0.374363	0.553007	-0.813678	0.179196	0.221567	0.350952	0.909803
56431	-0.807022	1.097348	10.505770	-0.057643	-0.223628	0.169415	-0.801754	-0.463970	0.376726	0.554200	-0.813123	0.178025	0.223726	0.351514	0.909057
56432	6.487567	1.249050	9.644145	-0.171615	-0.808153	0.221122	-0.798700	-0.462882	0.384472	0.555540	-0.812740	0.175583	0.231201	0.353827	0.906285
56433	5.614991	1.267569	10.285918	-0.066844	-0.286645	0.148010	-0.797224	-0.463024	0.387353	0.556527	-0.812320	0.174396	0.233905	0.354605	0.905286
56434	3.063673	2.014958	9.023410	-0.084405	-0.373654	0.170263	-0.795405	-0.463044	0.391052	0.557645	-0.811867	0.172926	0.237410	0.355614	0.903977
56435	5.107846	1.717590	9.623695	-0.242091	-0.388669	0.202051	-0.793359	-0.463257	0.394936	0.558632	-0.811821	0.169935	0.241894	0.355443	0.902855
56436	4.205270	1.164784	9.771293	-0.332131	-0.223310	0.194632	-0.791736	-0.464010	0.397302	0.559326	-0.812132	0.166123	0.245579	0.353747	0.902527
56437	4.739047	1.022622	9.981018	-0.460670	-0.261200	0.184466	-0.790069	-0.464543	0.399988	0.559604	-0.812928	0.161220	0.250267	0.351210	0.902229
56438	3.949600	1.514863	9.167442	-0.511985	-0.210477	0.172616	-0.788581	-0.465176	0.402184	0.559634	-0.813951	0.155865	0.254853	0.347988	0.902194
56439	4.508119	0.944522	9.531751	-0.457276	-0.257615	0.162868	-0.787019	-0.465564	0.404785	0.559703	-0.814806	0.151073	0.259487	0.345457	0.901846
56440	4.385270	0.465873	9.654324	-0.431259	-0.218398	0.129810	-0.785730	-0.465836	0.406972	0.559556	-0.815721	0.146613	0.263678	0.342922	0.901598
56441	4.334028	1.083596	9.483013	-0.374515	-0.243930	0.095462	-0.784560	-0.465736	0.409336	0.559272	-0.816586	0.142838	0.267733	0.340995	0.901133
56442	4.249695	1.909987	9.180538	-0.216917	-0.147434	0.065087	-0.783807	-0.465731	0.410781	0.559159	-0.817056	0.140572	0.270163	0.339873	0.900832
56443	3.892217	2.404191	8.914519	-0.114701	-0.267699	0.080198	-0.782644	-0.465431	0.413331	0.559437	-0.817101	0.139199	0.272946	0.340176	0.899878
56444	3.857136	1.917245	9.005009	-0.049967	-0.214459	0.105260	-0.781475	-0.465526	0.415431	0.560083	-0.816816	0.138270	0.274962	0.340730	0.899054
56445	5.169326	0.686999	9.834180	-0.005522	-0.209105	0.087013	-0.780422	-0.465479	0.417457	0.560709	-0.816458	0.137849	0.276671	0.341652	0.898180
56446	4.607310	1.149293	9.739818	0.127259	-0.139378	0.017414	-0.779946	-0.465109	0.418758	0.561157	-0.815976	0.138875	0.277104	0.343304	0.897416
56447	4.928567	1.408661	9.519879	0.027738	-0.073532	0.021087	-0.779636	-0.464983	0.419474	0.561360	-0.815811	0.139027	0.277566	0.343866	0.897058
56448	4.720521	1.116315	9.286369	0.006880	-0.049214	0.015161	-0.779421	-0.464902	0.419962	0.561457	-0.815751	0.138982	0.277971	0.344116	0.896837
56449	4.427379	1.213842	9.419553	-0.018319	-0.015140	0.009558	-0.779338	-0.464883	0.420138	0.561442	-0.815798	0.138768	0.278237	0.344031	0.896787
56450	4.623429	1.339077	9.176878	-0.011234	0.006478	0.006894	-0.779324	-0.464927	0.420116	0.561425	-0.815839	0.138595	0.278310	0.343874	0.896824
56451	4.328106	1.399611	9.335102	-0.033557	0.026598	0.007539	-0.779368	-0.465035	0.419915	0.561351	-0.815948	0.138254	0.278336	0.343470	0.896971
56452	4.386565	1.211408	9.276454	-0.048435	0.014975	0.007170	-0.779376	-0.465110	0.419817	0.561233	-0.816115	0.137746	0.278552	0.342970	0.897095
56453	4.336275	1.151263	9.276048	-0.072540	0.012818	0.000411	-0.779421	-0.465112	0.419730	0.560995	-0.816390	0.137084	0.278904	0.342312	0.897237
56454	4.278582	1.228755	9.258890	-0.086609	0.006886	-0.009822	-0.779502	-0.465020	0.419681	0.560637	-0.816767	0.136305	0.279397	0.341538	0.897379
56455	4.251389	1.380074	9.195872	-0.069443	-0.005401	-0.013574	-0.779575	-0.464846	0.419738	0.560298	-0.817095	0.135729	0.279873	0.340990	0.897439
56456	4.254930	1.307973	9.168011	-0.046581	-0.011706	-0.020464	-0.779664	-0.464604	0.419842	0.559968	-0.817383	0.135354	0.280286	0.340629	0.897448
56457	4.055256	1.517512	9.209157	-0.033115	-0.015676	-0.022266	-0.779756	-0.464324	0.419980	0.559663	-0.817627	0.135141	0.280638	0.340424	0.897415
56458	3.860915	1.926602	9.138311	0.009889	-0.033435	-0.017829	-0.779769	-0.464029	0.420282	0.559511	-0.817711	0.135262	0.280904	0.340626	0.897255
56459	4.123137	1.631637	9.161645	0.077519	-0.050192	-0.015039	-0.779724	-0.463690	0.420739	0.559573	-0.817544	0.136012	0.280906	0.341486	0.896928
56460	4.444015	1.520010	9.119363	0.088931	-0.042049	-0.006434	-0.779649	-0.463458	0.421133	0.559733	-0.817304	0.136795	0.280795	0.342374	0.896624
56461	4.432270	1.537564	9.239645	0.079201	-0.031465	-0.002757	-0.779588	-0.463283	0.421439	0.559895	-0.817074	0.137507	0.280642	0.343160	0.896371
56462	4.337272	1.432520	9.258724	0.032005	-0.019305	0.004356	-0.779517	-0.463217	0.421644	0.559979	-0.816978	0.137735	0.280672	0.343478	0.896240
56463	4.624954	1.604441	9.258898	0.002498	-0.039335	0.010417	-0.779360	-0.463122	0.422038	0.560028	-0.816949	0.137704	0.281010	0.343674	0.896059
56464	4.485265	1.337016	9.247554	-0.007820	0.002599	0.018477	-0.779271	-0.463246	0.422066	0.560110	-0.816925	0.137516	0.281092	0.343565	0.896075
56465	4.501051	1.354563	9.223958	-0.016853	0.000358	0.015072	-0.779200	-0.463325	0.422111	0.560141	-0.816941	0.137292	0.281229	0.343420	0.896088
56466	4.401157	1.276032	9.247693	-0.031783	0.018864	0.012349	-0.779191	-0.463455	0.421985	0.560108	-0.817027	0.136915	0.281319	0.343040	0.896205
56467	4.328121	1.305221	9.228022	-0.022260	0.019981	0.005689	-0.779227	-0.463525	0.421841	0.560051	-0.817105	0.136682	0.281333	0.342759	0.896308
56468	4.257774	1.299863	9.230499	-0.013221	0.010922	-0.002973	-0.779282	-0.463502	0.421765	0.559951	-0.817198	0.136536	0.281381	0.342568	0.896366
56469	4.264666	1.457800	9.190563	-0.003034	0.010555	-0.006335	-0.779359	-0.463442	0.421689	0.559854	-0.817266	0.136527	0.281360	0.342488	0.896403
56470	4.398389	1.502676	9.141061	0.007992	0.012066	-0.004622	-0.779426	-0.463409	0.421601	0.559801	-0.817294	0.136578	0.281280	0.342465	0.896437
56471	4.396433	1.474084	9.066641	0.026368	0.027083	-0.009157	-0.779565	-0.463382	0.421373	0.559765	-0.817274	0.136844	0.280966	0.342548	0.896503
56472	4.223185	1.495333	9.219305	0.049749	0.030864	-0.010724	-0.779719	-0.463364	0.421108	0.559781	-0.817187	0.137296	0.280506	0.342780	0.896559
56473	4.165998	1.549616	9.223655	0.059888	0.026867	-0.005854	-0.779839	-0.463364	0.420887	0.559864	-0.817037	0.137848	0.280006	0.343139	0.896578
56474	4.254593	1.473625	9.192708	0.026771	0.003674	-0.003240	-0.779875	-0.463314	0.420875	0.559874	-0.816994	0.138063	0.279886	0.343309	0.896550
56475	4.090668	1.654967	9.254624	0.034120	-0.001561	0.001601	-0.779873	-0.463276	0.420919	0.559943	-0.816898	0.138353	0.279752	0.343588	0.896485
56476	4.272064	1.465715	9.141474	0.036552	-0.010760	0.009661	-0.779797	-0.463282	0.421054	0.560081	-0.816761	0.138602	0.279689	0.343906	0.896383
56477	4.181451	1.555325	9.073244	0.065811	-0.027683	0.005755	-0.779699	-0.463189	0.421338	0.560271	-0.816536	0.139158	0.279581	0.344565	0.896164
56478	4.703059	1.052794	9.398537	0.090767	-0.034941	0.005485	-0.779579	-0.463076	0.421684	0.560528	-0.816231	0.139911	0.279402	0.345437	0.895884
56479	4.363477	1.276419	9.243968	0.094828	-0.047850	-0.004968	-0.779485	-0.462825	0.422133	0.560715	-0.815955	0.140772	0.279288	0.346426	0.895537
56480	4.329602	1.288358	9.144543	0.093202	-0.021709	-0.009204	-0.779484	-0.462638	0.422340	0.560864	-0.815708	0.141607	0.278993	0.347256	0.895308
56481	4.475034	1.528666	9.174347	0.100415	-0.011669	-0.013954	-0.779541	-0.462439	0.422452	0.560996	-0.815451	0.142556	0.278565	0.348123	0.895104
56482	4.559658	1.561353	9.147145	0.097128	0.006953	-0.015088	-0.779653	-0.462303	0.422394	0.561109	-0.815217	0.143452	0.278024	0.348852	0.894989
56483	4.300364	1.538188	9.176381	0.089136	0.039934	-0.007445	-0.779818	-0.462337	0.422053	0.561260	-0.814968	0.144272	0.277258	0.349387	0.895018
56484	4.308531	1.605063	9.080999	0.117120	0.040851	-0.012536	-0.780009	-0.462341	0.421695	0.561447	-0.814650	0.145336	0.276340	0.350123	0.895014
56485	4.050368	1.582057	9.207372	0.168150	0.035102	-0.009544	-0.780171	-0.462341	0.421394	0.561797	-0.814133	0.146872	0.275166	0.351323	0.894905
56486	4.186341	1.574411	9.127612	0.179059	0.003136	-0.007164	-0.780228	-0.462257	0.421381	0.562194	-0.813570	0.148467	0.274193	0.352736	0.894648
56487	4.067117	1.598776	9.225632	0.202893	-0.001534	0.002580	-0.780222	-0.462227	0.421426	0.562730	-0.812869	0.150262	0.273109	0.354387	0.894327
56488	4.173766	1.589668	9.217818	0.231194	-0.027499	0.008401	-0.780108	-0.462161	0.421710	0.563387	-0.812043	0.152258	0.272079	0.356363	0.893856
56489	4.323790	1.774598	9.214726	0.243724	-0.036905	0.006321	-0.779985	-0.462035	0.422076	0.564059	-0.811171	0.154400	0.271037	0.358505	0.893316
56490	4.077360	1.331563	9.273054	0.242039	-0.044372	0.007695	-0.779830	-0.461900	0.422509	0.564735	-0.810299	0.156493	0.270074	0.360643	0.892746
56491	4.344265	1.314387	9.259484	0.211197	-0.076445	0.005388	-0.779606	-0.461622	0.423226	0.565308	-0.809539	0.158346	0.269522	0.362701	0.892080
56492	4.428271	1.591401	9.380774	0.165649	-0.098160	-0.006548	-0.779387	-0.461175	0.424115	0.565664	-0.809001	0.159815	0.269407	0.364465	0.891395
56493	4.418580	1.555953	9.251503	0.124134	-0.079945	-0.004257	-0.779208	-0.460803	0.424847	0.565927	-0.808596	0.160931	0.269372	0.365831	0.890846
56494	4.608389	1.665644	9.145607	0.106782	-0.086005	-0.004278	-0.779009	-0.460416	0.425630	0.566142	-0.808259	0.161864	0.269495	0.367061	0.890303
56495	4.408579	1.695362	9.245401	0.081369	-0.043915	-0.001593	-0.778913	-0.460197	0.426045	0.566310	-0.807996	0.162586	0.269421	0.367914	0.889973
56496	4.487898	1.831375	9.096513	0.076198	-0.039666	0.005202	-0.778785	-0.460055	0.426431	0.566517	-0.807726	0.163207	0.269355	0.368683	0.889674
56497	3.925191	1.824529	9.207539	0.125869	-0.038081	0.031451	-0.778517	-0.460123	0.426847	0.567062	-0.807146	0.164184	0.268983	0.369869	0.889295
56498	3.100288	1.383947	9.998174	0.327538	-0.133171	0.092638	-0.777642	-0.460338	0.428208	0.568624	-0.805537	0.166664	0.268216	0.373094	0.888179
56499	3.336835	1.317200	10.101104	0.275741	-0.258720	0.030679	-0.776786	-0.459569	0.430581	0.569564	-0.804392	0.168970	0.268702	0.376497	0.886594
56500	4.515403	1.817518	9.440400	0.434437	-0.359157	0.068152	-0.775441	-0.458719	0.433898	0.571222	-0.802467	0.172488	0.269066	0.381606	0.884296
56501	4.209989	1.506696	9.622851	0.415245	-0.300916	0.068668	-0.774252	-0.458068	0.436701	0.572833	-0.800587	0.175848	0.269067	0.386308	0.882252
56502	4.286729	1.340203	9.549712	0.443168	-0.390374	0.066265	-0.772830	-0.457043	0.440278	0.574500	-0.798596	0.179427	0.269599	0.391607	0.879750
56503	4.142078	1.749238	9.657780	0.408285	-0.437278	0.040627	-0.771428	-0.455597	0.444218	0.575878	-0.796831	0.182826	0.270671	0.396853	0.877066
56504	4.264841	1.825309	9.772829	0.401028	-0.547044	0.010323	-0.769893	-0.453457	0.449045	0.577008	-0.795217	0.186257	0.272629	0.402500	0.873880
56505	4.369679	1.844662	9.640288	0.298771	-0.647014	-0.033937	-0.768327	-0.450519	0.454649	0.577528	-0.794190	0.189009	0.275925	0.407793	0.870385
56506	3.780965	1.824941	10.331465	0.193210	-0.853618	-0.085791	-0.766454	-0.446299	0.461915	0.577369	-0.793818	0.191045	0.281413	0.413122	0.866104
56507	3.145287	1.865991	10.759842	0.182690	-1.297259	-0.131462	-0.763517	-0.439803	0.472880	0.576847	-0.793669	0.193230	0.290327	0.420314	0.859678
56508	3.582174	1.955871	10.483654	0.211340	-1.838007	-0.148795	-0.758932	-0.430773	0.488321	0.576301	-0.793455	0.195719	0.303150	0.429957	0.850433
56509	3.321285	2.186832	10.798629	0.227069	-2.223937	-0.120037	-0.752720	-0.420086	0.506893	0.576061	-0.793006	0.198230	0.318696	0.441213	0.838906
56510	2.930921	2.524815	11.436194	0.123704	-2.616056	0.013048	-0.744071	-0.408460	0.528696	0.576523	-0.792437	0.199161	0.337608	0.452995	0.825116
56511	1.322712	2.794264	11.837927	0.045660	-3.240306	0.332626	-0.730835	-0.396149	0.555830	0.579097	-0.790918	0.197728	0.361286	0.466386	0.807438
56512	-0.618911	4.139725	10.561810	-0.268760	-4.203980	0.822443	-0.710204	-0.382710	0.590883	0.583967	-0.789025	0.190847	0.393183	0.480596	0.783859
56513	-1.899587	1.771761	10.357361	-0.922879	-5.354075	1.581249	-0.678720	-0.369047	0.634935	0.591085	-0.787604	0.174063	0.435841	0.493441	0.752701
56514	-0.020523	2.980691	8.659369	-0.380443	-6.197690	1.791204	-0.639701	-0.351906	0.683333	0.601112	-0.783097	0.159447	0.479006	0.512758	0.712484
56515	9.673759	4.420468	11.985540	-0.251471	-6.723772	1.547559	-0.596666	-0.328756	0.732059	0.609384	-0.779173	0.146766	0.522150	0.533675	0.665244
56516	13.717031	3.480018	12.547133	0.357032	-6.380854	1.225809	-0.554733	-0.303462	0.774714	0.618327	-0.773385	0.139811	0.556726	0.556584	0.616661
56517	18.484565	4.057768	15.501607	0.853861	-5.449938	1.032316	-0.517297	-0.280402	0.808566	0.628681	-0.765549	0.136728	0.580658	0.579059	0.572300
56518	13.423295	4.864995	13.468408	0.726008	-4.888160	1.098185	-0.481494	-0.259988	0.837001	0.638413	-0.758343	0.131699	0.600493	0.597765	0.531117
56519	11.001512	4.854619	12.652758	0.356790	-4.560844	1.260781	-0.445572	-0.241874	0.861952	0.646399	-0.753047	0.122831	0.619381	0.611896	0.491885
56520	8.154256	4.462082	11.146605	0.076195	-4.304198	1.393859	-0.409506	-0.225766	0.883931	0.652798	-0.749350	0.111035	0.637306	0.622498	0.454243
56521	5.256187	3.574835	9.351870	0.054736	-4.229737	1.480817	-0.372491	-0.210247	0.903906	0.658909	-0.745805	0.098057	0.653521	0.632117	0.416339
56522	3.717880	3.292552	8.348734	0.069438	-4.232642	1.600875	-0.333972	-0.195201	0.922149	0.664986	-0.742147	0.083738	0.668025	0.641182	0.377662
56523	1.345818	3.395243	7.154764	0.140242	-3.967169	1.645902	-0.296241	-0.181723	0.937666	0.671086	-0.738165	0.068960	0.679621	0.649684	0.340626
56524	-6.349512	2.007798	3.776512	-0.097494	-4.006153	1.726846	-0.257215	-0.168293	0.951587	0.675163	-0.735807	0.052366	0.691372	0.655946	0.302885
56525	8.443532	7.350301	13.504127	-0.180354	-5.263308	1.435310	-0.210753	-0.144082	0.966863	0.677234	-0.734779	0.038124	0.704938	0.662827	0.252434
56526	17.706534	8.049669	20.072884	-1.119880	-4.112193	0.863992	-0.175700	-0.123258	0.976697	0.670892	-0.741057	0.027168	0.720440	0.660032	0.212897
56527	17.815829	5.325938	20.224719	-1.268502	-2.259350	0.177737	-0.158099	-0.109693	0.981311	0.661944	-0.749203	0.022898	0.732690	0.653194	0.191059
56528	9.775309	6.317478	13.584158	-1.343291	-0.390777	-0.224610	-0.156807	-0.105482	0.981980	0.651658	-0.758175	0.022618	0.742127	0.643462	0.187625
56529	11.665828	6.756127	1.600392	-1.550245	1.114771	-0.158107	-0.166145	-0.111322	0.979797	0.639806	-0.768244	0.021206	0.750362	0.630404	0.198865
56530	1.732623	-4.714752	8.411854	-0.867818	2.919805	-0.420566	-0.190864	-0.126351	0.973451	0.632515	-0.774191	0.023529	0.750664	0.620213	0.227684
56531	1.038736	2.651050	7.634821	-0.182582	3.235107	-0.958160	-0.221105	-0.138841	0.965316	0.629146	-0.776612	0.032405	0.745177	0.614490	0.259064
56532	-1.399834	2.070903	5.423461	-0.235837	3.048814	-0.953611	-0.249854	-0.150085	0.956581	0.625118	-0.779454	0.040984	0.739460	0.608216	0.288570
56533	-1.981693	1.796831	4.364173	-0.022553	2.763255	-1.027457	-0.276596	-0.158760	0.947782	0.622216	-0.781200	0.050729	0.732354	0.603756	0.314860
56534	0.067345	2.951821	5.423668	-0.014519	2.591519	-1.084612	-0.302353	-0.165892	0.938649	0.618934	-0.783073	0.060972	0.724916	0.599397	0.339440
56535	2.285821	3.804451	6.720839	-0.209072	2.664326	-1.006613	-0.327779	-0.173830	0.928625	0.614221	-0.786053	0.069661	0.717839	0.593215	0.364421
56536	4.057690	3.525586	7.811118	-0.492520	2.900768	-0.896147	-0.354126	-0.183867	0.916945	0.607607	-0.790581	0.076131	0.710921	0.584102	0.391684
56537	4.983747	2.687279	7.843527	-0.698198	3.258270	-0.813918	-0.382077	-0.196198	0.903063	0.599639	-0.796189	0.080722	0.703172	0.572354	0.421854
56538	4.788475	1.569196	7.188217	-0.759429	3.613384	-0.749423	-0.411926	-0.210675	0.886529	0.591317	-0.802036	0.084159	0.693298	0.558887	0.454955
56539	4.537486	0.269881	6.588635	-0.655658	3.853799	-0.663942	-0.442305	-0.226557	0.867778	0.583939	-0.807132	0.086909	0.680721	0.545169	0.489294
56540	4.444757	-0.638979	5.793375	-0.359979	3.995232	-0.592248	-0.472775	-0.243330	0.846921	0.578761	-0.810492	0.090217	0.664470	0.532817	0.524010
56541	4.513202	-1.074422	5.402399	0.020800	4.040292	-0.534350	-0.502311	-0.260271	0.824586	0.576253	-0.811753	0.094814	0.644683	0.522797	0.557734
56542	4.917363	-0.879996	5.313847	0.372721	4.024933	-0.468958	-0.530646	-0.277381	0.800921	0.576142	-0.811109	0.100811	0.621671	0.514939	0.590222
56543	5.639317	-0.323560	5.883027	0.637290	3.991603	-0.371662	-0.557103	-0.294751	0.776375	0.577963	-0.808936	0.107616	0.596318	0.508669	0.621016
56544	6.695684	0.236228	6.924203	0.792023	3.979168	-0.284573	-0.582077	-0.312609	0.750641	0.580904	-0.805826	0.114866	0.568978	0.502911	0.650649
56545	7.486728	0.487375	7.869687	0.858231	4.005034	-0.246881	-0.605733	-0.330597	0.723735	0.584159	-0.802356	0.122403	0.540227	0.496920	0.679135
56546	8.073004	0.831322	8.496065	0.866142	3.997173	-0.243920	-0.628291	-0.348399	0.695606	0.587149	-0.798944	0.130172	0.510399	0.490210	0.706532
56547	8.093145	1.247684	8.869630	0.792363	3.936822	-0.224788	-0.649129	-0.365706	0.667001	0.589600	-0.795921	0.137411	0.480628	0.482462	0.732275
56548	8.121496	1.317150	9.049289	0.668274	3.800082	-0.139728	-0.667788	-0.382781	0.638387	0.591737	-0.793287	0.143330	0.451560	0.473471	0.756253
56549	8.971517	1.312450	9.522305	0.543076	3.661820	0.003848	-0.683798	-0.399918	0.610316	0.594101	-0.790756	0.147476	0.423633	0.463433	0.778309
56550	9.833154	1.055788	9.701969	0.447291	3.621201	0.145767	-0.697879	-0.417662	0.581828	0.596882	-0.788152	0.150165	0.395850	0.452079	0.799329
56551	9.789852	-0.043920	9.420081	0.434143	3.658684	0.242260	-0.710405	-0.435839	0.552602	0.600206	-0.785211	0.152304	0.367529	0.439873	0.819411
56552	10.186614	-1.685714	9.462455	0.611069	3.701777	0.288657	-0.721810	-0.454177	0.522220	0.604369	-0.781314	0.155842	0.337238	0.428102	0.838451
56553	10.688458	-1.793357	9.674161	0.916238	3.756079	0.296833	-0.732072	-0.472332	0.490890	0.609429	-0.776094	0.162098	0.304413	0.417830	0.856009
56554	10.589856	-0.548949	9.647202	1.155181	3.780729	0.283996	-0.741267	-0.490154	0.458555	0.614777	-0.769996	0.170747	0.269393	0.408478	0.872108
56555	9.921952	0.982310	9.349636	1.211496	3.714522	0.224979	-0.749249	-0.506838	0.426311	0.619469	-0.764013	0.180398	0.234275	0.399249	0.886406
56556	9.703875	2.254356	9.295873	1.062331	3.568966	0.118787	-0.756347	-0.521807	0.394533	0.622615	-0.759260	0.189405	0.200720	0.388898	0.899149
56557	9.238214	2.790303	8.655649	0.833711	3.365546	-0.013141	-0.762686	-0.534560	0.364081	0.624026	-0.756167	0.196988	0.170004	0.377436	0.910297
56558	8.434063	2.882325	8.088098	0.617522	3.129926	-0.157858	-0.768619	-0.544980	0.334995	0.623723	-0.754771	0.203199	0.142105	0.365127	0.920048
56559	8.948342	2.350626	8.274206	0.455199	2.837378	-0.310786	-0.774257	-0.552779	0.308158	0.621882	-0.754875	0.208392	0.117426	0.352986	0.928230
56560	11.155995	1.251606	8.571599	0.347049	2.641084	-0.443087	-0.779862	-0.558578	0.282498	0.618750	-0.756178	0.212940	0.094675	0.340859	0.935335
56561	13.408162	0.392924	8.143906	0.350838	2.612011	-0.496046	-0.785122	-0.563528	0.256942	0.615128	-0.757818	0.217554	0.072117	0.328859	0.941622
56562	14.686918	-0.413846	7.216427	0.345282	2.599947	-0.479073	-0.789688	-0.568264	0.231235	0.611512	-0.759458	0.221983	0.049468	0.316700	0.947235
56563	14.383349	-2.065977	5.703586	0.398417	2.541280	-0.392114	-0.793074	-0.573145	0.206249	0.608528	-0.760489	0.226606	0.026972	0.305224	0.951899
56564	14.864048	-3.963982	4.474551	0.521751	2.334697	-0.238015	-0.794934	-0.578323	0.183366	0.606674	-0.760334	0.232034	0.005229	0.295695	0.955268
56565	15.233984	-4.465833	3.872072	0.703292	2.075134	-0.041444	-0.795103	-0.584034	0.163450	0.606277	-0.758550	0.238811	-0.015489	0.288975	0.957211
56566	16.306580	-2.872363	3.885858	0.804228	1.827328	0.172425	-0.793629	-0.590544	0.146323	0.607401	-0.755274	0.246222	-0.034891	0.284286	0.958104
56567	6.655443	7.651009	5.220586	0.498182	1.176231	0.311293	-0.791277	-0.596175	0.135850	0.609633	-0.752050	0.250535	-0.047197	0.281061	0.958529
56568	21.061715	-10.159118	-0.856148	-1.149481	-0.656250	0.965714	-0.785651	-0.601562	0.144483	0.617681	-0.749509	0.238130	-0.034958	0.276331	0.960426
56569	13.131968	6.427319	2.804771	-0.446683	-0.102799	0.564891	-0.782209	-0.605467	0.146827	0.622228	-0.747360	0.232993	-0.031337	0.273609	0.961330
56570	17.916468	2.114483	-2.952761	-0.964452	-0.999171	0.536928	-0.779127	-0.606713	0.157672	0.626622	-0.746774	0.222873	-0.017475	0.272447	0.962012
56571	-0.913836	0.782943	7.838674	-1.347737	-0.555265	0.459595	-0.776325	-0.608613	0.164039	0.630315	-0.747640	0.209133	-0.004640	0.265752	0.964030
56572	1.829217	2.854114	10.763726	-1.311837	-1.562335	-0.119739	-0.777017	-0.603527	0.178886	0.629281	-0.751882	0.196667	0.015808	0.265383	0.964013
56573	-2.569869	1.924645	11.847808	-0.775937	-1.007454	-0.672818	-0.781033	-0.595733	0.187322	0.623836	-0.758008	0.190399	0.028564	0.265566	0.963669
56574	0.690044	0.869158	12.146948	0.632267	-1.527302	-1.199115	-0.787984	-0.582410	0.199700	0.614603	-0.763382	0.198776	0.036678	0.279368	0.959483
56575	-1.158079	-2.194364	6.961382	0.633455	-1.448141	-1.145902	-0.794412	-0.569453	0.211265	0.605760	-0.768201	0.207176	0.044317	0.292559	0.955220
56576	3.133658	-2.923636	7.394081	0.620630	-1.761333	-0.471988	-0.796414	-0.560503	0.227070	0.602279	-0.769040	0.214095	0.054625	0.307268	0.950054
56577	6.259275	-4.988582	11.790581	0.531438	-1.663079	0.073390	-0.795002	-0.555803	0.243013	0.603147	-0.766993	0.218940	0.064702	0.320631	0.944992
56578	6.380082	-5.753973	13.019567	0.617849	-1.476579	0.160505	-0.793037	-0.552163	0.257310	0.604813	-0.764120	0.224324	0.072752	0.333521	0.939931
56579	5.967201	-1.009391	12.910547	0.834020	-1.336013	0.127597	-0.791277	-0.548545	0.270147	0.606420	-0.760611	0.231788	0.078331	0.347231	0.934502
56580	6.285297	1.888607	11.628840	0.748188	-1.173015	0.167213	-0.789331	-0.545631	0.281502	0.608315	-0.757093	0.238250	0.083127	0.359300	0.929512
56581	6.204448	4.862280	11.738683	0.640391	-0.988363	0.200847	-0.787287	-0.543503	0.291176	0.610409	-0.753698	0.243599	0.087062	0.369518	0.925136
56582	6.272536	6.966805	11.552724	0.443550	-0.832869	0.165846	-0.785547	-0.541601	0.299306	0.612078	-0.751182	0.247157	0.090973	0.377352	0.921591
56583	4.344769	6.684425	9.922107	0.236152	-0.722512	0.120335	-0.784158	-0.539713	0.306277	0.613209	-0.749666	0.248951	0.095243	0.383029	0.918813
56584	2.792779	5.235109	8.800041	0.155171	-0.737573	0.107242	-0.782794	-0.537630	0.313348	0.614170	-0.748528	0.250003	0.100140	0.388150	0.916140
56585	2.643320	3.830529	8.481290	0.155786	-0.853002	0.113447	-0.781239	-0.535099	0.321457	0.615184	-0.747342	0.251054	0.105899	0.393888	0.913037
56586	2.905307	2.640948	8.774821	0.158985	-0.912845	0.140575	-0.779393	-0.532483	0.330164	0.616423	-0.745998	0.252011	0.112110	0.399936	0.909660
56587	3.444751	2.009783	9.479112	0.108650	-0.924004	0.166510	-0.777320	-0.529958	0.338997	0.617811	-0.744708	0.252428	0.118678	0.405653	0.906290
56588	3.841190	1.127839	9.451391	0.028423	-0.919858	0.214400	-0.774883	-0.527756	0.347893	0.619478	-0.743496	0.251915	0.125708	0.410717	0.903056
56589	5.158558	1.701126	10.737532	-0.031054	-0.876967	0.239093	-0.772287	-0.525866	0.356424	0.621253	-0.742397	0.250781	0.132731	0.415104	0.900040
56590	5.593272	2.648693	9.887091	-0.086822	-0.742691	0.214383	-0.769957	-0.524319	0.363670	0.622758	-0.741671	0.249193	0.139066	0.418346	0.897579
56591	6.723283	7.275742	12.439327	-0.317686	-0.725191	0.265641	-0.767284	-0.523206	0.370852	0.624311	-0.741644	0.245358	0.146667	0.419786	0.895694
56592	7.691524	3.508061	9.158455	-0.447622	-0.396523	0.274872	-0.764985	-0.523539	0.375107	0.625716	-0.742118	0.240293	0.152571	0.418531	0.895295
56593	3.508569	2.312491	9.462166	-0.304414	-0.326902	0.249202	-0.762937	-0.523976	0.378651	0.627114	-0.742118	0.236618	0.157021	0.417982	0.894782
56594	5.260297	0.549427	10.287921	-0.322988	-0.329793	0.245498	-0.760881	-0.524376	0.382217	0.628439	-0.742216	0.232764	0.161632	0.417306	0.894277
56595	4.818626	1.493380	9.964297	-0.226582	-0.211139	0.166825	-0.759506	-0.524689	0.384515	0.629303	-0.742319	0.230089	0.164708	0.416730	0.893984
56596	4.514052	2.010819	9.393297	-0.245869	-0.200445	0.139736	-0.758303	-0.524848	0.386668	0.629924	-0.742646	0.227318	0.167850	0.415947	0.893764
56597	4.927482	1.329982	9.986853	-0.242676	-0.135882	0.113665	-0.757375	-0.525083	0.388163	0.630340	-0.743090	0.224699	0.170454	0.414856	0.893778
56598	4.030562	1.554694	9.774765	-0.244996	-0.065985	0.071050	-0.756823	-0.525294	0.388954	0.630427	-0.743768	0.222198	0.172572	0.413372	0.894060
56599	4.670418	1.955984	9.563757	-0.269376	-0.111372	0.051315	-0.756324	-0.525171	0.390087	0.630312	-0.744642	0.219579	0.175159	0.411950	0.894213
56600	4.389208	1.971406	9.336269	-0.209246	-0.020590	0.014563	-0.756205	-0.525151	0.390347	0.630023	-0.745463	0.217615	0.176708	0.410489	0.894580
56601	4.062174	1.911460	9.432005	-0.157923	-0.049381	0.007168	-0.756090	-0.524958	0.390828	0.629762	-0.746105	0.216164	0.178122	0.409568	0.894721
56602	4.595022	1.606355	9.560625	-0.130393	-0.015992	-0.018889	-0.756189	-0.524707	0.390974	0.629355	-0.746775	0.215035	0.179139	0.408668	0.894930
56603	3.867548	2.218670	9.141500	-0.092280	-0.004442	-0.039208	-0.756446	-0.524352	0.390954	0.628858	-0.747390	0.214352	0.179799	0.408000	0.895102
56604	4.443422	1.812161	9.497559	-0.097355	-0.008161	-0.039088	-0.756685	-0.523982	0.390987	0.628355	-0.748028	0.213596	0.180548	0.407304	0.895269
56605	4.455220	1.690407	9.604968	-0.091570	0.038112	-0.057209	-0.757131	-0.523665	0.390548	0.627722	-0.748733	0.212990	0.180881	0.406417	0.895605
56606	3.522706	2.316090	8.793831	-0.156882	0.052611	-0.057635	-0.757596	-0.523402	0.389998	0.626970	-0.749708	0.211772	0.181543	0.404954	0.896133
56607	3.950963	2.737833	8.954900	-0.229711	0.000959	-0.019626	-0.757739	-0.523215	0.389973	0.626367	-0.750771	0.209779	0.183021	0.403224	0.896612
56608	3.838788	2.239863	9.108265	-0.284908	0.035089	0.000617	-0.757807	-0.523316	0.389703	0.625817	-0.751950	0.207184	0.184614	0.400889	0.897333
56609	3.820548	2.089384	9.096851	-0.337886	-0.020797	0.015328	-0.757690	-0.523304	0.389946	0.625270	-0.753252	0.204081	0.186931	0.398452	0.897938
56610	3.709886	2.517014	8.956378	-0.373450	-0.046699	0.022391	-0.757470	-0.523244	0.390455	0.624704	-0.754654	0.200603	0.189694	0.395870	0.898501
56611	3.823616	2.473168	8.819493	-0.411410	-0.091006	0.056201	-0.756963	-0.523265	0.391410	0.624307	-0.756015	0.196676	0.192998	0.393236	0.898953
56612	4.031964	2.275580	9.202394	-0.387112	-0.102054	0.074299	-0.756308	-0.523383	0.392516	0.624083	-0.757180	0.192869	0.196261	0.390831	0.899296
56613	4.551486	1.724204	9.405651	-0.310616	-0.087448	0.067237	-0.755733	-0.523507	0.393456	0.623942	-0.758071	0.189801	0.198906	0.388933	0.899538
56614	4.219917	1.827288	9.201313	-0.310080	-0.072543	0.060114	-0.755220	-0.523638	0.394266	0.623743	-0.758995	0.186739	0.201462	0.386950	0.899824
56615	4.059186	2.108625	9.142656	-0.280078	-0.065257	0.059848	-0.754732	-0.523796	0.394990	0.623592	-0.759794	0.183973	0.203747	0.385163	0.900076
56616	4.187739	2.064220	9.147517	-0.226477	-0.079551	0.066681	-0.754160	-0.523953	0.395873	0.623598	-0.760351	0.181636	0.205834	0.383848	0.900163
56617	3.922103	2.042852	9.046401	-0.197583	-0.085804	0.073334	-0.753543	-0.524138	0.396803	0.623707	-0.760756	0.179556	0.207758	0.382792	0.900170
56618	3.610203	2.353103	8.960649	-0.181106	-0.110197	0.086823	-0.752778	-0.524333	0.397995	0.623949	-0.761028	0.177547	0.209791	0.381982	0.900043
56619	3.601953	2.739895	8.584157	-0.177065	-0.177159	0.127177	-0.751627	-0.524581	0.399839	0.624496	-0.761069	0.175437	0.212275	0.381561	0.899639
56620	3.995976	1.704567	9.193180	-0.224762	-0.197735	0.158442	-0.750222	-0.524989	0.401938	0.625172	-0.761129	0.172748	0.215236	0.380880	0.899224
56621	4.614881	1.521022	9.514410	-0.154409	-0.192534	0.140173	-0.748945	-0.525278	0.403935	0.625853	-0.761013	0.170785	0.217690	0.380713	0.898704
56622	4.259352	1.710942	9.258226	-0.142288	-0.153225	0.126473	-0.747825	-0.525613	0.405571	0.626455	-0.760925	0.168963	0.219800	0.380427	0.898312
56623	4.432977	1.776707	9.253466	-0.115934	-0.157383	0.129691	-0.746682	-0.525957	0.407229	0.627132	-0.760715	0.167385	0.221748	0.380370	0.897857
56624	4.568597	1.002894	9.577817	-0.113118	-0.123497	0.112865	-0.745706	-0.526302	0.408570	0.627689	-0.760586	0.165878	0.223451	0.380150	0.897527
56625	4.586803	1.260795	9.375189	-0.121598	-0.094239	0.082984	-0.744990	-0.526531	0.409579	0.627998	-0.760643	0.164437	0.224962	0.379719	0.897332
56626	4.377079	1.475531	9.393742	-0.122440	-0.088057	0.074664	-0.744329	-0.526721	0.410536	0.628244	-0.760750	0.163000	0.226460	0.379242	0.897157
56627	4.934717	1.346001	9.394293	-0.093247	-0.058409	0.053042	-0.743879	-0.526859	0.411173	0.628391	-0.760855	0.161936	0.227525	0.378838	0.897058
56628	4.014889	1.666173	9.144971	-0.081066	-0.019063	0.044575	-0.743562	-0.527082	0.411461	0.628504	-0.760962	0.160992	0.228250	0.378313	0.897096
56629	4.278047	1.736983	9.120834	-0.072851	-0.010831	0.047795	-0.743253	-0.527361	0.411661	0.628657	-0.761017	0.160133	0.228834	0.377813	0.897158
56630	3.807628	2.758488	8.720269	-0.003451	-0.056948	0.067626	-0.742704	-0.527617	0.412325	0.629118	-0.760709	0.159790	0.229351	0.378078	0.896914
56631	4.261124	1.297745	9.340662	-0.011970	-0.076666	0.093991	-0.741952	-0.527997	0.413189	0.629752	-0.760290	0.159286	0.230041	0.378389	0.896606
56632	4.102395	1.470624	9.384598	-0.012275	-0.096582	0.074331	-0.741268	-0.528153	0.414218	0.630241	-0.759978	0.158836	0.230907	0.378798	0.896211
56633	4.285502	2.099119	8.935021	0.037008	-0.113066	0.079177	-0.740524	-0.528281	0.415383	0.630877	-0.759452	0.158830	0.231556	0.379674	0.895673
56634	4.635589	1.212117	9.449347	0.015500	-0.100263	0.082437	-0.739777	-0.528482	0.416456	0.631490	-0.758992	0.158595	0.232272	0.380313	0.895216
56635	4.547371	1.418982	9.247807	0.022843	-0.094146	0.059371	-0.739200	-0.528530	0.417420	0.631946	-0.758623	0.158543	0.232869	0.380981	0.894777
56636	4.701210	1.088236	9.490861	0.014706	-0.044912	0.039505	-0.738852	-0.528615	0.417929	0.632238	-0.758393	0.158478	0.233180	0.381322	0.894550
56637	4.489222	1.387469	9.340476	0.025439	-0.039089	0.018091	-0.738663	-0.528559	0.418333	0.632395	-0.758232	0.158621	0.233353	0.381719	0.894336
56638	4.459248	1.492739	9.167286	0.035695	-0.007161	0.004792	-0.738622	-0.528524	0.418450	0.632480	-0.758105	0.158888	0.233253	0.382019	0.894234
56639	4.427430	1.567263	9.214750	0.054125	0.000138	0.001392	-0.738630	-0.528491	0.418477	0.632580	-0.757923	0.159357	0.232955	0.382426	0.894138
56640	4.309139	1.696799	9.164662	0.068053	0.018782	-0.002040	-0.738692	-0.528504	0.418351	0.632690	-0.757709	0.159941	0.232459	0.382834	0.894092
56641	4.358756	1.684159	9.115203	0.079096	0.011694	0.002854	-0.738718	-0.528526	0.418277	0.632859	-0.757422	0.160628	0.231917	0.383369	0.894004
56642	4.286487	1.623808	9.189255	0.052800	0.024285	0.011116	-0.738710	-0.528659	0.418123	0.633029	-0.757196	0.161021	0.231476	0.383632	0.894005
56643	4.101053	1.857111	9.065142	0.062709	0.020016	0.012725	-0.738692	-0.528788	0.417991	0.633233	-0.756920	0.161519	0.230976	0.383999	0.893977
56644	4.165696	1.724491	9.212424	0.072300	0.004130	0.014399	-0.738617	-0.528869	0.418022	0.633472	-0.756601	0.162074	0.230560	0.384516	0.893862
56645	4.265955	1.623122	9.138957	0.079938	-0.002671	0.017673	-0.738516	-0.528948	0.418101	0.633751	-0.756232	0.162705	0.230118	0.385132	0.893711
56646	4.235348	1.701685	9.258356	0.082724	-0.017981	0.017741	-0.738368	-0.528969	0.418334	0.634038	-0.755854	0.163339	0.229799	0.385844	0.893486
56647	4.306628	1.705677	9.157753	0.099106	-0.034468	0.017746	-0.738193	-0.528926	0.418698	0.634361	-0.755410	0.164141	0.229470	0.386773	0.893169
56648	4.404820	1.401543	9.281407	0.084363	-0.038656	0.019481	-0.737988	-0.528879	0.419119	0.634665	-0.755015	0.164782	0.229291	0.387607	0.892853
56649	4.410953	1.475902	9.179326	0.080877	-0.054893	0.008117	-0.737827	-0.528683	0.419648	0.634874	-0.754690	0.165461	0.229228	0.388505	0.892479
56650	4.297389	1.539887	9.248655	0.079445	-0.055499	0.003188	-0.737686	-0.528448	0.420193	0.635046	-0.754400	0.166125	0.229205	0.389390	0.892099
56651	4.359390	1.699269	9.168177	0.080262	-0.069907	0.008202	-0.737491	-0.528193	0.420856	0.635255	-0.754076	0.166797	0.229256	0.390362	0.891661
56652	4.351685	1.794399	9.210921	0.086487	-0.069111	0.004843	-0.737308	-0.527915	0.421524	0.635455	-0.753747	0.167516	0.229288	0.391370	0.891211
56653	4.394796	1.902082	9.081908	0.093065	-0.064768	0.016216	-0.737073	-0.527739	0.422154	0.635753	-0.753329	0.168268	0.229219	0.392411	0.890770
56654	4.470296	1.942969	9.100801	0.107677	-0.039146	0.032248	-0.736785	-0.527784	0.422600	0.636203	-0.752771	0.169060	0.228894	0.393420	0.890409
56655	4.177604	1.876353	9.150651	0.130241	-0.008751	0.046498	-0.736486	-0.528055	0.422783	0.636808	-0.752045	0.170014	0.228175	0.394444	0.890140
56656	4.130219	1.874874	9.269529	0.165034	-0.050556	0.069519	-0.735935	-0.528334	0.423394	0.637662	-0.751060	0.171158	0.227566	0.395944	0.889630
56657	3.816796	1.527091	9.471042	0.258867	-0.083649	0.106577	-0.735082	-0.528757	0.424347	0.638998	-0.749501	0.173000	0.226574	0.398326	0.888820
56658	3.427413	1.152800	10.137103	0.322332	-0.194895	0.097145	-0.734027	-0.528661	0.426289	0.640408	-0.747734	0.175419	0.226014	0.401761	0.887415
56659	3.662669	1.205856	9.998055	0.320969	-0.355055	0.057880	-0.732869	-0.527614	0.429564	0.641523	-0.746164	0.178008	0.226606	0.406032	0.885318
56660	4.804680	1.647911	9.066766	0.338210	-0.361464	0.053963	-0.731711	-0.526498	0.432897	0.642652	-0.744535	0.180734	0.227151	0.410447	0.883140
56661	4.269411	1.390543	9.579776	0.355864	-0.385834	0.045308	-0.730559	-0.525198	0.436407	0.643758	-0.742861	0.183668	0.227728	0.415121	0.880803
56662	4.343374	1.584125	9.329821	0.339793	-0.417219	0.017693	-0.729500	-0.523544	0.440149	0.644629	-0.741386	0.186548	0.228654	0.419819	0.878333
56663	4.599433	1.844888	9.214146	0.325795	-0.495202	0.000656	-0.728377	-0.521413	0.444517	0.645346	-0.740040	0.189394	0.230208	0.424818	0.875519
56664	4.798679	2.015316	9.002203	0.313916	-0.473828	-0.008277	-0.727344	-0.519284	0.448682	0.645978	-0.738778	0.192144	0.231699	0.429593	0.872792
56665	4.690932	2.037693	9.126622	0.240407	-0.477174	-0.044434	-0.726537	-0.516851	0.452779	0.646178	-0.738004	0.194432	0.233660	0.433838	0.870165
56666	4.534887	2.175390	9.174857	0.205662	-0.510826	-0.058066	-0.725720	-0.514153	0.457141	0.646207	-0.737443	0.196453	0.236109	0.437977	0.867426
56667	4.169906	1.881303	9.746969	0.163717	-0.611802	-0.096481	-0.724905	-0.510703	0.462272	0.645861	-0.737250	0.198307	0.239534	0.442317	0.864280
56668	3.917666	1.734802	9.937100	0.151970	-0.868342	-0.131968	-0.723660	-0.505822	0.469531	0.645240	-0.737282	0.200203	0.244910	0.447839	0.859918
56669	3.836334	1.916833	10.190007	0.126988	-1.228971	-0.173005	-0.721733	-0.498953	0.479737	0.644270	-0.737610	0.202106	0.253018	0.454947	0.853818
56670	3.536340	1.989228	10.239050	0.110985	-1.600933	-0.191964	-0.718837	-0.490141	0.492986	0.643141	-0.738087	0.203954	0.263900	0.463669	0.845794
56671	3.302531	2.085734	10.355118	0.202139	-1.993073	-0.179007	-0.714613	-0.479421	0.509395	0.642368	-0.738039	0.206546	0.276931	0.474820	0.835377
56672	3.145163	2.383916	10.526056	0.297725	-2.374127	-0.117339	-0.708620	-0.467082	0.528860	0.642345	-0.737199	0.209596	0.291976	0.488235	0.822421
56673	2.267729	2.582185	11.261462	0.274662	-2.801835	0.068226	-0.699762	-0.453647	0.551849	0.643616	-0.735555	0.211463	0.309986	0.503153	0.806688
56674	0.248400	3.693886	10.293176	-0.057138	-3.648349	0.425264	-0.685247	-0.438086	0.581823	0.646341	-0.733989	0.208573	0.335679	0.518980	0.786117
56675	-0.468819	1.764798	10.650449	-0.392751	-4.793874	1.050614	-0.661506	-0.420429	0.621006	0.651993	-0.731584	0.199222	0.370559	0.536678	0.758065
56676	-0.770677	2.430289	9.651106	-0.339864	-5.529016	1.554591	-0.629766	-0.401497	0.664977	0.660671	-0.727091	0.186688	0.408544	0.556901	0.723155
56677	4.664147	3.458410	9.680944	-0.017147	-6.310655	1.385631	-0.593547	-0.375563	0.711797	0.669039	-0.721835	0.177033	0.447312	0.581298	0.679709
56678	10.084806	2.430628	10.664566	0.339602	-6.293372	1.150375	-0.556586	-0.346419	0.755120	0.677196	-0.715701	0.170815	0.481267	0.606437	0.632943
56679	14.647520	2.926729	12.425946	1.034753	-6.212074	0.790655	-0.520474	-0.313442	0.794268	0.686538	-0.706701	0.170994	0.507713	0.634293	0.583009
56680	17.544252	4.544283	15.527848	1.083041	-5.313595	0.755496	-0.487766	-0.284386	0.825354	0.695916	-0.697481	0.170945	0.527054	0.657758	0.538116
56681	13.146894	5.118761	13.571831	0.634090	-4.910056	0.884624	-0.455239	-0.257739	0.852249	0.703456	-0.690884	0.166820	0.545809	0.675462	0.495825
56682	10.776442	4.515844	12.959782	0.132184	-4.733608	1.043455	-0.421578	-0.232634	0.876444	0.708730	-0.687460	0.158433	0.565663	0.687954	0.454692
56683	8.890481	4.372200	12.629723	-0.121855	-4.596242	1.119481	-0.387176	-0.208430	0.898138	0.712524	-0.685863	0.147992	0.585154	0.697243	0.414061
56684	5.939225	3.736363	11.133729	-0.301226	-4.518699	1.168566	-0.351990	-0.184766	0.917586	0.715016	-0.685710	0.136209	0.604032	0.704033	0.373474
56685	2.858782	3.499663	9.165017	-0.553328	-4.727304	1.301933	-0.313653	-0.160262	0.935916	0.715922	-0.687399	0.122220	0.623761	0.708377	0.330340
56686	2.228819	3.470395	8.783612	-0.736075	-4.779142	1.326762	-0.273921	-0.135490	0.952160	0.715123	-0.690691	0.107446	0.643091	0.710344	0.286087
56687	-3.139686	2.875341	8.314463	-1.032565	-4.485155	1.149025	-0.236457	-0.111579	0.965214	0.711289	-0.696624	0.093721	0.661934	0.708707	0.244087
56688	5.950343	5.218042	12.896274	-1.495786	-5.642818	0.837551	-0.192586	-0.077602	0.978207	0.702981	-0.706424	0.082359	0.684638	0.703522	0.190600
56689	19.388692	5.577937	23.076907	-2.295693	-4.275262	0.346568	-0.160399	-0.050234	0.985773	0.687575	-0.722222	0.075074	0.708176	0.689835	0.150383
56690	16.871650	2.487737	20.427474	-2.337161	-2.214076	0.078043	-0.144055	-0.035725	0.988925	0.670886	-0.738148	0.071061	0.727434	0.673693	0.130301
56691	8.668026	3.743106	15.633368	-2.208440	-0.528390	0.150712	-0.139170	-0.033278	0.989709	0.654837	-0.752815	0.066769	0.742846	0.657391	0.126561
56692	11.217139	3.576162	6.977976	-2.385261	0.788587	0.466313	-0.142174	-0.041970	0.988951	0.637573	-0.768123	0.059061	0.757157	0.638926	0.135967
56693	5.985698	-4.133643	7.971993	-1.785955	2.528630	0.575763	-0.157779	-0.062337	0.985505	0.624818	-0.779119	0.050751	0.764662	0.623769	0.161878
56694	1.895177	-0.466240	9.569111	-0.873053	3.107127	0.261476	-0.180025	-0.083666	0.980097	0.618553	-0.784357	0.046660	0.764842	0.614642	0.192956
56695	0.219461	1.005858	8.160603	-0.580421	3.226907	0.258841	-0.203067	-0.105359	0.973480	0.614587	-0.787679	0.042952	0.762264	0.607010	0.224704
56696	-0.104177	1.945637	6.533333	-0.314954	3.183970	0.238163	-0.225918	-0.126519	0.965896	0.612674	-0.789328	0.039910	0.757359	0.600795	0.255838
56697	1.044714	3.435156	6.576455	-0.217692	3.139443	0.234556	-0.248162	-0.147087	0.957487	0.611557	-0.790331	0.037095	0.751275	0.594763	0.286082
56698	2.784575	4.548494	7.565707	-0.344251	3.268329	0.256782	-0.271173	-0.168483	0.947670	0.609617	-0.791982	0.033636	0.744871	0.586837	0.317474
56699	3.879649	4.637414	8.048299	-0.569362	3.530482	0.239072	-0.295901	-0.190855	0.935958	0.606040	-0.794887	0.029509	0.738349	0.575959	0.350874
56700	4.415765	4.460227	7.883797	-0.761488	3.815587	0.176676	-0.323009	-0.214030	0.921876	0.600960	-0.798885	0.025090	0.731103	0.562115	0.386671
56701	4.529488	3.629031	7.312515	-0.877289	4.092662	0.074421	-0.352312	-0.237250	0.905311	0.594800	-0.803603	0.020877	0.722557	0.545834	0.424235
56702	4.038185	2.810261	6.422807	-0.863113	4.292906	-0.027014	-0.383407	-0.260139	0.886187	0.588479	-0.808327	0.017321	0.711823	0.528144	0.463004
56703	3.690816	2.338569	5.689323	-0.738239	4.383985	-0.134484	-0.415115	-0.281763	0.865037	0.582699	-0.812550	0.014959	0.698671	0.510266	0.501484
56704	3.744431	1.687998	5.026029	-0.563076	4.358473	-0.258686	-0.446873	-0.301568	0.842236	0.577663	-0.816151	0.014268	0.683089	0.492904	0.538920
56705	5.524144	1.841755	4.383024	-0.307951	4.210227	-0.410039	-0.477624	-0.318592	0.818764	0.573653	-0.818943	0.015977	0.665431	0.477317	0.573908
56706	3.539429	1.230629	5.541378	-0.132409	4.209557	-0.437293	-0.507855	-0.334830	0.793708	0.570598	-0.821016	0.018748	0.645369	0.462409	0.608010
56707	4.961157	1.120827	6.006745	0.003883	4.060960	-0.430459	-0.536088	-0.349742	0.768304	0.568336	-0.822498	0.022147	0.624183	0.448528	0.639702
56708	5.517155	0.331717	6.752621	0.141639	3.904195	-0.306459	-0.561895	-0.364521	0.742562	0.567488	-0.822989	0.025414	0.601857	0.435675	0.669295
56709	7.148551	-0.527724	6.909340	0.531789	3.897750	-0.192399	-0.585957	-0.379677	0.715891	0.569478	-0.821442	0.030461	0.576497	0.425533	0.697548
56710	7.971859	-0.129003	7.696871	0.766662	3.866056	-0.069375	-0.608234	-0.395426	0.688251	0.573342	-0.818506	0.036421	0.548936	0.416756	0.724558
56711	9.375116	-0.162865	9.163401	1.010019	3.901798	0.011486	-0.629008	-0.411589	0.659502	0.578767	-0.814316	0.043799	0.519016	0.409248	0.750426
56712	10.769912	-0.967490	9.912066	1.207895	4.052514	0.028421	-0.649322	-0.428289	0.628450	0.584981	-0.809323	0.052855	0.485982	0.401951	0.776052
56713	11.985175	-1.378041	9.534312	1.463519	4.277495	0.080943	-0.668857	-0.445944	0.594782	0.592319	-0.803165	0.063906	0.449209	0.395045	0.801343
56714	12.510684	-1.191770	8.293735	1.709054	4.494198	0.208611	-0.686987	-0.465237	0.558215	0.601022	-0.795551	0.076627	0.408438	0.388141	0.826150
56715	12.254405	-0.347754	7.176818	1.954860	4.592083	0.334853	-0.702723	-0.485521	0.520047	0.610869	-0.786462	0.091198	0.364719	0.381768	0.849255
56716	11.405921	1.630246	6.363038	2.046488	4.498975	0.393077	-0.715795	-0.505643	0.481625	0.620621	-0.776799	0.106835	0.320106	0.375378	0.869841
56717	10.514916	3.629613	6.358989	1.973875	4.220242	0.326108	-0.726381	-0.523826	0.444946	0.628833	-0.767804	0.122660	0.277379	0.368895	0.887117
56718	10.327062	5.205859	6.877227	1.751868	3.784660	0.177074	-0.735100	-0.539016	0.411205	0.634599	-0.760496	0.137582	0.238562	0.362087	0.901100
56719	10.657533	5.979087	7.316373	1.499114	3.371147	-0.037263	-0.742817	-0.550780	0.380610	0.637607	-0.755355	0.151313	0.204156	0.355077	0.912272
56720	10.757419	5.223356	7.455785	1.328248	3.101157	-0.317388	-0.750745	-0.559279	0.351551	0.637688	-0.752486	0.164675	0.172438	0.347809	0.921571
56721	11.509627	3.557365	6.957206	1.327615	2.946155	-0.625871	-0.759377	-0.564681	0.323236	0.635014	-0.751462	0.179061	0.141788	0.341234	0.929223
56722	12.280261	1.596682	5.884218	1.571216	2.823035	-0.946691	-0.768977	-0.567125	0.295033	0.629708	-0.751528	0.196656	0.110197	0.337008	0.935031
56723	14.587043	0.541218	5.851744	1.961440	2.678209	-1.242186	-0.779283	-0.566764	0.267389	0.621895	-0.751997	0.218510	0.077232	0.336569	0.938486
56724	16.924574	-0.419482	5.930208	2.258623	2.652447	-1.515296	-0.790260	-0.564292	0.238881	0.611302	-0.752981	0.243578	0.042423	0.338518	0.940003
56725	17.648059	0.464233	6.392036	2.330435	2.693698	-1.670929	-0.801057	-0.560806	0.209295	0.598548	-0.754496	0.269215	0.006935	0.340930	0.940063
56726	18.991635	1.154704	6.828824	2.075585	2.764439	-1.656281	-0.810609	-0.557688	0.178599	0.584934	-0.756718	0.291943	-0.027664	0.341120	0.939613
56727	20.228750	1.569649	6.311908	1.512359	2.778859	-1.483304	-0.818012	-0.555821	0.148054	0.572168	-0.759879	0.308557	-0.058999	0.337115	0.939613
56728	6.134213	8.254462	7.857492	0.655671	2.314071	-1.113700	-0.822732	-0.555009	0.122787	0.562525	-0.763914	0.316229	-0.081711	0.329242	0.940703
56729	23.674446	-7.620347	-2.174328	-2.201059	-1.422748	0.243041	-0.822376	-0.552210	0.136971	0.566027	-0.769748	0.295131	-0.057541	0.320238	0.945588
56730	11.811075	7.345600	-3.510708	-0.514745	0.826469	0.263831	-0.820415	-0.556813	0.129916	0.568462	-0.769940	0.289900	-0.061393	0.311691	0.948198
56731	22.259411	2.028670	-6.449614	-1.633134	-1.710030	0.708679	-0.817238	-0.556928	0.148170	0.575046	-0.771090	0.273389	-0.038006	0.308628	0.950423
56732	9.116311	6.506722	-0.033982	-2.796938	-0.923724	0.612647	-0.813962	-0.558848	0.158601	0.580743	-0.776096	0.245789	-0.014269	0.292169	0.956260
56733	0.566705	4.153129	12.832717	-2.980839	-1.645656	0.414153	-0.811554	-0.557342	0.175357	0.584043	-0.782316	0.216508	0.016515	0.278124	0.960403
56734	2.507495	-6.591675	13.093065	-2.644252	-1.404423	-0.384659	-0.813395	-0.550453	0.188123	0.580094	-0.791649	0.191786	0.043358	0.265127	0.963238
56735	-1.951956	-4.957486	14.705435	0.115292	-1.283268	-1.836866	-0.823314	-0.532328	0.196930	0.565083	-0.801313	0.196412	0.053247	0.272990	0.960542
56736	-4.008013	-4.536928	7.006890	0.561792	-2.085335	-2.137486	-0.833968	-0.509197	0.212640	0.547675	-0.810892	0.206171	0.067447	0.288398	0.955132
56737	2.171170	-3.380768	5.377897	0.705571	-2.584254	-1.608199	-0.840717	-0.488370	0.233860	0.534712	-0.816841	0.216457	0.085315	0.307026	0.947869
56738	10.080664	-4.515640	13.216852	0.400106	-2.685749	-0.735256	-0.842077	-0.473845	0.257638	0.528872	-0.819143	0.222033	0.105833	0.323227	0.940385
56739	12.845310	-11.232307	15.372243	0.263243	-2.001638	-0.201961	-0.840887	-0.465560	0.275977	0.527435	-0.819254	0.225024	0.121333	0.334779	0.934452
56740	7.342607	-10.934977	14.013773	0.531282	-1.473167	0.057767	-0.838734	-0.460971	0.289881	0.528557	-0.817207	0.229782	0.130970	0.345945	0.929069
56741	6.080483	-6.451657	12.623986	0.630469	-1.368443	0.419656	-0.834674	-0.459535	0.303556	0.532883	-0.813087	0.234362	0.139120	0.357376	0.923541
56742	8.536068	2.535833	13.332665	0.643567	-1.100553	0.485346	-0.830519	-0.459436	0.314893	0.537806	-0.808559	0.238739	0.144925	0.367629	0.918611
56743	8.902464	11.941932	11.942615	0.293095	-0.653411	0.337854	-0.827753	-0.459698	0.321720	0.541001	-0.805950	0.240338	0.148807	0.372992	0.915824
56744	3.757936	14.677516	8.699359	0.072014	-0.482049	0.131219	-0.826319	-0.458902	0.326504	0.542164	-0.805111	0.240529	0.152493	0.375773	0.914079
56745	2.446304	10.334844	7.704242	-0.108221	-0.778921	0.085277	-0.824657	-0.456606	0.333844	0.542662	-0.805157	0.239247	0.159555	0.378461	0.911762
56746	3.619321	2.389550	9.148925	-0.113056	-0.825672	0.154488	-0.822475	-0.454661	0.341786	0.543718	-0.804911	0.237673	0.167047	0.381316	0.909227
56747	4.317363	-0.535996	9.479475	-0.009193	-0.779808	0.222216	-0.819952	-0.453415	0.349417	0.545490	-0.803966	0.236809	0.173547	0.384776	0.906548
56748	3.517251	1.342939	9.787722	0.059541	-0.710440	0.231226	-0.817440	-0.452475	0.356452	0.547457	-0.802718	0.236508	0.179117	0.388473	0.903884
56749	7.815684	6.603763	12.061978	-0.351615	-0.864584	0.373122	-0.813820	-0.452060	0.365155	0.549817	-0.802427	0.231976	0.188144	0.389555	0.901581
56750	6.685864	2.314169	9.504199	-0.302316	-0.321601	0.279144	-0.811674	-0.452995	0.368755	0.551478	-0.802368	0.228204	0.192502	0.388588	0.901079
56751	3.741056	0.009984	10.295957	-0.353711	-0.352139	0.272235	-0.809499	-0.453768	0.372567	0.552958	-0.802535	0.223998	0.197355	0.387340	0.900566
56752	5.642807	0.092849	10.788187	-0.496219	-0.341102	0.235159	-0.807516	-0.454286	0.376220	0.553834	-0.803412	0.218624	0.202942	0.384906	0.900368
56753	4.931536	2.142371	9.820253	-0.581803	-0.160322	0.156342	-0.806336	-0.454884	0.378026	0.553864	-0.804958	0.212784	0.207503	0.380950	0.901010
56754	4.354807	2.004052	9.546958	-0.752719	-0.164339	0.162815	-0.805089	-0.455522	0.379911	0.553560	-0.807094	0.205354	0.213080	0.375632	0.901941
56755	5.162239	0.744175	10.320359	-0.768560	-0.066357	0.128195	-0.804250	-0.456265	0.380793	0.552898	-0.809402	0.197919	0.217912	0.369716	0.903230
56756	4.091566	1.449237	9.589801	-0.729609	-0.059104	0.083522	-0.803658	-0.456673	0.381554	0.551930	-0.811727	0.190977	0.222504	0.364071	0.904403
56757	4.288649	2.030798	9.161650	-0.680246	-0.071872	0.084530	-0.803044	-0.457055	0.382389	0.551042	-0.813829	0.184488	0.226878	0.358864	0.905396
56758	4.163210	1.525247	9.508038	-0.601617	-0.052989	0.077601	-0.802493	-0.457447	0.383076	0.550255	-0.815648	0.178712	0.230704	0.354204	0.906264
56759	3.230518	2.580948	8.657646	-0.450562	-0.053256	0.060149	-0.802052	-0.457705	0.383691	0.549653	-0.816989	0.174386	0.233654	0.350763	0.906847
56760	4.272882	2.829410	9.051003	-0.328247	-0.168857	0.085840	-0.801181	-0.457764	0.385435	0.549534	-0.817774	0.171051	0.236898	0.348853	0.906742
56761	3.633465	0.991818	9.302504	-0.206049	-0.053233	0.060905	-0.800733	-0.458032	0.386048	0.549494	-0.818240	0.168937	0.238502	0.347405	0.906878
56762	3.029973	2.051391	8.923436	-0.118930	-0.186146	0.030743	-0.800116	-0.457585	0.387853	0.549420	-0.818541	0.167712	0.240731	0.347283	0.906335
56763	4.283204	2.184310	9.130994	-0.041373	-0.224982	0.051254	-0.799304	-0.457177	0.390003	0.549691	-0.818479	0.167127	0.242803	0.347967	0.905520
56764	4.902284	1.304016	9.793037	0.010895	-0.166174	0.040474	-0.798674	-0.456878	0.391640	0.550007	-0.818285	0.167041	0.244155	0.348816	0.904829
56765	4.624367	0.975321	9.752658	0.013262	-0.092918	0.016008	-0.798372	-0.456639	0.392534	0.550128	-0.818193	0.167088	0.244869	0.349342	0.904433
56766	4.278936	1.721201	9.347806	-0.051409	-0.071726	0.003912	-0.798172	-0.456369	0.393254	0.549999	-0.818384	0.166580	0.245811	0.349249	0.904214
56767	3.793685	2.193734	8.890011	-0.131115	-0.081158	0.036591	-0.797783	-0.456340	0.394075	0.549929	-0.818703	0.165240	0.247224	0.348539	0.904102
56768	3.810144	2.032834	9.155118	-0.197226	-0.109530	0.064110	-0.797156	-0.456432	0.395236	0.549915	-0.819125	0.163177	0.249268	0.347424	0.903970
56769	4.261879	1.879375	9.250862	-0.214233	-0.123981	0.073705	-0.796453	-0.456561	0.396502	0.549928	-0.819560	0.160939	0.251479	0.346228	0.903817
56770	4.110125	1.711788	9.098949	-0.228442	-0.103747	0.085412	-0.795719	-0.456851	0.397641	0.549995	-0.819988	0.158509	0.253646	0.344829	0.903746
56771	4.152003	1.754440	9.222524	-0.229791	-0.119470	0.090030	-0.794932	-0.457133	0.398890	0.550087	-0.820395	0.156064	0.255905	0.343484	0.903621
56772	4.030687	1.656412	9.121224	-0.218804	-0.117965	0.094994	-0.794103	-0.457456	0.400168	0.550244	-0.820740	0.153681	0.258131	0.342229	0.903464
56773	4.209619	1.444467	9.332748	-0.207919	-0.134877	0.097975	-0.793227	-0.457754	0.401563	0.550444	-0.821030	0.151400	0.260391	0.341132	0.903231
56774	4.098695	1.805300	9.100017	-0.166719	-0.129774	0.094901	-0.792362	-0.458040	0.402942	0.550725	-0.821192	0.149487	0.262422	0.340358	0.902935
56775	4.137325	1.659791	9.287611	-0.143441	-0.144707	0.108031	-0.791398	-0.458390	0.404436	0.551163	-0.821213	0.147746	0.264403	0.339837	0.902553
56776	4.324592	1.654188	9.258930	-0.100225	-0.140381	0.103305	-0.790453	-0.458709	0.405920	0.551678	-0.821108	0.146398	0.266150	0.339658	0.902107
56777	4.188500	1.879146	9.191450	-0.063347	-0.140673	0.103455	-0.789518	-0.459036	0.407367	0.552288	-0.820876	0.145397	0.267655	0.339777	0.901616
56778	4.065806	1.834381	9.039619	-0.042403	-0.131552	0.112058	-0.788543	-0.459456	0.408779	0.553022	-0.820534	0.144533	0.269011	0.340034	0.901116
56779	4.621740	1.356859	9.353559	-0.003653	-0.090924	0.109785	-0.787702	-0.460002	0.409784	0.553839	-0.820070	0.144041	0.269793	0.340416	0.900738
56780	4.258796	1.934025	9.082202	0.025560	-0.153069	0.108454	-0.786684	-0.460317	0.411383	0.554725	-0.819513	0.143802	0.270939	0.341331	0.900047
56781	4.539531	1.079958	9.478786	0.019743	-0.071929	0.096884	-0.785963	-0.460820	0.412197	0.555502	-0.819027	0.143571	0.271440	0.341818	0.899712
56782	4.400557	1.586726	9.155212	0.036491	-0.090794	0.078124	-0.785279	-0.461097	0.413190	0.556179	-0.818571	0.143553	0.272034	0.342537	0.899259
56783	4.472261	1.391441	9.313300	0.017019	-0.084529	0.084845	-0.784589	-0.461457	0.414099	0.556852	-0.818149	0.143346	0.272647	0.343060	0.898874
56784	4.533972	1.003689	9.464540	-0.013729	-0.067644	0.066776	-0.784029	-0.461719	0.414868	0.557302	-0.817917	0.142922	0.273337	0.343262	0.898587
56785	4.626521	0.986776	9.436098	-0.027110	-0.044731	0.047249	-0.783655	-0.461906	0.415364	0.557560	-0.817820	0.142473	0.273884	0.343240	0.898429
56786	4.490387	1.380245	9.306241	-0.013577	-0.029895	0.024276	-0.783434	-0.461950	0.415732	0.557676	-0.817783	0.142225	0.274278	0.343268	0.898298
56787	4.444007	1.323000	9.328082	-0.013265	-0.023012	0.021102	-0.783265	-0.461999	0.415996	0.557767	-0.817759	0.142009	0.274577	0.343260	0.898210
56788	4.483261	1.590732	9.142669	0.006128	-0.002623	0.013290	-0.783180	-0.462046	0.416103	0.557851	-0.817706	0.141984	0.274647	0.343323	0.898164
56789	4.472535	1.499104	9.309419	0.057426	-0.001737	0.013414	-0.783113	-0.462105	0.416165	0.558075	-0.817474	0.142435	0.274385	0.343794	0.898064
56790	4.316335	1.484444	9.212349	0.066246	0.012372	0.003750	-0.783122	-0.462126	0.416125	0.558250	-0.817258	0.142990	0.274002	0.344280	0.897995
56791	4.209118	1.554101	9.240304	0.072460	0.013398	0.005442	-0.783140	-0.462172	0.416039	0.558452	-0.817011	0.143609	0.273537	0.344804	0.897935
56792	4.259313	1.548919	9.140845	0.061270	0.008519	0.003633	-0.783140	-0.462179	0.416033	0.558612	-0.816812	0.144119	0.273212	0.345266	0.897857
56793	4.329506	1.551325	9.261497	0.037935	0.004669	0.015172	-0.783080	-0.462274	0.416040	0.558796	-0.816639	0.144387	0.273008	0.345548	0.897810
56794	4.273296	1.638259	9.265328	0.036363	0.015865	0.005412	-0.783089	-0.462320	0.415970	0.558901	-0.816517	0.144667	0.272764	0.345773	0.897798
56795	4.231447	1.350886	9.132573	0.042908	0.008523	0.015259	-0.783040	-0.462429	0.415942	0.559099	-0.816327	0.144980	0.272502	0.346078	0.897760
56796	4.398471	1.499984	9.135006	0.051288	-0.014312	0.008102	-0.782952	-0.462394	0.416147	0.559266	-0.816140	0.145382	0.272410	0.346564	0.897600
56797	4.435927	1.470205	9.205278	0.084356	0.005283	0.005225	-0.782949	-0.462410	0.416134	0.559498	-0.815852	0.146109	0.271942	0.347222	0.897488
56798	4.282181	1.420578	9.179778	0.089753	0.004391	0.001862	-0.782948	-0.462388	0.416162	0.559721	-0.815560	0.146882	0.271488	0.347935	0.897349
56799	4.349216	1.467571	9.154503	0.101818	-0.000308	0.001758	-0.782949	-0.462356	0.416194	0.559972	-0.815226	0.147779	0.270965	0.348761	0.897187
56800	4.327153	1.630257	9.231131	0.133812	-0.016216	-0.000234	-0.782903	-0.462245	0.416403	0.560296	-0.814788	0.148957	0.270426	0.349928	0.896895
56801	4.239392	1.626545	9.131956	0.170600	0.036633	-0.000906	-0.783020	-0.462321	0.416100	0.560711	-0.814223	0.150481	0.269227	0.351142	0.896781
56802	4.288298	1.659386	9.203709	0.174504	0.031529	0.007266	-0.783061	-0.462439	0.415892	0.561201	-0.813604	0.151992	0.268084	0.352418	0.896623
56803	4.249329	1.706764	9.203923	0.146825	0.037616	0.012313	-0.783105	-0.462627	0.415600	0.561652	-0.813058	0.153248	0.267010	0.353432	0.896544
56804	4.194855	1.669361	9.080162	0.153227	0.042010	0.017333	-0.783117	-0.462864	0.415313	0.562160	-0.812464	0.154526	0.265903	0.354485	0.896458
56805	4.092243	1.671836	9.323866	0.155139	0.011085	0.023451	-0.783027	-0.463048	0.415277	0.562717	-0.811833	0.155810	0.264988	0.355687	0.896252
56806	4.340158	1.523279	9.265929	0.136208	0.001060	0.026593	-0.782878	-0.463216	0.415372	0.563250	-0.811254	0.156897	0.264295	0.356790	0.896019
56807	4.302743	1.636580	9.290690	0.146388	-0.014539	0.031313	-0.782675	-0.463372	0.415578	0.563843	-0.810614	0.158069	0.263629	0.358038	0.895717
56808	4.327700	1.528726	9.308873	0.155310	-0.027286	0.031074	-0.782426	-0.463474	0.415934	0.564460	-0.809942	0.159307	0.263048	0.359425	0.895332
56809	4.444127	1.703608	9.209390	0.148943	-0.031764	0.032638	-0.782171	-0.463579	0.416297	0.565068	-0.809283	0.160496	0.262500	0.360772	0.894951
56810	4.276689	1.674516	9.206758	0.153595	-0.034764	0.035868	-0.781875	-0.463691	0.416728	0.565717	-0.808591	0.161697	0.261985	0.362177	0.894534
56811	4.398462	1.779829	9.153072	0.175512	-0.061926	0.045419	-0.781469	-0.463788	0.417382	0.566493	-0.807771	0.163068	0.261520	0.363877	0.893980
56812	4.218866	1.733679	9.270850	0.203244	-0.056650	0.063615	-0.780958	-0.464042	0.418054	0.567486	-0.806764	0.164596	0.260892	0.365782	0.893386
56813	3.752614	1.525137	9.365769	0.263440	-0.072208	0.088054	-0.780283	-0.464441	0.418871	0.568821	-0.805417	0.166571	0.260004	0.368235	0.892637
56814	2.446434	0.480853	10.758821	0.273018	-0.197543	0.046712	-0.779502	-0.464035	0.420772	0.569860	-0.804220	0.168787	0.260071	0.371351	0.891326
56815	4.089695	1.674543	9.406899	0.407704	-0.471769	0.048089	-0.778010	-0.462611	0.425079	0.571260	-0.802501	0.172203	0.261463	0.376806	0.888625
56816	4.096392	1.448841	9.675328	0.391972	-0.405349	0.041270	-0.776711	-0.461353	0.428805	0.572573	-0.800854	0.175481	0.262451	0.381820	0.886190
56817	4.058979	1.398636	9.701811	0.452657	-0.498775	0.040772	-0.775178	-0.459714	0.433316	0.574042	-0.798954	0.179302	0.263771	0.387732	0.883226
56818	4.480749	1.990915	9.437638	0.504165	-0.559620	0.043531	-0.773446	-0.457822	0.438384	0.575678	-0.796813	0.183532	0.265285	0.394320	0.879850
56819	4.906097	2.048425	9.216871	0.513212	-0.542406	0.038851	-0.771793	-0.455928	0.443244	0.577305	-0.794624	0.187860	0.266562	0.400876	0.876495
56820	4.835092	2.208547	9.282012	0.431159	-0.523200	0.019769	-0.770278	-0.453921	0.447914	0.578576	-0.792824	0.191521	0.268182	0.406676	0.873323
56821	4.295947	2.092501	9.768130	0.294789	-0.599170	-0.027484	-0.768835	-0.451205	0.453108	0.579121	-0.791772	0.194207	0.271131	0.411717	0.870044
56822	4.066699	2.110873	10.044929	0.131175	-0.738655	-0.066898	-0.767199	-0.447567	0.459445	0.578932	-0.791560	0.195628	0.276121	0.416073	0.866395
56823	2.836743	2.062614	10.850152	0.161485	-1.203511	-0.084334	-0.764327	-0.441805	0.469694	0.578700	-0.791288	0.197408	0.284448	0.422696	0.860475
56824	2.871159	2.120326	10.933607	0.259670	-1.844264	-0.074437	-0.759393	-0.433276	0.485379	0.578854	-0.790533	0.199964	0.297069	0.432815	0.851129
56825	2.780075	2.284187	11.214078	0.256914	-2.305344	-0.020180	-0.752489	-0.422954	0.504847	0.579446	-0.789522	0.202231	0.313053	0.444708	0.839186
56826	1.748535	2.246928	11.552211	0.157061	-2.829761	0.138033	-0.742540	-0.411224	0.528705	0.580950	-0.788269	0.202804	0.333364	0.457741	0.824222
56827	-0.116686	4.096221	11.032285	-0.204295	-3.793796	0.505402	-0.726405	-0.397529	0.560630	0.583913	-0.787203	0.198386	0.362466	0.471467	0.803951
56828	-2.254801	1.946879	11.757179	-0.872505	-5.294037	1.115316	-0.699536	-0.380934	0.604598	0.588478	-0.787067	0.184984	0.405393	0.485196	0.774753
56829	-3.992746	1.042013	9.577864	-0.847352	-6.439747	1.883133	-0.660681	-0.363870	0.656582	0.597607	-0.784267	0.166706	0.454276	0.502518	0.735601
56830	3.231446	3.398603	10.299667	-0.095702	-7.488778	1.583945	-0.615289	-0.337613	0.712346	0.607220	-0.779234	0.155173	0.502696	0.528027	0.684459
56831	11.733973	2.960305	12.109175	0.406789	-7.423187	1.217277	-0.568967	-0.306794	0.762990	0.616523	-0.773134	0.148872	0.544220	0.555105	0.629034
56832	20.304335	4.312669	16.495151	1.240160	-6.960190	0.845532	-0.524758	-0.273569	0.806095	0.628051	-0.763639	0.149693	0.574614	0.584821	0.572541
56833	18.204497	5.414724	16.190377	1.138698	-5.705989	0.931313	-0.485443	-0.246539	0.838787	0.639388	-0.754448	0.148292	0.596262	0.608298	0.523876
56834	14.344680	5.352289	15.071342	0.660235	-5.211463	1.103438	-0.446743	-0.222637	0.866518	0.648499	-0.747815	0.142202	0.616336	0.625464	0.478460
56835	10.844065	5.243878	13.775161	0.184518	-4.780086	1.263793	-0.408579	-0.201834	0.890127	0.655025	-0.743994	0.131966	0.635614	0.636974	0.436186
56836	5.804599	4.417721	11.774474	-0.079584	-4.471580	1.353171	-0.370875	-0.183190	0.910436	0.659751	-0.741927	0.119471	0.653591	0.644970	0.396022
56837	0.829691	3.222815	8.937989	-0.324966	-4.683447	1.508326	-0.329848	-0.163980	0.929683	0.662849	-0.741439	0.104399	0.672184	0.650676	0.353256
56838	0.476322	2.581734	8.616198	-0.168838	-4.509538	1.426198	-0.289748	-0.145047	0.946048	0.666087	-0.740365	0.090491	0.687295	0.656370	0.311133
56839	-9.273236	0.153487	4.487940	-0.477495	-4.333535	1.391756	-0.250361	-0.126809	0.959812	0.666497	-0.741637	0.075868	0.702211	0.658706	0.270195
56840	14.625601	4.885368	20.181832	0.129958	-5.718130	1.109491	-0.202485	-0.097125	0.974457	0.669901	-0.739557	0.065488	0.714306	0.666050	0.214813
56841	17.374495	3.178638	21.269500	-1.110282	-3.810335	0.648935	-0.170661	-0.076605	0.982347	0.663071	-0.746384	0.056990	0.728843	0.661092	0.178174
56842	16.189583	3.463247	22.717418	-1.077190	-1.561602	0.246331	-0.157658	-0.068185	0.985137	0.655544	-0.753311	0.052772	0.738516	0.654121	0.163463
56843	5.031981	5.918821	12.788330	-1.090175	0.105360	0.235399	-0.156904	-0.070597	0.985087	0.647798	-0.760254	0.048696	0.745479	0.645778	0.165020
56844	10.896099	6.750216	1.917026	-1.770487	1.688856	0.555389	-0.166109	-0.085648	0.982381	0.635392	-0.771142	0.040206	0.754112	0.630876	0.182514
56845	1.766184	-4.796140	11.253254	-0.968861	3.419163	0.370056	-0.189555	-0.109846	0.975706	0.628715	-0.776862	0.034684	0.754180	0.620015	0.216320
56846	0.838343	3.139163	9.305386	-0.460862	3.801131	-0.065318	-0.218654	-0.132773	0.966727	0.625089	-0.779800	0.034282	0.749302	0.611787	0.253502
56847	-1.962276	2.039500	6.932109	-0.491864	3.713359	-0.110227	-0.247063	-0.154408	0.956618	0.621130	-0.782968	0.034038	0.743746	0.602593	0.289350
56848	-3.062916	2.304313	4.210423	-0.178243	3.561709	-0.295763	-0.275366	-0.173453	0.945562	0.619010	-0.784541	0.036353	0.735527	0.595323	0.323405
56849	-2.490934	4.229142	3.115066	-0.108830	3.337133	-0.431160	-0.302427	-0.189767	0.934091	0.616936	-0.785993	0.040064	0.726586	0.588391	0.354779
56850	-1.463040	5.404837	3.887591	-0.300977	3.153171	-0.452768	-0.328126	-0.204646	0.922200	0.613303	-0.788665	0.043205	0.718465	0.579765	0.384292
56851	0.570393	5.685415	5.746946	-0.549996	3.055067	-0.474084	-0.352863	-0.218393	0.909831	0.607722	-0.792852	0.045381	0.711450	0.568938	0.412490
56852	3.116550	5.239331	7.534717	-0.724797	3.117781	-0.563426	-0.378477	-0.231473	0.896200	0.600498	-0.798218	0.047433	0.704384	0.556119	0.441106
56853	5.800195	4.649735	8.861643	-0.840265	3.355347	-0.718829	-0.406261	-0.244074	0.880556	0.591757	-0.804564	0.050008	0.696258	0.541392	0.471296
56854	7.641208	3.500748	8.986639	-0.885620	3.756433	-0.852383	-0.437365	-0.257234	0.861709	0.582007	-0.811443	0.053172	0.685550	0.524776	0.504609
56855	8.002925	1.955435	8.149934	-0.768039	4.210928	-0.891991	-0.471077	-0.271651	0.839221	0.572708	-0.817792	0.056762	0.670889	0.507368	0.540820
56856	7.532617	0.838198	7.140492	-0.529756	4.564097	-0.843206	-0.506200	-0.287522	0.813076	0.565047	-0.822814	0.060818	0.651524	0.490212	0.578972
56857	7.198407	-0.394326	5.913032	-0.204789	4.745074	-0.724032	-0.540632	-0.304393	0.784259	0.559907	-0.825971	0.065392	0.627870	0.474465	0.616978
56858	7.091574	-1.101464	5.219239	0.159556	4.766009	-0.513185	-0.572908	-0.322461	0.753522	0.557990	-0.826856	0.070400	0.600353	0.460790	0.653642
56859	7.250424	-1.373665	5.310720	0.531269	4.670009	-0.216945	-0.601454	-0.341882	0.722060	0.559785	-0.825184	0.075575	0.569995	0.449653	0.687691
56860	7.620772	-1.219367	5.973812	0.899114	4.505433	0.092238	-0.626001	-0.362727	0.690327	0.565287	-0.820879	0.081288	0.537190	0.441120	0.718916
56861	8.725562	-0.822992	7.365753	1.221103	4.333642	0.360636	-0.646486	-0.384613	0.658884	0.573892	-0.814209	0.087813	0.502696	0.434898	0.747101
56862	10.349053	0.150520	8.916720	1.507867	4.176492	0.545446	-0.663677	-0.407119	0.627524	0.584730	-0.805551	0.095800	0.466501	0.430513	0.772681
56863	11.172919	1.985644	9.891664	1.614856	4.079943	0.649044	-0.678135	-0.429752	0.596193	0.596283	-0.795944	0.104498	0.429628	0.426363	0.796011
56864	11.333264	2.983566	10.064420	1.564779	3.965370	0.684903	-0.690422	-0.451986	0.564823	0.607361	-0.786322	0.113183	0.392976	0.421196	0.817413
56865	11.344065	3.337338	9.688567	1.509321	3.914664	0.626920	-0.701266	-0.473209	0.533198	0.617343	-0.777141	0.122227	0.356531	0.414879	0.837115
56866	11.104845	3.432138	9.078330	1.427673	3.916951	0.495054	-0.711526	-0.493133	0.500550	0.625622	-0.768914	0.131793	0.319888	0.406929	0.855617
56867	11.238131	2.959347	9.463739	1.378020	3.871134	0.354007	-0.720994	-0.511381	0.467608	0.632279	-0.761620	0.141982	0.283533	0.398027	0.872459
56868	12.479004	2.263525	10.308713	1.374958	3.859224	0.229396	-0.729848	-0.528289	0.433858	0.637540	-0.755053	0.153094	0.246708	0.388337	0.887879
56869	12.903923	1.275453	9.874776	1.431654	3.935671	0.164217	-0.737777	-0.544562	0.398920	0.641970	-0.748718	0.165215	0.208708	0.377986	0.901980
56870	12.620296	0.386105	8.955010	1.567375	3.982176	0.173767	-0.744245	-0.560691	0.362940	0.646168	-0.741948	0.178830	0.169014	0.367613	0.914492
56871	11.695412	-0.406653	7.922548	1.757237	3.967802	0.188639	-0.748937	-0.576439	0.326821	0.650154	-0.734531	0.194330	0.128040	0.358025	0.924891
56872	10.897948	-1.353428	7.312325	1.979407	3.839005	0.157972	-0.752074	-0.591167	0.291386	0.653410	-0.726636	0.212263	0.086249	0.350032	0.932759
56873	10.924231	-2.491472	7.290287	2.276728	3.650211	0.020236	-0.754341	-0.603953	0.257314	0.655013	-0.718639	0.233487	0.043900	0.344673	0.937696
56874	11.193400	-1.544219	7.777033	2.558368	3.508796	-0.259955	-0.756868	-0.614110	0.223652	0.653568	-0.711481	0.258156	0.000588	0.341562	0.939859
56875	12.228623	-0.753042	7.867059	2.581243	3.386006	-0.628660	-0.760288	-0.621134	0.190144	0.648236	-0.706614	0.283702	-0.041859	0.338953	0.939872
56876	13.647947	1.446689	7.317678	2.408625	3.227126	-0.955781	-0.764481	-0.625249	0.156944	0.639408	-0.704483	0.307995	-0.082009	0.335808	0.938354
56877	14.621646	4.655540	6.466298	1.817803	2.967083	-1.088161	-0.768472	-0.627417	0.125692	0.629237	-0.705281	0.326557	-0.116240	0.330040	0.936783
56878	14.741843	6.097105	4.915839	0.870848	2.477284	-1.006372	-0.771609	-0.628328	0.099115	0.620324	-0.708802	0.335854	-0.140773	0.320632	0.936685
56879	14.160960	4.804089	3.207798	-0.082291	1.896399	-0.799976	-0.773774	-0.628558	0.078667	0.614238	-0.714122	0.335770	-0.154873	0.308131	0.938653
56880	13.907482	1.766420	1.508772	-0.676416	1.383446	-0.583371	-0.775245	-0.628439	0.063720	0.610689	-0.719903	0.329847	-0.161416	0.294625	0.941882
56881	14.898760	-1.492578	0.587686	-0.798002	0.987283	-0.419154	-0.776223	-0.628221	0.053060	0.608710	-0.724874	0.322537	-0.164163	0.282659	0.945068
56882	4.053998	8.223516	2.995400	-1.052244	0.135661	-0.342788	-0.778118	-0.626068	0.050710	0.607715	-0.729974	0.312762	-0.158793	0.274183	0.948477
56883	19.804725	-8.536134	-5.481188	-1.792119	-1.654603	0.071971	-0.780139	-0.622042	0.066683	0.610881	-0.734447	0.295656	-0.134935	0.271389	0.952964
56884	3.246597	7.524812	2.816335	-2.476591	-1.418239	-0.204696	-0.783146	-0.616708	0.079711	0.612271	-0.742337	0.272140	-0.108659	0.261930	0.958951
56885	7.439598	-1.945893	5.703293	-2.941077	-2.207275	-0.088367	-0.785723	-0.610320	0.100738	0.614225	-0.750492	0.243906	-0.073258	0.253519	0.964552
56886	7.171833	-4.884222	9.137238	-2.185914	-1.994410	-0.408098	-0.789421	-0.602184	0.119114	0.612266	-0.758478	0.223252	-0.044094	0.249170	0.967455
56887	2.839816	0.909480	13.727506	-1.536159	-1.815496	-0.916290	-0.795610	-0.590636	0.134733	0.605468	-0.767795	0.209523	-0.020305	0.248275	0.968477
56888	-10.174281	1.786445	15.916789	-1.485276	-1.313535	-1.172328	-0.802820	-0.578282	0.145151	0.596220	-0.778331	0.196778	-0.000818	0.244519	0.969644
56889	-0.756558	-0.736261	11.777072	-0.373762	-2.327223	-1.451524	-0.811187	-0.561066	0.164866	0.584437	-0.787564	0.195388	0.020217	0.254850	0.966769
56890	0.866682	-2.891685	7.888908	0.441955	-1.642116	-1.705821	-0.820638	-0.543225	0.177370	0.570601	-0.795850	0.202577	0.031115	0.267450	0.963069
56891	2.831058	-0.088779	5.589552	0.749500	-2.343744	-1.701522	-0.829344	-0.523095	0.196366	0.556819	-0.802878	0.212933	0.046273	0.285935	0.957131
56892	7.057489	-1.689428	10.760929	0.496764	-2.351766	-1.492176	-0.836306	-0.504082	0.215625	0.544610	-0.809116	0.220752	0.063189	0.302048	0.951196
56893	9.385564	-4.794603	14.661646	0.230268	-1.990538	-1.252254	-0.841668	-0.487741	0.231741	0.534231	-0.814646	0.225720	0.078694	0.313784	0.946228
56894	7.079603	-8.130261	15.271990	0.097346	-1.605253	-0.734031	-0.844232	-0.476551	0.245297	0.528058	-0.817921	0.228387	0.091796	0.322342	0.942162
56895	5.252005	-11.034774	12.804795	-0.016468	-1.425392	0.035578	-0.842667	-0.472156	0.258808	0.528306	-0.817834	0.228125	0.103951	0.328963	0.938604
56896	5.307230	-9.816932	12.094580	0.092982	-1.270593	0.630795	-0.837960	-0.472989	0.272219	0.533640	-0.814596	0.227293	0.114241	0.335730	0.935005
56897	6.454488	-2.105259	12.513041	0.118000	-1.067807	0.837556	-0.832214	-0.476132	0.284110	0.540737	-0.810250	0.226049	0.122571	0.341750	0.931764
56898	5.188071	4.946117	10.661595	-0.031908	-0.809950	0.726492	-0.827268	-0.479134	0.293357	0.546658	-0.806947	0.223609	0.129585	0.345350	0.929484
56899	3.925615	9.539036	9.246138	-0.001991	-0.729822	0.473390	-0.823720	-0.480371	0.301213	0.550527	-0.804712	0.222168	0.135667	0.348830	0.927314
56900	3.229502	11.123292	8.661622	-0.079850	-0.773900	0.305465	-0.820960	-0.480065	0.309130	0.552899	-0.803556	0.220454	0.142571	0.351902	0.925115
56901	2.848515	9.030348	8.598181	-0.134689	-0.903005	0.212620	-0.818475	-0.478536	0.317964	0.554408	-0.803042	0.218529	0.150765	0.355143	0.922574
56902	3.523592	4.434876	8.761372	-0.120676	-0.988857	0.163939	-0.816034	-0.476268	0.327502	0.555531	-0.802717	0.216864	0.159606	0.358906	0.919626
56903	3.006983	0.563853	8.785229	-0.009437	-0.997201	0.162264	-0.813515	-0.473923	0.337032	0.556801	-0.802010	0.216225	0.167829	0.363562	0.916327
56904	3.035755	0.261304	8.685517	0.091644	-1.094024	0.209246	-0.810467	-0.471536	0.347559	0.558628	-0.800712	0.216324	0.176290	0.369479	0.912363
56905	4.335668	0.752774	9.580659	0.194418	-1.108740	0.184029	-0.807454	-0.468828	0.358075	0.560430	-0.799151	0.217432	0.184217	0.376242	0.908023
56906	7.109510	5.675080	13.059651	0.238559	-1.057266	0.177104	-0.804495	-0.466133	0.368113	0.562238	-0.797470	0.218930	0.191509	0.383095	0.903638
56907	12.925650	5.135638	12.672362	-0.483406	-0.841638	0.359931	-0.800831	-0.465734	0.376512	0.564141	-0.797674	0.213215	0.201032	0.383156	0.901542
56908	4.053956	2.080437	9.553573	0.262164	-0.054206	0.120060	-0.800035	-0.466436	0.377335	0.565610	-0.796126	0.215103	0.200075	0.385514	0.900749
56909	4.052133	0.345412	10.140551	0.035127	-0.472498	0.187002	-0.798037	-0.466051	0.382013	0.567138	-0.795148	0.214698	0.203697	0.387991	0.898872
56910	6.427162	0.739949	10.750163	0.044397	-0.293148	0.113910	-0.796812	-0.465710	0.384974	0.568063	-0.794502	0.214643	0.205901	0.389719	0.897621
56911	3.630331	2.144740	9.135019	-0.085015	-0.143998	0.091588	-0.796009	-0.465831	0.386486	0.568579	-0.794436	0.213517	0.207576	0.389709	0.897240
56912	4.613656	2.537547	9.306322	-0.293585	-0.253650	0.133500	-0.794719	-0.465837	0.389125	0.568987	-0.794990	0.210342	0.211366	0.388570	0.896849
56913	4.747716	1.284957	9.982066	-0.337910	-0.100239	0.108256	-0.793904	-0.466264	0.390274	0.569091	-0.795825	0.206879	0.214130	0.386343	0.897155
56914	5.220068	0.795896	10.466605	-0.378010	-0.077171	0.057412	-0.793414	-0.466351	0.391166	0.568688	-0.797050	0.203239	0.216999	0.383704	0.897598
56915	4.453637	1.113548	9.740952	-0.458603	0.094745	-0.004381	-0.793660	-0.466632	0.390331	0.567616	-0.798850	0.199126	0.218898	0.379597	0.898883
56916	3.889319	2.100376	9.232598	-0.565202	0.067942	0.005050	-0.793774	-0.466872	0.389811	0.566381	-0.800986	0.193994	0.221663	0.374769	0.900230
56917	4.082926	2.427255	8.708600	-0.598752	0.071882	0.035757	-0.793747	-0.467381	0.389257	0.565292	-0.803077	0.188450	0.224526	0.369625	0.901646
56918	3.288361	2.769696	8.512337	-0.576284	0.035445	0.073809	-0.793401	-0.468052	0.389156	0.564548	-0.804873	0.182935	0.227598	0.364838	0.902825
56919	3.614188	2.890854	8.555572	-0.483519	-0.100257	0.104765	-0.792594	-0.468487	0.390276	0.564231	-0.806167	0.178150	0.231167	0.361407	0.903298
56920	3.427659	3.102556	8.729672	-0.321759	-0.207427	0.137761	-0.791326	-0.468793	0.392474	0.564542	-0.806709	0.174680	0.234723	0.359797	0.903023
56921	4.305311	0.802780	9.587682	-0.298776	-0.195649	0.159244	-0.789978	-0.469331	0.394542	0.565057	-0.807063	0.171346	0.238003	0.358298	0.902761
56922	4.149268	0.831329	9.798600	-0.250664	-0.236209	0.109343	-0.788796	-0.469295	0.396942	0.565272	-0.807485	0.168629	0.241388	0.357394	0.902220
56923	4.083055	2.003107	9.069076	-0.147715	-0.216197	0.091605	-0.787767	-0.469217	0.399072	0.565597	-0.807612	0.166922	0.243973	0.357209	0.901598
56924	4.643715	1.855890	9.235099	0.014813	-0.218561	0.087537	-0.786738	-0.469069	0.401269	0.566276	-0.807186	0.166683	0.245713	0.358364	0.900666
56925	4.596738	1.211213	9.585109	0.069605	-0.153004	0.064687	-0.786009	-0.468997	0.402781	0.566917	-0.806661	0.167039	0.246567	0.359638	0.899925
56926	4.548364	1.034227	9.527694	-0.064535	-0.131460	0.055768	-0.785374	-0.468892	0.404139	0.567140	-0.806676	0.166212	0.248074	0.359742	0.899469
56927	4.255624	1.845243	9.262794	-0.109585	-0.092731	0.037398	-0.784944	-0.468815	0.405062	0.567123	-0.806923	0.165066	0.249469	0.359287	0.899265
56928	4.402007	1.871063	9.261854	-0.137051	-0.094775	0.055526	-0.784399	-0.468839	0.406088	0.567157	-0.807200	0.163587	0.251099	0.358633	0.899073
56929	4.515170	1.253066	9.400251	-0.141150	-0.031618	0.045847	-0.784073	-0.469051	0.406474	0.567123	-0.807520	0.162121	0.252192	0.357636	0.899164
56930	4.157792	1.748592	9.065481	-0.153265	-0.053429	0.033956	-0.783751	-0.469052	0.407092	0.566945	-0.807952	0.160583	0.253589	0.356656	0.899160
56931	4.269712	1.664046	9.186917	-0.182065	-0.067694	0.048631	-0.783316	-0.469159	0.407805	0.566825	-0.808401	0.158738	0.255196	0.355496	0.899165
56932	4.435586	1.529349	9.160767	-0.195322	-0.060134	0.048553	-0.782878	-0.469283	0.408503	0.566673	-0.808893	0.156759	0.256871	0.354211	0.899195
56933	4.105175	1.760408	9.044446	-0.187154	-0.048314	0.051936	-0.782473	-0.469488	0.409045	0.566559	-0.809340	0.154854	0.258355	0.352917	0.899279
56934	3.929316	2.050833	8.832544	-0.192063	-0.075536	0.066492	-0.781899	-0.469690	0.409909	0.566536	-0.809740	0.152831	0.260136	0.351727	0.899232
56935	4.837931	1.984953	9.122850	-0.133910	-0.087123	0.079818	-0.781232	-0.469986	0.410840	0.566772	-0.809864	0.151290	0.261621	0.351046	0.899067
56936	3.475342	2.197334	8.788587	-0.093050	-0.077915	0.090019	-0.780508	-0.470386	0.411757	0.567199	-0.809794	0.150060	0.262853	0.350671	0.898854
56937	4.221958	1.857369	8.922294	-0.096692	-0.131352	0.115812	-0.779518	-0.470818	0.413137	0.567809	-0.809617	0.148704	0.264471	0.350500	0.898446
56938	4.063666	1.905639	9.066550	-0.056728	-0.162553	0.132032	-0.778327	-0.471261	0.414873	0.568655	-0.809221	0.147625	0.266154	0.350820	0.897824
56939	4.914788	1.195627	9.572963	-0.033893	-0.180845	0.123417	-0.777155	-0.471580	0.416705	0.569486	-0.808787	0.146798	0.267798	0.351393	0.897111
56940	4.621170	1.112406	9.566352	0.006797	-0.112966	0.084611	-0.776361	-0.471811	0.417922	0.570129	-0.808390	0.146484	0.268731	0.351994	0.896596
56941	4.891199	1.034214	9.434985	0.032348	-0.083421	0.063489	-0.775787	-0.471985	0.418790	0.570671	-0.808006	0.146499	0.269239	0.352643	0.896188
56942	4.696116	0.854131	9.599614	0.058050	-0.038704	0.030989	-0.775515	-0.472010	0.419265	0.571004	-0.807703	0.146871	0.269317	0.353302	0.895905
56943	4.420368	1.536847	9.202946	0.066331	-0.023109	0.003002	-0.775448	-0.471908	0.419504	0.571167	-0.807483	0.147443	0.269163	0.353941	0.895699
56944	4.478827	1.386078	9.294124	0.060303	-0.020660	-0.000293	-0.775385	-0.471777	0.419768	0.571295	-0.807298	0.147960	0.269074	0.354538	0.895490
56945	4.403871	1.604126	9.054227	0.079927	-0.012212	-0.003496	-0.775385	-0.471660	0.419899	0.571444	-0.807059	0.148682	0.268757	0.355235	0.895309
56946	4.357932	1.486217	9.220653	0.093305	-0.016324	-0.011873	-0.775399	-0.471451	0.420108	0.571571	-0.806811	0.149543	0.268445	0.356077	0.895068
56947	4.373665	1.550438	9.073232	0.084498	-0.015138	-0.010211	-0.775430	-0.471269	0.420255	0.571680	-0.806586	0.150333	0.268124	0.356824	0.894866
56948	4.372122	1.695629	9.147584	0.099937	-0.008550	-0.008490	-0.775446	-0.471115	0.420398	0.571850	-0.806296	0.151239	0.267715	0.357682	0.894646
56949	4.303007	1.737700	9.171421	0.106368	-0.004180	-0.005141	-0.775477	-0.471013	0.420455	0.572057	-0.805969	0.152203	0.267183	0.358554	0.894456
56950	4.427554	1.629723	9.140946	0.097182	-0.021476	0.001269	-0.775403	-0.470891	0.420728	0.572294	-0.805641	0.153043	0.266889	0.359450	0.894184
56951	4.483303	1.518744	9.111516	0.082978	-0.007681	0.004759	-0.775368	-0.470857	0.420830	0.572514	-0.805349	0.153756	0.266518	0.360149	0.894014
56952	4.486811	1.453908	9.230955	0.062132	-0.001650	0.003193	-0.775336	-0.470821	0.420929	0.572673	-0.805137	0.154275	0.266270	0.360670	0.893878
56953	4.500528	1.579707	9.232566	0.040699	0.017389	0.003444	-0.775376	-0.470866	0.420806	0.572769	-0.805003	0.154615	0.265947	0.360910	0.893877
56954	4.428796	1.582492	9.160457	0.030884	0.024805	0.003541	-0.775412	-0.470929	0.420669	0.572847	-0.804901	0.154853	0.265672	0.361054	0.893901
56955	4.391609	1.618746	9.186336	0.036885	0.022413	0.001841	-0.775474	-0.470979	0.420498	0.572921	-0.804789	0.155166	0.265332	0.361239	0.893927
56956	4.407195	1.604610	9.186381	0.024672	0.023805	0.003534	-0.775508	-0.471038	0.420369	0.572983	-0.804710	0.155348	0.265100	0.361338	0.893955
56957	4.331220	1.711823	9.018826	0.035123	0.038185	0.008645	-0.775573	-0.471201	0.420068	0.573104	-0.804571	0.155617	0.264648	0.361435	0.894050
56958	4.224706	1.745928	9.118829	0.053354	0.034372	0.008570	-0.775605	-0.471338	0.419853	0.573280	-0.804365	0.156035	0.264170	0.361715	0.894079
56959	4.156705	1.645431	9.142037	0.067390	0.005476	0.013230	-0.775557	-0.471419	0.419851	0.573523	-0.804087	0.156573	0.263786	0.362225	0.893985
56960	4.362649	1.692099	9.066095	0.081616	-0.008368	0.014721	-0.775442	-0.471452	0.420027	0.573821	-0.803749	0.157217	0.263476	0.362933	0.893789
56961	4.330931	1.661989	9.210764	0.092441	0.001243	0.014774	-0.775373	-0.471530	0.420066	0.574140	-0.803373	0.157973	0.262981	0.363665	0.893638
56962	4.418334	1.654761	9.183455	0.091451	-0.015820	0.019585	-0.775211	-0.471574	0.420316	0.574501	-0.802974	0.158685	0.262672	0.364486	0.893394
56963	4.441576	1.506521	9.276889	0.098669	-0.009415	0.019602	-0.775087	-0.471652	0.420458	0.574874	-0.802551	0.159475	0.262223	0.365317	0.893187
56964	4.438009	1.619384	9.105760	0.079038	0.005438	0.018092	-0.775008	-0.471727	0.420520	0.575157	-0.802226	0.160086	0.261835	0.365933	0.893049
56965	4.354952	1.535899	9.251103	0.076232	0.004238	0.018076	-0.774928	-0.471842	0.420537	0.575458	-0.801891	0.160682	0.261408	0.366518	0.892933
56966	4.453894	1.717629	9.177579	0.073425	0.003039	0.018063	-0.774828	-0.471935	0.420617	0.575751	-0.801569	0.161240	0.261059	0.367104	0.892795
56967	4.349925	1.720704	9.202255	0.069679	0.019634	0.026470	-0.774740	-0.472174	0.420511	0.576100	-0.801217	0.161741	0.260550	0.367564	0.892754
56968	4.295582	1.777928	9.129173	0.086709	0.006976	0.029642	-0.774579	-0.472382	0.420574	0.576524	-0.800785	0.162368	0.260090	0.368238	0.892611
56969	4.158556	1.782491	9.153014	0.115799	-0.010548	0.042695	-0.774319	-0.472639	0.420764	0.577118	-0.800185	0.163213	0.259548	0.369209	0.892367
56970	4.178098	1.844931	9.198605	0.161724	-0.032516	0.058959	-0.773899	-0.472912	0.421229	0.577940	-0.799351	0.164388	0.258969	0.370665	0.891932
56971	4.234561	1.877933	9.192900	0.228808	-0.045563	0.096685	-0.773236	-0.473469	0.421822	0.579241	-0.798072	0.166012	0.258043	0.372703	0.891351
56972	3.635764	1.331322	9.704583	0.256812	-0.056848	0.093047	-0.772548	-0.473933	0.422560	0.580581	-0.796706	0.167886	0.257089	0.375031	0.890650
56973	2.882344	0.721847	10.755322	0.314771	-0.255977	0.062141	-0.771542	-0.473417	0.424969	0.581832	-0.795255	0.170415	0.257281	0.378743	0.889022
56974	4.931142	2.094297	8.606778	0.361627	-0.350490	0.072813	-0.770226	-0.472575	0.428282	0.583266	-0.793580	0.173296	0.257980	0.383279	0.886873
56975	4.150304	1.342709	9.801048	0.401988	-0.296912	0.083485	-0.768986	-0.472047	0.431083	0.584907	-0.791666	0.176490	0.257962	0.387862	0.884883
56976	4.314828	1.377589	9.436695	0.418753	-0.376024	0.067834	-0.767610	-0.471061	0.434599	0.586479	-0.789739	0.179873	0.258488	0.392956	0.882479
56977	4.467680	1.674041	9.308332	0.429782	-0.426105	0.052140	-0.766215	-0.469740	0.438473	0.587954	-0.787823	0.183425	0.259277	0.398345	0.879828
56978	4.638411	1.916798	9.102433	0.415714	-0.440425	0.038409	-0.764854	-0.468192	0.442486	0.589270	-0.786024	0.186887	0.260306	0.403685	0.877086
56979	4.446870	1.885122	9.278568	0.404507	-0.473446	0.023090	-0.763496	-0.466403	0.446700	0.590464	-0.784303	0.190319	0.261583	0.409068	0.874207
56980	4.751639	2.045786	9.259120	0.370577	-0.536072	-0.008066	-0.762133	-0.464072	0.451433	0.591340	-0.782847	0.193566	0.263574	0.414473	0.871057
56981	4.687411	1.989417	9.332336	0.213307	-0.574740	-0.053999	-0.760942	-0.461208	0.456349	0.591456	-0.782238	0.195659	0.266734	0.418796	0.868022
56982	3.894354	1.985159	10.200546	0.027225	-0.715256	-0.114563	-0.759684	-0.457249	0.462389	0.590629	-0.782678	0.196398	0.272099	0.422301	0.864652
56983	3.284575	1.993730	10.573636	0.032958	-1.129276	-0.132871	-0.757361	-0.451363	0.471886	0.589674	-0.783172	0.197297	0.280515	0.427684	0.859301
56984	3.122804	2.189415	10.444286	0.159032	-1.608639	-0.122574	-0.753479	-0.443387	0.485466	0.589160	-0.783071	0.199223	0.291822	0.436128	0.851254
56985	2.954216	2.112619	10.638987	0.269355	-2.022351	-0.075376	-0.747896	-0.433819	0.502447	0.589361	-0.782242	0.201870	0.305461	0.447100	0.840711
56986	2.690955	2.198706	10.915009	0.317404	-2.442155	-0.012232	-0.740299	-0.422592	0.522851	0.590234	-0.780884	0.204560	0.321841	0.460040	0.827516
56987	1.812174	2.416509	11.165769	0.171122	-3.002212	0.159911	-0.729386	-0.409772	0.547799	0.591939	-0.779449	0.205104	0.342936	0.473863	0.811079
56988	-0.516886	3.268656	10.309911	-0.239056	-4.118816	0.505731	-0.711621	-0.393809	0.581816	0.594666	-0.778617	0.200321	0.374123	0.488539	0.788265
56989	-0.856428	0.950089	10.715546	-0.550187	-5.317741	1.169116	-0.683666	-0.376439	0.625215	0.600615	-0.776876	0.189013	0.414563	0.504735	0.757218
56990	-0.453693	2.281385	9.655000	-0.243295	-6.071875	1.495062	-0.648158	-0.356702	0.672796	0.609477	-0.772678	0.177500	0.456540	0.525102	0.718219
56991	6.332459	3.133888	10.484779	0.237287	-6.765446	1.203703	-0.608483	-0.329537	0.721910	0.618137	-0.767299	0.170759	0.497649	0.550143	0.670587
56992	10.759421	2.922235	10.956966	0.694821	-6.624723	0.940385	-0.568493	-0.299352	0.766293	0.627215	-0.760458	0.168242	0.532370	0.576275	0.620073
56993	19.072273	4.475536	15.813067	1.342064	-6.246764	0.682046	-0.530105	-0.267574	0.804607	0.638246	-0.750628	0.170877	0.558239	0.604120	0.568690
56994	16.737370	5.034631	14.899166	1.069157	-5.139167	0.779927	-0.495887	-0.241756	0.834056	0.648286	-0.742099	0.170336	0.577773	0.625174	0.524725
56995	13.397652	5.242917	13.994682	0.579724	-4.758691	0.950236	-0.461740	-0.218611	0.859655	0.656206	-0.736270	0.165229	0.596817	0.640403	0.483419
56996	9.825281	4.576837	12.493061	0.087243	-4.441884	1.115017	-0.427454	-0.198093	0.882067	0.661657	-0.733413	0.155934	0.616030	0.650280	0.444570
56997	6.276979	3.851251	10.760514	-0.069210	-4.319913	1.169965	-0.392680	-0.178351	0.902216	0.665988	-0.731690	0.145223	0.634241	0.657891	0.406100
56998	3.060248	2.836865	9.066800	-0.182208	-4.404253	1.267718	-0.355901	-0.158473	0.920989	0.669525	-0.730788	0.132981	0.651974	0.663954	0.366190
56999	1.835921	2.718809	7.477730	-0.272495	-4.534417	1.326914	-0.317043	-0.137898	0.938333	0.672158	-0.730663	0.119729	0.669094	0.668667	0.324341
57000	-2.195545	2.346966	6.139221	-0.418387	-4.369276	1.285556	-0.278837	-0.117995	0.953062	0.673120	-0.731849	0.106327	0.684952	0.671173	0.283491
57001	-3.956988	1.392710	5.395755	-0.693744	-5.192797	1.345683	-0.233742	-0.092943	0.967846	0.671725	-0.735112	0.091633	0.702959	0.671545	0.234259
57002	16.704999	5.877996	21.493411	-0.871232	-5.091915	1.120931	-0.190047	-0.067048	0.979483	0.667868	-0.740083	0.078925	0.719607	0.669165	0.185430
57003	20.780020	2.828447	21.467275	-1.660590	-3.335909	0.757650	-0.160737	-0.050491	0.985705	0.657078	-0.750686	0.068696	0.736486	0.658727	0.153839
57004	12.112763	3.284451	19.131757	-1.612795	-1.163055	0.553325	-0.148565	-0.047077	0.987781	0.645922	-0.760972	0.060881	0.748808	0.647074	0.143462
57005	6.981749	4.004006	12.748733	-1.785078	0.298304	0.527653	-0.147438	-0.052978	0.987651	0.633210	-0.772156	0.053108	0.759807	0.633221	0.147391
57006	10.543524	3.216433	2.492596	-1.872602	1.527656	0.710209	-0.154764	-0.068070	0.985604	0.619931	-0.783465	0.043235	0.769243	0.617697	0.163451
57007	1.983722	-4.648699	7.421329	-1.036803	3.009134	0.541451	-0.174594	-0.090705	0.980454	0.612810	-0.789405	0.036095	0.770702	0.607134	0.193410
57008	-0.174523	0.826418	7.463129	-0.336612	3.236631	0.149711	-0.198660	-0.111463	0.973710	0.610466	-0.791314	0.033966	0.766724	0.601164	0.225247
57009	-1.450148	1.490309	6.209233	-0.092121	3.057051	0.090991	-0.221452	-0.130441	0.966408	0.609923	-0.791778	0.032893	0.760890	0.596718	0.254900
57010	-1.170164	2.827823	5.329884	0.135503	2.858508	-0.020132	-0.243331	-0.147323	0.958690	0.610864	-0.791027	0.033489	0.753416	0.593778	0.282475
57011	0.282853	4.636330	5.833842	0.096675	2.766869	-0.103440	-0.264702	-0.162833	0.950483	0.611295	-0.790638	0.034792	0.745823	0.590235	0.308822
57012	1.863355	5.612312	6.658232	-0.153871	2.839896	-0.154418	-0.286850	-0.178311	0.941234	0.609687	-0.791833	0.035800	0.738917	0.584128	0.335852
57013	3.432197	5.783356	7.597648	-0.478048	3.030959	-0.236111	-0.310587	-0.193947	0.930548	0.605431	-0.795067	0.036364	0.732795	0.574677	0.364360
57014	4.480295	5.620309	7.886906	-0.786091	3.294110	-0.370095	-0.336993	-0.209734	0.917849	0.598455	-0.800309	0.036850	0.726834	0.561710	0.395215
57015	4.731581	4.604485	7.465916	-1.006303	3.551186	-0.521961	-0.365790	-0.225155	0.903052	0.589303	-0.807042	0.037485	0.720361	0.545883	0.427892
57016	4.706374	3.516729	6.951854	-1.066063	3.742917	-0.658786	-0.396596	-0.239941	0.886081	0.579113	-0.814329	0.038691	0.712278	0.528486	0.461912
57017	4.869482	2.244976	6.632280	-0.997885	3.850662	-0.757975	-0.428181	-0.253701	0.867350	0.568892	-0.821411	0.040578	0.702156	0.510803	0.496041
57018	5.432814	1.400433	6.520921	-0.831206	3.902978	-0.788540	-0.459936	-0.266820	0.846916	0.559561	-0.827666	0.043126	0.689457	0.493736	0.529976
57019	6.131867	0.833553	6.623936	-0.619877	3.917494	-0.727659	-0.490693	-0.279762	0.825199	0.551836	-0.832692	0.045840	0.674312	0.477868	0.562979
57020	6.820591	0.090502	6.679439	-0.368765	3.905964	-0.544058	-0.519817	-0.293624	0.802231	0.546586	-0.836016	0.048179	0.656531	0.463533	0.595066
57021	7.368913	-0.434281	6.876101	-0.080497	3.867197	-0.283454	-0.546365	-0.308891	0.778506	0.544515	-0.837263	0.049942	0.636387	0.451195	0.625647
57022	7.925799	-0.768939	7.308175	0.241879	3.805799	0.005910	-0.570258	-0.325935	0.754037	0.546012	-0.836194	0.051487	0.613740	0.441074	0.654811
57023	8.750730	-0.633985	7.864793	0.553403	3.750661	0.271971	-0.591323	-0.344551	0.729123	0.550880	-0.832889	0.053180	0.588955	0.433106	0.682313
57024	9.844173	0.105571	8.743401	0.834612	3.736597	0.489757	-0.610235	-0.364695	0.703286	0.558575	-0.827594	0.055515	0.561789	0.426715	0.708736
57025	10.656414	0.941802	9.561454	1.010747	3.781826	0.633797	-0.627366	-0.385900	0.676383	0.567990	-0.820958	0.058442	0.532729	0.420843	0.734228
57026	10.904134	0.835255	9.724566	1.119178	3.867221	0.650367	-0.643760	-0.407380	0.647777	0.577863	-0.813735	0.062531	0.501645	0.414581	0.759260
57027	11.048135	0.411991	9.315100	1.255716	3.922685	0.621587	-0.659178	-0.428510	0.617951	0.587967	-0.805998	0.068286	0.468806	0.408347	0.783246
57028	11.725381	0.078119	9.499926	1.458530	3.946505	0.593743	-0.673576	-0.449278	0.586894	0.598456	-0.797511	0.076337	0.433758	0.402649	0.806057
57029	12.762774	0.130263	9.581486	1.657064	4.007304	0.559240	-0.686846	-0.469699	0.554640	0.609102	-0.788341	0.086681	0.396531	0.397369	0.827563
57030	12.859456	0.510968	9.123518	1.818489	4.081946	0.521998	-0.699116	-0.489897	0.520805	0.619520	-0.778695	0.099146	0.356977	0.391963	0.847899
57031	12.122388	1.311630	8.560454	1.877395	4.101039	0.528428	-0.709638	-0.509896	0.486231	0.629527	-0.768780	0.112576	0.316402	0.385984	0.866548
57032	10.902472	1.687838	7.945725	1.843995	4.051571	0.567824	-0.718114	-0.529720	0.451341	0.638987	-0.758813	0.126086	0.275693	0.378945	0.883399
57033	9.756471	1.863059	7.544074	1.769824	3.896422	0.605755	-0.724208	-0.548861	0.417462	0.647851	-0.748938	0.139212	0.236245	0.371271	0.897968
57034	9.137054	1.851075	7.379744	1.691676	3.696668	0.628955	-0.728211	-0.567100	0.384845	0.656042	-0.739256	0.152021	0.198288	0.363178	0.910376
57035	8.745833	1.499113	7.065783	1.684224	3.488483	0.618135	-0.730433	-0.584135	0.353913	0.663549	-0.729678	0.165147	0.161774	0.355467	0.920583
57036	9.276028	1.284748	7.102599	1.725178	3.291943	0.550874	-0.731562	-0.599694	0.324323	0.670006	-0.720385	0.179268	0.126131	0.348444	0.928804
57037	10.409856	0.589933	7.285086	1.816740	3.137647	0.417738	-0.732181	-0.613483	0.295886	0.675004	-0.711608	0.194891	0.090992	0.342420	0.935130
57038	12.417143	-0.251894	7.492413	1.975938	3.045159	0.259448	-0.732707	-0.625645	0.267785	0.678297	-0.703324	0.212717	0.055254	0.337497	0.939704
57039	14.507692	-1.468279	7.420830	2.163041	3.033981	0.120324	-0.733033	-0.636626	0.239521	0.679945	-0.695341	0.232754	0.018371	0.333478	0.942579
57040	15.667044	-2.822197	6.879845	2.452726	3.123546	-0.053187	-0.733395	-0.646596	0.209870	0.679471	-0.687581	0.256032	-0.021247	0.330373	0.943611
57041	16.160542	-3.468561	5.701565	2.762165	3.205848	-0.283792	-0.733989	-0.655177	0.178893	0.676190	-0.680364	0.282616	-0.063451	0.328403	0.942404
57042	15.977076	-2.472987	4.554781	2.934357	3.174826	-0.556332	-0.735073	-0.661784	0.147343	0.669566	-0.674443	0.311138	-0.106532	0.327365	0.938873
57043	3.547523	11.997095	7.499880	2.528056	2.539422	-0.825529	-0.737438	-0.664505	0.120910	0.660320	-0.671675	0.335902	-0.141996	0.327546	0.934104
57044	27.168612	-11.583872	-0.746272	0.222669	-0.320452	-0.140410	-0.738852	-0.662470	0.123415	0.658930	-0.671905	0.338163	-0.141100	0.331175	0.932960
57045	8.075352	12.816927	2.619018	0.313847	0.937062	-0.531815	-0.741012	-0.661935	0.112885	0.654513	-0.674430	0.341698	-0.150048	0.327087	0.933006
57046	19.053623	3.365581	-2.768200	-1.042959	-0.830575	-0.241453	-0.743814	-0.657553	0.119858	0.654189	-0.679448	0.332244	-0.137031	0.325537	0.935547
57047	17.760946	0.823238	-1.764814	-2.429239	-1.158686	-0.193792	-0.746559	-0.652468	0.130135	0.655750	-0.688552	0.309659	-0.112438	0.316515	0.941900
57048	0.289914	-3.632550	-0.751597	-3.153287	-0.746127	0.094032	-0.746704	-0.650781	0.137540	0.659563	-0.697665	0.279714	-0.086076	0.299580	0.950180
57049	-0.694238	-3.201496	14.017278	-2.934197	-1.763236	0.001118	-0.747956	-0.645548	0.154369	0.661592	-0.706348	0.251732	-0.053467	0.290413	0.955406
57050	5.059468	-4.209694	12.669770	-2.285142	-1.404416	-0.306606	-0.750574	-0.639299	0.167140	0.660202	-0.714890	0.230359	-0.027782	0.283248	0.958644
57051	-2.625737	-2.743006	13.772616	-1.102754	-1.134489	-0.522341	-0.754265	-0.632299	0.176867	0.656461	-0.721364	0.220662	-0.011939	0.282544	0.959180
57052	-1.898384	-5.812042	3.380521	-0.268271	-1.858403	-0.511547	-0.757707	-0.623214	0.193608	0.652583	-0.725369	0.219033	0.003933	0.292309	0.956316
57053	0.003843	-4.045485	6.421922	0.564359	-2.117494	-0.447083	-0.760428	-0.613557	0.212833	0.649216	-0.726469	0.225304	0.016379	0.309502	0.950758
57054	6.491872	-6.937004	12.254225	0.667025	-2.444317	-0.197668	-0.761152	-0.604270	0.235598	0.647846	-0.725568	0.232048	0.030722	0.329255	0.943741
57055	7.231801	-9.154177	13.722700	0.820666	-2.049007	0.026620	-0.760268	-0.597487	0.254952	0.648312	-0.722665	0.239683	0.041038	0.347512	0.936777
57056	6.243952	-6.136926	12.996159	0.869952	-1.895907	0.365530	-0.757043	-0.593318	0.273604	0.651460	-0.717421	0.246795	0.049861	0.365076	0.929641
57057	7.949861	1.696478	13.243485	0.783025	-1.712296	0.514615	-0.752782	-0.590567	0.290774	0.655734	-0.711488	0.252580	0.057716	0.380808	0.922851
57058	8.458318	9.241034	12.226566	0.597825	-1.453465	0.411595	-0.749193	-0.587811	0.305268	0.659174	-0.706784	0.256801	0.064808	0.393618	0.916987
57059	6.716613	12.464519	11.084467	0.412628	-1.173447	0.169426	-0.747302	-0.584287	0.316462	0.660690	-0.704181	0.260035	0.070911	0.403408	0.912268
57060	5.853800	9.700850	9.558534	0.179597	-1.114582	0.125553	-0.745646	-0.580580	0.327015	0.661744	-0.702747	0.261230	0.078144	0.411185	0.908196
57061	3.703403	4.384168	8.413116	0.185121	-1.072823	0.145754	-0.743829	-0.577108	0.337141	0.662949	-0.701170	0.262411	0.084953	0.418696	0.904144
57062	4.183219	2.193674	9.731931	0.132184	-1.168904	0.208019	-0.741413	-0.573572	0.348311	0.664594	-0.699441	0.262865	0.092851	0.426377	0.899767
57063	5.657303	1.273435	10.545381	0.114300	-1.062314	0.285827	-0.738509	-0.570959	0.358622	0.666787	-0.697349	0.262869	0.099997	0.433256	0.895706
57064	8.197714	5.320694	12.909051	-0.217445	-1.013341	0.437729	-0.734526	-0.569542	0.368908	0.669767	-0.695826	0.259305	0.109011	0.437549	0.892562
57065	6.887841	1.784754	9.706729	-0.296752	-0.571065	0.356108	-0.731520	-0.569472	0.374940	0.672012	-0.695133	0.255323	0.115234	0.438738	0.891196
57066	5.085030	0.700216	10.504648	-0.320424	-0.537228	0.318052	-0.728742	-0.569267	0.380618	0.673939	-0.694755	0.251241	0.121413	0.439603	0.889948
57067	5.872592	-0.580304	11.109082	-0.254076	-0.385261	0.258157	-0.726546	-0.569322	0.384712	0.675471	-0.694438	0.247983	0.125976	0.440033	0.889101
