// General information: 
//  MT Manager version: 2022.2.0 
//  XDA version: 2022.2.0 build 7381 rev 124627 built on 2023-07-19
// Device information: 
//  DeviceId: 00B4CAF0
//  ProductCode: MTW2-3A7G6
//  Firmware Version: 4.6.0
//  Hardware Version: 2.0.0
// Device settings: 
//  Filter Profile: human(46.1)
//  Option Flags: Orientation Smoother Disabled, Position/Velocity Smoother Disabled, Continuous Zero Rotation Update Disabled, AHS Disabled, ICC Disabled
// Coordinate system: ENU
PacketCounter	Acc_X	Acc_Y	Acc_Z	Gyr_X	Gyr_Y	Gyr_Z	Mat[1][1]	Mat[2][1]	Mat[3][1]	Mat[1][2]	Mat[2][2]	Mat[3][2]	Mat[1][3]	Mat[2][3]	Mat[3][3]
19851	5.901123	-0.350553	9.332406	-0.099270	0.103971	0.074342	0.473281	0.723232	0.502932	-0.841463	0.540101	0.015172	-0.260662	-0.430379	0.864193
19852	5.952704	-0.591402	8.466604	0.001883	0.226896	0.050390	0.473545	0.724385	0.501020	-0.841632	0.539844	0.014961	-0.259635	-0.428759	0.865306
19853	5.389845	0.198119	9.176074	0.089183	0.244640	0.047036	0.473800	0.725663	0.498926	-0.842064	0.539155	0.015486	-0.257761	-0.427465	0.866506
19854	5.246106	-0.903578	9.052803	-0.120239	0.244813	0.134979	0.473529	0.727254	0.496862	-0.842221	0.538956	0.013803	-0.257748	-0.425004	0.867720
19855	5.284252	-1.678935	8.297956	0.027084	0.216068	0.214066	0.472299	0.729299	0.495032	-0.843282	0.537316	0.012964	-0.256534	-0.423574	0.868778
19856	5.530649	-1.277892	8.714285	0.172225	0.223936	0.370610	0.469791	0.732142	0.493218	-0.845390	0.534001	0.012554	-0.254188	-0.422860	0.869815
19857	5.779243	-2.053591	8.562849	0.112095	0.172921	0.551853	0.465575	0.735783	0.491796	-0.848234	0.529512	0.010798	-0.252466	-0.422185	0.870644
19858	5.833537	-2.552325	8.432996	0.226542	0.180824	0.768141	0.459603	0.740471	0.490374	-0.852251	0.523056	0.008950	-0.249866	-0.422036	0.871466
19859	5.961031	-3.030582	8.571444	0.284477	0.158504	1.047530	0.451060	0.746549	0.489090	-0.857706	0.514101	0.006287	-0.246748	-0.422332	0.872211
19860	6.112378	-3.486220	8.376361	0.369576	0.134456	1.337490	0.439963	0.753826	0.488036	-0.864489	0.502644	0.002945	-0.243089	-0.423197	0.872818
19861	6.178611	-3.691229	8.162172	0.595667	0.139950	1.624665	0.426205	0.762442	0.486858	-0.872936	0.487835	0.000213	-0.237344	-0.425086	0.873481
19862	6.148737	-3.030725	8.193173	0.826827	0.152976	1.888676	0.410255	0.771963	0.485555	-0.882585	0.470149	-0.001755	-0.229638	-0.427824	0.874204
19863	5.994949	-2.588738	8.196417	0.898160	0.130452	2.107883	0.391856	0.782198	0.484370	-0.893045	0.449948	-0.004136	-0.221177	-0.430944	0.874853
19864	5.805826	-1.832389	8.245182	1.027998	0.121965	2.286171	0.371952	0.792562	0.483216	-0.903785	0.427942	-0.006220	-0.211718	-0.434410	0.875479
19865	5.590282	-0.993823	8.330543	1.116866	0.091532	2.390069	0.350431	0.802883	0.482263	-0.914707	0.404038	-0.007991	-0.201269	-0.438329	0.875990
19866	5.684421	-0.089694	8.508156	1.162625	0.070962	2.426259	0.328540	0.812561	0.481462	-0.925067	0.379684	-0.009543	-0.190557	-0.442250	0.876415
19867	5.238075	0.845931	8.376805	1.200124	0.093514	2.399241	0.306424	0.821767	0.480419	-0.934888	0.354786	-0.010574	-0.179135	-0.445898	0.876975
19868	4.709503	1.467729	8.497184	1.118203	0.040013	2.283701	0.285348	0.829661	0.479833	-0.943441	0.331329	-0.011842	-0.168807	-0.449315	0.877280
19869	4.432745	2.238824	8.620762	1.107694	0.012449	2.099985	0.265501	0.836420	0.479489	-0.951023	0.308878	-0.012210	-0.158316	-0.452764	0.877463
19870	3.733488	3.041853	8.539665	1.089154	-0.017587	1.844098	0.248469	0.841690	0.479397	-0.957212	0.289156	-0.011560	-0.148350	-0.456012	0.877522
19871	2.582593	3.807224	8.405200	1.023748	-0.110355	1.529643	0.233656	0.845455	0.480219	-0.962357	0.271605	-0.009932	-0.138827	-0.459822	0.877092
19872	2.803108	5.059233	9.395883	0.958991	-0.296027	1.075497	0.223450	0.846808	0.482687	-0.965925	0.258736	-0.006761	-0.130614	-0.464729	0.875767
19873	3.638560	7.083939	9.606331	0.963476	-0.267369	0.480815	0.218491	0.846764	0.485028	-0.968192	0.250207	-0.000670	-0.121924	-0.469454	0.874498
19874	3.177207	8.980380	9.737715	0.669217	-0.248983	-0.155968	0.220139	0.845098	0.487185	-0.968513	0.248892	0.005889	-0.116280	-0.473142	0.873279
19875	4.641222	4.088492	10.941728	-1.093016	-0.531377	-0.099098	0.220478	0.842311	0.491835	-0.966948	0.254953	-0.003170	-0.128065	-0.474880	0.870682
19876	5.542923	-4.459397	10.923878	-2.791596	-0.777601	0.078173	0.218824	0.838763	0.498591	-0.963068	0.267812	-0.027857	-0.156894	-0.474081	0.866390
19877	7.720644	-6.058052	3.920171	0.205405	-0.262893	-0.394008	0.222235	0.836434	0.500988	-0.962508	0.270180	-0.024122	-0.155533	-0.476844	0.865118
19878	3.646098	0.809989	11.530527	2.367507	0.300302	-0.675498	0.229371	0.835987	0.498512	-0.964322	0.264730	-0.000248	-0.132179	-0.480670	0.866883
19879	3.792089	2.686508	11.196605	-0.440429	-0.258945	-0.880944	0.237535	0.832348	0.500773	-0.961661	0.274242	0.000325	-0.137063	-0.481651	0.865578
19880	3.254799	-3.660671	10.721214	-2.530665	-0.603721	-0.812294	0.244516	0.827085	0.506105	-0.955869	0.293274	-0.017461	-0.162870	-0.479500	0.862295
19881	4.771956	-5.659291	5.378299	-0.415138	-0.483480	-1.174269	0.254948	0.821227	0.510478	-0.952235	0.304992	-0.015080	-0.168076	-0.482250	0.859759
19882	4.692115	0.310588	10.168084	1.782309	-0.101616	-1.529740	0.269421	0.815985	0.511449	-0.951038	0.308968	0.008048	-0.151455	-0.488576	0.859276
19883	4.340973	4.007416	11.554548	-0.033185	-0.316911	-1.645482	0.284579	0.809216	0.513988	-0.946415	0.322546	0.016188	-0.152686	-0.491053	0.857645
19884	4.742390	-0.164960	10.330241	-2.473725	-0.631988	-1.628762	0.298934	0.800617	0.519280	-0.937545	0.347847	0.003413	-0.177897	-0.487868	0.854598
19885	5.049530	-3.457162	6.705055	-1.829453	-0.579564	-1.864469	0.315271	0.791065	0.524233	-0.928375	0.371637	-0.002478	-0.196785	-0.485904	0.851571
19886	5.299776	-1.183446	8.183448	-0.045425	-0.282854	-2.104110	0.334218	0.781646	0.526619	-0.921423	0.388474	0.008179	-0.198185	-0.487973	0.850062
19887	5.019066	1.571252	10.161062	-0.469838	-0.362591	-2.198088	0.353677	0.771099	0.529452	-0.912900	0.407878	0.015785	-0.203780	-0.488920	0.848193
19888	5.347552	0.453266	9.172645	-1.745239	-0.532859	-2.231720	0.372832	0.759064	0.533683	-0.901048	0.433528	0.012861	-0.221604	-0.485670	0.845587
19889	5.364390	-1.398083	7.800073	-1.633826	-0.517194	-2.324624	0.392468	0.746161	0.537785	-0.888375	0.458975	0.011510	-0.238241	-0.482271	0.843004
19890	5.955277	-0.169250	8.178961	-1.037452	-0.463227	-2.428313	0.412808	0.732455	0.541386	-0.876031	0.481993	0.015875	-0.249316	-0.480824	0.840624
19891	6.255490	1.212699	8.542265	-1.255039	-0.473436	-2.447166	0.432894	0.718071	0.544955	-0.862449	0.505801	0.018622	-0.262267	-0.478058	0.838258
19892	6.604923	0.690388	7.999583	-1.568362	-0.464436	-2.388577	0.452096	0.703435	0.548441	-0.847606	0.530303	0.018535	-0.277802	-0.473241	0.835984
19893	6.440037	0.581711	7.855245	-1.408976	-0.395484	-2.302487	0.470341	0.689073	0.551324	-0.832949	0.553009	0.019421	-0.291504	-0.468359	0.834065
19894	6.361844	1.538600	8.228045	-1.310074	-0.331686	-2.182812	0.487419	0.675160	0.553698	-0.818546	0.574073	0.020560	-0.303982	-0.463248	0.832464
19895	6.306995	1.195020	8.002466	-1.403279	-0.310196	-2.018732	0.502857	0.661912	0.555884	-0.804166	0.594066	0.020078	-0.316942	-0.457120	0.831017
19896	6.436039	1.184024	7.718030	-1.183938	-0.215476	-1.826818	0.516780	0.649843	0.557353	-0.790977	0.611505	0.020415	-0.327557	-0.451404	0.830025
19897	6.467377	1.604307	7.945567	-1.042887	-0.159650	-1.631425	0.529076	0.638995	0.558358	-0.778953	0.626735	0.020854	-0.336617	-0.445968	0.829338
19898	6.535262	1.343216	7.756190	-0.926085	-0.087049	-1.400298	0.539667	0.629650	0.558839	-0.768246	0.639810	0.021010	-0.344322	-0.440664	0.829010
19899	6.633395	1.581262	7.714542	-0.717246	-0.006641	-1.160634	0.548528	0.622103	0.558664	-0.759411	0.650254	0.021539	-0.349874	-0.436070	0.829115
19900	6.600524	1.555474	7.764428	-0.565223	0.077343	-0.903326	0.555687	0.616420	0.557888	-0.752354	0.658395	0.021915	-0.353801	-0.431907	0.829627
19901	6.493664	1.476847	7.845133	-0.391499	0.148914	-0.644214	0.561064	0.612769	0.556526	-0.747336	0.664074	0.022245	-0.355943	-0.428393	0.830532
19902	6.370647	1.483071	7.933985	-0.217711	0.214378	-0.389112	0.564800	0.610976	0.554715	-0.744277	0.667488	0.022623	-0.356443	-0.425639	0.831733
19903	6.259656	1.496612	7.994613	-0.061704	0.279907	-0.141711	0.566868	0.611186	0.552370	-0.743224	0.668651	0.022884	-0.355356	-0.423507	0.833285
19904	5.968697	1.677263	8.443453	0.067498	0.336279	0.052456	0.567747	0.612829	0.549639	-0.743659	0.668157	0.023187	-0.353035	-0.421909	0.835080
19905	5.724347	1.159579	8.728718	-0.098186	0.347476	0.118899	0.568105	0.615053	0.546778	-0.743957	0.667875	0.021705	-0.351830	-0.419110	0.836996
19906	5.752995	-0.000330	8.289923	-0.143021	0.359435	0.141456	0.568398	0.617360	0.543866	-0.744150	0.667720	0.019766	-0.350947	-0.415953	0.838939
19907	5.593066	0.104557	8.701815	-0.003953	0.374090	0.122048	0.568816	0.619694	0.540765	-0.744799	0.667017	0.019061	-0.348887	-0.413604	0.840958
19908	5.373841	-0.291934	8.742849	-0.086993	0.351539	0.107174	0.569324	0.621722	0.537896	-0.745003	0.666824	0.017790	-0.347621	-0.410862	0.842824
19909	5.299577	-0.326356	8.729207	-0.019047	0.331929	0.073811	0.569943	0.623543	0.535126	-0.745326	0.666478	0.017223	-0.345910	-0.408659	0.844597
19910	5.345265	-0.196463	8.876073	-0.018334	0.281524	0.048619	0.570632	0.624888	0.532818	-0.745443	0.666357	0.016845	-0.344521	-0.406798	0.846062
19911	5.231210	0.015742	8.827799	-0.006779	0.263560	0.030736	0.571327	0.626130	0.530609	-0.745563	0.666228	0.016613	-0.343104	-0.405095	0.847454
19912	5.254612	-0.019175	8.767911	-0.009227	0.219025	0.014436	0.572047	0.626999	0.528804	-0.745521	0.666278	0.016485	-0.341995	-0.403665	0.848584
19913	5.220387	0.166493	8.823532	0.007003	0.189677	0.002427	0.572695	0.627748	0.527212	-0.745527	0.666270	0.016521	-0.340895	-0.402512	0.849573
19914	5.176105	0.148784	8.830680	0.004216	0.149598	-0.001317	0.573290	0.628221	0.526001	-0.745441	0.666365	0.016594	-0.340084	-0.401616	0.850322
19915	5.230140	0.206516	8.852630	0.023336	0.115048	0.003475	0.573673	0.628674	0.525041	-0.745508	0.666286	0.016764	-0.339288	-0.401039	0.850912
19916	5.308699	0.296709	8.855957	0.024518	0.092881	0.004024	0.574031	0.628961	0.524306	-0.745526	0.666261	0.016981	-0.338644	-0.400631	0.851361
19917	5.309872	0.260379	8.767482	0.016077	0.076855	0.010686	0.574230	0.629308	0.523671	-0.745610	0.666165	0.017050	-0.338121	-0.400245	0.851750
19918	5.341180	0.203496	8.746988	0.023855	0.064696	0.010063	0.574448	0.629515	0.523184	-0.745655	0.666109	0.017230	-0.337651	-0.400012	0.852046
19919	5.344017	0.196385	8.709460	0.025720	0.052207	0.008801	0.574577	0.629750	0.522758	-0.745761	0.665987	0.017392	-0.337198	-0.399846	0.852303
19920	5.346892	0.184848	8.731087	0.027851	0.047412	0.004756	0.574773	0.629862	0.522408	-0.745795	0.665942	0.017632	-0.336788	-0.399744	0.852513
19921	5.358368	0.164732	8.711735	0.027828	0.037177	0.004351	0.574884	0.630008	0.522110	-0.745882	0.665839	0.017835	-0.336405	-0.399686	0.852692
19922	5.207394	0.067061	8.823573	0.029511	0.028422	-0.005642	0.575095	0.629970	0.521923	-0.745857	0.665859	0.018140	-0.336099	-0.399712	0.852800
19923	5.464972	0.195137	8.657683	0.057712	0.007961	-0.020646	0.575294	0.629832	0.521870	-0.745901	0.665794	0.018729	-0.335662	-0.400037	0.852820
19924	5.388990	0.316702	8.706127	0.041752	0.011792	-0.016160	0.575527	0.629655	0.521827	-0.745856	0.665831	0.019196	-0.335362	-0.400256	0.852835
19925	5.401800	0.327974	8.737559	0.044965	0.020043	-0.010157	0.575689	0.629635	0.521672	-0.745916	0.665751	0.019621	-0.334950	-0.400420	0.852920
19926	5.437288	0.375247	8.692278	0.038654	0.017722	-0.011732	0.575910	0.629510	0.521579	-0.745885	0.665774	0.020037	-0.334640	-0.400578	0.852967
19927	5.406232	0.360488	8.691428	0.030258	0.022174	-0.004243	0.576034	0.629538	0.521408	-0.745929	0.665715	0.020306	-0.334325	-0.400631	0.853066
19928	5.426248	0.360952	8.682874	0.024572	0.028942	-0.001735	0.576209	0.629551	0.521200	-0.745926	0.665712	0.020547	-0.334034	-0.400616	0.853187
19929	5.401593	0.331344	8.701638	0.018351	0.029182	-0.004242	0.576357	0.629607	0.520969	-0.745930	0.665702	0.020715	-0.333768	-0.400546	0.853324
19930	5.347406	0.350719	8.703694	0.022247	0.028620	0.004151	0.576490	0.629646	0.520773	-0.745945	0.665680	0.020906	-0.333505	-0.400520	0.853439
19931	5.367432	0.316153	8.702724	0.008387	0.025671	-0.000414	0.576598	0.629713	0.520572	-0.745938	0.665685	0.020969	-0.333333	-0.400405	0.853560
19932	5.379528	0.324013	8.734700	0.015157	0.022313	0.000754	0.576741	0.629689	0.520444	-0.745900	0.665723	0.021121	-0.333172	-0.400380	0.853635
19933	5.377955	0.291384	8.743160	0.011358	0.016588	0.002057	0.576800	0.629737	0.520321	-0.745917	0.665701	0.021196	-0.333030	-0.400342	0.853708
19934	5.347188	0.307794	8.734673	0.010967	0.014597	0.001143	0.576903	0.629711	0.520238	-0.745887	0.665732	0.021308	-0.332921	-0.400331	0.853755
19935	5.361089	0.319848	8.706498	0.007646	0.013427	0.002421	0.576948	0.629748	0.520143	-0.745894	0.665723	0.021350	-0.332826	-0.400289	0.853813
19936	5.381362	0.347447	8.749410	0.004188	0.007717	-0.000395	0.577050	0.629653	0.520144	-0.745813	0.665811	0.021420	-0.332830	-0.400290	0.853810
19937	5.381911	0.284962	8.705098	0.008420	0.007172	0.003883	0.577065	0.629675	0.520102	-0.745831	0.665789	0.021461	-0.332765	-0.400292	0.853835
19938	5.366154	0.307177	8.726847	-0.004775	0.005056	0.008058	0.577091	0.629646	0.520108	-0.745777	0.665852	0.021399	-0.332841	-0.400234	0.853832
19939	5.402720	0.349652	8.681156	0.002342	0.011951	0.005472	0.577109	0.629697	0.520026	-0.745784	0.665845	0.021380	-0.332794	-0.400165	0.853883
19940	5.393857	0.324265	8.729708	-0.007619	0.008441	0.009307	0.577137	0.629688	0.520006	-0.745727	0.665911	0.021290	-0.332872	-0.400070	0.853897
19941	5.377824	0.311887	8.759187	-0.004857	0.012731	0.009356	0.577129	0.629768	0.519918	-0.745733	0.665908	0.021189	-0.332874	-0.399949	0.853953
19942	5.384796	0.301860	8.719405	-0.008091	0.014125	0.009692	0.577187	0.629752	0.519872	-0.745654	0.665999	0.021096	-0.332949	-0.399822	0.853983
19943	5.390673	0.320730	8.731805	-0.011413	0.012956	0.010968	0.577167	0.629844	0.519783	-0.745647	0.666012	0.020931	-0.332998	-0.399655	0.854042
19944	5.367403	0.287864	8.749759	-0.004859	0.012731	0.009353	0.577211	0.629850	0.519728	-0.745598	0.666069	0.020864	-0.333034	-0.399551	0.854077
19945	5.352110	0.346830	8.704759	-0.019699	0.010328	0.011171	0.577181	0.629932	0.519661	-0.745564	0.666114	0.020627	-0.333160	-0.399347	0.854123
19946	5.307003	0.281466	8.739732	-0.015215	0.007232	0.012268	0.577187	0.629924	0.519664	-0.745493	0.666200	0.020462	-0.333311	-0.399216	0.854126
19947	5.394699	0.300668	8.753045	-0.007242	0.000194	0.009851	0.577134	0.629957	0.519683	-0.745493	0.666203	0.020338	-0.333403	-0.399158	0.854117
19948	5.416635	0.364285	8.728569	-0.017591	0.004936	0.013125	0.577116	0.629963	0.519695	-0.745432	0.666277	0.020147	-0.333569	-0.399025	0.854114
19949	5.409095	0.307616	8.724807	-0.025654	0.009411	0.016477	0.577044	0.630077	0.519637	-0.745409	0.666313	0.019832	-0.333745	-0.398786	0.854157
19950	5.401260	0.250733	8.721199	-0.020995	0.011442	0.015695	0.577032	0.630121	0.519598	-0.745347	0.666388	0.019600	-0.333904	-0.398590	0.854186
19951	5.414193	0.321992	8.737888	-0.025826	0.014523	0.018709	0.576960	0.630270	0.519496	-0.745336	0.666410	0.019271	-0.334051	-0.398318	0.854255
19952	5.406800	0.269196	8.675027	-0.030225	0.020186	0.016663	0.576988	0.630327	0.519396	-0.745223	0.666546	0.018950	-0.334256	-0.398000	0.854324
19953	5.411939	0.286044	8.688004	-0.025822	0.024763	0.019061	0.576949	0.630519	0.519207	-0.745214	0.666566	0.018620	-0.334345	-0.397663	0.854446
19954	5.365290	0.253080	8.716336	-0.030399	0.025298	0.018889	0.576968	0.630625	0.519057	-0.745126	0.666673	0.018290	-0.334507	-0.397316	0.854544
19955	5.348139	0.238214	8.746459	-0.026309	0.020209	0.019073	0.576913	0.630798	0.518907	-0.745115	0.666694	0.017955	-0.334626	-0.397004	0.854642
19956	5.375811	0.286976	8.742136	-0.022429	0.018257	0.016471	0.576933	0.630841	0.518832	-0.745029	0.666797	0.017711	-0.334783	-0.396763	0.854693
19957	5.382684	0.274988	8.702510	-0.028525	0.012804	0.017676	0.576864	0.630976	0.518745	-0.745003	0.666836	0.017365	-0.334961	-0.396484	0.854752
19958	5.366211	0.293884	8.724845	-0.027747	0.016784	0.019497	0.576853	0.631047	0.518672	-0.744923	0.666932	0.017055	-0.335157	-0.396209	0.854803
19959	5.357949	0.236208	8.721324	-0.032506	0.012193	0.021196	0.576756	0.631202	0.518591	-0.744904	0.666964	0.016656	-0.335368	-0.395907	0.854860
19960	5.334675	0.234674	8.731765	-0.029224	0.011392	0.014895	0.576758	0.631227	0.518559	-0.744797	0.667091	0.016357	-0.335601	-0.395655	0.854885
19961	5.355994	0.229211	8.722711	-0.027588	0.011677	0.017240	0.576688	0.631354	0.518481	-0.744771	0.667128	0.016021	-0.335778	-0.395389	0.854939
19962	5.355406	0.259850	8.715856	-0.024578	0.003181	0.013751	0.576665	0.631360	0.518500	-0.744684	0.667231	0.015758	-0.336010	-0.395206	0.854932
19963	5.348056	0.236718	8.704368	-0.025528	0.004311	0.014162	0.576594	0.631437	0.518485	-0.744647	0.667280	0.015456	-0.336215	-0.395000	0.854947
19964	5.311395	0.195807	8.690810	-0.019356	0.002089	0.011653	0.576586	0.631410	0.518527	-0.744558	0.667383	0.015255	-0.336424	-0.394869	0.854925
19965	5.369060	0.292193	8.739907	-0.021829	-0.002772	0.013434	0.576497	0.631454	0.518572	-0.744529	0.667422	0.014988	-0.336642	-0.394733	0.854902
19966	5.355157	0.181638	8.730833	-0.023170	-0.003631	0.012931	0.576449	0.631438	0.518644	-0.744453	0.667512	0.014744	-0.336892	-0.394605	0.854863
19967	5.310967	0.217164	8.742875	-0.018894	-0.003595	0.011252	0.576373	0.631465	0.518696	-0.744421	0.667553	0.014513	-0.337093	-0.394493	0.854835
19968	5.356221	0.211022	8.723031	-0.012256	-0.011502	0.008350	0.576338	0.631377	0.518843	-0.744347	0.667638	0.014387	-0.337315	-0.394491	0.854749
19969	5.357313	0.175714	8.729632	-0.013988	-0.014349	0.006932	0.576258	0.631332	0.518986	-0.744307	0.667686	0.014221	-0.337542	-0.394480	0.854664
19970	5.387949	0.192501	8.730906	-0.007423	-0.014584	0.005340	0.576239	0.631194	0.519175	-0.744224	0.667781	0.014161	-0.337757	-0.394542	0.854551
19971	5.426657	0.201012	8.691669	-0.003403	-0.012007	0.006843	0.576168	0.631158	0.519298	-0.744218	0.667788	0.014086	-0.337891	-0.394587	0.854477
19972	5.383141	0.204513	8.710535	-0.005692	-0.011736	0.006756	0.576151	0.631048	0.519451	-0.744147	0.667869	0.014022	-0.338077	-0.394626	0.854385
19973	5.413517	0.221735	8.711953	-0.005991	-0.011159	0.004906	0.576097	0.631002	0.519567	-0.744121	0.667899	0.013935	-0.338225	-0.394648	0.854316
19974	5.407308	0.234608	8.692428	-0.002918	-0.007453	0.006824	0.576091	0.630910	0.519684	-0.744063	0.667965	0.013898	-0.338363	-0.394684	0.854245
19975	5.422284	0.274173	8.715509	-0.005001	-0.010326	0.009518	0.576006	0.630898	0.519794	-0.744067	0.667963	0.013795	-0.338499	-0.394708	0.854180
19976	5.437820	0.217226	8.700995	-0.003935	0.001349	0.008554	0.576017	0.630847	0.519843	-0.744015	0.668022	0.013745	-0.338595	-0.394688	0.854151
19977	5.394230	0.191786	8.668244	-0.005575	0.001069	0.006204	0.575995	0.630858	0.519854	-0.743998	0.668043	0.013655	-0.338670	-0.394636	0.854146
19978	5.408332	0.197481	8.699088	-0.004977	-0.000087	0.009900	0.575974	0.630843	0.519896	-0.743975	0.668069	0.013586	-0.338756	-0.394615	0.854121
19979	5.422219	0.236943	8.722862	-0.004696	0.007611	0.007104	0.575967	0.630885	0.519852	-0.743966	0.668081	0.013499	-0.338787	-0.394528	0.854150
19980	5.407497	0.229723	8.692440	0.000180	0.006490	0.009124	0.576003	0.630841	0.519865	-0.743914	0.668139	0.013479	-0.338839	-0.394499	0.854142
19981	5.369332	0.185986	8.738588	-0.006037	0.006753	0.006602	0.575997	0.630877	0.519829	-0.743898	0.668159	0.013383	-0.338885	-0.394408	0.854166
19982	5.399022	0.174779	8.688735	0.005594	0.010526	0.005169	0.576073	0.630828	0.519804	-0.743847	0.668215	0.013431	-0.338868	-0.394392	0.854180
19983	5.353632	0.179191	8.708751	0.002912	0.008810	0.004166	0.576092	0.630856	0.519749	-0.743847	0.668215	0.013424	-0.338835	-0.394348	0.854213
19984	5.403621	0.190507	8.760945	0.009291	0.003440	0.004441	0.576142	0.630782	0.519783	-0.743814	0.668250	0.013511	-0.338823	-0.394406	0.854191
19985	5.359999	0.200135	8.720966	0.004970	0.001444	0.001089	0.576159	0.630760	0.519791	-0.743804	0.668261	0.013537	-0.338817	-0.394422	0.854186
19986	5.389292	0.252571	8.715835	0.012228	0.002616	0.002264	0.576210	0.630690	0.519819	-0.743785	0.668279	0.013658	-0.338770	-0.394504	0.854167
19987	5.397097	0.210860	8.682680	0.007352	0.003738	0.000242	0.576242	0.630671	0.519808	-0.743778	0.668287	0.013710	-0.338734	-0.394521	0.854173
19988	5.410878	0.218085	8.713685	0.008991	0.004019	0.002591	0.576333	0.630538	0.519867	-0.743695	0.668377	0.013809	-0.338760	-0.394581	0.854136
19989	5.374014	0.214221	8.692893	0.006797	0.006857	0.001571	0.576365	0.630541	0.519829	-0.743693	0.668378	0.013849	-0.338710	-0.394575	0.854158
19990	5.409661	0.219473	8.714405	0.012510	0.010314	-0.000537	0.576472	0.630471	0.519794	-0.743647	0.668426	0.013984	-0.338628	-0.394605	0.854177
19991	5.394687	0.180203	8.691316	0.010776	0.007468	-0.001954	0.576532	0.630452	0.519751	-0.743638	0.668434	0.014076	-0.338545	-0.394622	0.854202
19992	5.393775	0.248613	8.677428	0.010450	0.017682	0.002533	0.576639	0.630446	0.519639	-0.743608	0.668466	0.014167	-0.338429	-0.394577	0.854269
19993	5.384398	0.224541	8.725913	0.012414	0.007749	0.000394	0.576683	0.630444	0.519593	-0.743618	0.668453	0.014261	-0.338332	-0.394603	0.854295
19994	5.377353	0.176039	8.662457	0.001554	0.016229	-0.000993	0.576832	0.630356	0.519534	-0.743505	0.668578	0.014312	-0.338328	-0.394531	0.854330
19995	5.366901	0.282370	8.741556	0.023486	0.014640	0.000286	0.576900	0.630380	0.519430	-0.743551	0.668522	0.014501	-0.338109	-0.394588	0.854390
19996	5.396055	0.205129	8.706532	0.004993	0.011684	0.001460	0.577003	0.630301	0.519411	-0.743480	0.668599	0.014578	-0.338089	-0.394583	0.854400
19997	5.364486	0.250484	8.750211	0.010705	0.015141	-0.000651	0.577080	0.630321	0.519302	-0.743478	0.668599	0.014663	-0.337963	-0.394552	0.854465
19998	5.400644	0.226845	8.719808	0.008416	0.015413	-0.000739	0.577196	0.630285	0.519217	-0.743431	0.668649	0.014765	-0.337868	-0.394524	0.854515
19999	5.383983	0.249872	8.742167	0.008156	0.017956	0.002435	0.577259	0.630336	0.519084	-0.743438	0.668640	0.014812	-0.337744	-0.394458	0.854595
20000	5.360121	0.252853	8.752818	0.012433	0.017989	0.000759	0.577378	0.630316	0.518976	-0.743407	0.668672	0.014936	-0.337611	-0.394434	0.854658
20001	5.344350	0.213338	8.730253	0.009493	0.018815	0.002931	0.577440	0.630374	0.518836	-0.743422	0.668655	0.014992	-0.337472	-0.394371	0.854742
20002	5.387617	0.243162	8.704411	0.004729	0.014228	0.004628	0.577509	0.630376	0.518757	-0.743398	0.668681	0.015033	-0.337406	-0.394324	0.854789
20003	5.393134	0.230060	8.724370	0.009195	0.019392	0.001079	0.577587	0.630424	0.518612	-0.743401	0.668676	0.015096	-0.337267	-0.394256	0.854876
20004	5.369228	0.232983	8.735034	0.008804	0.017403	0.000165	0.577711	0.630392	0.518513	-0.743349	0.668732	0.015193	-0.337168	-0.394213	0.854935
20005	5.367610	0.267516	8.728760	0.010923	0.022240	0.002488	0.577789	0.630460	0.518344	-0.743365	0.668711	0.015264	-0.336999	-0.394138	0.855036
20006	5.344555	0.207633	8.694587	0.008540	0.019947	0.003335	0.577921	0.630410	0.518257	-0.743296	0.668786	0.015354	-0.336924	-0.394092	0.855087
20007	5.379193	0.212979	8.716772	0.011836	0.019142	-0.002951	0.578028	0.630429	0.518114	-0.743285	0.668797	0.015461	-0.336766	-0.394043	0.855172
20008	5.392830	0.225360	8.689049	0.010529	0.020251	0.001569	0.578160	0.630402	0.518000	-0.743235	0.668850	0.015567	-0.336650	-0.393996	0.855239
20009	5.375776	0.214742	8.718836	0.009485	0.018817	0.002917	0.578222	0.630460	0.517860	-0.743249	0.668833	0.015624	-0.336512	-0.393933	0.855322
20010	5.374118	0.249449	8.712574	0.013561	0.021990	-0.001546	0.578373	0.630430	0.517728	-0.743204	0.668879	0.015776	-0.336352	-0.393902	0.855400
20011	5.341715	0.261436	8.763810	0.009482	0.018818	0.002913	0.578436	0.630488	0.517588	-0.743218	0.668862	0.015832	-0.336213	-0.393839	0.855483
20012	5.348453	0.253418	8.724243	0.012717	0.017415	0.002590	0.578527	0.630495	0.517477	-0.743214	0.668864	0.015951	-0.336065	-0.393824	0.855548
20013	5.353975	0.274394	8.736916	0.008142	0.017959	0.002409	0.578590	0.630545	0.517345	-0.743220	0.668856	0.015998	-0.335942	-0.393758	0.855627
20014	5.344117	0.250117	8.785604	0.008996	0.014263	0.002938	0.578708	0.630463	0.517313	-0.743147	0.668934	0.016097	-0.335900	-0.393756	0.855645
20015	5.322038	0.257398	8.736343	0.005959	0.012526	0.006048	0.578727	0.630516	0.517228	-0.743168	0.668911	0.016108	-0.335824	-0.393709	0.855696
20016	5.336241	0.201734	8.722855	0.012725	0.009144	0.007256	0.578771	0.630490	0.517211	-0.743168	0.668908	0.016209	-0.335747	-0.393756	0.855705
20017	5.342621	0.256325	8.727730	0.008511	0.009708	0.002966	0.578802	0.630512	0.517149	-0.743179	0.668895	0.016257	-0.335668	-0.393744	0.855741
20018	5.348889	0.243261	8.747224	0.005740	0.005425	0.002907	0.578882	0.630409	0.517185	-0.743107	0.668973	0.016328	-0.335690	-0.393776	0.855718
20019	5.348586	0.277641	8.740114	0.014232	0.004893	0.005525	0.578879	0.630428	0.517165	-0.743152	0.668922	0.016412	-0.335597	-0.393832	0.855728
20020	5.341007	0.257844	8.728673	0.001849	0.007385	0.005486	0.578951	0.630347	0.517183	-0.743074	0.669007	0.016431	-0.335642	-0.393818	0.855717
20021	5.340605	0.291788	8.721634	0.009658	0.005437	0.005345	0.578951	0.630367	0.517159	-0.743103	0.668975	0.016476	-0.335580	-0.393841	0.855731
20022	5.340152	0.258203	8.729186	0.000028	0.001972	0.005018	0.579001	0.630289	0.517198	-0.743031	0.669055	0.016469	-0.335654	-0.393830	0.855707
20023	5.310656	0.239985	8.727147	0.000976	0.000840	0.004609	0.578991	0.630286	0.517213	-0.743025	0.669061	0.016444	-0.335683	-0.393823	0.855699
20024	5.332758	0.237600	8.717657	0.000123	0.004537	0.004077	0.579059	0.630185	0.517260	-0.742940	0.669155	0.016462	-0.335753	-0.393825	0.855670
20025	5.353621	0.264228	8.760372	0.001564	-0.000309	0.008309	0.579018	0.630202	0.517285	-0.742958	0.669136	0.016423	-0.335784	-0.393830	0.855656
20026	5.339772	0.290851	8.722175	-0.003597	0.001386	0.004429	0.579061	0.630117	0.517340	-0.742880	0.669223	0.016400	-0.335882	-0.393819	0.855623
20027	5.361789	0.254417	8.720024	-0.000628	0.002528	0.007277	0.579037	0.630138	0.517341	-0.742885	0.669219	0.016348	-0.335913	-0.393791	0.855623
20028	5.316889	0.224521	8.746724	-0.004641	-0.000048	0.005779	0.579072	0.630046	0.517414	-0.742803	0.669312	0.016310	-0.336035	-0.393781	0.855580
20029	5.413432	0.268908	8.712593	-0.004642	-0.000048	0.005779	0.579050	0.630048	0.517437	-0.742785	0.669333	0.016231	-0.336111	-0.393743	0.855567
20030	5.309907	0.236423	8.727700	-0.008826	0.002488	0.006507	0.579086	0.629978	0.517482	-0.742696	0.669433	0.016149	-0.336246	-0.393684	0.855542
20031	5.294134	0.224058	8.756683	-0.007393	0.005912	0.006065	0.579082	0.630004	0.517454	-0.742671	0.669464	0.016046	-0.336308	-0.393590	0.855561
20032	5.368118	0.270383	8.732353	-0.006636	-0.000350	0.007537	0.579095	0.629952	0.517504	-0.742607	0.669537	0.015968	-0.336429	-0.393549	0.855532
20033	5.375208	0.289527	8.744127	-0.010847	0.000215	0.003248	0.579093	0.629937	0.517524	-0.742554	0.669599	0.015849	-0.336550	-0.393467	0.855522
20034	5.360919	0.214011	8.727997	-0.014835	-0.000389	0.006766	0.579081	0.629929	0.517547	-0.742499	0.669663	0.015703	-0.336690	-0.393372	0.855511
20035	5.360894	0.246164	8.720810	-0.011381	0.005307	0.009582	0.579049	0.629976	0.517525	-0.742481	0.669687	0.015547	-0.336785	-0.393255	0.855527
20036	5.367279	0.230865	8.740279	-0.016904	0.006986	0.009808	0.579101	0.629899	0.517561	-0.742347	0.669839	0.015386	-0.336991	-0.393120	0.855508
20037	5.359635	0.208994	8.728907	-0.011968	0.006459	0.005881	0.579101	0.629926	0.517528	-0.742305	0.669889	0.015244	-0.337084	-0.392992	0.855530
20038	5.359174	0.241142	8.722008	-0.014229	0.008702	0.010806	0.579138	0.629891	0.517529	-0.742206	0.670002	0.015093	-0.337239	-0.392854	0.855532
20039	5.313637	0.210072	8.749059	-0.011650	0.007852	0.012745	0.579092	0.629969	0.517486	-0.742204	0.670008	0.014919	-0.337321	-0.392719	0.855562
20040	5.371891	0.244529	8.753738	-0.011021	0.005328	0.005469	0.579117	0.629937	0.517497	-0.742139	0.670082	0.014833	-0.337422	-0.392645	0.855556
20041	5.342363	0.258875	8.744495	-0.014743	0.002179	0.005816	0.579103	0.629947	0.517501	-0.742087	0.670143	0.014668	-0.337560	-0.392525	0.855557
20042	5.364120	0.220990	8.742473	-0.017273	0.006966	0.013906	0.579057	0.630016	0.517467	-0.742072	0.670164	0.014470	-0.337672	-0.392376	0.855581
20043	5.378931	0.196626	8.721385	-0.014063	0.003592	0.008571	0.579027	0.630050	0.517459	-0.742038	0.670205	0.014296	-0.337797	-0.392252	0.855588
20044	5.378402	0.194774	8.721753	-0.016521	0.008977	0.010706	0.579025	0.630093	0.517409	-0.741990	0.670262	0.014115	-0.337907	-0.392085	0.855622
20045	5.340170	0.217798	8.753220	-0.008054	0.006466	0.008315	0.579007	0.630137	0.517377	-0.741975	0.670281	0.013994	-0.337970	-0.391983	0.855643
20046	5.354718	0.194335	8.732262	-0.006618	0.009890	0.007877	0.579049	0.630122	0.517348	-0.741914	0.670350	0.013921	-0.338032	-0.391889	0.855662
20047	5.354463	0.260851	8.718115	-0.005767	0.006192	0.008406	0.579029	0.630165	0.517318	-0.741908	0.670360	0.013819	-0.338080	-0.391804	0.855682
20048	5.317087	0.187877	8.711860	-0.010245	0.009308	0.007281	0.579083	0.630134	0.517295	-0.741818	0.670461	0.013715	-0.338184	-0.391681	0.855697
20049	5.367117	0.231381	8.757022	-0.007594	0.000780	0.007933	0.579049	0.630152	0.517311	-0.741803	0.670480	0.013600	-0.338277	-0.391617	0.855690
20050	5.345993	0.237508	8.707257	-0.002142	0.006773	0.008999	0.579074	0.630127	0.517313	-0.741760	0.670528	0.013562	-0.338327	-0.391576	0.855689
20051	5.403926	0.204281	8.726532	-0.022927	0.004119	0.010037	0.579035	0.630173	0.517301	-0.741705	0.670594	0.013305	-0.338515	-0.391389	0.855700
20052	5.351755	0.186690	8.734246	-0.007765	0.005889	0.010159	0.579068	0.630135	0.517310	-0.741625	0.670685	0.013202	-0.338633	-0.391295	0.855696
20053	5.396082	0.214980	8.708126	-0.004721	0.007626	0.007057	0.579064	0.630174	0.517268	-0.741614	0.670699	0.013117	-0.338665	-0.391208	0.855723
20054	5.358685	0.175605	8.694685	-0.015381	0.012981	0.008408	0.579152	0.630105	0.517252	-0.741469	0.670862	0.012973	-0.338830	-0.391040	0.855735
20055	5.335282	0.176665	8.704971	-0.001946	0.011904	0.007121	0.579162	0.630161	0.517173	-0.741468	0.670864	0.012910	-0.338817	-0.390944	0.855783
20056	5.334381	0.176078	8.705535	-0.003675	0.009060	0.005708	0.579209	0.630137	0.517151	-0.741415	0.670923	0.012879	-0.338853	-0.390883	0.855797
20057	5.354966	0.236022	8.741420	-0.000148	0.007074	0.007242	0.579201	0.630174	0.517114	-0.741420	0.670918	0.012832	-0.338855	-0.390831	0.855821
20058	5.346918	0.181402	8.737319	-0.009881	0.009334	0.003168	0.579277	0.630118	0.517097	-0.741318	0.671032	0.012761	-0.338948	-0.390726	0.855831
20059	5.346503	0.214499	8.730476	0.002430	0.006220	0.009185	0.579252	0.630166	0.517067	-0.741343	0.671005	0.012726	-0.338936	-0.390696	0.855850
20060	5.345987	0.214106	8.730802	-0.003116	0.005939	0.004389	0.579318	0.630085	0.517092	-0.741256	0.671102	0.012709	-0.339014	-0.390660	0.855836
20061	5.367571	0.177708	8.728787	-0.000829	0.005663	0.004483	0.579326	0.630099	0.517066	-0.741243	0.671117	0.012670	-0.339029	-0.390612	0.855852
20062	5.344907	0.213280	8.731483	-0.002727	0.007928	0.005298	0.579340	0.630143	0.516996	-0.741240	0.671121	0.012625	-0.339011	-0.390532	0.855895
20063	5.351178	0.199347	8.750921	-0.000170	0.005109	0.002227	0.579363	0.630140	0.516974	-0.741216	0.671148	0.012604	-0.339024	-0.390492	0.855908
20064	5.351104	0.233051	8.743864	0.005276	0.002822	0.007961	0.579386	0.630086	0.517013	-0.741187	0.671180	0.012634	-0.339048	-0.390524	0.855884
20065	5.320973	0.181342	8.749160	0.001848	0.007376	0.005487	0.579393	0.630113	0.516973	-0.741188	0.671179	0.012613	-0.339033	-0.390483	0.855909
20066	5.372325	0.196952	8.742066	0.003647	0.002544	0.005610	0.579410	0.630094	0.516977	-0.741174	0.671194	0.012629	-0.339035	-0.390487	0.855906
20067	5.372102	0.196872	8.742205	0.001359	0.002821	0.005515	0.579401	0.630104	0.516976	-0.741175	0.671194	0.012603	-0.339050	-0.390472	0.855907
20068	5.335810	0.226460	8.713795	0.006693	0.004280	0.002511	0.579473	0.630007	0.517012	-0.741112	0.671261	0.012680	-0.339062	-0.390512	0.855884
20069	5.364625	0.210696	8.723512	0.000410	0.003954	0.005922	0.579465	0.630023	0.517002	-0.741112	0.671263	0.012644	-0.339078	-0.390483	0.855891
20070	5.379421	0.188279	8.702383	0.004795	0.006545	0.003325	0.579530	0.629953	0.517014	-0.741060	0.671319	0.012702	-0.339080	-0.390499	0.855883
20071	5.378921	0.188436	8.702689	0.003746	0.005111	0.004671	0.579535	0.629966	0.516993	-0.741063	0.671315	0.012701	-0.339064	-0.390485	0.855895
20072	5.355908	0.190828	8.712681	0.005573	0.010522	0.005142	0.579614	0.629907	0.516976	-0.741006	0.671377	0.012751	-0.339054	-0.390473	0.855905
20073	5.332569	0.193176	8.722868	0.002047	0.012509	0.003605	0.579652	0.629942	0.516892	-0.740997	0.671387	0.012742	-0.339008	-0.390401	0.855956
20074	5.324389	0.173014	8.711711	0.002047	0.012509	0.003605	0.579757	0.629865	0.516867	-0.740908	0.671485	0.012773	-0.339023	-0.390356	0.855971
20075	5.330648	0.193179	8.724042	0.002506	0.006821	0.003228	0.579779	0.629875	0.516831	-0.740899	0.671495	0.012769	-0.339007	-0.390323	0.855992
20076	5.321938	0.235964	8.757588	0.005453	0.005990	0.001069	0.579851	0.629806	0.516835	-0.740848	0.671550	0.012839	-0.338995	-0.390340	0.855989
20077	5.329640	0.193518	8.724651	0.000118	0.004532	0.004072	0.579858	0.629812	0.516819	-0.740835	0.671564	0.012810	-0.339009	-0.390306	0.855999
20078	5.329350	0.193416	8.724830	0.002017	0.002267	0.003259	0.579861	0.629816	0.516810	-0.740844	0.671554	0.012829	-0.338986	-0.390315	0.856004
20079	5.351831	0.225097	8.708073	0.004964	0.001435	0.001100	0.579880	0.629790	0.516821	-0.740831	0.671569	0.012858	-0.338983	-0.390333	0.855997
20080	5.334791	0.209001	8.796240	-0.000860	-0.004577	0.004134	0.579955	0.629611	0.516955	-0.740691	0.671722	0.012853	-0.339158	-0.390358	0.855916
20081	5.343536	0.200382	8.755565	0.006184	-0.002242	-0.002470	0.579989	0.629546	0.516996	-0.740661	0.671755	0.012910	-0.339167	-0.390407	0.855890
20082	5.366450	0.232204	8.738536	0.002765	-0.003998	0.004731	0.580016	0.629430	0.517106	-0.740598	0.671824	0.012943	-0.339257	-0.390475	0.855823
20083	5.336866	0.146811	8.750585	0.002376	-0.005987	0.003823	0.579990	0.629393	0.517181	-0.740592	0.671831	0.012935	-0.339317	-0.390522	0.855778
20084	5.374326	0.252606	8.749868	0.007151	-0.001409	0.002134	0.580026	0.629317	0.517233	-0.740559	0.671866	0.013005	-0.339327	-0.390585	0.855746
20085	5.389457	0.196776	8.735648	0.003814	-0.002565	0.003385	0.580015	0.629291	0.517278	-0.740555	0.671870	0.013012	-0.339355	-0.390620	0.855718
20086	5.367230	0.199220	8.745144	0.003915	0.000001	0.002445	0.580049	0.629228	0.517316	-0.740518	0.671910	0.013053	-0.339376	-0.390653	0.855695
20087	5.344703	0.201815	8.754821	0.006692	0.004279	0.002508	0.580067	0.629222	0.517302	-0.740518	0.671909	0.013089	-0.339344	-0.390664	0.855703
20088	5.359689	0.179820	8.733585	0.006591	0.001713	0.003448	0.580134	0.629112	0.517362	-0.740449	0.671984	0.013155	-0.339383	-0.390711	0.855666
20089	5.359781	0.214038	8.726407	0.007640	0.003146	0.002101	0.580152	0.629099	0.517358	-0.740450	0.671982	0.013201	-0.339350	-0.390736	0.855667
20090	5.344027	0.203313	8.755198	0.006962	0.001734	-0.000655	0.580214	0.629014	0.517390	-0.740405	0.672030	0.013292	-0.339341	-0.390790	0.855646
20091	5.314716	0.219824	8.745745	0.008589	0.002013	0.001694	0.580231	0.628994	0.517396	-0.740407	0.672027	0.013348	-0.339308	-0.390829	0.855642
20092	5.323036	0.211470	8.705324	0.005252	0.000857	0.002946	0.580281	0.628910	0.517442	-0.740355	0.672083	0.013400	-0.339336	-0.390867	0.855613
20093	5.343822	0.204907	8.755286	0.008099	-0.002542	0.001726	0.580282	0.628872	0.517487	-0.740355	0.672081	0.013452	-0.339333	-0.390930	0.855585
20094	5.337147	0.219006	8.736087	0.006201	-0.000276	0.002539	0.580344	0.628755	0.517559	-0.740284	0.672158	0.013519	-0.339381	-0.390986	0.855541
20095	5.345665	0.210620	8.695547	0.007150	-0.001409	0.002132	0.580347	0.628724	0.517594	-0.740284	0.672158	0.013561	-0.339379	-0.391036	0.855519
20096	5.373795	0.224260	8.757162	0.008286	-0.005684	0.004514	0.580363	0.628615	0.517708	-0.740248	0.672195	0.013638	-0.339428	-0.391148	0.855449
20097	5.360217	0.218279	8.726034	0.009436	-0.001686	0.002226	0.580363	0.628584	0.517746	-0.740256	0.672185	0.013699	-0.339410	-0.391215	0.855425
20098	5.360359	0.218655	8.725937	0.002864	-0.001431	0.003790	0.580404	0.628512	0.517787	-0.740199	0.672249	0.013708	-0.339466	-0.391221	0.855400
20099	5.353532	0.232366	8.706837	0.005930	0.002270	0.005699	0.580392	0.628520	0.517791	-0.740215	0.672231	0.013721	-0.339451	-0.391240	0.855397
20100	5.367229	0.239193	8.737869	0.005642	0.002847	0.003851	0.580404	0.628527	0.517769	-0.740226	0.672218	0.013756	-0.339407	-0.391250	0.855410
20101	5.366596	0.205500	8.745387	0.001746	0.004814	0.006416	0.580396	0.628549	0.517752	-0.740231	0.672212	0.013730	-0.339409	-0.391225	0.855421
20102	5.352542	0.232648	8.707437	0.005082	0.005969	0.005163	0.580472	0.628450	0.517786	-0.740154	0.672296	0.013778	-0.339447	-0.391239	0.855399
20103	5.343218	0.207791	8.755587	0.001847	0.007380	0.005474	0.580480	0.628476	0.517746	-0.740155	0.672296	0.013757	-0.339433	-0.391198	0.855424
20104	5.342355	0.174034	8.763246	0.005370	0.005393	0.007010	0.580529	0.628408	0.517773	-0.740105	0.672350	0.013794	-0.339456	-0.391214	0.855407
20105	5.349296	0.227959	8.768010	0.001169	0.005967	0.002719	0.580552	0.628410	0.517745	-0.740087	0.672370	0.013782	-0.339455	-0.391178	0.855424
20106	5.334765	0.221365	8.737482	0.001270	0.008533	0.001778	0.580650	0.628319	0.517746	-0.739995	0.672470	0.013813	-0.339490	-0.391150	0.855423
20107	5.348003	0.227852	8.768801	0.002134	0.006804	0.007321	0.580641	0.628355	0.517712	-0.740007	0.672457	0.013786	-0.339477	-0.391115	0.855444
20108	5.378331	0.216580	8.719061	0.002405	0.004258	0.004161	0.580722	0.628265	0.517730	-0.739916	0.672557	0.013794	-0.339537	-0.391087	0.855433
20109	5.348609	0.198573	8.716990	0.000017	0.001970	0.005007	0.580715	0.628266	0.517737	-0.739908	0.672567	0.013760	-0.339568	-0.391068	0.855429
20110	5.369133	0.225105	8.759999	0.002235	0.009369	0.006378	0.580776	0.628216	0.517729	-0.739852	0.672628	0.013776	-0.339585	-0.391044	0.855434
20111	5.376476	0.182203	8.727344	-0.001389	0.008792	0.005782	0.580786	0.628249	0.517678	-0.739843	0.672639	0.013726	-0.339587	-0.390973	0.855465
20112	5.367646	0.224542	8.760925	0.003471	0.007659	0.007820	0.580815	0.628220	0.517681	-0.739821	0.672663	0.013750	-0.339587	-0.390977	0.855463
20113	5.345873	0.197845	8.718685	0.003946	0.010244	0.002777	0.580852	0.628239	0.517617	-0.739813	0.672672	0.013761	-0.339541	-0.390933	0.855502
20114	5.336647	0.206756	8.759618	0.001845	0.007380	0.005471	0.580875	0.628249	0.517578	-0.739807	0.672678	0.013767	-0.339515	-0.390905	0.855525
20115	5.358174	0.204339	8.750577	0.000711	0.011656	0.003086	0.580914	0.628275	0.517502	-0.739790	0.672698	0.013749	-0.339484	-0.390830	0.855571
20116	5.334982	0.206658	8.760634	0.003844	0.007679	0.003718	0.580985	0.628217	0.517495	-0.739733	0.672760	0.013787	-0.339489	-0.390818	0.855575
20117	5.327304	0.186742	8.749180	0.005741	0.005411	0.002907	0.581005	0.628217	0.517472	-0.739731	0.672761	0.013813	-0.339457	-0.390816	0.855589
20118	5.356970	0.272223	8.737059	0.001168	0.005968	0.002716	0.581035	0.628217	0.517437	-0.739718	0.672775	0.013825	-0.339433	-0.390791	0.855610
20119	5.348872	0.184720	8.740112	0.005249	0.000856	0.002944	0.581039	0.628200	0.517453	-0.739716	0.672777	0.013847	-0.339432	-0.390814	0.855599
20120	5.326712	0.220719	8.742411	-0.002559	0.002825	0.003062	0.581128	0.628068	0.517514	-0.739590	0.672915	0.013836	-0.339553	-0.390788	0.855563
20121	5.371009	0.216041	8.723586	0.006416	0.006824	0.005660	0.581133	0.628092	0.517479	-0.739607	0.672896	0.013854	-0.339509	-0.390782	0.855584
20122	5.341257	0.232256	8.714375	0.005842	0.007976	0.001964	0.581226	0.628006	0.517480	-0.739533	0.672976	0.013919	-0.339510	-0.390784	0.855582
20123	5.355655	0.176433	8.700681	0.005351	0.003422	0.002001	0.581246	0.627992	0.517474	-0.739525	0.672984	0.013947	-0.339493	-0.390792	0.855585
20124	5.347042	0.219543	8.734082	0.008128	0.007698	0.002059	0.581295	0.627955	0.517464	-0.739514	0.672994	0.014042	-0.339432	-0.390835	0.855590
20125	5.346330	0.219627	8.734516	-0.001392	0.008794	0.005775	0.581306	0.627987	0.517413	-0.739505	0.673005	0.013993	-0.339434	-0.390764	0.855622
20126	5.374579	0.203900	8.744646	0.009568	0.011119	0.001615	0.581401	0.627909	0.517400	-0.739454	0.673060	0.014106	-0.339384	-0.390795	0.855627
20127	5.366990	0.217827	8.726015	0.003180	0.008237	0.005966	0.581408	0.627941	0.517354	-0.739461	0.673052	0.014095	-0.339355	-0.390758	0.855655
20128	5.320640	0.154971	8.760320	0.003671	0.012792	0.005926	0.581434	0.627992	0.517263	-0.739480	0.673031	0.014115	-0.339270	-0.390712	0.855710
20129	5.372112	0.238291	8.739020	0.008619	0.012252	0.002018	0.581484	0.628012	0.517182	-0.739483	0.673026	0.014170	-0.339178	-0.390687	0.855758
20130	5.327871	0.214320	8.706371	0.003269	0.008831	0.000017	0.581586	0.627918	0.517181	-0.739398	0.673118	0.014232	-0.339187	-0.390680	0.855757
20131	5.333563	0.167414	8.733276	0.006789	0.006842	0.001557	0.581621	0.627914	0.517147	-0.739392	0.673123	0.014275	-0.339140	-0.390677	0.855778
20132	5.318067	0.224273	8.747582	0.008789	0.007139	-0.000195	0.581669	0.627906	0.517103	-0.739398	0.673116	0.014371	-0.339046	-0.390704	0.855803
20133	5.361999	0.186658	8.736152	0.008298	0.002584	-0.000155	0.581702	0.627874	0.517104	-0.739387	0.673126	0.014435	-0.339013	-0.390737	0.855801
20134	5.369431	0.275137	8.733445	0.011075	0.006861	-0.000100	0.581780	0.627824	0.517077	-0.739359	0.673154	0.014546	-0.338941	-0.390768	0.855815
20135	5.324624	0.150316	8.722553	0.008583	0.002009	0.001692	0.581797	0.627803	0.517084	-0.739360	0.673152	0.014603	-0.338908	-0.390807	0.855810
20136	5.339233	0.258753	8.731575	0.009360	0.005989	0.003498	0.581856	0.627738	0.517096	-0.739328	0.673185	0.014695	-0.338877	-0.390854	0.855801
20137	5.375654	0.167279	8.715780	0.009063	0.004590	-0.003353	0.581920	0.627692	0.517080	-0.739301	0.673213	0.014782	-0.338826	-0.390880	0.855810
20138	5.374166	0.230771	8.760882	0.005736	0.005412	0.002902	0.581964	0.627663	0.517066	-0.739281	0.673234	0.014835	-0.338795	-0.390891	0.855817
20139	5.330202	0.207011	8.728062	0.012799	0.009706	0.001300	0.582010	0.627669	0.517007	-0.739294	0.673217	0.014930	-0.338687	-0.390910	0.855851
20140	5.372485	0.198667	8.769024	0.008399	0.005149	-0.001103	0.582126	0.627524	0.517051	-0.739195	0.673324	0.015042	-0.338704	-0.390958	0.855822
20141	5.320790	0.251811	8.761825	0.018032	0.008590	-0.000761	0.582184	0.627512	0.517001	-0.739213	0.673300	0.015193	-0.338563	-0.391019	0.855850
20142	5.336756	0.201322	8.688761	0.007838	0.008274	0.000201	0.582225	0.627508	0.516960	-0.739226	0.673284	0.015290	-0.338466	-0.391052	0.855873
20143	5.349072	0.271473	8.764765	0.008581	0.002010	0.001690	0.582243	0.627486	0.516967	-0.739226	0.673282	0.015347	-0.338434	-0.391091	0.855868
20144	5.335900	0.202833	8.689252	0.010786	0.007436	-0.001955	0.582351	0.627379	0.516975	-0.739161	0.673351	0.015483	-0.338391	-0.391144	0.855861
20145	5.340803	0.219471	8.760825	0.011530	0.001172	-0.000465	0.582382	0.627340	0.516988	-0.739159	0.673351	0.015577	-0.338342	-0.391208	0.855851
20146	5.304041	0.182704	8.746877	0.016202	0.003179	-0.001220	0.582442	0.627312	0.516954	-0.739165	0.673341	0.015718	-0.338227	-0.391269	0.855869
20147	5.302257	0.213421	8.799237	0.015631	0.004328	-0.004918	0.582516	0.627254	0.516940	-0.739151	0.673353	0.015870	-0.338129	-0.391341	0.855874
20148	5.326013	0.183828	8.737553	0.021608	-0.003053	-0.005487	0.582589	0.627127	0.517012	-0.739137	0.673362	0.016112	-0.338032	-0.391529	0.855827
20149	5.362944	0.224250	8.751289	0.025790	-0.005600	-0.006199	0.582640	0.627022	0.517082	-0.739150	0.673342	0.016357	-0.337917	-0.391732	0.855779
20150	5.334257	0.242782	8.741282	0.026839	-0.004169	-0.007553	0.582765	0.626809	0.517199	-0.739085	0.673406	0.016659	-0.337843	-0.391962	0.855703
20151	5.342850	0.202489	8.707983	0.021502	-0.005616	-0.004546	0.582803	0.626715	0.517270	-0.739093	0.673392	0.016859	-0.337760	-0.392136	0.855656
20152	5.349225	0.288453	8.764129	0.032833	-0.003283	-0.012821	0.582975	0.626478	0.517364	-0.739014	0.673469	0.017229	-0.337635	-0.392384	0.855592
20153	5.328398	0.230698	8.728570	0.021112	-0.007606	-0.005451	0.583014	0.626370	0.517452	-0.739016	0.673463	0.017431	-0.337566	-0.392567	0.855535
20154	5.387463	0.235498	8.740115	0.035021	-0.004144	-0.006785	0.583124	0.626153	0.517590	-0.738990	0.673481	0.017816	-0.337432	-0.392882	0.855443
20155	5.329368	0.236286	8.727828	0.020824	-0.007033	-0.007305	0.583178	0.626034	0.517672	-0.738979	0.673487	0.018024	-0.337362	-0.393061	0.855389
20156	5.410987	0.272670	8.722473	0.038738	-0.000999	-0.007154	0.583345	0.625797	0.517771	-0.738912	0.673550	0.018416	-0.337220	-0.393330	0.855321
20157	5.345203	0.219827	8.706118	0.024828	-0.004462	-0.005820	0.583396	0.625698	0.517832	-0.738924	0.673531	0.018651	-0.337106	-0.393520	0.855279
20158	5.337035	0.265418	8.738928	0.031034	0.003531	-0.007992	0.583523	0.625551	0.517867	-0.738907	0.673540	0.018992	-0.336923	-0.393738	0.855250
20159	5.381578	0.263923	8.719957	0.031593	0.000405	-0.009298	0.583617	0.625448	0.517885	-0.738920	0.673516	0.019303	-0.336731	-0.393942	0.855232
20160	5.343554	0.258141	8.758092	0.027595	-0.000182	-0.005788	0.583745	0.625266	0.517961	-0.738866	0.673568	0.019596	-0.336629	-0.394143	0.855180
20161	5.343700	0.294806	8.750581	0.030742	0.004103	-0.009855	0.583856	0.625174	0.517948	-0.738873	0.673551	0.019903	-0.336421	-0.394318	0.855181
20162	5.374312	0.286193	8.700782	0.027316	0.002376	-0.002645	0.583982	0.625011	0.518003	-0.738819	0.673602	0.020172	-0.336320	-0.394490	0.855141
20163	5.313397	0.248297	8.756103	0.019130	0.002348	-0.003419	0.584039	0.624955	0.518006	-0.738825	0.673590	0.020346	-0.336208	-0.394599	0.855135
20164	5.307158	0.331127	8.721784	0.023982	0.001225	-0.001386	0.584123	0.624824	0.518068	-0.738803	0.673606	0.020589	-0.336109	-0.394777	0.855091
20165	5.299808	0.279144	8.717580	0.018927	-0.002777	-0.001516	0.584149	0.624761	0.518116	-0.738819	0.673584	0.020752	-0.336029	-0.394916	0.855059
20166	5.358932	0.316562	8.721727	0.016643	-0.002500	-0.001609	0.584214	0.624595	0.518242	-0.738776	0.673626	0.020956	-0.336012	-0.395107	0.854977
20167	5.329504	0.266458	8.726876	0.016828	-0.005632	0.001194	0.584211	0.624538	0.518315	-0.738800	0.673594	0.021087	-0.335965	-0.395250	0.854930
20168	5.352259	0.265651	8.717101	0.015683	-0.003355	-0.006208	0.584231	0.624499	0.518339	-0.738842	0.673542	0.021275	-0.335837	-0.395400	0.854911
20169	5.359684	0.287733	8.728480	0.022441	-0.004756	0.000017	0.584239	0.624438	0.518404	-0.738879	0.673496	0.021460	-0.335742	-0.395576	0.854867
20170	5.382419	0.286941	8.718711	0.013309	-0.003651	-0.000349	0.584341	0.624222	0.518548	-0.738768	0.673613	0.021613	-0.335810	-0.395716	0.854775
20171	5.398289	0.299258	8.689773	0.014357	-0.002223	-0.001707	0.584370	0.624160	0.518591	-0.738767	0.673610	0.021738	-0.335760	-0.395821	0.854746
20172	5.367017	0.278554	8.747230	0.014558	0.002900	-0.003617	0.584417	0.624132	0.518572	-0.738788	0.673582	0.021898	-0.335633	-0.395912	0.854754
20173	5.352893	0.273090	8.716482	0.015516	0.003757	0.000978	0.584446	0.624111	0.518564	-0.738807	0.673558	0.022019	-0.335540	-0.395988	0.854755
20174	5.352744	0.308034	8.709114	0.013048	0.007163	-0.001919	0.584506	0.624085	0.518526	-0.738814	0.673545	0.022163	-0.335419	-0.396049	0.854774
20175	5.358930	0.295889	8.728670	0.015902	0.005751	0.001871	0.584536	0.624078	0.518502	-0.738840	0.673513	0.022283	-0.335311	-0.396115	0.854786
20176	5.342697	0.286173	8.757744	0.016002	0.008313	0.000914	0.584625	0.624000	0.518495	-0.738808	0.673542	0.022441	-0.335225	-0.396189	0.854786
20177	5.319915	0.323362	8.760007	0.009817	0.008574	-0.001611	0.584690	0.623980	0.518446	-0.738793	0.673556	0.022527	-0.335146	-0.396195	0.854814
20178	5.334625	0.301563	8.739226	0.010287	0.004877	0.003046	0.584779	0.623882	0.518463	-0.738723	0.673630	0.022613	-0.335145	-0.396224	0.854801
20179	5.320708	0.295595	8.708370	0.012358	-0.002515	0.000051	0.584795	0.623830	0.518509	-0.738725	0.673624	0.022711	-0.335112	-0.396317	0.854771
20180	5.334489	0.270126	8.746678	0.017870	-0.004202	-0.000170	0.584801	0.623779	0.518562	-0.738764	0.673576	0.022885	-0.335016	-0.396478	0.854734
20181	5.342364	0.325512	8.750308	0.015486	-0.006487	0.000695	0.584799	0.623716	0.518642	-0.738781	0.673553	0.023007	-0.334983	-0.396617	0.854682
20182	5.378838	0.297399	8.778950	0.009874	-0.007361	0.001872	0.584799	0.623637	0.518737	-0.738778	0.673553	0.023102	-0.334990	-0.396741	0.854622
20183	5.372714	0.311589	8.759271	0.009588	-0.006794	0.000021	0.584800	0.623567	0.518819	-0.738771	0.673558	0.023177	-0.335002	-0.396843	0.854570
20184	5.375288	0.316420	8.699132	0.006819	-0.011073	-0.000006	0.584800	0.623451	0.518958	-0.738746	0.673583	0.023264	-0.335058	-0.396983	0.854483
20185	5.344551	0.295016	8.756319	0.010085	-0.000244	0.004953	0.584787	0.623440	0.518986	-0.738770	0.673555	0.023318	-0.335028	-0.397047	0.854465
20186	5.361896	0.276671	8.675419	0.000084	-0.005689	0.003765	0.584833	0.623301	0.519102	-0.738671	0.673663	0.023318	-0.335166	-0.397083	0.854394
20187	5.360879	0.306580	8.727105	0.009687	-0.004233	-0.000938	0.584850	0.623235	0.519162	-0.738659	0.673673	0.023399	-0.335162	-0.397169	0.854355
20188	5.376463	0.284438	8.705812	0.003801	-0.002545	0.003388	0.584920	0.623069	0.519282	-0.738550	0.673791	0.023445	-0.335280	-0.397229	0.854281
20189	5.369814	0.298131	8.686465	0.005897	0.000307	0.000670	0.584940	0.623032	0.519304	-0.738535	0.673806	0.023485	-0.335278	-0.397261	0.854267
20190	5.369854	0.298525	8.686427	0.004849	-0.001119	0.002029	0.584989	0.622923	0.519379	-0.738473	0.673872	0.023543	-0.335329	-0.397320	0.854220
20191	5.354772	0.321610	8.707376	0.006744	-0.003389	0.001225	0.584993	0.622875	0.519432	-0.738463	0.673881	0.023588	-0.335343	-0.397381	0.854186
20192	5.354420	0.288302	8.715054	0.004675	0.004005	0.004217	0.585062	0.622778	0.519472	-0.738389	0.673961	0.023630	-0.335387	-0.397397	0.854161
20193	5.377147	0.353272	8.690394	0.001059	0.003422	0.003636	0.585070	0.622773	0.519468	-0.738375	0.673977	0.023614	-0.335403	-0.397378	0.854164
20194	5.361044	0.308686	8.726929	0.005521	0.000309	0.004772	0.585091	0.622711	0.519519	-0.738350	0.674003	0.023662	-0.335423	-0.397431	0.854131
20195	5.412739	0.324106	8.719625	-0.002556	0.002839	0.003056	0.585102	0.622699	0.519520	-0.738320	0.674037	0.023618	-0.335469	-0.397391	0.854132
20196	5.374416	0.315357	8.758092	0.003728	0.005140	0.004618	0.585155	0.622620	0.519556	-0.738264	0.674097	0.023658	-0.335501	-0.397413	0.854109
20197	5.390905	0.296680	8.677736	0.000886	0.008546	0.005823	0.585165	0.622650	0.519508	-0.738262	0.674101	0.023629	-0.335488	-0.397360	0.854139
20198	5.350685	0.317385	8.768426	-0.000062	0.009681	0.006225	0.585257	0.622554	0.519519	-0.738154	0.674218	0.023623	-0.335562	-0.397311	0.854132
20199	5.344144	0.267399	8.705437	0.002982	0.011397	0.003104	0.585297	0.622577	0.519447	-0.738143	0.674230	0.023626	-0.335518	-0.397255	0.854176
20200	5.357097	0.274368	8.736846	0.002881	0.008836	0.004061	0.585363	0.622513	0.519449	-0.738084	0.674293	0.023662	-0.335531	-0.397248	0.854174
20201	5.350002	0.321489	8.710313	0.003828	0.007701	0.003659	0.585387	0.622525	0.519408	-0.738079	0.674299	0.023669	-0.335502	-0.397220	0.854198
20202	5.356073	0.308133	8.730001	0.005070	0.007996	0.010102	0.585355	0.622643	0.519302	-0.738153	0.674219	0.023654	-0.335395	-0.397170	0.854263
20203	5.355369	0.308092	8.730434	0.001261	0.008544	0.001718	0.585395	0.622646	0.519254	-0.738128	0.674246	0.023649	-0.335380	-0.397120	0.854293
20204	5.369810	0.285434	8.709884	0.004885	0.011123	0.007293	0.585508	0.622478	0.519328	-0.737997	0.674387	0.023708	-0.335470	-0.397144	0.854246
20205	5.353438	0.307991	8.731622	0.000424	0.014237	0.006153	0.585535	0.622533	0.519232	-0.737995	0.674390	0.023673	-0.335428	-0.397052	0.854305
20206	5.388808	0.346141	8.746070	0.005649	0.013115	0.004082	0.585603	0.622535	0.519153	-0.737972	0.674414	0.023715	-0.335361	-0.397008	0.854352
20207	5.337107	0.267387	8.709753	-0.000065	0.009683	0.006218	0.585614	0.622572	0.519096	-0.737969	0.674419	0.023676	-0.335349	-0.396942	0.854388
20208	5.327898	0.310133	8.743029	0.001086	0.013669	0.003900	0.585691	0.622560	0.519024	-0.737919	0.674473	0.023683	-0.335324	-0.396868	0.854432
20209	5.312903	0.269687	8.720334	0.005721	0.005429	0.002855	0.585712	0.622557	0.519003	-0.737916	0.674476	0.023711	-0.335294	-0.396868	0.854444
20210	5.349198	0.308262	8.734210	0.007514	0.000597	0.003013	0.585703	0.622555	0.519016	-0.737947	0.674439	0.023781	-0.335240	-0.396935	0.854434
20211	5.341959	0.288273	8.722699	0.003338	0.003146	0.003723	0.585711	0.622549	0.519015	-0.737941	0.674446	0.023784	-0.335241	-0.396933	0.854434
20212	5.400577	0.324052	8.727166	0.002390	0.004282	0.004124	0.585727	0.622546	0.518999	-0.737935	0.674452	0.023799	-0.335224	-0.396928	0.854443
20213	5.429053	0.308454	8.737376	0.006209	0.009984	0.002786	0.585765	0.622561	0.518939	-0.737933	0.674453	0.023831	-0.335164	-0.396902	0.854479
20214	5.326382	0.281754	8.692890	0.001930	0.009973	0.004455	0.585799	0.622569	0.518890	-0.737922	0.674465	0.023846	-0.335127	-0.396870	0.854508
20215	5.354796	0.299573	8.695681	0.002418	0.014528	0.004386	0.585840	0.622612	0.518792	-0.737916	0.674471	0.023838	-0.335068	-0.396790	0.854568
20216	5.360484	0.320026	8.708130	0.002617	0.017651	-0.002526	0.585978	0.622575	0.518682	-0.737835	0.674559	0.023891	-0.335008	-0.396701	0.854634
20217	5.321081	0.311684	8.747125	0.005265	0.013119	0.008176	0.585986	0.622638	0.518596	-0.737861	0.674530	0.023887	-0.334936	-0.396649	0.854686
20218	5.320383	0.345213	8.740087	0.000033	0.012245	0.005251	0.586023	0.622663	0.518524	-0.737849	0.674544	0.023881	-0.334898	-0.396587	0.854729
20219	5.296809	0.313724	8.757723	-0.001124	0.006261	0.002580	0.586050	0.622662	0.518496	-0.737820	0.674575	0.023852	-0.334913	-0.396535	0.854747
20220	5.318849	0.310821	8.748513	-0.004274	0.001987	0.006658	0.586056	0.622651	0.518502	-0.737787	0.674614	0.023791	-0.334975	-0.396487	0.854745
20221	5.385541	0.269409	8.727968	-0.000381	0.000004	0.004100	0.586050	0.622635	0.518527	-0.737771	0.674633	0.023761	-0.335022	-0.396479	0.854731
20222	5.326056	0.363718	8.752615	-0.004837	0.005118	0.007948	0.586073	0.622604	0.518539	-0.737717	0.674694	0.023699	-0.335100	-0.396424	0.854726
20223	5.378471	0.281410	8.708948	-0.004378	-0.000573	0.007618	0.586040	0.622609	0.518570	-0.737707	0.674708	0.023616	-0.335180	-0.396393	0.854709
20224	5.334161	0.319030	8.720113	-0.006659	-0.000295	0.007526	0.586039	0.622560	0.518630	-0.737655	0.674767	0.023545	-0.335296	-0.396368	0.854675
20225	5.362722	0.268894	8.737761	-0.000943	0.003134	0.005390	0.586035	0.622565	0.518629	-0.737644	0.674781	0.023503	-0.335329	-0.396337	0.854676
20226	5.370631	0.225479	8.705318	-0.003507	0.003978	0.003448	0.586013	0.622628	0.518578	-0.737674	0.674749	0.023467	-0.335299	-0.396293	0.854708
20227	5.378199	0.312912	8.701741	0.004669	0.004003	0.004214	0.586020	0.622629	0.518569	-0.737675	0.674747	0.023479	-0.335285	-0.396295	0.854713
20228	5.339298	0.270771	8.747846	0.001440	0.005417	0.004521	0.585986	0.622686	0.518539	-0.737733	0.674684	0.023499	-0.335218	-0.396313	0.854731
20229	5.325506	0.297605	8.709510	0.006002	0.004861	0.004705	0.585992	0.622693	0.518524	-0.737741	0.674674	0.023520	-0.335189	-0.396318	0.854740
20230	5.361625	0.335940	8.723550	0.003438	0.005705	0.002762	0.586008	0.622706	0.518490	-0.737751	0.674662	0.023553	-0.335139	-0.396318	0.854760
20231	5.338348	0.304737	8.740969	0.001440	0.005417	0.004520	0.586017	0.622715	0.518469	-0.737743	0.674671	0.023535	-0.335140	-0.396289	0.854772
20232	5.344677	0.291321	8.760483	0.005233	0.002871	0.007913	0.586024	0.622697	0.518482	-0.737738	0.674676	0.023556	-0.335139	-0.396309	0.854764
20233	5.352946	0.281845	8.720375	-0.000841	0.005696	0.004428	0.586035	0.622706	0.518459	-0.737722	0.674695	0.023520	-0.335156	-0.396262	0.854779
20234	5.381756	0.299493	8.722969	0.001929	0.009973	0.004449	0.586099	0.622662	0.518439	-0.737669	0.674752	0.023540	-0.335161	-0.396233	0.854790
20235	5.358283	0.268185	8.740505	0.001440	0.005418	0.004519	0.586109	0.622671	0.518419	-0.737660	0.674762	0.023523	-0.335162	-0.396204	0.854803
20236	5.351034	0.281483	8.721560	0.003158	0.008270	0.005900	0.586118	0.622675	0.518402	-0.737669	0.674751	0.023553	-0.335127	-0.396214	0.854812
20237	5.328086	0.284042	8.731318	0.006001	0.004861	0.004703	0.586124	0.622683	0.518387	-0.737677	0.674742	0.023574	-0.335098	-0.396220	0.854821
20238	5.341481	0.291038	8.762442	0.002669	0.003715	0.005970	0.586109	0.622701	0.518382	-0.737701	0.674715	0.023588	-0.335072	-0.396236	0.854824
20239	5.341791	0.324716	8.754808	0.004178	-0.000552	0.004283	0.586101	0.622684	0.518412	-0.737701	0.674716	0.023596	-0.335088	-0.396263	0.854805
20240	5.334099	0.270752	8.751018	0.000106	0.004560	0.004027	0.586144	0.622635	0.518422	-0.737650	0.674771	0.023596	-0.335124	-0.396244	0.854800
20241	5.356653	0.302057	8.734055	0.008177	0.002022	0.005756	0.586133	0.622638	0.518431	-0.737672	0.674746	0.023630	-0.335096	-0.396282	0.854793
20242	5.378806	0.299894	8.724775	0.003052	0.003711	0.001871	0.586146	0.622629	0.518427	-0.737673	0.674743	0.023667	-0.335069	-0.396302	0.854795
20243	5.392295	0.306889	8.755842	0.003615	0.002579	0.005571	0.586139	0.622633	0.518431	-0.737678	0.674738	0.023663	-0.335071	-0.396305	0.854792
20244	5.362383	0.289238	8.753914	0.006104	0.007421	0.003741	0.586216	0.622539	0.518455	-0.737608	0.674812	0.023727	-0.335089	-0.396326	0.854776
20245	5.356529	0.273104	8.683139	0.001929	0.009973	0.004444	0.586241	0.622565	0.518396	-0.737601	0.674820	0.023714	-0.335060	-0.396272	0.854812
20246	5.347101	0.282640	8.723935	0.007437	0.008279	0.004231	0.586269	0.622567	0.518361	-0.737611	0.674807	0.023778	-0.334990	-0.396289	0.854831
20247	5.360536	0.323337	8.747586	0.002210	0.009408	0.006293	0.586279	0.622603	0.518307	-0.737615	0.674803	0.023759	-0.334963	-0.396241	0.854864
20248	5.352414	0.303080	8.736618	0.006313	0.014542	0.006802	0.586298	0.622670	0.518206	-0.737653	0.674760	0.023797	-0.334847	-0.396209	0.854925
20249	5.351164	0.302931	8.737389	-0.001862	0.014522	0.006033	0.586327	0.622724	0.518108	-0.737643	0.674774	0.023745	-0.334819	-0.396101	0.854986
20250	5.379430	0.320457	8.740348	0.002698	0.013963	0.006217	0.586338	0.622800	0.518004	-0.737679	0.674734	0.023754	-0.334721	-0.396048	0.855048
20251	5.312533	0.298084	8.717413	0.001469	0.015666	0.004764	0.586380	0.622850	0.517896	-0.737672	0.674742	0.023736	-0.334662	-0.395956	0.855114
20252	5.340140	0.281983	8.728218	-0.000146	0.017375	0.007407	0.586383	0.622967	0.517752	-0.737720	0.674690	0.023711	-0.334551	-0.395860	0.855202
20253	5.345802	0.301770	8.740710	-0.001199	0.015951	0.008765	0.586396	0.623045	0.517643	-0.737728	0.674684	0.023650	-0.334510	-0.395748	0.855270
20254	5.337448	0.281016	8.729896	-0.000917	0.013385	0.005629	0.586453	0.623033	0.517593	-0.737683	0.674733	0.023638	-0.334510	-0.395683	0.855300
20255	5.313532	0.249531	8.747643	0.002870	0.010838	0.009026	0.586447	0.623093	0.517527	-0.737706	0.674709	0.023611	-0.334469	-0.395630	0.855341
20256	5.336025	0.314067	8.723356	-0.001688	0.009396	0.003853	0.586446	0.623154	0.517456	-0.737731	0.674682	0.023594	-0.334415	-0.395580	0.855385
20257	5.318974	0.269232	8.760266	0.002484	0.008843	0.008137	0.586440	0.623200	0.517407	-0.737748	0.674665	0.023568	-0.334389	-0.395537	0.855415
20258	5.305755	0.329530	8.714186	0.003610	0.002579	0.005569	0.586456	0.623175	0.517418	-0.737732	0.674681	0.023585	-0.334395	-0.395548	0.855407
20259	5.318266	0.268952	8.760704	-0.002563	0.002846	0.003040	0.586468	0.623163	0.517420	-0.737702	0.674716	0.023542	-0.334441	-0.395508	0.855408
20260	5.341071	0.299768	8.743671	-0.000109	-0.000560	0.005946	0.586541	0.623008	0.517524	-0.737576	0.674853	0.023534	-0.334591	-0.395517	0.855345
20261	5.362929	0.263248	8.742068	-0.002284	0.002281	0.004889	0.586537	0.623006	0.517530	-0.737558	0.674876	0.023483	-0.334638	-0.395482	0.855343
20262	5.347607	0.285889	8.763058	0.005120	-0.001691	0.003888	0.586552	0.622957	0.517572	-0.737538	0.674896	0.023519	-0.334656	-0.395524	0.855316
20263	5.333876	0.279119	8.732140	0.003609	0.002578	0.005568	0.586544	0.622961	0.517576	-0.737543	0.674891	0.023516	-0.334658	-0.395528	0.855314
20264	5.363166	0.297056	8.734495	0.003998	0.002572	0.001472	0.586507	0.623038	0.517525	-0.737619	0.674807	0.023551	-0.334556	-0.395549	0.855344
20265	5.356307	0.310513	8.715320	0.001050	0.003424	0.003624	0.586517	0.623032	0.517521	-0.737604	0.674823	0.023536	-0.334572	-0.395530	0.855346
20266	5.363102	0.330700	8.727112	0.004273	0.004008	0.008305	0.586512	0.623041	0.517517	-0.737614	0.674812	0.023543	-0.334559	-0.395536	0.855349
20267	5.354587	0.242843	8.731231	-0.003126	0.005979	0.004322	0.586525	0.623050	0.517492	-0.737589	0.674841	0.023488	-0.334591	-0.395473	0.855366
20268	5.362257	0.330257	8.727648	0.006274	0.004293	0.006549	0.586521	0.623064	0.517478	-0.737612	0.674815	0.023522	-0.334546	-0.395495	0.855373
20269	5.345590	0.285585	8.764299	-0.001899	0.004277	0.005775	0.586518	0.623076	0.517468	-0.737600	0.674830	0.023471	-0.334579	-0.395450	0.855381
20270	5.316130	0.301206	8.754622	0.004379	0.006568	0.007341	0.586574	0.623009	0.517485	-0.737541	0.674894	0.023492	-0.334612	-0.395446	0.855370
20271	5.331394	0.311850	8.726266	0.000097	0.006563	0.009001	0.586554	0.623052	0.517456	-0.737554	0.674881	0.023441	-0.334616	-0.395401	0.855389
20272	5.366590	0.282061	8.755826	-0.001342	0.003146	0.009473	0.586479	0.623148	0.517426	-0.737632	0.674797	0.023399	-0.334577	-0.395393	0.855408
20273	5.337166	0.297419	8.746135	-0.000182	0.007129	0.007151	0.586475	0.623180	0.517391	-0.737634	0.674797	0.023355	-0.334580	-0.395342	0.855430
20274	5.329359	0.276647	8.734976	-0.002077	0.009405	0.007942	0.586447	0.623253	0.517335	-0.737675	0.674754	0.023321	-0.334539	-0.395302	0.855465
20275	5.358198	0.293775	8.737654	-0.003795	0.006553	0.006564	0.586445	0.623279	0.517306	-0.737661	0.674771	0.023249	-0.334572	-0.395230	0.855485
20276	5.357550	0.293093	8.738074	-0.001799	0.008839	0.009790	0.586531	0.623179	0.517330	-0.737542	0.674903	0.023208	-0.334685	-0.395164	0.855471
20277	5.343030	0.285411	8.707671	-0.005306	0.010824	0.008241	0.586531	0.623233	0.517264	-0.737533	0.674916	0.023114	-0.334704	-0.395056	0.855514
20278	5.310466	0.262715	8.765624	-0.005028	0.010258	0.010089	0.586553	0.623215	0.517261	-0.737486	0.674969	0.023054	-0.334768	-0.394995	0.855517
20279	5.319024	0.286021	8.718064	-0.004188	0.006560	0.010656	0.586522	0.623268	0.517232	-0.737495	0.674962	0.022957	-0.334804	-0.394921	0.855537
20280	5.332019	0.291931	8.749459	-0.008250	0.009676	0.005407	0.586511	0.623346	0.517151	-0.737507	0.674953	0.022870	-0.334796	-0.394816	0.855589
20281	5.301921	0.273173	8.747577	-0.004297	0.003999	0.011618	0.586464	0.623396	0.517144	-0.737521	0.674941	0.022768	-0.334848	-0.394757	0.855595
20282	5.330610	0.256597	8.757757	-0.000955	0.003139	0.005375	0.586516	0.623292	0.517211	-0.737436	0.675033	0.022767	-0.334944	-0.394763	0.855555
20283	5.339524	0.280291	8.709988	-0.005130	0.005697	0.006069	0.586515	0.623311	0.517188	-0.737415	0.675059	0.022686	-0.334992	-0.394688	0.855571
20284	5.323341	0.268798	8.738890	-0.002288	0.002283	0.004884	0.586471	0.623353	0.517187	-0.737455	0.675016	0.022666	-0.334980	-0.394695	0.855572
20285	5.314380	0.277765	8.779335	-0.000955	0.003139	0.005375	0.586467	0.623357	0.517187	-0.737443	0.675030	0.022625	-0.335013	-0.394665	0.855574
20286	5.338763	0.278712	8.710505	-0.004291	0.001998	0.006637	0.586467	0.623329	0.517221	-0.737412	0.675066	0.022582	-0.335083	-0.394648	0.855554
20287	5.359400	0.305108	8.753193	-0.004291	0.001998	0.006636	0.586450	0.623337	0.517231	-0.737396	0.675085	0.022505	-0.335147	-0.394602	0.855550
20288	5.345036	0.263825	8.730057	-0.004014	0.001432	0.008485	0.586419	0.623348	0.517252	-0.737398	0.675085	0.022447	-0.335197	-0.394584	0.855539
20289	5.358432	0.269996	8.761201	-0.002850	0.005415	0.006164	0.586417	0.623367	0.517232	-0.737385	0.675102	0.022386	-0.335230	-0.394526	0.855553
20290	5.344428	0.262391	8.730473	-0.004962	0.002571	0.008879	0.586439	0.623326	0.517256	-0.737321	0.675174	0.022310	-0.335331	-0.394467	0.855540
20291	5.329955	0.221013	8.707392	-0.005239	0.003137	0.007030	0.586422	0.623342	0.517256	-0.737305	0.675194	0.022223	-0.335395	-0.394408	0.855542
20292	5.350542	0.247573	8.750112	-0.000008	0.002000	0.004979	0.586417	0.623360	0.517240	-0.737310	0.675190	0.022204	-0.335394	-0.394387	0.855552
20293	5.329002	0.316928	8.744227	-0.004183	0.004559	0.005672	0.586416	0.623372	0.517228	-0.737289	0.675215	0.022134	-0.335442	-0.394326	0.855561
20294	5.327693	0.249128	8.759747	-0.000117	-0.000561	0.005941	0.586299	0.623499	0.517206	-0.737421	0.675071	0.022125	-0.335355	-0.394371	0.855575
20295	5.344196	0.293455	8.723342	0.000277	-0.000566	0.001849	0.586309	0.623465	0.517236	-0.737393	0.675102	0.022113	-0.335401	-0.394372	0.855557
20296	5.305386	0.250922	8.769045	-0.006681	-0.000279	0.007500	0.586400	0.623270	0.517368	-0.737214	0.675299	0.022052	-0.335634	-0.394342	0.855479
20297	5.366013	0.256131	8.721750	0.001601	0.002289	0.007318	0.586379	0.623284	0.517376	-0.737223	0.675291	0.022022	-0.335653	-0.394334	0.855475
20298	5.343673	0.258658	8.731046	0.004728	-0.003693	0.003004	0.586410	0.623179	0.517466	-0.737168	0.675349	0.022068	-0.335718	-0.394400	0.855419
20299	5.373323	0.276462	8.733262	0.000662	0.001428	0.002735	0.586420	0.623158	0.517480	-0.737146	0.675373	0.022054	-0.335749	-0.394391	0.855411
20300	5.357236	0.265628	8.762066	0.003052	0.003706	0.001869	0.586520	0.623013	0.517541	-0.737030	0.675499	0.022100	-0.335829	-0.394405	0.855373
20301	5.359253	0.269748	8.702546	0.003219	0.000579	0.004680	0.586512	0.623003	0.517562	-0.737028	0.675501	0.022099	-0.335846	-0.394419	0.855360
20302	5.328025	0.281735	8.752226	0.004552	0.001435	0.005171	0.586562	0.622881	0.517653	-0.736955	0.675579	0.022145	-0.335921	-0.394476	0.855304
20303	5.345331	0.263173	8.671736	0.005608	0.002857	0.003813	0.586568	0.622874	0.517655	-0.736956	0.675577	0.022169	-0.335907	-0.394492	0.855302
20304	5.363494	0.286465	8.774204	0.002214	0.007405	0.001300	0.586654	0.622779	0.517671	-0.736872	0.675667	0.022211	-0.335940	-0.394487	0.855292
20305	5.349282	0.279714	8.743576	0.003714	0.005134	0.004602	0.586663	0.622786	0.517653	-0.736872	0.675667	0.022214	-0.335927	-0.394476	0.855302
20306	5.333042	0.268840	8.772469	0.001048	0.003423	0.003620	0.586595	0.622887	0.517608	-0.736971	0.675559	0.022229	-0.335828	-0.394501	0.855329
20307	5.341401	0.259582	8.732409	0.007327	0.005707	0.005189	0.586601	0.622900	0.517586	-0.736986	0.675541	0.022260	-0.335785	-0.394511	0.855342
20308	5.311877	0.275768	8.722751	0.003823	0.007695	0.003638	0.586629	0.622902	0.517552	-0.736982	0.675545	0.022292	-0.335744	-0.394503	0.855362
20309	5.340816	0.293441	8.725412	0.000486	0.006556	0.004899	0.586640	0.622916	0.517522	-0.736972	0.675556	0.022265	-0.335746	-0.394461	0.855380
20310	5.353406	0.266772	8.764371	0.008273	0.004568	0.004794	0.586657	0.622883	0.517543	-0.736975	0.675551	0.022341	-0.335711	-0.394523	0.855365
20311	5.316896	0.262761	8.742996	0.001828	0.005411	0.000413	0.586697	0.622862	0.517522	-0.736944	0.675585	0.022349	-0.335710	-0.394497	0.855378
20312	5.330673	0.303188	8.766536	0.000761	0.005991	0.006746	0.586628	0.622986	0.517452	-0.737044	0.675475	0.022338	-0.335609	-0.394489	0.855421
20313	5.354222	0.270691	8.705613	-0.000847	0.005701	0.004407	0.586639	0.622994	0.517430	-0.737028	0.675495	0.022303	-0.335626	-0.394444	0.855435
20314	5.322696	0.282491	8.755444	0.003603	0.002574	0.005564	0.586594	0.623005	0.517466	-0.737078	0.675438	0.022349	-0.335593	-0.394523	0.855412
20315	5.352027	0.300117	8.757876	0.001323	0.002857	0.005467	0.586588	0.623009	0.517469	-0.737075	0.675442	0.022327	-0.335610	-0.394510	0.855411
20316	5.337348	0.259320	8.734895	-0.001794	0.006840	0.004800	0.586559	0.623048	0.517456	-0.737112	0.675402	0.022324	-0.335581	-0.394517	0.855419
20317	5.359045	0.256530	8.726021	0.001928	0.009973	0.004424	0.586584	0.623072	0.517397	-0.737105	0.675410	0.022313	-0.335553	-0.394464	0.855455
20318	5.342888	0.279165	8.747503	-0.000352	0.010256	0.004326	0.586524	0.623199	0.517313	-0.737206	0.675299	0.022315	-0.335434	-0.394454	0.855505
20319	5.319520	0.281642	8.757401	0.004593	0.011684	0.005405	0.586548	0.623237	0.517239	-0.737214	0.675291	0.022321	-0.335376	-0.394408	0.855550
20320	5.347583	0.265635	8.767960	0.000870	0.008551	0.005780	0.586515	0.623329	0.517166	-0.737278	0.675221	0.022313	-0.335293	-0.394382	0.855594
20321	5.347499	0.298906	8.760683	-0.002743	0.007980	0.005191	0.586528	0.623351	0.517124	-0.737260	0.675243	0.022258	-0.335310	-0.394310	0.855621
20322	5.339205	0.244522	8.757120	-0.000299	0.004570	0.008101	0.586477	0.623403	0.517120	-0.737311	0.675188	0.022241	-0.335288	-0.394322	0.855624
20323	5.339821	0.311358	8.742087	-0.002632	0.010541	0.004226	0.586506	0.623429	0.517056	-0.737287	0.675215	0.022192	-0.335289	-0.394235	0.855664
20324	5.360746	0.274525	8.741048	-0.004363	0.009693	0.007824	0.586575	0.623354	0.517068	-0.737189	0.675323	0.022146	-0.335383	-0.394167	0.855658
20325	5.337529	0.276470	8.750859	-0.001411	0.008835	0.005680	0.586588	0.623383	0.517019	-0.737178	0.675337	0.022100	-0.335385	-0.394099	0.855689
20326	5.336011	0.242203	8.759131	-0.003978	0.011687	0.008707	0.586565	0.623451	0.516963	-0.737208	0.675306	0.022053	-0.335359	-0.394045	0.855724
20327	5.380949	0.303816	8.725846	0.000803	0.016240	0.006974	0.586593	0.623517	0.516851	-0.737212	0.675302	0.022019	-0.335301	-0.393945	0.855792
20328	5.335756	0.245065	8.701105	-0.004816	0.015388	0.008133	0.586523	0.623724	0.516681	-0.737333	0.675172	0.021952	-0.335157	-0.393841	0.855896
20329	5.332684	0.274076	8.753888	-0.001752	0.017091	0.005025	0.586568	0.623781	0.516561	-0.737317	0.675191	0.021906	-0.335113	-0.393719	0.855970
20330	5.280804	0.228660	8.709898	-0.005654	0.019088	0.007558	0.586543	0.623912	0.516430	-0.737378	0.675127	0.021851	-0.335023	-0.393621	0.856050
20331	5.293129	0.234937	8.741677	0.002857	0.010834	0.008999	0.586538	0.623971	0.516365	-0.737401	0.675103	0.021824	-0.334982	-0.393569	0.856090
20332	5.300083	0.288501	8.746120	-0.001414	0.008836	0.005675	0.586523	0.624059	0.516276	-0.737441	0.675060	0.021788	-0.334921	-0.393502	0.856145
20333	5.335490	0.292638	8.768214	0.005040	0.005987	0.005090	0.586530	0.624073	0.516251	-0.737448	0.675052	0.021800	-0.334892	-0.393495	0.856160
20334	5.327883	0.272290	8.756866	-0.000579	0.005136	0.006247	0.586542	0.624059	0.516255	-0.737428	0.675075	0.021784	-0.334916	-0.393478	0.856158
20335	5.321005	0.285403	8.737774	0.000096	0.004562	0.004007	0.586553	0.624059	0.516242	-0.737412	0.675093	0.021759	-0.334932	-0.393446	0.856166
20336	5.357352	0.226000	8.715740	-0.000372	0.012259	0.009288	0.586614	0.624020	0.516220	-0.737344	0.675167	0.021733	-0.334973	-0.393381	0.856180
20337	5.302791	0.239902	8.775101	-0.004754	0.007701	0.006930	0.586614	0.624052	0.516181	-0.737330	0.675186	0.021652	-0.335006	-0.393297	0.856206
20338	5.347422	0.267822	8.749413	0.000687	0.013680	0.007930	0.586588	0.624165	0.516075	-0.737396	0.675114	0.021634	-0.334906	-0.393242	0.856270
20339	5.339333	0.247054	8.738369	-0.003422	0.008556	0.007420	0.586587	0.624204	0.516028	-0.737388	0.675125	0.021562	-0.334924	-0.393161	0.856300
20340	5.346190	0.300312	8.742910	-0.001593	0.013965	0.007829	0.586529	0.624369	0.515895	-0.737492	0.675013	0.021522	-0.334798	-0.393091	0.856382
20341	5.299425	0.271272	8.769902	-0.001594	0.013965	0.007828	0.586543	0.624432	0.515802	-0.737493	0.675013	0.021463	-0.334771	-0.392990	0.856439
20342	5.373795	0.219917	8.710251	-0.001979	0.011971	0.006944	0.586593	0.624417	0.515764	-0.737443	0.675069	0.021432	-0.334794	-0.392918	0.856463
20343	5.297975	0.303599	8.763532	-0.006267	0.011976	0.008590	0.586594	0.624478	0.515688	-0.737433	0.675084	0.021330	-0.334813	-0.392798	0.856511
20344	5.341711	0.297691	8.745737	-0.000263	0.014820	0.008317	0.586582	0.624554	0.515611	-0.737472	0.675041	0.021311	-0.334748	-0.392750	0.856558
20345	5.303069	0.225288	8.740168	-0.007892	0.013690	0.011217	0.586569	0.624639	0.515521	-0.737472	0.675045	0.021181	-0.334770	-0.392607	0.856615
20346	5.300954	0.287524	8.785065	-0.003989	0.011691	0.008688	0.586684	0.624535	0.515517	-0.737330	0.675202	0.021128	-0.334883	-0.392502	0.856619
20347	5.330488	0.241055	8.743935	-0.005209	0.013398	0.007229	0.586700	0.624592	0.515430	-0.737316	0.675221	0.021041	-0.334886	-0.392379	0.856674
20348	5.300735	0.256345	8.734384	-0.004083	0.007129	0.004682	0.586778	0.624504	0.515448	-0.737213	0.675334	0.021014	-0.334977	-0.392325	0.856663
20349	5.304616	0.271942	8.806156	-0.001711	0.011405	0.008787	0.586776	0.624564	0.515378	-0.737219	0.675329	0.020949	-0.334966	-0.392239	0.856707
20350	5.306835	0.178691	8.710368	0.002259	0.001715	0.005070	0.586808	0.624484	0.515438	-0.737167	0.675385	0.020968	-0.335025	-0.392268	0.856671
20351	5.333954	0.322585	8.801479	-0.002751	0.007983	0.005173	0.586821	0.624506	0.515396	-0.737149	0.675407	0.020913	-0.335041	-0.392196	0.856697
20352	5.349890	0.236284	8.736610	0.004538	0.001428	0.005172	0.586863	0.624426	0.515445	-0.737097	0.675463	0.020949	-0.335083	-0.392227	0.856667
20353	5.326291	0.204841	8.753818	-0.007311	0.008556	0.004968	0.586880	0.624449	0.515398	-0.737062	0.675504	0.020856	-0.335130	-0.392121	0.856697
20354	5.320104	0.382516	8.756148	0.013819	0.013094	0.004839	0.586935	0.624427	0.515362	-0.737066	0.675495	0.020981	-0.335023	-0.392171	0.856716
20355	5.318354	0.120972	8.699059	-0.014941	0.007430	0.007863	0.586927	0.624465	0.515326	-0.737023	0.675547	0.020808	-0.335133	-0.392020	0.856742
20356	5.324062	0.334623	8.784282	0.012487	0.012239	0.004347	0.586878	0.624601	0.515217	-0.737163	0.675392	0.020912	-0.334912	-0.392071	0.856805
20357	5.338718	0.215127	8.727441	-0.000088	0.009692	0.006155	0.586890	0.624636	0.515161	-0.737159	0.675397	0.020875	-0.334899	-0.392006	0.856839
20358	5.293368	0.219858	8.746185	-0.003365	0.000868	0.006220	0.586930	0.624549	0.515221	-0.737074	0.675491	0.020834	-0.335015	-0.391984	0.856804
20359	5.327792	0.287205	8.812525	0.004993	0.011672	0.001308	0.586984	0.624558	0.515147	-0.737059	0.675506	0.020866	-0.334953	-0.391941	0.856848
20360	5.321697	0.237445	8.749387	0.003295	0.005137	0.008681	0.586989	0.624570	0.515128	-0.737059	0.675506	0.020858	-0.334945	-0.391923	0.856860
20361	5.314756	0.250851	8.730356	0.003817	0.007690	0.003629	0.587013	0.624580	0.515088	-0.737054	0.675512	0.020867	-0.334915	-0.391897	0.856883
20362	5.349969	0.255214	8.752627	0.003931	0.010251	0.002662	0.587020	0.624615	0.515038	-0.737087	0.675474	0.020919	-0.334828	-0.391908	0.856912
20363	5.326528	0.258029	8.762443	0.005916	0.012533	0.005883	0.587043	0.624659	0.514958	-0.737102	0.675457	0.020935	-0.334754	-0.391866	0.856960
20364	5.302245	0.227193	8.780014	0.004314	0.012246	0.003542	0.587065	0.624697	0.514887	-0.737125	0.675431	0.020975	-0.334667	-0.391850	0.857002
20365	5.347630	0.289409	8.746793	0.004583	0.011679	0.005389	0.587089	0.624735	0.514813	-0.737132	0.675423	0.020983	-0.334608	-0.391804	0.857045
20366	5.300849	0.261238	8.773594	0.006977	0.013953	0.004525	0.587043	0.624903	0.514662	-0.737268	0.675273	0.021038	-0.334391	-0.391794	0.857135
20367	5.322110	0.258857	8.765103	0.004966	0.013674	0.006268	0.587067	0.624954	0.514572	-0.737282	0.675258	0.021044	-0.334317	-0.391738	0.857189
20368	5.320811	0.258884	8.765890	0.001200	0.016235	0.002856	0.587034	0.625088	0.514448	-0.737379	0.675151	0.021066	-0.334162	-0.391709	0.857263
20369	5.306003	0.252335	8.735636	0.009255	0.013666	0.004626	0.587070	0.625128	0.514357	-0.737397	0.675129	0.021118	-0.334056	-0.391683	0.857316
20370	5.318299	0.259514	8.767396	0.004695	0.014241	0.004417	0.587078	0.625216	0.514243	-0.737451	0.675069	0.021152	-0.333924	-0.391647	0.857384
20371	5.288237	0.275837	8.757951	0.008574	0.014241	0.006860	0.587099	0.625273	0.514148	-0.737481	0.675036	0.021186	-0.333821	-0.391612	0.857440
20372	5.308833	0.239677	8.757138	0.000969	0.011114	0.004787	0.587133	0.625320	0.514053	-0.737480	0.675037	0.021175	-0.333763	-0.391537	0.857497
20373	5.308588	0.273338	8.750036	0.005910	0.012534	0.005875	0.587156	0.625364	0.513972	-0.737495	0.675020	0.021191	-0.333689	-0.391495	0.857545
20374	5.248576	0.238233	8.745575	0.002749	0.006272	0.004979	0.587275	0.625219	0.514013	-0.737359	0.675168	0.021215	-0.333781	-0.391471	0.857520
20375	5.291116	0.262757	8.779421	0.004760	0.006550	0.003235	0.587298	0.625222	0.513983	-0.737354	0.675172	0.021235	-0.333751	-0.391459	0.857537
20376	5.267184	0.232025	8.796731	0.004875	0.009111	0.002266	0.587316	0.625235	0.513947	-0.737373	0.675150	0.021291	-0.333679	-0.391475	0.857558
20377	5.306165	0.273947	8.751486	0.003466	0.000009	0.006528	0.587292	0.625235	0.513974	-0.737383	0.675139	0.021283	-0.333697	-0.391495	0.857542
20378	5.253968	0.259244	8.758258	0.007604	0.003126	0.002072	0.587315	0.625198	0.513992	-0.737382	0.675138	0.021362	-0.333660	-0.391555	0.857529
20379	5.305833	0.274572	8.751668	0.002662	0.001707	0.000984	0.587338	0.625167	0.514004	-0.737357	0.675165	0.021376	-0.333674	-0.391559	0.857522
20380	5.305775	0.274864	8.751693	0.006157	-0.000288	0.002549	0.587451	0.625005	0.514071	-0.737225	0.675307	0.021424	-0.333766	-0.391572	0.857480
20381	5.291597	0.234724	8.728315	0.005094	-0.001707	0.003905	0.587442	0.624980	0.514113	-0.737226	0.675306	0.021443	-0.333782	-0.391614	0.857455
20382	5.267414	0.267562	8.789280	0.009116	-0.001151	0.000417	0.587456	0.624925	0.514163	-0.737226	0.675302	0.021540	-0.333755	-0.391709	0.857422
20383	5.328727	0.273625	8.742175	0.007257	-0.004555	0.004978	0.587429	0.624896	0.514229	-0.737240	0.675286	0.021572	-0.333772	-0.391783	0.857381
20384	5.312956	0.263313	8.770522	0.008320	-0.003136	0.003621	0.587455	0.624806	0.514310	-0.737206	0.675321	0.021642	-0.333802	-0.391866	0.857331
20385	5.342759	0.281328	8.772857	0.004826	-0.001141	0.002056	0.587461	0.624771	0.514346	-0.737195	0.675332	0.021669	-0.333816	-0.391903	0.857309
20386	5.322234	0.254579	8.730096	0.004826	-0.001141	0.002056	0.587384	0.624814	0.514381	-0.737287	0.675230	0.021731	-0.333748	-0.392011	0.857286
20387	5.329422	0.275080	8.741706	0.005477	0.000288	0.004782	0.587374	0.624803	0.514406	-0.737294	0.675222	0.021749	-0.333749	-0.392043	0.857271
20388	5.335607	0.261978	8.761190	0.006923	0.003702	0.004304	0.587381	0.624765	0.514444	-0.737300	0.675214	0.021821	-0.333727	-0.392116	0.857246
20389	5.299348	0.258162	8.739504	0.005324	0.003414	0.001965	0.587402	0.624747	0.514441	-0.737289	0.675223	0.021852	-0.333711	-0.392128	0.857247
20390	5.312406	0.265300	8.770795	0.004760	0.006551	0.003230	0.587399	0.624761	0.514428	-0.737320	0.675188	0.021907	-0.333649	-0.392166	0.857254
20391	5.325326	0.272382	8.802171	0.004760	0.006551	0.003230	0.587422	0.624764	0.514398	-0.737316	0.675192	0.021927	-0.333619	-0.392154	0.857271
20392	5.305135	0.278935	8.751953	-0.000029	0.002006	0.004961	0.587353	0.624825	0.514403	-0.737389	0.675112	0.021929	-0.333578	-0.392196	0.857268
20393	5.252770	0.263779	8.758841	0.001685	0.004855	0.006330	0.587347	0.624842	0.514389	-0.737393	0.675109	0.021907	-0.333580	-0.392174	0.857277
20394	5.297412	0.258254	8.740675	0.001569	0.002295	0.007300	0.587387	0.624760	0.514443	-0.737326	0.675182	0.021903	-0.333659	-0.392178	0.857245
20395	5.325995	0.241889	8.751044	-0.000977	0.003148	0.005347	0.587382	0.624764	0.514443	-0.737314	0.675196	0.021863	-0.333690	-0.392149	0.857246
20396	5.290582	0.271215	8.721588	0.004911	0.003425	0.006047	0.587321	0.624850	0.514409	-0.737407	0.675093	0.021894	-0.333594	-0.392188	0.857265
20397	5.316518	0.251395	8.791557	0.002662	0.001707	0.000982	0.587344	0.624819	0.514421	-0.737383	0.675120	0.021907	-0.333608	-0.392192	0.857258
20398	5.326140	0.275634	8.743689	0.003580	0.002572	0.005555	0.587574	0.624498	0.514547	-0.737087	0.675442	0.021926	-0.333854	-0.392149	0.857182
20399	5.309867	0.264824	8.772347	0.000918	0.000865	0.004573	0.587568	0.624487	0.514567	-0.737078	0.675453	0.021906	-0.333886	-0.392147	0.857170
20400	5.338441	0.248579	8.782720	0.000086	0.004567	0.003990	0.587513	0.624566	0.514534	-0.737150	0.675374	0.021902	-0.333824	-0.392157	0.857190
20401	5.279667	0.247051	8.770234	0.003046	0.003702	0.001859	0.587537	0.624548	0.514529	-0.737131	0.675394	0.021915	-0.333823	-0.392151	0.857193
20402	5.337719	0.248550	8.783160	0.001684	0.004855	0.006328	0.587470	0.624661	0.514469	-0.737226	0.675291	0.021907	-0.333731	-0.392150	0.857229
20403	5.308798	0.264406	8.773006	0.000800	-0.001695	0.005543	0.587448	0.624647	0.514510	-0.737222	0.675296	0.021882	-0.333778	-0.392163	0.857205
20404	5.286364	0.267014	8.782155	0.002929	0.001141	0.002829	0.587340	0.624757	0.514501	-0.737358	0.675147	0.021918	-0.333671	-0.392244	0.857210
20405	5.301440	0.244065	8.761494	0.000086	0.004567	0.003989	0.587350	0.624757	0.514489	-0.737342	0.675165	0.021894	-0.333686	-0.392213	0.857218
20406	5.346879	0.272305	8.735597	0.003312	0.003137	0.003707	0.587312	0.624821	0.514455	-0.737408	0.675092	0.021920	-0.333608	-0.392237	0.857237
20407	5.308200	0.264082	8.773378	-0.001478	-0.001406	0.005439	0.587292	0.624807	0.514494	-0.737396	0.675107	0.021876	-0.333670	-0.392233	0.857215
20408	5.295355	0.290659	8.734696	0.002748	0.006274	0.004970	0.587244	0.624882	0.514458	-0.737472	0.675023	0.021901	-0.333585	-0.392259	0.857236
20409	5.322889	0.241029	8.752958	0.003046	0.003701	0.001859	0.587268	0.624864	0.514452	-0.737454	0.675042	0.021913	-0.333584	-0.392254	0.857239
20410	5.317165	0.287883	8.725936	-0.000445	0.002020	0.009040	0.587289	0.624805	0.514501	-0.737401	0.675101	0.021887	-0.333665	-0.392247	0.857210
20411	5.319764	0.236748	8.812856	0.003312	0.003136	0.003706	0.587296	0.624797	0.514501	-0.737394	0.675108	0.021892	-0.333665	-0.392247	0.857210
20412	5.331814	0.264646	8.705550	-0.000478	0.007705	0.005251	0.587179	0.624976	0.514417	-0.737553	0.674934	0.021885	-0.333520	-0.392261	0.857261
20413	5.276449	0.245572	8.772211	0.000736	0.005998	0.006712	0.587175	0.625000	0.514393	-0.737556	0.674932	0.021853	-0.333522	-0.392225	0.857276
20414	5.327256	0.226569	8.773577	0.000086	0.004568	0.003987	0.587116	0.625073	0.514371	-0.737631	0.674851	0.021859	-0.333460	-0.392250	0.857289
20415	5.304432	0.229104	8.782953	0.002630	0.003713	0.005939	0.587110	0.625083	0.514367	-0.737635	0.674846	0.021848	-0.333462	-0.392242	0.857292
20416	5.336304	0.250294	8.726102	-0.001809	0.006852	0.004759	0.587157	0.625027	0.514381	-0.737572	0.674915	0.021832	-0.333518	-0.392211	0.857284
20417	5.274669	0.244908	8.773300	0.005707	0.005407	0.002840	0.587179	0.625023	0.514361	-0.737569	0.674918	0.021862	-0.333487	-0.392213	0.857295
20418	5.303935	0.262447	8.776006	-0.000979	0.003150	0.005343	0.587141	0.625037	0.514388	-0.737596	0.674888	0.021856	-0.333494	-0.392243	0.857279
20419	5.319951	0.272994	8.747538	0.003194	0.000576	0.004676	0.587133	0.625026	0.514410	-0.737595	0.674889	0.021856	-0.333510	-0.392258	0.857266
20420	5.267810	0.257934	8.754234	-0.001097	0.000590	0.006314	0.587070	0.625036	0.514470	-0.737635	0.674846	0.021849	-0.333531	-0.392318	0.857230
20421	5.342217	0.269847	8.738525	0.002630	0.003713	0.005938	0.587063	0.625046	0.514465	-0.737640	0.674841	0.021837	-0.333533	-0.392310	0.857233
20422	5.318749	0.238831	8.755534	0.001862	-0.000277	0.004185	0.587108	0.624961	0.514517	-0.737572	0.674915	0.021843	-0.333604	-0.392317	0.857202
20423	5.318583	0.238796	8.755635	0.002364	0.004278	0.004091	0.587117	0.624961	0.514507	-0.737565	0.674923	0.021839	-0.333604	-0.392304	0.857208
20424	5.318333	0.238523	8.755795	-0.002045	0.001733	0.006699	0.587043	0.625039	0.514497	-0.737636	0.674847	0.021804	-0.333578	-0.392312	0.857215
20425	5.295785	0.241060	8.764996	0.005471	0.000286	0.004780	0.587033	0.625028	0.514522	-0.737643	0.674838	0.021823	-0.333579	-0.392344	0.857200
20426	5.310898	0.315003	8.780558	-0.000449	0.002021	0.009036	0.587209	0.624783	0.514618	-0.737397	0.675108	0.021783	-0.333813	-0.392269	0.857143
20427	5.289231	0.253827	8.745757	-0.002311	0.002298	0.004851	0.587205	0.624781	0.514625	-0.737379	0.675130	0.021734	-0.333860	-0.392236	0.857140
20428	5.310646	0.216811	8.744510	-0.006602	0.002313	0.006488	0.587226	0.624719	0.514677	-0.737307	0.675210	0.021664	-0.333981	-0.392196	0.857111
20429	5.332922	0.310774	8.771734	0.005471	0.000285	0.004780	0.587217	0.624707	0.514701	-0.737315	0.675202	0.021682	-0.333982	-0.392229	0.857095
20430	5.280938	0.198413	8.742080	-0.010330	-0.000808	0.006863	0.587253	0.624596	0.514795	-0.737197	0.675334	0.021582	-0.334178	-0.392179	0.857042
20431	5.295364	0.238165	8.765330	0.002127	-0.000842	0.006031	0.587231	0.624588	0.514830	-0.737200	0.675331	0.021566	-0.334211	-0.392196	0.857021
20432	5.369915	0.250088	8.749548	-0.000033	0.002008	0.004956	0.587309	0.624463	0.514892	-0.737083	0.675459	0.021550	-0.334331	-0.392174	0.856984
20433	5.333117	0.212077	8.735410	-0.002397	-0.002270	0.000866	0.587320	0.624415	0.514937	-0.737040	0.675506	0.021522	-0.334405	-0.392170	0.856958
20434	5.308678	0.244108	8.796498	-0.002874	0.005436	0.006112	0.587166	0.624615	0.514872	-0.737222	0.675309	0.021489	-0.334275	-0.392193	0.856998
20435	5.318209	0.268080	8.748749	0.007186	0.003132	0.006147	0.587156	0.624623	0.514872	-0.737243	0.675285	0.021516	-0.334246	-0.392219	0.856997
20436	5.339660	0.231673	8.747454	-0.002695	0.000304	0.003974	0.587082	0.624653	0.514921	-0.737298	0.675225	0.021506	-0.334253	-0.392276	0.856968
20437	5.295410	0.270485	8.758105	0.002364	0.004277	0.004090	0.587091	0.624652	0.514911	-0.737291	0.675233	0.021502	-0.334254	-0.392263	0.856974
20438	5.294258	0.236718	8.766037	-0.000033	0.002008	0.004955	0.587109	0.624602	0.514952	-0.737252	0.675276	0.021495	-0.334308	-0.392269	0.856950
20439	5.317643	0.267484	8.749112	0.001477	-0.002273	0.003308	0.587102	0.624570	0.514998	-0.737237	0.675292	0.021487	-0.334354	-0.392291	0.856922
20440	5.324065	0.253890	8.768446	-0.000152	-0.000552	0.005926	0.587148	0.624476	0.515060	-0.737155	0.675382	0.021472	-0.334453	-0.392287	0.856885
20441	5.362665	0.261585	8.730784	0.001563	0.002295	0.007292	0.587127	0.624489	0.515068	-0.737164	0.675373	0.021444	-0.334471	-0.392280	0.856881
20442	5.310378	0.246517	8.737544	-0.001629	0.001721	0.002617	0.587091	0.624538	0.515050	-0.737207	0.675326	0.021437	-0.334439	-0.392284	0.856892
20443	5.362213	0.261213	8.731072	0.003696	0.005129	0.004580	0.587099	0.624544	0.515033	-0.737208	0.675326	0.021441	-0.334424	-0.392275	0.856902
20444	5.293536	0.235587	8.766503	0.000616	0.003438	0.007677	0.587018	0.624641	0.515008	-0.737298	0.675228	0.021421	-0.334368	-0.392289	0.856918
20445	5.316574	0.266223	8.749800	0.000086	0.004568	0.003983	0.587029	0.624641	0.514996	-0.737282	0.675246	0.021398	-0.334383	-0.392259	0.856925
20446	5.315195	0.232383	8.757865	0.000471	0.006563	0.004859	0.586963	0.624712	0.514984	-0.737360	0.675160	0.021402	-0.334327	-0.392292	0.856932
20447	5.301238	0.225270	8.727119	-0.000596	0.005147	0.006215	0.586959	0.624730	0.514968	-0.737356	0.675167	0.021362	-0.334344	-0.392253	0.856943
20448	5.321603	0.252174	8.769990	0.004522	0.001426	0.005165	0.587009	0.624614	0.515052	-0.737282	0.675247	0.021402	-0.334419	-0.392301	0.856892
20449	5.314371	0.231992	8.758375	0.003455	0.000009	0.006520	0.586986	0.624613	0.515079	-0.737292	0.675235	0.021394	-0.334436	-0.392322	0.856876
20450	5.299017	0.254772	8.779203	-0.001629	0.001722	0.002617	0.587031	0.624521	0.515139	-0.737218	0.675317	0.021393	-0.334521	-0.392328	0.856840
20451	5.349972	0.235780	8.780501	0.003960	0.004564	0.006425	0.587024	0.624538	0.515127	-0.737230	0.675304	0.021390	-0.334508	-0.392324	0.856847
20452	5.313780	0.231657	8.758743	0.002244	0.001717	0.005059	0.587081	0.624422	0.515201	-0.737145	0.675395	0.021414	-0.334593	-0.392350	0.856802
20453	5.323464	0.255704	8.710926	0.002364	0.004277	0.004088	0.587090	0.624422	0.515192	-0.737138	0.675403	0.021410	-0.334593	-0.392337	0.856808
20454	5.335575	0.228730	8.750023	-0.000861	0.005712	0.004367	0.587183	0.624315	0.515215	-0.737022	0.675530	0.021396	-0.334686	-0.392288	0.856794
20455	5.335784	0.262216	8.742687	0.003253	0.010827	0.004867	0.587208	0.624346	0.515150	-0.737023	0.675529	0.021395	-0.334641	-0.392241	0.856833
20456	5.288401	0.200450	8.776862	0.005169	0.002856	0.007885	0.587114	0.624440	0.515143	-0.737138	0.675402	0.021423	-0.334551	-0.392309	0.856837
20457	5.312254	0.264868	8.752464	-0.000740	0.008272	0.003394	0.587141	0.624451	0.515099	-0.737117	0.675427	0.021396	-0.334551	-0.392250	0.856864
20458	5.288293	0.233876	8.769714	0.000505	0.004555	-0.000096	0.587242	0.624354	0.515101	-0.737012	0.675540	0.021410	-0.334604	-0.392209	0.856862
20459	5.288000	0.234007	8.769887	0.005852	0.002277	0.005654	0.587233	0.624356	0.515110	-0.737026	0.675525	0.021428	-0.334591	-0.392232	0.856856
20460	5.311494	0.264997	8.752922	0.002684	-0.003981	0.004770	0.587237	0.624282	0.515193	-0.736994	0.675559	0.021449	-0.334653	-0.392290	0.856806
20461	5.310697	0.231416	8.760619	0.002926	0.001139	0.002827	0.587245	0.624261	0.515210	-0.736981	0.675573	0.021457	-0.334668	-0.392300	0.856795
20462	5.326837	0.242056	8.732116	0.000912	0.000866	0.004567	0.587309	0.624144	0.515278	-0.736884	0.675679	0.021460	-0.334769	-0.392303	0.856754
20463	5.311663	0.264967	8.752820	0.004015	-0.003129	0.005260	0.587285	0.624123	0.515333	-0.736889	0.675673	0.021463	-0.334800	-0.392348	0.856721
20464	5.324397	0.238208	8.791529	0.001210	-0.001708	0.001462	0.587276	0.624099	0.515371	-0.736889	0.675672	0.021481	-0.334816	-0.392386	0.856698
20465	5.327251	0.242050	8.731864	0.003453	0.000010	0.006519	0.587252	0.624098	0.515399	-0.736900	0.675661	0.021473	-0.334833	-0.392408	0.856681
20466	5.304550	0.244942	8.741128	0.005709	0.005401	0.002835	0.587292	0.624064	0.515396	-0.736876	0.675685	0.021519	-0.334816	-0.392421	0.856682
20467	5.317769	0.252038	8.772320	0.003872	-0.000005	0.002442	0.587299	0.624035	0.515423	-0.736864	0.675698	0.021536	-0.334830	-0.392445	0.856665
20468	5.317590	0.252138	8.772425	0.002364	0.004277	0.004085	0.587283	0.624054	0.515417	-0.736891	0.675668	0.021556	-0.334799	-0.392466	0.856668
20469	5.323550	0.238634	8.792029	-0.000299	0.002574	0.003105	0.587294	0.624040	0.515422	-0.736869	0.675693	0.021534	-0.334829	-0.392446	0.856666
20470	5.326150	0.242343	8.732527	0.002242	0.001718	0.005057	0.587248	0.624067	0.515441	-0.736915	0.675642	0.021545	-0.334808	-0.392489	0.856654
20471	5.315937	0.218107	8.780654	0.000349	0.004005	0.005825	0.587243	0.624077	0.515435	-0.736911	0.675647	0.021515	-0.334825	-0.392464	0.856659
20472	5.325635	0.242161	8.732846	0.003993	0.002554	0.001470	0.587195	0.624119	0.515440	-0.736982	0.675568	0.021569	-0.334753	-0.392536	0.856654
20473	5.362430	0.280159	8.747028	0.008006	-0.000575	0.006729	0.587168	0.624117	0.515473	-0.737010	0.675537	0.021600	-0.334740	-0.392591	0.856634
20474	5.255989	0.183297	8.775993	-0.005416	0.006299	0.004151	0.587053	0.624273	0.515414	-0.737141	0.675395	0.021556	-0.334652	-0.392587	0.856670
20475	5.309680	0.265252	8.754015	0.010142	0.002256	0.004017	0.587056	0.624264	0.515422	-0.737159	0.675373	0.021619	-0.334607	-0.392640	0.856663
20476	5.340097	0.219694	8.712573	0.002925	0.001139	0.002826	0.587041	0.624253	0.515453	-0.737174	0.675356	0.021647	-0.334600	-0.392686	0.856645
20477	5.324689	0.242818	8.733405	0.004256	0.001990	0.003315	0.587047	0.624238	0.515463	-0.737169	0.675361	0.021664	-0.334600	-0.392701	0.856638
20478	5.315552	0.252739	8.773643	0.007480	0.000554	0.003037	0.587070	0.624175	0.515514	-0.737149	0.675381	0.021730	-0.334605	-0.392768	0.856606
20479	5.324492	0.243497	8.733506	0.002662	0.001703	0.000979	0.587093	0.624143	0.515526	-0.737125	0.675407	0.021745	-0.334618	-0.392773	0.856598
20480	5.301759	0.246570	8.742775	0.006655	0.004257	0.002448	0.587040	0.624214	0.515500	-0.737218	0.675303	0.021810	-0.334505	-0.392839	0.856612
20481	5.373309	0.254939	8.786825	0.003572	0.002570	0.005545	0.587033	0.624216	0.515506	-0.737223	0.675297	0.021809	-0.334506	-0.392845	0.856608
20482	5.352342	0.227938	8.744332	0.003694	0.005129	0.004572	0.587043	0.624209	0.515504	-0.737222	0.675298	0.021830	-0.334492	-0.392856	0.856609
20483	5.345553	0.241444	8.725232	0.003816	0.007689	0.003599	0.587067	0.624218	0.515465	-0.737217	0.675303	0.021841	-0.334462	-0.392832	0.856632
20484	5.329576	0.264615	8.746400	0.005147	0.008540	0.004088	0.586927	0.624432	0.515365	-0.737429	0.675069	0.021891	-0.334238	-0.392894	0.856691
20485	5.299210	0.247208	8.744302	0.001801	0.007418	0.005339	0.586937	0.624452	0.515329	-0.737428	0.675072	0.021876	-0.334224	-0.392858	0.856713
20486	5.311906	0.254039	8.775813	0.004200	0.009684	0.004471	0.586977	0.624440	0.515299	-0.737406	0.675095	0.021900	-0.334200	-0.392839	0.856731
20487	5.303727	0.234016	8.764772	0.004060	0.012808	0.001652	0.587033	0.624456	0.515216	-0.737390	0.675111	0.021923	-0.334138	-0.392784	0.856780
20488	5.348763	0.262311	8.739286	0.005408	0.007977	0.005933	0.587194	0.624294	0.515229	-0.737220	0.675296	0.021947	-0.334231	-0.392724	0.856772
20489	5.286980	0.257343	8.786382	0.003692	0.005130	0.004570	0.587202	0.624300	0.515212	-0.737220	0.675296	0.021952	-0.334216	-0.392715	0.856781
20490	5.273118	0.250594	8.755575	0.003692	0.005130	0.004570	0.587127	0.624401	0.515175	-0.737330	0.675175	0.021985	-0.334106	-0.392762	0.856803
20491	5.311350	0.258511	8.718235	0.002484	0.006838	0.003107	0.587151	0.624404	0.515144	-0.737317	0.675189	0.021987	-0.334090	-0.392734	0.856822
20492	5.323389	0.231761	8.757362	0.003569	0.002571	0.005543	0.587177	0.624360	0.515167	-0.737286	0.675222	0.022004	-0.334114	-0.392746	0.856807
20493	5.330402	0.252092	8.769101	0.004254	0.001990	0.003314	0.587184	0.624345	0.515177	-0.737281	0.675227	0.022020	-0.334114	-0.392760	0.856801
20494	5.316681	0.245397	8.738211	0.003692	0.005130	0.004569	0.587065	0.624500	0.515126	-0.737443	0.675049	0.022050	-0.333965	-0.392821	0.856831
20495	5.338836	0.242796	8.729306	0.003992	0.002554	0.001468	0.587087	0.624475	0.515131	-0.737426	0.675067	0.022074	-0.333963	-0.392830	0.856827
20496	5.374360	0.246976	8.751506	0.002745	0.006275	0.004952	0.587101	0.624475	0.515116	-0.737424	0.675068	0.022091	-0.333943	-0.392828	0.856836
20497	5.322504	0.266071	8.750661	0.006475	0.009392	0.004573	0.587123	0.624497	0.515063	-0.737434	0.675057	0.022120	-0.333883	-0.392811	0.856867
20498	5.314480	0.245841	8.739537	-0.000094	0.009708	0.006099	0.587103	0.624544	0.515029	-0.737467	0.675021	0.022112	-0.333845	-0.392799	0.856888
20499	5.327015	0.252516	8.771146	0.001660	0.010542	0.002513	0.587144	0.624558	0.514965	-0.737448	0.675042	0.022110	-0.333814	-0.392742	0.856926
20500	5.313663	0.279447	8.732814	0.005267	0.011100	0.003109	0.587249	0.624478	0.514943	-0.737362	0.675135	0.022153	-0.333822	-0.392708	0.856938
20501	5.310919	0.212357	8.748917	0.002744	0.006275	0.004950	0.587258	0.624491	0.514917	-0.737361	0.675136	0.022148	-0.333808	-0.392686	0.856954
20502	5.311305	0.245933	8.741464	0.001536	0.007983	0.003486	0.587273	0.624501	0.514887	-0.737364	0.675132	0.022168	-0.333773	-0.392678	0.856971
20503	5.271811	0.238209	8.779514	0.005143	0.008541	0.004082	0.587296	0.624517	0.514842	-0.737366	0.675129	0.022188	-0.333728	-0.392658	0.856998
20504	5.307159	0.242471	8.801829	0.004636	0.003986	0.004185	0.587366	0.624445	0.514849	-0.737300	0.675200	0.022219	-0.333751	-0.392649	0.856993
20505	5.294423	0.269556	8.763119	0.005061	0.003968	0.000110	0.587403	0.624416	0.514841	-0.737279	0.675222	0.022259	-0.333733	-0.392657	0.856996
20506	5.331870	0.244055	8.733528	0.003045	0.003698	0.001849	0.587582	0.624203	0.514896	-0.737073	0.675446	0.022286	-0.333874	-0.392611	0.856963
20507	5.316343	0.267126	8.754374	0.003826	0.002008	0.007387	0.587559	0.624216	0.514907	-0.737090	0.675428	0.022278	-0.333877	-0.392622	0.856956
20508	5.343855	0.217407	8.772682	0.004252	0.001990	0.003313	0.587460	0.624324	0.514888	-0.737223	0.675281	0.022324	-0.333757	-0.392702	0.856967
20509	5.329260	0.274310	8.785731	0.005705	0.005400	0.002827	0.587482	0.624320	0.514869	-0.737219	0.675283	0.022356	-0.333726	-0.392705	0.856977
20510	5.300848	0.227208	8.731778	0.002866	0.008835	0.003972	0.587560	0.624253	0.514860	-0.737145	0.675364	0.022374	-0.333752	-0.392673	0.856982
20511	5.314603	0.267670	8.755413	0.002742	0.006276	0.004947	0.587570	0.624266	0.514834	-0.737144	0.675365	0.022369	-0.333737	-0.392650	0.856998
20512	5.290530	0.237104	8.772661	0.006775	0.006814	0.001469	0.587693	0.624146	0.514839	-0.737035	0.675482	0.022437	-0.333760	-0.392640	0.856993
20513	5.289900	0.237434	8.773032	0.003812	0.007690	0.003589	0.587717	0.624155	0.514800	-0.737030	0.675487	0.022448	-0.333730	-0.392616	0.857016
20514	5.312900	0.268416	8.756424	0.006225	0.004274	0.006518	0.587667	0.624197	0.514806	-0.737102	0.675407	0.022500	-0.333660	-0.392686	0.857012
20515	5.305314	0.248425	8.745031	0.005964	0.004837	0.004671	0.587673	0.624203	0.514792	-0.737110	0.675397	0.022524	-0.333630	-0.392695	0.857019
20516	5.295763	0.258388	8.785437	0.005704	0.005400	0.002825	0.587607	0.624289	0.514764	-0.737219	0.675276	0.022589	-0.333506	-0.392767	0.857034
20517	5.290958	0.242093	8.714526	0.004071	0.007127	0.005434	0.587615	0.624308	0.514731	-0.737226	0.675268	0.022593	-0.333476	-0.392749	0.857054
20518	5.311032	0.269113	8.757536	0.001671	0.004863	0.006302	0.587668	0.624253	0.514737	-0.737166	0.675334	0.022595	-0.333515	-0.392725	0.857050
20519	5.346531	0.273155	8.779783	0.004634	0.003986	0.004182	0.587675	0.624251	0.514731	-0.737167	0.675332	0.022610	-0.333500	-0.392730	0.857054
20520	5.316407	0.255680	8.777488	0.000724	0.006008	0.006682	0.587775	0.624149	0.514741	-0.737047	0.675463	0.022591	-0.333589	-0.392667	0.857048
20521	5.272803	0.231379	8.744169	0.003168	0.006257	0.000871	0.587814	0.624134	0.514714	-0.737024	0.675488	0.022611	-0.333571	-0.392648	0.857063
20522	5.279603	0.251539	8.756031	-0.000990	0.003161	0.005324	0.587793	0.624148	0.514721	-0.737037	0.675474	0.022593	-0.333579	-0.392649	0.857060
20523	5.322518	0.275647	8.789775	0.004768	0.000865	0.007003	0.587769	0.624154	0.514742	-0.737055	0.675454	0.022595	-0.333582	-0.392674	0.857047
20524	5.301864	0.248412	8.747123	-0.001374	0.001165	0.004454	0.587746	0.624178	0.514739	-0.737074	0.675435	0.022576	-0.333581	-0.392669	0.857050
20525	5.324319	0.245293	8.738099	-0.000428	0.000020	0.004073	0.587741	0.624161	0.514766	-0.737058	0.675454	0.022548	-0.333627	-0.392665	0.857034
20526	5.324477	0.244963	8.738012	-0.001882	-0.003390	0.004560	0.587821	0.623998	0.514872	-0.736915	0.675610	0.022519	-0.333801	-0.392654	0.856971
20527	5.322838	0.274492	8.789618	-0.000552	-0.002539	0.005049	0.587800	0.623977	0.514922	-0.736904	0.675623	0.022485	-0.333863	-0.392664	0.856942
20528	5.285917	0.236504	8.775457	-0.002579	0.002873	0.002989	0.587644	0.624155	0.514884	-0.737084	0.675428	0.022473	-0.333740	-0.392718	0.856965
20529	5.330767	0.230461	8.757435	-0.001114	0.000602	0.006299	0.587624	0.624155	0.514907	-0.737078	0.675435	0.022428	-0.333787	-0.392706	0.856953
20530	5.330748	0.230013	8.757458	-0.004293	0.000027	0.001630	0.587595	0.624147	0.514949	-0.737081	0.675432	0.022403	-0.333830	-0.392723	0.856928
20531	5.309161	0.266260	8.758757	0.004893	0.003422	0.006027	0.587587	0.624156	0.514947	-0.737094	0.675418	0.022411	-0.333817	-0.392733	0.856929
20532	5.307848	0.232621	8.766768	0.001286	0.002867	0.005430	0.587587	0.624122	0.514989	-0.737079	0.675434	0.022418	-0.333850	-0.392760	0.856903
20533	5.337256	0.249932	8.769513	0.002357	0.004280	0.004073	0.587595	0.624121	0.514980	-0.737072	0.675442	0.022414	-0.333850	-0.392748	0.856909
20534	5.292982	0.289135	8.779979	0.002616	0.003717	0.005918	0.587415	0.624338	0.514923	-0.737302	0.675191	0.022438	-0.333662	-0.392834	0.856943
20535	5.314147	0.252576	8.778947	0.001286	0.002867	0.005430	0.587409	0.624341	0.514926	-0.737299	0.675194	0.022419	-0.333678	-0.392824	0.856941
20536	5.336229	0.249457	8.770152	-0.001811	0.006866	0.004726	0.587401	0.624361	0.514911	-0.737306	0.675187	0.022400	-0.333676	-0.392805	0.856951
20537	5.322358	0.242314	8.739376	0.001670	0.004863	0.006299	0.587395	0.624377	0.514898	-0.737310	0.675184	0.022379	-0.333678	-0.392785	0.856959
20538	5.306615	0.265252	8.760331	0.001152	0.005988	0.002608	0.587416	0.624372	0.514881	-0.737300	0.675194	0.022394	-0.333662	-0.392777	0.856969
20539	5.283567	0.267963	8.769717	0.002054	0.006859	0.007167	0.587411	0.624402	0.514850	-0.737311	0.675183	0.022372	-0.333649	-0.392747	0.856988
20540	5.327981	0.262102	8.751977	0.002053	0.006859	0.007167	0.587293	0.624548	0.514807	-0.737457	0.675024	0.022375	-0.333533	-0.392788	0.857014
20541	5.311042	0.251479	8.780857	0.002482	0.006838	0.003095	0.587318	0.624551	0.514776	-0.737445	0.675037	0.022377	-0.333517	-0.392761	0.857033
20542	5.312459	0.221513	8.729407	0.001669	0.004863	0.006297	0.587351	0.624490	0.514812	-0.737394	0.675092	0.022381	-0.333568	-0.392765	0.857011
20543	5.290585	0.257934	8.730868	0.003428	0.005693	0.002715	0.587375	0.624485	0.514790	-0.737383	0.675103	0.022394	-0.333552	-0.392751	0.857024
20544	5.309814	0.251266	8.781606	0.000471	0.000891	0.008630	0.587238	0.624619	0.514785	-0.737526	0.674948	0.022374	-0.333477	-0.392806	0.857027
20545	5.303526	0.264582	8.762221	0.005578	0.002838	0.003799	0.587244	0.624611	0.514788	-0.737528	0.674944	0.022400	-0.333462	-0.392825	0.857025
20546	5.309685	0.251740	8.781670	0.008720	-0.003178	-0.000436	0.587287	0.624517	0.514851	-0.737494	0.674978	0.022502	-0.333461	-0.392915	0.856984
20547	5.326151	0.262591	8.753077	0.000900	0.000871	0.004559	0.587281	0.624507	0.514872	-0.737486	0.674988	0.022484	-0.333491	-0.392915	0.856972
20548	5.325003	0.229057	8.760978	0.005194	0.000842	0.002930	0.587199	0.624587	0.514867	-0.737595	0.674868	0.022533	-0.333393	-0.392994	0.856974
20549	5.325185	0.229382	8.760859	0.005630	-0.004858	0.002658	0.587188	0.624541	0.514936	-0.737591	0.674871	0.022565	-0.333422	-0.393062	0.856932
20550	5.296680	0.245876	8.750335	0.004248	0.001988	0.003310	0.587298	0.624365	0.515023	-0.737447	0.675027	0.022596	-0.333546	-0.393073	0.856878
20551	5.309962	0.252927	8.781468	0.003864	-0.000008	0.002441	0.587304	0.624337	0.515051	-0.737436	0.675039	0.022615	-0.333560	-0.393098	0.856861
20552	5.332408	0.250248	8.772453	0.004506	0.001426	0.005155	0.587137	0.624476	0.515074	-0.737626	0.674829	0.022662	-0.333435	-0.393237	0.856846
20553	5.318984	0.243569	8.741396	0.005452	0.000280	0.004774	0.587127	0.624464	0.515099	-0.737634	0.674820	0.022682	-0.333435	-0.393272	0.856830
20554	5.302495	0.233298	8.769989	0.005578	0.002839	0.003797	0.587076	0.624496	0.515118	-0.737700	0.674746	0.022732	-0.333377	-0.393348	0.856818
20555	5.325955	0.264199	8.753147	0.001588	0.000288	0.002333	0.587084	0.624468	0.515142	-0.737681	0.674767	0.022731	-0.333406	-0.393356	0.856803
20556	5.318649	0.244175	8.741582	0.006524	0.001693	0.003417	0.586948	0.624617	0.515117	-0.737865	0.674563	0.022799	-0.333238	-0.393468	0.856817
20557	5.318424	0.244326	8.741715	0.002614	0.003719	0.005914	0.586941	0.624627	0.515113	-0.737870	0.674558	0.022789	-0.333239	-0.393462	0.856819
20558	5.324145	0.230997	8.761448	0.005016	0.005981	0.005044	0.586978	0.624583	0.515124	-0.737837	0.674593	0.022821	-0.333245	-0.393473	0.856812
20559	5.318687	0.278142	8.734336	0.004632	0.003985	0.004176	0.586985	0.624582	0.515117	-0.737839	0.674590	0.022836	-0.333230	-0.393478	0.856816
20560	5.301921	0.267767	8.763096	0.005274	0.005419	0.006889	0.587052	0.624513	0.515125	-0.737772	0.674662	0.022859	-0.333260	-0.393465	0.856810
20561	5.294191	0.247705	8.751790	0.003171	0.006255	0.000865	0.587090	0.624498	0.515099	-0.737750	0.674686	0.022879	-0.333242	-0.393446	0.856825
20562	5.316213	0.244868	8.743044	0.001668	0.004865	0.006292	0.587088	0.624500	0.515100	-0.737749	0.674687	0.022872	-0.333248	-0.393442	0.856825
20563	5.322253	0.231350	8.762589	0.003305	-0.002544	0.007488	0.587048	0.624496	0.515150	-0.737766	0.674669	0.022859	-0.333281	-0.393479	0.856795
20564	5.285730	0.290812	8.784292	0.001845	-0.000274	0.004178	0.587076	0.624439	0.515186	-0.737723	0.674716	0.022867	-0.333326	-0.393489	0.856773
20565	5.287655	0.260717	8.732561	0.001156	0.000311	0.006402	0.587054	0.624439	0.515212	-0.737726	0.674713	0.022841	-0.333357	-0.393495	0.856758
20566	5.331491	0.221325	8.722414	0.002917	0.001138	0.002820	0.587025	0.624445	0.515238	-0.737760	0.674675	0.022876	-0.333334	-0.393551	0.856742
20567	5.317273	0.278079	8.735200	0.003174	0.000576	0.004665	0.587017	0.624433	0.515261	-0.737760	0.674676	0.022877	-0.333349	-0.393568	0.856728
20568	5.330602	0.284728	8.766315	-0.002707	0.000319	0.003961	0.587191	0.624186	0.515363	-0.737511	0.674949	0.022832	-0.333591	-0.393493	0.856668
20569	5.316103	0.243835	8.743140	-0.001119	0.000607	0.006294	0.587171	0.624186	0.515386	-0.737506	0.674956	0.022788	-0.333638	-0.393481	0.856655
20570	5.336572	0.270709	8.785916	0.003559	0.002572	0.005532	0.587154	0.624176	0.515417	-0.737519	0.674942	0.022806	-0.333642	-0.393520	0.856636
20571	5.315814	0.243361	8.743329	-0.003652	0.001466	0.004341	0.587151	0.624166	0.515433	-0.737493	0.674971	0.022750	-0.333702	-0.393486	0.856628
20572	5.300425	0.266146	8.764050	0.002229	0.001723	0.005044	0.587171	0.624099	0.515490	-0.737451	0.675017	0.022760	-0.333760	-0.393512	0.856593
20573	5.321637	0.229412	8.763013	-0.002322	0.002316	0.004828	0.587168	0.624096	0.515498	-0.737433	0.675038	0.022713	-0.333806	-0.393482	0.856590
20574	5.343908	0.226123	8.754133	-0.000992	0.003166	0.005315	0.587238	0.624005	0.515528	-0.737336	0.675145	0.022691	-0.333897	-0.393442	0.856572
20575	5.316306	0.275748	8.735862	0.001844	-0.000274	0.004177	0.587230	0.623987	0.515558	-0.737329	0.675153	0.022683	-0.333927	-0.393456	0.856554
20576	5.321154	0.228709	8.763326	0.002613	0.003719	0.005911	0.587324	0.623870	0.515593	-0.737212	0.675281	0.022682	-0.334019	-0.393423	0.856533
20577	5.286241	0.258205	8.733491	0.000898	0.000873	0.004556	0.587318	0.623860	0.515613	-0.737203	0.675291	0.022664	-0.334050	-0.393423	0.856522
20578	5.344318	0.259065	8.746702	-0.000864	0.005724	0.004337	0.587218	0.623970	0.515593	-0.737319	0.675165	0.022662	-0.333969	-0.393464	0.856534
20579	5.312384	0.271446	8.796034	0.002485	0.001161	0.006888	0.587195	0.623976	0.515611	-0.737329	0.675154	0.022646	-0.333986	-0.393473	0.856523
20580	5.336726	0.238552	8.735321	0.003173	0.000576	0.004664	0.587217	0.623904	0.515674	-0.737286	0.675200	0.022663	-0.334044	-0.393507	0.856485
20581	5.314061	0.241167	8.744456	-0.003268	0.003464	0.005206	0.587214	0.623908	0.515673	-0.737268	0.675223	0.022606	-0.334090	-0.393463	0.856487
20582	5.321020	0.261162	8.756239	0.004888	0.003421	0.006018	0.587200	0.623906	0.515691	-0.737284	0.675204	0.022628	-0.334079	-0.393498	0.856476
20583	5.334893	0.204285	8.743651	-0.002323	0.002317	0.004826	0.587196	0.623903	0.515700	-0.737266	0.675225	0.022581	-0.334125	-0.393467	0.856472
20584	5.326562	0.247431	8.776084	0.005273	0.005417	0.006884	0.587324	0.623757	0.515730	-0.737122	0.675382	0.022599	-0.334219	-0.393429	0.856453
20585	5.313845	0.274011	8.737414	-0.003396	0.006584	0.002383	0.587352	0.623754	0.515702	-0.737086	0.675422	0.022555	-0.334247	-0.393365	0.856471
20586	5.335844	0.270951	8.728703	0.003686	0.005130	0.004552	0.587309	0.623812	0.515681	-0.737154	0.675347	0.022588	-0.334173	-0.393403	0.856483
20587	5.296480	0.263349	8.766519	0.002997	0.005715	0.006775	0.587302	0.623835	0.515661	-0.737166	0.675335	0.022577	-0.334159	-0.393387	0.856495
20588	5.310056	0.206488	8.754110	0.000465	0.006574	0.004822	0.587285	0.623875	0.515631	-0.737196	0.675301	0.022576	-0.334122	-0.393380	0.856513
20589	5.340438	0.257252	8.749125	0.002996	0.005715	0.006775	0.587279	0.623898	0.515611	-0.737208	0.675289	0.022565	-0.334108	-0.393364	0.856526
20590	5.293728	0.229433	8.775385	0.004070	0.007126	0.005417	0.587231	0.623969	0.515580	-0.737282	0.675207	0.022589	-0.334029	-0.393393	0.856543
20591	5.316752	0.260236	8.758859	0.003814	0.007688	0.003573	0.587254	0.623978	0.515542	-0.737278	0.675212	0.022601	-0.333998	-0.393371	0.856566
20592	5.286412	0.242840	8.756627	0.000720	0.006013	0.006665	0.587160	0.624103	0.515499	-0.737395	0.675083	0.022595	-0.333903	-0.393393	0.856592
20593	5.308481	0.239896	8.747879	0.006216	0.004270	0.006504	0.587151	0.624118	0.515491	-0.737416	0.675060	0.022613	-0.333874	-0.393408	0.856597
20594	5.315368	0.260107	8.759703	-0.001506	0.004291	0.001623	0.587083	0.624179	0.515494	-0.737490	0.674980	0.022617	-0.333831	-0.393450	0.856594
20595	5.307802	0.239698	8.748297	0.002866	0.003157	0.007752	0.587060	0.624199	0.515496	-0.737506	0.674962	0.022600	-0.333834	-0.393449	0.856594
20596	5.329999	0.236582	8.739480	0.001921	0.004305	0.008130	0.587091	0.624136	0.515537	-0.737451	0.675023	0.022589	-0.333901	-0.393445	0.856569
20597	5.313177	0.225792	8.768240	-0.000610	0.005164	0.006176	0.587087	0.624153	0.515522	-0.737447	0.675028	0.022550	-0.333917	-0.393409	0.856580
20598	5.306634	0.238820	8.749029	-0.000865	0.005726	0.004332	0.587207	0.623986	0.515587	-0.737283	0.675209	0.022531	-0.334069	-0.393363	0.856541
20599	5.335957	0.255980	8.751896	0.003940	0.004568	0.006394	0.587199	0.624002	0.515576	-0.737295	0.675195	0.022530	-0.334056	-0.393361	0.856548
20600	5.296479	0.248299	8.789740	-0.002321	0.007996	0.001021	0.587163	0.624065	0.515540	-0.737348	0.675137	0.022529	-0.334001	-0.393361	0.856569
20601	5.311234	0.224993	8.769438	0.001025	0.003431	0.003575	0.587172	0.624058	0.515539	-0.737335	0.675152	0.022517	-0.334015	-0.393346	0.856570
20602	5.342053	0.276146	8.764208	0.009995	-0.000320	0.004990	0.587061	0.624162	0.515539	-0.737489	0.674981	0.022604	-0.333871	-0.393474	0.856568
20603	5.258548	0.210859	8.776083	-0.004086	0.007172	0.004599	0.587075	0.624177	0.515506	-0.737464	0.675010	0.022543	-0.333901	-0.393402	0.856589
20604	5.363845	0.273077	8.755648	0.005574	0.002834	0.003793	0.587028	0.624207	0.515522	-0.737529	0.674937	0.022598	-0.333839	-0.393478	0.856578
20605	5.308996	0.191517	8.777973	-0.000051	0.002021	0.004931	0.587023	0.624204	0.515533	-0.737520	0.674948	0.022570	-0.333870	-0.393465	0.856572
20606	5.333717	0.255514	8.753276	-0.000051	0.002021	0.004931	0.586944	0.624292	0.515516	-0.737609	0.674851	0.022562	-0.333811	-0.393492	0.856583
20607	5.312748	0.228350	8.710804	0.004069	0.007126	0.005413	0.586952	0.624311	0.515483	-0.737616	0.674843	0.022567	-0.333781	-0.393475	0.856603
20608	5.339006	0.241942	8.773259	-0.000051	0.002021	0.004931	0.586933	0.624327	0.515485	-0.737628	0.674831	0.022548	-0.333788	-0.393470	0.856602
20609	5.332727	0.255457	8.753880	0.007594	0.003097	0.002058	0.586952	0.624309	0.515486	-0.737627	0.674830	0.022600	-0.333756	-0.393502	0.856600
20610	5.331078	0.222084	8.762055	0.001794	0.007425	0.005303	0.586981	0.624288	0.515479	-0.737601	0.674859	0.022603	-0.333765	-0.393485	0.856604
20611	5.331613	0.255584	8.754555	0.001539	0.007986	0.003459	0.587006	0.624298	0.515439	-0.737588	0.674873	0.022596	-0.333748	-0.393446	0.856629
20612	5.330999	0.255548	8.754930	0.002738	0.006277	0.004925	0.587059	0.624237	0.515452	-0.737527	0.674940	0.022601	-0.333790	-0.393427	0.856621
20613	5.313921	0.245074	8.783810	0.003123	0.008274	0.005789	0.587068	0.624263	0.515409	-0.737533	0.674933	0.022596	-0.333761	-0.393397	0.856646
20614	5.329689	0.255573	8.755727	0.003814	0.007687	0.003567	0.587011	0.624360	0.515356	-0.737630	0.674826	0.022631	-0.333646	-0.393427	0.856677
20615	5.314457	0.215230	8.732956	0.002868	0.008835	0.003944	0.587036	0.624377	0.515308	-0.737625	0.674831	0.022633	-0.333614	-0.393391	0.856706
20616	5.334260	0.242339	8.776135	0.002868	0.008835	0.003944	0.587087	0.624344	0.515290	-0.737585	0.674874	0.022654	-0.333612	-0.393370	0.856717
20617	5.288474	0.248111	8.794563	0.002431	0.008861	0.008008	0.587081	0.624388	0.515243	-0.737603	0.674856	0.022631	-0.333584	-0.393331	0.856745
20618	5.302974	0.224872	8.774438	0.001284	0.008548	0.001612	0.587162	0.624313	0.515241	-0.737519	0.674946	0.022641	-0.333625	-0.393294	0.856746
20619	5.288917	0.218057	8.743777	0.002868	0.008835	0.003943	0.587187	0.624330	0.515194	-0.737514	0.674952	0.022644	-0.333594	-0.393259	0.856775
20620	5.318089	0.235404	8.746765	0.003682	0.005129	0.004546	0.587155	0.624372	0.515178	-0.737564	0.674896	0.022668	-0.333538	-0.393287	0.856783
20621	5.311537	0.248838	8.727559	0.002483	0.006839	0.003078	0.587179	0.624375	0.515147	-0.737553	0.674909	0.022672	-0.333522	-0.393261	0.856802
20622	5.323006	0.222061	8.766962	0.000208	0.007138	0.002968	0.587293	0.624259	0.515158	-0.737424	0.675049	0.022671	-0.333604	-0.393205	0.856795
20623	5.322603	0.222096	8.767206	0.005825	0.002272	0.005636	0.587283	0.624261	0.515167	-0.737439	0.675032	0.022690	-0.333590	-0.393230	0.856789
20624	5.306931	0.245421	8.788025	0.002229	0.007400	0.001233	0.587399	0.624157	0.515161	-0.737325	0.675157	0.022711	-0.333639	-0.393181	0.856793
20625	5.315599	0.235872	8.748266	0.005702	0.005391	0.002811	0.587420	0.624152	0.515143	-0.737322	0.675158	0.022744	-0.333607	-0.393186	0.856803
20626	5.292531	0.238923	8.757565	0.001790	0.007426	0.005297	0.587285	0.624324	0.515088	-0.737496	0.674968	0.022758	-0.333460	-0.393241	0.856835
20627	5.314371	0.235801	8.749014	-0.000737	0.008286	0.003342	0.587312	0.624334	0.515045	-0.737475	0.674991	0.022733	-0.333458	-0.393184	0.856862
20628	5.291325	0.238712	8.758299	0.004625	0.003982	0.004168	0.587209	0.624448	0.515024	-0.737613	0.674840	0.022777	-0.333336	-0.393263	0.856873
20629	5.289752	0.205083	8.766427	0.000329	0.004020	0.005790	0.587204	0.624458	0.515018	-0.737610	0.674844	0.022748	-0.333352	-0.393240	0.856877
20630	5.313117	0.235624	8.749780	0.003680	0.005130	0.004544	0.587288	0.624366	0.515034	-0.737516	0.674946	0.022758	-0.333411	-0.393212	0.856867
20631	5.342494	0.252933	8.752662	0.002351	0.004281	0.004057	0.587296	0.624365	0.515026	-0.737510	0.674953	0.022755	-0.333410	-0.393201	0.856873
20632	5.318457	0.222292	8.769717	0.001966	0.002284	0.003194	0.587127	0.624549	0.514996	-0.737715	0.674728	0.022780	-0.333255	-0.393294	0.856890
20633	5.312035	0.235460	8.750441	-0.000232	0.007165	0.007028	0.587123	0.624580	0.514963	-0.737718	0.674726	0.022740	-0.333256	-0.393248	0.856911
20634	5.326020	0.275873	8.773969	0.005701	0.005391	0.002810	0.587165	0.624544	0.514958	-0.737691	0.674754	0.022785	-0.333240	-0.393259	0.856912
20635	5.294765	0.225072	8.779389	-0.000440	0.000027	0.004064	0.587159	0.624526	0.514986	-0.737676	0.674772	0.022759	-0.333285	-0.393256	0.856896
20636	5.311153	0.235271	8.750982	0.001273	0.002872	0.005413	0.587157	0.624518	0.514999	-0.737670	0.674778	0.022752	-0.333301	-0.393258	0.856889
20637	5.294332	0.224669	8.779660	0.000076	0.004581	0.003945	0.587167	0.624517	0.514988	-0.737655	0.674795	0.022730	-0.333316	-0.393230	0.856896
20638	5.346368	0.238843	8.773515	0.002218	0.001724	0.005037	0.587141	0.624513	0.515024	-0.737671	0.674777	0.022737	-0.333327	-0.393268	0.856874
20639	5.344912	0.205271	8.781566	0.003295	0.003133	0.003680	0.587148	0.624505	0.515026	-0.737666	0.674782	0.022745	-0.333326	-0.393271	0.856873
20640	5.317219	0.255340	8.763312	0.004756	0.006539	0.003185	0.587290	0.624371	0.515026	-0.737524	0.674937	0.022774	-0.333391	-0.393218	0.856872
20641	5.331874	0.232228	8.743124	0.001789	0.007427	0.005293	0.587299	0.624391	0.514990	-0.737523	0.674938	0.022760	-0.333376	-0.393184	0.856894
20642	5.323404	0.275641	8.775563	0.003043	0.003693	0.001836	0.587397	0.624255	0.515043	-0.737403	0.675069	0.022781	-0.333469	-0.393176	0.856861
20643	5.308433	0.235414	8.752628	0.004756	0.006539	0.003184	0.587419	0.624257	0.515015	-0.737399	0.675072	0.022803	-0.333437	-0.393167	0.856877
20644	5.270053	0.261613	8.782483	0.001789	0.007427	0.005292	0.587645	0.624008	0.515061	-0.737130	0.675366	0.022787	-0.333635	-0.393058	0.856851
20645	5.352352	0.229397	8.735422	0.001656	0.004869	0.006274	0.587639	0.624024	0.515048	-0.737135	0.675362	0.022767	-0.333637	-0.393039	0.856859
20646	5.290460	0.224739	8.781992	0.001272	0.002873	0.005412	0.587665	0.623987	0.515064	-0.737096	0.675405	0.022757	-0.333677	-0.393025	0.856849
20647	5.307852	0.268856	8.745817	0.008611	0.006526	0.005625	0.587669	0.624005	0.515037	-0.737120	0.675378	0.022800	-0.333617	-0.393043	0.856865
20648	5.335859	0.252597	8.756718	-0.002451	0.005443	0.001987	0.587640	0.624055	0.515009	-0.737158	0.675336	0.022789	-0.333582	-0.393035	0.856882
20649	5.296406	0.244973	8.794385	0.004181	0.004009	0.008228	0.587617	0.624081	0.515004	-0.737182	0.675310	0.022781	-0.333570	-0.393038	0.856885
20650	5.357697	0.249538	8.748198	0.005568	0.002832	0.003790	0.587479	0.624238	0.514972	-0.737368	0.675105	0.022839	-0.333403	-0.393141	0.856903
20651	5.266088	0.227661	8.792046	-0.003025	0.002914	0.007031	0.587460	0.624252	0.514976	-0.737361	0.675115	0.022775	-0.333450	-0.393103	0.856902
20652	5.319343	0.275237	8.778038	0.003678	0.005130	0.004540	0.587369	0.624386	0.514918	-0.737496	0.674966	0.022806	-0.333313	-0.393146	0.856936
20653	5.333066	0.218198	8.765602	-0.003410	0.000917	0.006169	0.587350	0.624386	0.514939	-0.737483	0.674982	0.022743	-0.333374	-0.393117	0.856925
20654	5.266687	0.260210	8.784544	0.000193	0.001464	0.006767	0.587149	0.624577	0.514937	-0.737700	0.674746	0.022738	-0.333250	-0.393219	0.856927
20655	5.281678	0.236758	8.764173	0.001655	0.004870	0.006271	0.587142	0.624594	0.514924	-0.737704	0.674742	0.022718	-0.333251	-0.393200	0.856935
20656	5.288875	0.256818	8.775821	0.001698	-0.002830	0.005156	0.587323	0.624318	0.515053	-0.737449	0.675021	0.022703	-0.333497	-0.393159	0.856858
20657	5.311697	0.253440	8.766715	-0.003928	-0.003637	0.006290	0.587288	0.624301	0.515113	-0.737435	0.675038	0.022635	-0.333590	-0.393156	0.856824
20658	5.317917	0.239758	8.786118	0.002776	-0.001422	0.003799	0.587217	0.624321	0.515169	-0.737495	0.674972	0.022654	-0.333582	-0.393238	0.856789
20659	5.310701	0.219445	8.774487	0.001138	0.000315	0.006392	0.587194	0.624321	0.515196	-0.737499	0.674969	0.022629	-0.333613	-0.393244	0.856774
20660	5.334500	0.249928	8.757623	0.001580	0.000287	0.002330	0.587144	0.624371	0.515192	-0.737561	0.674901	0.022644	-0.333566	-0.393280	0.856776
20661	5.319250	0.273003	8.778164	-0.000443	0.000028	0.004062	0.587138	0.624353	0.515220	-0.737545	0.674919	0.022617	-0.333610	-0.393278	0.856759
20662	5.304714	0.232187	8.754969	-0.002466	-0.000231	0.005793	0.587092	0.624345	0.515283	-0.737556	0.674908	0.022585	-0.333668	-0.393310	0.856722
20663	5.340496	0.235574	8.777179	-0.001137	0.000617	0.006280	0.587071	0.624345	0.515307	-0.737551	0.674915	0.022542	-0.333714	-0.393299	0.856709
20664	5.317824	0.238028	8.786221	-0.001446	0.003202	0.009359	0.586805	0.624640	0.515251	-0.737854	0.674584	0.022521	-0.333513	-0.393396	0.856743
20665	5.311569	0.251031	8.766862	0.001020	0.003433	0.003566	0.586814	0.624633	0.515250	-0.737841	0.674599	0.022510	-0.333527	-0.393381	0.856744
20666	5.319220	0.207194	8.734926	-0.005551	0.003777	0.005074	0.586929	0.624498	0.515284	-0.737676	0.674782	0.022440	-0.333691	-0.393283	0.856726
20667	5.303755	0.229852	8.755611	0.001772	0.001751	0.009095	0.586891	0.624521	0.515298	-0.737697	0.674760	0.022407	-0.333709	-0.393284	0.856718
20668	5.332116	0.213062	8.766306	-0.002082	0.001766	0.006653	0.586910	0.624481	0.515325	-0.737650	0.674813	0.022365	-0.333781	-0.393256	0.856703
20669	5.304716	0.262679	8.747908	0.001020	0.003433	0.003565	0.586919	0.624474	0.515324	-0.737636	0.674828	0.022354	-0.333795	-0.393242	0.856704
20670	5.280601	0.231862	8.764953	-0.001003	0.003174	0.005296	0.587065	0.624297	0.515372	-0.737444	0.675040	0.022319	-0.333963	-0.393160	0.856676
20671	5.325454	0.225646	8.747209	0.000635	0.001436	0.002704	0.587074	0.624276	0.515387	-0.737424	0.675062	0.022309	-0.333991	-0.393156	0.856667
20672	5.302715	0.228554	8.756275	0.002600	0.003720	0.005895	0.587060	0.624286	0.515390	-0.737439	0.675045	0.022312	-0.333983	-0.393167	0.856665
20673	5.325122	0.225343	8.747419	-0.001773	-0.000819	0.003574	0.587055	0.624262	0.515426	-0.737416	0.675071	0.022277	-0.334042	-0.393161	0.856645
20674	5.309769	0.248459	8.768026	0.003044	0.003691	0.001834	0.587230	0.624068	0.515461	-0.737217	0.675288	0.022290	-0.334174	-0.393096	0.856623
20675	5.330878	0.211991	8.767085	0.002774	-0.001423	0.003798	0.587220	0.624043	0.515502	-0.737211	0.675295	0.022293	-0.334204	-0.393125	0.856598
