// General information: 
//  MT Manager version: 2022.2.0 
//  XDA version: 2022.2.0 build 7381 rev 124627 built on 2023-07-19
// Device information: 
//  DeviceId: 00B4CB9F
//  ProductCode: MTW2-3A7G6
//  Firmware Version: 4.6.0
//  Hardware Version: 2.0.0
// Device settings: 
//  Filter Profile: human(46.1)
//  Option Flags: Orientation Smoother Disabled, Position/Velocity Smoother Disabled, Continuous Zero Rotation Update Disabled, AHS Disabled, ICC Disabled
// Coordinate system: ENU
PacketCounter	Acc_X	Acc_Y	Acc_Z	Gyr_X	Gyr_Y	Gyr_Z	Mat[1][1]	Mat[2][1]	Mat[3][1]	Mat[1][2]	Mat[2][2]	Mat[3][2]	Mat[1][3]	Mat[2][3]	Mat[3][3]
60118	9.485408	1.563095	1.865768	-0.009767	-0.003127	-0.011402	0.251719	-0.040573	0.966950	-0.530551	0.829825	0.172933	-0.809416	-0.556547	0.187357
60119	9.484690	1.588153	1.890264	-0.008392	-0.007374	-0.015321	0.251658	-0.040782	0.966957	-0.530365	0.829923	0.173034	-0.809556	-0.556386	0.187227
60120	9.464778	1.537711	1.867034	-0.006974	-0.008531	-0.014177	0.251599	-0.040957	0.966965	-0.530293	0.829948	0.173133	-0.809622	-0.556335	0.187095
60121	9.468426	1.556166	1.849607	-0.008804	-0.009320	-0.010727	0.251510	-0.040836	0.966993	-0.531121	0.829411	0.173167	-0.809106	-0.557144	0.186916
60122	9.441773	1.594874	1.811012	-0.016343	-0.019307	-0.005524	0.251318	-0.040998	0.967036	-0.530995	0.829493	0.173165	-0.809249	-0.557011	0.186697
60123	9.498702	1.559965	1.892567	-0.026927	-0.018847	-0.004271	0.251072	-0.041197	0.967091	-0.530609	0.829753	0.173101	-0.809578	-0.556608	0.186468
60124	9.514398	1.604922	1.799347	-0.023310	-0.022475	0.011876	0.250762	-0.041233	0.967170	-0.530470	0.829880	0.172917	-0.809765	-0.556416	0.186230
60125	9.518683	1.620852	1.780695	-0.019406	-0.025940	0.011706	0.250447	-0.041062	0.967259	-0.531146	0.829485	0.172740	-0.809420	-0.557018	0.185931
60126	9.536217	1.629467	1.792619	-0.006533	-0.031313	0.018860	0.250028	-0.041090	0.967366	-0.531161	0.829521	0.172520	-0.809540	-0.556962	0.185578
60127	9.518647	1.688966	1.849803	0.004263	-0.032430	0.022735	0.249456	-0.041134	0.967512	-0.531069	0.829647	0.172199	-0.809776	-0.556772	0.185115
60128	9.488630	1.731575	1.850716	0.013014	-0.033684	0.024930	0.248986	-0.041124	0.967634	-0.531256	0.829577	0.171957	-0.809798	-0.556876	0.184705
60129	9.458572	1.774299	1.851872	0.016546	-0.025273	0.023027	0.248517	-0.041043	0.967758	-0.531576	0.829429	0.171683	-0.809732	-0.557103	0.184310
60130	9.459350	1.772695	1.849435	0.020520	-0.019307	0.018126	0.248199	-0.041009	0.967841	-0.531807	0.829314	0.171520	-0.809678	-0.557275	0.184026
60131	9.419955	1.817062	1.778892	0.019018	-0.016846	0.010322	0.247829	-0.041182	0.967928	-0.531436	0.829584	0.171365	-0.810035	-0.556861	0.183709
60132	9.404108	1.782156	1.737923	0.009334	-0.013789	0.009060	0.247604	-0.041193	0.967985	-0.531553	0.829529	0.171269	-0.810027	-0.556943	0.183498
60133	9.380838	1.712913	1.730428	0.002031	-0.019220	-0.003643	0.247390	-0.041336	0.968034	-0.531602	0.829496	0.171276	-0.810060	-0.556980	0.183234
60134	9.386515	1.695231	1.817838	-0.009501	-0.024432	-0.004912	0.247153	-0.041522	0.968087	-0.531532	0.829540	0.171280	-0.810178	-0.556901	0.182952
60135	9.413649	1.657436	1.853355	-0.016732	-0.019293	-0.009089	0.246877	-0.042018	0.968136	-0.530332	0.830310	0.171272	-0.811049	-0.555716	0.182701
60136	9.409604	1.664728	1.893771	-0.027429	-0.013131	-0.016083	0.246790	-0.042234	0.968148	-0.530089	0.830448	0.171351	-0.811234	-0.555492	0.182559
60137	9.440528	1.621016	1.889043	-0.036354	-0.008133	-0.018334	0.246514	-0.042347	0.968214	-0.529953	0.830555	0.171256	-0.811407	-0.555324	0.182302
60138	9.467263	1.583984	1.926076	-0.041704	-0.010989	-0.022757	0.246480	-0.042606	0.968211	-0.529577	0.830770	0.171374	-0.811663	-0.554982	0.182205
60139	9.504851	1.599348	1.913117	-0.033420	-0.005408	-0.019174	0.246417	-0.042737	0.968221	-0.529485	0.830818	0.171429	-0.811742	-0.554901	0.182099
60140	9.521980	1.586827	1.902673	-0.014819	-0.001586	-0.013805	0.246412	-0.042870	0.968217	-0.529349	0.830888	0.171509	-0.811832	-0.554786	0.182047
60141	9.526463	1.557183	1.836371	0.001031	0.003244	-0.004057	0.246284	-0.043237	0.968233	-0.528168	0.831644	0.171484	-0.812640	-0.553623	0.181985
60142	9.509545	1.547337	1.822135	0.015707	0.003054	-0.001976	0.246253	-0.043246	0.968240	-0.528308	0.831550	0.171506	-0.812557	-0.553763	0.181925
60143	9.495799	1.578384	1.816153	0.024574	0.007972	0.010332	0.246218	-0.043194	0.968252	-0.528348	0.831537	0.171450	-0.812542	-0.553788	0.181918
60144	9.478577	1.591046	1.826934	0.020788	0.005737	0.018771	0.246099	-0.043016	0.968290	-0.528582	0.831423	0.171279	-0.812426	-0.553972	0.181875
60145	9.489142	1.665539	1.802264	0.016802	0.011640	0.025545	0.245965	-0.042817	0.968333	-0.528563	0.831488	0.171025	-0.812479	-0.553891	0.181885
60146	9.461486	1.749419	1.815564	0.017290	0.012283	0.027615	0.245852	-0.042529	0.968374	-0.528789	0.831398	0.170763	-0.812366	-0.554048	0.181912
60147	9.434947	1.785407	1.778739	0.023537	0.005855	0.027656	0.245675	-0.042211	0.968433	-0.529291	0.831132	0.170499	-0.812093	-0.554470	0.181846
60148	9.459942	1.804687	1.734721	0.030190	0.001375	0.023104	0.245498	-0.042021	0.968486	-0.529611	0.830969	0.170304	-0.811938	-0.554730	0.181746
60149	9.426180	1.806846	1.730020	0.041640	-0.003984	0.015851	0.245303	-0.041812	0.968544	-0.530382	0.830502	0.170183	-0.811493	-0.555445	0.181549
60150	9.466079	1.784860	1.821954	0.036458	-0.010583	0.011496	0.245090	-0.041785	0.968599	-0.530724	0.830298	0.170111	-0.811334	-0.555751	0.181322
60151	9.476394	1.736334	1.843396	0.028547	-0.009826	0.001720	0.244820	-0.041902	0.968663	-0.530696	0.830329	0.170046	-0.811434	-0.555696	0.181044
60152	9.503400	1.698669	1.879440	0.023037	-0.008939	-0.002778	0.244696	-0.041985	0.968690	-0.530894	0.830194	0.170088	-0.811342	-0.555892	0.180856
60153	9.473931	1.672436	1.807928	0.024997	-0.007504	-0.007763	0.244446	-0.042076	0.968750	-0.531094	0.830070	0.170065	-0.811286	-0.556069	0.180561
60154	9.467131	1.614953	1.815356	0.031837	-0.008250	-0.008783	0.244359	-0.042205	0.968766	-0.531349	0.829884	0.170181	-0.811145	-0.556338	0.180364
60155	9.453480	1.647486	1.807665	0.040720	-0.008860	-0.008123	0.244273	-0.042355	0.968781	-0.531615	0.829685	0.170318	-0.810997	-0.556623	0.180153
60156	9.449374	1.655721	1.847710	0.042404	-0.008723	-0.010040	0.244189	-0.042497	0.968796	-0.531952	0.829439	0.170465	-0.810801	-0.556979	0.179934
60157	9.487251	1.670924	1.833262	0.044885	-0.009883	0.001909	0.243992	-0.042508	0.968845	-0.532458	0.829113	0.170470	-0.810529	-0.557462	0.179663
60158	9.480552	1.761176	1.816850	0.038995	-0.003454	0.005459	0.243868	-0.042492	0.968877	-0.532804	0.828892	0.170460	-0.810338	-0.557792	0.179501
60159	9.464845	1.702667	1.752097	0.035315	-0.000631	0.010762	0.243544	-0.042198	0.968971	-0.533769	0.828318	0.170232	-0.809800	-0.558666	0.179208
60160	9.448153	1.691729	1.737569	0.028637	0.008249	0.013696	0.243471	-0.042049	0.968996	-0.534052	0.828159	0.170124	-0.809636	-0.558914	0.179176
60161	9.418607	1.663613	1.667995	0.026262	0.015598	0.011864	0.243455	-0.042089	0.968999	-0.533587	0.828474	0.170046	-0.809947	-0.558444	0.179238
60162	9.390270	1.624713	1.729883	0.022799	0.016616	0.009041	0.243474	-0.041932	0.969000	-0.533811	0.828345	0.169972	-0.809794	-0.558647	0.179297
60163	9.411033	1.627995	1.704051	0.016368	0.019301	0.005459	0.243354	-0.041673	0.969042	-0.534269	0.828089	0.169782	-0.809528	-0.559046	0.179254
60164	9.437181	1.613718	1.767707	0.002667	0.013309	0.004046	0.243373	-0.041576	0.969041	-0.534317	0.828070	0.169720	-0.809491	-0.559081	0.179315
60165	9.436976	1.613667	1.768848	-0.006757	0.010172	-0.003742	0.243274	-0.041308	0.969078	-0.535062	0.827614	0.169598	-0.809028	-0.559776	0.179235
60166	9.471342	1.586523	1.749121	-0.008800	0.010034	-0.005422	0.243317	-0.041307	0.969067	-0.534994	0.827656	0.169608	-0.809060	-0.559714	0.179284
60167	9.471117	1.586874	1.750019	-0.018769	0.004315	-0.007078	0.243289	-0.041296	0.969074	-0.535025	0.827640	0.169589	-0.809048	-0.559738	0.179261
60168	9.517822	1.600750	1.810263	-0.021683	-0.002797	-0.004614	0.243223	-0.041361	0.969088	-0.534855	0.827754	0.169567	-0.809180	-0.559564	0.179207
60169	9.526840	1.600553	1.882877	-0.021383	-0.005894	-0.006069	0.243082	-0.041389	0.969122	-0.534888	0.827744	0.169515	-0.809201	-0.559578	0.179071
60170	9.514210	1.583587	1.826655	-0.020103	-0.007697	-0.003389	0.242970	-0.041471	0.969147	-0.534734	0.827850	0.169485	-0.809337	-0.559415	0.178967
60171	9.490723	1.514528	1.820259	-0.004355	-0.013444	-0.002131	0.242575	-0.041282	0.969254	-0.535593	0.827336	0.169280	-0.808887	-0.560188	0.178581
60172	9.490935	1.514797	1.818929	-0.003919	-0.015895	-0.005120	0.242406	-0.041424	0.969290	-0.535565	0.827350	0.169295	-0.808955	-0.560157	0.178370
60173	9.501778	1.442279	1.815527	-0.003943	-0.022222	0.004690	0.242175	-0.041375	0.969350	-0.536091	0.827023	0.169233	-0.808677	-0.560643	0.178104
60174	9.498171	1.448325	1.854930	-0.002662	-0.024025	0.007369	0.241874	-0.041459	0.969422	-0.536104	0.827036	0.169130	-0.808758	-0.560619	0.177812
60175	9.470632	1.408971	1.912998	-0.010699	-0.034644	0.010543	0.241358	-0.041802	0.969535	-0.535242	0.827635	0.168928	-0.809482	-0.559709	0.177382
60176	9.483399	1.472635	2.015005	-0.011572	-0.041621	0.014689	0.240875	-0.041924	0.969650	-0.535201	0.827700	0.168738	-0.809654	-0.559602	0.176934
60177	9.463472	1.467561	2.038597	-0.002586	-0.037197	0.012206	0.240450	-0.042282	0.969740	-0.534408	0.828236	0.168620	-0.810304	-0.558781	0.176553
60178	9.464397	1.466425	2.035119	0.011281	-0.034950	0.013686	0.240025	-0.042375	0.969841	-0.534548	0.828174	0.168480	-0.810337	-0.558867	0.176131
60179	9.447864	1.479495	2.042569	0.029096	-0.022359	0.008628	0.239655	-0.042256	0.969938	-0.535417	0.827640	0.168349	-0.809873	-0.559667	0.175723
60180	9.435136	1.486585	2.009020	0.035410	-0.019367	0.003928	0.239408	-0.042343	0.969995	-0.535730	0.827438	0.168345	-0.809739	-0.559959	0.175411
60181	9.383723	1.527955	2.038330	0.034814	-0.013172	0.006841	0.239151	-0.042189	0.970065	-0.536644	0.826863	0.168260	-0.809210	-0.560819	0.175104
60182	9.377180	1.618167	2.021560	0.025976	-0.010624	-0.002013	0.239007	-0.042277	0.970097	-0.536866	0.826711	0.168298	-0.809105	-0.561036	0.174893
60183	9.376500	1.666960	2.069996	0.019742	-0.004191	-0.002070	0.238828	-0.042141	0.970147	-0.537637	0.826221	0.168243	-0.808645	-0.561768	0.174668
60184	9.387307	1.719575	2.019249	0.005686	0.001696	-0.005238	0.238801	-0.042186	0.970152	-0.537688	0.826181	0.168276	-0.808620	-0.561823	0.174610
60185	9.377519	1.744496	1.971500	-0.007418	0.001389	-0.007712	0.238645	-0.042460	0.970178	-0.536831	0.826747	0.168233	-0.809235	-0.560970	0.174505
60186	9.402653	1.717893	1.878233	-0.013195	0.000980	-0.009143	0.238633	-0.042541	0.970177	-0.536719	0.826812	0.168271	-0.809313	-0.560867	0.174472
60187	9.414121	1.722394	1.778641	-0.013196	0.000980	-0.009143	0.238437	-0.042561	0.970225	-0.536722	0.826830	0.168172	-0.809369	-0.560839	0.174303
60188	9.417202	1.764310	1.786745	-0.024857	-0.004874	-0.008856	0.238376	-0.042672	0.970235	-0.536516	0.826961	0.168187	-0.809523	-0.560638	0.174233
60189	9.430048	1.781579	1.842434	-0.040253	-0.011002	-0.008321	0.238251	-0.042956	0.970253	-0.535683	0.827503	0.168176	-0.810111	-0.559816	0.174142
60190	9.437425	1.816370	1.807896	-0.041028	-0.024821	-0.009144	0.238030	-0.043182	0.970297	-0.535345	0.827724	0.168166	-0.810400	-0.559472	0.173906
60191	9.424506	1.823532	1.774802	-0.051479	-0.035581	-0.011226	0.237628	-0.043740	0.970371	-0.533972	0.828621	0.168112	-0.811423	-0.558099	0.173547
60192	9.438294	1.816785	1.802932	-0.051365	-0.046815	-0.014582	0.237257	-0.044133	0.970444	-0.533536	0.828897	0.168136	-0.811818	-0.557658	0.173115
60193	9.473890	1.765959	1.752995	-0.052018	-0.059989	-0.016936	0.236587	-0.044813	0.970576	-0.532299	0.829707	0.168061	-0.812825	-0.556398	0.172444
60194	9.488414	1.735741	1.753925	-0.051913	-0.071224	-0.020289	0.236046	-0.045388	0.970681	-0.531844	0.829982	0.168141	-0.813280	-0.555940	0.171775
60195	9.495645	1.694821	1.812289	-0.053163	-0.078207	-0.019724	0.235256	-0.045694	0.970859	-0.532334	0.829688	0.168043	-0.813188	-0.556354	0.170864
60196	9.530943	1.692156	1.809392	-0.061548	-0.081354	-0.016658	0.234613	-0.046296	0.970986	-0.531809	0.830019	0.168072	-0.813717	-0.555811	0.170113
60197	9.536040	1.685742	1.761031	-0.065202	-0.082938	-0.009712	0.233711	-0.047477	0.971146	-0.528942	0.831871	0.167961	-0.815843	-0.552934	0.169305
60198	9.524209	1.668584	1.698466	-0.065648	-0.080498	-0.006695	0.233020	-0.047988	0.971287	-0.528405	0.832227	0.167886	-0.816389	-0.552354	0.168568
60199	9.508897	1.633301	1.652830	-0.061243	-0.077802	0.006853	0.232171	-0.048228	0.971479	-0.528376	0.832305	0.167594	-0.816649	-0.552216	0.167754
60200	9.475820	1.658833	1.667999	-0.056553	-0.071849	0.009133	0.231466	-0.048560	0.971630	-0.527949	0.832618	0.167382	-0.817125	-0.551715	0.167086
60201	9.425488	1.697901	1.694424	-0.053913	-0.066030	0.009742	0.230575	-0.049369	0.971801	-0.525566	0.834185	0.167076	-0.818911	-0.549270	0.166396
60202	9.375562	1.689305	1.671523	-0.050220	-0.061360	0.007886	0.229960	-0.049651	0.971933	-0.525186	0.834462	0.166888	-0.819327	-0.548823	0.165817
60203	9.362526	1.766684	1.710496	-0.057168	-0.063707	0.003909	0.229307	-0.050344	0.972051	-0.523401	0.835612	0.166748	-0.820652	-0.547009	0.165261
60204	9.363648	1.765477	1.705596	-0.067097	-0.064386	-0.000796	0.228712	-0.050713	0.972172	-0.522861	0.835976	0.166616	-0.821162	-0.546418	0.164682
60205	9.378399	1.733623	1.706847	-0.078201	-0.062598	-0.009691	0.228075	-0.050752	0.972320	-0.523563	0.835575	0.166425	-0.820892	-0.547028	0.164002
60206	9.362470	1.699006	1.663199	-0.090997	-0.062929	-0.008446	0.227532	-0.051177	0.972425	-0.522809	0.836065	0.166329	-0.821523	-0.546238	0.163476
60207	9.407766	1.670151	1.709789	-0.097335	-0.063983	-0.011867	0.226795	-0.051891	0.972559	-0.520948	0.837261	0.166154	-0.822908	-0.544335	0.162855
60208	9.425571	1.703504	1.744581	-0.098129	-0.065938	-0.010834	0.226238	-0.052351	0.972664	-0.520127	0.837787	0.166071	-0.823580	-0.543481	0.162310
60209	9.474558	1.668133	1.749145	-0.099967	-0.066751	-0.007333	0.225479	-0.052689	0.972822	-0.519542	0.838201	0.165816	-0.824158	-0.542810	0.161623
60210	9.489122	1.683382	1.800676	-0.095138	-0.060148	-0.006584	0.224946	-0.053081	0.972924	-0.518754	0.838712	0.165697	-0.824799	-0.541982	0.161129
60211	9.503682	1.698681	1.852437	-0.083937	-0.059314	-0.007405	0.224279	-0.053389	0.973061	-0.518275	0.839049	0.165492	-0.825282	-0.541430	0.160511
60212	9.453206	1.738574	1.880904	-0.079177	-0.060179	-0.010137	0.223763	-0.053810	0.973157	-0.517610	0.839471	0.165434	-0.825839	-0.540734	0.159990
60213	9.416657	1.723648	1.889880	-0.068616	-0.058228	-0.004908	0.222995	-0.054170	0.973313	-0.516920	0.839947	0.165178	-0.826479	-0.539959	0.159302
60214	9.420881	1.764460	1.894082	-0.062687	-0.059567	-0.011654	0.222490	-0.054600	0.973405	-0.516387	0.840277	0.165162	-0.826948	-0.539400	0.158759
60215	9.349916	1.777408	1.925120	-0.068815	-0.054885	-0.019716	0.222108	-0.054654	0.973489	-0.517351	0.839681	0.165179	-0.826448	-0.540323	0.158225
60216	9.336733	1.832823	1.940795	-0.074252	-0.057727	-0.024063	0.221683	-0.055178	0.973556	-0.516696	0.840067	0.165266	-0.826972	-0.539669	0.157719
60217	9.309599	1.919909	1.950986	-0.083589	-0.059499	-0.034767	0.221213	-0.055737	0.973631	-0.516117	0.840401	0.165374	-0.827459	-0.539091	0.157141
60218	9.279084	1.966466	1.952375	-0.093548	-0.066972	-0.044404	0.220815	-0.056482	0.973679	-0.515257	0.840879	0.165630	-0.828101	-0.538268	0.156576
60219	9.296459	2.050046	2.037865	-0.115440	-0.074574	-0.061854	0.220399	-0.057061	0.973739	-0.515456	0.840697	0.165934	-0.828088	-0.538492	0.155876
60220	9.337173	2.133327	2.053987	-0.137124	-0.080854	-0.082333	0.220080	-0.058198	0.973744	-0.514151	0.841385	0.166493	-0.828984	-0.537293	0.155250
60221	9.419345	2.147708	2.111641	-0.165703	-0.084042	-0.095040	0.219527	-0.059700	0.973778	-0.511516	0.842891	0.166991	-0.830758	-0.534762	0.154500
60222	9.463913	2.125168	2.157522	-0.197739	-0.087918	-0.118576	0.219329	-0.061179	0.973731	-0.509623	0.843874	0.167811	-0.831973	-0.533041	0.153908
60223	9.477261	2.077893	2.133237	-0.224991	-0.092305	-0.130056	0.219005	-0.062916	0.973693	-0.506866	0.845370	0.168630	-0.833741	-0.530463	0.153250
60224	9.504507	2.046887	2.164980	-0.243393	-0.092864	-0.142562	0.218878	-0.064624	0.973610	-0.504534	0.846567	0.169616	-0.835187	-0.528344	0.152690
60225	9.514717	1.959380	2.131878	-0.268553	-0.087356	-0.142187	0.218595	-0.066418	0.973553	-0.501415	0.848250	0.170454	-0.837138	-0.525414	0.152120
60226	9.490861	1.874614	2.095918	-0.282382	-0.089805	-0.139591	0.218467	-0.068083	0.973466	-0.498754	0.849636	0.171354	-0.838759	-0.522956	0.151661
60227	9.573099	1.752107	2.000926	-0.285666	-0.081450	-0.134974	0.218390	-0.069768	0.973364	-0.495672	0.851262	0.172228	-0.840604	-0.520082	0.151325
60228	9.626762	1.761065	1.973422	-0.282118	-0.078871	-0.128463	0.218288	-0.071280	0.973278	-0.493028	0.852635	0.173022	-0.842184	-0.517622	0.150977
60229	9.746223	1.721979	1.942467	-0.286987	-0.066073	-0.108677	0.218131	-0.072615	0.973214	-0.490110	0.854201	0.173585	-0.843926	-0.514847	0.150738
60230	9.854200	1.776137	1.943605	-0.283345	-0.052125	-0.083913	0.218027	-0.073608	0.973163	-0.487544	0.855595	0.173945	-0.845438	-0.512385	0.150656
60231	9.964733	1.892288	1.982596	-0.296284	-0.031084	-0.070080	0.217917	-0.074421	0.973126	-0.484636	0.857218	0.174084	-0.847137	-0.509547	0.150735
60232	10.009161	2.008088	1.977995	-0.319585	0.004152	-0.057155	0.218154	-0.074898	0.973036	-0.481812	0.858800	0.174127	-0.848685	-0.506807	0.151264
60233	9.938823	2.035693	2.007718	-0.350835	0.042304	-0.058182	0.218625	-0.074873	0.972932	-0.479847	0.859924	0.174002	-0.849676	-0.504900	0.152073
60234	9.791281	2.000805	1.843695	-0.391891	0.074516	-0.056976	0.219457	-0.074996	0.972736	-0.476400	0.861854	0.173927	-0.851400	-0.501580	0.153411
60235	9.900952	1.932918	1.689809	-0.449835	0.088849	-0.052888	0.220344	-0.074720	0.972556	-0.473536	0.863491	0.173626	-0.852767	-0.498798	0.154883
60236	9.811111	1.795392	1.572403	-0.493504	0.106957	-0.035782	0.221352	-0.074505	0.972344	-0.469255	0.865916	0.173175	-0.854870	-0.494609	0.156710
60237	9.822057	1.607765	1.452134	-0.533577	0.099423	-0.029831	0.222155	-0.074759	0.972141	-0.462736	0.869528	0.172613	-0.858209	-0.488192	0.158576
60238	9.952423	1.385498	1.539815	-0.517893	0.095791	-0.033131	0.223056	-0.074588	0.971948	-0.458223	0.872021	0.172079	-0.860394	-0.483752	0.160332
60239	9.834510	1.249671	1.570070	-0.539210	0.065500	0.008769	0.223590	-0.073931	0.971875	-0.454662	0.874077	0.171091	-0.862143	-0.480129	0.161822
60240	9.850021	1.076738	1.427024	-0.561402	0.093649	0.045230	0.224120	-0.073093	0.971817	-0.449927	0.876792	0.169707	-0.864486	-0.475282	0.163620
60241	9.758754	0.978585	1.397476	-0.544594	0.082823	0.073292	0.224471	-0.072111	0.971809	-0.445195	0.879514	0.168095	-0.866842	-0.470377	0.165322
60242	9.924498	0.888470	1.426373	-0.511545	0.052464	0.092727	0.224441	-0.071053	0.971894	-0.440974	0.881976	0.166314	-0.869004	-0.465908	0.166619
60243	9.930084	0.782631	1.484059	-0.464704	0.064494	0.115250	0.224398	-0.069592	0.972010	-0.437728	0.883960	0.164342	-0.870655	-0.462354	0.167896
60244	9.860657	0.602621	1.313750	-0.417895	0.095102	0.130654	0.224582	-0.068002	0.972079	-0.434391	0.885975	0.162337	-0.872277	-0.458721	0.169435
60245	9.636772	0.427583	1.118187	-0.349204	0.130430	0.139864	0.225167	-0.065815	0.972095	-0.433064	0.886983	0.160364	-0.872786	-0.457088	0.171217
60246	9.489736	0.348380	0.939251	-0.261895	0.139846	0.136564	0.225724	-0.063969	0.972089	-0.431097	0.888266	0.158555	-0.873616	-0.454854	0.172926
60247	9.558047	0.284488	0.904612	-0.198862	0.145969	0.142367	0.226402	-0.061874	0.972067	-0.430360	0.888931	0.156816	-0.873803	-0.453843	0.174628
60248	9.652029	0.328756	0.896501	-0.144436	0.147894	0.152762	0.226963	-0.059848	0.972063	-0.429457	0.889678	0.155048	-0.874102	-0.452649	0.176222
60249	9.652925	0.414962	1.006866	-0.095188	0.153439	0.167699	0.227647	-0.057103	0.972068	-0.431215	0.889144	0.153218	-0.873058	-0.454050	0.177788
60250	9.553662	0.571884	1.149171	-0.066278	0.163101	0.170858	0.228260	-0.054846	0.972054	-0.431039	0.889540	0.151408	-0.872985	-0.453554	0.179406
60251	9.505889	0.713655	1.283180	-0.039621	0.174369	0.165867	0.229069	-0.052227	0.972008	-0.432458	0.889142	0.149690	-0.872071	-0.454642	0.181089
60252	9.580385	0.894273	1.456426	-0.035039	0.191592	0.157738	0.229983	-0.049956	0.971912	-0.432528	0.889380	0.148063	-0.871795	-0.454431	0.182935
60253	9.701781	1.081812	1.691951	-0.039734	0.196873	0.148229	0.231144	-0.047347	0.971767	-0.434095	0.888865	0.146562	-0.870709	-0.455716	0.184903
60254	9.780001	1.240453	1.798728	-0.059574	0.211640	0.147700	0.232272	-0.045072	0.971606	-0.433933	0.889203	0.144986	-0.870489	-0.455288	0.186978
60255	9.731031	1.383657	1.938680	-0.081004	0.229325	0.139585	0.233618	-0.042407	0.971403	-0.435006	0.888932	0.143423	-0.869593	-0.456072	0.189223
60256	9.624678	1.422670	2.007550	-0.075189	0.245944	0.114211	0.235186	-0.040273	0.971116	-0.434635	0.889319	0.142141	-0.869356	-0.455510	0.191651
60257	9.581560	1.458055	2.126267	-0.073624	0.252767	0.089741	0.237040	-0.038068	0.970754	-0.435197	0.889204	0.141137	-0.868571	-0.455924	0.194210
60258	9.552975	1.401379	2.165507	-0.078221	0.267773	0.076119	0.238960	-0.036173	0.970355	-0.434714	0.889586	0.140215	-0.868287	-0.455333	0.196851
60259	9.426473	1.335588	2.125252	-0.070940	0.287985	0.063835	0.241224	-0.033978	0.969874	-0.435448	0.889346	0.139460	-0.867292	-0.455971	0.199736
60260	9.431019	1.305082	2.041912	-0.067570	0.293694	0.057340	0.243448	-0.032132	0.969382	-0.435017	0.889669	0.138739	-0.866887	-0.455473	0.202610
60261	9.296780	1.202374	2.030768	-0.059658	0.299261	0.057727	0.245708	-0.029945	0.968881	-0.435771	0.889415	0.138000	-0.865870	-0.456118	0.205487
60262	9.262231	1.199019	2.012525	-0.046669	0.285192	0.048672	0.247891	-0.028214	0.968377	-0.435503	0.889639	0.137402	-0.865383	-0.455792	0.208246
60263	9.169621	1.255818	2.097349	-0.034408	0.266369	0.035213	0.249897	-0.026595	0.967907	-0.435605	0.889665	0.136911	-0.864754	-0.455839	0.210740
60264	9.137645	1.417210	2.212325	-0.032492	0.242192	0.033174	0.251773	-0.025198	0.967458	-0.435425	0.889818	0.136491	-0.864301	-0.455620	0.213061
60265	9.234339	1.572872	2.271181	-0.052415	0.239046	0.020806	0.253750	-0.023536	0.966984	-0.436409	0.889385	0.136167	-0.863225	-0.456553	0.215410
60266	9.235858	1.730636	2.389795	-0.085041	0.234231	0.018372	0.255618	-0.022306	0.966521	-0.435739	0.889773	0.135775	-0.863013	-0.455858	0.217722
60267	9.194735	1.852925	2.532603	-0.134975	0.221647	0.009894	0.257529	-0.020823	0.966046	-0.435962	0.889722	0.135397	-0.862332	-0.456028	0.220051
60268	9.196860	1.988531	2.623857	-0.194278	0.208911	0.002376	0.259248	-0.019853	0.965607	-0.434311	0.890602	0.134915	-0.862650	-0.454350	0.222264
60269	9.183119	2.024551	2.745113	-0.264899	0.209172	-0.006062	0.261118	-0.018172	0.965136	-0.434748	0.890468	0.134387	-0.861865	-0.454682	0.224617
60270	9.194951	2.085898	2.827910	-0.342615	0.200085	-0.022582	0.262868	-0.017468	0.964674	-0.431753	0.892012	0.133802	-0.862838	-0.451673	0.226940
60271	9.186520	2.027788	2.954093	-0.407414	0.196909	-0.029708	0.264673	-0.016455	0.964198	-0.429512	0.893192	0.133144	-0.863405	-0.449374	0.229336
60272	9.298883	1.923150	3.054957	-0.456353	0.186497	-0.033207	0.266354	-0.015918	0.963744	-0.425500	0.895223	0.132383	-0.864873	-0.445334	0.231673
60273	9.337131	1.825822	3.188169	-0.488561	0.191350	-0.046935	0.268106	-0.015528	0.963264	-0.421019	0.897447	0.131650	-0.866523	-0.440849	0.234074
60274	9.396278	1.584539	3.296499	-0.510780	0.194799	-0.049331	0.269930	-0.015117	0.962761	-0.416476	0.899675	0.130894	-0.868151	-0.436299	0.236553
60275	9.365119	1.354646	3.305656	-0.493184	0.218321	-0.044847	0.272078	-0.013806	0.962176	-0.414665	0.900615	0.130178	-0.868347	-0.434399	0.239313
60276	9.411579	1.124189	3.381934	-0.470262	0.223264	-0.038367	0.274104	-0.013186	0.961610	-0.410494	0.902637	0.129387	-0.869691	-0.430201	0.242004
60277	9.508518	0.909830	3.364831	-0.439052	0.235422	-0.021134	0.276393	-0.011303	0.960978	-0.410146	0.902910	0.128585	-0.869130	-0.429681	0.244922
60278	9.600670	0.767303	3.319412	-0.379719	0.254554	-0.001230	0.278539	-0.010223	0.960370	-0.406862	0.904529	0.127633	-0.869988	-0.426289	0.247787
60279	9.639195	0.719098	3.354303	-0.311871	0.280090	0.017646	0.280965	-0.008236	0.959683	-0.406266	0.904927	0.126708	-0.869486	-0.425487	0.250907
60280	9.555377	0.714153	3.415417	-0.273418	0.295368	0.033955	0.283325	-0.006674	0.959001	-0.404007	0.906083	0.125664	-0.869773	-0.423046	0.254020
60281	9.619784	0.786081	3.374771	-0.256971	0.313776	0.045183	0.285809	-0.004450	0.958276	-0.403479	0.906472	0.124549	-0.869205	-0.422242	0.257283
60282	9.510109	0.916839	3.367917	-0.249716	0.351190	0.053568	0.288575	-0.002483	0.957454	-0.401486	0.907519	0.123361	-0.869214	-0.420003	0.260890
60283	9.424660	0.979003	3.266374	-0.249208	0.383618	0.056081	0.291773	0.000717	0.956487	-0.402871	0.907060	0.122215	-0.867504	-0.421000	0.264945
60284	9.325939	1.073500	3.165850	-0.256154	0.404553	0.054582	0.294992	0.002913	0.955495	-0.400834	0.908128	0.120982	-0.867359	-0.418683	0.269058
60285	9.267692	1.072984	3.071037	-0.289984	0.426299	0.048961	0.298571	0.005882	0.954369	-0.400707	0.908345	0.119761	-0.866193	-0.418179	0.273563
60286	9.219990	1.055069	2.907490	-0.323007	0.443278	0.053802	0.302125	0.008221	0.953233	-0.398096	0.909680	0.118330	-0.866164	-0.415228	0.278110
60287	9.142845	1.026294	2.810351	-0.352217	0.446262	0.063188	0.305772	0.011479	0.952036	-0.397706	0.910053	0.116761	-0.865063	-0.414333	0.282834
60288	9.067702	0.939557	2.666905	-0.365336	0.437838	0.073512	0.309198	0.013959	0.950895	-0.394797	0.911544	0.114993	-0.865177	-0.410967	0.287358
60289	9.042325	0.912459	2.591092	-0.376939	0.423649	0.085856	0.312588	0.017314	0.949731	-0.394209	0.912032	0.113121	-0.864227	-0.409753	0.291916
60290	9.031475	0.853179	2.514581	-0.378897	0.406331	0.093325	0.315664	0.019827	0.948664	-0.391254	0.913553	0.111095	-0.864452	-0.406237	0.296133
60291	8.991185	0.725499	2.454410	-0.374823	0.379499	0.105727	0.318582	0.022581	0.947626	-0.389043	0.914749	0.108994	-0.864379	-0.403391	0.300207
60292	8.944109	0.650296	2.377571	-0.350366	0.351416	0.115230	0.321103	0.025052	0.946713	-0.386410	0.916121	0.106819	-0.864627	-0.400119	0.303850
60293	8.925102	0.607593	2.362342	-0.309845	0.318425	0.112299	0.323421	0.029415	0.945798	-0.389942	0.914846	0.104890	-0.862174	-0.402730	0.307351
60294	8.886565	0.539339	2.337474	-0.253436	0.285952	0.109957	0.325390	0.031575	0.945053	-0.388142	0.915821	0.103043	-0.862245	-0.400344	0.310254
60295	8.897351	0.474657	2.333923	-0.187385	0.252878	0.108145	0.327156	0.034382	0.944345	-0.389097	0.915592	0.101463	-0.861146	-0.400635	0.312920
60296	8.851266	0.519135	2.336361	-0.119325	0.224680	0.103390	0.328620	0.036232	0.943767	-0.388437	0.916024	0.100087	-0.860886	-0.399485	0.315098
60297	8.777752	0.496828	2.252491	-0.051875	0.195663	0.094299	0.329903	0.037896	0.943254	-0.388348	0.916177	0.099017	-0.860436	-0.398977	0.316967
60298	8.755390	0.533933	2.136877	0.023266	0.161130	0.088724	0.330876	0.039357	0.942853	-0.388872	0.916040	0.098229	-0.859826	-0.399150	0.318400
60299	8.743525	0.558972	2.047624	0.086073	0.121109	0.078897	0.331600	0.041591	0.942503	-0.392640	0.914479	0.097788	-0.857832	-0.402491	0.319572
60300	8.710605	0.598150	2.065440	0.146603	0.065941	0.073212	0.331809	0.042531	0.942387	-0.394170	0.913847	0.097542	-0.857049	-0.403826	0.319987
60301	8.690093	0.680175	2.054428	0.181316	0.014225	0.064381	0.331612	0.043574	0.942409	-0.397009	0.912621	0.097502	-0.855814	-0.406478	0.319936
60302	8.629599	0.692778	2.096755	0.209566	-0.043918	0.057913	0.330938	0.043928	0.942630	-0.399024	0.911731	0.097601	-0.855137	-0.408432	0.319254
60303	8.607840	0.779065	2.175470	0.233545	-0.106106	0.045522	0.329970	0.042996	0.943012	-0.398582	0.911894	0.097891	-0.855718	-0.408168	0.318035
60304	8.503829	0.815954	2.269908	0.254754	-0.169504	0.030829	0.328328	0.042588	0.943603	-0.400893	0.910827	0.098383	-0.855269	-0.410586	0.316123
60305	8.492350	0.854111	2.350338	0.273677	-0.228395	0.013572	0.326309	0.041802	0.944339	-0.403330	0.909672	0.099100	-0.854896	-0.413218	0.313694
60306	8.465386	0.849472	2.390249	0.306616	-0.290156	-0.002662	0.323771	0.040579	0.945265	-0.405973	0.908391	0.100057	-0.854610	-0.416148	0.310585
60307	8.477298	0.808968	2.474563	0.358905	-0.344373	-0.029087	0.320880	0.039138	0.946311	-0.409665	0.906581	0.101416	-0.853939	-0.420213	0.306937
60308	8.635735	0.835251	2.674666	0.398511	-0.388059	-0.051429	0.317710	0.037038	0.947464	-0.412933	0.904908	0.103093	-0.853550	-0.423993	0.302792
60309	8.735675	0.839412	2.798987	0.429507	-0.408385	-0.087104	0.314549	0.034476	0.948615	-0.416196	0.903171	0.105181	-0.853135	-0.427894	0.298441
60310	8.775830	0.810258	3.022105	0.454980	-0.422567	-0.125995	0.311403	0.031526	0.949755	-0.419712	0.901245	0.107699	-0.852567	-0.432161	0.293882
60311	8.982487	0.903988	3.122261	0.466244	-0.434400	-0.161992	0.308321	0.028061	0.950868	-0.422814	0.899448	0.110555	-0.852154	-0.436127	0.289183
60312	9.002948	0.931944	3.310408	0.476760	-0.432151	-0.208343	0.305456	0.024297	0.951896	-0.426265	0.897401	0.113879	-0.851466	-0.440545	0.284474
60313	9.081821	1.070302	3.267383	0.486911	-0.437544	-0.241993	0.302701	0.020047	0.952875	-0.429244	0.895510	0.117518	-0.850953	-0.444589	0.279677
60314	9.253208	1.187081	3.079732	0.510162	-0.467766	-0.282028	0.299869	0.015436	0.953855	-0.432764	0.893269	0.121595	-0.850173	-0.449257	0.274544
60315	9.440165	1.268465	3.060847	0.521762	-0.499709	-0.314046	0.296919	0.010227	0.954848	-0.435782	0.891194	0.125965	-0.849666	-0.453507	0.269070
60316	10.008134	1.348039	3.075287	0.486395	-0.513823	-0.341990	0.293982	0.004843	0.955799	-0.438933	0.888992	0.130501	-0.849066	-0.457896	0.263473
60317	10.356232	1.383008	3.203977	0.417495	-0.499620	-0.338563	0.291124	-0.000568	0.956685	-0.441163	0.887249	0.134775	-0.848895	-0.461290	0.258049
60318	10.683762	1.290680	3.270037	0.336701	-0.494537	-0.307106	0.288214	-0.005579	0.957550	-0.443160	0.885671	0.138548	-0.848847	-0.464280	0.252791
60319	10.801049	1.291347	3.631169	0.222900	-0.470249	-0.261119	0.285292	-0.010133	0.958387	-0.444118	0.884715	0.141559	-0.849334	-0.466023	0.247902
60320	10.732793	1.374411	4.026443	0.095569	-0.391357	-0.214577	0.282851	-0.013856	0.959064	-0.444350	0.884233	0.143824	-0.850029	-0.466841	0.243949
60321	10.449358	1.537447	4.058879	-0.007949	-0.287322	-0.190398	0.281178	-0.016885	0.959507	-0.443697	0.884273	0.145584	-0.850924	-0.466665	0.241146
60322	9.993375	1.544083	3.837214	-0.097863	-0.198594	-0.172722	0.280183	-0.019339	0.959752	-0.442408	0.884688	0.146980	-0.851923	-0.465783	0.239319
60323	9.442766	1.457059	3.469267	-0.138528	-0.150811	-0.163262	0.279542	-0.021382	0.959895	-0.441079	0.885153	0.148169	-0.852822	-0.464809	0.238006
60324	9.008637	1.234180	3.165754	-0.156406	-0.134825	-0.148159	0.278974	-0.023320	0.960015	-0.439359	0.885836	0.149193	-0.853895	-0.463412	0.236880
60325	8.760263	0.930029	2.975995	-0.110611	-0.117686	-0.140052	0.278502	-0.025129	0.960107	-0.437911	0.886378	0.150226	-0.854793	-0.462279	0.235854
60326	8.617377	0.754686	2.873737	-0.035352	-0.109450	-0.121858	0.278030	-0.026715	0.960201	-0.437298	0.886500	0.151285	-0.855260	-0.461956	0.234791
60327	8.699707	0.758402	2.789818	0.042473	-0.117264	-0.103786	0.277432	-0.028096	0.960334	-0.437575	0.886184	0.152338	-0.855313	-0.462482	0.233561
60328	8.926069	0.789315	2.696158	0.093018	-0.131084	-0.087697	0.276625	-0.029479	0.960526	-0.438156	0.885718	0.153370	-0.855276	-0.463286	0.232095
60329	9.182421	1.038471	2.534897	0.103334	-0.133441	-0.071435	0.275706	-0.030721	0.960751	-0.438835	0.885231	0.154238	-0.855225	-0.464135	0.230582
60330	9.299431	1.378514	2.425420	0.095718	-0.118604	-0.062033	0.274894	-0.031821	0.960948	-0.439511	0.884758	0.155027	-0.855139	-0.464963	0.229229
60331	9.326887	1.816043	2.389651	0.096418	-0.110421	-0.083750	0.274269	-0.032923	0.961089	-0.440546	0.884071	0.156005	-0.854807	-0.466192	0.227969
60332	9.175777	2.338979	2.556604	0.080945	-0.124355	-0.114010	0.273639	-0.034511	0.961213	-0.440955	0.883645	0.157257	-0.854799	-0.466883	0.226582
60333	9.043757	2.662870	2.695899	0.043672	-0.150631	-0.155913	0.272940	-0.036643	0.961333	-0.440691	0.883501	0.158797	-0.855158	-0.466993	0.224995
60334	8.806593	2.967369	2.946605	-0.010124	-0.214730	-0.214945	0.271980	-0.039544	0.961490	-0.440048	0.883458	0.160813	-0.855795	-0.466839	0.222882
60335	8.811994	2.995350	3.026187	-0.091459	-0.287653	-0.267603	0.270615	-0.043280	0.961714	-0.438389	0.883857	0.163134	-0.857078	-0.465751	0.220211
60336	8.899257	2.940869	2.956613	-0.189156	-0.339090	-0.326307	0.269063	-0.047742	0.961939	-0.435914	0.884579	0.165831	-0.858827	-0.463941	0.217196
60337	9.087649	2.622836	2.739648	-0.292070	-0.374455	-0.359796	0.267358	-0.052542	0.962164	-0.432787	0.885586	0.168619	-0.860939	-0.461493	0.214029
60338	9.304697	2.073264	2.576798	-0.373658	-0.395580	-0.361446	0.265434	-0.057564	0.962409	-0.428630	0.887097	0.171276	-0.863609	-0.457980	0.210792
60339	9.470369	1.483835	2.557648	-0.419978	-0.396627	-0.332010	0.263347	-0.062327	0.962686	-0.424046	0.888857	0.173547	-0.866507	-0.453926	0.207648
60340	9.613989	0.867286	2.757218	-0.410506	-0.373411	-0.287472	0.261249	-0.066571	0.962973	-0.419758	0.890519	0.175440	-0.869225	-0.450049	0.204703
60341	9.685375	0.376916	2.778342	-0.344716	-0.329485	-0.241662	0.259253	-0.070332	0.963245	-0.415640	0.892139	0.177007	-0.871798	-0.446253	0.202057
60342	9.641709	0.016904	2.664531	-0.206816	-0.262886	-0.196276	0.257702	-0.073252	0.963444	-0.413356	0.892911	0.178454	-0.873342	-0.444233	0.199826
60343	9.614862	-0.083380	2.550012	-0.013219	-0.212431	-0.163530	0.256461	-0.075586	0.963595	-0.413003	0.892774	0.179952	-0.873874	-0.444118	0.197744
60344	9.718908	0.077196	2.502559	0.157035	-0.179240	-0.126027	0.255345	-0.077506	0.963738	-0.414081	0.891972	0.181447	-0.873691	-0.445398	0.195667
60345	9.739732	0.504433	2.398986	0.279774	-0.155224	-0.090177	0.254267	-0.079049	0.963898	-0.416043	0.890782	0.182801	-0.873073	-0.447503	0.193609
60346	9.556757	1.003430	2.276645	0.366603	-0.137593	-0.072977	0.253301	-0.080315	0.964048	-0.419084	0.889070	0.184182	-0.871899	-0.450671	0.191544
60347	9.396263	1.572089	2.126833	0.419037	-0.134079	-0.092039	0.252441	-0.081695	0.964157	-0.422579	0.887076	0.185805	-0.870460	-0.454338	0.189411
60348	9.316464	2.062167	1.779920	0.451665	-0.150783	-0.134140	0.251628	-0.083570	0.964209	-0.426197	0.884897	0.187920	-0.868930	-0.458229	0.187047
60349	9.245774	2.363625	1.369212	0.475342	-0.172860	-0.170127	0.250786	-0.085843	0.964229	-0.429897	0.882577	0.190386	-0.867349	-0.462266	0.184434
60350	9.252765	2.498936	1.115724	0.473483	-0.197828	-0.205378	0.249887	-0.088572	0.964215	-0.433514	0.880192	0.193204	-0.865807	-0.466280	0.181552
60351	9.275090	2.512648	0.988161	0.416337	-0.225098	-0.218109	0.248817	-0.091515	0.964217	-0.436594	0.878049	0.196000	-0.864567	-0.469740	0.178519
60352	9.250910	2.388210	0.912818	0.366981	-0.242314	-0.220955	0.247621	-0.094595	0.964228	-0.439244	0.876106	0.198751	-0.863567	-0.472747	0.175392
60353	9.270364	2.231119	0.926419	0.337506	-0.263529	-0.217892	0.246222	-0.097753	0.964271	-0.441542	0.874349	0.201383	-0.862795	-0.475351	0.172122
60354	9.413580	2.037290	0.907149	0.320513	-0.289345	-0.195049	0.244520	-0.100837	0.964387	-0.443855	0.872620	0.203781	-0.862092	-0.477877	0.168616
60355	9.438549	1.836606	0.863239	0.343707	-0.300942	-0.167330	0.242605	-0.103689	0.964568	-0.446530	0.870753	0.205913	-0.861252	-0.480664	0.164949
60356	9.683343	1.554990	0.864672	0.393410	-0.313020	-0.134871	0.240444	-0.106372	0.964817	-0.449618	0.868707	0.207826	-0.860250	-0.483769	0.161049
60357	9.714811	1.322322	0.989427	0.455968	-0.333598	-0.103385	0.237948	-0.108892	0.965155	-0.453229	0.866427	0.209492	-0.859048	-0.487284	0.156812
60358	9.791324	1.185928	1.043389	0.551031	-0.345687	-0.085629	0.235301	-0.111326	0.965526	-0.457783	0.863629	0.211140	-0.857361	-0.491683	0.152249
60359	9.870474	1.069770	1.081996	0.666196	-0.344768	-0.077192	0.232663	-0.113619	0.965898	-0.463534	0.860138	0.212833	-0.854988	-0.497245	0.147456
60360	9.935278	0.964620	1.089839	0.796996	-0.365905	-0.071308	0.229801	-0.116065	0.966292	-0.470199	0.856061	0.214646	-0.852118	-0.503676	0.142150
60361	9.909590	1.018424	0.970443	0.934816	-0.376099	-0.067876	0.226846	-0.118520	0.966692	-0.478063	0.851213	0.216545	-0.848526	-0.511262	0.136435
60362	9.818430	1.255136	0.876995	1.056848	-0.376679	-0.067505	0.223913	-0.121038	0.967064	-0.486883	0.845677	0.218577	-0.844280	-0.519789	0.130426
60363	9.680542	1.558220	0.700697	1.167785	-0.370433	-0.079746	0.221143	-0.123588	0.967379	-0.496721	0.839359	0.220783	-0.839264	-0.529342	0.124230
60364	9.520069	1.855481	0.587285	1.251927	-0.375124	-0.088747	0.218379	-0.126340	0.967651	-0.507025	0.832550	0.223126	-0.833808	-0.539350	0.117754
60365	9.428980	2.145962	0.426729	1.322607	-0.386314	-0.103603	0.215597	-0.129312	0.967883	-0.517689	0.825296	0.225577	-0.827959	-0.549696	0.110988
60366	9.431418	2.453640	0.472243	1.347258	-0.388036	-0.109775	0.212899	-0.132374	0.968066	-0.528593	0.817667	0.228058	-0.821744	-0.560266	0.104108
60367	9.348492	2.707877	0.442413	1.328312	-0.384220	-0.108153	0.210261	-0.135399	0.968224	-0.539308	0.809981	0.230387	-0.815437	-0.570612	0.097285
60368	9.314180	2.872028	0.422165	1.293989	-0.363026	-0.114530	0.207865	-0.138421	0.968314	-0.549605	0.802368	0.232681	-0.809152	-0.580556	0.090707
60369	9.174265	3.092578	0.489453	1.240337	-0.352908	-0.114140	0.205592	-0.141375	0.968372	-0.559415	0.794930	0.234821	-0.802986	-0.590000	0.084343
60370	9.154020	3.241272	0.555300	1.184928	-0.345481	-0.109639	0.203375	-0.144307	0.968408	-0.568696	0.787721	0.236814	-0.797009	-0.598892	0.078136
60371	9.271943	3.298522	0.568234	1.137270	-0.325129	-0.104786	0.201331	-0.147074	0.968419	-0.577552	0.780696	0.238636	-0.791138	-0.607358	0.072235
60372	9.317158	3.205584	0.638334	1.083552	-0.287693	-0.095861	0.199550	-0.149591	0.968402	-0.585926	0.773921	0.240286	-0.785411	-0.615361	0.066787
60373	9.363327	3.113359	0.716065	1.004016	-0.247886	-0.079033	0.198005	-0.151734	0.968386	-0.593610	0.767615	0.241651	-0.780014	-0.622691	0.061921
60374	9.272318	2.898094	0.681245	0.924288	-0.202951	-0.069697	0.196773	-0.153551	0.968350	-0.600683	0.761713	0.242846	-0.774894	-0.629457	0.057649
60375	9.286276	2.712550	0.622662	0.852791	-0.166957	-0.055152	0.195760	-0.155020	0.968322	-0.607187	0.756225	0.243817	-0.770066	-0.635682	0.053913
60376	9.263546	2.468615	0.684990	0.793390	-0.140849	-0.041513	0.194862	-0.156247	0.968306	-0.613222	0.751086	0.244601	-0.765499	-0.641449	0.050544
60377	9.363818	2.413573	0.828428	0.748478	-0.122808	-0.040652	0.194119	-0.157338	0.968278	-0.618876	0.746196	0.245323	-0.761124	-0.646866	0.047478
60378	9.449311	2.567551	1.027758	0.719042	-0.095880	-0.033606	0.193530	-0.158227	0.968251	-0.624292	0.741464	0.245947	-0.756839	-0.652070	0.044716
60379	9.450835	2.756188	1.060801	0.701630	-0.046925	-0.032560	0.193324	-0.158773	0.968203	-0.629529	0.736828	0.246531	-0.752542	-0.657172	0.042494
60380	9.453181	2.930094	0.955411	0.694819	0.017838	-0.029128	0.193572	-0.158887	0.968135	-0.634709	0.732189	0.247070	-0.748113	-0.662310	0.040884
60381	9.316447	3.025854	0.784804	0.694547	0.071196	-0.045234	0.194335	-0.158742	0.968006	-0.639810	0.727505	0.247750	-0.743557	-0.667486	0.039815
60382	9.212809	2.982403	0.566325	0.701466	0.107559	-0.047633	0.195369	-0.158384	0.967856	-0.644940	0.722719	0.248455	-0.738840	-0.672749	0.039048
60383	9.227268	2.865816	0.517721	0.692158	0.131229	-0.040165	0.196541	-0.157788	0.967716	-0.649964	0.717989	0.249076	-0.734110	-0.677935	0.038558
60384	9.311548	2.762576	0.454921	0.661593	0.138012	-0.034248	0.197705	-0.157113	0.967589	-0.654762	0.713423	0.249628	-0.729520	-0.682893	0.038176
60385	9.328870	2.773778	0.359991	0.638393	0.125820	-0.032771	0.198782	-0.156486	0.967470	-0.659346	0.709004	0.250153	-0.725086	-0.687623	0.037759
60386	9.452372	2.858916	0.169779	0.628366	0.099119	-0.045260	0.199728	-0.156142	0.967330	-0.663821	0.704588	0.250793	-0.720729	-0.692225	0.037076
60387	9.577781	2.933275	-0.124039	0.631489	0.068463	-0.052070	0.200514	-0.156036	0.967185	-0.668259	0.700129	0.251494	-0.716397	-0.696758	0.036113
60388	9.652058	2.963269	-0.453958	0.657709	0.050218	-0.041733	0.201084	-0.155997	0.967073	-0.672895	0.695456	0.252098	-0.711883	-0.701431	0.034875
60389	9.654056	2.885571	-0.653045	0.676427	0.007926	-0.038543	0.201347	-0.156216	0.966983	-0.677624	0.690640	0.252669	-0.707308	-0.706125	0.033203
60390	9.672325	2.858938	-0.783466	0.652951	-0.033855	-0.026170	0.201218	-0.156657	0.966938	-0.682198	0.685964	0.253100	-0.702934	-0.710572	0.031157
60391	9.827174	2.855491	-0.834039	0.596621	-0.087457	-0.015368	0.200656	-0.157396	0.966935	-0.686356	0.681693	0.253396	-0.699037	-0.714507	0.028756
60392	9.773095	2.864853	-0.791310	0.503324	-0.127957	0.002624	0.199677	-0.158317	0.966987	-0.689894	0.678082	0.253476	-0.695827	-0.717732	0.026176
60393	9.771002	2.915002	-0.718822	0.413136	-0.171889	0.027676	0.198237	-0.159379	0.967109	-0.692824	0.675162	0.253281	-0.693323	-0.720246	0.023420
60394	9.648820	2.852462	-0.700325	0.356134	-0.194492	0.052076	0.196461	-0.160454	0.967294	-0.695415	0.672666	0.252822	-0.691232	-0.722340	0.020570
60395	9.612085	2.744876	-0.590623	0.315092	-0.208784	0.078915	0.194414	-0.161450	0.967542	-0.697751	0.670518	0.252090	-0.689454	-0.724113	0.017706
60396	9.678811	2.592833	-0.419509	0.284260	-0.221804	0.099689	0.192121	-0.162414	0.967838	-0.699924	0.668608	0.251138	-0.687893	-0.725662	0.014776
60397	9.589932	2.399471	-0.160136	0.268017	-0.236112	0.116516	0.189626	-0.163369	0.968170	-0.701994	0.666855	0.250018	-0.686474	-0.727060	0.011769
60398	9.571415	2.177374	0.020753	0.258141	-0.244338	0.122370	0.187021	-0.164356	0.968509	-0.704017	0.665166	0.248826	-0.685115	-0.728383	0.008691
60399	9.571766	2.011504	0.091810	0.295781	-0.252715	0.120499	0.184386	-0.165417	0.968834	-0.706273	0.663210	0.247651	-0.683506	-0.729924	0.005457
60400	9.572658	1.888913	0.161459	0.355859	-0.263730	0.113297	0.181716	-0.166618	0.969132	-0.708930	0.660787	0.246533	-0.681467	-0.731846	0.001955
60401	9.608690	1.808472	0.169462	0.419759	-0.270388	0.108811	0.179047	-0.167901	0.969408	-0.711989	0.657895	0.245449	-0.678980	-0.734155	-0.001749
60402	9.594118	1.801003	0.224958	0.477652	-0.274103	0.102645	0.176389	-0.169267	0.969657	-0.715429	0.654544	0.244403	-0.676053	-0.736831	-0.005644
60403	9.650261	1.878374	0.276900	0.537904	-0.271973	0.096360	0.173807	-0.170664	0.969879	-0.719235	0.650738	0.243396	-0.672676	-0.739875	-0.009645
60404	9.588118	2.019810	0.456354	0.598622	-0.254580	0.084371	0.171423	-0.172029	0.970062	-0.723417	0.646432	0.242474	-0.668792	-0.743325	-0.013636
60405	9.490994	2.188043	0.475041	0.653968	-0.233853	0.074145	0.169269	-0.173311	0.970212	-0.727912	0.641688	0.241621	-0.664449	-0.747128	-0.017537
60406	9.393889	2.345205	0.513812	0.688931	-0.205845	0.056587	0.167425	-0.174517	0.970316	-0.732590	0.636614	0.240905	-0.659759	-0.751177	-0.021264
60407	9.313213	2.542564	0.460994	0.713596	-0.172853	0.036578	0.165963	-0.175603	0.970371	-0.737350	0.631304	0.240353	-0.654806	-0.755393	-0.024707
60408	9.160151	2.667700	0.334349	0.728223	-0.128349	0.021075	0.164903	-0.176469	0.970395	-0.742155	0.625814	0.239924	-0.649625	-0.759747	-0.027769
60409	9.024210	2.781588	0.260251	0.714318	-0.093814	0.004393	0.164208	-0.177172	0.970384	-0.746792	0.620382	0.239641	-0.644467	-0.764026	-0.030439
60410	8.939715	2.922496	0.175569	0.668239	-0.065788	-0.013833	0.163822	-0.177789	0.970337	-0.751080	0.615227	0.239530	-0.639563	-0.768041	-0.032746
60411	8.959727	3.040880	0.192709	0.580989	-0.049664	-0.018590	0.163592	-0.178302	0.970281	-0.754759	0.610726	0.239483	-0.635276	-0.771507	-0.034666
60412	9.026318	3.099106	0.006270	0.487320	-0.042382	-0.018453	0.163396	-0.178771	0.970228	-0.757836	0.606915	0.239455	-0.631653	-0.774400	-0.036311
60413	9.143077	3.121761	-0.225627	0.400301	-0.038412	-0.009968	0.163177	-0.179147	0.970196	-0.760348	0.603798	0.239374	-0.628685	-0.776746	-0.037688
60414	9.224298	3.033674	-0.405026	0.336058	-0.048238	0.007386	0.162752	-0.179506	0.970201	-0.762488	0.601186	0.239139	-0.626198	-0.778687	-0.039027
60415	9.306746	2.972927	-0.566863	0.277491	-0.081474	0.026335	0.161990	-0.180002	0.970236	-0.764269	0.599077	0.238745	-0.624221	-0.780196	-0.040526
60416	9.411333	3.020212	-0.611460	0.194710	-0.135376	0.046099	0.160727	-0.180813	0.970296	-0.765578	0.597629	0.238183	-0.622943	-0.781119	-0.042371
60417	9.501145	3.074872	-0.569750	0.123372	-0.191539	0.069120	0.158953	-0.181917	0.970381	-0.766459	0.596797	0.237431	-0.622313	-0.781498	-0.044569
60418	9.560102	3.152343	-0.433205	0.062596	-0.247221	0.092845	0.156637	-0.183324	0.970493	-0.767015	0.596466	0.236467	-0.622216	-0.781422	-0.047184
60419	9.654756	3.082663	-0.186571	0.020255	-0.292113	0.117331	0.153868	-0.184929	0.970632	-0.767325	0.596532	0.235293	-0.622525	-0.780994	-0.050113
60420	9.681215	2.904467	0.109262	0.005370	-0.334809	0.134052	0.150688	-0.186772	0.970778	-0.767582	0.596728	0.233954	-0.622986	-0.780405	-0.053443
60421	9.688725	2.662003	0.338612	0.033038	-0.355319	0.153148	0.147248	-0.188652	0.970942	-0.768016	0.596767	0.232424	-0.623273	-0.779923	-0.057015
60422	9.707887	2.360920	0.420787	0.093027	-0.358579	0.164111	0.143686	-0.190499	0.971115	-0.768854	0.596341	0.230741	-0.623072	-0.779800	-0.060780
60423	9.795432	2.135580	0.430863	0.218526	-0.344376	0.169589	0.140188	-0.192195	0.971292	-0.770454	0.594971	0.228931	-0.621890	-0.780429	-0.064670
60424	9.780072	2.021358	0.394783	0.345072	-0.295920	0.173320	0.136947	-0.193507	0.971494	-0.772855	0.592599	0.226983	-0.619629	-0.781909	-0.068398
60425	9.863353	1.855237	0.302253	0.437163	-0.251411	0.176924	0.133975	-0.194448	0.971720	-0.775797	0.589530	0.224931	-0.616596	-0.783993	-0.071870
60426	9.783364	1.768274	0.373845	0.542265	-0.200329	0.178822	0.131287	-0.195000	0.971977	-0.779385	0.585608	0.222759	-0.612636	-0.786790	-0.075098
60427	9.734409	1.805248	0.292774	0.612911	-0.153954	0.170198	0.128970	-0.195237	0.972239	-0.783347	0.581119	0.220608	-0.608058	-0.790053	-0.077992
60428	9.636511	1.890105	0.242049	0.668998	-0.098829	0.165601	0.127005	-0.195092	0.972527	-0.787628	0.576133	0.218432	-0.602919	-0.793732	-0.080488
60429	9.555361	1.948584	0.206516	0.679671	-0.068772	0.148520	0.125372	-0.194801	0.972797	-0.791895	0.571026	0.216405	-0.597648	-0.797485	-0.082671
60430	9.584973	2.009026	0.308156	0.652087	-0.030547	0.139714	0.124016	-0.194282	0.973075	-0.795968	0.566074	0.214465	-0.592499	-0.801133	-0.084440
60431	9.666001	2.106887	0.374655	0.593322	0.000110	0.127486	0.122954	-0.193575	0.973351	-0.799626	0.561569	0.212691	-0.587775	-0.804468	-0.085740
60432	9.494622	2.063533	0.380583	0.526943	0.048503	0.113073	0.122266	-0.192583	0.973634	-0.802869	0.557529	0.211100	-0.583483	-0.807510	-0.086452
60433	9.340326	2.121442	0.304089	0.479917	0.073944	0.101051	0.121839	-0.191434	0.973914	-0.805782	0.553853	0.209672	-0.579543	-0.810309	-0.086773
60434	9.243732	2.318439	0.213406	0.470159	0.081182	0.080329	0.121595	-0.190364	0.974154	-0.808613	0.550178	0.208445	-0.575639	-0.813059	-0.087032
60435	9.251736	2.637249	0.014588	0.476378	0.092647	0.062112	0.121580	-0.189278	0.974368	-0.811420	0.546429	0.207396	-0.571678	-0.815837	-0.087149
60436	9.201475	2.828409	-0.191463	0.483779	0.109762	0.046746	0.121761	-0.188159	0.974562	-0.814250	0.542551	0.206483	-0.567601	-0.818678	-0.087147
60437	9.257876	2.950720	-0.270640	0.456809	0.112102	0.043962	0.121995	-0.187012	0.974753	-0.816885	0.538902	0.205629	-0.563751	-0.821347	-0.087024
60438	9.327528	2.962345	-0.319960	0.363776	0.106317	0.049985	0.122120	-0.185902	0.974950	-0.819009	0.535991	0.204789	-0.560635	-0.823501	-0.086800
60439	9.446188	2.913254	-0.368823	0.259132	0.096511	0.059550	0.122132	-0.184798	0.975158	-0.820528	0.533981	0.203958	-0.558407	-0.825054	-0.086416
60440	9.590411	2.828555	-0.591971	0.161539	0.104881	0.073758	0.122047	-0.183573	0.975400	-0.821535	0.532771	0.203064	-0.556942	-0.826109	-0.085788
60441	9.679081	2.728383	-0.898766	0.085538	0.081087	0.088853	0.121730	-0.182440	0.975652	-0.822115	0.532243	0.202099	-0.556155	-0.826700	-0.085197
60442	9.862798	2.711961	-1.116346	0.031085	0.025346	0.087848	0.121085	-0.181797	0.975853	-0.822411	0.532134	0.201180	-0.555858	-0.826912	-0.085079
60443	10.130857	2.818961	-1.122307	-0.009687	-0.040906	0.083103	0.120136	-0.181705	0.975987	-0.822452	0.532382	0.200354	-0.556003	-0.826772	-0.085485
60444	10.473345	2.943990	-1.020201	-0.015421	-0.110567	0.084204	0.118765	-0.182204	0.976062	-0.822484	0.532650	0.199509	-0.556251	-0.826490	-0.086600
60445	10.881887	3.051982	-0.985541	0.005703	-0.134177	0.109516	0.117080	-0.182743	0.976165	-0.822638	0.532821	0.198413	-0.556380	-0.826261	-0.087949
60446	11.041918	3.004931	-0.911016	0.002704	-0.129579	0.126337	0.115255	-0.183174	0.976301	-0.822817	0.533017	0.197141	-0.556497	-0.826038	-0.089286
60447	10.995908	2.691799	-0.843731	-0.082992	-0.099476	0.143844	0.113481	-0.183242	0.976496	-0.822512	0.533985	0.195790	-0.557312	-0.825398	-0.090121
60448	10.877988	2.165463	-0.546447	-0.187237	-0.098113	0.159012	0.111562	-0.183234	0.976718	-0.821662	0.535809	0.194371	-0.558950	-0.824217	-0.090781
60449	10.768940	1.801372	0.096018	-0.274506	-0.104130	0.172626	0.109526	-0.183178	0.976960	-0.820308	0.538404	0.192913	-0.561337	-0.822537	-0.091293
60450	10.744750	1.832126	0.520829	-0.325483	-0.067895	0.200186	0.107439	-0.182688	0.977283	-0.818710	0.541432	0.191218	-0.564066	-0.820656	-0.091398
60451	10.568766	1.940755	0.562262	-0.328231	0.011509	0.204456	0.105795	-0.181493	0.977685	-0.817065	0.544515	0.189496	-0.566756	-0.818880	-0.090685
60452	10.374504	2.009579	0.296040	-0.304075	0.083397	0.202467	0.104552	-0.179739	0.978143	-0.815567	0.547356	0.187754	-0.569139	-0.817371	-0.089362
60453	10.289989	1.999904	0.266559	-0.290737	0.145217	0.190948	0.103789	-0.177511	0.978631	-0.814101	0.550091	0.186119	-0.571374	-0.816021	-0.087419
60454	10.316340	1.961566	0.444898	-0.342730	0.215148	0.178394	0.103505	-0.174805	0.979147	-0.812340	0.553187	0.184631	-0.573926	-0.814511	-0.084743
60455	10.297678	1.971792	0.737732	-0.441779	0.287381	0.168478	0.103759	-0.171535	0.979699	-0.809964	0.557092	0.183323	-0.577229	-0.812542	-0.081134
60456	10.438954	2.045213	1.071825	-0.573165	0.357374	0.158659	0.104482	-0.167780	0.980272	-0.806825	0.561998	0.182185	-0.581478	-0.809943	-0.076651
60457	10.277448	2.136194	1.238805	-0.703353	0.448398	0.152564	0.105840	-0.163292	0.980884	-0.802869	0.567956	0.181182	-0.586685	-0.806698	-0.070990
60458	10.263690	2.066515	1.090004	-0.824987	0.521759	0.145650	0.107685	-0.158292	0.981503	-0.798177	0.574817	0.180276	-0.592721	-0.802826	-0.064446
60459	9.894920	1.893293	0.917459	-0.890855	0.596350	0.140694	0.110089	-0.152698	0.982122	-0.793012	0.582190	0.179408	-0.599177	-0.798585	-0.056998
60460	9.799242	1.825471	0.914723	-0.918450	0.655399	0.126693	0.112970	-0.146766	0.982699	-0.787638	0.589681	0.178615	-0.605693	-0.794189	-0.048982
60461	9.677264	1.723783	0.590071	-0.897483	0.732283	0.117834	0.116474	-0.140257	0.983240	-0.782300	0.596980	0.177828	-0.611916	-0.789901	-0.040191
60462	9.492581	1.659089	0.226594	-0.827888	0.804164	0.115267	0.120451	-0.133257	0.983735	-0.777366	0.603647	0.176953	-0.617409	-0.786036	-0.030879
60463	9.375865	1.512879	-0.129039	-0.768598	0.830033	0.101820	0.124778	-0.126118	0.984136	-0.772717	0.609827	0.176123	-0.622366	-0.782435	-0.021360
60464	9.370377	1.398811	-0.269418	-0.742612	0.853167	0.098149	0.129285	-0.118884	0.984455	-0.768221	0.615731	0.175244	-0.626994	-0.778936	-0.011724
60465	8.934499	1.310631	-0.224515	-0.771857	0.863379	0.126134	0.133724	-0.111382	0.984740	-0.763521	0.621893	0.174024	-0.631786	-0.775141	-0.001881
60466	9.418032	1.203274	-0.305091	-0.794581	0.816536	0.135306	0.137806	-0.104251	0.984958	-0.758685	0.628168	0.172635	-0.636716	-0.771062	0.007472
60467	9.317077	1.259909	0.012897	-0.751275	0.790986	0.128397	0.141859	-0.097344	0.985089	-0.754057	0.634092	0.171248	-0.641307	-0.767106	0.016549
60468	9.382528	1.382776	0.097982	-0.749019	0.750679	0.146740	0.145520	-0.090692	0.985190	-0.749467	0.639946	0.169613	-0.645851	-0.763049	0.025155
60469	9.572059	1.423844	-0.057565	-0.741114	0.736882	0.149664	0.149147	-0.084109	0.985231	-0.744877	0.645733	0.167887	-0.650317	-0.758917	0.033658
60470	9.372069	1.562911	-0.163585	-0.674711	0.716181	0.155640	0.152595	-0.077703	0.985229	-0.740732	0.650952	0.166066	-0.654241	-0.755131	0.041775
60471	9.499074	1.674267	-0.227662	-0.597033	0.656212	0.153129	0.155737	-0.071745	0.985190	-0.737047	0.655578	0.164252	-0.657653	-0.751711	0.049218
60472	9.499070	1.802737	-0.153519	-0.536767	0.598064	0.159181	0.158441	-0.066236	0.985144	-0.733780	0.659700	0.162368	-0.660654	-0.748605	0.055921
60473	9.703073	1.881645	-0.089957	-0.500579	0.542536	0.153574	0.160876	-0.061154	0.985078	-0.730705	0.663552	0.160528	-0.663467	-0.745627	0.062064
60474	9.640661	1.931507	0.004355	-0.480301	0.510248	0.142515	0.163162	-0.056432	0.984984	-0.727764	0.667195	0.158779	-0.666136	-0.742743	0.067791
60475	9.620808	1.864165	0.050903	-0.475077	0.485034	0.120703	0.165490	-0.052018	0.984839	-0.724791	0.670790	0.157223	-0.668799	-0.739821	0.073307
60476	9.596838	1.828763	0.173438	-0.496842	0.453722	0.081075	0.167877	-0.048146	0.984632	-0.721617	0.674483	0.156014	-0.671629	-0.736718	0.078487
60477	9.562099	1.753914	0.352058	-0.544404	0.409846	0.056507	0.170197	-0.044743	0.984394	-0.718044	0.678522	0.154987	-0.674867	-0.733216	0.083355
60478	9.630199	1.654919	0.496346	-0.585672	0.388454	0.024974	0.172579	-0.041754	0.984110	-0.714146	0.682800	0.154206	-0.678389	-0.729411	0.088018
60479	9.512808	1.604746	0.612736	-0.614487	0.379913	0.011109	0.175051	-0.038906	0.983790	-0.709981	0.687285	0.153511	-0.682117	-0.725345	0.092688
60480	9.603248	1.563913	0.556948	-0.618221	0.378887	0.003377	0.177551	-0.036164	0.983447	-0.705781	0.691743	0.152858	-0.685820	-0.721238	0.097296
60481	9.615523	1.489169	0.553771	-0.602480	0.392918	-0.002131	0.180234	-0.033344	0.983059	-0.701634	0.696082	0.152247	-0.689366	-0.717188	0.102062
60482	9.580631	1.388878	0.645703	-0.585349	0.405883	-0.006318	0.183015	-0.030505	0.982637	-0.697600	0.700251	0.151666	-0.692719	-0.713245	0.106876
60483	9.705244	1.382289	0.807184	-0.586645	0.421945	-0.015090	0.186016	-0.027602	0.982159	-0.693495	0.704430	0.151142	-0.696034	-0.709237	0.111893
60484	9.783424	1.368894	0.895954	-0.563808	0.443882	-0.021535	0.189193	-0.024634	0.981631	-0.689544	0.708396	0.150676	-0.699095	-0.705385	0.117037
60485	9.736645	1.462598	1.108268	-0.515121	0.485302	-0.040130	0.192834	-0.021496	0.980996	-0.685861	0.712017	0.150422	-0.701719	-0.701833	0.122558
60486	9.533077	1.551096	1.444852	-0.478662	0.494223	-0.047001	0.196561	-0.018389	0.980319	-0.682429	0.715343	0.150251	-0.704028	-0.698531	0.128060
60487	9.612681	1.687716	1.627167	-0.491151	0.480749	-0.048483	0.200248	-0.015378	0.979625	-0.678872	0.718761	0.150053	-0.706423	-0.695088	0.133490
60488	9.686253	1.752935	1.786984	-0.540379	0.478544	-0.036054	0.203810	-0.012339	0.978933	-0.674998	0.722486	0.149639	-0.709111	-0.691276	0.138921
60489	9.622234	1.775795	1.888266	-0.628642	0.476767	-0.020807	0.207304	-0.009194	0.978233	-0.670487	0.726822	0.148919	-0.712371	-0.686764	0.144508
60490	9.748938	1.748915	1.963959	-0.719260	0.474690	-0.007140	0.210674	-0.006016	0.977538	-0.665359	0.731727	0.147898	-0.716180	-0.681572	0.150153
60491	9.620427	1.735913	2.128007	-0.806995	0.482033	0.019298	0.213977	-0.002595	0.976835	-0.659595	0.737217	0.146443	-0.720520	-0.675651	0.156036
60492	9.712291	1.651414	2.159520	-0.869333	0.506016	0.024416	0.217406	0.000973	0.976081	-0.653388	0.743047	0.144791	-0.725133	-0.669238	0.162179
60493	9.517598	1.497449	2.296064	-0.903098	0.549372	0.037929	0.221121	0.004931	0.975234	-0.646912	0.749058	0.142891	-0.729802	-0.662486	0.168822
60494	9.457796	1.403940	2.388442	-0.877078	0.569617	0.029383	0.225033	0.008892	0.974311	-0.640582	0.754821	0.141064	-0.734176	-0.655870	0.175555
60495	9.334520	1.374832	2.589877	-0.847475	0.613841	0.020164	0.229393	0.013064	0.973246	-0.634387	0.760358	0.139317	-0.738196	-0.649373	0.182708
60496	9.206950	1.174936	2.671057	-0.819534	0.653248	0.020029	0.234032	0.017425	0.972073	-0.628394	0.765635	0.137565	-0.741856	-0.643039	0.190133
60497	9.256886	1.143355	2.752378	-0.780980	0.668782	0.014397	0.238882	0.021836	0.970803	-0.622641	0.770620	0.135877	-0.745153	-0.636921	0.197683
60498	9.279265	1.071019	2.651321	-0.761144	0.693496	0.019431	0.243871	0.026370	0.969449	-0.617031	0.775424	0.134125	-0.748198	-0.630890	0.205375
60499	9.332515	1.095737	2.652720	-0.746081	0.706236	0.035773	0.248914	0.031107	0.968026	-0.611547	0.780089	0.132183	-0.751035	-0.624895	0.213198
60500	9.505661	1.222827	2.656137	-0.747927	0.733641	0.056268	0.254022	0.036098	0.966525	-0.606087	0.784705	0.129985	-0.753744	-0.618817	0.221211
60501	9.481328	1.335300	2.765460	-0.759961	0.722931	0.070711	0.259033	0.041124	0.964993	-0.600523	0.789367	0.127559	-0.756488	-0.612542	0.229168
60502	9.600051	1.486218	2.894465	-0.756747	0.739830	0.073704	0.264130	0.046206	0.963380	-0.595009	0.793931	0.125055	-0.759078	-0.606250	0.237194
60503	9.572574	1.487888	3.116925	-0.778891	0.770319	0.071822	0.269538	0.051446	0.961615	-0.589284	0.798593	0.122450	-0.761639	-0.599669	0.245567
60504	9.506028	1.402668	3.202874	-0.791574	0.769549	0.065580	0.274956	0.056551	0.959792	-0.583451	0.803262	0.119815	-0.764189	-0.592935	0.253856
60505	9.291939	1.235825	3.254501	-0.806508	0.729975	0.065960	0.280130	0.061412	0.957996	-0.577475	0.807971	0.117066	-0.766844	-0.586013	0.261801
60506	9.471467	1.131088	3.179307	-0.804265	0.704496	0.063125	0.285111	0.066020	0.956218	-0.571504	0.812600	0.114298	-0.769477	-0.579070	0.269412
60507	9.313187	0.992398	3.080397	-0.792490	0.683227	0.065458	0.289982	0.070508	0.954431	-0.565578	0.817127	0.111473	-0.772031	-0.572130	0.276829
60508	9.193216	0.824913	3.031196	-0.793024	0.663231	0.065038	0.294676	0.074806	0.952665	-0.559664	0.821573	0.108602	-0.774559	-0.565175	0.283964
60509	9.129962	0.683790	2.912936	-0.807482	0.648556	0.073248	0.299273	0.079078	0.950885	-0.553621	0.826053	0.105545	-0.777136	-0.558017	0.290994
60510	9.153973	0.583713	2.835086	-0.803245	0.643014	0.079949	0.303769	0.083300	0.949097	-0.547639	0.830426	0.102394	-0.779625	-0.550867	0.297876
60511	9.018256	0.487380	2.966073	-0.792008	0.657876	0.084229	0.308421	0.087629	0.947205	-0.541716	0.834691	0.099169	-0.781933	-0.543702	0.304906
60512	9.151267	0.489547	3.019138	-0.777745	0.663088	0.083334	0.313096	0.091904	0.945264	-0.535915	0.838801	0.095956	-0.784070	-0.536625	0.311878
60513	9.013682	0.363571	2.990799	-0.753115	0.675388	0.074824	0.317972	0.096162	0.943211	-0.530244	0.842747	0.092834	-0.785961	-0.529651	0.318960
60514	8.929842	0.381157	2.916735	-0.716256	0.672869	0.063442	0.322864	0.100237	0.941122	-0.524842	0.846439	0.089901	-0.787591	-0.522967	0.325893
60515	8.822856	0.402748	2.995675	-0.691887	0.659278	0.034928	0.327851	0.103989	0.938989	-0.519506	0.850000	0.087253	-0.789067	-0.516417	0.332696
60516	8.573124	0.484844	3.161434	-0.698701	0.646545	0.009338	0.332842	0.107385	0.936848	-0.514049	0.853559	0.084793	-0.790550	-0.509809	0.339301
60517	8.515620	0.581181	3.230287	-0.715310	0.628744	-0.022801	0.337905	0.110405	0.934682	-0.508319	0.857206	0.082514	-0.792106	-0.502999	0.345775
60518	8.284371	0.528107	3.301790	-0.711282	0.592837	-0.045299	0.342767	0.112977	0.932602	-0.502557	0.860795	0.080431	-0.793692	-0.496254	0.351830
60519	8.178669	0.404058	3.333540	-0.643912	0.554495	-0.065167	0.347469	0.115182	0.930590	-0.497224	0.864044	0.078711	-0.795005	-0.490062	0.357500
60520	7.973062	0.352923	3.311421	-0.552500	0.517964	-0.082946	0.351933	0.116989	0.928685	-0.492571	0.866818	0.077468	-0.795938	-0.484707	0.362687
60521	7.946219	0.336892	3.202850	-0.438600	0.479545	-0.100703	0.356217	0.118463	0.926864	-0.488731	0.869051	0.076758	-0.796399	-0.480329	0.367467
60522	7.882896	0.344849	3.049021	-0.314966	0.453763	-0.120862	0.360352	0.119585	0.925119	-0.485822	0.870687	0.076688	-0.796319	-0.477078	0.371851
60523	7.824931	0.398206	2.905479	-0.234666	0.400611	-0.139828	0.364190	0.120307	0.923521	-0.483456	0.871970	0.077060	-0.796012	-0.474546	0.375726
60524	7.813303	0.417578	2.771671	-0.182249	0.330026	-0.163365	0.367538	0.120446	0.922176	-0.481440	0.873014	0.077856	-0.795695	-0.472587	0.378854
60525	7.821377	0.495934	2.724506	-0.155288	0.256529	-0.182856	0.370428	0.120093	0.921065	-0.479541	0.873965	0.078906	-0.795502	-0.470917	0.381331
60526	7.666672	0.666350	2.660487	-0.109503	0.178005	-0.213332	0.372799	0.119068	0.920241	-0.477909	0.874719	0.080428	-0.795376	-0.469775	0.382998
60527	7.578337	0.828786	2.610491	-0.051285	0.083629	-0.247939	0.374616	0.117325	0.919727	-0.476586	0.875251	0.082469	-0.795316	-0.469223	0.383799
60528	7.471910	0.999610	2.502579	0.005274	0.003223	-0.285526	0.375935	0.114843	0.919502	-0.475590	0.875542	0.085091	-0.795291	-0.469294	0.383765
60529	7.343503	1.107641	2.366680	0.060890	-0.102096	-0.324826	0.376635	0.111551	0.919621	-0.474863	0.875622	0.088268	-0.795393	-0.469939	0.382762
60530	7.278150	1.137229	2.273132	0.115186	-0.233084	-0.364275	0.376444	0.107268	0.920209	-0.474441	0.875463	0.092035	-0.795736	-0.471231	0.380455
60531	7.426324	1.077317	2.150138	0.163752	-0.372935	-0.397332	0.375327	0.102059	0.921256	-0.474263	0.875104	0.096272	-0.796370	-0.473051	0.376853
60532	7.526981	1.079096	2.028094	0.207285	-0.505821	-0.425716	0.373249	0.095938	0.922757	-0.474354	0.874527	0.100949	-0.797291	-0.475393	0.371926
60533	7.655839	1.068825	1.977473	0.249209	-0.627539	-0.452562	0.370356	0.089019	0.924615	-0.474672	0.873756	0.106008	-0.798451	-0.478149	0.365855
60534	7.948937	1.226047	2.239986	0.273799	-0.730753	-0.473121	0.366697	0.081384	0.926774	-0.475149	0.872831	0.111355	-0.799855	-0.481189	0.358733
60535	8.600207	1.350699	2.566032	0.263163	-0.785455	-0.497418	0.362736	0.073279	0.929006	-0.475454	0.871944	0.116866	-0.801477	-0.484091	0.351127
60536	8.828298	1.509903	2.932293	0.223300	-0.811515	-0.505488	0.358561	0.064936	0.931245	-0.475455	0.871195	0.122318	-0.803353	-0.486623	0.343251
60537	9.015864	1.667539	3.133770	0.162239	-0.841592	-0.488519	0.354076	0.056603	0.933502	-0.475032	0.870700	0.127384	-0.805590	-0.488547	0.335182
60538	9.307152	1.670965	3.158054	0.090974	-0.852839	-0.458028	0.349302	0.048444	0.935757	-0.474187	0.870482	0.131941	-0.808168	-0.489811	0.327032
60539	9.725912	1.637541	3.093958	0.030227	-0.870778	-0.429688	0.344250	0.040459	0.938006	-0.472953	0.870524	0.136026	-0.811054	-0.490459	0.318813
60540	10.615873	1.458915	3.011041	-0.050515	-0.898854	-0.388843	0.338713	0.032667	0.940322	-0.471246	0.870901	0.139492	-0.814371	-0.490371	0.310380
60541	11.851614	1.162284	3.359865	-0.198499	-0.891587	-0.345590	0.333021	0.025313	0.942580	-0.468477	0.871973	0.142100	-0.818307	-0.488899	0.302243
60542	13.666565	0.980316	4.514625	-0.399310	-0.815369	-0.290512	0.327617	0.018805	0.944623	-0.464272	0.873970	0.143622	-0.822872	-0.485615	0.295058
60543	15.097731	1.041399	5.972586	-0.615056	-0.609172	-0.226640	0.323596	0.013905	0.946093	-0.458471	0.876978	0.143924	-0.827702	-0.480330	0.290161
60544	14.566759	0.972102	6.237179	-0.793650	-0.319561	-0.174673	0.321670	0.010848	0.946790	-0.451352	0.880772	0.143255	-0.832352	-0.473416	0.288215
60545	12.664884	0.950181	5.212621	-0.951726	-0.132487	-0.130935	0.321111	0.009102	0.946998	-0.443000	0.885252	0.141706	-0.837042	-0.465023	0.288296
60546	10.634326	0.362986	3.488425	-1.009572	-0.078236	-0.090561	0.320784	0.007941	0.947119	-0.434267	0.889898	0.139623	-0.841730	-0.456091	0.288914
60547	8.898526	-0.587698	2.087833	-0.776406	-0.119032	-0.088435	0.320123	0.006650	0.947353	-0.427448	0.893419	0.138169	-0.845464	-0.449175	0.288846
60548	7.965676	-1.433572	0.773333	-0.252040	-0.210331	-0.138921	0.318867	0.004470	0.947789	-0.424903	0.894545	0.138732	-0.847220	-0.446955	0.287141
60549	7.960406	-2.025608	-0.283931	0.362074	-0.284545	-0.200538	0.317270	0.001442	0.948334	-0.427350	0.892926	0.141614	-0.846588	-0.450201	0.283915
60550	8.266875	-1.930556	-0.796201	0.807321	-0.372514	-0.214444	0.314976	-0.002155	0.949097	-0.433530	0.889251	0.145894	-0.844300	-0.457415	0.279158
60551	8.604387	-0.935495	-0.608885	0.997194	-0.486450	-0.204791	0.311722	-0.006173	0.950153	-0.441322	0.884632	0.150534	-0.841465	-0.466249	0.273035
60552	8.945357	0.869016	-0.191003	0.992284	-0.550222	-0.199005	0.307918	-0.010515	0.951355	-0.449074	0.879934	0.155074	-0.838761	-0.474979	0.266225
60553	9.078026	3.119974	0.356870	0.882803	-0.584845	-0.201723	0.303877	-0.015043	0.952593	-0.455882	0.875677	0.159255	-0.836559	-0.482663	0.259240
60554	9.011758	5.018349	0.805714	0.708504	-0.656974	-0.222738	0.299338	-0.020179	0.953934	-0.461164	0.872185	0.163160	-0.835299	-0.488760	0.251772
60555	9.006908	5.748012	1.227242	0.471771	-0.737661	-0.245416	0.294256	-0.025903	0.955375	-0.464408	0.869806	0.166621	-0.835307	-0.492713	0.243917
60556	9.117519	5.083189	1.689379	0.235308	-0.798552	-0.276725	0.288800	-0.032249	0.956846	-0.465599	0.868553	0.169802	-0.836548	-0.494546	0.235823
60557	9.313877	3.483277	2.024211	0.032834	-0.848879	-0.308454	0.283070	-0.039103	0.958302	-0.465014	0.868277	0.172789	-0.838828	-0.494535	0.227600
60558	9.563128	1.686787	2.141652	-0.105830	-0.880915	-0.299139	0.276988	-0.046050	0.959769	-0.463318	0.868662	0.175392	-0.841792	-0.493260	0.219273
60559	9.699949	0.343160	2.008854	-0.121656	-0.895471	-0.268092	0.270622	-0.052770	0.961238	-0.461578	0.869127	0.177663	-0.844813	-0.491766	0.210847
60560	9.795715	-0.288821	1.920450	0.000065	-0.867953	-0.227621	0.264261	-0.059013	0.962644	-0.461000	0.868989	0.179823	-0.847139	-0.491300	0.202435
60561	9.901303	-0.419097	2.023504	0.224872	-0.811459	-0.189359	0.258200	-0.064624	0.963928	-0.462441	0.867760	0.182047	-0.848222	-0.492765	0.194171
60562	10.014578	-0.165042	2.280134	0.473645	-0.727522	-0.155550	0.252684	-0.069569	0.965045	-0.466091	0.865303	0.184418	-0.847886	-0.496398	0.186223
60563	9.964394	0.284873	2.561502	0.677674	-0.618499	-0.131113	0.248002	-0.073759	0.965948	-0.471527	0.861824	0.186871	-0.846261	-0.501815	0.178955
60564	9.795668	0.885283	2.730648	0.853362	-0.513094	-0.123891	0.244186	-0.077417	0.966633	-0.478462	0.857409	0.189536	-0.843473	-0.508779	0.172327
60565	9.457809	1.481625	2.656788	0.966740	-0.433806	-0.123909	0.241075	-0.080668	0.967148	-0.486326	0.852351	0.192316	-0.839863	-0.516712	0.166249
60566	9.167138	2.108344	2.427483	1.025680	-0.370938	-0.145320	0.238611	-0.083836	0.967490	-0.494600	0.846878	0.195367	-0.835725	-0.525137	0.160609
60567	8.859828	2.594743	2.058712	1.026592	-0.333195	-0.164285	0.236596	-0.086955	0.967709	-0.502792	0.841301	0.198524	-0.831398	-0.533527	0.155328
60568	8.754107	3.002011	1.666553	0.993218	-0.319682	-0.187162	0.234824	-0.090245	0.967840	-0.510617	0.835786	0.201822	-0.827121	-0.541587	0.150182
60569	8.715930	3.297811	1.384564	0.909133	-0.319731	-0.195334	0.233134	-0.093587	0.967931	-0.517688	0.830646	0.205003	-0.823193	-0.548879	0.145203
60570	8.731323	3.578557	1.248407	0.782565	-0.330295	-0.193974	0.231362	-0.097021	0.968018	-0.523695	0.826132	0.207966	-0.819887	-0.555062	0.140326
60571	8.839781	3.673494	1.138415	0.635560	-0.339254	-0.192979	0.229546	-0.100479	0.968097	-0.528474	0.822397	0.210663	-0.817327	-0.559971	0.135677
60572	8.962084	3.484437	0.934406	0.513671	-0.355011	-0.191609	0.227595	-0.104051	0.968181	-0.532258	0.819304	0.213172	-0.815415	-0.563839	0.131087
60573	9.175293	3.033154	0.784899	0.405997	-0.361948	-0.182683	0.225568	-0.107573	0.968270	-0.535171	0.816815	0.215419	-0.814071	-0.566782	0.126677
60574	9.355057	2.475537	0.592232	0.338714	-0.378491	-0.169415	0.223328	-0.111109	0.968390	-0.537575	0.814696	0.217449	-0.813104	-0.569144	0.122214
60575	9.529584	1.948333	0.510834	0.318718	-0.400351	-0.139913	0.220775	-0.114514	0.968579	-0.539875	0.812719	0.219144	-0.812277	-0.571293	0.117605
60576	9.732316	1.497240	0.591975	0.348526	-0.421899	-0.104679	0.217847	-0.117784	0.968850	-0.542502	0.810592	0.220527	-0.811316	-0.573644	0.112687
60577	9.843708	1.431387	0.688824	0.393239	-0.434261	-0.067359	0.214638	-0.120810	0.969193	-0.545563	0.808250	0.221569	-0.810118	-0.576314	0.107571
60578	9.874327	1.496658	0.776095	0.447403	-0.440225	-0.044739	0.211250	-0.123721	0.969570	-0.549117	0.805600	0.222440	-0.808606	-0.579398	0.102246
60579	9.987035	1.656096	0.681653	0.529733	-0.435147	-0.044711	0.207927	-0.126593	0.969918	-0.553324	0.802461	0.223356	-0.806597	-0.583121	0.096806
60580	9.910399	1.915427	0.603473	0.635562	-0.436290	-0.049062	0.204616	-0.129547	0.970232	-0.558369	0.798668	0.224396	-0.803963	-0.587662	0.091086
60581	9.762030	2.118340	0.525750	0.730857	-0.452376	-0.067240	0.201307	-0.132736	0.970493	-0.564118	0.794263	0.225647	-0.800779	-0.592897	0.085012
60582	9.736463	2.383843	0.409797	0.788435	-0.460827	-0.079732	0.198008	-0.136121	0.970703	-0.570285	0.789450	0.227033	-0.797225	-0.598532	0.078690
60583	9.462854	2.568430	0.366483	0.804986	-0.452424	-0.100165	0.194926	-0.139615	0.970830	-0.576513	0.784467	0.228568	-0.793496	-0.604251	0.072423
60584	9.467167	2.636541	0.149743	0.834171	-0.461006	-0.131452	0.191970	-0.143451	0.970860	-0.582888	0.779206	0.230388	-0.789550	-0.610131	0.065968
60585	9.430184	2.717287	0.114229	0.861283	-0.449716	-0.136023	0.189168	-0.147252	0.970841	-0.589433	0.773724	0.232206	-0.785356	-0.616172	0.059568
60586	9.324561	2.816299	0.060226	0.842342	-0.426473	-0.135856	0.186563	-0.150950	0.970777	-0.595802	0.768297	0.233966	-0.781162	-0.622040	0.053400
60587	9.373271	2.832384	-0.030863	0.795555	-0.416327	-0.131662	0.184049	-0.154551	0.970690	-0.601777	0.763122	0.235603	-0.777168	-0.627502	0.047447
60588	9.421011	2.779912	-0.149097	0.762016	-0.393871	-0.122966	0.181670	-0.157978	0.970587	-0.607485	0.758119	0.237102	-0.773277	-0.632692	0.041758
60589	9.450694	2.585311	-0.391402	0.744936	-0.345322	-0.103152	0.179578	-0.160946	0.970489	-0.613065	0.753218	0.238354	-0.769352	-0.637776	0.036591
60590	9.359110	2.444217	-0.510190	0.716794	-0.315542	-0.082250	0.177593	-0.163595	0.970411	-0.618445	0.748486	0.239363	-0.765498	-0.642655	0.031752
60591	9.440602	2.342286	-0.517856	0.669273	-0.312949	-0.056745	0.175497	-0.166034	0.970378	-0.623476	0.744072	0.240071	-0.761891	-0.647139	0.027064
60592	9.524461	2.374658	-0.468651	0.609211	-0.313663	-0.036064	0.173268	-0.168350	0.970379	-0.628070	0.740047	0.240537	-0.758621	-0.651144	0.022491
60593	9.524077	2.526883	-0.477139	0.578743	-0.312548	-0.024682	0.170998	-0.170573	0.970394	-0.632429	0.736222	0.240854	-0.755508	-0.654891	0.018017
60594	9.523470	2.652390	-0.509664	0.573026	-0.317703	-0.019513	0.168657	-0.172816	0.970407	-0.636742	0.732415	0.241099	-0.752406	-0.658561	0.013488
60595	9.505118	2.701605	-0.480652	0.569074	-0.323065	-0.025274	0.166332	-0.175135	0.970392	-0.640992	0.728608	0.241369	-0.749308	-0.662161	0.008931
60596	9.520543	2.620115	-0.403987	0.556611	-0.332485	-0.029418	0.163966	-0.177571	0.970352	-0.645131	0.724851	0.241656	-0.746272	-0.665627	0.004295
60597	9.603970	2.428494	-0.356349	0.539241	-0.333507	-0.031502	0.161625	-0.180028	0.970292	-0.649115	0.721191	0.241935	-0.743321	-0.668934	-0.000296
60598	9.598319	2.149470	-0.440891	0.521464	-0.318313	-0.024219	0.159352	-0.182351	0.970235	-0.652969	0.717641	0.242121	-0.740431	-0.672116	-0.004712
60599	9.663850	1.875873	-0.422211	0.518027	-0.309873	-0.019901	0.157131	-0.184586	0.970174	-0.656786	0.714109	0.242241	-0.737524	-0.675260	-0.009025
60600	9.661727	1.629482	-0.376570	0.545643	-0.289351	-0.007432	0.154981	-0.186613	0.970132	-0.660814	0.710391	0.242217	-0.734374	-0.678616	-0.013219
60601	9.679825	1.507693	-0.290542	0.607538	-0.271274	-0.004713	0.152963	-0.188498	0.970088	-0.665279	0.706242	0.242130	-0.730758	-0.682416	-0.017375
60602	9.701493	1.525475	-0.155516	0.702955	-0.248318	-0.001949	0.151098	-0.190228	0.970043	-0.670421	0.701415	0.241977	-0.726433	-0.686899	-0.021550
60603	9.704920	1.633820	-0.105576	0.796737	-0.226059	-0.005993	0.149438	-0.191833	0.969984	-0.676202	0.695903	0.241806	-0.721401	-0.692040	-0.025723
60604	9.672569	1.788403	-0.114338	0.904290	-0.210338	-0.014082	0.147954	-0.193409	0.969898	-0.682701	0.689581	0.241654	-0.715562	-0.697904	-0.030014
60605	9.675607	2.084746	-0.143749	0.999791	-0.193547	-0.021299	0.146658	-0.194917	0.969793	-0.689813	0.682522	0.241497	-0.708977	-0.704394	-0.034359
60606	9.536445	2.313949	-0.254614	1.059834	-0.179282	-0.034031	0.145561	-0.196435	0.969652	-0.697263	0.674944	0.241403	-0.701881	-0.711241	-0.038721
60607	9.451228	2.555138	-0.303215	1.091943	-0.195607	-0.039778	0.144411	-0.198105	0.969484	-0.704851	0.667053	0.241298	-0.694500	-0.718188	-0.043305
60608	9.424244	2.782209	-0.191450	1.083971	-0.215450	-0.035147	0.143104	-0.199913	0.969307	-0.712312	0.659151	0.241107	-0.687120	-0.724952	-0.048073
60609	9.411466	3.107736	-0.197723	1.043120	-0.234658	-0.020204	0.141582	-0.201761	0.969148	-0.719434	0.651507	0.240735	-0.679977	-0.731322	-0.052912
60610	9.450888	3.305552	-0.178757	0.995256	-0.227386	-0.001683	0.139988	-0.203463	0.969023	-0.726187	0.644184	0.240164	-0.673094	-0.737313	-0.057574
60611	9.367587	3.376399	-0.179947	0.948671	-0.200369	0.013426	0.138487	-0.204869	0.968943	-0.732579	0.637183	0.239428	-0.666445	-0.742985	-0.061841
60612	9.302056	3.375921	-0.166105	0.875756	-0.193565	0.036497	0.136867	-0.206103	0.968911	-0.738461	0.630717	0.238478	-0.660260	-0.748143	-0.065874
60613	9.328629	3.322967	-0.040851	0.808685	-0.183956	0.053935	0.135199	-0.207156	0.968921	-0.743868	0.624753	0.237369	-0.654509	-0.752841	-0.069631
60614	9.302894	3.172395	0.088035	0.739678	-0.160050	0.073522	0.133540	-0.207930	0.968985	-0.748809	0.619310	0.236092	-0.649193	-0.757113	-0.072997
60615	9.307822	2.987712	0.143990	0.664352	-0.144924	0.098116	0.131809	-0.208437	0.969113	-0.753252	0.614467	0.234609	-0.644389	-0.760910	-0.076014
60616	9.313828	2.844006	0.202971	0.616877	-0.116370	0.118628	0.130098	-0.208622	0.969304	-0.757390	0.609998	0.232945	-0.639871	-0.764447	-0.078649
60617	9.308435	2.803784	0.329115	0.580846	-0.100346	0.135675	0.128373	-0.208579	0.969544	-0.761284	0.605827	0.231130	-0.635584	-0.767769	-0.081016
60618	9.396212	2.908291	0.508988	0.556592	-0.104364	0.150839	0.126494	-0.208495	0.969809	-0.765022	0.601848	0.229172	-0.631459	-0.770914	-0.083373
60619	9.493524	2.944831	0.563569	0.550188	-0.097577	0.161126	0.124591	-0.208294	0.970098	-0.768701	0.597930	0.227110	-0.627356	-0.774011	-0.085619
60620	9.558699	3.011537	0.637570	0.530384	-0.090527	0.173267	0.122624	-0.207989	0.970414	-0.772252	0.594166	0.224931	-0.623370	-0.776986	-0.087761
60621	9.583785	3.000104	0.642058	0.515041	-0.086322	0.189177	0.120573	-0.207550	0.970765	-0.775694	0.590547	0.222603	-0.619484	-0.779857	-0.089792
60622	9.504891	2.840783	0.710312	0.526810	-0.073770	0.200048	0.118496	-0.206975	0.971144	-0.779206	0.586834	0.220145	-0.615465	-0.782807	-0.091739
60623	9.280884	2.608067	0.717616	0.559632	-0.077458	0.190308	0.116486	-0.206478	0.971493	-0.782872	0.582837	0.217744	-0.611181	-0.785919	-0.093754
60624	9.310364	2.388788	0.636077	0.624268	-0.116311	0.174762	0.114340	-0.206406	0.971763	-0.786894	0.578268	0.215415	-0.606403	-0.789305	-0.096300
60625	9.347419	2.345659	0.590734	0.719540	-0.121047	0.160416	0.112298	-0.206447	0.971992	-0.791428	0.572906	0.213120	-0.600858	-0.793195	-0.099052
60626	9.355993	2.348649	0.346901	0.801934	-0.140938	0.153170	0.110174	-0.206723	0.972177	-0.796411	0.566832	0.210786	-0.594635	-0.797476	-0.102186
60627	9.394440	2.505852	0.205916	0.891482	-0.152947	0.149074	0.108034	-0.207111	0.972334	-0.801852	0.560010	0.208377	-0.587674	-0.802180	-0.105572
60628	9.448842	2.591551	0.078844	0.923377	-0.164172	0.163288	0.105697	-0.207552	0.972497	-0.807438	0.552907	0.205760	-0.580406	-0.806980	-0.109145
60629	9.592437	2.611406	0.022465	0.950952	-0.174092	0.180301	0.103190	-0.207976	0.972676	-0.813118	0.545585	0.202919	-0.572880	-0.811839	-0.112810
60630	9.709136	2.670996	0.040339	0.937506	-0.173631	0.203132	0.100480	-0.208318	0.972886	-0.818678	0.538362	0.199829	-0.565393	-0.816560	-0.116451
60631	9.651313	2.716033	0.033546	0.861773	-0.168224	0.231090	0.097597	-0.208463	0.973149	-0.823756	0.531790	0.196532	-0.558480	-0.820818	-0.119821
60632	9.780410	2.784521	0.190881	0.747988	-0.196802	0.226935	0.094566	-0.208912	0.973351	-0.828147	0.526098	0.193375	-0.552477	-0.824365	-0.123259
60633	9.894302	2.933015	0.304217	0.599350	-0.198391	0.228696	0.091539	-0.209355	0.973546	-0.831662	0.521630	0.190372	-0.547685	-0.827087	-0.126363
60634	10.246162	2.882485	0.267256	0.429704	-0.175238	0.216869	0.088712	-0.209710	0.973731	-0.834220	0.518513	0.187673	-0.544249	-0.828955	-0.128946
60635	10.488254	2.940001	0.317724	0.269409	-0.119615	0.185885	0.086476	-0.209741	0.973925	-0.835851	0.516671	0.185484	-0.542103	-0.830096	-0.130633
60636	10.671860	2.913483	0.370704	0.090471	-0.056179	0.168604	0.084698	-0.209368	0.974162	-0.836502	0.516260	0.183684	-0.541379	-0.830446	-0.131411
60637	10.952285	2.869900	0.369277	-0.076205	0.011876	0.135147	0.083600	-0.208570	0.974428	-0.836206	0.517180	0.182440	-0.542006	-0.830074	-0.131171
60638	11.046493	2.949893	0.575037	-0.217090	0.068220	0.118655	0.082915	-0.207420	0.974732	-0.835143	0.519215	0.181528	-0.543748	-0.829091	-0.130175
60639	11.177578	3.171506	0.933257	-0.322542	0.137406	0.119581	0.082637	-0.205655	0.975129	-0.833486	0.522140	0.180752	-0.546326	-0.827693	-0.128262
60640	11.280582	3.392880	1.176025	-0.430769	0.251653	0.125137	0.082910	-0.202949	0.975673	-0.831246	0.525944	0.180039	-0.549688	-0.825951	-0.125094
60641	11.087359	3.512032	1.300953	-0.553058	0.410007	0.131775	0.084053	-0.198862	0.976416	-0.828305	0.530778	0.179404	-0.553937	-0.823850	-0.120104
60642	10.944027	3.507051	1.577020	-0.694781	0.545987	0.123395	0.086008	-0.193742	0.977275	-0.824560	0.536722	0.178972	-0.559199	-0.821215	-0.113590
60643	10.965366	3.513895	2.092103	-0.873875	0.715795	0.093574	0.089243	-0.187356	0.978230	-0.819726	0.544071	0.178987	-0.565761	-0.817853	-0.105026
60644	10.976674	3.423622	2.456947	-1.140283	0.895584	0.052454	0.093855	-0.179794	0.979217	-0.813292	0.553453	0.179571	-0.574237	-0.813243	-0.094280
60645	10.897986	3.089152	2.248035	-1.462470	1.151672	0.029838	0.100272	-0.170276	0.980282	-0.804842	0.565365	0.180531	-0.584957	-0.807074	-0.080355
60646	10.964499	2.313721	1.092612	-1.730638	1.395107	0.010060	0.108373	-0.159039	0.981306	-0.794640	0.579270	0.181640	-0.597329	-0.799471	-0.063601
60647	10.345318	1.389393	0.214250	-1.823749	1.559977	0.014951	0.117658	-0.146517	0.982186	-0.783645	0.593810	0.182456	-0.609964	-0.791153	-0.044951
60648	9.581651	0.701554	-0.232488	-1.660581	1.585825	0.024037	0.127165	-0.133913	0.982800	-0.773474	0.606903	0.182775	-0.620940	-0.783414	-0.026401
60649	9.293906	0.477265	-0.274003	-1.397574	1.539737	0.031929	0.136533	-0.121675	0.983135	-0.764777	0.617856	0.182676	-0.629663	-0.776820	-0.008697
60650	9.948960	0.589831	-0.272731	-1.112238	1.494771	0.034862	0.145661	-0.109909	0.983211	-0.757808	0.626493	0.182301	-0.636011	-0.771639	0.007966
60651	9.877558	0.922687	-0.259990	-0.842197	1.536668	0.076648	0.154869	-0.097565	0.983106	-0.752552	0.633063	0.181376	-0.640064	-0.767927	0.024620
60652	10.605365	1.308691	-0.478976	-0.554354	1.516695	0.097317	0.163793	-0.085338	0.982797	-0.749176	0.637387	0.180203	-0.641800	-0.765803	0.040467
60653	10.606245	1.758251	-0.485496	-0.375168	1.532632	0.121491	0.172704	-0.072802	0.982280	-0.746976	0.640359	0.178793	-0.642028	-0.764617	0.056211
60654	11.076144	2.161843	-0.692586	-0.292933	1.499411	0.119107	0.181372	-0.060602	0.981546	-0.745329	0.642660	0.177402	-0.641551	-0.763751	0.071393
60655	10.784943	2.653522	-0.594287	-0.293457	1.456890	0.108837	0.189885	-0.048753	0.980595	-0.743655	0.644963	0.176069	-0.641031	-0.762657	0.086214
60656	10.505633	2.999203	-0.720364	-0.408190	1.360411	0.066288	0.198050	-0.037984	0.979456	-0.741189	0.648083	0.175005	-0.641416	-0.760622	0.100199
60657	10.261071	3.279552	-0.871009	-0.637544	1.236753	0.015845	0.205859	-0.028473	0.978167	-0.737130	0.652928	0.174138	-0.643631	-0.756885	0.113423
60658	9.979638	3.277782	-0.905915	-0.933214	1.077843	-0.010241	0.212830	-0.020435	0.976875	-0.731105	0.659943	0.173090	-0.648219	-0.751037	0.125516
60659	9.740469	3.095656	-0.861752	-1.272995	0.932602	-0.011972	0.218976	-0.013531	0.975636	-0.722786	0.669451	0.171510	-0.655461	-0.742733	0.136814
60660	9.765987	2.626260	-0.889860	-1.590507	0.787854	0.004089	0.224083	-0.007712	0.974540	-0.712318	0.681162	0.169179	-0.665124	-0.732092	0.147143
60661	9.696858	2.099100	-0.478771	-1.843199	0.685408	0.044991	0.228341	-0.002415	0.973578	-0.700059	0.694543	0.165913	-0.676592	-0.719448	0.156902
60662	10.144765	1.654927	-0.113272	-1.989532	0.616032	0.101152	0.231779	0.002667	0.972765	-0.686734	0.708700	0.161684	-0.688967	-0.705505	0.166093
60663	10.182819	1.306180	0.100844	-2.001767	0.581372	0.156050	0.234735	0.007856	0.972028	-0.673189	0.722670	0.156728	-0.701224	-0.691148	0.174924
60664	10.030074	0.744189	0.047561	-1.869436	0.573306	0.162752	0.237635	0.012952	0.971268	-0.660387	0.735429	0.151766	-0.712333	-0.677478	0.183316
60665	10.134546	0.551437	0.222880	-1.605754	0.563647	0.134070	0.240770	0.017742	0.970420	-0.649205	0.746188	0.147431	-0.721501	-0.665498	0.191178
60666	10.131405	0.447455	0.443078	-1.299485	0.594756	0.080810	0.244493	0.022265	0.969395	-0.640007	0.754739	0.144083	-0.728432	-0.655647	0.198778
60667	9.879412	0.482477	0.548545	-1.004779	0.648901	0.013320	0.249119	0.026608	0.968107	-0.632708	0.761280	0.141889	-0.733225	-0.647877	0.206485
60668	9.242730	0.597906	0.574318	-0.766287	0.679630	-0.073222	0.254507	0.030421	0.966592	-0.626922	0.766225	0.140956	-0.736339	-0.641852	0.214081
60669	8.736442	0.794793	0.600497	-0.601435	0.681759	-0.142448	0.260389	0.033699	0.964916	-0.622134	0.770111	0.140992	-0.738341	-0.637019	0.221493
60670	8.243087	1.032447	0.659424	-0.537470	0.660759	-0.201601	0.266455	0.036328	0.963162	-0.617659	0.773576	0.141696	-0.739932	-0.632661	0.228562
60671	7.841499	1.268605	0.772340	-0.579919	0.581432	-0.228980	0.272135	0.038228	0.961499	-0.612761	0.777310	0.142526	-0.741934	-0.627955	0.234959
60672	7.885994	1.434086	0.743843	-0.703303	0.491147	-0.227824	0.277109	0.039514	0.960026	-0.606936	0.781778	0.143013	-0.744876	-0.622304	0.240620
60673	7.949167	1.584189	0.705419	-0.858560	0.421404	-0.199796	0.281424	0.040565	0.958726	-0.599981	0.787164	0.142813	-0.748881	-0.615408	0.245865
60674	7.933600	1.492777	0.825582	-0.983436	0.364623	-0.170445	0.285112	0.041440	0.957598	-0.592140	0.793230	0.141975	-0.753712	-0.607511	0.250698
60675	8.136023	1.342391	1.213451	-1.056075	0.308564	-0.144617	0.288257	0.042158	0.956625	-0.583754	0.799654	0.140661	-0.759038	-0.598980	0.255116
60676	8.659961	1.131871	1.877066	-1.080775	0.306765	-0.123627	0.291243	0.042983	0.955683	-0.575193	0.806116	0.139033	-0.764415	-0.590195	0.259499
60677	9.066782	0.951284	2.436437	-1.026415	0.322577	-0.088338	0.294181	0.044167	0.954729	-0.567081	0.812161	0.137163	-0.769335	-0.581759	0.263969
60678	9.108265	0.642346	3.037118	-0.943721	0.370920	-0.061934	0.297324	0.045801	0.953677	-0.559648	0.817626	0.135212	-0.773558	-0.573926	0.268733
60679	9.101824	0.278510	3.414511	-0.835308	0.417117	-0.063376	0.300870	0.047672	0.952473	-0.553001	0.822412	0.133521	-0.776960	-0.566891	0.273802
60680	9.162469	0.005306	3.461220	-0.704117	0.481918	-0.069220	0.304934	0.049816	0.951070	-0.547344	0.826400	0.132205	-0.779378	-0.560876	0.279263
60681	8.695802	-0.311901	3.366388	-0.543427	0.533360	-0.079528	0.309486	0.052152	0.949473	-0.542881	0.829467	0.131395	-0.780704	-0.556115	0.285021
60682	8.893825	-0.459879	3.052096	-0.402524	0.480071	-0.055377	0.313469	0.054350	0.948042	-0.539596	0.831712	0.130735	-0.781392	-0.552541	0.290043
60683	9.274890	-0.525310	3.060987	-0.287433	0.443919	0.002463	0.316883	0.056838	0.946760	-0.537380	0.833286	0.129836	-0.781542	-0.549913	0.294597
60684	9.247823	-0.540504	3.010328	-0.224799	0.440216	0.061096	0.319928	0.059762	0.945555	-0.535850	0.834468	0.128564	-0.781352	-0.547806	0.298993
60685	9.491232	-0.440645	3.013282	-0.161337	0.409895	0.092784	0.322589	0.062803	0.944453	-0.534912	0.835284	0.127162	-0.780900	-0.546220	0.303048
60686	9.511809	-0.251910	3.156956	-0.132141	0.420719	0.129219	0.325116	0.066177	0.943356	-0.534331	0.835905	0.125512	-0.780250	-0.544870	0.307126
60687	9.589421	-0.029492	3.371848	-0.104471	0.424098	0.160006	0.327523	0.069851	0.942258	-0.534066	0.836354	0.123637	-0.779425	-0.543722	0.311230
60688	9.509213	0.143206	3.742503	-0.063776	0.429826	0.165921	0.329918	0.073573	0.941138	-0.534147	0.836565	0.121848	-0.778358	-0.542906	0.315296
60689	9.696358	0.404454	4.221913	-0.026987	0.466747	0.164857	0.332620	0.077516	0.939870	-0.534511	0.836575	0.120167	-0.776957	-0.542341	0.319695
60690	9.810130	0.722602	4.463756	-0.003540	0.525339	0.161274	0.335768	0.081712	0.938394	-0.535055	0.836449	0.118614	-0.775226	-0.541919	0.324573
60691	9.650326	1.059678	4.650377	0.009594	0.573985	0.136202	0.339437	0.085994	0.936690	-0.535618	0.836271	0.117322	-0.773237	-0.541532	0.329921
60692	9.427234	1.405654	4.616385	-0.044101	0.618029	0.099100	0.343613	0.090166	0.934773	-0.535649	0.836405	0.116222	-0.771369	-0.540645	0.335697
60693	9.042421	1.712085	4.497245	-0.136900	0.634852	0.053395	0.348176	0.094075	0.932697	-0.534807	0.837083	0.115213	-0.769906	-0.538927	0.341764
60694	8.915235	1.977328	4.530395	-0.239447	0.627969	0.007637	0.352901	0.097514	0.930565	-0.533024	0.838345	0.114290	-0.768990	-0.536347	0.347830
60695	8.747204	2.041053	4.660718	-0.337159	0.624042	-0.040495	0.357872	0.100545	0.928342	-0.530316	0.840176	0.113438	-0.768565	-0.532911	0.353997
60696	8.639990	2.069863	4.694921	-0.424797	0.613416	-0.090722	0.363001	0.103038	0.926074	-0.526758	0.842506	0.112737	-0.768607	-0.528741	0.360106
60697	8.496731	1.891583	4.691406	-0.469410	0.608643	-0.136305	0.368356	0.105127	0.923722	-0.522678	0.845108	0.112250	-0.768845	-0.524157	0.366248
60698	8.410414	1.651942	4.544198	-0.475174	0.589844	-0.171500	0.373719	0.106754	0.921378	-0.518421	0.847752	0.112053	-0.769138	-0.519538	0.372165
60699	8.352419	1.404497	4.476057	-0.474469	0.572909	-0.194675	0.379095	0.108099	0.919022	-0.514064	0.850405	0.112022	-0.769432	-0.514903	0.377955
60700	8.226811	1.156221	4.231930	-0.466461	0.569332	-0.210401	0.384488	0.109227	0.916645	-0.509705	0.853008	0.112153	-0.769655	-0.510340	0.383645
60701	7.975161	1.049887	3.884728	-0.452151	0.553344	-0.218405	0.389821	0.110209	0.914272	-0.505405	0.855535	0.112363	-0.769808	-0.505879	0.389206
60702	7.642913	1.049469	3.450502	-0.441712	0.513011	-0.233082	0.394880	0.110798	0.912027	-0.501124	0.858000	0.112737	-0.770029	-0.501557	0.394330
60703	7.358305	1.147799	3.033766	-0.441354	0.460587	-0.245684	0.399619	0.111024	0.909933	-0.496775	0.860468	0.113182	-0.770402	-0.497262	0.399013
60704	7.174048	1.155783	2.619343	-0.442486	0.379744	-0.256478	0.403750	0.110697	0.908148	-0.492369	0.862926	0.113716	-0.771076	-0.493057	0.402910
60705	6.957936	1.052226	2.054158	-0.457429	0.286472	-0.265610	0.407227	0.109844	0.906698	-0.487789	0.865455	0.114235	-0.772158	-0.488797	0.406017
60706	6.709007	0.906834	1.616836	-0.442334	0.154157	-0.266324	0.409648	0.108289	0.905794	-0.483318	0.867882	0.114825	-0.773688	-0.484824	0.407864
60707	6.557833	0.640569	1.221167	-0.410065	0.002295	-0.254776	0.410856	0.106121	0.905503	-0.479123	0.870126	0.115419	-0.775654	-0.481268	0.408341
60708	6.520342	0.418817	1.031952	-0.350445	-0.157163	-0.238842	0.410711	0.103290	0.905896	-0.475455	0.872042	0.116129	-0.777984	-0.478408	0.407267
60709	6.598050	0.310681	1.018613	-0.283231	-0.316752	-0.230838	0.409297	0.099797	0.906927	-0.472330	0.873618	0.117032	-0.780628	-0.476269	0.404706
60710	6.855380	0.291768	0.995230	-0.195191	-0.470561	-0.227191	0.406623	0.095577	0.908583	-0.469912	0.874752	0.118284	-0.783479	-0.475051	0.400607
60711	7.102585	0.162950	1.106265	-0.052009	-0.621014	-0.233359	0.402802	0.090617	0.910790	-0.468589	0.875206	0.120160	-0.786241	-0.475187	0.394997
60712	7.413845	0.112132	1.162761	0.148153	-0.771658	-0.257254	0.397867	0.084696	0.913525	-0.468762	0.874710	0.123062	-0.788647	-0.477188	0.387721
60713	7.714418	0.206411	1.403629	0.356753	-0.925416	-0.294257	0.391895	0.077722	0.916721	-0.470448	0.873229	0.127080	-0.790630	-0.481072	0.378779
60714	8.321802	0.375428	1.737466	0.529661	-1.059122	-0.351844	0.385109	0.069534	0.920248	-0.473309	0.870910	0.132266	-0.792257	-0.486498	0.368306
60715	8.916337	0.730199	2.463629	0.629266	-1.155822	-0.405725	0.377821	0.060378	0.923908	-0.476783	0.868082	0.138245	-0.793681	-0.492736	0.356767
60716	10.005499	1.032923	3.237714	0.639569	-1.194830	-0.422889	0.370288	0.050792	0.927527	-0.480317	0.865130	0.144378	-0.795099	-0.498969	0.344743
60717	10.718495	1.295275	3.947272	0.606711	-1.135531	-0.430480	0.363275	0.041405	0.930761	-0.483599	0.862273	0.150390	-0.796344	-0.504748	0.333266
60718	11.229519	1.483597	4.226247	0.552512	-1.037033	-0.404545	0.356908	0.032663	0.933568	-0.486579	0.859605	0.155947	-0.797406	-0.509914	0.322694
60719	11.478234	1.578896	4.192008	0.453374	-0.933326	-0.346685	0.351100	0.024939	0.936006	-0.489003	0.857374	0.160583	-0.798502	-0.514090	0.313219
60720	12.049461	1.572911	4.123779	0.300150	-0.827283	-0.277975	0.345784	0.018295	0.938136	-0.490467	0.855872	0.164089	-0.799922	-0.516864	0.304920
60721	13.282463	1.556340	4.680924	0.114511	-0.673503	-0.225814	0.341446	0.012910	0.939813	-0.490641	0.855305	0.166507	-0.801677	-0.517964	0.298374
60722	14.120276	1.727840	5.537749	-0.044609	-0.432653	-0.223677	0.339004	0.008757	0.940744	-0.489555	0.855546	0.168451	-0.803375	-0.517652	0.294321
60723	13.729501	2.331778	5.791844	-0.161180	-0.183457	-0.304397	0.338963	0.005237	0.940785	-0.487261	0.856392	0.170792	-0.804786	-0.516300	0.292837
60724	12.298879	2.749400	5.104272	-0.302894	-0.048556	-0.393870	0.340418	0.001613	0.940273	-0.483517	0.857952	0.173581	-0.806429	-0.513728	0.292842
60725	10.887247	2.308845	3.706648	-0.475818	-0.069556	-0.398345	0.341722	-0.002130	0.939799	-0.478347	0.860378	0.175882	-0.808956	-0.509653	0.292991
60726	9.537817	1.334485	2.061803	-0.510882	-0.150005	-0.338033	0.342048	-0.005801	0.939664	-0.473085	0.862943	0.177536	-0.811907	-0.505267	0.292424
60727	8.454025	0.109364	0.731767	-0.305863	-0.264131	-0.273688	0.341140	-0.009460	0.939965	-0.469696	0.864456	0.179166	-0.814254	-0.502619	0.290457
60728	8.088319	-0.986841	-0.069987	0.124395	-0.362552	-0.216895	0.339140	-0.013156	0.940644	-0.470006	0.863793	0.181537	-0.814910	-0.503675	0.286763
60729	8.304320	-1.559137	-0.334891	0.618380	-0.451084	-0.161988	0.336177	-0.016799	0.941649	-0.474530	0.860630	0.184765	-0.813515	-0.508954	0.281352
60730	8.696919	-1.004968	0.076962	0.958415	-0.534264	-0.076658	0.332138	-0.020196	0.943014	-0.482091	0.855686	0.188123	-0.810723	-0.517102	0.274470
60731	8.978091	0.453835	0.646070	1.090143	-0.587796	-0.007200	0.327355	-0.023285	0.944614	-0.490927	0.849987	0.191083	-0.807359	-0.526289	0.266817
60732	9.071942	2.614479	1.009323	1.055341	-0.577610	0.014866	0.322562	-0.026224	0.946185	-0.499512	0.844377	0.193690	-0.804016	-0.535107	0.259265
60733	8.849797	4.741647	0.994792	0.862903	-0.570901	-0.010799	0.317968	-0.029354	0.947647	-0.506444	0.839715	0.195940	-0.801505	-0.542233	0.252136
60734	8.589615	6.141075	0.789147	0.583491	-0.644428	-0.069208	0.313091	-0.033444	0.949134	-0.510933	0.836503	0.198017	-0.800576	-0.546941	0.244814
60735	8.559632	6.413554	0.819242	0.298773	-0.749651	-0.139088	0.307735	-0.038690	0.950685	-0.512931	0.834804	0.200009	-0.801374	-0.549186	0.237053
60736	8.692242	5.586557	1.224214	0.033856	-0.841112	-0.207822	0.301983	-0.045045	0.952248	-0.512602	0.834518	0.202036	-0.803770	-0.549136	0.228920
60737	9.059418	3.851454	1.934621	-0.184592	-0.916285	-0.247381	0.295805	-0.052119	0.953825	-0.510408	0.835400	0.203939	-0.807455	-0.547166	0.220514
60738	9.443707	2.079129	2.550353	-0.267856	-0.941193	-0.249802	0.289391	-0.059346	0.955370	-0.507541	0.836710	0.205714	-0.811576	-0.544421	0.212016
60739	9.753103	0.721479	2.746118	-0.163444	-0.921362	-0.223410	0.282968	-0.066211	0.956841	-0.505603	0.837449	0.207472	-0.815042	-0.542490	0.203495
60740	9.973214	0.003191	2.688045	0.072051	-0.841437	-0.183897	0.276964	-0.072316	0.958155	-0.505709	0.836919	0.209346	-0.817037	-0.542529	0.195226
60741	10.131015	0.020738	2.627563	0.326276	-0.755190	-0.150280	0.271492	-0.077660	0.959302	-0.507995	0.835024	0.211367	-0.817455	-0.544706	0.187251
60742	9.935170	0.403288	2.413167	0.517322	-0.653168	-0.120709	0.266704	-0.082238	0.960263	-0.511929	0.832088	0.213444	-0.816577	-0.548513	0.179821
60743	9.791221	0.891779	2.190139	0.628435	-0.568187	-0.110737	0.262576	-0.086266	0.961047	-0.516796	0.828524	0.215569	-0.814847	-0.553268	0.172968
60744	9.588150	1.395406	2.132350	0.680679	-0.509641	-0.110647	0.258936	-0.090015	0.961691	-0.522078	0.824632	0.217756	-0.812642	-0.558462	0.166532
60745	9.307194	1.804906	2.103770	0.717557	-0.463844	-0.120565	0.255742	-0.093587	0.962205	-0.527623	0.820486	0.220039	-0.810068	-0.563955	0.160454
60746	9.164180	2.107761	2.045291	0.755534	-0.430244	-0.140257	0.252939	-0.097176	0.962590	-0.533407	0.816058	0.222546	-0.807155	-0.569743	0.154578
60747	9.060107	2.383718	1.922500	0.791368	-0.393236	-0.158166	0.250557	-0.100693	0.962851	-0.539417	0.811360	0.225219	-0.803897	-0.575808	0.148976
60748	8.975053	2.633710	1.590664	0.805315	-0.351529	-0.164067	0.248559	-0.104059	0.963011	-0.545498	0.806519	0.227945	-0.800406	-0.581978	0.143704
60749	8.930452	2.927539	1.171946	0.799118	-0.306939	-0.182494	0.247047	-0.107300	0.963044	-0.551460	0.801643	0.230782	-0.796781	-0.588094	0.138871
60750	8.804308	3.044487	0.812568	0.736038	-0.275544	-0.185702	0.245817	-0.110418	0.963007	-0.556885	0.797080	0.233543	-0.793381	-0.593693	0.134446
60751	8.928811	3.165651	0.708918	0.623056	-0.258200	-0.189294	0.244769	-0.113444	0.962922	-0.561386	0.793147	0.236143	-0.790527	-0.598372	0.130452
60752	9.070908	3.089116	0.583444	0.481015	-0.226841	-0.174358	0.243892	-0.116191	0.962817	-0.564788	0.790048	0.238409	-0.788373	-0.601933	0.127063
60753	9.186641	2.791474	0.553783	0.354027	-0.194374	-0.146907	0.243131	-0.118508	0.962727	-0.567249	0.787732	0.240222	-0.786839	-0.604511	0.124299
60754	9.332410	2.379307	0.594046	0.270919	-0.182432	-0.120037	0.242311	-0.120563	0.962679	-0.569118	0.785937	0.241678	-0.785742	-0.606439	0.121826
60755	9.582241	1.905416	0.656753	0.240443	-0.179255	-0.087798	0.241341	-0.122329	0.962699	-0.570824	0.784362	0.242769	-0.784802	-0.608122	0.119471
60756	9.774149	1.555726	0.810850	0.283219	-0.161547	-0.056912	0.240332	-0.123765	0.962768	-0.572938	0.782555	0.243619	-0.783571	-0.610156	0.117164
60757	9.897554	1.388853	0.973695	0.361149	-0.143332	-0.030362	0.239321	-0.124866	0.962878	-0.575723	0.780300	0.244284	-0.781837	-0.612813	0.114854
60758	9.909208	1.438366	1.034223	0.449903	-0.126947	-0.009511	0.238317	-0.125727	0.963015	-0.579242	0.777512	0.244854	-0.779541	-0.616172	0.112468
60759	9.838346	1.552261	1.046897	0.553958	-0.127702	-0.008498	0.237308	-0.126569	0.963154	-0.583564	0.774068	0.245503	-0.776619	-0.620322	0.109831
60760	9.766784	1.601593	0.852254	0.707227	-0.143554	-0.030508	0.236307	-0.127706	0.963250	-0.589000	0.769612	0.246529	-0.772811	-0.625611	0.106645
60761	9.706943	1.814356	0.709021	0.873844	-0.169304	-0.050639	0.235236	-0.129145	0.963320	-0.595646	0.764042	0.247882	-0.768030	-0.632109	0.102806
60762	9.720951	2.053551	0.486250	1.020393	-0.184520	-0.073636	0.234198	-0.130887	0.963338	-0.603310	0.757446	0.249585	-0.762344	-0.639644	0.098427
60763	9.650578	2.309292	0.431919	1.149303	-0.202106	-0.096314	0.233182	-0.132902	0.963309	-0.611843	0.749909	0.251565	-0.755827	-0.648054	0.093550
60764	9.614372	2.624373	0.357383	1.206692	-0.231188	-0.099922	0.231991	-0.135166	0.963281	-0.620718	0.741890	0.253590	-0.748926	-0.656756	0.088212
60765	9.465042	2.821437	0.161752	1.214743	-0.240045	-0.110162	0.230822	-0.137555	0.963224	-0.629551	0.733699	0.255640	-0.741881	-0.665405	0.082756
60766	9.428079	3.049468	0.062351	1.209328	-0.258544	-0.113613	0.229566	-0.140127	0.963153	-0.638246	0.725431	0.257666	-0.734807	-0.673880	0.077098
60767	9.272361	3.234623	-0.084640	1.176128	-0.278327	-0.112402	0.228184	-0.142818	0.963086	-0.646623	0.717287	0.259573	-0.727881	-0.681984	0.071324
60768	9.286238	3.445496	-0.202251	1.108977	-0.294255	-0.104073	0.226662	-0.145592	0.963030	-0.654450	0.709520	0.261299	-0.721332	-0.689481	0.065538
60769	9.250339	3.555075	-0.342696	1.031418	-0.311865	-0.093631	0.224970	-0.148412	0.962997	-0.661678	0.702224	0.262801	-0.715242	-0.696316	0.059778
60770	9.104011	3.595950	-0.353432	0.936258	-0.332508	-0.078987	0.223059	-0.151304	0.962991	-0.668199	0.695545	0.264059	-0.709757	-0.702370	0.054046
60771	9.186964	3.644282	-0.439344	0.808031	-0.350634	-0.063329	0.220936	-0.154217	0.963018	-0.673804	0.689740	0.265039	-0.705106	-0.707443	0.048476
60772	9.216711	3.559869	-0.440502	0.656694	-0.363133	-0.046779	0.218631	-0.157131	0.963073	-0.678347	0.684996	0.265755	-0.701460	-0.711400	0.043172
60773	9.272692	3.251919	-0.512263	0.521010	-0.369429	-0.025004	0.216147	-0.159943	0.963171	-0.681969	0.681230	0.266166	-0.698712	-0.714384	0.038170
60774	9.430733	2.885585	-0.495043	0.403238	-0.372368	0.002555	0.213465	-0.162606	0.963323	-0.684814	0.678336	0.266250	-0.696751	-0.716533	0.033446
60775	9.483699	2.499574	-0.397344	0.311713	-0.365308	0.026810	0.210670	-0.165055	0.963522	-0.687069	0.676132	0.266049	-0.695381	-0.718055	0.029037
60776	9.499660	2.194992	-0.234742	0.234430	-0.361599	0.049923	0.207747	-0.167333	0.963764	-0.688829	0.674517	0.265595	-0.694518	-0.719045	0.024865
60777	9.550978	2.033149	-0.144953	0.205421	-0.348362	0.054759	0.204882	-0.169482	0.964002	-0.690396	0.673119	0.265073	-0.693813	-0.719852	0.020901
60778	9.565598	1.983513	-0.033170	0.223067	-0.344895	0.048872	0.202086	-0.171654	0.964208	-0.692068	0.671583	0.264608	-0.692967	-0.720771	0.016921
60779	9.512616	1.991413	-0.001906	0.279146	-0.334115	0.037126	0.199445	-0.173827	0.964368	-0.694104	0.669620	0.264250	-0.691694	-0.722075	0.012899
60780	9.562336	2.030745	0.051563	0.345576	-0.327272	0.024498	0.196947	-0.176047	0.964479	-0.696566	0.667152	0.264015	-0.689933	-0.723820	0.008766
60781	9.577118	2.141739	0.063786	0.403256	-0.321324	0.014420	0.194562	-0.178291	0.964551	-0.699401	0.664242	0.263859	-0.687739	-0.725944	0.004540
60782	9.607935	2.310783	0.085086	0.437633	-0.312125	0.001459	0.192342	-0.180568	0.964572	-0.702433	0.661050	0.263819	-0.685268	-0.728291	0.000311
60783	9.586831	2.452004	0.174844	0.464832	-0.289106	-0.002750	0.190313	-0.182706	0.964572	-0.705636	0.657641	0.263793	-0.682539	-0.730840	-0.003766
60784	9.531921	2.621534	0.164737	0.479521	-0.271419	-0.007090	0.188448	-0.184758	0.964547	-0.708914	0.654104	0.263797	-0.679653	-0.733493	-0.007713
60785	9.426329	2.733786	0.145442	0.479396	-0.249835	-0.004922	0.186717	-0.186637	0.964522	-0.712184	0.650560	0.263753	-0.676706	-0.736165	-0.011449
60786	9.355675	2.831672	0.087581	0.484327	-0.237652	-0.001216	0.185055	-0.188417	0.964497	-0.715477	0.646973	0.263664	-0.673682	-0.738867	-0.015082
60787	9.336481	2.946417	0.159072	0.483355	-0.233288	0.007709	0.183361	-0.190105	0.964489	-0.718768	0.643397	0.263463	-0.670635	-0.741553	-0.018668
60788	9.370664	3.018665	0.200722	0.478601	-0.237272	0.026620	0.181515	-0.191716	0.964519	-0.722044	0.639880	0.263071	-0.667612	-0.744176	-0.022280
60789	9.371446	3.058215	0.163352	0.481670	-0.223309	0.049888	0.179597	-0.193075	0.964607	-0.725369	0.636373	0.262430	-0.664518	-0.746828	-0.025760
60790	9.288503	2.982194	0.139837	0.534230	-0.227085	0.059778	0.177591	-0.194415	0.964709	-0.729041	0.632478	0.261669	-0.661030	-0.749783	-0.029414
60791	9.309910	2.909493	0.173505	0.592833	-0.246391	0.073067	0.175365	-0.195818	0.964833	-0.733103	0.628154	0.260734	-0.657120	-0.753045	-0.033399
60792	9.330633	2.936829	0.239658	0.632332	-0.269013	0.082924	0.172926	-0.197351	0.964961	-0.737414	0.623532	0.259671	-0.652930	-0.756479	-0.037704
60793	9.352141	2.964528	0.302948	0.646675	-0.280372	0.089122	0.170376	-0.198936	0.965089	-0.741800	0.618793	0.258510	-0.648618	-0.759947	-0.042143
60794	9.338433	3.001003	0.284482	0.637204	-0.298488	0.105134	0.167598	-0.200583	0.965234	-0.746121	0.614138	0.257174	-0.644372	-0.763283	-0.046731
60795	9.380035	2.958790	0.359114	0.627770	-0.296664	0.111309	0.164794	-0.202184	0.965383	-0.750362	0.609548	0.255750	-0.640156	-0.766533	-0.051261
60796	9.352232	3.030112	0.447859	0.621071	-0.293000	0.119322	0.161961	-0.203732	0.965537	-0.754543	0.605007	0.254227	-0.635951	-0.769714	-0.055737
60797	9.290942	2.940457	0.470640	0.603792	-0.280473	0.136186	0.159089	-0.205087	0.965728	-0.758612	0.600617	0.252521	-0.631822	-0.772786	-0.060030
60798	9.143929	2.894821	0.524912	0.601119	-0.271515	0.131305	0.156315	-0.206427	0.965895	-0.762627	0.596220	0.250841	-0.627667	-0.775828	-0.064229
60799	9.251091	2.839308	0.422945	0.626455	-0.277852	0.127347	0.153542	-0.207843	0.966036	-0.766765	0.591603	0.249153	-0.623295	-0.778978	-0.068531
60800	9.254553	2.812039	0.341954	0.663486	-0.250003	0.130851	0.150918	-0.209047	0.966190	-0.771106	0.586683	0.247382	-0.618562	-0.782369	-0.072657
60801	9.311062	2.817175	0.307373	0.680475	-0.229425	0.135028	0.148400	-0.210069	0.966358	-0.775522	0.581620	0.245528	-0.613631	-0.785868	-0.076600
60802	9.504295	2.761917	0.235371	0.689212	-0.201823	0.131718	0.146077	-0.210920	0.966527	-0.779949	0.576456	0.243676	-0.608556	-0.789437	-0.080300
60803	9.443104	2.818696	0.293442	0.673227	-0.184100	0.127269	0.143909	-0.211658	0.966691	-0.784234	0.571388	0.241853	-0.603546	-0.792917	-0.083761
60804	9.804425	2.809017	0.131636	0.647848	-0.172541	0.122362	0.141844	-0.212358	0.966843	-0.788325	0.566487	0.240077	-0.598686	-0.796239	-0.087054
60805	9.756969	2.729488	0.120699	0.622954	-0.123657	0.117687	0.140121	-0.212691	0.967021	-0.792224	0.561757	0.238348	-0.593925	-0.799495	-0.089785
60806	9.708335	2.619955	0.099802	0.582990	-0.090461	0.112596	0.138627	-0.212811	0.967209	-0.795852	0.557313	0.236690	-0.589409	-0.802567	-0.092108
60807	9.727354	2.521499	0.058836	0.521894	-0.076639	0.112148	0.137228	-0.212814	0.967408	-0.799091	0.553346	0.235079	-0.585340	-0.805306	-0.094123
60808	9.605294	2.497950	-0.042959	0.471820	-0.056118	0.121906	0.135860	-0.212620	0.967644	-0.802031	0.549787	0.233412	-0.581626	-0.807791	-0.095834
60809	9.547367	2.485390	-0.248326	0.446737	-0.052124	0.128074	0.134476	-0.212348	0.967897	-0.804812	0.546435	0.231701	-0.578094	-0.810134	-0.097418
60810	9.447052	2.472521	-0.259858	0.470735	-0.057540	0.136359	0.132980	-0.212100	0.968158	-0.807728	0.542892	0.229879	-0.574362	-0.812578	-0.099125
60811	9.429493	2.433069	-0.344473	0.524715	-0.083989	0.143267	0.131289	-0.212016	0.968407	-0.810938	0.538915	0.227926	-0.570214	-0.815242	-0.101178
60812	9.381484	2.391561	-0.348892	0.540050	-0.098639	0.155903	0.129397	-0.212012	0.968663	-0.814229	0.534822	0.225824	-0.565940	-0.817934	-0.103422
60813	9.326530	2.380579	-0.502145	0.545783	-0.128907	0.173180	0.127207	-0.212153	0.968922	-0.817545	0.530709	0.223536	-0.561639	-0.820573	-0.105935
60814	9.407474	2.427181	-0.717647	0.576854	-0.163977	0.178085	0.124767	-0.212588	0.969144	-0.821016	0.526332	0.221151	-0.557105	-0.823275	-0.108869
60815	9.328794	2.610593	-0.731272	0.574596	-0.205363	0.184054	0.122063	-0.213324	0.969326	-0.824448	0.521976	0.218693	-0.552618	-0.825853	-0.112160
60816	9.350652	2.822771	-0.823249	0.535206	-0.261769	0.176031	0.119104	-0.214602	0.969412	-0.827626	0.517913	0.216336	-0.548497	-0.828077	-0.115925
60817	9.668900	3.107479	-0.904090	0.476410	-0.322573	0.164390	0.115930	-0.216436	0.969389	-0.830440	0.514308	0.214142	-0.544913	-0.829845	-0.120113
60818	9.861243	3.098763	-0.953939	0.407534	-0.322748	0.161223	0.112771	-0.218319	0.969340	-0.832857	0.511260	0.212042	-0.541877	-0.831234	-0.124173
60819	9.878485	2.887601	-0.948850	0.325478	-0.322456	0.159608	0.109651	-0.220196	0.969273	-0.834810	0.508894	0.210048	-0.539509	-0.832190	-0.128021
60820	9.890409	2.605974	-0.730229	0.224754	-0.310307	0.157369	0.106601	-0.222009	0.969200	-0.836209	0.507357	0.208191	-0.537950	-0.832647	-0.131562
60821	9.903627	2.493544	-0.328017	0.125009	-0.315767	0.156634	0.103547	-0.223853	0.969107	-0.837060	0.506656	0.206471	-0.537223	-0.832580	-0.134916
60822	10.049911	2.604204	0.111824	0.042509	-0.303790	0.150463	0.100592	-0.225649	0.969001	-0.837460	0.506627	0.204914	-0.537161	-0.832113	-0.138010
60823	10.236702	2.833732	0.098883	-0.005095	-0.240039	0.158656	0.097930	-0.226849	0.968994	-0.837604	0.507020	0.203349	-0.537428	-0.831547	-0.140357
60824	10.368994	2.972474	-0.127879	-0.014737	-0.146472	0.173035	0.095630	-0.227219	0.969137	-0.837710	0.507521	0.201652	-0.537677	-0.831140	-0.141809
60825	10.511143	3.092734	-0.219751	-0.026379	-0.055672	0.180246	0.093779	-0.226771	0.969423	-0.837752	0.508142	0.199908	-0.537938	-0.830883	-0.142325
60826	10.679930	3.034617	-0.113555	-0.067807	0.032808	0.188997	0.092309	-0.225566	0.969845	-0.837581	0.509119	0.198131	-0.538458	-0.830613	-0.141934
60827	10.750565	3.043219	0.252959	-0.132150	0.109001	0.208527	0.091112	-0.223601	0.970413	-0.837073	0.510677	0.196262	-0.539452	-0.830188	-0.140641
60828	10.738261	3.100121	0.658069	-0.188472	0.203270	0.213667	0.090359	-0.220850	0.971113	-0.836266	0.512702	0.194410	-0.540827	-0.829676	-0.138362
60829	10.545338	3.161731	1.009373	-0.278399	0.318762	0.188056	0.090478	-0.217239	0.971916	-0.834940	0.515416	0.192931	-0.542853	-0.828948	-0.134748
60830	10.518371	3.194639	1.114154	-0.436502	0.456543	0.153430	0.091621	-0.212693	0.972814	-0.832721	0.519347	0.191975	-0.546060	-0.827672	-0.129530
60831	10.513834	3.062557	0.974945	-0.628666	0.607254	0.088704	0.094182	-0.207205	0.973754	-0.829367	0.524723	0.191873	-0.550708	-0.825670	-0.122429
60832	10.501953	2.649335	0.696090	-0.854290	0.745434	0.024924	0.098041	-0.200957	0.974682	-0.824678	0.531801	0.192598	-0.557040	-0.822681	-0.113587
60833	10.471596	1.913286	0.324425	-1.022015	0.826179	-0.020489	0.102813	-0.194277	0.975544	-0.818937	0.540142	0.193876	-0.564598	-0.818842	-0.103567
60834	10.120230	1.348055	0.576746	-1.108029	0.902615	-0.034042	0.108159	-0.187118	0.976365	-0.812620	0.549112	0.195256	-0.572669	-0.814532	-0.092664
60835	10.177876	1.130216	0.795143	-1.158597	0.927399	-0.026488	0.113694	-0.179718	0.977126	-0.805920	0.558467	0.196489	-0.581005	-0.809825	-0.081344
60836	10.457305	1.100800	0.728468	-1.096058	1.007877	-0.024917	0.119723	-0.171744	0.977840	-0.799501	0.567260	0.197520	-0.588612	-0.805431	-0.069396
60837	10.138848	1.292830	0.431745	-0.908623	1.161023	0.009081	0.126489	-0.162340	0.978594	-0.794151	0.574572	0.197965	-0.594411	-0.802192	-0.056246
60838	10.031275	1.405052	-0.011695	-0.751285	1.237659	0.032063	0.133554	-0.152266	0.979274	-0.789732	0.580625	0.197984	-0.598738	-0.799806	-0.042705
60839	9.951221	1.484939	-0.276044	-0.662354	1.293545	0.066295	0.140768	-0.141523	0.979875	-0.785861	0.586006	0.197533	-0.602169	-0.797852	-0.028727
60840	10.246571	1.594511	-0.647148	-0.613136	1.301979	0.085637	0.147891	-0.130667	0.980334	-0.782305	0.590993	0.196789	-0.605084	-0.796023	-0.014819
60841	10.272061	1.857796	-0.632057	-0.560030	1.298724	0.110255	0.154873	-0.119663	0.980661	-0.779093	0.595576	0.195713	-0.607477	-0.794336	-0.000990
60842	10.485008	1.962826	-0.663766	-0.514656	1.265400	0.137592	0.161437	-0.108822	0.980865	-0.776201	0.599800	0.194297	-0.609467	-0.792715	0.012362
60843	10.696973	2.119889	-0.576567	-0.524261	1.253401	0.137319	0.167993	-0.098049	0.980900	-0.773244	0.604084	0.192812	-0.611451	-0.790866	0.025666
60844	10.356804	2.146494	-0.358514	-0.609862	1.211885	0.168512	0.174053	-0.087481	0.980843	-0.769819	0.609038	0.190926	-0.614072	-0.788302	0.038661
60845	10.282788	2.204888	-0.245425	-0.719523	1.124242	0.168130	0.179652	-0.077587	0.980666	-0.765703	0.614825	0.188916	-0.617595	-0.784838	0.051046
60846	10.160601	2.290441	0.013641	-0.811623	1.020476	0.172689	0.184593	-0.068555	0.980421	-0.761011	0.621286	0.186725	-0.621923	-0.780579	0.062514
60847	10.080311	2.426571	0.014990	-0.876869	0.956288	0.167627	0.189259	-0.060046	0.980090	-0.755868	0.628205	0.184448	-0.626773	-0.775727	0.073507
60848	10.125555	2.438726	-0.078101	-0.940613	0.887504	0.163827	0.193546	-0.052171	0.979703	-0.750285	0.635550	0.182067	-0.632149	-0.770295	0.083865
60849	10.095611	2.383676	-0.292219	-0.986905	0.809820	0.169374	0.197388	-0.044855	0.979299	-0.744369	0.643192	0.179496	-0.637929	-0.764390	0.093570
60850	9.919455	2.235457	-0.339043	-1.023608	0.720841	0.185608	0.200567	-0.038186	0.978935	-0.738202	0.651043	0.176641	-0.644074	-0.758080	0.102389
60851	9.751273	2.004600	-0.366304	-1.052706	0.627489	0.183544	0.203244	-0.032231	0.978597	-0.731778	0.659039	0.173689	-0.650533	-0.751417	0.110360
60852	9.604393	1.861242	-0.134686	-1.067213	0.560129	0.178394	0.205541	-0.026877	0.978279	-0.725190	0.667056	0.170692	-0.657154	-0.744523	0.117616
60853	9.532610	1.666291	0.128728	-1.076949	0.519742	0.174911	0.207674	-0.021837	0.977954	-0.718459	0.675064	0.167643	-0.663843	-0.737436	0.124504
60854	9.579572	1.545607	0.191046	-1.078481	0.498243	0.172192	0.209701	-0.017029	0.977617	-0.711649	0.682993	0.164547	-0.670508	-0.730226	0.131106
60855	9.444126	1.566507	0.254932	-1.023497	0.494707	0.158883	0.211869	-0.012328	0.977220	-0.705112	0.690440	0.161584	-0.676705	-0.723284	0.137590
60856	9.494875	1.739850	0.440095	-0.948712	0.485849	0.122934	0.214241	-0.007992	0.976748	-0.698954	0.697265	0.159014	-0.682323	-0.716769	0.143796
60857	9.319206	1.905075	0.601747	-0.890850	0.494141	0.085107	0.216992	-0.003857	0.976166	-0.693059	0.703613	0.156840	-0.687448	-0.710573	0.150006
60858	9.256572	2.108293	0.725143	-0.856482	0.514924	0.028341	0.220282	-0.000027	0.975436	-0.687239	0.709655	0.155219	-0.692227	-0.704550	0.156306
60859	8.943892	2.211902	0.804928	-0.844728	0.530254	-0.047184	0.224247	0.003368	0.974527	-0.681291	0.715566	0.154298	-0.696819	-0.698537	0.162758
60860	8.841143	2.275713	1.060097	-0.870665	0.513062	-0.096652	0.228423	0.006229	0.973542	-0.675012	0.721607	0.153762	-0.701557	-0.692275	0.169036
60861	8.603223	2.176157	1.177993	-0.939624	0.493934	-0.134297	0.232762	0.008668	0.972495	-0.668109	0.728074	0.153420	-0.706719	-0.685443	0.175259
60862	8.591276	2.031703	1.279008	-1.020735	0.458896	-0.163599	0.237039	0.010588	0.971443	-0.660510	0.735030	0.153158	-0.712417	-0.677952	0.181224
60863	8.484292	1.875717	1.407770	-1.115203	0.428453	-0.168939	0.241173	0.012236	0.970405	-0.652150	0.742548	0.152715	-0.718704	-0.669681	0.187063
60864	8.756060	1.681132	1.469583	-1.203668	0.407145	-0.156212	0.245058	0.013768	0.969411	-0.643108	0.750557	0.151912	-0.725506	-0.660663	0.192784
60865	8.742717	1.393776	1.502492	-1.274149	0.403362	-0.136484	0.248830	0.015393	0.968425	-0.633505	0.758918	0.150712	-0.732635	-0.651004	0.198593
60866	8.824467	1.209101	1.550718	-1.284509	0.396256	-0.131640	0.252508	0.016941	0.967447	-0.623749	0.767221	0.149366	-0.739714	-0.641160	0.204296
60867	8.859087	0.845600	1.930624	-1.260791	0.422215	-0.120970	0.256353	0.018705	0.966402	-0.614097	0.775250	0.147893	-0.746437	-0.631378	0.210224
60868	9.269332	0.784328	2.515081	-1.230655	0.436824	-0.103142	0.260189	0.020632	0.965337	-0.604636	0.782963	0.146234	-0.752806	-0.621726	0.216193
60869	9.760061	0.586588	2.793418	-1.218954	0.497754	-0.055588	0.264243	0.023279	0.964175	-0.595303	0.790480	0.144064	-0.758808	-0.612045	0.222737
60870	9.710696	0.345786	2.911622	-1.168190	0.596788	-0.016867	0.268820	0.026765	0.962818	-0.586394	0.797562	0.141551	-0.764119	-0.602643	0.230096
60871	9.589352	0.152254	2.879085	-1.082246	0.648258	0.003265	0.273727	0.030688	0.961318	-0.578136	0.804022	0.138953	-0.768656	-0.593808	0.237825
60872	9.543384	0.056519	2.788867	-0.958517	0.686909	0.006225	0.278917	0.034787	0.959685	-0.570800	0.809656	0.136546	-0.772265	-0.585873	0.245683
60873	9.514868	0.019155	2.651536	-0.820985	0.698900	0.022565	0.284153	0.039063	0.957983	-0.564541	0.814415	0.134243	-0.774952	-0.578966	0.253471
60874	9.649289	0.012834	2.603491	-0.713059	0.701475	0.061092	0.289186	0.043600	0.956279	-0.559215	0.818479	0.131794	-0.776949	-0.572879	0.261075
60875	9.314589	-0.099373	2.682812	-0.610684	0.675913	0.105657	0.293809	0.048347	0.954641	-0.554805	0.821899	0.129128	-0.778375	-0.567578	0.268305
60876	9.372905	0.033632	2.727680	-0.527801	0.643531	0.136471	0.298001	0.053107	0.953087	-0.551130	0.824796	0.126363	-0.779391	-0.562931	0.275059
60877	9.300761	0.050774	2.740517	-0.458043	0.632978	0.153363	0.302047	0.057953	0.951530	-0.548051	0.827265	0.123584	-0.780005	-0.558815	0.281634
60878	9.226692	0.163101	2.667446	-0.409803	0.613830	0.175806	0.305809	0.062828	0.950018	-0.545421	0.829424	0.120717	-0.780383	-0.555076	0.287913
60879	9.238169	0.317401	2.638129	-0.356578	0.593106	0.197208	0.309317	0.067780	0.948540	-0.543277	0.831253	0.117763	-0.780495	-0.551746	0.293944
60880	9.199923	0.525748	2.692513	-0.309087	0.586248	0.200382	0.312739	0.072673	0.947055	-0.541521	0.832796	0.114917	-0.780352	-0.548790	0.299802
60881	9.132634	0.648074	2.748239	-0.293692	0.581452	0.207555	0.316105	0.077619	0.945544	-0.539916	0.834232	0.112018	-0.780108	-0.545924	0.305612
60882	9.093320	0.815949	2.791791	-0.298751	0.576845	0.206193	0.319427	0.082482	0.944014	-0.538275	0.835675	0.109121	-0.779889	-0.542995	0.311335
60883	9.034990	1.033034	2.928158	-0.309911	0.567480	0.187582	0.322795	0.087157	0.942447	-0.536494	0.837178	0.106331	-0.779729	-0.539941	0.316996
60884	9.130103	1.225146	3.022070	-0.341528	0.563120	0.151716	0.326308	0.091461	0.940828	-0.534358	0.838863	0.103783	-0.779734	-0.536604	0.322600
60885	9.138184	1.400297	3.095808	-0.406256	0.558947	0.123929	0.329957	0.095524	0.939150	-0.531630	0.840903	0.101250	-0.780063	-0.532689	0.328245
60886	9.132131	1.361240	3.052321	-0.469157	0.523981	0.090102	0.333503	0.099064	0.937530	-0.528302	0.843286	0.098825	-0.780815	-0.528257	0.333574
60887	8.958612	1.313394	3.075293	-0.503163	0.491351	0.060545	0.336975	0.102192	0.935951	-0.524608	0.845854	0.096522	-0.781815	-0.523533	0.338643
60888	8.895629	1.352933	3.133818	-0.508118	0.439312	0.017569	0.340255	0.104633	0.934494	-0.520727	0.848466	0.094599	-0.782988	-0.518803	0.343180
60889	8.697697	1.306329	3.168164	-0.511779	0.394501	-0.029130	0.343449	0.106455	0.933118	-0.516651	0.851123	0.093061	-0.784292	-0.514059	0.347318
60890	8.658833	1.157364	3.223221	-0.531162	0.351890	-0.074646	0.346530	0.107623	0.931844	-0.512259	0.853903	0.091876	-0.785817	-0.509183	0.351034
60891	8.484180	0.892000	3.297858	-0.540621	0.328501	-0.115097	0.349653	0.108335	0.930595	-0.507641	0.856750	0.090998	-0.787428	-0.504225	0.354560
60892	8.233951	0.671635	3.339308	-0.505217	0.286546	-0.152010	0.352615	0.108473	0.929460	-0.503160	0.859432	0.090587	-0.788982	-0.499609	0.357628
60893	8.026946	0.488391	3.487895	-0.427961	0.231187	-0.169439	0.355242	0.108198	0.928492	-0.499217	0.861729	0.090582	-0.790308	-0.495697	0.360137
60894	7.911057	0.415643	3.519716	-0.307720	0.183558	-0.185127	0.357550	0.107513	0.927685	-0.496159	0.863432	0.091163	-0.791192	-0.492874	0.362064
60895	7.728061	0.429571	3.403201	-0.188426	0.160117	-0.196308	0.359741	0.106639	0.926938	-0.494000	0.864554	0.092257	-0.791550	-0.491096	0.363695
60896	7.507737	0.453895	3.181120	-0.105691	0.110608	-0.198114	0.361529	0.105473	0.926376	-0.492484	0.865265	0.093682	-0.791679	-0.490094	0.364762
60897	7.360214	0.449017	2.948748	-0.077507	0.050987	-0.195907	0.362849	0.104063	0.926019	-0.491197	0.865834	0.095170	-0.791875	-0.489390	0.365282
60898	7.210835	0.514601	2.811084	-0.061629	-0.020761	-0.193236	0.363568	0.102293	0.925935	-0.490043	0.866317	0.096708	-0.792260	-0.488908	0.365093
60899	7.201561	0.620580	2.711842	-0.036500	-0.087818	-0.204834	0.363826	0.100125	0.926070	-0.489045	0.866687	0.098428	-0.792758	-0.488700	0.364289
60900	7.279211	0.755963	2.693634	0.014945	-0.154279	-0.225838	0.363642	0.097418	0.926431	-0.488378	0.866820	0.100548	-0.793254	-0.489012	0.362789
60901	7.423292	0.895096	2.750202	0.068318	-0.219969	-0.255754	0.363097	0.094160	0.926981	-0.488027	0.866715	0.103121	-0.793719	-0.489835	0.360655
60902	7.581264	1.037494	2.760440	0.102590	-0.285540	-0.298268	0.362220	0.090180	0.927720	-0.487796	0.866470	0.106229	-0.794262	-0.491016	0.357843
60903	7.705986	1.118979	2.785098	0.163108	-0.355527	-0.328753	0.360951	0.085619	0.928646	-0.487939	0.865942	0.109817	-0.794751	-0.492761	0.354339
60904	7.875468	1.150254	2.699635	0.249590	-0.429664	-0.360185	0.359230	0.080384	0.929781	-0.488662	0.864991	0.114017	-0.795087	-0.495307	0.350011
60905	7.765266	1.202816	2.577587	0.345153	-0.521910	-0.389034	0.356935	0.074461	0.931157	-0.490049	0.863562	0.118792	-0.795267	-0.498714	0.344725
60906	8.007503	1.245115	2.421430	0.424248	-0.620745	-0.420831	0.353999	0.067726	0.932790	-0.491963	0.861721	0.124137	-0.795397	-0.502843	0.338367
60907	8.258941	1.343379	2.548040	0.454789	-0.715124	-0.433189	0.350397	0.060418	0.934651	-0.494091	0.859687	0.129661	-0.795673	-0.507235	0.331084
60908	8.413100	1.458827	2.766774	0.421737	-0.777590	-0.437710	0.346309	0.052703	0.936639	-0.495959	0.857771	0.135108	-0.796301	-0.511324	0.323192
60909	8.692561	1.588028	2.746944	0.353577	-0.841792	-0.420956	0.341642	0.044807	0.938761	-0.497363	0.856148	0.140141	-0.797440	-0.514784	0.314782
60910	8.918247	1.492074	2.773163	0.281407	-0.894813	-0.387978	0.336366	0.036872	0.941009	-0.498330	0.854839	0.144633	-0.799078	-0.517582	0.305913
60911	9.466153	1.316780	2.645528	0.256622	-0.937641	-0.340084	0.330511	0.029131	0.943352	-0.499283	0.853606	0.148568	-0.800924	-0.520103	0.296671
60912	10.768807	1.141681	2.708014	0.205726	-0.948952	-0.293527	0.324302	0.021685	0.945705	-0.500007	0.852594	0.151913	-0.803008	-0.522124	0.287340
60913	12.998122	1.243424	3.449918	0.086246	-0.873694	-0.250874	0.318479	0.015009	0.947811	-0.499928	0.852177	0.154488	-0.805384	-0.523039	0.278904
60914	14.927842	1.592841	4.888950	-0.102693	-0.643444	-0.255944	0.314500	0.009468	0.949210	-0.498324	0.852730	0.156604	-0.807937	-0.522266	0.272902
60915	15.404844	2.147536	5.876753	-0.332580	-0.363227	-0.299152	0.312994	0.005052	0.949742	-0.494728	0.854472	0.158495	-0.810727	-0.519472	0.269944
60916	14.065652	2.435241	5.461701	-0.572888	-0.155959	-0.336103	0.313314	0.001373	0.949649	-0.489056	0.857431	0.160113	-0.814038	-0.514597	0.269317
60917	11.895806	1.973873	4.606604	-0.817032	-0.131084	-0.306740	0.313683	-0.001900	0.949526	-0.481460	0.861595	0.160778	-0.818413	-0.507593	0.269352
60918	10.156457	0.798937	3.174868	-0.897876	-0.176751	-0.253764	0.313378	-0.004978	0.949616	-0.473329	0.866096	0.160741	-0.823258	-0.499854	0.269058
60919	8.842725	-0.957184	1.367965	-0.567396	-0.233532	-0.216559	0.312421	-0.007982	0.949910	-0.468006	0.868894	0.161226	-0.826658	-0.494934	0.267725
60920	8.358437	-2.468712	-0.032201	0.067120	-0.309176	-0.196974	0.310720	-0.011219	0.950435	-0.467982	0.868529	0.163247	-0.827312	-0.495511	0.264619
60921	8.353321	-3.126088	-0.486820	0.678581	-0.413839	-0.155492	0.307977	-0.014590	0.951282	-0.473145	0.865118	0.166448	-0.825399	-0.501356	0.259533
60922	8.554192	-2.516170	-0.576844	1.087223	-0.523876	-0.090916	0.304030	-0.018020	0.952492	-0.481856	0.859588	0.170068	-0.821815	-0.510670	0.252658
60923	8.882687	-0.903662	-0.655278	1.253498	-0.594566	-0.031915	0.299248	-0.021318	0.953937	-0.492072	0.853105	0.173427	-0.817506	-0.521304	0.244800
60924	8.944940	1.671697	-0.567602	1.267390	-0.605533	-0.037001	0.294429	-0.024819	0.955351	-0.502329	0.846408	0.176801	-0.813005	-0.531956	0.236740
60925	8.905305	4.486864	-0.594043	1.127911	-0.642438	-0.089908	0.289605	-0.028984	0.956707	-0.511253	0.840322	0.180219	-0.809166	-0.541312	0.228543
60926	8.608615	6.509890	-0.432197	0.845481	-0.738698	-0.144415	0.284312	-0.034217	0.958121	-0.517704	0.835657	0.183467	-0.806938	-0.548185	0.219873
60927	8.580871	7.279061	-0.050611	0.503845	-0.874131	-0.210955	0.278285	-0.040758	0.959633	-0.521213	0.832795	0.186518	-0.806780	-0.552078	0.210511
60928	8.867402	6.606300	0.743593	0.155901	-0.979212	-0.263392	0.271683	-0.048360	0.961171	-0.521781	0.831803	0.189337	-0.808661	-0.552960	0.200753
60929	9.116474	4.678412	1.518459	-0.151076	-1.041198	-0.292361	0.264701	-0.056527	0.962673	-0.519806	0.832473	0.191810	-0.812241	-0.551175	0.190973
