// General information: 
//  MT Manager version: 2022.2.0 
//  XDA version: 2022.2.0 build 7381 rev 124627 built on 2023-07-19
// Device information: 
//  DeviceId: 00B4CBA7
//  ProductCode: MTW2-3A7G6
//  Firmware Version: 4.6.0
//  Hardware Version: 2.0.0
// Device settings: 
//  Filter Profile: human(46.1)
//  Option Flags: Orientation Smoother Disabled, Position/Velocity Smoother Disabled, Continuous Zero Rotation Update Disabled, AHS Disabled, ICC Disabled
// Coordinate system: ENU
PacketCounter	Acc_X	Acc_Y	Acc_Z	Gyr_X	Gyr_Y	Gyr_Z	Mat[1][1]	Mat[2][1]	Mat[3][1]	Mat[1][2]	Mat[2][2]	Mat[3][2]	Mat[1][3]	Mat[2][3]	Mat[3][3]
58513	9.572009	0.199170	-1.955408	0.030864	-0.056741	-0.011718	-0.082643	-0.185198	0.979220	-0.833923	0.550844	0.033800	-0.545657	-0.813801	-0.199964
58514	9.610145	0.254957	-1.973941	0.044797	-0.058913	-0.014084	-0.082834	-0.185794	0.979091	-0.834164	0.550475	0.033886	-0.545261	-0.813915	-0.200581
58515	9.595244	0.308157	-1.979801	0.053024	-0.063550	-0.013214	-0.083031	-0.186395	0.978960	-0.834454	0.550031	0.033951	-0.544786	-0.814078	-0.201207
58516	9.632254	0.397367	-2.041980	0.056366	-0.062227	-0.014243	-0.083236	-0.187020	0.978824	-0.834765	0.549554	0.034015	-0.544278	-0.814257	-0.201860
58517	9.613614	0.472058	-2.058682	0.044667	-0.060238	-0.011572	-0.083428	-0.187584	0.978699	-0.835009	0.549180	0.034081	-0.543875	-0.814379	-0.202451
58518	9.595334	0.456605	-2.090459	0.034531	-0.062417	-0.008903	-0.083678	-0.188181	0.978563	-0.835195	0.548894	0.034136	-0.543551	-0.814435	-0.203098
58519	9.570706	0.450440	-2.100742	0.041849	-0.061991	-0.004802	-0.083935	-0.188723	0.978437	-0.835417	0.548555	0.034140	-0.543170	-0.814537	-0.203706
58520	9.532848	0.406820	-2.125577	0.034437	-0.055250	-0.004928	-0.084180	-0.189238	0.978316	-0.835594	0.548285	0.034157	-0.542860	-0.814600	-0.204281
58521	9.541581	0.375002	-2.142096	0.036662	-0.061699	0.001243	-0.084486	-0.189745	0.978192	-0.835782	0.548000	0.034112	-0.542522	-0.814674	-0.204884
58522	9.559144	0.344789	-2.212540	0.058113	-0.056882	0.004848	-0.084824	-0.190219	0.978070	-0.836072	0.547567	0.033984	-0.542023	-0.814854	-0.205484
58523	9.540888	0.327500	-2.243638	0.058121	-0.053766	0.001909	-0.085092	-0.190657	0.977962	-0.836376	0.547108	0.033888	-0.541512	-0.815060	-0.206016
58524	9.500196	0.361014	-2.220569	0.039756	-0.051304	0.003740	-0.085384	-0.191096	0.977851	-0.836583	0.546796	0.033808	-0.541146	-0.815166	-0.206555
58525	9.430425	0.308412	-2.194244	0.019970	-0.043397	0.003074	-0.085605	-0.191443	0.977763	-0.836679	0.546651	0.033779	-0.540962	-0.815182	-0.206972
58526	9.413616	0.258329	-2.180899	0.025376	-0.043458	0.004816	-0.085867	-0.191811	0.977668	-0.836800	0.546469	0.033718	-0.540733	-0.815218	-0.207431
58527	9.445938	0.232096	-2.191789	0.015084	-0.043717	0.007067	-0.086123	-0.192139	0.977581	-0.836866	0.546372	0.033660	-0.540590	-0.815206	-0.207850
58528	9.499099	0.200283	-2.166266	0.014423	-0.041478	0.000894	-0.086343	-0.192511	0.977489	-0.836926	0.546280	0.033660	-0.540462	-0.815180	-0.208285
58529	9.579352	0.231444	-2.244196	0.044465	-0.036615	0.007650	-0.086566	-0.192778	0.977417	-0.837151	0.545943	0.033535	-0.540079	-0.815342	-0.208644
58530	9.591624	0.357120	-2.218580	0.065369	-0.039933	0.004030	-0.086799	-0.193121	0.977328	-0.837493	0.545427	0.033397	-0.539511	-0.815606	-0.209080
58531	9.627014	0.579129	-2.174369	0.029583	-0.034685	0.008904	-0.087021	-0.193366	0.977260	-0.837635	0.545215	0.033291	-0.539254	-0.815690	-0.209416
58532	9.595316	0.704931	-2.188610	0.000614	-0.031772	0.015075	-0.087305	-0.193582	0.977192	-0.837611	0.545259	0.033181	-0.539246	-0.815610	-0.209750
58533	9.527467	0.618594	-2.116830	-0.032146	-0.024512	0.020965	-0.087574	-0.193677	0.977149	-0.837410	0.545573	0.033086	-0.539514	-0.815377	-0.209965
58534	9.474688	0.434567	-2.134604	-0.038146	-0.023169	0.023348	-0.087879	-0.193779	0.977101	-0.837174	0.545942	0.032978	-0.539831	-0.815106	-0.210203
58535	9.586511	0.258365	-2.081417	0.017899	-0.017894	0.027279	-0.088164	-0.193786	0.977074	-0.837237	0.545860	0.032716	-0.539686	-0.815159	-0.210370
58536	9.666046	0.240978	-2.082357	0.093604	-0.021851	0.034351	-0.088552	-0.193818	0.977033	-0.837707	0.545168	0.032223	-0.538893	-0.815614	-0.210639
58537	9.747976	0.234158	-2.115845	0.106947	-0.019675	0.033097	-0.088896	-0.193809	0.977003	-0.838245	0.544371	0.031717	-0.538000	-0.816148	-0.210851
58538	9.783079	0.305242	-2.143056	0.107581	-0.027314	0.034891	-0.089318	-0.193882	0.976950	-0.838786	0.543567	0.031188	-0.537085	-0.816667	-0.211176
58539	9.710064	0.258165	-2.258350	0.102991	-0.022014	0.030935	-0.089656	-0.193904	0.976915	-0.839302	0.542797	0.030711	-0.536222	-0.817173	-0.211409
58540	9.719326	0.209537	-2.404368	0.102702	-0.018268	0.030044	-0.089991	-0.193929	0.976879	-0.839813	0.542033	0.030239	-0.535366	-0.817674	-0.211642
58541	9.663654	0.178622	-2.492916	0.087645	-0.008122	0.024943	-0.090205	-0.193870	0.976871	-0.840250	0.541377	0.029853	-0.534643	-0.818123	-0.211734
58542	9.613227	0.184258	-2.512023	0.052418	0.002238	0.019810	-0.090342	-0.193784	0.976876	-0.840505	0.540996	0.029587	-0.534219	-0.818396	-0.211751
58543	9.526199	0.237549	-2.534443	0.045806	0.011195	0.020387	-0.090415	-0.193592	0.976907	-0.840722	0.540672	0.029334	-0.533865	-0.818655	-0.211642
58544	9.454452	0.475130	-2.470084	0.007627	0.021857	0.041717	-0.090626	-0.193230	0.976959	-0.840732	0.540677	0.028950	-0.533813	-0.818737	-0.211454
58545	9.358537	0.403394	-2.241367	-0.055405	0.039009	0.048744	-0.090788	-0.192657	0.977057	-0.840383	0.541236	0.028633	-0.534335	-0.818503	-0.211044
58546	9.390163	0.194909	-2.106395	-0.044294	0.047595	0.041284	-0.090866	-0.192083	0.977163	-0.840096	0.541696	0.028363	-0.534773	-0.818333	-0.210590
58547	9.343208	0.145952	-1.901269	0.044827	0.039220	0.053051	-0.091063	-0.191485	0.977262	-0.840278	0.541443	0.027792	-0.534453	-0.818641	-0.210206
58548	9.582164	0.549455	-1.658304	0.138705	0.039229	0.074622	-0.091464	-0.190800	0.977359	-0.840941	0.540462	0.026811	-0.533340	-0.819449	-0.209884
58549	9.936047	0.470909	-1.520134	0.234843	0.111120	0.088855	-0.091581	-0.189419	0.977616	-0.842102	0.538716	0.025493	-0.531486	-0.820917	-0.208846
58550	10.142371	0.747458	-1.331942	0.291683	0.203186	0.096209	-0.091292	-0.187272	0.978057	-0.843562	0.536496	0.023986	-0.529215	-0.822862	-0.206953
58551	9.858921	0.685550	-1.206430	0.354258	0.216620	0.106717	-0.091011	-0.184926	0.978529	-0.845326	0.533787	0.022255	-0.526442	-0.825151	-0.204903
58552	9.711011	0.803697	-1.102682	0.372661	0.146126	0.109583	-0.091148	-0.183173	0.978846	-0.847182	0.530908	0.020462	-0.523425	-0.827396	-0.203572
58553	9.699687	0.947117	-0.950084	0.269865	0.076193	0.112227	-0.091662	-0.181957	0.979025	-0.848481	0.528890	0.018858	-0.521228	-0.828955	-0.202866
58554	9.755062	0.797557	-1.062160	0.193680	0.023328	0.120663	-0.092536	-0.181165	0.979089	-0.849385	0.527488	0.017326	-0.519597	-0.830021	-0.202691
58555	9.656376	0.714665	-1.424407	0.189172	-0.021229	0.131933	-0.093728	-0.180656	0.979070	-0.850236	0.526168	0.015693	-0.517991	-0.830969	-0.202917
58556	9.331384	0.691865	-1.605921	0.158738	-0.059005	0.167859	-0.095438	-0.180297	0.978971	-0.850883	0.525174	0.013770	-0.516613	-0.831676	-0.203533
58557	8.944074	1.081111	-1.732601	0.118917	-0.143345	0.199450	-0.097836	-0.180452	0.978706	-0.851296	0.524557	0.011618	-0.515483	-0.832032	-0.204938
58558	8.895234	1.455081	-1.730967	-0.041545	-0.197767	0.219425	-0.100688	-0.180984	0.978318	-0.850877	0.525277	0.009602	-0.515626	-0.831462	-0.206884
58559	8.731923	1.332219	-1.687238	-0.199497	-0.231381	0.249383	-0.103963	-0.181603	0.977861	-0.849584	0.527399	0.007620	-0.517106	-0.829983	-0.209117
58560	8.669920	1.076683	-1.607450	-0.313958	-0.267896	0.296100	-0.107836	-0.182291	0.977313	-0.847630	0.530560	0.005435	-0.519514	-0.827814	-0.211729
58561	8.745135	0.793557	-1.564192	-0.399416	-0.290251	0.343691	-0.112218	-0.182869	0.976712	-0.845163	0.534500	0.002971	-0.522596	-0.825147	-0.214535
58562	9.099451	0.431777	-1.747792	-0.449478	-0.305629	0.391132	-0.117084	-0.183327	0.976055	-0.842363	0.538910	0.000174	-0.526038	-0.822172	-0.217525
58563	9.595759	0.010823	-1.816154	-0.524927	-0.289496	0.419580	-0.122101	-0.183440	0.975418	-0.839082	0.543999	-0.002728	-0.530126	-0.818789	-0.220344
58564	10.046268	-0.480609	-2.173463	-0.584260	-0.257576	0.420418	-0.126964	-0.183279	0.974828	-0.835430	0.549570	-0.005483	-0.534731	-0.815096	-0.222893
58565	10.230063	-0.747167	-2.621988	-0.567189	-0.229733	0.398757	-0.131483	-0.182956	0.974289	-0.831861	0.554925	-0.008055	-0.539184	-0.811533	-0.225157
58566	10.083741	-0.775417	-3.066527	-0.533830	-0.219855	0.362792	-0.135654	-0.182748	0.973756	-0.828476	0.559930	-0.010331	-0.543347	-0.808135	-0.227359
58567	9.790851	-0.704873	-3.338920	-0.500152	-0.217235	0.328523	-0.139516	-0.182664	0.973226	-0.825289	0.564576	-0.012343	-0.547205	-0.804915	-0.229518
58568	9.518654	-0.502062	-3.576606	-0.450814	-0.185652	0.301636	-0.142992	-0.182481	0.972756	-0.822375	0.568769	-0.014190	-0.550684	-0.801999	-0.231397
58569	9.118202	-0.578794	-3.740337	-0.408091	-0.140002	0.284470	-0.146062	-0.181990	0.972392	-0.819703	0.572566	-0.015967	-0.553853	-0.799404	-0.232808
58570	8.755673	-0.758362	-3.845194	-0.337935	-0.115208	0.276700	-0.148938	-0.181362	0.972073	-0.817417	0.575771	-0.017819	-0.556459	-0.797243	-0.234003
58571	8.766169	-0.718519	-4.039267	-0.199282	-0.104864	0.260642	-0.151612	-0.180706	0.971781	-0.815908	0.577841	-0.019842	-0.557950	-0.795892	-0.235047
58572	8.603305	-0.563847	-4.049496	-0.132576	-0.085267	0.244798	-0.154059	-0.180011	0.971526	-0.814791	0.579342	-0.021860	-0.558910	-0.794958	-0.235924
58573	8.560322	-0.555632	-3.994154	-0.085841	-0.063662	0.226683	-0.156222	-0.179214	0.971327	-0.813953	0.580443	-0.023817	-0.559532	-0.794335	-0.236550
58574	8.682167	-0.715115	-3.990440	-0.046758	-0.041524	0.206641	-0.158112	-0.178392	0.971173	-0.813370	0.581180	-0.025665	-0.559848	-0.793981	-0.236990
58575	8.791707	-0.885478	-3.711707	-0.038914	-0.026762	0.182000	-0.159703	-0.177558	0.971065	-0.812856	0.581825	-0.027297	-0.560143	-0.793696	-0.237249
58576	9.094796	-1.181898	-3.225260	-0.044954	-0.003148	0.168664	-0.161071	-0.176648	0.971005	-0.812330	0.582487	-0.028782	-0.560514	-0.793413	-0.237318
58577	9.517937	-1.699947	-2.777526	-0.005113	0.019831	0.151834	-0.162154	-0.175618	0.971012	-0.812049	0.582807	-0.030201	-0.560609	-0.793407	-0.237115
58578	9.884563	-1.919611	-2.305894	0.102033	0.030567	0.136999	-0.163076	-0.174626	0.971037	-0.812401	0.582236	-0.031728	-0.559831	-0.794045	-0.236815
58579	10.267191	-1.568163	-1.940409	0.213256	0.028843	0.124051	-0.163884	-0.173688	0.971069	-0.813383	0.580769	-0.033395	-0.558166	-0.795324	-0.236453
58580	10.467867	-0.866667	-1.769043	0.297896	0.019590	0.116962	-0.164715	-0.172892	0.971070	-0.814835	0.578624	-0.035194	-0.555800	-0.797059	-0.236187
58581	10.489410	0.060024	-1.659993	0.287416	0.002922	0.111802	-0.165572	-0.172235	0.971041	-0.816238	0.576535	-0.036915	-0.553482	-0.798713	-0.236043
58582	10.283839	0.685277	-1.691066	0.190277	-0.008038	0.114329	-0.166529	-0.171688	0.970974	-0.817109	0.575200	-0.038433	-0.551906	-0.799792	-0.236076
58583	9.939749	0.845317	-1.765698	0.102213	-0.025484	0.119127	-0.167605	-0.171219	0.970872	-0.817468	0.574598	-0.039788	-0.551049	-0.800325	-0.236271
58584	9.661099	0.803697	-1.709876	0.078706	-0.047836	0.138571	-0.168979	-0.170848	0.970699	-0.817667	0.574210	-0.041275	-0.550333	-0.800683	-0.236726
58585	9.498247	0.628275	-1.790284	0.121838	-0.089075	0.160304	-0.170741	-0.170653	0.970425	-0.818058	0.573520	-0.043077	-0.549207	-0.801219	-0.237528
58586	9.568276	0.479538	-1.972812	0.237929	-0.103565	0.191467	-0.172853	-0.170430	0.970090	-0.819033	0.571943	-0.045456	-0.547089	-0.802393	-0.238450
58587	9.508560	0.556582	-2.043506	0.295445	-0.115477	0.217969	-0.175232	-0.170124	0.969717	-0.820260	0.569953	-0.048233	-0.544488	-0.803873	-0.239420
58588	9.422231	0.580909	-2.043865	0.281750	-0.125509	0.244533	-0.177890	-0.169789	0.969292	-0.821368	0.568093	-0.051230	-0.541950	-0.805259	-0.240517
58589	9.383768	0.291582	-2.026740	0.186724	-0.134779	0.259568	-0.180713	-0.169413	0.968835	-0.821908	0.567041	-0.054153	-0.540195	-0.806079	-0.241713
58590	9.365913	-0.224512	-2.089401	0.082902	-0.123065	0.270371	-0.183570	-0.168915	0.968385	-0.821863	0.566834	-0.056922	-0.539299	-0.806329	-0.242879
58591	9.296050	-0.691715	-2.210313	0.051321	-0.117950	0.273223	-0.186412	-0.168329	0.967944	-0.821629	0.566894	-0.059649	-0.538681	-0.806410	-0.243979
58592	9.329676	-0.986731	-2.388832	0.036742	-0.112372	0.271844	-0.189218	-0.167739	0.967502	-0.821324	0.567048	-0.062318	-0.538167	-0.806424	-0.245064
58593	9.429228	-1.104697	-2.718955	0.039403	-0.120826	0.273945	-0.192079	-0.167171	0.967036	-0.821008	0.567202	-0.065022	-0.537635	-0.806434	-0.246196
58594	9.682509	-1.167929	-2.961716	0.027553	-0.098334	0.267874	-0.194778	-0.166485	0.966615	-0.820637	0.567434	-0.067630	-0.537231	-0.806412	-0.247148
58595	9.956884	-1.151148	-3.263945	0.027671	-0.073143	0.263267	-0.197292	-0.165592	0.966258	-0.820264	0.567661	-0.070200	-0.536882	-0.806437	-0.247824
58596	10.048033	-0.953043	-3.493727	0.062801	-0.047138	0.251246	-0.199583	-0.164586	0.965960	-0.820096	0.567585	-0.072737	-0.536293	-0.806696	-0.248256
58597	9.982445	-0.765283	-3.828487	0.065521	-0.012728	0.235850	-0.201547	-0.163361	0.965760	-0.819969	0.567455	-0.075135	-0.535752	-0.807036	-0.248320
58598	9.803938	-0.648974	-3.955724	0.062983	0.026553	0.227810	-0.203250	-0.161896	0.965650	-0.819842	0.567329	-0.077444	-0.535303	-0.807420	-0.248039
58599	9.436878	-0.568991	-3.906019	0.045976	0.062775	0.222656	-0.204700	-0.160138	0.965636	-0.819629	0.567329	-0.079665	-0.535076	-0.807771	-0.247386
58600	9.130428	-0.687977	-3.719696	-0.011669	0.080583	0.224068	-0.206084	-0.158259	0.965652	-0.819101	0.567795	-0.081753	-0.535354	-0.807814	-0.246643
58601	8.851388	-0.955621	-3.400431	-0.039428	0.099920	0.226352	-0.207364	-0.156177	0.965717	-0.818417	0.568482	-0.083799	-0.535905	-0.807736	-0.245700
58602	8.850853	-1.318466	-3.035691	-0.027269	0.126306	0.225716	-0.208514	-0.153918	0.965832	-0.817795	0.569067	-0.085866	-0.536407	-0.807757	-0.244532
58603	8.795122	-1.545520	-2.771599	0.040050	0.139232	0.224737	-0.209566	-0.151525	0.965982	-0.817536	0.569100	-0.088092	-0.536392	-0.808187	-0.243141
58604	8.696296	-1.658102	-2.486748	0.119582	0.136515	0.219436	-0.210610	-0.149218	0.966115	-0.817710	0.568479	-0.090456	-0.535718	-0.809052	-0.241744
58605	8.603966	-1.539595	-2.282755	0.245213	0.139240	0.218820	-0.211617	-0.146859	0.966256	-0.818555	0.566830	-0.093119	-0.534028	-0.810639	-0.240164
58606	8.534541	-1.144579	-2.125238	0.316970	0.144147	0.224528	-0.212671	-0.144465	0.966386	-0.819766	0.564595	-0.096003	-0.531748	-0.812626	-0.238501
58607	8.811542	-0.763204	-1.758505	0.269831	0.145280	0.231547	-0.213760	-0.141989	0.966512	-0.820700	0.562745	-0.098839	-0.529866	-0.814344	-0.236823
58608	9.844659	-0.436641	-1.246791	0.221659	0.158605	0.244516	-0.214910	-0.139368	0.966639	-0.821347	0.561293	-0.101681	-0.528396	-0.815798	-0.235097
58609	9.960860	-0.172670	-1.048291	0.241762	0.126358	0.206982	-0.215905	-0.137187	0.966729	-0.822173	0.559619	-0.104206	-0.526704	-0.817317	-0.233616
58610	9.938708	-0.810440	-0.735386	0.264084	0.076051	0.205112	-0.217173	-0.135461	0.966688	-0.823112	0.557754	-0.106760	-0.524712	-0.818878	-0.232628
58611	10.084301	-1.125595	-0.664011	0.394178	0.016491	0.237740	-0.219007	-0.134014	0.966476	-0.824652	0.554856	-0.109931	-0.521523	-0.821082	-0.232032
58612	10.014507	-0.858356	-0.406848	0.423894	-0.054055	0.237035	-0.221220	-0.133187	0.966086	-0.826332	0.551698	-0.113160	-0.517916	-0.823341	-0.232104
58613	9.769557	-0.796593	-0.335271	0.304410	-0.101652	0.223239	-0.223553	-0.132806	0.965602	-0.827405	0.549500	-0.115981	-0.515195	-0.824871	-0.232727
58614	9.343991	-1.048519	-0.335146	0.251043	-0.160359	0.222116	-0.226190	-0.132947	0.964968	-0.828192	0.547738	-0.118666	-0.512773	-0.826020	-0.233999
58615	9.234041	-1.346222	-0.449768	0.179227	-0.221169	0.214612	-0.229061	-0.133611	0.964199	-0.828618	0.546557	-0.121115	-0.510807	-0.826695	-0.235907
58616	9.114237	-1.684637	-0.856090	0.166450	-0.288686	0.210174	-0.232248	-0.134882	0.963259	-0.828978	0.545478	-0.123491	-0.508780	-0.827201	-0.238501
58617	9.089571	-1.772455	-1.268731	0.144382	-0.340646	0.203484	-0.235627	-0.136602	0.962195	-0.829232	0.544573	-0.125754	-0.506808	-0.827514	-0.241590
58618	9.290345	-1.911120	-1.897640	0.126221	-0.369446	0.193643	-0.239075	-0.138634	0.961054	-0.829407	0.543811	-0.127880	-0.504903	-0.827677	-0.244995
58619	9.562899	-1.980981	-2.609493	0.147536	-0.379153	0.184183	-0.242474	-0.140782	0.959889	-0.829704	0.542861	-0.129970	-0.502789	-0.827939	-0.248437
58620	9.633869	-2.000132	-3.159591	0.186367	-0.363174	0.167267	-0.245658	-0.142910	0.958764	-0.830227	0.541571	-0.132000	-0.500375	-0.828419	-0.251689
58621	9.648183	-1.770990	-3.654240	0.192021	-0.347818	0.145928	-0.248568	-0.145013	0.957698	-0.830823	0.540203	-0.133842	-0.497943	-0.828946	-0.254757
58622	9.471843	-1.754250	-3.811174	0.159859	-0.303529	0.124830	-0.251090	-0.146883	0.956755	-0.831302	0.539076	-0.135406	-0.495875	-0.829351	-0.257461
58623	9.439662	-2.048906	-3.884977	0.167046	-0.271353	0.103765	-0.253257	-0.148586	0.955920	-0.831865	0.537857	-0.136787	-0.493824	-0.829839	-0.259819
58624	9.595548	-2.301839	-3.891674	0.195727	-0.235081	0.075166	-0.255019	-0.150162	0.955205	-0.832634	0.536360	-0.137977	-0.491615	-0.830523	-0.261812
58625	9.488696	-2.252049	-3.732307	0.244886	-0.190706	0.053501	-0.256361	-0.151470	0.954639	-0.833697	0.534419	-0.139088	-0.489110	-0.831536	-0.263285
58626	9.331740	-2.245461	-3.496373	0.255065	-0.178938	0.028772	-0.257454	-0.152835	0.954127	-0.834863	0.532357	-0.139998	-0.486539	-0.832609	-0.264654
58627	9.138684	-2.074714	-3.268253	0.242221	-0.162078	0.012499	-0.258307	-0.154129	0.953689	-0.836005	0.530371	-0.140717	-0.484120	-0.833637	-0.265851
58628	9.248423	-1.952562	-3.052111	0.207175	-0.150900	-0.003620	-0.258987	-0.155436	0.953292	-0.837012	0.528653	-0.141199	-0.482013	-0.834485	-0.267017
58629	9.390168	-1.627361	-2.830808	0.205520	-0.149221	-0.013097	-0.259557	-0.156761	0.952920	-0.838033	0.526930	-0.141581	-0.479928	-0.835327	-0.268139
58630	9.584266	-1.137420	-2.525659	0.158008	-0.147965	-0.021733	-0.260066	-0.158141	0.952553	-0.838843	0.525591	-0.141764	-0.478235	-0.835910	-0.269344
58631	9.570010	-0.942498	-2.339857	0.100582	-0.158293	-0.026751	-0.260559	-0.159614	0.952172	-0.839392	0.524721	-0.141737	-0.477001	-0.836177	-0.270700
58632	9.419212	-0.971130	-2.049141	0.069302	-0.180862	-0.032651	-0.261129	-0.161327	0.951728	-0.839803	0.524105	-0.141579	-0.475964	-0.836234	-0.272342
58633	9.268390	-1.220418	-1.804958	0.052251	-0.199332	-0.035460	-0.261740	-0.163189	0.951242	-0.840143	0.523623	-0.141341	-0.475027	-0.836175	-0.274155
58634	9.202298	-1.510628	-1.640689	0.079812	-0.230985	-0.027925	-0.262582	-0.165294	0.950646	-0.840592	0.522925	-0.141259	-0.473768	-0.836198	-0.276256
58635	9.057319	-1.711092	-1.510918	0.092067	-0.257669	-0.029228	-0.263516	-0.167611	0.949982	-0.841104	0.522120	-0.141194	-0.472339	-0.836240	-0.278565
58636	9.126115	-1.837166	-1.369102	0.089205	-0.300021	-0.029433	-0.264663	-0.170299	0.949185	-0.841599	0.521339	-0.141128	-0.470813	-0.836184	-0.281302
58637	9.126495	-1.919835	-1.348781	0.029446	-0.336040	-0.035248	-0.265908	-0.173301	0.948293	-0.841830	0.521045	-0.140834	-0.469697	-0.835751	-0.284440
58638	9.193420	-2.192604	-1.329207	-0.010104	-0.367285	-0.045717	-0.267226	-0.176630	0.947308	-0.841902	0.521063	-0.140337	-0.468820	-0.835042	-0.287947
58639	9.416531	-2.293663	-1.671881	-0.015994	-0.392924	-0.062738	-0.268499	-0.180246	0.946266	-0.841994	0.521097	-0.139653	-0.467925	-0.834248	-0.291680
58640	9.589686	-2.144611	-2.023134	-0.026237	-0.421878	-0.079079	-0.269784	-0.184195	0.945139	-0.842082	0.521185	-0.138795	-0.467027	-0.833330	-0.295715
58641	9.815297	-1.811408	-2.361683	-0.042049	-0.444886	-0.100561	-0.270975	-0.188433	0.943963	-0.842157	0.521360	-0.137677	-0.466201	-0.832272	-0.299966
58642	10.059048	-1.076040	-2.447676	-0.038329	-0.461333	-0.114013	-0.272142	-0.192883	0.942727	-0.842286	0.521474	-0.136453	-0.465288	-0.831181	-0.304378
58643	9.968326	-0.626165	-2.213555	-0.160610	-0.476625	-0.133739	-0.273195	-0.197548	0.941456	-0.841903	0.522558	-0.134657	-0.465364	-0.829402	-0.309076
58644	9.913812	-0.824922	-1.895060	-0.205441	-0.501660	-0.151223	-0.274235	-0.202511	0.940098	-0.841358	0.523969	-0.132561	-0.465737	-0.827312	-0.314075
58645	9.809499	-0.964772	-1.617228	-0.121471	-0.536269	-0.167363	-0.275285	-0.207830	0.938629	-0.841253	0.524641	-0.130561	-0.465309	-0.825566	-0.319263
58646	9.739250	-0.713986	-1.248066	-0.105005	-0.592031	-0.170342	-0.276579	-0.213622	0.936947	-0.841233	0.525159	-0.128590	-0.464576	-0.823756	-0.324954
58647	9.737745	-0.401208	-0.828570	-0.073356	-0.646042	-0.155580	-0.278230	-0.219764	0.935036	-0.841324	0.525436	-0.126850	-0.463424	-0.821961	-0.331085
58648	9.564464	0.160368	-0.286024	-0.213119	-0.702982	-0.142394	-0.280260	-0.226295	0.932869	-0.840733	0.526878	-0.124771	-0.463273	-0.819262	-0.337916
58649	9.407255	0.175717	0.132724	-0.405625	-0.773346	-0.117689	-0.282821	-0.233247	0.930381	-0.839183	0.529932	-0.122244	-0.464526	-0.815333	-0.345613
58650	9.242995	-0.339310	-0.005005	-0.498978	-0.851471	-0.097601	-0.285932	-0.240697	0.927528	-0.837138	0.533767	-0.119553	-0.466308	-0.810653	-0.354118
58651	9.503274	-1.167024	-0.821262	-0.557134	-0.929965	-0.086838	-0.289514	-0.248687	0.924303	-0.834784	0.538066	-0.116706	-0.468313	-0.805382	-0.363377
58652	9.958575	-1.399752	-1.486553	-0.526676	-1.009246	-0.098379	-0.293390	-0.257324	0.920710	-0.832601	0.542052	-0.113819	-0.469785	-0.799977	-0.373281
58653	10.724416	-0.901001	-1.707985	-0.563280	-1.097307	-0.118589	-0.297529	-0.266725	0.916697	-0.830302	0.546240	-0.110552	-0.471249	-0.794028	-0.383985
58654	11.525725	-0.180164	-1.427907	-0.628846	-1.159443	-0.126324	-0.301917	-0.276588	0.912330	-0.827712	0.550876	-0.106907	-0.473011	-0.787423	-0.395254
58655	11.880553	0.367924	-0.675484	-0.774127	-1.219179	-0.138628	-0.306517	-0.286920	0.907593	-0.824462	0.556558	-0.102495	-0.475720	-0.779692	-0.407149
58656	12.696084	0.599236	0.325158	-0.924716	-1.318919	-0.107805	-0.311884	-0.297746	0.902261	-0.820381	0.563417	-0.097653	-0.479273	-0.770655	-0.419986
58657	12.271742	0.355229	1.072140	-0.990369	-1.363484	-0.146201	-0.317211	-0.309029	0.896593	-0.816077	0.570563	-0.092068	-0.483111	-0.760893	-0.433180
58658	13.004813	1.191112	1.868402	-0.968718	-1.529549	-0.121845	-0.323579	-0.321280	0.889986	-0.811774	0.577504	-0.086668	-0.486126	-0.750512	-0.447675
58659	14.519699	2.407393	2.238321	-1.083871	-1.682540	-0.052081	-0.331327	-0.334124	0.882374	-0.806659	0.585409	-0.081224	-0.489411	-0.738687	-0.463486
58660	15.122853	2.428262	0.254291	-1.057278	-1.766732	-0.002520	-0.339914	-0.347066	0.874073	-0.801483	0.593148	-0.076164	-0.492021	-0.726444	-0.479787
58661	14.138301	2.296250	-1.241672	-1.245929	-1.802273	0.016346	-0.348909	-0.359951	0.865273	-0.795274	0.602174	-0.070180	-0.495784	-0.712616	-0.496363
58662	13.165035	2.122640	-2.179568	-1.387539	-1.863560	0.057571	-0.358573	-0.372721	0.855865	-0.788164	0.612169	-0.063615	-0.500223	-0.697373	-0.513272
58663	12.674938	1.321754	-2.888327	-1.482068	-1.859236	0.072821	-0.368453	-0.385101	0.846132	-0.780451	0.622662	-0.056459	-0.505112	-0.681167	-0.529975
58664	11.984411	-0.473389	-2.952682	-1.676001	-1.782067	0.055196	-0.377862	-0.396718	0.836561	-0.771729	0.634149	-0.047849	-0.511522	-0.663679	-0.545780
58665	10.925164	-3.269152	-2.157286	-1.797871	-1.709992	-0.000479	-0.386632	-0.407929	0.827109	-0.762471	0.645914	-0.037853	-0.518800	-0.645282	-0.560765
58666	10.139353	-6.544080	-2.370025	-1.495588	-1.721119	-0.080693	-0.394910	-0.419392	0.817409	-0.754995	0.655105	-0.028639	-0.523477	-0.628449	-0.575346
58667	9.748023	-8.980890	-3.827351	-0.713439	-1.840846	-0.146354	-0.403390	-0.431824	0.806724	-0.751855	0.658919	-0.023247	-0.521527	-0.615917	-0.590470
58668	9.748619	-9.504511	-5.457915	0.212100	-1.911742	-0.226211	-0.411496	-0.444988	0.795398	-0.753877	0.656625	-0.022664	-0.512193	-0.608958	-0.605664
58669	9.529515	-7.318275	-6.428767	1.020586	-1.927926	-0.302240	-0.418895	-0.458699	0.783659	-0.760283	0.649051	-0.026491	-0.496484	-0.606900	-0.620626
58670	9.190342	-4.008535	-6.616242	1.505391	-1.906077	-0.339040	-0.425517	-0.472418	0.771853	-0.769048	0.638323	-0.033281	-0.476969	-0.607754	-0.634929
58671	8.507619	-1.590562	-6.731065	1.399697	-1.848545	-0.320188	-0.431650	-0.485697	0.760116	-0.776972	0.628278	-0.039767	-0.458250	-0.607754	-0.648569
58672	8.244488	-0.290693	-7.086498	1.274177	-1.772047	-0.207437	-0.437936	-0.497713	0.748661	-0.783609	0.619510	-0.046526	-0.440647	-0.607033	-0.661318
58673	8.354631	0.956649	-7.581648	1.054931	-1.630227	-0.075718	-0.444362	-0.508078	0.737834	-0.788517	0.612729	-0.052957	-0.425186	-0.605326	-0.672902
58674	8.368460	2.083517	-7.343489	0.716053	-1.331999	0.051822	-0.450298	-0.515770	0.728844	-0.791298	0.608658	-0.058164	-0.413618	-0.602924	-0.682205
58675	7.777110	2.988923	-7.055640	0.298808	-1.051425	0.238689	-0.456462	-0.520653	0.721500	-0.791449	0.608093	-0.061901	-0.406510	-0.599286	-0.689642
58676	7.058154	2.011542	-8.310776	-0.147557	-0.861813	0.442352	-0.463386	-0.523062	0.715317	-0.788827	0.611271	-0.064026	-0.403763	-0.593931	-0.695860
58677	5.402562	1.376987	-6.886301	-0.646548	-0.701266	0.569346	-0.470665	-0.523717	0.710067	-0.783560	0.618060	-0.063523	-0.405596	-0.586279	-0.701263
58678	6.359903	1.030365	-5.213634	-0.951552	-0.331553	0.682322	-0.477278	-0.521369	0.707375	-0.776450	0.627157	-0.061639	-0.411499	-0.578660	-0.704146
58679	7.824246	-0.056846	-4.640443	-0.821080	0.169716	0.821987	-0.482890	-0.515216	0.708075	-0.769104	0.636145	-0.061634	-0.418683	-0.574345	-0.703443
58680	8.297340	-1.963442	-5.016876	-0.572462	0.630645	0.944209	-0.487390	-0.505520	0.711969	-0.762116	0.644241	-0.064289	-0.426180	-0.573937	-0.699261
58681	9.236540	-2.662651	-5.346843	-0.212677	0.960352	1.059495	-0.491275	-0.493148	0.717951	-0.756027	0.650750	-0.070340	-0.432518	-0.577347	-0.692530
58682	9.938750	-1.896082	-5.801788	0.064247	1.218070	1.107230	-0.494249	-0.478810	0.725575	-0.750863	0.655748	-0.078745	-0.438090	-0.583726	-0.683623
58683	9.232322	-0.529350	-5.899218	-0.261331	1.404903	1.027981	-0.495684	-0.463818	0.734282	-0.744626	0.662120	-0.084431	-0.447022	-0.588617	-0.673573
58684	9.381771	-1.332369	-5.959041	-0.831897	1.531927	0.976527	-0.495892	-0.448240	0.743755	-0.736020	0.671467	-0.086061	-0.460831	-0.590096	-0.662889
58685	8.620611	-2.722393	-6.094666	-0.951557	1.697841	0.916472	-0.494607	-0.432032	0.754130	-0.727031	0.681117	-0.086630	-0.476224	-0.591124	-0.650986
58686	7.787582	-3.427709	-6.332296	-0.755088	1.816372	0.878638	-0.492110	-0.415211	0.765132	-0.719057	0.689304	-0.088415	-0.490698	-0.593683	-0.637774
58687	7.247138	-3.855657	-6.603053	-0.545938	1.849318	0.888038	-0.489235	-0.398064	0.776012	-0.711992	0.696165	-0.091769	-0.503702	-0.597411	-0.624007
58688	6.886011	-3.732647	-6.706525	-0.220914	1.882369	0.895011	-0.485934	-0.380467	0.786837	-0.706514	0.700966	-0.097383	-0.514495	-0.603234	-0.609429
58689	6.857450	-2.893505	-6.714737	-0.037940	1.912961	0.867011	-0.482073	-0.362788	0.797490	-0.702127	0.704419	-0.103979	-0.524044	-0.610065	-0.594305
58690	6.642488	-2.239292	-6.670542	-0.093811	1.973756	0.811443	-0.477246	-0.344908	0.808254	-0.697749	0.707857	-0.109932	-0.534212	-0.616423	-0.578482
58691	6.399730	-2.225974	-6.691841	-0.221959	2.030819	0.756066	-0.471507	-0.326988	0.818999	-0.692970	0.711772	-0.114773	-0.545412	-0.621658	-0.562199
58692	6.193348	-2.862842	-6.640873	-0.174140	2.073680	0.717579	-0.464980	-0.308875	0.829692	-0.688660	0.715133	-0.119715	-0.556364	-0.627041	-0.545233
58693	5.978456	-3.017307	-6.580313	0.067301	2.092207	0.693760	-0.457977	-0.290737	0.840076	-0.685841	0.716792	-0.125823	-0.565579	-0.633783	-0.527674
58694	5.792334	-2.814885	-6.656409	0.384942	2.112789	0.650013	-0.450353	-0.272550	0.850234	-0.685088	0.716159	-0.133307	-0.572570	-0.642520	-0.509245
58695	5.459660	-1.738720	-6.639506	0.573722	2.145374	0.598926	-0.442080	-0.254397	0.860144	-0.685720	0.714028	-0.141252	-0.578233	-0.652263	-0.490102
58696	5.193551	-0.566765	-6.423957	0.461169	2.180317	0.552067	-0.433136	-0.236097	0.869857	-0.685994	0.712347	-0.148238	-0.584641	-0.660924	-0.470504
58697	5.079208	-0.305577	-6.453391	0.207821	2.245478	0.512626	-0.423396	-0.217549	0.879436	-0.685025	0.712136	-0.153635	-0.592855	-0.667484	-0.450542
58698	4.695966	-0.747301	-6.437881	-0.037724	2.298684	0.485058	-0.412922	-0.198653	0.888838	-0.682777	0.713393	-0.157752	-0.602753	-0.672017	-0.430211
58699	4.561843	-1.080070	-6.377688	-0.135793	2.313445	0.451594	-0.401900	-0.179859	0.897846	-0.680113	0.715171	-0.161172	-0.613125	-0.675411	-0.409752
58700	4.581180	-1.126108	-6.233769	-0.203887	2.331355	0.419624	-0.390284	-0.161039	0.906501	-0.677194	0.717264	-0.164137	-0.623768	-0.677938	-0.388991
58701	4.525075	-1.082805	-5.990032	-0.281457	2.341350	0.382704	-0.378102	-0.142416	0.914744	-0.673953	0.719764	-0.166513	-0.634686	-0.679453	-0.368127
58702	4.449220	-1.290994	-5.679147	-0.357537	2.340158	0.330267	-0.365298	-0.124093	0.922582	-0.670438	0.722634	-0.168263	-0.645809	-0.680001	-0.347174
58703	4.386895	-1.788658	-5.597931	-0.295879	2.319097	0.261078	-0.351914	-0.106445	0.929960	-0.667575	0.724959	-0.169642	-0.656126	-0.680517	-0.326183
58704	4.475670	-2.217348	-5.583852	-0.017959	2.281809	0.182491	-0.338033	-0.089539	0.936865	-0.666827	0.725261	-0.171284	-0.664136	-0.682626	-0.304869
58705	5.054358	-2.125915	-5.336728	0.356608	2.256447	0.114113	-0.323716	-0.073278	0.943312	-0.668824	0.722925	-0.173362	-0.669240	-0.687030	-0.283032
58706	5.508645	-1.410466	-4.901149	0.692484	2.263556	0.034605	-0.308741	-0.057375	0.949414	-0.673356	0.718170	-0.175569	-0.671767	-0.693499	-0.260362
58707	5.859354	-0.738331	-4.530979	0.871679	2.270912	-0.062673	-0.293015	-0.042009	0.955184	-0.679400	0.712075	-0.177098	-0.672724	-0.700845	-0.237190
58708	6.243975	-0.554287	-4.255639	0.951331	2.270972	-0.156069	-0.276646	-0.027088	0.960590	-0.686241	0.705322	-0.177745	-0.672711	-0.708369	-0.213713
58709	6.541255	-0.892125	-4.047447	1.047722	2.265001	-0.250597	-0.259656	-0.012730	0.965617	-0.693950	0.697825	-0.177405	-0.671574	-0.716155	-0.190029
58710	6.759311	-0.781923	-3.986740	1.254781	2.225530	-0.337367	-0.242364	0.000990	0.970185	-0.703199	0.688770	-0.176371	-0.668409	-0.724979	-0.166237
58711	7.188822	-0.538512	-4.157729	1.364244	2.178957	-0.413026	-0.224887	0.014046	0.974284	-0.713246	0.678865	-0.174421	-0.663857	-0.734129	-0.142650
58712	7.553627	-0.459285	-4.065362	1.321353	2.148360	-0.481760	-0.207195	0.026681	0.977936	-0.723020	0.669215	-0.171444	-0.659024	-0.742589	-0.119367
58713	7.851331	-0.303699	-4.091073	1.307027	2.091596	-0.541420	-0.189489	0.038684	0.981121	-0.732665	0.659652	-0.167512	-0.653679	-0.750575	-0.096654
58714	8.218602	-0.211892	-3.927498	1.208128	2.043215	-0.593173	-0.171793	0.050219	0.983852	-0.741594	0.650817	-0.162712	-0.648479	-0.757572	-0.074563
58715	8.281304	0.155324	-3.497588	1.140175	1.988449	-0.636483	-0.154165	0.061215	0.986147	-0.749987	0.642518	-0.157131	-0.643236	-0.763822	-0.053144
58716	8.408133	0.826643	-3.117446	1.074691	1.917515	-0.643503	-0.137012	0.071815	0.987963	-0.757799	0.634721	-0.151230	-0.637941	-0.769397	-0.032543
58717	8.512191	1.099353	-3.055324	0.891114	1.858239	-0.622404	-0.120423	0.082206	0.989313	-0.764256	0.628346	-0.145240	-0.633570	-0.773578	-0.012841
58718	8.729452	1.121905	-2.805052	0.624129	1.791268	-0.564920	-0.104749	0.092550	0.990183	-0.768826	0.624020	-0.139658	-0.630820	-0.775908	0.005789
58719	9.092620	0.885095	-2.506040	0.367484	1.722693	-0.489394	-0.090084	0.102860	0.990608	-0.771608	0.621668	-0.134720	-0.629687	-0.776498	0.023365
58720	9.462903	0.588276	-2.220728	0.153810	1.642139	-0.407787	-0.076574	0.113068	0.990632	-0.772905	0.620933	-0.130616	-0.629885	-0.775666	0.039843
58721	9.532013	0.479883	-2.015657	0.075970	1.546569	-0.346480	-0.064111	0.122889	0.990347	-0.773615	0.620776	-0.127111	-0.630404	-0.774297	0.055270
58722	9.765547	0.404681	-1.274135	-0.051031	1.424534	-0.264501	-0.053057	0.132253	0.989795	-0.773435	0.621528	-0.124505	-0.631652	-0.772148	0.069312
58723	9.997430	0.400560	-0.803934	-0.214300	1.295660	-0.173711	-0.043477	0.141142	0.989034	-0.772150	0.623440	-0.122912	-0.633952	-0.769026	0.081877
58724	10.009906	-0.050367	-0.522372	-0.360187	1.121052	-0.097623	-0.035580	0.149118	0.988179	-0.769885	0.626366	-0.122240	-0.637190	-0.765133	0.092517
58725	10.121495	-0.346475	-0.008907	-0.454840	0.914099	-0.029285	-0.029475	0.155895	0.987334	-0.766974	0.629905	-0.122355	-0.641001	-0.760866	0.101000
58726	11.727169	-1.328371	3.540176	-1.350184	0.748701	0.083533	-0.025254	0.162069	0.986456	-0.758210	0.640002	-0.124559	-0.651521	-0.751087	0.106719
58727	10.869838	-1.788873	1.031424	-0.245559	0.195389	0.159215	-0.025148	0.164540	0.986050	-0.756553	0.641608	-0.126358	-0.653448	-0.749177	0.108348
58728	9.799299	-1.194087	0.461252	-0.787725	-0.468208	0.068170	-0.028715	0.161466	0.986460	-0.751349	0.647403	-0.127839	-0.659280	-0.744847	0.102728
58729	10.971187	0.810228	4.287984	-0.856328	-0.875803	0.043992	-0.034807	0.155232	0.987265	-0.745649	0.653718	-0.129076	-0.665429	-0.740646	0.092995
58730	14.883371	1.750748	5.988207	-0.374963	-0.822500	-0.052246	-0.039879	0.148788	0.988065	-0.743154	0.656594	-0.128867	-0.667931	-0.739423	0.084388
58731	17.346597	-0.394328	5.150038	0.354151	-0.721189	-0.219574	-0.043013	0.141988	0.988933	-0.745592	0.654311	-0.126373	-0.665014	-0.742776	0.077721
58732	12.539601	-2.965577	2.040187	1.618105	-0.754146	-0.219073	-0.046304	0.134910	0.989775	-0.756336	0.642524	-0.122961	-0.652543	-0.754296	0.072286
58733	8.983269	0.714399	1.872963	2.348557	-1.104449	-0.099211	-0.052613	0.125845	0.990654	-0.771481	0.624768	-0.120339	-0.634073	-0.770602	0.064216
58734	9.096327	3.352311	0.530769	2.037819	-1.490760	0.148658	-0.063064	0.115157	0.991343	-0.784134	0.608761	-0.120597	-0.617378	-0.784952	0.051908
58735	11.306998	2.333018	-2.634334	1.610097	-1.916493	0.425279	-0.078079	0.102548	0.991659	-0.793651	0.595586	-0.124078	-0.603342	-0.796719	0.034885
58736	14.526249	2.348459	-4.032026	0.917028	-1.823446	0.426029	-0.092353	0.090460	0.991609	-0.798770	0.587859	-0.128021	-0.594507	-0.803890	0.017966
58737	12.970419	1.451440	-4.534843	0.287057	-1.355385	0.375084	-0.103347	0.081733	0.991282	-0.800094	0.585246	-0.131669	-0.590905	-0.806726	0.004911
58738	10.285168	-0.719760	-5.694183	-0.070976	-1.053531	0.393762	-0.112678	0.075512	0.990758	-0.799240	0.585533	-0.135524	-0.590356	-0.807124	-0.005625
58739	7.916011	-2.419088	-6.644975	-0.481500	-0.834107	0.372364	-0.120546	0.070964	0.990168	-0.795946	0.589163	-0.139125	-0.593244	-0.804892	-0.014538
58740	7.956181	-3.205651	-6.219290	-0.918212	-0.601299	0.268756	-0.126232	0.067698	0.989688	-0.790127	0.596369	-0.141572	-0.599804	-0.799850	-0.021790
58741	9.723821	-4.199974	-4.747304	-1.281097	-0.324431	0.151592	-0.129347	0.066015	0.989400	-0.782178	0.606488	-0.142722	-0.609481	-0.792347	-0.026812
58742	10.018261	-6.880994	-4.249873	-1.027870	-0.216575	0.091102	-0.131362	0.064822	0.989213	-0.775743	0.614566	-0.143286	-0.617225	-0.786198	-0.030445
58743	9.972752	-7.629092	-3.857701	-0.006810	-0.357855	0.050665	-0.133925	0.062306	0.989031	-0.775625	0.614608	-0.143746	-0.616823	-0.786368	-0.033985
58744	11.146976	-4.551261	-2.687925	0.771080	-0.474218	0.003730	-0.136852	0.058550	0.988860	-0.780338	0.608546	-0.144026	-0.610199	-0.791355	-0.037592
58745	11.713442	-1.599087	-2.124142	1.015887	-0.462774	-0.042135	-0.139288	0.054605	0.988745	-0.786543	0.600519	-0.143968	-0.601622	-0.797744	-0.040696
58746	10.192413	-0.050635	-2.377014	1.011607	-0.431066	-0.058764	-0.141391	0.050764	0.988651	-0.792657	0.592471	-0.143782	-0.593046	-0.803991	-0.043532
58747	9.492939	1.189665	-1.838612	0.743447	-0.458949	-0.047860	-0.143679	0.046769	0.988519	-0.797101	0.586521	-0.143607	-0.586503	-0.808583	-0.046991
58748	9.340823	1.148644	-1.235490	0.714625	-0.434768	-0.017944	-0.146063	0.043097	0.988336	-0.801285	0.580759	-0.143744	-0.580180	-0.812934	-0.050295
58749	8.998248	0.859300	-0.685283	0.683515	-0.400091	0.051798	-0.148750	0.040124	0.988061	-0.805145	0.575187	-0.144570	-0.574121	-0.817037	-0.053253
58750	9.154786	0.577208	-0.295228	0.628439	-0.363754	0.130542	-0.151869	0.037848	0.987676	-0.808529	0.570015	-0.146166	-0.568522	-0.820762	-0.055966
58751	9.566970	0.352088	0.102251	0.474826	-0.345622	0.192673	-0.155348	0.036090	0.987200	-0.810915	0.566060	-0.148301	-0.564167	-0.823573	-0.058671
58752	9.743889	-0.268760	0.597253	0.198728	-0.344891	0.205275	-0.158940	0.034362	0.986690	-0.811701	0.564375	-0.150407	-0.562032	-0.824803	-0.061810
58753	9.587436	-1.468026	0.965258	-0.068876	-0.359006	0.178439	-0.162367	0.032399	0.986198	-0.811020	0.564904	-0.152084	-0.562035	-0.824520	-0.065446
58754	9.495400	-2.853760	1.075117	-0.163363	-0.399111	0.150458	-0.165812	0.029917	0.985703	-0.809845	0.566229	-0.153415	-0.562723	-0.823705	-0.069660
58755	9.412532	-3.715630	0.962979	-0.047299	-0.453213	0.125885	-0.169343	0.026886	0.985190	-0.809361	0.566603	-0.154582	-0.562368	-0.823552	-0.074189
58756	9.372859	-3.339742	0.642475	0.170264	-0.532933	0.104058	-0.173159	0.023045	0.984624	-0.810129	0.565198	-0.155700	-0.560096	-0.824633	-0.079200
58757	9.264390	-2.603762	0.308873	0.254186	-0.586840	0.069461	-0.176961	0.018582	0.984042	-0.811421	0.563106	-0.156552	-0.557029	-0.826176	-0.084570
58758	9.452686	-2.317021	-0.267971	0.345166	-0.634748	0.055621	-0.180920	0.013608	0.983404	-0.813228	0.560264	-0.157365	-0.553108	-0.828202	-0.090296
58759	9.614656	-2.173603	-0.751558	0.410526	-0.644090	0.042894	-0.184779	0.008496	0.982743	-0.815405	0.556875	-0.158129	-0.548608	-0.830553	-0.095971
58760	9.589032	-2.138736	-0.833103	0.464509	-0.648964	0.031712	-0.188565	0.003239	0.982055	-0.817875	0.553031	-0.158865	-0.543621	-0.833155	-0.101633
58761	9.581406	-2.098546	-0.796526	0.493479	-0.659845	0.022826	-0.192284	-0.002152	0.981337	-0.820496	0.548932	-0.159564	-0.538344	-0.835864	-0.107316
58762	9.658213	-1.804913	-0.847928	0.461244	-0.667951	0.018202	-0.195996	-0.007677	0.980575	-0.822924	0.545093	-0.160218	-0.533274	-0.838340	-0.113153
58763	9.914758	-1.423444	-1.334091	0.410219	-0.658527	0.028031	-0.199685	-0.013062	0.979773	-0.825042	0.541671	-0.160928	-0.528613	-0.840489	-0.118940
58764	9.895008	-0.844290	-1.698118	0.266564	-0.628505	0.032903	-0.203252	-0.018202	0.978957	-0.826372	0.539456	-0.161542	-0.525164	-0.841817	-0.124687
58765	9.865796	-0.592888	-1.849758	0.058919	-0.589389	0.027641	-0.206532	-0.023025	0.978169	-0.826620	0.538984	-0.161847	-0.523491	-0.842001	-0.130350
58766	9.879677	-0.766821	-1.859935	-0.111404	-0.545164	0.028573	-0.209604	-0.027491	0.977400	-0.825970	0.539951	-0.161943	-0.523296	-0.841247	-0.135883
58767	9.733187	-1.194239	-1.537465	-0.137576	-0.524903	0.034726	-0.212599	-0.031727	0.976624	-0.825173	0.541137	-0.162051	-0.523346	-0.840336	-0.141225
58768	9.770979	-1.172329	-1.132593	-0.141687	-0.527114	0.034804	-0.215627	-0.035999	0.975812	-0.824350	0.542360	-0.162150	-0.523404	-0.839375	-0.146623
58769	9.735329	-1.263260	-0.686758	-0.180346	-0.541691	0.043005	-0.218779	-0.040319	0.974941	-0.823309	0.543907	-0.162259	-0.523735	-0.838176	-0.152190
58770	9.565698	-1.380488	-0.405808	-0.204630	-0.555426	0.043752	-0.222030	-0.044765	0.974012	-0.822134	0.545660	-0.162330	-0.524213	-0.836810	-0.157956
58771	9.421565	-1.502155	-0.233333	-0.259711	-0.593238	0.050627	-0.225520	-0.049458	0.972982	-0.820654	0.547873	-0.162364	-0.525041	-0.835098	-0.164144
58772	9.515118	-1.637795	-0.116212	-0.238668	-0.638343	0.058723	-0.229334	-0.054493	0.971821	-0.819261	0.549915	-0.162497	-0.525564	-0.833441	-0.170758
58773	9.476870	-1.409024	-0.318148	-0.207336	-0.688360	0.065648	-0.233451	-0.059873	0.970523	-0.818016	0.551696	-0.162732	-0.525691	-0.831893	-0.177771
58774	9.344705	-0.937769	0.032277	-0.369613	-0.718856	0.075905	-0.237833	-0.065454	0.969098	-0.815886	0.554834	-0.162758	-0.527035	-0.829383	-0.185361
58775	9.528730	-1.339675	0.011202	-0.318805	-0.766588	0.080423	-0.242493	-0.071366	0.967525	-0.814008	0.557546	-0.162892	-0.527814	-0.827073	-0.193294
58776	9.312159	-1.178467	-0.451549	-0.419892	-0.802974	0.050961	-0.247127	-0.077738	0.965860	-0.811659	0.561069	-0.162515	-0.529280	-0.824111	-0.201752
58777	8.950316	-2.054168	-0.815045	-0.385245	-0.854583	0.026520	-0.251832	-0.084630	0.964064	-0.809549	0.564276	-0.161935	-0.530293	-0.821237	-0.210615
58778	9.121488	-2.642748	-1.399022	-0.290163	-0.904333	0.024338	-0.256799	-0.091934	0.962082	-0.807944	0.566694	-0.161505	-0.530359	-0.818783	-0.219804
58779	9.310191	-2.934217	-2.109147	-0.145038	-0.945603	0.008028	-0.261835	-0.099634	0.959956	-0.807153	0.567904	-0.161214	-0.529100	-0.817043	-0.229117
58780	9.521251	-2.587523	-2.754785	-0.092145	-0.951671	-0.014379	-0.266722	-0.107508	0.957759	-0.806700	0.568658	-0.160823	-0.527347	-0.815519	-0.238400
58781	9.867292	-2.217847	-3.197792	-0.131574	-0.936561	-0.040831	-0.271287	-0.115381	0.955558	-0.806115	0.569698	-0.160070	-0.525911	-0.813714	-0.247562
58782	10.275220	-1.575531	-3.494861	-0.209876	-0.905846	-0.072255	-0.275443	-0.123178	0.953393	-0.805206	0.571333	-0.158814	-0.525143	-0.811422	-0.256553
58783	10.258717	-0.515731	-3.037616	-0.365293	-0.866286	-0.100122	-0.279151	-0.130778	0.951300	-0.803563	0.574178	-0.156865	-0.525701	-0.808218	-0.265371
58784	9.688398	-0.616693	-2.283032	-0.538224	-0.854821	-0.126087	-0.282618	-0.138421	0.949193	-0.801079	0.578362	-0.154175	-0.527636	-0.803950	-0.274342
58785	9.531378	-0.452905	-1.471490	-0.545675	-0.890489	-0.120486	-0.286324	-0.146272	0.946902	-0.798536	0.582579	-0.151468	-0.529490	-0.799504	-0.283610
58786	9.380534	-0.150706	-0.351172	-0.588154	-0.940930	-0.115510	-0.290369	-0.154473	0.944364	-0.795746	0.587108	-0.148637	-0.531483	-0.794634	-0.293399
58787	9.163920	-0.323476	0.598028	-0.643228	-1.029069	-0.104772	-0.294980	-0.163252	0.941454	-0.792626	0.592047	-0.145685	-0.533602	-0.789195	-0.304040
58788	9.002596	-0.560630	1.430768	-0.707162	-1.143530	-0.096333	-0.300303	-0.172838	0.938054	-0.789129	0.597458	-0.142544	-0.535811	-0.783052	-0.315810
58789	8.934382	-0.719598	2.214606	-0.752144	-1.295433	-0.083615	-0.306562	-0.183453	0.934005	-0.785344	0.603184	-0.139293	-0.537823	-0.776217	-0.328987
58790	9.300112	-0.965268	2.611195	-0.818399	-1.457383	-0.060880	-0.313903	-0.195096	0.929195	-0.781123	0.609402	-0.135929	-0.539734	-0.768484	-0.343687
58791	10.214400	-0.500474	2.687635	-0.853186	-1.629865	-0.002538	-0.322655	-0.207582	0.923474	-0.776519	0.615927	-0.132860	-0.541213	-0.759963	-0.359923
58792	10.540185	0.688621	2.083209	-0.954195	-1.773418	0.027480	-0.332440	-0.220815	0.916910	-0.771258	0.623201	-0.129549	-0.542813	-0.750241	-0.377482
58793	11.365183	1.781102	1.100622	-1.142300	-1.906726	0.074988	-0.343352	-0.234554	0.909447	-0.764790	0.631884	-0.125770	-0.545165	-0.738720	-0.396343
58794	12.615495	2.173116	0.222991	-1.459180	-2.014961	0.105988	-0.355136	-0.248630	0.901145	-0.756437	0.642824	-0.120750	-0.549256	-0.724541	-0.416363
58795	14.567150	2.582195	-0.277546	-1.694729	-2.084490	0.104201	-0.367388	-0.262902	0.892137	-0.746708	0.655239	-0.114408	-0.554485	-0.708198	-0.437038
58796	16.498211	3.102531	-0.495209	-1.805642	-2.137235	0.075845	-0.379851	-0.277288	0.882510	-0.736249	0.668207	-0.106944	-0.560045	-0.690370	-0.457972
58797	17.414281	3.498532	0.166653	-1.948787	-2.180054	0.039875	-0.392381	-0.291876	0.872265	-0.725125	0.681591	-0.098118	-0.565890	-0.671000	-0.479090
58798	17.591777	3.278555	1.288438	-1.945101	-2.227424	0.078491	-0.405594	-0.305993	0.861314	-0.713636	0.694813	-0.089211	-0.571155	-0.650848	-0.500179
58799	16.630263	2.870082	2.054008	-1.964639	-2.272851	0.147010	-0.419634	-0.319537	0.849590	-0.701765	0.707858	-0.080389	-0.575702	-0.629947	-0.521281
58800	15.253646	1.097577	0.093600	-1.686150	-2.359701	0.249351	-0.434896	-0.332390	0.836889	-0.690981	0.719131	-0.073454	-0.577417	-0.610219	-0.542422
58801	14.059869	-0.515083	-1.969841	-1.503337	-2.399730	0.318882	-0.450903	-0.344517	0.823404	-0.680893	0.729243	-0.067744	-0.577123	-0.591197	-0.563397
58802	12.354518	-2.419605	-3.809115	-1.301769	-2.397886	0.346476	-0.466975	-0.355931	0.809474	-0.671808	0.738038	-0.063037	-0.574986	-0.573247	-0.583763
58803	10.860350	-3.972861	-5.748005	-1.176621	-2.378952	0.340713	-0.482855	-0.366856	0.795152	-0.663449	0.745912	-0.058740	-0.571564	-0.555906	-0.603558
58804	9.803371	-6.024530	-7.367894	-1.001886	-2.296371	0.336473	-0.498065	-0.376909	0.780942	-0.656100	0.752653	-0.055189	-0.566977	-0.539864	-0.622160
58805	9.590829	-7.284898	-7.876676	-0.748355	-2.253331	0.332346	-0.512907	-0.386425	0.766552	-0.650208	0.757906	-0.052993	-0.560496	-0.525599	-0.639992
58806	10.154686	-7.689260	-7.206568	-0.607847	-2.162991	0.278874	-0.526683	-0.395522	0.752441	-0.645380	0.762149	-0.051119	-0.553253	-0.512534	-0.656673
58807	10.097695	-7.298389	-7.042633	-0.279481	-2.030388	0.142734	-0.538713	-0.404758	0.738891	-0.643094	0.764135	-0.050283	-0.544260	-0.502264	-0.671947
58808	9.770737	-6.912960	-7.939178	0.173220	-1.850442	-0.039515	-0.548357	-0.414280	0.726413	-0.644251	0.763103	-0.051130	-0.533146	-0.496030	-0.685353
58809	8.558427	-5.984719	-8.286625	0.422758	-1.518364	-0.258219	-0.554668	-0.423777	0.716070	-0.647915	0.759926	-0.052144	-0.522063	-0.492875	-0.696078
58810	6.553174	-4.899005	-7.740494	0.604408	-1.170760	-0.409533	-0.557990	-0.432627	0.708153	-0.653328	0.755187	-0.053430	-0.511673	-0.492470	-0.704035
58811	4.876611	-4.092601	-7.292012	0.742985	-0.904460	-0.459053	-0.559528	-0.440565	0.702019	-0.659668	0.749512	-0.055403	-0.501764	-0.494099	-0.710000
58812	3.419202	-3.339081	-8.461908	1.087708	-0.779225	-0.414711	-0.560581	-0.447505	0.696770	-0.667398	0.742262	-0.060227	-0.490234	-0.498786	-0.714762
58813	1.622687	-2.413049	-8.438911	0.788192	-0.775186	-0.331054	-0.562093	-0.453851	0.691427	-0.673093	0.736823	-0.063539	-0.480622	-0.501110	-0.719647
58814	2.183681	-0.932606	-6.394896	0.325577	-0.652124	-0.244667	-0.563502	-0.458897	0.686934	-0.676039	0.734066	-0.064183	-0.474802	-0.500561	-0.723880
58815	4.588083	0.363706	-5.384796	0.335947	-0.277894	-0.164840	-0.563668	-0.461519	0.685039	-0.678567	0.731617	-0.065443	-0.470983	-0.501733	-0.725561
58816	6.012177	0.240278	-5.240261	0.207339	0.193441	-0.027525	-0.562517	-0.460729	0.686515	-0.679712	0.730437	-0.066736	-0.470709	-0.504173	-0.724046
58817	6.097748	-1.461891	-5.606690	0.368916	0.655714	0.132627	-0.560296	-0.456458	0.691169	-0.680717	0.729169	-0.070269	-0.471904	-0.509861	-0.719269
58818	5.598126	-2.702871	-6.174202	0.836277	0.937754	0.299220	-0.557859	-0.449432	0.697714	-0.683002	0.726206	-0.078310	-0.471489	-0.520226	-0.712084
58819	5.941983	-2.330328	-6.168088	1.083838	1.098041	0.408538	-0.555452	-0.440712	0.705157	-0.685842	0.722312	-0.088804	-0.470206	-0.532952	-0.703468
58820	6.543901	-1.107270	-5.844432	1.085513	1.252105	0.396972	-0.552243	-0.431075	0.713584	-0.688759	0.718174	-0.099183	-0.469722	-0.546260	-0.693513
58821	8.235799	-0.368555	-5.609684	0.795202	1.407028	0.304005	-0.547682	-0.421148	0.722965	-0.690841	0.715076	-0.106794	-0.471999	-0.557944	-0.682580
58822	9.487719	-0.746545	-5.499265	0.305077	1.625070	0.237446	-0.541542	-0.410288	0.733755	-0.691013	0.714336	-0.110567	-0.478783	-0.566911	-0.670357
58823	8.652925	-2.050469	-5.635093	0.036440	1.825616	0.237962	-0.534324	-0.398187	0.745617	-0.689918	0.715088	-0.112525	-0.488376	-0.574540	-0.656805
58824	7.631760	-3.398121	-6.004814	0.120103	1.905864	0.258323	-0.526651	-0.385283	0.757757	-0.689154	0.715395	-0.115227	-0.497701	-0.582895	-0.642283
58825	7.417997	-3.722319	-6.251336	0.329918	1.947491	0.266982	-0.518688	-0.371947	0.769817	-0.689422	0.714466	-0.119316	-0.505629	-0.592616	-0.627013
58826	6.956876	-3.060968	-6.486087	0.475276	1.985081	0.238729	-0.510173	-0.358343	0.781866	-0.690626	0.712486	-0.124093	-0.512601	-0.603286	-0.610972
58827	6.684033	-2.236215	-6.571983	0.399617	2.037287	0.183510	-0.500887	-0.344664	0.793926	-0.691769	0.710701	-0.127903	-0.520160	-0.613279	-0.594409
58828	6.541221	-2.167922	-6.627901	0.246393	2.091438	0.151891	-0.490914	-0.330634	0.806031	-0.692321	0.709683	-0.130547	-0.528863	-0.622119	-0.577297
58829	6.479649	-2.501318	-6.712461	0.222123	2.136160	0.137788	-0.480442	-0.316295	0.818006	-0.692842	0.708739	-0.132884	-0.537722	-0.630592	-0.559651
58830	6.291604	-2.490297	-6.722115	0.300833	2.172045	0.128819	-0.469513	-0.301556	0.829832	-0.693871	0.707219	-0.135588	-0.545986	-0.639457	-0.541289
58831	5.982013	-2.224783	-6.616090	0.419096	2.207311	0.105268	-0.458077	-0.286612	0.841439	-0.695692	0.704833	-0.138652	-0.553334	-0.648895	-0.522261
58832	5.636869	-1.687023	-6.450276	0.514010	2.251558	0.071404	-0.445991	-0.271354	0.852912	-0.698239	0.701664	-0.141878	-0.559959	-0.658813	-0.502406
58833	5.534190	-1.305789	-6.336100	0.563624	2.315719	0.038479	-0.433186	-0.255730	0.864264	-0.701248	0.698029	-0.144937	-0.566217	-0.668848	-0.481706
58834	5.373207	-0.809413	-6.106803	0.572833	2.385264	0.011716	-0.419640	-0.239543	0.875512	-0.704467	0.694193	-0.147724	-0.572388	-0.678760	-0.460061
58835	5.179982	-0.508402	-5.951670	0.518960	2.467022	-0.025295	-0.405225	-0.222875	0.886634	-0.707561	0.690595	-0.149786	-0.578921	-0.688045	-0.437544
58836	5.170020	-0.589764	-6.049833	0.515414	2.541117	-0.057927	-0.389974	-0.205644	0.897569	-0.710798	0.686898	-0.151450	-0.585394	-0.697052	-0.414044
58837	5.254305	-0.376180	-5.810729	0.507179	2.611628	-0.099919	-0.373855	-0.188028	0.908228	-0.714166	0.683153	-0.152542	-0.591777	-0.705654	-0.389683
58838	5.383645	-0.192041	-5.816549	0.514233	2.676588	-0.135820	-0.356917	-0.169925	0.918551	-0.717725	0.679259	-0.153225	-0.597897	-0.713956	-0.364399
58839	5.514976	-0.133753	-5.669782	0.435729	2.731792	-0.169843	-0.339238	-0.151488	0.928423	-0.720935	0.675869	-0.153144	-0.604293	-0.721285	-0.338493
58840	5.590853	-0.112891	-5.427430	0.353679	2.788337	-0.205341	-0.320770	-0.132647	0.937823	-0.723764	0.673017	-0.152361	-0.610961	-0.727635	-0.311888
58841	5.656475	-0.223714	-5.133388	0.306970	2.841951	-0.227075	-0.301628	-0.113429	0.946654	-0.726354	0.670508	-0.151094	-0.617601	-0.733180	-0.284634
58842	5.869843	-0.340762	-4.919299	0.316803	2.870953	-0.231326	-0.282086	-0.093833	0.954789	-0.728995	0.667942	-0.149734	-0.623694	-0.738274	-0.256821
58843	6.064423	-0.714846	-4.760046	0.403239	2.888911	-0.244835	-0.262170	-0.074077	0.962174	-0.732182	0.664763	-0.148323	-0.628630	-0.743373	-0.228519
58844	6.227123	-0.828130	-4.720618	0.628133	2.874888	-0.267584	-0.242057	-0.054373	0.968737	-0.736811	0.659910	-0.147066	-0.631283	-0.749375	-0.199799
58845	6.541953	-0.414549	-4.474331	0.811052	2.851547	-0.302567	-0.221770	-0.034912	0.974474	-0.742630	0.653686	-0.145588	-0.631917	-0.755961	-0.170895
58846	6.871879	0.234304	-4.146900	0.951050	2.829713	-0.347610	-0.201276	-0.015668	0.979409	-0.749365	0.646385	-0.143660	-0.630824	-0.762851	-0.141842
58847	7.262827	0.872019	-4.116344	0.984209	2.808721	-0.395385	-0.180571	0.003296	0.983557	-0.756312	0.638837	-0.140992	-0.628797	-0.769335	-0.112863
58848	7.798703	1.291322	-3.689766	0.762280	2.795760	-0.422514	-0.159764	0.022191	0.986906	-0.761814	0.633022	-0.137559	-0.627786	-0.773816	-0.084229
58849	8.334165	1.142450	-3.315521	0.574896	2.767904	-0.425648	-0.139100	0.040949	0.989431	-0.766050	0.628719	-0.133716	-0.627550	-0.776554	-0.056086
58850	8.938871	0.910100	-3.066039	0.430915	2.708551	-0.415445	-0.118876	0.059399	0.991131	-0.769282	0.625594	-0.129760	-0.627753	-0.777884	-0.028673
58851	9.344696	0.463276	-2.738170	0.300801	2.632196	-0.420148	-0.099069	0.077239	0.992078	-0.771619	0.623562	-0.125601	-0.628323	-0.777949	-0.002177
58852	9.633014	-0.012668	-2.514716	0.278802	2.518334	-0.427664	-0.079905	0.094161	0.992345	-0.773743	0.621778	-0.121302	-0.628440	-0.777512	0.023173
58853	9.812594	0.081062	-1.837910	0.303325	2.373237	-0.425831	-0.061660	0.109950	0.992023	-0.775938	0.619877	-0.116933	-0.627789	-0.776958	0.047092
58854	10.011153	0.324063	-1.125724	0.263349	2.179018	-0.414395	-0.044738	0.124299	0.991236	-0.777798	0.618338	-0.112643	-0.626920	-0.776021	0.069016
58855	9.924116	0.537217	-0.459106	0.151971	1.947841	-0.400086	-0.029378	0.136913	0.990147	-0.778886	0.617705	-0.108523	-0.626478	-0.774400	0.088492
58856	9.566844	0.782342	0.115055	0.104546	1.666607	-0.372979	-0.016001	0.147492	0.988934	-0.779611	0.617449	-0.104702	-0.626059	-0.772659	0.105106
58857	10.527197	0.975561	3.285342	-0.411858	1.368934	-0.270391	-0.005265	0.156349	0.987688	-0.777041	0.621057	-0.102454	-0.629429	-0.768013	0.118220
58858	10.285788	-0.873989	1.193814	0.003445	0.911003	-0.092075	0.001221	0.162756	0.986666	-0.777050	0.621200	-0.101509	-0.629438	-0.766564	0.127228
58859	9.395201	0.711953	0.323409	-0.091301	0.122850	-0.040013	0.002343	0.163435	0.986551	-0.776459	0.621989	-0.101196	-0.630163	-0.765780	0.128358
58860	8.031963	1.729292	-0.324035	-0.362343	-0.534535	0.062051	-0.001477	0.159720	0.987161	-0.774156	0.624685	-0.102230	-0.632993	-0.764368	0.122725
58861	6.884509	2.787597	-1.557807	-0.675183	-1.174100	0.177312	-0.010270	0.151857	0.988349	-0.769840	0.629585	-0.104734	-0.638154	-0.761946	0.110440
58862	9.278421	5.341122	0.562956	-1.017452	-1.636484	0.303378	-0.023063	0.141324	0.989695	-0.763244	0.636896	-0.108731	-0.645699	-0.757886	0.093176
58863	14.518656	4.906676	4.565738	-1.808068	-1.517516	0.170725	-0.034218	0.130979	0.990794	-0.751385	0.650304	-0.111917	-0.658976	-0.748298	0.076163
58864	16.767555	-3.373144	4.747231	-1.550498	-1.191286	0.169014	-0.043348	0.123200	0.991435	-0.741002	0.661649	-0.114618	-0.670103	-0.739623	0.062610
58865	13.593125	-6.974751	2.724350	0.040951	-1.284497	0.192467	-0.053339	0.114945	0.991939	-0.741169	0.661138	-0.116466	-0.669196	-0.741407	0.049929
58866	9.097014	-4.606763	-2.302020	1.621992	-1.913648	0.421166	-0.069116	0.103376	0.992238	-0.751646	0.648572	-0.119928	-0.655936	-0.754100	0.032875
58867	9.912516	-2.055363	-9.008313	2.639318	-2.484956	0.741613	-0.090742	0.089114	0.991879	-0.768064	0.627721	-0.126663	-0.633911	-0.773321	0.011485
58868	12.458155	0.721062	-9.093267	2.251239	-2.229288	0.729671	-0.110271	0.076192	0.990977	-0.781371	0.609552	-0.133813	-0.614248	-0.789076	-0.007682
58869	12.775649	3.116524	-7.667911	1.756828	-1.706379	0.693473	-0.126033	0.066790	0.989775	-0.791195	0.595111	-0.140905	-0.598437	-0.800864	-0.022159
58870	10.257623	2.385964	-8.377556	0.233004	-1.322522	0.686855	-0.139325	0.060230	0.988413	-0.791663	0.592831	-0.147717	-0.594859	-0.803071	-0.034914
58871	8.909288	0.582920	-8.649324	-1.353526	-1.029098	0.577587	-0.150003	0.055446	0.987130	-0.782706	0.603337	-0.152828	-0.604046	-0.795556	-0.047104
58872	9.624829	-1.310515	-6.662701	-2.453325	-0.599324	0.339698	-0.156280	0.052757	0.986303	-0.767132	0.622519	-0.154851	-0.622161	-0.780825	-0.056816
58873	10.616144	-5.297255	-5.415702	-2.792234	-0.339182	0.227591	-0.160114	0.051565	0.985751	-0.749102	0.643979	-0.155362	-0.642814	-0.763303	-0.064483
58874	10.519984	-9.109903	-5.564138	-1.919765	-0.260128	0.223109	-0.163440	0.050994	0.985235	-0.736254	0.658427	-0.156215	-0.656671	-0.750915	-0.070069
58875	10.465052	-8.605254	-4.879618	-0.529567	-0.396196	0.157637	-0.167169	0.049051	0.984707	-0.732499	0.662335	-0.157345	-0.659924	-0.747600	-0.074792
58876	10.812230	-6.044003	-3.431827	0.709280	-0.554925	0.094008	-0.171497	0.045456	0.984136	-0.736985	0.656996	-0.158774	-0.653790	-0.752523	-0.079172
58877	10.883760	-1.760311	-2.195108	1.284359	-0.594793	0.033324	-0.175564	0.041156	0.983607	-0.745249	0.647280	-0.160103	-0.643259	-0.761140	-0.082967
58878	10.200203	0.316539	-1.540864	1.098714	-0.544680	0.009691	-0.179112	0.037001	0.983133	-0.752236	0.638898	-0.161091	-0.634082	-0.768401	-0.086601
58879	9.267068	1.057045	-0.940027	0.740980	-0.490912	0.067107	-0.182678	0.033629	0.982598	-0.756781	0.633182	-0.162366	-0.627623	-0.773272	-0.090218
58880	9.217450	0.412060	-0.729120	0.415431	-0.476036	0.129976	-0.186635	0.030709	0.981949	-0.759128	0.629948	-0.163985	-0.623612	-0.776030	-0.094258
58881	9.198172	-1.050414	-0.749799	0.173188	-0.466749	0.176967	-0.190847	0.028184	0.981215	-0.759865	0.628570	-0.165849	-0.621436	-0.777243	-0.098545
58882	9.326029	-2.270175	-0.773710	0.253943	-0.511840	0.197905	-0.195517	0.025389	0.980372	-0.761045	0.626567	-0.168002	-0.618534	-0.778954	-0.103182
58883	9.600076	-2.797313	-0.813024	0.242504	-0.540699	0.182224	-0.200204	0.022299	0.979500	-0.762174	0.624651	-0.170004	-0.615637	-0.780585	-0.108062
58884	9.906270	-3.372131	-1.154892	0.231452	-0.548057	0.143321	-0.204655	0.018858	0.978652	-0.763294	0.622839	-0.171621	-0.612779	-0.782123	-0.113073
58885	9.911777	-3.602588	-1.899728	0.259679	-0.544165	0.078568	-0.208544	0.015072	0.977897	-0.764713	0.620811	-0.172650	-0.609691	-0.783815	-0.117941
58886	9.885867	-3.102287	-2.564665	0.247818	-0.505688	0.018926	-0.211759	0.011171	0.977258	-0.766169	0.618889	-0.173094	-0.606748	-0.785399	-0.122497
58887	9.794092	-2.447987	-2.705678	0.148422	-0.433329	-0.030453	-0.214113	0.007564	0.976780	-0.767127	0.617744	-0.172940	-0.604708	-0.786343	-0.126465
58888	9.583410	-1.978007	-2.568147	0.094782	-0.383239	-0.052390	-0.216023	0.004174	0.976379	-0.767801	0.617026	-0.172513	-0.603172	-0.786932	-0.130086
58889	9.523981	-1.773547	-2.209998	0.026006	-0.337562	-0.061905	-0.217544	0.001123	0.976050	-0.768086	0.616841	-0.171902	-0.602261	-0.787087	-0.133328
58890	9.498985	-1.575013	-1.672002	0.052895	-0.309305	-0.057838	-0.218959	-0.001721	0.975733	-0.768519	0.616449	-0.171372	-0.601194	-0.787393	-0.136300
58891	9.489453	-1.322157	-0.878539	0.090450	-0.301432	-0.044838	-0.220387	-0.004385	0.975403	-0.769156	0.615753	-0.171018	-0.599858	-0.787927	-0.139077
58892	9.650638	-1.235181	-0.244369	0.120127	-0.329709	-0.009620	-0.222286	-0.007095	0.974956	-0.769886	0.614830	-0.171056	-0.598218	-0.788628	-0.142130
58893	9.850519	-1.408406	0.044498	0.157293	-0.381192	0.015867	-0.224647	-0.010019	0.974389	-0.770784	0.613608	-0.171396	-0.596176	-0.789547	-0.145568
58894	9.741914	-1.327128	0.354914	0.148110	-0.436465	0.011069	-0.227325	-0.013449	0.973726	-0.771630	0.612463	-0.171684	-0.594063	-0.790385	-0.149606
58895	9.728135	-1.429380	0.381852	0.062460	-0.490397	0.014891	-0.230312	-0.017248	0.972964	-0.771962	0.611990	-0.171883	-0.592479	-0.790678	-0.154263
58896	9.740260	-1.578167	0.182550	0.004429	-0.544030	0.020930	-0.233686	-0.021469	0.972075	-0.771930	0.611982	-0.172055	-0.591198	-0.790580	-0.159584
58897	9.726138	-1.464465	-0.039658	-0.097118	-0.591740	0.011012	-0.237230	-0.026091	0.971103	-0.771325	0.612769	-0.171963	-0.590576	-0.789831	-0.165492
58898	9.787550	-1.023125	-0.179532	-0.217432	-0.610949	-0.004549	-0.240795	-0.030985	0.970081	-0.770042	0.614506	-0.171513	-0.590807	-0.788303	-0.171830
58899	9.633309	-0.816726	-0.478334	-0.359469	-0.649280	-0.036811	-0.244314	-0.036335	0.969015	-0.768001	0.617340	-0.170485	-0.592017	-0.785857	-0.178731
58900	10.643170	0.801419	-1.083520	-0.325797	-0.624587	-0.118364	-0.247095	-0.042013	0.968080	-0.766353	0.619872	-0.168704	-0.592998	-0.783577	-0.185365
58901	5.986715	5.503714	0.790329	-1.405886	-0.429877	0.026393	-0.249829	-0.045211	0.967234	-0.757878	0.630853	-0.166266	-0.602666	-0.774584	-0.191870
58902	12.989661	-6.284293	-1.881902	-2.161599	-0.885469	0.020513	-0.255364	-0.051924	0.965450	-0.744639	0.647476	-0.162136	-0.616686	-0.760315	-0.204006
58903	9.029439	-7.560365	-1.216781	-0.386193	-0.595082	0.023242	-0.259173	-0.056304	0.964188	-0.742191	0.650435	-0.161518	-0.618047	-0.757473	-0.210364
58904	7.951663	-6.763018	-2.419494	0.710124	-0.868528	0.016777	-0.264620	-0.062834	0.962303	-0.746501	0.645071	-0.163157	-0.610502	-0.761535	-0.217605
58905	8.548875	-0.849524	-2.318022	1.358300	-0.998741	-0.031206	-0.270383	-0.070694	0.960154	-0.754786	0.634666	-0.165821	-0.597655	-0.769546	-0.224962
58906	8.959331	0.732906	-3.191430	0.673565	-0.918512	-0.070679	-0.275292	-0.078265	0.958170	-0.758972	0.629437	-0.166647	-0.590065	-0.773100	-0.232680
58907	8.419120	-0.543796	-3.581060	0.147601	-0.824054	-0.081854	-0.279482	-0.085166	0.956366	-0.760064	0.628243	-0.166170	-0.586679	-0.773341	-0.240314
58908	8.860666	-2.003740	-3.917486	0.022095	-0.772939	-0.070263	-0.283462	-0.091624	0.954596	-0.760385	0.628029	-0.165512	-0.584350	-0.772777	-0.247692
58909	9.074811	-2.995204	-4.057095	-0.009534	-0.691033	-0.073640	-0.286897	-0.097438	0.952993	-0.760536	0.628048	-0.164743	-0.582473	-0.772050	-0.254290
58910	9.411191	-3.075587	-3.846429	0.076692	-0.645130	-0.080796	-0.290023	-0.102969	0.951464	-0.761209	0.627393	-0.164132	-0.580042	-0.771865	-0.260339
58911	9.433898	-2.085521	-3.331679	0.084186	-0.621574	-0.103899	-0.292792	-0.108431	0.950008	-0.761996	0.626647	-0.163323	-0.577611	-0.771723	-0.266102
58912	9.587265	-1.075844	-2.835901	-0.080780	-0.594033	-0.122357	-0.295281	-0.113822	0.948606	-0.761884	0.627152	-0.161907	-0.576492	-0.770535	-0.271905
58913	9.280510	-0.929684	-2.233027	-0.258080	-0.557315	-0.137369	-0.297412	-0.118987	0.947306	-0.760800	0.628991	-0.159853	-0.576827	-0.768253	-0.277595
58914	9.078786	-1.157525	-1.564303	-0.328058	-0.569241	-0.140797	-0.299619	-0.124283	0.945929	-0.759321	0.631353	-0.157560	-0.577633	-0.765472	-0.283536
58915	9.080825	-1.784066	-0.819723	-0.291896	-0.628686	-0.151287	-0.302067	-0.130058	0.944373	-0.758088	0.633404	-0.155251	-0.577978	-0.762814	-0.289926
58916	9.494675	-2.020089	-0.262559	-0.080408	-0.716149	-0.164764	-0.304942	-0.136600	0.942524	-0.758118	0.633813	-0.153421	-0.576427	-0.761329	-0.296835
58917	10.111786	-1.293748	0.377268	0.043902	-0.815476	-0.170478	-0.308301	-0.143900	0.940342	-0.758892	0.633252	-0.151905	-0.573615	-0.760450	-0.304437
58918	10.619866	-0.622479	1.303186	-0.007024	-0.920473	-0.163667	-0.312313	-0.151967	0.937746	-0.759355	0.633078	-0.150307	-0.570825	-0.759024	-0.313115
58919	11.084651	0.129799	1.957828	-0.107151	-1.038147	-0.152528	-0.317032	-0.160815	0.934682	-0.759223	0.633664	-0.148495	-0.568393	-0.756709	-0.322986
58920	11.071820	0.744617	2.723595	-0.364766	-1.156894	-0.154226	-0.322413	-0.170556	0.931107	-0.757641	0.636174	-0.145815	-0.567476	-0.752458	-0.334331
58921	10.579104	1.175162	3.263585	-0.531347	-1.303349	-0.149305	-0.328642	-0.181294	0.926891	-0.755112	0.639905	-0.142574	-0.567274	-0.746762	-0.347197
58922	10.187190	1.351494	3.796679	-0.718755	-1.517740	-0.111206	-0.336389	-0.193313	0.921669	-0.751401	0.645049	-0.138951	-0.567661	-0.739284	-0.362243
58923	10.195345	1.319111	3.883606	-0.866646	-1.684390	-0.082365	-0.345304	-0.206239	0.915549	-0.746759	0.651262	-0.134939	-0.568433	-0.730290	-0.378894
58924	10.258905	1.533939	4.012070	-0.995999	-1.897135	-0.047879	-0.355701	-0.220328	0.908258	-0.741261	0.658392	-0.130585	-0.569218	-0.719705	-0.397511
58925	10.727880	1.285555	3.631535	-1.088835	-2.092387	-0.003686	-0.367554	-0.235303	0.899742	-0.735074	0.666163	-0.126069	-0.569710	-0.707715	-0.417816
58926	11.844622	1.287607	2.729279	-1.091392	-2.280116	0.047142	-0.380837	-0.250993	0.889925	-0.728684	0.673940	-0.121758	-0.569195	-0.694844	-0.439556
58927	13.455600	2.276130	1.958726	-1.150498	-2.460229	0.064276	-0.395257	-0.267496	0.878759	-0.721894	0.682025	-0.117091	-0.568015	-0.680652	-0.462679
58928	14.926814	3.738561	1.852772	-1.355819	-2.589916	0.034959	-0.410155	-0.284683	0.866446	-0.714059	0.691245	-0.110900	-0.567355	-0.664180	-0.486798
58929	16.215266	4.590012	2.019412	-1.605334	-2.682027	0.022299	-0.425499	-0.302105	0.853043	-0.704859	0.701825	-0.103033	-0.567560	-0.645116	-0.511567
58930	16.724767	5.045484	2.658636	-2.015821	-2.728599	0.059772	-0.441367	-0.318983	0.838716	-0.693139	0.714792	-0.092906	-0.569872	-0.622353	-0.536585
58931	16.895138	3.870995	2.901168	-2.451256	-2.758472	0.113605	-0.457895	-0.334983	0.823480	-0.678607	0.730094	-0.080344	-0.574304	-0.595608	-0.561628
58932	16.638853	0.699253	1.277332	-2.526979	-2.774344	0.176266	-0.474987	-0.349821	0.807473	-0.663223	0.745398	-0.067205	-0.578379	-0.567456	-0.586064
58933	15.077025	-4.334781	-1.933212	-2.210632	-2.805964	0.225348	-0.492678	-0.363699	0.790564	-0.649340	0.758452	-0.055742	-0.579332	-0.540808	-0.609837
58934	12.865873	-8.569316	-6.086431	-1.427435	-2.871230	0.174947	-0.510281	-0.377581	0.772687	-0.640234	0.766669	-0.048169	-0.574207	-0.519280	-0.632957
58935	11.278958	-9.594830	-9.163280	-0.517571	-2.954734	0.085525	-0.527586	-0.392065	0.753617	-0.636856	0.769643	-0.045442	-0.562200	-0.503920	-0.655741
58936	10.732026	-8.796269	-10.676518	0.016856	-2.947643	0.000377	-0.543849	-0.406736	0.734026	-0.636954	0.769558	-0.045503	-0.546368	-0.492288	-0.677595
58937	11.455736	-7.459230	-9.894520	-0.072742	-2.811265	-0.145523	-0.558040	-0.421548	0.714765	-0.637373	0.769304	-0.043904	-0.531364	-0.480072	-0.697985
58938	11.662649	-7.491847	-8.713793	-0.074384	-2.497276	-0.332607	-0.568948	-0.435941	0.697319	-0.638867	0.768225	-0.040988	-0.517829	-0.468814	-0.715588
58939	10.988093	-7.624505	-7.800455	0.131710	-2.146982	-0.547535	-0.576386	-0.450136	0.682024	-0.642686	0.765181	-0.038121	-0.504712	-0.460300	-0.730336
58940	9.487519	-7.230839	-7.576120	0.580942	-1.853135	-0.700407	-0.581013	-0.463951	0.668710	-0.649642	0.759308	-0.037638	-0.490295	-0.456291	-0.742570
58941	8.041999	-6.411530	-7.675576	0.958011	-1.480426	-0.894733	-0.582274	-0.477487	0.658000	-0.659484	0.750716	-0.038819	-0.475435	-0.456544	-0.752017
58942	6.533700	-5.906584	-7.920197	1.268499	-1.110341	-1.044815	-0.580454	-0.490344	0.650105	-0.671509	0.739831	-0.041546	-0.460596	-0.460667	-0.758708
58943	4.177965	-5.013529	-9.923729	1.866961	-1.005313	-1.125355	-0.577318	-0.503287	0.642967	-0.686463	0.725549	-0.048445	-0.442122	-0.469341	-0.764360
58944	2.795215	-3.425929	-9.525892	1.816674	-1.121718	-1.085393	-0.574585	-0.516368	0.634993	-0.700590	0.711407	-0.055435	-0.423114	-0.476722	-0.770526
58945	3.200303	-1.081625	-8.216030	1.673746	-1.045291	-0.981911	-0.571941	-0.528326	0.627499	-0.713165	0.698237	-0.062139	-0.405313	-0.483050	-0.776134
58946	4.106476	0.737250	-7.426536	1.545263	-0.737734	-0.831578	-0.568844	-0.537649	0.622374	-0.724071	0.686271	-0.068946	-0.390048	-0.489863	-0.779677
58947	5.301693	1.993215	-6.727828	1.096351	-0.307964	-0.682043	-0.565031	-0.543836	0.620469	-0.732174	0.677171	-0.073220	-0.380344	-0.495663	-0.780805
58948	5.875589	1.734300	-6.473159	0.525036	0.185337	-0.514777	-0.560491	-0.546365	0.622363	-0.737078	0.671734	-0.074095	-0.377579	-0.500259	-0.779214
58949	5.620039	-0.055419	-6.423806	0.347195	0.609514	-0.286241	-0.556040	-0.545235	0.627326	-0.740001	0.668416	-0.074963	-0.378442	-0.505904	-0.775140
58950	5.965336	-1.902117	-6.582304	0.647106	0.922325	-0.041773	-0.552180	-0.540783	0.634547	-0.742699	0.664869	-0.079670	-0.378807	-0.515270	-0.768767
58951	6.299540	-2.394273	-6.694281	1.091331	1.177659	0.063842	-0.548171	-0.534231	0.643511	-0.746486	0.659506	-0.088379	-0.377184	-0.528819	-0.760318
58952	6.429080	-1.528529	-6.844120	1.318811	1.361977	0.031380	-0.543227	-0.526690	0.653836	-0.751290	0.652577	-0.098519	-0.374789	-0.544740	-0.750194
58953	7.018517	-0.464906	-6.686561	0.986690	1.481404	-0.046623	-0.537285	-0.518836	0.664932	-0.755255	0.646881	-0.105518	-0.375385	-0.558887	-0.739413
58954	7.460979	-0.160526	-6.611402	0.491045	1.650971	-0.099818	-0.530231	-0.510129	0.677217	-0.757662	0.643578	-0.108426	-0.380531	-0.570592	-0.727750
58955	7.230502	-0.992756	-6.701526	-0.079716	1.776011	-0.089570	-0.522671	-0.500514	0.690146	-0.757837	0.643578	-0.107195	-0.390510	-0.579046	-0.715687
58956	6.642833	-2.476264	-6.707090	-0.303082	1.869413	-0.031402	-0.514959	-0.489793	0.703505	-0.756814	0.645174	-0.104799	-0.402553	-0.586390	-0.702921
58957	6.127374	-3.427506	-6.757755	-0.250502	1.930714	0.035626	-0.507308	-0.478184	0.716923	-0.755619	0.646820	-0.103265	-0.414340	-0.594108	-0.689462
58958	5.815973	-3.737724	-7.021403	-0.019464	1.985311	0.072282	-0.499467	-0.465797	0.730456	-0.755189	0.647264	-0.103631	-0.424526	-0.603393	-0.675051
58959	5.620468	-3.739684	-7.314816	0.171194	2.035830	0.083247	-0.491328	-0.452885	0.743971	-0.755520	0.646601	-0.105344	-0.433343	-0.613843	-0.659856
58960	5.546183	-3.707882	-7.524236	0.326783	2.083910	0.089989	-0.482840	-0.439358	0.757516	-0.756525	0.644964	-0.108130	-0.441063	-0.625289	-0.643799
58961	5.381227	-3.487667	-7.618830	0.547431	2.123252	0.125260	-0.474324	-0.425156	0.770882	-0.758364	0.642046	-0.112521	-0.447102	-0.637981	-0.626961
58962	5.259625	-3.155815	-7.669095	0.683562	2.189491	0.138745	-0.465478	-0.410114	0.784307	-0.760799	0.638205	-0.117809	-0.452233	-0.651537	-0.609085
58963	5.122437	-2.795264	-7.816631	0.823625	2.251384	0.134815	-0.456242	-0.394443	0.797658	-0.763927	0.633322	-0.123770	-0.456354	-0.665822	-0.590273
58964	5.094404	-2.258412	-7.666709	0.848952	2.338407	0.111377	-0.446324	-0.377965	0.811134	-0.767328	0.628026	-0.129578	-0.460437	-0.680240	-0.570326
58965	5.006923	-1.688737	-7.364023	0.814271	2.460849	0.099671	-0.435667	-0.360441	0.824789	-0.770663	0.622799	-0.134907	-0.465051	-0.694409	-0.549112
58966	4.761344	-0.948058	-6.955470	0.759472	2.592767	0.088175	-0.424172	-0.341673	0.838652	-0.773847	0.617771	-0.139711	-0.470360	-0.708250	-0.526444
58967	4.642501	-0.571386	-6.746805	0.523009	2.717109	0.081515	-0.411887	-0.321774	0.852532	-0.775991	0.614309	-0.143047	-0.477689	-0.720476	-0.502720
58968	4.408016	-0.527762	-6.594632	0.282340	2.834149	0.088667	-0.398859	-0.300625	0.866335	-0.777002	0.612528	-0.145178	-0.487010	-0.731050	-0.477898
58969	4.106470	-0.321385	-6.597056	0.062345	2.928647	0.117915	-0.385313	-0.278376	0.879796	-0.776851	0.612417	-0.146454	-0.498032	-0.739901	-0.452229
58970	4.072439	-0.454747	-6.613958	-0.158319	3.004105	0.156844	-0.371336	-0.255047	0.892783	-0.775466	0.614007	-0.147133	-0.510649	-0.746958	-0.425783
58971	4.151158	-0.865733	-6.700532	-0.305806	3.069740	0.188163	-0.356871	-0.230886	0.905171	-0.773200	0.616765	-0.147519	-0.524218	-0.752524	-0.398627
58972	4.120249	-1.248561	-6.665122	-0.337905	3.113337	0.224903	-0.342035	-0.205964	0.916837	-0.770624	0.619806	-0.148252	-0.537727	-0.757245	-0.370716
58973	4.236880	-1.562322	-6.665360	-0.259892	3.152416	0.255917	-0.326817	-0.180444	0.927702	-0.768355	0.622284	-0.149643	-0.550292	-0.761710	-0.342018
58974	4.354331	-1.687754	-6.694787	-0.057386	3.180643	0.282877	-0.311281	-0.154351	0.937699	-0.767135	0.623198	-0.152079	-0.560899	-0.766682	-0.312398
58975	4.564863	-1.601368	-6.621780	0.146186	3.227937	0.308255	-0.295362	-0.127606	0.946825	-0.767025	0.622520	-0.155375	-0.569591	-0.772131	-0.281746
58976	4.712575	-1.241524	-6.428751	0.327062	3.291459	0.333726	-0.279030	-0.100001	0.955061	-0.767941	0.620369	-0.159404	-0.576549	-0.777909	-0.249897
58977	4.855737	-1.258667	-6.337780	0.443603	3.364281	0.359509	-0.262262	-0.071522	0.962343	-0.769535	0.617228	-0.163845	-0.582266	-0.783527	-0.216914
58978	5.162842	-1.229201	-6.452711	0.585814	3.402291	0.374736	-0.245245	-0.042448	0.968531	-0.772005	0.612842	-0.168622	-0.586399	-0.789065	-0.183066
58979	5.729958	-0.645088	-6.320635	0.625620	3.423112	0.365127	-0.227900	-0.013138	0.973596	-0.774816	0.608009	-0.173165	-0.589680	-0.793822	-0.148744
58980	6.344473	0.292036	-5.847079	0.481355	3.464620	0.351774	-0.210112	0.016558	0.977537	-0.776888	0.604185	-0.177218	-0.593548	-0.796672	-0.114083
58981	6.803463	0.803948	-5.645802	0.082672	3.523641	0.329722	-0.191605	0.046600	0.980365	-0.776713	0.603442	-0.180486	-0.600004	-0.796044	-0.079428
58982	7.014766	0.872518	-5.519508	-0.472095	3.555984	0.306999	-0.172450	0.076678	0.982029	-0.773289	0.607014	-0.183190	-0.610152	-0.790983	-0.045385
58983	7.281913	0.168172	-5.540867	-0.983954	3.523394	0.305566	-0.153030	0.106241	0.982494	-0.766713	0.614495	-0.185869	-0.623484	-0.781735	-0.012579
58984	7.802893	-0.597717	-5.281309	-1.378006	3.415439	0.322514	-0.133915	0.134717	0.981793	-0.757540	0.624811	-0.189061	-0.638905	-0.769066	0.018382
58985	8.672629	-1.254068	-4.651466	-1.634889	3.254803	0.332002	-0.115311	0.161585	0.980099	-0.746536	0.636793	-0.192817	-0.655277	-0.753913	0.047200
58986	9.596726	-1.840414	-3.652745	-1.768767	3.038256	0.318064	-0.097499	0.186269	0.977649	-0.734447	0.649450	-0.196983	-0.671626	-0.737237	0.073484
58987	10.024018	-2.524482	-2.510631	-1.764941	2.781102	0.225978	-0.080214	0.208003	0.974834	-0.722243	0.661892	-0.200659	-0.686972	-0.720163	0.097136
58988	9.817746	-2.650855	-1.775505	-1.441929	2.411036	0.135077	-0.064470	0.226067	0.971976	-0.712134	0.671900	-0.203508	-0.699077	-0.705298	0.117673
58989	9.378752	-1.968023	-0.118304	-1.222369	1.953968	0.066307	-0.051146	0.240154	0.969386	-0.703476	0.680313	-0.205656	-0.708876	-0.692459	0.134147
58990	9.044726	-1.354178	0.649535	-0.812432	1.412108	0.013032	-0.041182	0.249933	0.967387	-0.697666	0.685895	-0.206907	-0.715239	-0.683434	0.146123
58991	9.290742	-0.942852	2.341721	-0.528005	0.863589	-0.027740	-0.034759	0.255602	0.966157	-0.693874	0.689584	-0.207396	-0.719257	-0.677600	0.153386
58992	10.409905	-2.153772	2.919852	-0.534318	0.411201	-0.029680	-0.031586	0.258146	0.965589	-0.690010	0.693293	-0.207920	-0.723110	-0.672834	0.156225
58993	8.740554	-0.950292	1.864582	0.616642	-0.536465	-0.145768	-0.034408	0.253496	0.966724	-0.694488	0.689525	-0.205527	-0.718681	-0.678451	0.152325
58994	9.998397	-0.326140	3.777035	0.606373	-1.110366	-0.206404	-0.040921	0.244479	0.968791	-0.698890	0.685929	-0.202618	-0.714057	-0.685370	0.142795
58995	13.158887	-0.612267	6.801467	0.587502	-1.135173	-0.160327	-0.047841	0.235546	0.970685	-0.703128	0.682292	-0.200219	-0.709452	-0.692095	0.132978
58996	14.334840	-4.885738	7.032329	0.965775	-0.970020	-0.000626	-0.054673	0.228762	0.971946	-0.709927	0.675591	-0.198945	-0.702149	-0.700888	0.125468
58997	13.559495	-4.616631	6.038961	2.082759	-1.033024	0.117486	-0.062652	0.222207	0.972985	-0.724308	0.660584	-0.197501	-0.686624	-0.717114	0.119559
58998	12.495116	0.812054	3.733508	2.950631	-1.296830	0.117426	-0.072259	0.213512	0.974264	-0.744142	0.638866	-0.195200	-0.664102	-0.739096	0.112719
58999	13.611856	2.918279	2.177625	2.002987	-1.553334	0.054264	-0.082820	0.202235	0.975829	-0.757228	0.623814	-0.193549	-0.647879	-0.754955	0.101474
59000	12.988563	2.892290	-4.873428	1.998083	-2.079329	0.194414	-0.097577	0.187548	0.977397	-0.769814	0.608211	-0.193560	-0.630765	-0.771301	0.085030
59001	14.786362	7.553463	-4.841450	0.412116	-2.272234	0.163376	-0.113068	0.170925	0.978775	-0.772220	0.604750	-0.194816	-0.625213	-0.777857	0.063614
59002	13.970284	4.012356	-4.652203	-0.875383	-1.695404	0.119378	-0.124601	0.158454	0.979473	-0.766572	0.611380	-0.196423	-0.629954	-0.775311	0.045288
59003	10.658901	-1.373687	-7.219020	-1.039009	-1.398260	0.159575	-0.134633	0.148611	0.979688	-0.759778	0.619193	-0.198338	-0.636091	-0.771048	0.029548
59004	7.910099	-4.650875	-8.583972	-0.743872	-1.282409	0.112365	-0.143642	0.139397	0.979763	-0.754862	0.624787	-0.199562	-0.639961	-0.768251	0.015480
59005	7.131920	-3.230047	-6.290954	-0.396855	-1.049091	0.042556	-0.150646	0.131595	0.979790	-0.752248	0.627799	-0.199981	-0.641428	-0.767171	0.004417
59006	8.238755	-2.518769	-4.264896	-0.599879	-0.860078	0.072260	-0.156706	0.125414	0.979650	-0.748264	0.632331	-0.200644	-0.644627	-0.764480	-0.005247
59007	10.215978	-3.365826	-3.616817	-0.751891	-0.831012	0.179179	-0.163380	0.120200	0.979213	-0.743106	0.637867	-0.202285	-0.648923	-0.760708	-0.014893
59008	11.714245	-4.279827	-3.306400	-0.673156	-0.719284	0.150454	-0.169168	0.115651	0.978778	-0.738459	0.642830	-0.203588	-0.652733	-0.757228	-0.023343
59009	10.918829	-5.724440	-3.128926	-0.253804	-0.670266	0.064630	-0.173985	0.110979	0.978475	-0.736682	0.644699	-0.204114	-0.653474	-0.756338	-0.030412
59010	10.120578	-4.017606	-2.601631	0.607768	-0.762955	0.007335	-0.179001	0.105183	0.978210	-0.740608	0.640110	-0.204351	-0.647657	-0.761049	-0.036681
59011	10.503789	-1.632572	-2.497256	0.885390	-0.762358	-0.040479	-0.183571	0.099085	0.978000	-0.746372	0.633407	-0.204267	-0.639711	-0.767449	-0.042321
59012	10.088762	-0.668249	-2.215321	0.790006	-0.668997	-0.067473	-0.187322	0.093450	0.977843	-0.751507	0.627417	-0.203925	-0.632572	-0.773056	-0.047301
59013	9.814929	-0.750681	-1.907016	0.636392	-0.630967	-0.026932	-0.191055	0.088376	0.977593	-0.755558	0.622528	-0.203939	-0.626603	-0.777591	-0.052164
59014	9.948488	-0.982701	-1.725139	0.560791	-0.570616	0.014129	-0.194723	0.083957	0.977259	-0.759014	0.618175	-0.204344	-0.621273	-0.781544	-0.056648
59015	9.988558	-1.158967	-1.707658	0.277654	-0.523992	0.012382	-0.198027	0.079919	0.976933	-0.760704	0.616014	-0.204590	-0.618155	-0.783671	-0.061192
59016	10.072599	-1.985455	-1.951088	0.056777	-0.468971	-0.014244	-0.200814	0.076094	0.976670	-0.761068	0.615611	-0.204447	-0.616806	-0.784368	-0.065711
59017	10.046948	-2.381516	-2.372906	-0.083863	-0.420468	-0.042115	-0.203049	0.072524	0.976479	-0.760629	0.616321	-0.203940	-0.616615	-0.784148	-0.069980
59018	10.022255	-2.645500	-2.627176	-0.251820	-0.355247	-0.090872	-0.204553	0.069118	0.976412	-0.759245	0.618390	-0.202832	-0.617823	-0.782826	-0.074016
59019	10.028823	-2.951772	-2.734776	-0.317681	-0.300496	-0.131513	-0.205378	0.065939	0.976459	-0.757543	0.620984	-0.201268	-0.619636	-0.781045	-0.077584
59020	9.879735	-3.259498	-2.661425	-0.330543	-0.253670	-0.171216	-0.205661	0.062831	0.976604	-0.755828	0.623703	-0.199295	-0.621633	-0.779132	-0.080782
59021	9.743593	-3.141972	-2.331496	-0.262877	-0.220329	-0.194837	-0.205524	0.059885	0.976818	-0.754586	0.625890	-0.197137	-0.623186	-0.777609	-0.083447
59022	9.598499	-2.634497	-1.761259	-0.206823	-0.198764	-0.212168	-0.205171	0.056946	0.977068	-0.753716	0.627651	-0.194851	-0.624354	-0.776409	-0.085854
59023	9.615247	-2.149987	-1.046286	-0.172409	-0.198689	-0.210428	-0.204790	0.054068	0.977312	-0.753063	0.629126	-0.192605	-0.625266	-0.775421	-0.088122
59024	9.502415	-1.919077	-0.337363	-0.137080	-0.198528	-0.207490	-0.204478	0.051159	0.977533	-0.752614	0.630327	-0.190418	-0.625907	-0.774642	-0.090385
59025	9.235532	-1.899722	0.198303	-0.098231	-0.228223	-0.191261	-0.204430	0.048171	0.977695	-0.752384	0.631203	-0.188418	-0.626200	-0.774120	-0.092794
59026	9.250081	-1.776221	0.572242	-0.030060	-0.262408	-0.163253	-0.204852	0.045045	0.977756	-0.752515	0.631541	-0.186756	-0.625905	-0.774033	-0.095475
59027	9.198440	-1.566442	0.746626	0.001517	-0.299842	-0.144376	-0.205604	0.041798	0.977742	-0.752814	0.631611	-0.185306	-0.625299	-0.774158	-0.098396
59028	9.275665	-1.260023	0.744445	-0.052746	-0.345741	-0.133787	-0.206764	0.038215	0.977644	-0.752745	0.632102	-0.183908	-0.624999	-0.773943	-0.101929
59029	9.347761	-0.966893	0.576379	-0.137528	-0.373590	-0.122192	-0.208143	0.034538	0.977488	-0.752132	0.633229	-0.182531	-0.625279	-0.773193	-0.105825
59030	9.261278	-1.063579	0.312728	-0.277772	-0.393783	-0.108589	-0.209794	0.030748	0.977262	-0.750607	0.635438	-0.181130	-0.626559	-0.771539	-0.110231
59031	9.450202	-1.339072	-0.047531	-0.390874	-0.410608	-0.096157	-0.211614	0.026958	0.976982	-0.748350	0.638496	-0.179710	-0.628643	-0.769153	-0.114940
59032	9.526616	-1.342358	-0.368003	-0.444134	-0.426714	-0.097826	-0.213571	0.022997	0.976657	-0.745747	0.641957	-0.178193	-0.631070	-0.766395	-0.119954
59033	9.446746	-1.525247	-0.600399	-0.505432	-0.452557	-0.107427	-0.215597	0.018829	0.976301	-0.742774	0.645864	-0.176484	-0.633881	-0.763220	-0.125260
59034	9.303990	-1.913166	-0.711764	-0.520692	-0.475514	-0.111518	-0.217791	0.014427	0.975889	-0.739694	0.649874	-0.174687	-0.636725	-0.759905	-0.130865
59035	9.147075	-2.250370	-0.770479	-0.465826	-0.505213	-0.119796	-0.220093	0.009800	0.975430	-0.736979	0.653440	-0.172854	-0.639079	-0.756915	-0.136595
59036	8.966466	-2.532841	-0.832869	-0.379151	-0.532714	-0.125830	-0.222575	0.004893	0.974903	-0.734818	0.656340	-0.171057	-0.640705	-0.754450	-0.142489
59037	8.904494	-2.535652	-0.952138	-0.248560	-0.571178	-0.123618	-0.225292	-0.000239	0.974291	-0.733496	0.658233	-0.169449	-0.641270	-0.752814	-0.148470
59038	9.024725	-2.184444	-0.980405	-0.161486	-0.606437	-0.117665	-0.228318	-0.005632	0.973570	-0.732714	0.659469	-0.168018	-0.641093	-0.751711	-0.154696
59039	9.360944	-1.442358	-0.953724	-0.122734	-0.634531	-0.112319	-0.231525	-0.011156	0.972765	-0.732180	0.660399	-0.166690	-0.640553	-0.750832	-0.161067
59040	9.508687	-1.034798	-0.895250	-0.195920	-0.637493	-0.106749	-0.234827	-0.016699	0.971894	-0.731162	0.661877	-0.165290	-0.640514	-0.749426	-0.167636
59041	9.481681	-0.956544	-0.855726	-0.291215	-0.648636	-0.101887	-0.238203	-0.022244	0.970961	-0.729531	0.664053	-0.163761	-0.641127	-0.747354	-0.174407
59042	9.357582	-1.271542	-0.847311	-0.341730	-0.667580	-0.103772	-0.241728	-0.027970	0.969941	-0.727576	0.666600	-0.162103	-0.642029	-0.744891	-0.181486
59043	9.384610	-1.539284	-0.962129	-0.330406	-0.693051	-0.096846	-0.245440	-0.033787	0.968823	-0.725684	0.669043	-0.160511	-0.642761	-0.742455	-0.188728
59044	9.342818	-1.965213	-1.247006	-0.224328	-0.725678	-0.102392	-0.249358	-0.039907	0.967589	-0.724484	0.670691	-0.159046	-0.642606	-0.740662	-0.196155
59045	9.390899	-2.247403	-1.623562	-0.145578	-0.768003	-0.112569	-0.253439	-0.046362	0.966240	-0.723827	0.671736	-0.157624	-0.641750	-0.739339	-0.203802
59046	9.468996	-2.268414	-1.776219	-0.061634	-0.793974	-0.127669	-0.257600	-0.053139	0.964789	-0.723748	0.672149	-0.156221	-0.640180	-0.738507	-0.211605
59047	9.465084	-2.062386	-1.606588	-0.067700	-0.811850	-0.155795	-0.261628	-0.060194	0.963290	-0.723715	0.672575	-0.154531	-0.638583	-0.737577	-0.219528
59048	9.444744	-2.021339	-1.327586	-0.055675	-0.828172	-0.177137	-0.265624	-0.067541	0.961708	-0.723817	0.672892	-0.152660	-0.636815	-0.736651	-0.227624
59049	9.384511	-1.720342	-0.915216	-0.075742	-0.849001	-0.197027	-0.269561	-0.075133	0.960048	-0.723858	0.673324	-0.150549	-0.635112	-0.735521	-0.235887
59050	9.413525	-1.652345	-0.564203	-0.110193	-0.873590	-0.201903	-0.273637	-0.082961	0.958249	-0.723698	0.673993	-0.148307	-0.633549	-0.734065	-0.244468
59051	9.693081	-1.584706	-0.549320	-0.086544	-0.921297	-0.208309	-0.277921	-0.091139	0.956271	-0.723721	0.674460	-0.146055	-0.631655	-0.732665	-0.253405
59052	9.890442	-1.490934	-0.850944	-0.072418	-0.964179	-0.217422	-0.282421	-0.099709	0.954095	-0.723865	0.674800	-0.143750	-0.629490	-0.731234	-0.262753
59053	10.073715	-1.292933	-1.093800	-0.126059	-1.006684	-0.228771	-0.287056	-0.108621	0.951735	-0.723721	0.675495	-0.141190	-0.627556	-0.729320	-0.272517
59054	10.215890	-1.232901	-1.455081	-0.166110	-1.051057	-0.245355	-0.291859	-0.117977	0.949157	-0.723383	0.676443	-0.138355	-0.625728	-0.726984	-0.282769
59055	10.363618	-0.969324	-1.476320	-0.241833	-1.078693	-0.267640	-0.296630	-0.127632	0.946425	-0.722656	0.677881	-0.135079	-0.624323	-0.724008	-0.293314
59056	10.252227	-0.258792	-1.136876	-0.355738	-1.109706	-0.291925	-0.301436	-0.137669	0.943495	-0.721302	0.680077	-0.131215	-0.623586	-0.720098	-0.304301
59057	10.214117	-0.040576	-0.645332	-0.509683	-1.149685	-0.298348	-0.306422	-0.147970	0.940325	-0.719028	0.683320	-0.126781	-0.623783	-0.714968	-0.315779
59058	10.242370	0.119987	-0.237738	-0.617346	-1.211481	-0.303094	-0.311794	-0.158713	0.936800	-0.716106	0.687264	-0.121905	-0.624481	-0.708857	-0.327940
59059	10.168051	0.427071	0.391340	-0.718141	-1.269837	-0.305589	-0.317513	-0.169794	0.932929	-0.712576	0.691837	-0.116603	-0.625636	-0.701806	-0.340658
59060	10.145611	0.276626	0.983770	-0.840181	-1.367628	-0.304202	-0.323899	-0.181487	0.928521	-0.708284	0.697178	-0.110804	-0.627235	-0.693546	-0.354360
59061	10.391592	-0.058235	1.572911	-0.875363	-1.501803	-0.283254	-0.331294	-0.193836	0.923402	-0.703713	0.702687	-0.104970	-0.628516	-0.684587	-0.369201
59062	11.286912	0.043154	1.884074	-0.918567	-1.637060	-0.253931	-0.339784	-0.206790	0.917488	-0.698784	0.708432	-0.099117	-0.629482	-0.674805	-0.385216
59063	11.724378	0.457992	2.338877	-1.008764	-1.769548	-0.253912	-0.349130	-0.220460	0.910772	-0.693302	0.714649	-0.092780	-0.630429	-0.663833	-0.402351
59064	12.637783	1.324528	3.014564	-1.206516	-1.927923	-0.232334	-0.359662	-0.234831	0.903049	-0.686508	0.722060	-0.085653	-0.631941	-0.650757	-0.420911
59065	13.899574	2.119505	3.609874	-1.408360	-2.091061	-0.214814	-0.371397	-0.249859	0.894223	-0.678378	0.730602	-0.077609	-0.633930	-0.635445	-0.440843
59066	15.029880	3.302343	4.140922	-1.697899	-2.248453	-0.186511	-0.384384	-0.265338	0.884220	-0.668293	0.740763	-0.068228	-0.636894	-0.617143	-0.462061
59067	16.784821	4.061528	4.211495	-1.941986	-2.419939	-0.125157	-0.398976	-0.280974	0.872853	-0.656381	0.752205	-0.057891	-0.640299	-0.596021	-0.484537
59068	17.861624	3.191286	4.423243	-2.271831	-2.503635	-0.049844	-0.414682	-0.295988	0.860482	-0.641983	0.765330	-0.046126	-0.644901	-0.571542	-0.507388
59069	17.315560	1.974404	4.102415	-2.238963	-2.610649	-0.024827	-0.431371	-0.310795	0.846951	-0.627613	0.777772	-0.034248	-0.648090	-0.546331	-0.530567
59070	16.210310	-0.408802	3.139018	-2.228464	-2.752027	-0.039549	-0.448914	-0.325792	0.832067	-0.613322	0.789533	-0.021760	-0.649855	-0.520094	-0.554248
59071	15.026779	-4.766688	0.660167	-1.869668	-2.855936	-0.075636	-0.466960	-0.340923	0.815917	-0.601536	0.798777	-0.010505	-0.648154	-0.495709	-0.578074
59072	14.014646	-9.010254	-3.837809	-1.028991	-2.955032	-0.063776	-0.485537	-0.355812	0.798531	-0.595210	0.803561	-0.003856	-0.640296	-0.477166	-0.601941
59073	13.142485	-9.334387	-6.889920	-0.155596	-3.015281	-0.007389	-0.504559	-0.370101	0.780029	-0.594265	0.804264	-0.002798	-0.626314	-0.464956	-0.625737
59074	12.245472	-8.287862	-8.469729	0.293305	-3.025831	0.000898	-0.523181	-0.384020	0.760796	-0.596076	0.802914	-0.004628	-0.609076	-0.455914	-0.648975
59075	12.428084	-6.307035	-9.043934	0.419772	-2.945061	0.017789	-0.540928	-0.397210	0.741364	-0.598507	0.801082	-0.007489	-0.590919	-0.447763	-0.671061
59076	12.369201	-4.592185	-8.339593	0.336376	-2.629176	-0.009517	-0.556124	-0.408943	0.723527	-0.600527	0.799546	-0.009675	-0.574537	-0.439878	-0.690228
59077	10.789260	-3.986252	-8.022278	0.032738	-2.186402	-0.092839	-0.567962	-0.419231	0.708283	-0.601244	0.799013	-0.009195	-0.562072	-0.431073	-0.705869
59078	8.924257	-3.998147	-7.979395	0.009108	-1.652261	-0.239662	-0.575662	-0.428195	0.696608	-0.602675	0.797951	-0.007549	-0.552626	-0.424174	-0.717412
59079	6.692298	-4.521520	-8.541681	0.162224	-1.131684	-0.367796	-0.579621	-0.435931	0.688480	-0.605700	0.795670	-0.006129	-0.545131	-0.420564	-0.725230
59080	3.181310	-4.685510	-10.506160	0.562230	-1.035593	-0.439352	-0.582482	-0.443755	0.681027	-0.611303	0.791364	-0.007197	-0.535746	-0.420506	-0.732223
59081	0.491372	-4.038797	-10.289993	0.376437	-1.190681	-0.489070	-0.585773	-0.452633	0.672304	-0.616169	0.787586	-0.006616	-0.526502	-0.418128	-0.740246
59082	0.574883	-3.119206	-9.062997	0.162016	-1.243757	-0.513797	-0.589040	-0.461830	0.663132	-0.620047	0.784552	-0.004377	-0.518240	-0.413752	-0.748489
59083	2.185211	-1.726834	-7.738586	0.150246	-1.063159	-0.517053	-0.591265	-0.470283	0.655164	-0.623883	0.781515	-0.002056	-0.511054	-0.409961	-0.755484
59084	3.720617	-1.331201	-6.630682	-0.079226	-0.688854	-0.500440	-0.591596	-0.476987	0.649999	-0.626454	0.779456	0.001820	-0.507514	-0.406117	-0.759933
59085	4.775283	-2.107291	-6.036807	-0.063870	-0.243520	-0.462093	-0.589899	-0.481595	0.648140	-0.628871	0.777492	0.005348	-0.506499	-0.404441	-0.761503
59086	4.701620	-3.725867	-6.068083	0.375171	0.166083	-0.318872	-0.587000	-0.483382	0.649440	-0.632660	0.774416	0.004570	-0.505146	-0.408192	-0.760399
59087	4.087063	-4.993682	-6.402291	1.153749	0.417194	-0.076724	-0.584384	-0.482273	0.652617	-0.638920	0.769265	-0.003646	-0.500276	-0.419100	-0.757680
59088	4.387538	-5.250196	-6.447936	2.041827	0.640893	0.123225	-0.581956	-0.478567	0.657496	-0.648337	0.761094	-0.019877	-0.490904	-0.437846	-0.753196
59089	4.444448	-4.555232	-7.032705	2.902095	0.811786	0.155139	-0.579013	-0.473760	0.663547	-0.661488	0.748743	-0.042628	-0.476631	-0.463611	-0.746919
59090	4.788634	-2.542593	-6.834046	3.175819	0.960344	0.057430	-0.574853	-0.468726	0.670701	-0.676064	0.733826	-0.066608	-0.460957	-0.491727	-0.738731
59091	5.778627	-0.969226	-6.760653	3.075040	1.183328	-0.069777	-0.568973	-0.463270	0.679449	-0.690432	0.717945	-0.088652	-0.446737	-0.519554	-0.728347
59092	6.185520	-0.187582	-6.653494	2.498390	1.410501	-0.178948	-0.561450	-0.457018	0.689861	-0.702506	0.703818	-0.105477	-0.437332	-0.543852	-0.716216
59093	6.066532	-0.500444	-6.455923	1.839757	1.626996	-0.244850	-0.552602	-0.449733	0.701692	-0.711891	0.692512	-0.116784	-0.433408	-0.564063	-0.702844
59094	5.423905	-1.599318	-6.626874	1.344112	1.752924	-0.276493	-0.542983	-0.441571	0.714272	-0.719249	0.683564	-0.124179	-0.433416	-0.581167	-0.688764
59095	5.160070	-2.311960	-6.592956	1.091269	1.867206	-0.293293	-0.532718	-0.432586	0.727380	-0.725579	0.675852	-0.129457	-0.435600	-0.596736	-0.673913
59096	4.987324	-2.604990	-6.680926	0.969984	2.001869	-0.301016	-0.521728	-0.422483	0.741153	-0.731425	0.668685	-0.133706	-0.439110	-0.611856	-0.657886
59097	5.069966	-2.433293	-6.725931	0.897171	2.119782	-0.299253	-0.510142	-0.411364	0.755338	-0.736938	0.661880	-0.137249	-0.443484	-0.626654	-0.640802
59098	5.184335	-2.286664	-6.791019	0.744280	2.257839	-0.312188	-0.497714	-0.399081	0.770075	-0.741849	0.655881	-0.139570	-0.449378	-0.640745	-0.622499
59099	5.228178	-2.390307	-6.807436	0.687300	2.391322	-0.298430	-0.484633	-0.385558	0.785160	-0.746435	0.650259	-0.141416	-0.456033	-0.654606	-0.602931
59100	5.256828	-2.189611	-6.907735	0.684869	2.521922	-0.297102	-0.470783	-0.370763	0.800562	-0.751015	0.644588	-0.143119	-0.462969	-0.668612	-0.581909
59101	5.219123	-1.939160	-6.712821	0.685023	2.662470	-0.288648	-0.456150	-0.354641	0.816184	-0.755556	0.638914	-0.144651	-0.470173	-0.682655	-0.559392
59102	5.187038	-1.703539	-6.623465	0.721156	2.796721	-0.285623	-0.440702	-0.337131	0.831940	-0.760265	0.632937	-0.146246	-0.477262	-0.696946	-0.535245
59103	5.163315	-1.527952	-6.674725	0.778107	2.913359	-0.289937	-0.424452	-0.318455	0.847601	-0.765264	0.626511	-0.147832	-0.483954	-0.711386	-0.509626
59104	5.093350	-1.323501	-6.629321	0.887644	3.023024	-0.289961	-0.407476	-0.298495	0.863055	-0.770801	0.619224	-0.149756	-0.489723	-0.726266	-0.482399
59105	5.188531	-0.824346	-6.661316	0.927193	3.128738	-0.282596	-0.389846	-0.277293	0.878139	-0.776498	0.611614	-0.151591	-0.495047	-0.740970	-0.453753
59106	5.251021	-0.459029	-6.687470	0.856556	3.251534	-0.284735	-0.371409	-0.254671	0.892860	-0.781853	0.604441	-0.152828	-0.500760	-0.754847	-0.423610
59107	5.338325	-0.590862	-6.754720	0.747806	3.341952	-0.291402	-0.352245	-0.230996	0.906953	-0.786679	0.598049	-0.153213	-0.507011	-0.767449	-0.392380
59108	5.495532	-0.828303	-6.765926	0.701038	3.422282	-0.299838	-0.332396	-0.206284	0.920304	-0.791286	0.591967	-0.153109	-0.513206	-0.779116	-0.359997
59109	5.662331	-1.023220	-6.624093	0.691876	3.501413	-0.301102	-0.311896	-0.180597	0.932795	-0.795827	0.585966	-0.152651	-0.519018	-0.789955	-0.326484
59110	6.055059	-1.155100	-6.568519	0.749340	3.566837	-0.303580	-0.290852	-0.153975	0.944297	-0.800651	0.579498	-0.152116	-0.523796	-0.800296	-0.291829
59111	6.492908	-1.187629	-6.395731	0.755937	3.639577	-0.310041	-0.269183	-0.126471	0.954749	-0.805494	0.572991	-0.151201	-0.527940	-0.809745	-0.256110
59112	6.761300	-1.205467	-6.227590	0.825504	3.692631	-0.305853	-0.247145	-0.098121	0.963998	-0.810653	0.565928	-0.150228	-0.530812	-0.818595	-0.219408
59113	7.782090	-0.643236	-5.984716	0.882754	3.704067	-0.300125	-0.224972	-0.069345	0.971894	-0.816051	0.558430	-0.149053	-0.532398	-0.826648	-0.182220
59114	7.913916	0.130358	-5.709577	0.692833	3.768624	-0.366201	-0.201852	-0.040093	0.978595	-0.820526	0.552487	-0.146612	-0.534783	-0.832557	-0.144417
59115	8.244178	0.160762	-5.388793	0.350685	3.816978	-0.402851	-0.178003	-0.010485	0.983974	-0.823170	0.549478	-0.143058	-0.539172	-0.835442	-0.106440
59116	8.738750	-0.170021	-4.952626	0.137250	3.840050	-0.395154	-0.153929	0.019454	0.987890	-0.824563	0.548359	-0.139279	-0.544428	-0.836016	-0.068368
59117	9.003595	-0.466128	-4.636193	0.046480	3.807028	-0.357803	-0.130113	0.049293	0.990273	-0.825318	0.548115	-0.135723	-0.549473	-0.834949	-0.030635
59118	9.334236	-0.369810	-3.970025	0.090437	3.678252	-0.305103	-0.107307	0.078308	0.991137	-0.826170	0.547569	-0.132709	-0.553109	-0.833088	0.005938
59119	9.961815	-0.291984	-3.291499	0.175267	3.478394	-0.236230	-0.086039	0.105947	0.990642	-0.827360	0.546352	-0.130289	-0.555043	-0.830828	0.040649
59120	10.573692	0.147953	-2.369048	0.225912	3.218812	-0.198297	-0.066515	0.131569	0.989073	-0.828755	0.544731	-0.128195	-0.555645	-0.828226	0.072805
59121	10.473206	0.289850	-1.049508	0.305046	2.894141	-0.165338	-0.049034	0.154595	0.986760	-0.830533	0.542469	-0.126259	-0.554806	-0.825729	0.101797
59122	10.061892	0.898488	0.177320	0.399465	2.477866	-0.114437	-0.034357	0.174409	0.984074	-0.832780	0.539383	-0.124671	-0.552537	-0.823801	0.126713
59123	11.067401	0.965489	3.899617	-0.071987	2.000052	-0.012532	-0.023150	0.190768	0.981362	-0.832374	0.540024	-0.124612	-0.553731	-0.819745	0.146289
59124	9.819352	-0.024725	2.461466	0.568734	1.293443	0.111934	-0.016941	0.201970	0.979245	-0.835475	0.535163	-0.124832	-0.549268	-0.820249	0.159675
59125	8.508019	0.893717	1.975108	0.300729	0.373473	0.094732	-0.015647	0.205531	0.978525	-0.837095	0.532528	-0.125239	-0.546833	-0.821079	0.163717
59126	7.342548	2.344886	1.286873	0.601845	-0.471666	0.123287	-0.019236	0.202297	0.979135	-0.840336	0.527346	-0.125463	-0.541724	-0.825216	0.159853
59127	6.147055	1.866192	-0.496234	0.340778	-1.233128	0.158426	-0.027190	0.192918	0.980838	-0.842129	0.524241	-0.126456	-0.538591	-0.829430	0.148208
59128	6.597947	2.972945	-2.056256	0.551836	-1.945837	0.234543	-0.039582	0.177930	0.983247	-0.844995	0.519234	-0.127978	-0.533307	-0.835905	0.129798
59129	10.604397	4.285889	-0.564538	0.261869	-2.100556	0.204508	-0.052441	0.161370	0.985500	-0.846283	0.516718	-0.129643	-0.530146	-0.840811	0.109467
59130	13.570222	1.642520	1.196034	0.273067	-1.745641	0.108427	-0.062564	0.147199	0.987126	-0.847652	0.514274	-0.130412	-0.526850	-0.844899	0.092598
59131	13.309298	-1.627324	-1.479685	1.337177	-1.482139	0.083131	-0.070949	0.135024	0.988299	-0.854550	0.502825	-0.130045	-0.514500	-0.853777	0.079710
59132	10.866701	-0.852850	-5.293395	2.511885	-1.411447	0.112325	-0.078996	0.123407	0.989207	-0.867095	0.481080	-0.129261	-0.491839	-0.867947	0.069002
59133	8.891256	1.040496	-2.944137	1.772946	-1.423526	0.327834	-0.088696	0.112524	0.989682	-0.875385	0.465240	-0.131349	-0.475220	-0.878003	0.057237
59134	10.327397	-0.453492	-6.433868	1.246821	-1.846825	0.753787	-0.103952	0.099675	0.989575	-0.880495	0.453472	-0.138169	-0.462517	-0.885679	0.040624
59135	18.365678	1.029501	-7.208675	0.308292	-1.898911	0.760869	-0.119351	0.086258	0.989098	-0.881058	0.450053	-0.145563	-0.457703	-0.888826	0.022283
59136	18.075778	1.273912	-4.921566	-0.932023	-1.271927	0.515864	-0.129729	0.077277	0.988534	-0.876109	0.457931	-0.150773	-0.464331	-0.885623	0.008296
59137	11.614406	-2.907664	-6.087790	-1.474886	-1.071588	0.491884	-0.139017	0.070096	0.987806	-0.868509	0.470609	-0.155623	-0.475779	-0.879553	-0.004543
59138	6.847292	-4.854466	-6.446373	-1.653943	-0.877399	0.273428	-0.145595	0.063670	0.987293	-0.860132	0.484945	-0.158117	-0.488851	-0.872224	-0.015841
59139	6.397398	-4.923859	-5.418226	-1.328790	-0.890087	0.083004	-0.150663	0.056333	0.986979	-0.853440	0.496469	-0.158615	-0.498939	-0.866225	-0.026723
59140	9.259454	-6.315818	-4.768615	-0.864960	-0.881728	0.106457	-0.155989	0.049190	0.986533	-0.848923	0.503920	-0.159357	-0.504972	-0.862349	-0.036847
59141	9.904890	-4.972811	-4.114841	0.259609	-0.879490	0.149803	-0.161648	0.042344	0.985940	-0.849986	0.501632	-0.160902	-0.501392	-0.864044	-0.045096
59142	10.602700	-2.877725	-3.968519	0.894066	-0.890678	0.151318	-0.167366	0.035323	0.985262	-0.854166	0.493857	-0.162803	-0.492329	-0.868825	-0.052483
59143	11.274202	-0.854793	-2.793092	1.215720	-0.884485	0.156493	-0.172970	0.028368	0.984518	-0.859809	0.483228	-0.164984	-0.480428	-0.875035	-0.059193
59144	11.464130	0.498529	-2.291408	1.142731	-0.806448	0.145882	-0.178062	0.021927	0.983775	-0.864966	0.473192	-0.167105	-0.469178	-0.880687	-0.065291
59145	10.887010	0.316878	-2.344041	0.675300	-0.710802	0.121494	-0.182385	0.016220	0.983093	-0.867887	0.467231	-0.168721	-0.462069	-0.883986	-0.071139
59146	10.331230	-0.647415	-2.241309	0.243935	-0.631106	0.104131	-0.186198	0.011061	0.982450	-0.868807	0.465092	-0.169896	-0.458809	-0.885193	-0.076990
59147	10.109033	-2.301799	-2.322903	-0.057108	-0.547554	0.080547	-0.189369	0.006583	0.981884	-0.868390	0.465611	-0.170602	-0.458299	-0.884965	-0.082456
59148	9.748188	-3.381196	-2.408557	-0.098310	-0.484152	0.047142	-0.192001	0.002455	0.981392	-0.867838	0.466512	-0.170952	-0.458251	-0.884511	-0.087440
59149	9.344268	-3.475488	-2.480064	-0.051603	-0.439683	0.010253	-0.194064	-0.001392	0.980988	-0.867578	0.466989	-0.170966	-0.457873	-0.884262	-0.091834
59150	9.547660	-3.013469	-2.195560	-0.081206	-0.395594	-0.002824	-0.195858	-0.004968	0.980620	-0.867200	0.467740	-0.170835	-0.457826	-0.883852	-0.095919
59151	9.655960	-2.727128	-1.966492	-0.050221	-0.334732	-0.026526	-0.197121	-0.008056	0.980346	-0.867019	0.468202	-0.170486	-0.457626	-0.883585	-0.099277
59152	9.710358	-2.469963	-1.697731	0.020026	-0.312034	-0.048105	-0.198140	-0.011104	0.980111	-0.867193	0.468053	-0.170009	-0.456856	-0.883631	-0.102369
59153	9.720530	-2.068533	-1.173322	0.124039	-0.319945	-0.059359	-0.199044	-0.014216	0.979887	-0.867873	0.466969	-0.169516	-0.455167	-0.884159	-0.105285
59154	9.647012	-1.574632	-0.523266	0.245209	-0.326392	-0.062171	-0.199996	-0.017459	0.979641	-0.869098	0.464822	-0.169144	-0.452405	-0.885232	-0.108136
59155	9.376028	-0.991697	0.097110	0.342718	-0.369681	-0.030610	-0.201356	-0.020882	0.979296	-0.870701	0.461799	-0.169180	-0.448705	-0.886739	-0.111168
59156	9.394403	-0.608591	0.627117	0.290621	-0.414747	0.006448	-0.203275	-0.024597	0.978813	-0.871975	0.459253	-0.169547	-0.445353	-0.887965	-0.114802
59157	9.326360	-0.672182	0.920093	0.222504	-0.447902	0.026588	-0.205456	-0.028460	0.978252	-0.872906	0.457303	-0.170027	-0.442519	-0.888855	-0.118799
59158	9.266833	-0.878106	1.004737	0.125325	-0.494322	0.042994	-0.208019	-0.032720	0.977577	-0.873359	0.456233	-0.170573	-0.440422	-0.889258	-0.123481
59159	9.242500	-0.869804	0.971572	0.018688	-0.543915	0.053852	-0.210842	-0.037316	0.976808	-0.873326	0.456105	-0.171082	-0.439143	-0.889143	-0.128756
59160	9.163529	-0.799554	0.934504	-0.098816	-0.592966	0.071543	-0.214073	-0.042318	0.975901	-0.872730	0.457042	-0.171622	-0.438765	-0.888438	-0.134772
59161	9.062497	-0.878454	0.808056	-0.259754	-0.625263	0.093030	-0.217591	-0.047448	0.974886	-0.871387	0.459409	-0.172131	-0.439704	-0.886957	-0.141309
59162	8.918856	-1.124553	0.692200	-0.382878	-0.663397	0.105051	-0.221428	-0.052896	0.973741	-0.869459	0.462883	-0.172570	-0.441599	-0.884840	-0.148486
59163	8.962871	-1.279748	0.461620	-0.409689	-0.734410	0.112877	-0.225620	-0.058868	0.972435	-0.867392	0.466584	-0.173003	-0.443539	-0.882516	-0.156332
59164	8.991644	-2.046609	0.098704	-0.381603	-0.790151	0.106821	-0.230054	-0.065384	0.970979	-0.865444	0.470042	-0.173397	-0.445064	-0.880219	-0.164721
59165	9.068324	-2.591284	-0.380512	-0.233491	-0.849797	0.102193	-0.234681	-0.072382	0.969374	-0.864166	0.472184	-0.173953	-0.445131	-0.878523	-0.173363
59166	9.397915	-2.590187	-0.998407	-0.073672	-0.897680	0.092096	-0.239463	-0.079879	0.967614	-0.863612	0.472927	-0.174684	-0.443658	-0.877473	-0.182233
59167	9.728652	-2.148063	-1.708655	0.010958	-0.922071	0.085516	-0.244243	-0.087568	0.965752	-0.863453	0.472920	-0.175489	-0.441356	-0.876743	-0.191118
59168	9.919148	-1.706793	-2.388912	0.008481	-0.913159	0.075780	-0.248914	-0.095261	0.963829	-0.863295	0.472941	-0.176207	-0.439048	-0.875930	-0.199960
59169	9.965577	-1.426142	-2.926311	-0.079562	-0.885077	0.057948	-0.253255	-0.102740	0.961928	-0.862800	0.473711	-0.176561	-0.437536	-0.874667	-0.208614
59170	9.837272	-1.285006	-3.245554	-0.158721	-0.853013	0.039989	-0.257326	-0.110054	0.960037	-0.861997	0.475166	-0.176577	-0.436744	-0.872987	-0.217139
59171	9.473293	-1.646568	-3.229509	-0.217210	-0.826044	0.016368	-0.261035	-0.117186	0.958190	-0.861006	0.477094	-0.176211	-0.436498	-0.871004	-0.225436
59172	9.175634	-2.225752	-3.228512	-0.183257	-0.800750	-0.007097	-0.264465	-0.124237	0.956359	-0.860217	0.478705	-0.175691	-0.435987	-0.869141	-0.233472
59173	9.017580	-2.675606	-3.199302	-0.066005	-0.790459	-0.027731	-0.267628	-0.131242	0.954542	-0.860004	0.479258	-0.175228	-0.434475	-0.867806	-0.241132
59174	8.892015	-2.706018	-2.967849	0.041807	-0.790309	-0.041819	-0.270692	-0.138349	0.952673	-0.860290	0.478864	-0.174901	-0.432004	-0.866919	-0.248644
59175	9.012504	-2.486583	-2.573442	0.074732	-0.789302	-0.049393	-0.273627	-0.145432	0.950778	-0.860747	0.478161	-0.174577	-0.429236	-0.866148	-0.256017
59176	9.195387	-2.127729	-2.060544	0.044072	-0.794004	-0.047335	-0.276618	-0.152582	0.948789	-0.861058	0.477733	-0.174212	-0.426686	-0.865153	-0.263531
59177	9.400603	-1.610581	-1.536992	-0.033804	-0.803520	-0.045927	-0.279605	-0.159754	0.946731	-0.861043	0.477967	-0.173644	-0.424766	-0.863728	-0.271197
59178	9.476587	-1.154259	-1.109883	-0.163355	-0.816979	-0.045257	-0.282682	-0.167068	0.944552	-0.860470	0.479325	-0.172737	-0.423889	-0.861589	-0.279253
59179	9.558142	-0.996126	-0.785387	-0.284296	-0.866412	-0.038654	-0.285983	-0.174713	0.942172	-0.859376	0.481718	-0.171524	-0.423894	-0.858733	-0.287908
59180	9.863402	-0.833626	-0.423089	-0.395783	-0.910349	-0.037449	-0.289522	-0.182743	0.939565	-0.857799	0.485064	-0.169983	-0.424686	-0.855171	-0.297193
59181	10.020748	-0.843127	-0.236409	-0.497245	-0.978415	-0.037464	-0.293325	-0.191279	0.936682	-0.855794	0.489248	-0.168085	-0.426119	-0.850910	-0.307204
59182	10.289599	-0.632148	0.008345	-0.565258	-1.052586	-0.044702	-0.297431	-0.200473	0.933459	-0.853508	0.493977	-0.165867	-0.427855	-0.846048	-0.318029
59183	10.253605	-0.499219	0.098422	-0.580747	-1.140244	-0.053638	-0.301823	-0.210365	0.929865	-0.851181	0.498776	-0.163444	-0.429412	-0.840814	-0.329601
59184	10.166815	0.116115	0.225551	-0.619313	-1.235611	-0.050833	-0.306695	-0.221013	0.925792	-0.848667	0.503874	-0.160857	-0.430931	-0.835024	-0.342102
59185	10.066979	0.206326	0.296916	-0.703265	-1.333022	-0.033411	-0.312131	-0.232278	0.921206	-0.845735	0.509658	-0.158051	-0.432788	-0.828429	-0.355526
59186	10.163355	-0.301384	-0.416001	-0.711173	-1.403459	-0.012020	-0.318099	-0.243953	0.916133	-0.842687	0.515512	-0.155323	-0.434386	-0.821422	-0.369560
59187	10.309261	-0.006884	-1.301210	-0.715559	-1.495805	-0.000619	-0.324562	-0.256197	0.910507	-0.839579	0.521371	-0.152576	-0.435622	-0.813963	-0.384315
59188	10.283921	0.203933	-1.797639	-0.806527	-1.537031	-0.015766	-0.331119	-0.268760	0.904504	-0.836109	0.527875	-0.149230	-0.437358	-0.805677	-0.399502
59189	10.781338	0.325095	-1.665003	-0.970858	-1.592814	-0.008440	-0.337999	-0.281572	0.898039	-0.831880	0.535636	-0.145155	-0.440150	-0.796123	-0.415279
59190	11.460042	0.029755	-1.218489	-1.146396	-1.624616	0.000514	-0.345161	-0.294447	0.891159	-0.826809	0.544714	-0.140259	-0.444128	-0.785231	-0.431466
59191	11.767116	0.134010	-0.473648	-1.271214	-1.658086	-0.030982	-0.352272	-0.307549	0.883922	-0.821245	0.554534	-0.134350	-0.448845	-0.773244	-0.447919
59192	12.143202	0.820902	0.988038	-1.441153	-1.764725	-0.064178	-0.359686	-0.321462	0.875950	-0.814966	0.565387	-0.127155	-0.454376	-0.759605	-0.465342
59193	12.928631	1.790862	2.682332	-1.655894	-1.907302	-0.053919	-0.367940	-0.336121	0.866974	-0.807587	0.577663	-0.118780	-0.460894	-0.743860	-0.483992
59194	14.014289	2.521757	3.984845	-1.911709	-2.044111	-0.017809	-0.377258	-0.351266	0.856907	-0.798770	0.591656	-0.109129	-0.468660	-0.725641	-0.503788
59195	15.449963	3.091923	3.964860	-2.131842	-2.171937	0.042103	-0.387829	-0.366565	0.845706	-0.788529	0.607061	-0.098482	-0.477295	-0.705058	-0.524483
59196	16.103595	2.051547	1.805992	-2.132849	-2.235450	0.139002	-0.399623	-0.381246	0.833638	-0.777721	0.622394	-0.088179	-0.485234	-0.683576	-0.545226
59197	15.100269	0.456383	-0.028929	-2.118899	-2.283428	0.169682	-0.412059	-0.395549	0.820822	-0.766678	0.637304	-0.077766	-0.492353	-0.661350	-0.565866
59198	13.902285	-1.297011	-1.595462	-1.898613	-2.397791	0.170878	-0.425157	-0.410052	0.806907	-0.756578	0.650343	-0.068149	-0.496822	-0.639462	-0.586734
59199	13.856745	-3.013240	-3.234808	-1.523971	-2.460289	0.158537	-0.438549	-0.424514	0.792125	-0.748319	0.660595	-0.060273	-0.497687	-0.619195	-0.607375
59200	12.015581	-4.306758	-4.120553	-1.333143	-2.465246	0.100759	-0.451491	-0.438870	0.776884	-0.741249	0.669153	-0.052771	-0.496695	-0.599690	-0.627428
59201	10.742534	-6.196116	-5.676602	-1.143171	-2.529031	0.040092	-0.464276	-0.453545	0.760753	-0.735411	0.676075	-0.045747	-0.493578	-0.580705	-0.647427
59202	11.020445	-7.626130	-7.085891	-0.676059	-2.552152	0.039637	-0.477011	-0.467885	0.744006	-0.731919	0.680123	-0.041551	-0.486574	-0.564372	-0.666880
59203	11.187335	-7.090902	-6.879335	-0.520779	-2.527107	-0.026089	-0.488977	-0.482148	0.726935	-0.729540	0.682893	-0.037793	-0.478197	-0.548809	-0.685665
59204	11.130085	-6.920829	-7.269207	-0.365756	-2.440220	-0.130259	-0.499525	-0.496246	0.710081	-0.728463	0.684227	-0.034278	-0.468846	-0.534391	-0.703285
59205	10.853469	-6.402365	-7.621458	0.145202	-2.164183	-0.202696	-0.508030	-0.509109	0.694776	-0.730165	0.682432	-0.033843	-0.456908	-0.524494	-0.718429
59206	9.463462	-5.196978	-8.156369	0.610077	-1.840480	-0.280235	-0.514206	-0.520605	0.681589	-0.734356	0.677793	-0.036308	-0.443074	-0.519198	-0.730834
59207	7.866057	-3.870813	-7.815064	0.803619	-1.496838	-0.388422	-0.517839	-0.530998	0.670734	-0.739876	0.671580	-0.039551	-0.429450	-0.516741	-0.740643
59208	6.539734	-3.269183	-7.088920	0.937457	-1.081629	-0.462346	-0.518929	-0.539661	0.662932	-0.746254	0.664243	-0.043423	-0.416914	-0.517249	-0.747419
59209	5.254462	-2.526850	-6.829383	1.203140	-0.815584	-0.451153	-0.518857	-0.546890	0.657037	-0.753542	0.655539	-0.049424	-0.403684	-0.520750	-0.752236
59210	4.331298	-1.781680	-8.727099	1.416303	-0.770613	-0.404492	-0.518798	-0.553537	0.651495	-0.761270	0.645885	-0.057444	-0.388993	-0.525766	-0.756475
59211	3.085746	-1.058194	-9.038514	0.986052	-0.866254	-0.338226	-0.519497	-0.560288	0.645136	-0.766814	0.638800	-0.062693	-0.376987	-0.527268	-0.761492
59212	3.794480	0.058652	-7.082554	0.205002	-0.776771	-0.259713	-0.520363	-0.566012	0.639416	-0.768948	0.636242	-0.062574	-0.371406	-0.524239	-0.766310
59213	5.279003	0.932660	-5.896855	0.083050	-0.389142	-0.188463	-0.520318	-0.569264	0.636559	-0.770247	0.634728	-0.061967	-0.368766	-0.522550	-0.768734
59214	6.352027	1.382859	-5.664777	-0.016579	0.111494	-0.108204	-0.519026	-0.569354	0.637534	-0.770764	0.634181	-0.061132	-0.369506	-0.523117	-0.767993
59215	6.410329	0.023624	-5.856527	-0.263210	0.620525	0.027468	-0.516893	-0.565945	0.642283	-0.769654	0.635706	-0.059249	-0.374772	-0.524961	-0.764174
59216	5.854649	-1.521152	-5.963212	-0.140280	0.959937	0.235964	-0.515032	-0.559367	0.649501	-0.767922	0.637756	-0.059684	-0.380838	-0.529505	-0.758015
59217	6.284796	-2.730825	-5.800459	0.171745	1.258925	0.469470	-0.513771	-0.549669	0.658713	-0.766177	0.639434	-0.064007	-0.386021	-0.537576	-0.749667
59218	6.134647	-2.961553	-5.676190	0.556689	1.488625	0.579805	-0.512391	-0.537854	0.669454	-0.765376	0.639545	-0.071984	-0.389429	-0.549268	-0.739358
59219	7.033031	-2.789515	-5.479408	0.966725	1.649098	0.544077	-0.510092	-0.525217	0.681141	-0.766375	0.637047	-0.082705	-0.390481	-0.564197	-0.727466
59220	8.738151	-1.911576	-5.424988	1.272572	1.866986	0.411915	-0.505919	-0.511882	0.694278	-0.769266	0.631873	-0.094692	-0.390224	-0.581991	-0.713450
59221	8.369010	-0.512618	-5.581244	1.059769	2.132690	0.244167	-0.499416	-0.497763	0.709095	-0.772198	0.626839	-0.103838	-0.392801	-0.599420	-0.697425
59222	7.552004	-0.325979	-5.909862	0.532454	2.322136	0.161000	-0.491403	-0.482638	0.724972	-0.773528	0.624380	-0.108645	-0.400222	-0.614174	-0.680156
59223	7.189470	-1.370208	-6.110292	0.077817	2.474551	0.177370	-0.482693	-0.466196	0.741396	-0.772990	0.624735	-0.110424	-0.411697	-0.626392	-0.661920
59224	6.634677	-2.358812	-6.327775	-0.074466	2.583207	0.204420	-0.473418	-0.448559	0.758070	-0.771716	0.626125	-0.111454	-0.424653	-0.637779	-0.642579
59225	6.305817	-2.412876	-6.321926	-0.101939	2.660903	0.242678	-0.463776	-0.429935	0.774640	-0.770147	0.627845	-0.112625	-0.437933	-0.648820	-0.622293
59226	6.440883	-2.016581	-6.263254	-0.184436	2.747945	0.239841	-0.453343	-0.410421	0.791223	-0.768240	0.630045	-0.113360	-0.451981	-0.659241	-0.600928
59227	6.476263	-1.958461	-6.295457	-0.322228	2.852102	0.219758	-0.441884	-0.390111	0.807807	-0.765782	0.633064	-0.113173	-0.467243	-0.668613	-0.578481
59228	6.456379	-2.339886	-6.502819	-0.378647	2.933484	0.220622	-0.429585	-0.368934	0.824224	-0.763034	0.636438	-0.112814	-0.482946	-0.677374	-0.554913
59229	6.392570	-2.619490	-6.636578	-0.282447	2.995881	0.229078	-0.416602	-0.347060	0.840233	-0.760684	0.639186	-0.113144	-0.497798	-0.686288	-0.530289
59230	6.213501	-2.641399	-6.595817	-0.118902	3.051612	0.245675	-0.403027	-0.324363	0.855779	-0.759087	0.640822	-0.114602	-0.511229	-0.695799	-0.504489
59231	6.003598	-2.341280	-6.374610	0.073968	3.128643	0.249913	-0.388707	-0.300845	0.870861	-0.758484	0.641089	-0.117078	-0.523077	-0.706043	-0.477382
59232	5.834451	-1.769248	-6.122856	0.262329	3.205044	0.260845	-0.373715	-0.276333	0.885425	-0.758883	0.639967	-0.120577	-0.533323	-0.716995	-0.448869
59233	5.852746	-1.338056	-6.050869	0.364824	3.285937	0.255224	-0.357938	-0.250974	0.899384	-0.759914	0.638011	-0.124394	-0.542597	-0.727980	-0.419087
59234	5.925894	-0.891713	-6.068482	0.406517	3.389861	0.254744	-0.341295	-0.224457	0.912763	-0.761253	0.635629	-0.128336	-0.551373	-0.738644	-0.387805
59235	6.049896	-0.738684	-5.963407	0.355877	3.508894	0.264593	-0.323767	-0.196702	0.925464	-0.762351	0.633549	-0.132046	-0.560353	-0.748280	-0.355079
59236	6.074246	-0.962147	-5.990573	0.370750	3.599168	0.266827	-0.305447	-0.167887	0.937292	-0.763608	0.631242	-0.135778	-0.568862	-0.757197	-0.321011
59237	6.338888	-1.172662	-6.110074	0.341078	3.669550	0.254532	-0.286326	-0.138366	0.948089	-0.764808	0.629047	-0.139170	-0.577136	-0.764954	-0.285936
59238	6.558692	-1.472268	-6.048610	0.358200	3.723272	0.233140	-0.266450	-0.108262	0.957749	-0.766245	0.626583	-0.142345	-0.584699	-0.771799	-0.249908
59239	6.797771	-1.712292	-6.079040	0.419790	3.734173	0.188667	-0.245905	-0.078159	0.966138	-0.768226	0.623520	-0.145091	-0.591066	-0.777891	-0.213371
59240	7.111165	-1.533542	-5.673579	0.413286	3.748079	0.140315	-0.224699	-0.048009	0.973245	-0.770349	0.620387	-0.147252	-0.596719	-0.782825	-0.176384
59241	7.555859	-1.252710	-5.371982	0.419625	3.779530	0.099633	-0.202783	-0.017743	0.979063	-0.772645	0.617143	-0.148845	-0.601581	-0.786651	-0.138855
59242	7.996072	-0.896179	-4.882980	0.343133	3.790824	0.071190	-0.180420	0.012581	0.983509	-0.774576	0.614449	-0.149952	-0.606203	-0.788857	-0.101113
59243	8.495186	-0.473892	-4.400270	0.249500	3.795326	0.063946	-0.157782	0.042913	0.986541	-0.775978	0.612481	-0.150747	-0.610707	-0.789319	-0.063339
59244	9.012004	0.094521	-3.800971	0.093486	3.756196	0.095979	-0.135480	0.073136	0.988077	-0.776403	0.611699	-0.151733	-0.615503	-0.787703	-0.026090
59245	9.314209	0.186323	-3.359175	-0.132635	3.682236	0.115933	-0.113571	0.102767	0.988201	-0.775429	0.612661	-0.152830	-0.621138	-0.783636	0.010108
59246	9.624479	-0.071673	-2.780607	-0.330459	3.558605	0.160745	-0.092585	0.131541	0.986978	-0.773189	0.615067	-0.154504	-0.627381	-0.777425	0.044760
59247	9.547092	-0.642064	-2.130170	-0.427405	3.346524	0.209201	-0.073062	0.158711	0.984618	-0.770310	0.618094	-0.156791	-0.633470	-0.769916	0.077097
59248	9.313835	-0.684298	-1.305234	-0.365054	3.008132	0.251969	-0.055860	0.183325	0.981464	-0.767813	0.620477	-0.159597	-0.638234	-0.762496	0.106099
59249	9.135563	0.102164	-0.319507	-0.325396	2.586782	0.282836	-0.041431	0.204702	0.977947	-0.765579	0.622424	-0.162719	-0.642006	-0.755438	0.130928
59250	8.923497	0.522724	0.806386	-0.474239	2.120788	0.327644	-0.030260	0.222687	0.974420	-0.762392	0.625308	-0.166579	-0.646408	-0.747931	0.150853
59251	9.094517	0.537448	3.173044	-0.788005	1.608591	0.379714	-0.022657	0.237019	0.971241	-0.757158	0.630321	-0.171485	-0.652839	-0.739268	0.165179
59252	8.572190	-0.760026	2.564668	-0.546068	1.019815	0.435736	-0.019253	0.247278	0.968753	-0.753474	0.633308	-0.176629	-0.657195	-0.733331	0.174124
59253	7.473173	0.310034	1.567065	-0.207577	0.146423	0.366836	-0.021014	0.250660	0.967847	-0.752020	0.633942	-0.180510	-0.658805	-0.731634	0.175180
59254	6.731587	1.615909	1.044325	-0.171769	-0.607282	0.274518	-0.027063	0.247952	0.968394	-0.750806	0.634536	-0.183452	-0.659968	-0.732041	0.168991
59255	6.180232	1.441608	-0.671787	-0.020784	-1.255905	0.224489	-0.036998	0.240149	0.970031	-0.750583	0.634167	-0.185628	-0.659740	-0.734956	0.156789
59256	6.875210	1.590711	-3.240753	0.316604	-1.813604	0.221266	-0.050578	0.228155	0.972310	-0.752555	0.631335	-0.187291	-0.656585	-0.741189	0.139768
59257	7.291720	1.411494	-4.930058	0.471945	-2.154080	0.192345	-0.066083	0.213302	0.974749	-0.755517	0.627420	-0.188517	-0.651788	-0.748897	0.119692
59258	8.696715	0.270244	-3.988844	0.566553	-2.198054	0.133946	-0.081341	0.197571	0.976908	-0.759080	0.622903	-0.189180	-0.645896	-0.756939	0.099305
59259	11.595241	-1.563591	-2.721485	1.175755	-1.813080	0.081206	-0.093538	0.184238	0.978421	-0.766530	0.613810	-0.188862	-0.635360	-0.767654	0.083809
59260	13.603404	-1.579273	-4.726543	2.454736	-1.405072	0.011986	-0.102400	0.173378	0.979517	-0.781851	0.594757	-0.187009	-0.614999	-0.784987	0.074652
59261	13.230527	0.571948	-0.903160	2.390597	-1.035906	-0.091239	-0.107909	0.164618	0.980437	-0.796402	0.575982	-0.184363	-0.595063	-0.800716	0.068948
59262	11.489922	-0.723360	-1.270833	1.428441	-1.376929	0.232076	-0.117856	0.154814	0.980889	-0.804534	0.564127	-0.185703	-0.582096	-0.811044	0.058067
59263	18.489092	0.044870	-7.813523	1.877767	-2.326094	0.571607	-0.135776	0.138954	0.980947	-0.814561	0.547952	-0.190365	-0.563963	-0.824888	0.038788
59264	21.811182	5.747360	-2.809279	0.122898	-1.836579	0.265073	-0.148246	0.125187	0.980995	-0.814863	0.546617	-0.192896	-0.560377	-0.827972	0.020976
59265	12.922205	1.529658	-4.523413	-0.918314	-1.424189	0.258228	-0.158324	0.114830	0.980687	-0.809289	0.553919	-0.195512	-0.565672	-0.824614	0.005232
59266	8.115013	-3.845652	-8.620364	-1.151427	-1.333066	0.311856	-0.168405	0.105560	0.980050	-0.802212	0.563077	-0.198495	-0.572796	-0.819635	-0.010143
59267	4.227176	-3.652469	-8.050049	-0.821131	-1.176490	0.169773	-0.176490	0.096888	0.979522	-0.797190	0.569644	-0.199983	-0.577355	-0.816161	-0.023298
59268	7.995612	-4.337519	-7.216653	-0.515083	-1.167331	0.047265	-0.183609	0.087580	0.979090	-0.794111	0.573836	-0.200250	-0.579375	-0.814274	-0.035814
59269	9.466400	-3.836375	-5.871072	-0.070631	-0.964963	0.089225	-0.189864	0.080221	0.978527	-0.793529	0.574358	-0.201056	-0.578154	-0.814664	-0.045392
59270	10.393069	-3.518900	-5.498814	0.080169	-0.847019	0.122167	-0.195723	0.073949	0.977867	-0.793740	0.573648	-0.202251	-0.575907	-0.815757	-0.053580
59271	11.000423	-2.765281	-4.553204	0.339008	-0.742626	0.149916	-0.201138	0.068728	0.977149	-0.795382	0.570793	-0.203870	-0.571761	-0.818213	-0.060143
59272	11.811761	-1.603533	-3.609758	0.261139	-0.716927	0.164363	-0.206540	0.063719	0.976361	-0.796518	0.568583	-0.205603	-0.568243	-0.820154	-0.066682
59273	12.491587	-1.603005	-3.573101	0.108401	-0.632302	0.057574	-0.210547	0.058846	0.975811	-0.797008	0.567679	-0.206201	-0.566082	-0.821144	-0.072623
59274	11.454979	-1.588004	-3.402755	-0.110322	-0.510950	-0.051882	-0.213035	0.054278	0.975536	-0.796475	0.568654	-0.205572	-0.565900	-0.820784	-0.077912
59275	10.263320	-2.311761	-3.390063	-0.304267	-0.420688	-0.103327	-0.214558	0.050229	0.975419	-0.794967	0.571224	-0.204280	-0.567443	-0.819256	-0.082631
59276	9.530671	-2.937355	-3.088282	-0.314760	-0.376762	-0.108865	-0.215846	0.046440	0.975323	-0.793395	0.573893	-0.202910	-0.569154	-0.817613	-0.087027
59277	9.351399	-3.173748	-2.810438	-0.204947	-0.328167	-0.107593	-0.216824	0.043129	0.975258	-0.792455	0.575636	-0.201639	-0.570090	-0.816568	-0.090634
59278	9.366621	-3.056673	-2.465971	-0.141171	-0.288423	-0.101701	-0.217677	0.040106	0.975196	-0.791852	0.576870	-0.200477	-0.570602	-0.815851	-0.093814
59279	9.465956	-2.975980	-2.047922	-0.084079	-0.270262	-0.094908	-0.218430	0.037342	0.975138	-0.791574	0.577613	-0.199431	-0.570700	-0.815456	-0.096609
59280	9.644057	-2.722035	-1.529111	-0.016481	-0.260548	-0.110485	-0.219059	0.034495	0.975102	-0.791703	0.577827	-0.198299	-0.570280	-0.815430	-0.099268
59281	9.530967	-2.516010	-0.862999	-0.010942	-0.252253	-0.131903	-0.219415	0.031664	0.975118	-0.791925	0.577980	-0.196962	-0.569835	-0.815437	-0.101742
59282	9.339283	-2.536974	-0.181569	0.008478	-0.265884	-0.146156	-0.219789	0.028568	0.975129	-0.792276	0.577993	-0.195508	-0.569203	-0.815541	-0.104403
59283	9.150749	-2.482744	0.318828	0.114084	-0.283540	-0.152534	-0.220154	0.025362	0.975135	-0.793255	0.577123	-0.194102	-0.567696	-0.816263	-0.106937
59284	9.151657	-2.103611	0.695264	0.171881	-0.319834	-0.140607	-0.220868	0.021859	0.975059	-0.794521	0.575790	-0.192881	-0.565645	-0.817305	-0.109806
59285	9.168215	-1.684129	0.821715	0.176136	-0.374273	-0.125648	-0.221943	0.018064	0.974892	-0.795789	0.574394	-0.191812	-0.563437	-0.818379	-0.113108
59286	9.267350	-1.179029	0.916403	0.130956	-0.421571	-0.115356	-0.223412	0.013873	0.974625	-0.796765	0.573377	-0.190802	-0.561474	-0.819174	-0.117046
59287	9.371103	-0.849846	0.985415	0.013977	-0.470697	-0.112420	-0.225118	0.009361	0.974287	-0.797091	0.573295	-0.189683	-0.560329	-0.819296	-0.121598
59288	9.344516	-1.037117	0.866329	-0.140618	-0.517000	-0.120160	-0.227069	0.004363	0.973869	-0.796558	0.574490	-0.188301	-0.560299	-0.818500	-0.126974
59289	9.309172	-1.367996	0.674036	-0.233807	-0.562627	-0.115786	-0.229264	-0.000916	0.973364	-0.795507	0.576423	-0.186829	-0.560898	-0.817151	-0.132882
59290	9.335520	-1.678519	0.422166	-0.305949	-0.615831	-0.100164	-0.231934	-0.006594	0.972709	-0.794005	0.578950	-0.185399	-0.561928	-0.815336	-0.139514
59291	9.078491	-2.053916	0.188927	-0.340885	-0.643220	-0.098634	-0.234732	-0.012416	0.971981	-0.792313	0.581735	-0.183912	-0.563152	-0.813283	-0.146389
59292	8.938524	-2.265812	-0.244301	-0.241350	-0.696920	-0.096880	-0.237898	-0.018712	0.971110	-0.791168	0.583714	-0.182569	-0.563434	-0.811744	-0.153669
59293	8.828893	-2.148786	-0.616107	-0.146389	-0.740828	-0.091664	-0.241307	-0.025270	0.970120	-0.790559	0.584899	-0.181408	-0.562838	-0.810712	-0.161117
59294	8.858430	-1.867303	-0.846784	-0.067676	-0.787981	-0.091102	-0.245023	-0.032256	0.968980	-0.790386	0.585452	-0.180374	-0.561474	-0.810065	-0.168944
59295	8.942977	-1.552914	-1.001275	-0.039796	-0.815129	-0.089586	-0.248847	-0.039393	0.967741	-0.790381	0.585760	-0.179396	-0.559797	-0.809527	-0.176900
59296	9.095887	-1.533409	-1.134234	-0.050638	-0.837425	-0.077496	-0.252922	-0.046689	0.966360	-0.790279	0.586167	-0.178516	-0.558113	-0.808844	-0.185152
59297	9.304530	-1.634923	-1.449685	-0.002523	-0.859078	-0.063388	-0.257168	-0.054020	0.964856	-0.790423	0.586172	-0.177858	-0.555963	-0.808384	-0.193443
59298	9.524159	-1.606228	-1.722020	0.006925	-0.855303	-0.058924	-0.261453	-0.061342	0.963265	-0.790602	0.586111	-0.177264	-0.553707	-0.807905	-0.201738
59299	9.517014	-1.776010	-1.990285	0.035140	-0.859958	-0.054270	-0.265737	-0.068618	0.961600	-0.790936	0.585808	-0.176772	-0.551184	-0.807540	-0.209943
59300	9.677341	-2.032603	-2.242288	0.081361	-0.857447	-0.064447	-0.269945	-0.075983	0.959873	-0.791544	0.585133	-0.176287	-0.548259	-0.807369	-0.218098
59301	9.701412	-2.115806	-2.437938	0.142987	-0.856212	-0.073352	-0.274006	-0.083337	0.958110	-0.792523	0.583936	-0.175859	-0.544820	-0.807511	-0.226049
59302	9.801524	-1.946990	-2.501289	0.169501	-0.850169	-0.088401	-0.277926	-0.090782	0.956303	-0.793675	0.582518	-0.175364	-0.541144	-0.807732	-0.233949
