// General information: 
//  MT Manager version: 2022.2.0 
//  XDA version: 2022.2.0 build 7381 rev 124627 built on 2023-07-19
// Device information: 
//  DeviceId: 00B4CAF0
//  ProductCode: MTW2-3A7G6
//  Firmware Version: 4.6.0
//  Hardware Version: 2.0.0
// Device settings: 
//  Filter Profile: human(46.1)
//  Option Flags: Orientation Smoother Disabled, Position/Velocity Smoother Disabled, Continuous Zero Rotation Update Disabled, AHS Disabled, ICC Disabled
// Coordinate system: ENU
PacketCounter	Acc_X	Acc_Y	Acc_Z	Gyr_X	Gyr_Y	Gyr_Z	Mat[1][1]	Mat[2][1]	Mat[3][1]	Mat[1][2]	Mat[2][2]	Mat[3][2]	Mat[1][3]	Mat[2][3]	Mat[3][3]
29196	4.872021	0.439190	9.031817	0.001222	0.002824	0.006306	-0.384309	0.791121	0.475851	-0.889617	-0.455110	0.038161	0.246754	-0.408659	0.878698
29197	4.875424	0.402238	9.078963	0.000768	0.002497	0.004752	-0.384312	0.791106	0.475873	-0.889618	-0.455110	0.038140	0.246747	-0.408688	0.878687
29198	4.888179	0.426050	8.995430	0.001511	0.004519	0.004290	-0.384357	0.791092	0.475860	-0.889596	-0.455154	0.038135	0.246759	-0.408666	0.878694
29199	4.845300	0.405657	9.097283	-0.000560	0.007376	0.006576	-0.384387	0.791089	0.475841	-0.889593	-0.455163	0.038094	0.246721	-0.408662	0.878706
29200	4.878045	0.380059	9.024249	0.006405	0.006210	0.000528	-0.384406	0.791098	0.475811	-0.889571	-0.455201	0.038149	0.246769	-0.408603	0.878720
29201	4.860673	0.398162	9.027194	0.004053	0.012754	0.006101	-0.384446	0.791119	0.475744	-0.889559	-0.455225	0.038150	0.246751	-0.408536	0.878756
29202	4.846497	0.379234	9.077387	0.001957	0.015135	0.003173	-0.384509	0.791153	0.475637	-0.889539	-0.455263	0.038153	0.246724	-0.408427	0.878814
29203	4.870747	0.407563	9.047371	0.008065	0.014267	0.004445	-0.384537	0.791188	0.475556	-0.889523	-0.455290	0.038197	0.246737	-0.408330	0.878856
29204	4.856445	0.394126	9.063513	0.008503	0.019499	0.002055	-0.384599	0.791245	0.475410	-0.889493	-0.455343	0.038262	0.246750	-0.408158	0.878932
29205	4.825525	0.398695	9.082176	0.012530	0.016104	0.004342	-0.384631	0.791288	0.475312	-0.889467	-0.455388	0.038347	0.246795	-0.408025	0.878981
29206	4.803794	0.444240	9.106611	0.009089	0.012598	0.000694	-0.384669	0.791321	0.475226	-0.889438	-0.455439	0.038422	0.246841	-0.407904	0.879024
29207	4.802675	0.444853	9.107171	0.007321	0.012243	0.004904	-0.384697	0.791346	0.475163	-0.889422	-0.455467	0.038458	0.246855	-0.407826	0.879057
29208	4.844098	0.460397	9.040266	0.004928	0.007547	0.002722	-0.384739	0.791349	0.475124	-0.889395	-0.455517	0.038491	0.246886	-0.407764	0.879077
29209	4.843028	0.455430	9.074914	-0.001007	0.012431	0.006286	-0.384779	0.791368	0.475060	-0.889394	-0.455521	0.038447	0.246825	-0.407722	0.879113
29210	4.862524	0.410720	9.051650	0.007625	0.009031	0.006832	-0.384856	0.791362	0.475008	-0.889348	-0.455608	0.038482	0.246870	-0.407637	0.879140
29211	4.878104	0.397895	9.015617	0.000934	0.016799	0.006913	-0.384913	0.791396	0.474905	-0.889341	-0.455625	0.038452	0.246810	-0.407552	0.879196
29212	4.850638	0.359868	9.115445	0.002865	0.015785	0.006272	-0.385001	0.791419	0.474794	-0.889309	-0.455688	0.038449	0.246787	-0.407436	0.879257
29213	4.895173	0.343273	9.061813	0.004947	0.018308	0.005257	-0.385047	0.791467	0.474678	-0.889298	-0.455708	0.038462	0.246756	-0.407321	0.879319
29214	4.911104	0.430766	9.040617	0.015659	0.027717	0.002113	-0.385134	0.791554	0.474462	-0.889246	-0.455799	0.038593	0.246807	-0.407050	0.879430
29215	4.879043	0.435912	9.059819	0.018505	0.032736	0.005845	-0.385220	0.791658	0.474219	-0.889199	-0.455879	0.038722	0.246841	-0.406758	0.879555
29216	4.875977	0.437263	9.061405	0.016866	0.035440	0.004464	-0.385338	0.791770	0.473935	-0.889140	-0.455982	0.038852	0.246868	-0.406423	0.879702
29217	4.843674	0.446869	9.046675	0.008537	0.035628	0.005838	-0.385432	0.791885	0.473666	-0.889118	-0.456022	0.038894	0.246802	-0.406154	0.879845
29218	4.781959	0.459754	9.049740	0.007058	0.036966	0.008027	-0.385601	0.791980	0.473371	-0.889061	-0.456131	0.038921	0.246743	-0.405848	0.880003
29219	4.794899	0.432126	9.117275	0.000651	0.030762	0.007496	-0.385697	0.792068	0.473146	-0.889052	-0.456152	0.038885	0.246626	-0.405653	0.880126
29220	4.801624	0.482351	9.056327	-0.001123	0.030408	0.011703	-0.385864	0.792128	0.472908	-0.889012	-0.456235	0.038820	0.246507	-0.405441	0.880256
29221	4.815244	0.458679	9.089523	-0.006477	0.028395	0.013902	-0.386012	0.792177	0.472706	-0.888996	-0.456278	0.038692	0.246336	-0.405298	0.880370
29222	4.887552	0.427131	9.087320	-0.003039	0.031895	0.017548	-0.386242	0.792212	0.472458	-0.888933	-0.456409	0.038585	0.246202	-0.405081	0.880508
29223	4.909441	0.449010	9.092830	-0.003458	0.047700	0.019778	-0.386489	0.792312	0.472089	-0.888886	-0.456511	0.038455	0.245982	-0.404770	0.880712
29224	4.904982	0.447890	9.095292	-0.000625	0.052235	0.018296	-0.386784	0.792422	0.471662	-0.888811	-0.456666	0.038364	0.245792	-0.404380	0.880945
29225	4.929190	0.448461	9.046461	0.012517	0.072166	0.023807	-0.387127	0.792602	0.471078	-0.888709	-0.456864	0.038356	0.245620	-0.403803	0.881257
29226	4.884326	0.411664	9.061693	0.017878	0.074162	0.021599	-0.387506	0.792784	0.470460	-0.888573	-0.457123	0.038414	0.245512	-0.403152	0.881585
29227	4.802342	0.442260	9.068910	0.009266	0.082930	0.022269	-0.387862	0.793013	0.469780	-0.888486	-0.457296	0.038385	0.245269	-0.402504	0.881949
29228	4.786740	0.406079	9.032541	0.009849	0.076026	0.020913	-0.388228	0.793211	0.469144	-0.888379	-0.457504	0.038376	0.245076	-0.401879	0.882287
29229	4.712804	0.377675	9.031046	0.006563	0.070678	0.015613	-0.388493	0.793420	0.468569	-0.888324	-0.457614	0.038355	0.244855	-0.401341	0.882594
29230	4.348943	0.270819	9.100739	-0.003304	0.050716	0.014115	-0.388746	0.793541	0.468155	-0.888270	-0.457725	0.038262	0.244648	-0.400974	0.882818
29231	4.648917	0.437611	9.200282	0.007625	0.014855	0.013302	-0.388854	0.793537	0.468071	-0.888221	-0.457820	0.038261	0.244654	-0.400873	0.882862
29232	4.808271	0.431876	9.097770	-0.000130	0.008167	0.013310	-0.388992	0.793493	0.468032	-0.888165	-0.457935	0.038200	0.244639	-0.400830	0.882886
29233	4.756034	0.380344	9.125063	0.002854	0.011335	0.015406	-0.389111	0.793465	0.467980	-0.888119	-0.458028	0.038147	0.244616	-0.400779	0.882915
29234	4.857027	0.472120	9.140202	0.003143	0.007652	0.012132	-0.389226	0.793430	0.467944	-0.888066	-0.458133	0.038121	0.244628	-0.400728	0.882935
29235	5.011404	0.489101	9.093380	0.021051	0.025704	0.014294	-0.389370	0.793465	0.467766	-0.887980	-0.458290	0.038235	0.244710	-0.400479	0.883025
29236	4.991387	0.509809	9.097451	0.065927	0.054292	0.029917	-0.389771	0.793528	0.467324	-0.887696	-0.458803	0.038676	0.245100	-0.399767	0.883240
29237	4.961319	0.498269	9.062055	0.123105	0.063610	0.047941	-0.390307	0.793559	0.466824	-0.887228	-0.459634	0.039533	0.245940	-0.398749	0.883466
29238	4.830378	0.266649	9.011442	0.146983	0.075744	0.036103	-0.390822	0.793674	0.466198	-0.886715	-0.460525	0.040667	0.246972	-0.397491	0.883745
29239	4.694720	0.379696	9.113299	0.131483	0.060901	0.020474	-0.391108	0.793819	0.465711	-0.886331	-0.461168	0.041728	0.247895	-0.396454	0.883953
29240	4.596353	0.334005	9.140826	0.107191	0.046448	0.009864	-0.391293	0.793950	0.465331	-0.886031	-0.461661	0.042632	0.248673	-0.395617	0.884109
29241	4.676246	0.352838	9.145501	0.088131	0.041700	0.005153	-0.391397	0.794088	0.465008	-0.885813	-0.462010	0.043381	0.249287	-0.394931	0.884243
29242	4.675193	0.464140	9.126220	0.067846	0.029740	0.003346	-0.391500	0.794175	0.464774	-0.885626	-0.462312	0.043966	0.249788	-0.394403	0.884337
29243	4.701912	0.464995	9.110019	0.044480	0.032588	0.004783	-0.391577	0.794279	0.464530	-0.885518	-0.462485	0.044332	0.250050	-0.393991	0.884447
29244	4.711462	0.477449	9.130229	0.030778	0.030336	0.003106	-0.391683	0.794367	0.464291	-0.885423	-0.462642	0.044590	0.250222	-0.393629	0.884559
29245	4.684823	0.556297	9.141327	0.019308	0.029242	0.003985	-0.391745	0.794461	0.464077	-0.885381	-0.462709	0.044737	0.250274	-0.393359	0.884664
29246	4.730715	0.408411	9.088831	0.007691	0.029995	0.006491	-0.391869	0.794537	0.463843	-0.885335	-0.462792	0.044778	0.250240	-0.393109	0.884785
29247	4.831561	0.460098	9.186507	0.011283	0.037014	0.009721	-0.392001	0.794635	0.463562	-0.885291	-0.462873	0.044827	0.250191	-0.392815	0.884930
29248	5.191211	0.545999	9.067959	0.079859	0.057974	0.010138	-0.392231	0.794802	0.463082	-0.885048	-0.463271	0.045490	0.250688	-0.392007	0.885147
29249	4.769859	0.473737	9.034084	0.059409	0.075085	0.002082	-0.392391	0.795084	0.462461	-0.884913	-0.463480	0.046000	0.250915	-0.391187	0.885446
29250	4.565290	0.457939	9.082206	0.053135	0.067063	-0.000067	-0.392549	0.795335	0.461896	-0.884780	-0.463686	0.046475	0.251138	-0.390432	0.885716
29251	4.591774	0.421980	9.115098	0.042826	0.057566	-0.000565	-0.392642	0.795560	0.461428	-0.884696	-0.463808	0.046851	0.251287	-0.389828	0.885940
29252	4.587265	0.425757	9.117193	0.037713	0.041151	-0.004058	-0.392706	0.795724	0.461091	-0.884613	-0.463930	0.047209	0.251479	-0.389348	0.886096
29253	4.495781	0.446257	9.136266	0.033685	0.033795	-0.008838	-0.392666	0.795895	0.460830	-0.884585	-0.463950	0.047542	0.251640	-0.388975	0.886214
29254	4.620794	0.474289	9.073933	0.034414	0.019183	-0.018161	-0.392550	0.796039	0.460680	-0.884566	-0.463945	0.047932	0.251886	-0.388686	0.886271
29255	4.688084	0.465730	9.161779	0.030844	0.017530	-0.020173	-0.392370	0.796199	0.460557	-0.884590	-0.463863	0.048293	0.252086	-0.388456	0.886315
29256	4.670563	0.491552	9.130257	0.023568	0.021446	-0.021361	-0.392217	0.796374	0.460384	-0.884619	-0.463775	0.048601	0.252219	-0.388202	0.886388
29257	4.767361	0.478592	9.200990	0.033662	0.017168	-0.017691	-0.392058	0.796521	0.460266	-0.884625	-0.463724	0.048975	0.252446	-0.387962	0.886429
29258	5.180652	0.617485	9.055600	0.087065	0.042572	-0.015566	-0.392023	0.796744	0.459910	-0.884463	-0.463943	0.049822	0.253067	-0.387242	0.886567
29259	4.629122	0.644863	9.150905	0.069589	0.068704	-0.015214	-0.392016	0.797079	0.459336	-0.884368	-0.464050	0.050503	0.253410	-0.386424	0.886826
29260	4.674157	0.462561	9.182564	0.075309	0.050529	-0.010281	-0.392057	0.797303	0.458911	-0.884210	-0.464273	0.051220	0.253898	-0.385693	0.887004
29261	4.780641	0.512990	9.123185	0.094385	0.049343	-0.012007	-0.392030	0.797547	0.458510	-0.884039	-0.464500	0.052106	0.254535	-0.384914	0.887160
29262	4.565551	0.491395	9.150325	0.082912	0.048248	-0.011161	-0.392043	0.797773	0.458105	-0.883872	-0.464728	0.052895	0.255092	-0.384169	0.887323
29263	4.614864	0.413970	9.159866	0.076306	0.027820	-0.013635	-0.391947	0.797942	0.457893	-0.883753	-0.464871	0.053628	0.255653	-0.383645	0.887388
29264	4.538657	0.455295	9.128155	0.047427	0.018807	-0.021251	-0.391807	0.798097	0.457743	-0.883710	-0.464892	0.054146	0.256015	-0.383297	0.887434
29265	4.435532	0.458963	9.194972	0.030720	-0.002716	-0.028583	-0.391501	0.798218	0.457794	-0.883765	-0.464741	0.054543	0.256293	-0.383229	0.887384
29266	4.570106	0.327248	9.112029	0.009185	-0.010553	-0.019798	-0.391291	0.798257	0.457905	-0.883818	-0.464619	0.054717	0.256430	-0.383295	0.887315
29267	4.396906	0.461500	9.157606	-0.016776	-0.031988	-0.023700	-0.390953	0.798243	0.458219	-0.883976	-0.464325	0.054671	0.256403	-0.383681	0.887157
29268	4.687892	0.564409	9.107178	-0.031554	-0.043279	-0.024056	-0.390626	0.798173	0.458619	-0.884147	-0.464019	0.054504	0.256311	-0.384196	0.886960
29269	4.885603	0.706510	9.128634	-0.034075	-0.035373	-0.022193	-0.390292	0.798138	0.458963	-0.884343	-0.463670	0.054298	0.256144	-0.384688	0.886795
29270	5.091044	0.654686	9.178827	-0.017192	-0.016217	-0.021686	-0.390045	0.798167	0.459123	-0.884474	-0.463425	0.054246	0.256066	-0.384924	0.886715
29271	4.955565	0.978011	9.042185	0.004487	0.039179	-0.010937	-0.390002	0.798367	0.458812	-0.884527	-0.463314	0.054330	0.255949	-0.384643	0.886871
29272	4.622363	0.632753	9.114188	-0.015489	0.045553	-0.005936	-0.390053	0.798560	0.458433	-0.884593	-0.463201	0.054220	0.255644	-0.384378	0.887074
29273	4.656319	0.663784	9.138643	-0.020038	0.034040	0.002176	-0.390112	0.798679	0.458174	-0.884658	-0.463101	0.054026	0.255330	-0.384251	0.887219
29274	4.498979	0.558324	9.070787	-0.034933	0.024073	-0.001777	-0.390136	0.798775	0.457987	-0.884762	-0.462937	0.053724	0.254932	-0.384250	0.887334
29275	4.334919	0.462107	9.159855	-0.039181	0.003486	0.001905	-0.390115	0.798778	0.458000	-0.884876	-0.462761	0.053361	0.254568	-0.384456	0.887349
29276	4.422769	0.577596	9.107347	-0.036275	-0.025049	0.002001	-0.390058	0.798662	0.458251	-0.884962	-0.462634	0.053030	0.254355	-0.384850	0.887239
29277	4.249122	0.507230	9.127335	-0.048727	-0.058001	0.002977	-0.389891	0.798423	0.458810	-0.885096	-0.462429	0.052578	0.254146	-0.385591	0.886978
29278	4.677030	0.424138	9.143146	-0.041937	-0.083224	0.003017	-0.389701	0.798074	0.459577	-0.885190	-0.462294	0.052190	0.254111	-0.386474	0.886603
29279	4.774726	0.602914	9.147863	-0.047709	-0.075318	0.000840	-0.389471	0.797777	0.460288	-0.885329	-0.462075	0.051757	0.253978	-0.387348	0.886260
29280	4.783098	0.462326	9.179410	-0.056338	-0.077290	-0.001023	-0.389254	0.797472	0.461000	-0.885479	-0.461844	0.051262	0.253790	-0.388251	0.885918
29281	4.894593	0.422739	9.156769	-0.056301	-0.072448	-0.005041	-0.388979	0.797211	0.461681	-0.885663	-0.461544	0.050780	0.253569	-0.389141	0.885591
29282	4.799907	0.420436	9.186348	-0.066684	-0.070390	-0.011904	-0.388680	0.796983	0.462327	-0.885881	-0.461183	0.050246	0.253262	-0.390037	0.885285
29283	5.055904	0.343233	9.214300	-0.047742	-0.070205	-0.017235	-0.388303	0.796786	0.462982	-0.886091	-0.460818	0.049897	0.253108	-0.390869	0.884962
29284	4.945925	0.619200	9.054229	-0.029032	-0.023833	-0.014823	-0.388107	0.796746	0.463215	-0.886219	-0.460591	0.049710	0.252959	-0.391218	0.884851
29285	4.609451	0.461924	9.129828	-0.029920	-0.029879	-0.019146	-0.387815	0.796715	0.463513	-0.886391	-0.460281	0.049528	0.252805	-0.391646	0.884705
29286	4.724091	0.602005	9.079938	-0.038881	-0.033012	-0.013753	-0.387601	0.796637	0.463826	-0.886544	-0.460017	0.049245	0.252598	-0.392114	0.884557
29287	4.520464	0.440579	9.070565	-0.055125	-0.048874	-0.018393	-0.387268	0.796528	0.464292	-0.886776	-0.459613	0.048837	0.252295	-0.392810	0.884335
29288	4.582494	0.414713	9.136294	-0.058568	-0.062636	-0.019268	-0.386926	0.796360	0.464865	-0.887001	-0.459224	0.048409	0.252028	-0.393605	0.884057
29289	4.662143	0.755495	9.041321	-0.073479	-0.077514	-0.019269	-0.386513	0.796140	0.465584	-0.887282	-0.458740	0.047844	0.251672	-0.394611	0.883710
29290	4.513737	0.641150	9.003420	-0.101206	-0.088138	-0.011415	-0.386181	0.795832	0.466386	-0.887581	-0.458248	0.047003	0.251127	-0.395803	0.883332
29291	4.537883	0.700155	9.113848	-0.111344	-0.099043	-0.008363	-0.385812	0.795475	0.467299	-0.887914	-0.457699	0.046053	0.250516	-0.397154	0.882899
29292	4.716877	0.815031	9.094986	-0.124038	-0.111310	0.009773	-0.385620	0.794971	0.468315	-0.888182	-0.457292	0.044912	0.249860	-0.398630	0.882419
29293	4.777528	0.758691	9.015988	-0.130577	-0.104456	0.018514	-0.385477	0.794466	0.469287	-0.888458	-0.456876	0.043668	0.249099	-0.400109	0.881965
29294	4.884654	0.625208	9.101308	-0.120590	-0.101543	0.024955	-0.385440	0.793931	0.470223	-0.888660	-0.456593	0.042488	0.248433	-0.401492	0.881525
29295	4.910639	0.600999	9.060802	-0.094070	-0.091808	0.031579	-0.385446	0.793415	0.471088	-0.888793	-0.456425	0.041504	0.247946	-0.402702	0.881109
29296	4.972529	0.265200	9.116376	-0.092577	-0.093672	0.024147	-0.385422	0.792913	0.471951	-0.888929	-0.456244	0.040574	0.247496	-0.403893	0.880691
29297	4.949355	0.397443	9.096666	-0.055045	-0.083606	0.023118	-0.385375	0.792467	0.472739	-0.888998	-0.456164	0.039974	0.247325	-0.404859	0.880295
29298	4.881944	0.180704	9.149427	-0.063969	-0.077496	0.015373	-0.385311	0.792070	0.473456	-0.889097	-0.456025	0.039338	0.247066	-0.405791	0.879938
29299	4.971232	0.081762	9.168123	-0.032575	-0.077775	0.005329	-0.385120	0.791727	0.474185	-0.889179	-0.455894	0.039021	0.247072	-0.406608	0.879560
29300	4.877255	0.237333	9.028765	-0.026348	-0.081465	-0.005457	-0.384862	0.791407	0.474928	-0.889266	-0.455741	0.038811	0.247160	-0.407400	0.879169
29301	4.804961	-0.048970	9.088144	-0.061537	-0.089291	-0.028323	-0.384343	0.791169	0.475744	-0.889548	-0.455225	0.038400	0.246951	-0.408438	0.878745
29302	4.627535	-0.085430	9.286684	-0.067581	-0.098055	-0.058597	-0.383567	0.791023	0.476612	-0.889943	-0.454480	0.038083	0.246735	-0.409550	0.878289
29303	4.416859	0.286029	9.438323	-0.081255	-0.141331	-0.086425	-0.382403	0.790832	0.477862	-0.890495	-0.453422	0.037777	0.246548	-0.411088	0.877622
29304	4.366658	0.207731	9.542755	-0.059162	-0.158900	-0.070470	-0.381371	0.790486	0.479258	-0.890914	-0.452614	0.037593	0.246635	-0.412641	0.876869
29305	4.545561	0.768799	9.474488	0.082257	-0.292692	-0.061394	-0.380053	0.789550	0.481841	-0.890965	-0.452428	0.038603	0.248478	-0.414632	0.875408
29306	4.478824	0.631302	9.404696	0.060151	-0.288923	-0.032421	-0.379042	0.788480	0.484383	-0.890936	-0.452427	0.039283	0.250122	-0.416665	0.873973
29307	4.952095	0.627084	9.316750	0.094066	-0.351813	-0.025983	-0.377880	0.787123	0.487487	-0.890819	-0.452575	0.040225	0.252287	-0.419062	0.872203
29308	4.903730	0.395537	9.281465	0.098134	-0.382457	-0.030410	-0.376618	0.785647	0.490833	-0.890693	-0.452732	0.041228	0.254606	-0.421654	0.870278
29309	4.989052	0.254419	9.239170	0.113947	-0.418553	-0.051309	-0.375044	0.784105	0.494492	-0.890615	-0.452770	0.042467	0.257189	-0.424475	0.868144
29310	4.908280	0.318409	9.469948	0.124494	-0.453723	-0.075659	-0.373181	0.782506	0.498417	-0.890582	-0.452696	0.043917	0.259997	-0.427493	0.865824
29311	4.791348	0.494249	9.610374	0.147501	-0.516131	-0.106203	-0.370838	0.780767	0.502873	-0.890613	-0.452458	0.045720	0.263226	-0.430911	0.863150
29312	4.549731	0.950565	9.963237	0.173191	-0.629329	-0.121297	-0.368087	0.778576	0.508263	-0.890601	-0.452265	0.047819	0.267101	-0.435058	0.859873
29313	4.411731	1.185478	10.330790	0.191823	-0.776771	-0.123979	-0.364843	0.775733	0.514907	-0.890559	-0.452100	0.050096	0.271650	-0.440278	0.855781
29314	4.213471	0.978782	10.654560	0.167967	-0.976712	-0.107318	-0.361208	0.771869	0.523209	-0.890485	-0.452021	0.052084	0.276703	-0.447097	0.850611
29315	4.013259	1.012992	11.338664	0.226579	-1.228446	-0.069562	-0.357102	0.766633	0.533621	-0.890122	-0.452467	0.054369	0.283127	-0.455573	0.843974
29316	3.820089	2.702346	13.017932	0.243389	-1.567348	0.058699	-0.353132	0.759123	0.546836	-0.889206	-0.454055	0.056098	0.290879	-0.466440	0.835358
29317	2.907743	2.863001	13.173640	-0.293966	-1.988032	0.285433	-0.349795	0.748383	0.563530	-0.889085	-0.454770	0.052073	0.295247	-0.482811	0.824453
29318	3.741456	1.634880	12.511526	-0.128861	-2.489483	0.438034	-0.346254	0.734109	0.584116	-0.887932	-0.457409	0.048514	0.302794	-0.501858	0.810219
29319	4.638773	1.653748	12.694216	-0.174311	-2.866223	0.595720	-0.342692	0.716670	0.607409	-0.886436	-0.460795	0.043568	0.311115	-0.523499	0.793193
29320	2.660152	4.857954	11.731880	-0.151468	-3.174190	0.949498	-0.341058	0.695275	0.632671	-0.883667	-0.466690	0.036506	0.320643	-0.546619	0.773560
29321	2.386328	4.565513	11.826574	-0.882740	-4.090525	1.330034	-0.339509	0.666011	0.664201	-0.882020	-0.470736	0.021172	0.326764	-0.578651	0.747254
29322	3.569899	3.462939	11.607500	-0.760318	-4.692013	1.668144	-0.338634	0.630148	0.698742	-0.878879	-0.477025	0.004262	0.336003	-0.612666	0.715361
29323	5.613939	2.934690	10.827905	-0.555566	-5.153566	1.877947	-0.337407	0.588638	0.734616	-0.874454	-0.484933	-0.013064	0.348549	-0.646796	0.678357
29324	9.232735	4.045835	11.615927	-0.480687	-5.471451	1.908175	-0.334567	0.543004	0.770202	-0.869749	-0.492547	-0.030556	0.362768	-0.680106	0.637068
29325	17.171836	3.552163	13.886305	-0.604082	-5.310985	2.093488	-0.333076	0.495661	0.802110	-0.865011	-0.499182	-0.050728	0.375255	-0.710731	0.595017
29326	14.057421	8.688998	14.952231	-1.083363	-4.244257	2.536246	-0.338902	0.452238	0.825001	-0.860577	-0.503377	-0.077581	0.380202	-0.736269	0.559781
29327	10.795849	5.693909	11.968375	-2.438315	-4.194844	2.753757	-0.346737	0.406915	0.845100	-0.860349	-0.496847	-0.113762	0.373594	-0.766526	0.522365
29328	9.400557	4.119815	10.511982	-2.666480	-3.935408	2.854853	-0.356742	0.362148	0.861153	-0.860141	-0.487035	-0.151506	0.364544	-0.794762	0.485244
29329	9.116003	3.799295	9.462303	-2.789053	-3.646054	2.926040	-0.368759	0.318600	0.873219	-0.859568	-0.474430	-0.189895	0.353781	-0.820616	0.448808
29330	7.225898	4.809157	8.591828	-2.640004	-3.324659	2.907669	-0.382099	0.277346	0.881521	-0.857849	-0.461176	-0.226742	0.343651	-0.842850	0.414136
29331	2.036149	6.558226	7.154161	-2.490903	-3.275393	2.991049	-0.396549	0.235791	0.887216	-0.854680	-0.447574	-0.263057	0.335069	-0.862601	0.379011
29332	-0.316829	4.089963	5.456358	-2.592630	-3.644663	3.012903	-0.410127	0.190760	0.891856	-0.851111	-0.431445	-0.299107	0.327729	-0.881740	0.339305
29333	0.061189	5.679605	7.204608	-2.564592	-3.672957	2.294295	-0.417677	0.148342	0.896404	-0.849959	-0.412469	-0.327779	0.321116	-0.898813	0.298364
29334	25.194179	3.673437	7.657919	-2.446020	-2.066395	-0.227858	-0.409171	0.130562	0.903068	-0.858599	-0.390087	-0.332625	0.308847	-0.911474	0.271713
29335	15.110759	9.047528	13.923994	-0.650207	1.353124	-1.876599	-0.397025	0.150109	0.905449	-0.868159	-0.381495	-0.317428	0.297776	-0.912101	0.281782
29336	9.434213	11.156278	10.242358	-0.975399	2.925141	-2.930366	-0.379739	0.187771	0.905837	-0.882342	-0.367744	-0.293661	0.277975	-0.910772	0.305325
29337	2.244658	10.857338	7.671764	-1.609802	3.447585	-3.270592	-0.359679	0.230798	0.904082	-0.898715	-0.346212	-0.269161	0.250882	-0.909324	0.331947
29338	-0.230885	7.377501	4.855776	-2.057557	3.376946	-3.324430	-0.337433	0.272574	0.901023	-0.915146	-0.319251	-0.246143	0.220560	-0.907625	0.357171
29339	-0.899993	3.449199	3.315244	-2.229830	3.133489	-3.237842	-0.313935	0.310808	0.897130	-0.930287	-0.289552	-0.225223	0.189765	-0.905294	0.380042
29340	-1.635028	0.052198	2.524079	-1.830587	2.851952	-3.138846	-0.289536	0.345274	0.892723	-0.942990	-0.262825	-0.204188	0.164130	-0.900949	0.401687
29341	-0.939807	-1.234436	2.698436	-1.120199	2.542780	-3.013567	-0.264868	0.375676	0.888095	-0.953099	-0.241865	-0.181943	0.146447	-0.894633	0.422119
29342	0.768261	-0.256794	4.000722	-0.414902	2.353001	-2.869678	-0.240703	0.403401	0.882797	-0.960932	-0.227095	-0.158234	0.136646	-0.886395	0.442303
29343	2.471799	1.471718	5.532327	-0.085875	2.257938	-2.724854	-0.217404	0.429301	0.876605	-0.967301	-0.214952	-0.134628	0.130632	-0.877209	0.461995
29344	4.282458	2.484718	6.785585	-0.050314	2.311189	-2.543702	-0.195668	0.454827	0.868819	-0.972608	-0.203370	-0.112578	0.125489	-0.867048	0.482161
29345	6.207975	2.631886	7.774774	-0.124122	2.490748	-2.378302	-0.175489	0.480939	0.859012	-0.977185	-0.191132	-0.092621	0.119639	-0.855667	0.503508
29346	7.653527	1.944516	8.485975	-0.199187	2.824485	-2.258548	-0.156646	0.509143	0.846307	-0.981156	-0.178362	-0.074303	0.113118	-0.841998	0.527488
29347	7.787522	0.050583	8.508583	-0.228185	3.155883	-2.214006	-0.138300	0.539228	0.830726	-0.984680	-0.164810	-0.056952	0.106202	-0.825876	0.553760
29348	7.798448	-1.435706	8.314914	-0.027953	3.447993	-2.178564	-0.120395	0.570892	0.812150	-0.987515	-0.152589	-0.039131	0.101586	-0.806721	0.582135
29349	7.923111	-2.455002	7.857501	0.254296	3.661865	-2.078807	-0.103491	0.603069	0.790947	-0.989593	-0.142366	-0.020933	0.099979	-0.784882	0.611527
29350	8.090440	-2.813982	7.652711	0.646402	3.818361	-1.916855	-0.088391	0.635296	0.767193	-0.990764	-0.135586	-0.001873	0.102831	-0.760273	0.641413
29351	8.108722	-2.344794	7.775837	0.954210	3.892338	-1.685253	-0.075770	0.666596	0.741558	-0.991142	-0.131699	0.017114	0.109071	-0.733693	0.670670
29352	8.254483	-2.064345	8.020742	1.111014	3.876159	-1.397535	-0.066332	0.696385	0.714596	-0.990863	-0.130261	0.034965	0.117433	-0.705748	0.698663
29353	8.555487	-1.947822	8.360785	1.212804	3.808913	-1.090701	-0.060139	0.724120	0.687047	-0.990076	-0.130854	0.051251	0.127015	-0.677146	0.724803
29354	8.856799	-1.974461	8.550562	1.267654	3.715334	-0.771474	-0.057451	0.749814	0.659150	-0.988838	-0.133651	0.065847	0.137469	-0.648009	0.749123
29355	9.406962	-1.698845	8.767868	1.348410	3.582717	-0.466422	-0.057925	0.773121	0.631608	-0.987184	-0.138596	0.079114	0.148703	-0.618931	0.771240
29356	10.003509	-0.872527	8.992472	1.356457	3.476280	-0.195148	-0.061407	0.794455	0.604211	-0.985190	-0.145340	0.090975	0.160092	-0.589676	0.791614
29357	10.093467	-0.133608	9.004106	1.326143	3.382016	-0.021196	-0.066751	0.813916	0.577135	-0.983015	-0.152751	0.101725	0.170953	-0.560543	0.810288
29358	10.017125	0.566244	8.908478	1.242761	3.274923	0.053921	-0.073086	0.831757	0.550308	-0.980774	-0.160050	0.111649	0.180941	-0.531568	0.827463
29359	10.275494	0.928469	8.890647	1.155647	3.149993	0.040968	-0.079281	0.847970	0.524081	-0.978608	-0.166328	0.121080	0.189842	-0.503270	0.843018
29360	10.859443	0.581795	8.843064	1.146167	3.072045	-0.047686	-0.084825	0.863112	0.497838	-0.976405	-0.171587	0.131117	0.198592	-0.474969	0.857301
29361	11.543346	0.133453	8.586254	1.226244	3.060466	-0.198677	-0.089061	0.877538	0.471163	-0.974094	-0.175461	0.142670	0.207869	-0.446251	0.870431
29362	12.048421	0.093213	8.227857	1.359379	3.093028	-0.388600	-0.091913	0.891594	0.443410	-0.971532	-0.177939	0.156407	0.218351	-0.416411	0.882567
29363	12.533179	0.175904	7.969406	1.448613	3.132780	-0.561195	-0.093435	0.905147	0.414703	-0.968818	-0.178662	0.171674	0.229482	-0.385731	0.893616
29364	12.775446	-0.101068	7.676576	1.457350	3.134720	-0.700505	-0.094064	0.918018	0.385220	-0.966034	-0.177710	0.187612	0.240688	-0.354488	0.903553
29365	12.211780	-0.733271	7.056127	1.435160	3.084568	-0.773811	-0.094143	0.929832	0.355738	-0.963239	-0.175381	0.203500	0.251610	-0.323503	0.912161
29366	11.288183	-1.319626	6.363663	1.364168	2.929041	-0.739091	-0.094585	0.940172	0.327309	-0.960421	-0.172707	0.218549	0.262003	-0.293683	0.919296
29367	10.848387	-1.693765	5.617105	1.366310	2.671303	-0.597307	-0.095947	0.948668	0.301368	-0.957349	-0.170847	0.233012	0.272539	-0.266157	0.924599
29368	11.207715	-2.277707	5.007048	1.265817	2.307756	-0.388758	-0.098655	0.955204	0.279019	-0.954205	-0.170379	0.245893	0.282417	-0.241983	0.928270
29369	12.665931	-2.760258	4.008449	1.232007	1.950723	-0.168033	-0.102609	0.960005	0.260503	-0.950846	-0.171581	0.257782	0.292170	-0.221248	0.930423
29370	13.306258	-2.712017	3.133822	1.139584	1.609867	0.090119	-0.108250	0.963276	0.245727	-0.947363	-0.174874	0.268182	0.301305	-0.203762	0.931502
29371	13.763884	-3.181615	2.130737	1.075924	1.238146	0.309549	-0.114910	0.965161	0.235074	-0.943741	-0.179935	0.277445	0.310077	-0.189968	0.931539
29372	14.439052	-2.383501	2.077278	1.037941	0.882999	0.451355	-0.121931	0.965969	0.228115	-0.939941	-0.186203	0.286077	0.318817	-0.179532	0.930658
29373	15.476039	-2.045704	2.354742	0.892132	0.588607	0.481801	-0.128299	0.966091	0.224072	-0.936473	-0.192385	0.293269	0.326432	-0.172211	0.929401
29374	15.965718	-1.123332	2.739153	0.662471	0.447544	0.379494	-0.133297	0.966111	0.221044	-0.933797	-0.197154	0.298586	0.332047	-0.166610	0.928432
29375	14.357854	-0.370989	2.171836	0.355133	0.337967	0.185256	-0.136100	0.966300	0.218498	-0.932377	-0.199488	0.301459	0.334888	-0.162694	0.928106
29376	1.150713	21.020139	16.915518	0.123306	0.295241	-0.306395	-0.134192	0.967383	0.214855	-0.932383	-0.196694	0.303272	0.335641	-0.159631	0.928366
29377	9.382124	-2.302379	-0.824222	-8.050102	-1.921066	-0.062893	-0.127802	0.964106	0.232734	-0.956550	-0.181823	0.227931	0.262067	-0.193492	0.945453
29378	-7.329758	-6.074515	11.812640	-1.431006	0.612480	-0.698094	-0.122628	0.966515	0.225411	-0.961074	-0.172309	0.215980	0.247588	-0.190152	0.950022
29379	-1.892857	5.635196	16.167507	-3.242962	-1.235636	-1.628310	-0.103977	0.966680	0.233918	-0.970474	-0.150079	0.188830	0.217645	-0.207378	0.953743
29380	-2.492498	0.380793	4.739943	-1.196113	-0.789878	-1.809110	-0.084673	0.967536	0.238125	-0.974721	-0.130021	0.181698	0.206761	-0.216720	0.954087
29381	-4.170894	-0.780007	6.673027	-1.233695	-1.671669	-1.586718	-0.065764	0.965678	0.251280	-0.978407	-0.111857	0.173806	0.195948	-0.234424	0.952182
29382	1.332081	-10.095703	9.346396	-0.864726	-2.341307	-1.268638	-0.048805	0.961239	0.271364	-0.980798	-0.097483	0.168914	0.188820	-0.257909	0.947539
29383	10.577026	-10.880228	14.619026	0.173186	-2.215052	-0.937004	-0.035355	0.956155	0.290719	-0.980870	-0.088921	0.173169	0.191427	-0.279035	0.941007
29384	10.988974	-10.777413	15.387635	0.248203	-1.430584	-0.407921	-0.028566	0.952417	0.303455	-0.980525	-0.085710	0.176705	0.194306	-0.292497	0.936317
29385	6.510049	-8.692491	14.028843	0.315878	-1.137711	0.148193	-0.027742	0.948889	0.314388	-0.979870	-0.088016	0.179185	0.197698	-0.303089	0.932230
29386	8.186202	-2.533301	13.352342	0.618906	-1.182439	0.401666	-0.029267	0.944869	0.326137	-0.978519	-0.093694	0.183635	0.204068	-0.313757	0.927315
29387	9.535607	5.689113	12.678455	0.499609	-0.853844	0.325404	-0.030637	0.941833	0.334682	-0.977396	-0.098306	0.187171	0.209185	-0.321382	0.923556
29388	5.399357	7.724652	9.783738	0.196680	-0.571136	0.068356	-0.030067	0.939905	0.340109	-0.976969	-0.099548	0.188735	0.211250	-0.326601	0.921252
29389	1.513616	6.246934	7.803758	0.085998	-0.735426	-0.139253	-0.027102	0.937603	0.346650	-0.976834	-0.098480	0.189993	0.212276	-0.333470	0.918551
29390	2.502620	3.726580	8.840732	-0.085512	-1.078896	-0.137481	-0.023433	0.934074	0.356309	-0.977056	-0.096866	0.189680	0.211689	-0.343689	0.914913
29391	5.097864	1.921365	10.335685	-0.357572	-1.106168	0.104309	-0.022081	0.930099	0.366646	-0.977790	-0.096545	0.186026	0.208421	-0.354395	0.911573
29392	6.560826	0.221256	10.698402	-0.530932	-0.925986	0.291768	-0.022990	0.926481	0.375640	-0.978823	-0.097310	0.180099	0.203412	-0.363544	0.909098
29393	6.305512	0.681239	10.408716	-0.452997	-0.689002	0.306914	-0.024561	0.923637	0.382481	-0.979668	-0.098441	0.174812	0.199115	-0.370410	0.907276
29394	5.764101	1.087131	10.216145	-0.448593	-0.531031	0.253453	-0.025959	0.921393	0.387764	-0.980494	-0.099066	0.169756	0.194826	-0.375794	0.905992
29395	5.763650	0.882387	10.093761	-0.360619	-0.419144	0.187700	-0.026944	0.919607	0.391914	-0.981147	-0.099385	0.165750	0.191376	-0.380059	0.904948
29396	5.193420	1.493432	9.910232	-0.268041	-0.274411	0.148642	-0.027840	0.918399	0.394675	-0.981622	-0.099687	0.162728	0.188793	-0.382891	0.904296
29397	4.747305	1.417342	9.686363	-0.279320	-0.232247	0.124248	-0.028578	0.917368	0.397014	-0.982117	-0.099710	0.159702	0.186091	-0.385350	0.903812
29398	4.974663	0.883222	9.752872	-0.240991	-0.152725	0.103843	-0.029274	0.916660	0.398594	-0.982539	-0.099689	0.157097	0.183740	-0.387035	0.903573
29399	4.367632	1.305250	9.600881	-0.161396	-0.096307	0.092130	-0.029956	0.916179	0.399647	-0.982813	-0.099862	0.155263	0.182158	-0.388127	0.903424
29400	4.567094	1.547673	9.491418	-0.129272	-0.069413	0.092054	-0.030693	0.915803	0.400453	-0.983026	-0.100160	0.153713	0.180880	-0.388937	0.903333
29401	4.490345	1.546694	9.424942	-0.102114	-0.009542	0.090693	-0.031521	0.915659	0.400717	-0.983188	-0.100548	0.152418	0.179854	-0.389176	0.903435
29402	3.886207	1.973830	9.191324	-0.096667	0.010909	0.100985	-0.032492	0.915586	0.400808	-0.983336	-0.101053	0.151126	0.178872	-0.389219	0.903611
29403	4.159364	1.734262	9.160933	-0.154273	-0.013492	0.114998	-0.033552	0.915401	0.401143	-0.983579	-0.101460	0.149262	0.177334	-0.389547	0.903773
29404	4.339785	1.202804	9.512625	-0.179121	0.023107	0.123769	-0.034769	0.915351	0.401154	-0.983859	-0.101852	0.147132	0.175536	-0.389563	0.904117
29405	4.167993	1.042916	9.542327	-0.191252	0.047646	0.124169	-0.036028	0.915394	0.400944	-0.984155	-0.102199	0.144896	0.173613	-0.389371	0.904571
29406	4.028092	0.977416	9.237823	-0.154171	0.036610	0.105187	-0.037084	0.915414	0.400801	-0.984389	-0.102518	0.143065	0.172053	-0.389239	0.904926
29407	2.703844	2.189804	8.478344	-0.126116	-0.022567	0.084943	-0.037836	0.915223	0.401167	-0.984580	-0.102759	0.141575	0.170796	-0.389624	0.904998
29408	3.278336	2.054190	9.100108	-0.275260	-0.264137	0.096475	-0.038297	0.914077	0.403728	-0.985016	-0.102522	0.138682	0.168158	-0.392367	0.904307
29409	4.487284	0.588799	9.452074	-0.336796	-0.247842	0.120523	-0.039026	0.912962	0.406173	-0.985536	-0.102252	0.135141	0.164911	-0.395025	0.903748
29410	3.940333	1.159326	9.324466	-0.316019	-0.211806	0.132585	-0.039947	0.911973	0.408300	-0.986006	-0.102167	0.131732	0.161851	-0.397325	0.903293
29411	4.335654	1.457003	9.281297	-0.323505	-0.260812	0.133679	-0.040801	0.910781	0.410870	-0.986477	-0.102051	0.128255	0.158742	-0.400080	0.902628
29412	4.445161	1.472540	9.125159	-0.282154	-0.221665	0.111686	-0.041514	0.909763	0.413048	-0.986881	-0.101892	0.125235	0.156021	-0.402430	0.902057
29413	3.785196	1.935050	9.179370	-0.264219	-0.244644	0.125255	-0.042327	0.908631	0.415450	-0.987243	-0.101919	0.122326	0.153491	-0.404972	0.901353
29414	4.134587	2.048137	8.846759	-0.317492	-0.247597	0.153055	-0.043422	0.907454	0.417902	-0.987666	-0.101977	0.118815	0.150435	-0.407588	0.900689
29415	3.031555	2.624687	8.614143	-0.385566	-0.290398	0.200379	-0.044925	0.906045	0.420791	-0.988156	-0.102171	0.114495	0.146730	-0.410663	0.899903
29416	3.717969	2.335183	8.802661	-0.552569	-0.413989	0.260693	-0.046866	0.904054	0.424841	-0.988838	-0.102207	0.108412	0.141432	-0.415018	0.898753
29417	4.729896	1.431047	9.196437	-0.655768	-0.414847	0.284977	-0.049067	0.902015	0.428907	-0.989614	-0.101999	0.101298	0.135120	-0.419481	0.897651
29418	4.794403	0.698323	9.461238	-0.676276	-0.366002	0.272855	-0.051246	0.900180	0.432494	-0.990374	-0.101565	0.094046	0.128584	-0.423511	0.896719
29419	4.452224	1.228041	9.212461	-0.560173	-0.353040	0.246551	-0.053200	0.898410	0.435923	-0.990955	-0.101354	0.087948	0.123196	-0.427302	0.895676
29420	4.356261	1.379827	9.090741	-0.681280	-0.363701	0.255250	-0.055256	0.896575	0.439432	-0.991639	-0.100678	0.080722	0.116615	-0.431297	0.894642
29421	4.504105	0.590293	9.506722	-0.754352	-0.368454	0.259569	-0.057371	0.894700	0.442967	-0.992350	-0.099688	0.072825	0.109316	-0.435401	0.893575
29422	4.781302	0.141697	9.537850	-0.729602	-0.367940	0.248546	-0.059411	0.892828	0.446462	-0.992982	-0.098677	0.065196	0.102264	-0.439455	0.892424
29423	4.949198	0.254209	9.428116	-0.741362	-0.338540	0.230511	-0.061324	0.891089	0.449665	-0.993579	-0.097415	0.057544	0.095081	-0.443249	0.891342
29424	6.854794	-0.130409	9.941790	-0.795492	-0.261568	0.179484	-0.062832	0.889736	0.452130	-0.994198	-0.095433	0.049638	0.087313	-0.446388	0.890570
29425	4.028982	0.593650	8.945552	-0.485471	-0.075123	0.180775	-0.064523	0.889210	0.452927	-0.994499	-0.094825	0.044490	0.082510	-0.447565	0.890437
29426	5.676096	-0.207558	9.358472	-0.688956	-0.102044	0.133102	-0.065729	0.888610	0.453930	-0.994962	-0.092876	0.037743	0.075698	-0.449162	0.890238
29427	4.638403	-0.894406	9.351550	-0.321995	-0.069061	0.064376	-0.066277	0.888221	0.454611	-0.995163	-0.091955	0.034578	0.072517	-0.450120	0.890019
29428	4.845800	1.165916	9.255622	-0.219766	-0.125147	0.073276	-0.066880	0.887572	0.455789	-0.995275	-0.091571	0.032278	0.070387	-0.451477	0.889502
29429	4.523244	0.317040	9.128959	-0.317154	-0.060312	0.067338	-0.067467	0.887218	0.456390	-0.995453	-0.090690	0.029144	0.067247	-0.452348	0.889303
29430	4.501247	0.176890	9.016919	-0.153397	-0.063389	0.069042	-0.068076	0.886851	0.457013	-0.995512	-0.090565	0.027455	0.065738	-0.453093	0.889036
29431	4.575545	0.648880	9.319028	-0.119743	-0.113309	0.072210	-0.068680	0.886252	0.458083	-0.995545	-0.090616	0.026054	0.064600	-0.454253	0.888527
29432	4.683570	0.344956	8.936619	-0.038753	-0.075395	0.076575	-0.069356	0.885822	0.458813	-0.995521	-0.091075	0.025349	0.064241	-0.455000	0.888171
29433	4.494502	0.357657	9.243762	-0.045335	-0.094543	0.081844	-0.070070	0.885297	0.459716	-0.995498	-0.091548	0.024564	0.063833	-0.455925	0.887726
29434	4.723553	0.175416	9.129460	0.011077	-0.097719	0.080016	-0.070767	0.884760	0.460643	-0.995438	-0.092263	0.024285	0.063987	-0.456823	0.887253
29435	4.579838	0.064926	9.298485	-0.001636	-0.121886	0.068695	-0.071332	0.884119	0.461784	-0.995395	-0.092818	0.023947	0.064034	-0.457950	0.886669
29436	4.656703	-0.139891	9.292686	0.019618	-0.145029	0.053377	-0.071733	0.883387	0.463122	-0.995349	-0.093336	0.023865	0.064308	-0.459256	0.885973
29437	4.557522	0.012528	9.416546	0.042919	-0.198891	0.041065	-0.071973	0.882414	0.464937	-0.995296	-0.093851	0.024049	0.064855	-0.461019	0.885017
29438	4.383098	0.510415	9.513543	0.027191	-0.269126	0.022042	-0.071981	0.881131	0.467362	-0.995267	-0.094128	0.024176	0.065294	-0.463409	0.883735
29439	4.533251	0.263807	9.261898	0.042226	-0.309417	0.011440	-0.071850	0.879662	0.470140	-0.995235	-0.094379	0.024490	0.065914	-0.466140	0.882252
29440	4.492371	0.776180	9.495240	0.103234	-0.351574	0.009638	-0.071676	0.877991	0.473280	-0.995164	-0.094904	0.025345	0.067169	-0.469175	0.880547
29441	4.678522	0.697443	9.473167	0.096580	-0.391326	0.025162	-0.071620	0.876104	0.476772	-0.995085	-0.095534	0.026070	0.068388	-0.472561	0.878640
29442	4.426200	0.409846	9.578400	0.137590	-0.424003	0.021647	-0.071506	0.874054	0.480537	-0.994978	-0.096334	0.027165	0.070036	-0.476181	0.876554
29443	3.693363	-0.639776	10.437750	0.254596	-0.500118	0.023917	-0.071346	0.871619	0.484964	-0.994784	-0.097715	0.029274	0.072903	-0.480346	0.874044
29444	5.092397	0.705754	9.902695	0.475734	-0.705260	-0.014302	-0.070636	0.868208	0.491147	-0.994439	-0.099848	0.033485	0.078112	-0.486051	0.870433
29445	4.449261	0.016043	10.115516	0.418843	-0.702631	-0.030493	-0.069726	0.864783	0.497282	-0.994128	-0.101586	0.037269	0.082747	-0.491764	0.866788
29446	4.654337	0.276703	10.243845	0.502553	-0.839089	-0.077080	-0.068208	0.860689	0.504541	-0.993756	-0.103369	0.041993	0.088297	-0.498526	0.862366
29447	4.400515	0.083864	10.142600	0.555687	-0.993208	-0.133941	-0.065927	0.855816	0.513061	-0.993343	-0.104966	0.047448	0.094461	-0.506518	0.857040
29448	4.171990	0.252274	10.497300	0.505321	-1.192854	-0.183202	-0.062913	0.849893	0.523187	-0.992974	-0.105949	0.052705	0.100225	-0.516195	0.850587
29449	3.832491	0.923969	10.926786	0.607105	-1.435743	-0.185407	-0.059541	0.842574	0.535279	-0.992463	-0.107503	0.058824	0.107107	-0.527743	0.842624
29450	3.906118	2.307366	11.700602	0.552871	-1.746935	-0.069578	-0.056890	0.833290	0.549901	-0.991898	-0.109839	0.063827	0.113587	-0.541814	0.832788
29451	2.974187	3.812208	14.071870	0.229231	-2.229884	0.185171	-0.056111	0.820775	0.568489	-0.991534	-0.112588	0.064686	0.117097	-0.560046	0.820144
29452	2.896722	1.391403	13.258365	-0.103520	-2.870739	0.378219	-0.056461	0.803915	0.592059	-0.991446	-0.115036	0.061650	0.117669	-0.583514	0.803533
29453	2.721742	2.691750	12.429606	0.328144	-3.506208	0.582880	-0.057977	0.782256	0.620253	-0.990724	-0.121573	0.060720	0.122905	-0.610979	0.782048
29454	0.815595	4.948332	13.393432	-0.463855	-4.545000	1.091056	-0.063217	0.752307	0.655772	-0.990631	-0.127003	0.050201	0.121051	-0.646455	0.753288
29455	1.495704	3.551886	12.940338	-0.500393	-5.394100	1.517313	-0.071710	0.714327	0.696129	-0.990216	-0.134750	0.036269	0.119711	-0.686717	0.717000
29456	3.110938	3.624487	12.274537	-0.288558	-6.280580	1.899753	-0.082909	0.667132	0.740311	-0.989097	-0.145815	0.020630	0.121711	-0.730529	0.671948
29457	6.710061	5.159328	12.588190	0.004506	-7.024871	2.240089	-0.096234	0.610751	0.785953	-0.987090	-0.160124	0.003568	0.128029	-0.775464	0.618276
29458	9.898957	4.171657	12.194584	0.316856	-7.565371	2.360151	-0.109378	0.546442	0.830324	-0.984241	-0.176308	-0.013624	0.138947	-0.818729	0.557114
29459	26.061022	6.350984	17.563917	1.260270	-7.352267	2.502498	-0.122927	0.480171	0.868519	-0.979457	-0.199665	-0.028242	0.159852	-0.854149	0.494851
29460	21.112061	9.804966	18.253008	0.422441	-5.706168	3.071750	-0.143454	0.424299	0.894087	-0.974665	-0.217226	-0.053295	0.171606	-0.879081	0.444712
29461	15.170443	6.931963	16.694762	-0.487710	-5.387520	3.364647	-0.166794	0.368818	0.914414	-0.970301	-0.226191	-0.085757	0.175203	-0.901560	0.395592
29462	11.168110	4.670755	15.300081	-0.772085	-4.814946	3.429406	-0.191484	0.317124	0.928852	-0.965515	-0.230942	-0.120194	0.176395	-0.919836	0.350410
29463	3.557624	4.365641	12.706887	-0.666923	-4.374457	3.359630	-0.216017	0.268702	0.938689	-0.959865	-0.234566	-0.153745	0.178873	-0.934226	0.308588
29464	-3.005717	6.937726	9.721506	-1.086529	-4.600558	3.492838	-0.241159	0.217246	0.945858	-0.953826	-0.232867	-0.189705	0.179047	-0.947933	0.263373
29465	-6.554247	10.479403	7.036818	-2.173945	-5.418188	2.588620	-0.256271	0.159595	0.953339	-0.951215	-0.216935	-0.219384	0.171800	-0.963052	0.207403
29466	23.406733	7.480318	9.617605	-3.097137	-6.248312	0.393517	-0.249647	0.098178	0.963347	-0.955336	-0.187444	-0.228468	0.158143	-0.977356	0.140588
29467	20.462196	9.495871	15.010374	-2.514718	-2.435706	-0.881192	-0.237527	0.075788	0.968420	-0.961245	-0.161986	-0.223090	0.139963	-0.983878	0.111326
29468	10.565525	4.957056	10.647535	-2.716485	-0.051749	-1.870230	-0.219329	0.078080	0.972522	-0.968975	-0.133843	-0.207783	0.113941	-0.987922	0.105013
29469	6.964638	4.470443	11.758383	-2.671395	1.479281	-2.372428	-0.197676	0.095503	0.975604	-0.976588	-0.105334	-0.187564	0.084851	-0.989840	0.114089
29470	1.422705	2.779737	9.444511	-2.563401	2.219614	-2.427330	-0.175369	0.119744	0.977193	-0.982927	-0.077434	-0.166909	0.055682	-0.989780	0.131279
29471	-1.353841	0.698818	7.301812	-2.343320	2.341593	-2.215715	-0.154485	0.144285	0.977403	-0.987578	-0.051299	-0.148520	0.028711	-0.988206	0.150417
29472	-1.486768	-0.780410	5.836738	-1.834284	2.425297	-1.919234	-0.135859	0.169061	0.976197	-0.990702	-0.030287	-0.132633	0.007142	-0.985140	0.171604
29473	-1.142385	-1.043625	5.577315	-1.238892	2.657666	-1.603547	-0.119899	0.195501	0.973347	-0.992749	-0.015153	-0.119245	-0.008564	-0.980586	0.195900
29474	-0.783295	-0.185860	6.079616	-0.723154	2.933061	-1.306713	-0.106448	0.224380	0.968670	-0.994137	-0.005435	-0.107988	-0.018965	-0.974487	0.223643
29475	-0.231637	1.142082	6.359023	-0.429554	3.219083	-1.043755	-0.095297	0.255601	0.962074	-0.995096	0.001275	-0.098907	-0.026507	-0.966781	0.254226
29476	0.558729	2.039111	6.282686	-0.310000	3.487537	-0.849283	-0.085757	0.289201	0.953419	-0.995781	0.006473	-0.091530	-0.032642	-0.957247	0.287426
29477	1.361545	2.191754	6.110116	-0.245966	3.746337	-0.730283	-0.077119	0.324739	0.942654	-0.996291	0.011093	-0.085329	-0.038166	-0.945739	0.322679
29478	2.845571	2.047290	6.172680	-0.128116	4.001530	-0.703968	-0.068449	0.362306	0.929542	-0.996760	0.014614	-0.079095	-0.042241	-0.931945	0.360132
29479	3.984661	2.120505	6.222981	0.008919	4.311629	-0.784904	-0.058707	0.401966	0.913771	-0.997264	0.017571	-0.071801	-0.044917	-0.915486	0.399835
29480	4.324995	2.204438	6.123235	0.122959	4.562897	-0.942753	-0.047193	0.443215	0.895172	-0.997827	0.020341	-0.062676	-0.045987	-0.896184	0.441292
29481	4.824355	2.325373	6.097920	0.204389	4.729165	-1.132876	-0.033675	0.484793	0.873981	-0.998379	0.023830	-0.051686	-0.045884	-0.874304	0.483204
29482	5.199029	2.196618	5.924541	0.218913	4.824384	-1.311213	-0.018367	0.526141	0.850199	-0.998826	0.028473	-0.039199	-0.044832	-0.849921	0.525000
29483	5.475601	2.084870	5.796925	0.223398	4.834340	-1.425827	-0.001959	0.566110	0.824328	-0.999068	0.034435	-0.026022	-0.043117	-0.823610	0.565515
29484	6.106817	1.950543	5.864022	0.216187	4.773759	-1.410399	0.014143	0.604328	0.796610	-0.999078	0.040846	-0.013250	-0.040545	-0.795688	0.604348
29485	7.087980	1.745183	6.219910	0.245098	4.664566	-1.276519	0.028745	0.640176	0.767691	-0.998897	0.046920	-0.001724	-0.037124	-0.766795	0.640818
29486	7.879312	1.394324	6.606902	0.308758	4.562749	-1.060117	0.040919	0.674053	0.737549	-0.998639	0.051477	0.008359	-0.032332	-0.736887	0.675242
29487	8.325895	0.782444	7.048562	0.413698	4.457444	-0.821000	0.050459	0.705753	0.706659	-0.998383	0.054201	0.017158	-0.026192	-0.706382	0.707346
29488	8.816995	0.224744	7.642724	0.614829	4.363754	-0.589182	0.057286	0.735665	0.674918	-0.998203	0.054117	0.025738	-0.017589	-0.675180	0.737443
29489	9.601677	0.131411	8.465435	0.875033	4.315088	-0.408714	0.061919	0.763866	0.642397	-0.998061	0.051458	0.035013	-0.006311	-0.643320	0.765572
29490	10.309445	0.155471	9.374587	1.146514	4.337521	-0.313034	0.064987	0.790976	0.608387	-0.997854	0.046628	0.045967	0.007991	-0.610068	0.792308
29491	11.554838	0.027143	10.714847	1.395689	4.391723	-0.320500	0.067503	0.816840	0.572901	-0.997411	0.040977	0.059097	0.024797	-0.575407	0.817491
29492	13.198007	-0.533613	11.450760	1.607505	4.551189	-0.399278	0.069890	0.842099	0.534775	-0.996582	0.035268	0.074708	0.044051	-0.538169	0.841685
29493	13.894962	-1.470735	10.880354	1.859830	4.764488	-0.453657	0.071829	0.866617	0.493778	-0.995236	0.029552	0.092909	0.065925	-0.498099	0.864611
29494	14.044713	-1.879920	9.586812	2.174522	4.941029	-0.412635	0.072017	0.890119	0.450002	-0.993226	0.022753	0.113947	0.091188	-0.455160	0.885728
29495	13.727908	-1.656083	8.158556	2.498839	4.986807	-0.306565	0.069847	0.911635	0.405023	-0.990376	0.014739	0.137616	0.119486	-0.410737	0.903891
29496	13.719092	-1.289176	7.130947	2.654148	4.818045	-0.145633	0.064782	0.930389	0.360803	-0.986707	0.005721	0.162411	0.149042	-0.366528	0.918392
29497	14.915943	-0.780272	6.452203	2.750938	4.526589	0.022730	0.057181	0.946007	0.319062	-0.982211	-0.003950	0.187738	0.178862	-0.324122	0.928953
29498	16.130854	-0.621097	5.837668	2.651751	4.113053	0.205115	0.047204	0.958537	0.281031	-0.977192	-0.014003	0.211897	0.207046	-0.284623	0.936013
29499	17.476382	-0.729152	4.953989	2.558495	3.640263	0.464877	0.034702	0.968149	0.247957	-0.971750	-0.025267	0.234654	0.233446	-0.249096	0.939923
29500	18.384319	-1.392169	4.780508	2.491447	3.159581	0.785339	0.019303	0.975286	0.220101	-0.965824	-0.038724	0.256291	0.258480	-0.217526	0.941207
29501	18.957662	-3.290035	4.460229	2.462214	2.727434	1.051088	0.001857	0.980345	0.197280	-0.959281	-0.053975	0.277247	0.282446	-0.189762	0.940327
29502	20.137003	-4.456146	4.161510	2.624686	2.399971	1.210435	-0.016788	0.983851	0.178199	-0.951440	-0.070509	0.299650	0.307375	-0.164515	0.937259
29503	21.133855	-5.162473	3.506932	2.749333	2.212412	1.276158	-0.035904	0.986216	0.161523	-0.942312	-0.087234	0.323169	0.332804	-0.140602	0.932455
29504	21.078954	-4.201459	2.810388	2.779585	2.054198	1.254065	-0.054735	0.987677	0.146619	-0.932136	-0.103183	0.347095	0.357947	-0.117671	0.926298
29505	19.470602	-3.063954	1.320891	2.378726	1.785723	1.191605	-0.072312	0.988282	0.134420	-0.922628	-0.117475	0.367366	0.378853	-0.097455	0.920311
29506	15.799693	-1.824950	-0.166673	1.754777	1.181587	1.123544	-0.087162	0.987963	0.127798	-0.914947	-0.130136	0.382015	0.394048	-0.083632	0.915277
29507	13.911560	-1.039537	0.035004	0.913851	0.186829	1.026004	-0.097215	0.986726	0.130078	-0.910377	-0.140977	0.389023	0.402197	-0.080601	0.911998
29508	7.697485	1.744319	3.025928	0.331265	-0.352127	0.697968	-0.102085	0.985429	0.136042	-0.908344	-0.148096	0.391125	0.405574	-0.083645	0.910227
29509	-8.393749	25.482508	31.047409	-3.825903	-0.819396	0.087247	-0.099646	0.984561	0.143913	-0.923134	-0.145452	0.355904	0.371341	-0.097387	0.923375
29510	8.999706	-16.125441	1.339206	-9.359691	-1.473703	-0.785527	-0.087377	0.983995	0.155306	-0.954596	-0.127278	0.269345	0.284801	-0.124720	0.950439
29511	-21.394925	0.356438	27.670514	0.260354	0.899962	-1.634881	-0.074286	0.987026	0.142343	-0.955185	-0.111438	0.274234	0.286538	-0.115593	0.951070
29512	0.303182	6.926040	-0.994227	-1.504262	-2.269994	-2.558786	-0.043371	0.986633	0.157082	-0.960903	-0.084233	0.263760	0.273466	-0.139501	0.951712
29513	-7.240077	4.729460	3.284886	-1.033380	-1.918002	-1.679307	-0.022000	0.985025	0.171000	-0.964239	-0.066092	0.256663	0.264121	-0.159239	0.951253
29514	8.874156	-1.338532	8.333697	-2.513282	-3.016309	-1.177885	-0.002958	0.980433	0.196829	-0.970722	-0.050092	0.234927	0.240189	-0.190371	0.951876
29515	8.157080	-5.240848	12.225620	-1.381611	-2.006392	-1.011707	0.011612	0.976844	0.213637	-0.973909	-0.037377	0.223840	0.226642	-0.210662	0.950923
29516	3.639574	-4.448405	13.090553	-0.762424	-2.078952	-1.192554	0.027909	0.972610	0.230761	-0.975370	-0.024033	0.219260	0.218801	-0.231197	0.947984
29517	1.102990	-5.563194	10.848701	-0.216301	-2.303544	-1.025794	0.042970	0.967207	0.250329	-0.975481	-0.013516	0.219667	0.215847	-0.253630	0.942911
29518	4.993120	-9.571365	13.305089	-0.419536	-2.702914	-0.423504	0.052906	0.960035	0.274834	-0.976173	-0.008279	0.216837	0.210447	-0.279758	0.936722
29519	9.475592	-12.231447	13.997586	-0.083487	-2.479168	0.072911	0.057432	0.952784	0.298169	-0.976391	-0.008689	0.215835	0.208235	-0.303525	0.929791
29520	8.789711	-4.717890	14.191693	0.078844	-1.929703	0.493370	0.056671	0.946682	0.317147	-0.976513	-0.013581	0.215032	0.207874	-0.321884	0.923677
29521	6.854404	1.222295	11.093932	0.115129	-1.632354	0.548092	0.054761	0.941196	0.333394	-0.976582	-0.019089	0.214297	0.208060	-0.337322	0.918110
29522	7.197155	9.685525	12.126120	-0.130792	-1.624168	0.490959	0.053370	0.935473	0.349344	-0.977123	-0.023201	0.211403	0.205867	-0.352635	0.912835
29523	10.408748	10.159631	10.936806	-1.199928	-1.356947	0.610109	0.050156	0.930437	0.363003	-0.979838	-0.024538	0.198280	0.193395	-0.365629	0.910447
29524	6.604678	4.967558	8.983339	-1.173514	-0.956970	0.519597	0.046900	0.926747	0.372748	-0.982293	-0.024972	0.185682	0.181388	-0.374856	0.909165
29525	5.170480	1.359096	9.624484	-1.152262	-1.069465	0.489280	0.044011	0.922542	0.383378	-0.984540	-0.025073	0.173357	0.169542	-0.385080	0.907176
29526	6.204228	-0.455213	10.280793	-0.800924	-0.968495	0.436603	0.041361	0.918636	0.392934	-0.986053	-0.025923	0.164399	0.161208	-0.394253	0.904752
29527	5.844485	-0.048393	10.140411	-0.642439	-0.792410	0.341366	0.039289	0.915374	0.400683	-0.987208	-0.026451	0.157229	0.154522	-0.401735	0.902625
29528	5.652685	-0.368535	10.388430	-0.600340	-0.662602	0.246865	0.037903	0.912604	0.407085	-0.988215	-0.026227	0.150809	0.148305	-0.408003	0.900855
29529	5.841350	-1.209194	10.392016	-0.535561	-0.495064	0.172184	0.036967	0.910508	0.411836	-0.989061	-0.025554	0.145274	0.142797	-0.412701	0.899604
29530	5.675785	-1.392205	10.359241	-0.448022	-0.335705	0.141422	0.036088	0.909057	0.415105	-0.989746	-0.024933	0.140647	0.138206	-0.415924	0.898836
29531	5.034735	-0.499033	9.968854	-0.369133	-0.197443	0.127572	0.035138	0.908183	0.417096	-0.990297	-0.024508	0.136791	0.134453	-0.417856	0.898509
29532	5.078938	0.493577	9.757524	-0.324493	-0.126918	0.096222	0.034402	0.907604	0.418416	-0.990765	-0.023972	0.133457	0.131156	-0.419143	0.898397
29533	4.956544	0.410168	9.713047	-0.291960	-0.054790	0.067275	0.033850	0.907338	0.419037	-0.991168	-0.023312	0.130544	0.128216	-0.419755	0.898535
29534	4.528259	1.334211	9.323922	-0.199718	0.011375	0.040260	0.033484	0.907351	0.419038	-0.991440	-0.022786	0.128562	0.126200	-0.419755	0.898821
29535	2.940349	2.285831	8.597250	-0.229914	-0.009323	0.062950	0.032915	0.907278	0.419242	-0.991750	-0.022347	0.126224	0.123889	-0.419938	0.899057
29536	2.101942	2.581934	8.304170	-0.329311	-0.182945	0.118772	0.032007	0.906457	0.421084	-0.992194	-0.021986	0.122747	0.120523	-0.421726	0.898677
29537	3.375647	2.497335	8.420991	-0.459066	-0.361729	0.200290	0.030491	0.904861	0.424615	-0.992801	-0.021810	0.117770	0.115826	-0.425149	0.897682
29538	4.708842	1.447761	9.302166	-0.518082	-0.409593	0.207234	0.028942	0.903042	0.428576	-0.993452	-0.021420	0.112223	0.110522	-0.429018	0.896509
29539	5.426102	0.445049	9.555471	-0.439801	-0.317700	0.170161	0.027639	0.901617	0.431651	-0.993978	-0.021016	0.107543	0.106034	-0.432024	0.895607
29540	4.779385	0.545217	9.610314	-0.362696	-0.264552	0.140569	0.026562	0.900416	0.434217	-0.994397	-0.020660	0.103672	0.102319	-0.434538	0.894823
29541	4.848993	1.117866	9.382407	-0.461050	-0.188478	0.159487	0.025207	0.899542	0.436106	-0.994901	-0.020042	0.098846	0.097657	-0.436374	0.894450
29542	4.289885	1.462769	9.141834	-0.571641	-0.174923	0.189073	0.023537	0.898715	0.437902	-0.995491	-0.019191	0.092892	0.091887	-0.438114	0.894211
29543	4.565174	1.350319	9.181815	-0.639508	-0.199335	0.201541	0.021749	0.897780	0.439906	-0.996105	-0.018147	0.086283	0.085446	-0.440069	0.893889
29544	4.789313	1.043323	9.218519	-0.599412	-0.172556	0.191420	0.020029	0.896960	0.441658	-0.996642	-0.017170	0.080068	0.079401	-0.441778	0.893604
29545	4.338991	0.887670	9.330724	-0.613616	-0.191994	0.182869	0.018394	0.896058	0.443556	-0.997146	-0.016047	0.073770	0.073220	-0.443647	0.893206
29546	4.545398	0.897385	9.045755	-0.584744	-0.209536	0.178956	0.016801	0.895072	0.445604	-0.997590	-0.014998	0.067739	0.067314	-0.445668	0.892664
29547	4.294443	1.512718	8.864503	-0.519831	-0.257602	0.177250	0.015240	0.893873	0.448060	-0.997956	-0.014215	0.062302	0.062059	-0.448094	0.891830
29548	5.651005	0.291715	9.859742	-0.587715	-0.308754	0.150269	0.013966	0.892439	0.450952	-0.998327	-0.012863	0.056375	0.056112	-0.450985	0.890766
29549	4.588316	-0.294143	8.987710	-0.358638	-0.060181	0.107494	0.012967	0.892132	0.451590	-0.998537	-0.012158	0.052689	0.052496	-0.451612	0.890669
29550	4.580880	1.306581	9.365559	-0.402501	-0.310354	0.095426	0.012213	0.890688	0.454452	-0.998753	-0.011132	0.048660	0.048400	-0.454480	0.889441
29551	4.779192	-0.259023	9.763323	-0.469898	-0.232612	0.064853	0.011713	0.889599	0.456593	-0.998978	-0.009523	0.044181	0.043652	-0.456644	0.888578
29552	4.929175	-1.206611	8.901974	-0.248085	-0.165465	-0.006895	0.011895	0.888815	0.458111	-0.999084	-0.008275	0.041996	0.041117	-0.458191	0.887902
29553	4.766751	1.695037	9.453660	-0.183297	-0.346662	-0.030635	0.012380	0.887201	0.461217	-0.999154	-0.007114	0.040504	0.039217	-0.461328	0.886362
29554	4.976452	0.455126	8.784781	-0.355890	-0.230408	-0.025418	0.012763	0.886110	0.463300	-0.999285	-0.005191	0.037456	0.035595	-0.463447	0.885410
29555	5.142934	0.686160	8.945010	-0.198552	-0.254087	-0.018974	0.013080	0.884907	0.465584	-0.999351	-0.004055	0.035781	0.033551	-0.465750	0.884280
29556	4.950912	0.674020	9.050323	-0.237069	-0.200387	-0.025148	0.013438	0.883944	0.467399	-0.999425	-0.002673	0.033790	0.031118	-0.467584	0.883401
29557	5.214799	0.590997	8.623484	-0.166630	-0.174503	-0.009770	0.013628	0.883104	0.468979	-0.999475	-0.001760	0.032359	0.029402	-0.469174	0.882616
29558	4.910754	1.157319	8.789700	-0.112019	-0.124585	0.009738	0.013609	0.882490	0.470135	-0.999509	-0.001267	0.031313	0.028229	-0.470330	0.882039
29559	4.851572	0.618523	9.040141	-0.109352	-0.083590	0.012321	0.013549	0.882073	0.470919	-0.999541	-0.000815	0.030285	0.027097	-0.471113	0.881657
29560	4.737401	0.260676	9.010044	-0.004082	-0.095279	0.022166	0.013396	0.881594	0.471818	-0.999545	-0.000939	0.030133	0.027008	-0.472007	0.881181
29561	4.691120	0.702694	9.156271	0.119235	-0.080386	0.032199	0.013136	0.881190	0.472579	-0.999517	-0.001740	0.031026	0.028162	-0.472758	0.880742
29562	4.729206	0.279350	9.208997	0.117682	-0.122225	0.036865	0.012845	0.880582	0.473719	-0.999489	-0.002569	0.031877	0.029287	-0.473886	0.880099
29563	4.740525	-0.046345	9.318906	0.165965	-0.105225	0.036924	0.012547	0.880058	0.474700	-0.999444	-0.003635	0.033157	0.030905	-0.474852	0.879523
29564	4.119936	0.092343	9.704930	0.113189	-0.166272	0.005520	0.012587	0.879238	0.476216	-0.999409	-0.004169	0.034114	0.031980	-0.476364	0.878667
29565	4.976054	0.253456	9.122438	0.120084	-0.279768	-0.018143	0.012899	0.877879	0.478708	-0.999368	-0.004538	0.035250	0.033117	-0.478861	0.877266
29566	4.848072	0.205555	9.345019	0.093072	-0.248664	-0.020579	0.013230	0.876658	0.480932	-0.999335	-0.004752	0.036153	0.033979	-0.481090	0.876012
29567	4.731217	0.460544	9.345564	0.105920	-0.262909	-0.018673	0.013547	0.875367	0.483269	-0.999296	-0.005053	0.037166	0.034976	-0.483432	0.874683
29568	4.392006	0.293856	9.458000	0.123716	-0.300390	-0.005605	0.013752	0.873883	0.485943	-0.999252	-0.005552	0.038263	0.036135	-0.486105	0.873153
29569	3.990688	-0.093461	9.846227	0.242308	-0.468704	-0.023228	0.014199	0.871572	0.490063	-0.999159	-0.006486	0.040485	0.038464	-0.490225	0.870747
29570	5.027567	0.780594	9.488794	0.307964	-0.458582	-0.010896	0.014532	0.869287	0.494094	-0.999035	-0.007856	0.043205	0.041439	-0.494245	0.868334
29571	4.650661	0.467462	9.522900	0.349991	-0.566812	-0.023493	0.015051	0.866449	0.499039	-0.998881	-0.009345	0.046351	0.044824	-0.499178	0.865339
29572	4.828537	0.223777	9.563305	0.365095	-0.600743	-0.038665	0.015758	0.863410	0.504256	-0.998706	-0.010792	0.049688	0.048343	-0.504387	0.862123
29573	5.148087	0.539728	9.367781	0.447262	-0.682420	-0.082340	0.016966	0.859933	0.510126	-0.998468	-0.012305	0.053950	0.052671	-0.510259	0.858406
29574	4.875146	0.297309	9.336020	0.459770	-0.723858	-0.118846	0.018590	0.856204	0.516304	-0.998196	-0.013596	0.058488	0.057097	-0.516460	0.854406
29575	4.663838	0.771506	9.593338	0.557355	-0.850408	-0.160281	0.020739	0.851778	0.523492	-0.997832	-0.015080	0.064067	0.062465	-0.523685	0.849619
29576	4.434005	0.214096	9.891332	0.545227	-1.010668	-0.216682	0.023599	0.846448	0.531949	-0.997430	-0.016069	0.069818	0.067645	-0.532229	0.843893
29577	4.102870	0.389945	10.230749	0.681955	-1.182633	-0.227860	0.026750	0.840107	0.541761	-0.996890	-0.017765	0.076771	0.074120	-0.542130	0.837019
29578	3.558224	0.519900	10.578688	0.740432	-1.426395	-0.219173	0.030080	0.832303	0.553504	-0.996255	-0.019942	0.084129	0.081059	-0.553962	0.828586
29579	2.773676	1.049430	11.257785	0.927398	-1.753081	-0.096452	0.032580	0.822459	0.567890	-0.995434	-0.024302	0.092304	0.089717	-0.568304	0.817913
29580	2.698206	1.667297	12.061434	0.859951	-2.301719	0.033850	0.034434	0.809129	0.586621	-0.994643	-0.029500	0.099075	0.097470	-0.586890	0.803779
29581	2.757981	2.568304	13.022276	0.633953	-2.895206	0.215228	0.035235	0.791705	0.609887	-0.994084	-0.034971	0.102828	0.102737	-0.609902	0.785789
29582	0.722934	1.888354	12.176557	0.146258	-3.761448	0.509587	0.034070	0.767997	0.639547	-0.994112	-0.039818	0.100773	0.102859	-0.639214	0.762119
29583	1.296936	0.949956	12.462423	0.028456	-4.830888	0.650815	0.032578	0.735926	0.676278	-0.994302	-0.044853	0.096708	0.101504	-0.675575	0.730271
29584	0.953149	0.934611	13.627605	-0.029661	-5.820833	0.807929	0.030418	0.694976	0.718390	-0.994587	-0.050394	0.090865	0.099351	-0.717265	0.689681
29585	1.840841	2.770185	15.251757	0.076758	-6.780652	1.022040	0.026989	0.644193	0.764387	-0.994807	-0.057763	0.083805	0.098140	-0.762679	0.639288
29586	3.526112	4.171374	15.887762	0.130603	-7.989322	1.203197	0.022854	0.580522	0.813924	-0.994980	-0.066138	0.075110	0.097434	-0.811554	0.576096
29587	9.140081	3.674035	14.737532	0.481387	-8.974872	1.233853	0.019492	0.504540	0.863168	-0.994767	-0.076819	0.067367	0.100297	-0.859964	0.500402
29588	22.160070	4.014440	16.655053	1.297323	-9.384366	1.126230	0.018257	0.420836	0.906953	-0.993605	-0.093459	0.063367	0.111430	-0.902310	0.416438
29589	33.683270	7.339949	20.448602	1.765529	-8.211220	1.323692	0.014971	0.344064	0.938827	-0.991716	-0.114688	0.057845	0.127574	-0.931916	0.339497
29590	26.489954	7.729784	19.572360	1.099169	-7.104780	1.712265	0.007457	0.275008	0.961413	-0.990448	-0.130346	0.044967	0.137683	-0.952565	0.271409
29591	17.506436	6.899061	18.797869	0.816092	-5.970240	2.123546	-0.005065	0.214764	0.976653	-0.989321	-0.143345	0.026391	0.145666	-0.966089	0.213197
29592	9.189179	5.581255	14.408677	0.544084	-5.152447	2.357612	-0.020673	0.161289	0.986691	-0.988205	-0.153074	0.004317	0.151733	-0.974964	0.162551
29593	-7.132381	6.245915	5.077848	0.192900	-5.154481	2.909891	-0.041461	0.106267	0.993473	-0.987010	-0.158824	-0.024203	0.155215	-0.981571	0.111472
29594	-9.329509	2.577561	-4.686090	-1.264960	-8.324857	2.388497	-0.052429	0.020588	0.998412	-0.987796	-0.147900	-0.048821	0.146661	-0.988788	0.028091
29595	36.864106	4.186491	13.473150	-0.175455	-6.361574	1.504909	-0.057861	-0.044577	0.997329	-0.987231	-0.145959	-0.063799	0.148413	-0.988286	-0.035562
29596	24.671664	5.193497	13.561295	-0.938307	-4.034791	0.813617	-0.059976	-0.085519	0.994530	-0.988111	-0.136205	-0.071301	0.141558	-0.986983	-0.076333
29597	13.272788	5.609914	11.136190	-0.769790	-0.570317	0.261947	-0.061735	-0.091540	0.993886	-0.989020	-0.128351	-0.073254	0.134272	-0.987495	-0.082611
29598	6.367254	4.544427	8.319197	-1.217868	1.270846	-0.048573	-0.062799	-0.078832	0.994908	-0.990606	-0.116409	-0.071751	0.121473	-0.990068	-0.070781
29599	2.082454	2.671704	7.071323	-1.197293	2.200257	-0.169246	-0.063604	-0.056875	0.996353	-0.992094	-0.104629	-0.069305	0.108189	-0.992884	-0.049770
29600	-1.500230	1.450410	5.507570	-1.030370	2.514525	-0.133148	-0.064774	-0.031653	0.997398	-0.993233	-0.094512	-0.067502	0.096402	-0.995020	-0.025317
29601	-4.113078	0.702497	3.685956	-0.661029	2.487007	-0.101973	-0.066013	-0.006845	0.997795	-0.993914	-0.087924	-0.066360	0.088185	-0.996104	-0.000999
29602	-4.498071	1.131184	3.000522	-0.303951	2.390020	-0.034997	-0.067642	0.017096	0.997563	-0.994199	-0.084962	-0.065957	0.083627	-0.996238	0.022744
29603	-2.960743	1.496555	3.118984	-0.030953	2.378261	0.043431	-0.069997	0.040699	0.996717	-0.994199	-0.084639	-0.066364	0.081660	-0.995580	0.046387
29604	-1.490637	2.024702	3.637022	0.131155	2.526514	0.095325	-0.072929	0.065859	0.995160	-0.994024	-0.086063	-0.067150	0.081224	-0.994111	0.071742
29605	-0.609399	2.529697	3.843425	0.206732	2.754453	0.103552	-0.076153	0.093074	0.992743	-0.993784	-0.088168	-0.067967	0.081203	-0.991748	0.099210
29606	0.167938	2.943603	3.975110	0.150786	3.006783	0.049750	-0.079006	0.122912	0.989268	-0.993623	-0.089785	-0.068199	0.080439	-0.988348	0.129221
29607	1.570544	3.290578	4.254822	0.050171	3.286695	-0.043953	-0.081136	0.155316	0.984527	-0.993624	-0.090187	-0.067658	0.078283	-0.983739	0.161643
29608	3.177206	3.015857	4.614175	-0.120779	3.649229	-0.196083	-0.081901	0.191397	0.978090	-0.993876	-0.088734	-0.065859	0.074185	-0.977494	0.197492
29609	4.478796	2.553816	4.533658	-0.209115	4.108814	-0.440845	-0.080413	0.231730	0.969451	-0.994388	-0.085732	-0.061989	0.068748	-0.968995	0.237324
29610	4.370056	2.405293	4.231459	-0.342754	4.617062	-0.678367	-0.076614	0.276897	0.957841	-0.995144	-0.080775	-0.056247	0.061795	-0.957499	0.281741
29611	3.840159	2.210316	3.920227	-0.446161	4.961541	-0.902217	-0.070454	0.324705	0.943188	-0.996070	-0.073784	-0.049003	0.053680	-0.942933	0.328627
29612	3.579818	1.899066	3.510380	-0.566695	5.136806	-1.065324	-0.062307	0.373561	0.925511	-0.997055	-0.064836	-0.040953	0.044708	-0.925337	0.376500
29613	3.282970	1.523582	3.030290	-0.621325	5.158008	-1.148321	-0.052879	0.421424	0.905321	-0.997969	-0.054543	-0.032901	0.035514	-0.905222	0.423452
29614	3.213391	1.377636	3.075117	-0.614991	5.046183	-1.118360	-0.043244	0.467225	0.883080	-0.998699	-0.044136	-0.025554	0.027036	-0.883036	0.468526
29615	3.723303	0.679231	3.385433	-0.600388	4.848208	-0.996200	-0.034371	0.509824	0.859592	-0.999226	-0.033995	-0.019792	0.019131	-0.859607	0.510598
29616	4.791814	-0.393383	3.932414	-0.441614	4.703787	-0.807082	-0.027033	0.550039	0.834701	-0.999545	-0.026035	-0.015215	0.013362	-0.834733	0.550493
29617	6.095816	-1.763849	4.547086	-0.120102	4.620347	-0.580938	-0.021749	0.588106	0.808492	-0.999703	-0.021698	-0.011109	0.011009	-0.808493	0.588403
29618	8.192081	-2.140720	5.683133	0.371013	4.652619	-0.367073	-0.018634	0.625259	0.780195	-0.999730	-0.022474	-0.005866	0.013866	-0.780094	0.625509
29619	9.742054	-1.377273	6.674488	0.804616	4.777213	-0.205441	-0.017375	0.661808	0.749472	-0.999628	-0.027261	0.000898	0.021025	-0.749178	0.662035
29620	10.330383	-0.343894	7.346390	1.033607	4.891481	-0.085246	-0.017772	0.697764	0.716107	-0.999374	-0.034303	0.008621	0.030580	-0.715506	0.697937
29621	10.497397	0.694430	7.883546	1.112637	4.948011	-0.026424	-0.019234	0.732266	0.680747	-0.998984	-0.041832	0.016772	0.040759	-0.679732	0.732327
29622	10.564238	1.340525	8.285571	1.098799	4.931689	-0.060127	-0.020887	0.764987	0.643707	-0.998489	-0.048690	0.025465	0.050822	-0.642203	0.764848
29623	10.331752	1.638361	8.968501	0.982177	4.835042	-0.162778	-0.021891	0.795174	0.605986	-0.997984	-0.053495	0.034146	0.059569	-0.604017	0.794742
29624	10.924113	1.028808	9.437522	0.869730	4.694014	-0.291061	-0.021965	0.822863	0.567815	-0.997492	-0.056265	0.042952	0.067292	-0.565447	0.822035
29625	12.317372	-0.123473	9.577765	0.918655	4.610964	-0.367749	-0.021546	0.848226	0.529196	-0.996919	-0.058162	0.052636	0.075426	-0.526431	0.846866
29626	13.565008	-0.890749	9.801406	1.180146	4.601164	-0.417669	-0.021109	0.871834	0.489346	-0.996048	-0.060575	0.064956	0.086273	-0.486041	0.869667
29627	14.036691	-1.390034	9.901733	1.458585	4.618284	-0.460813	-0.020776	0.893588	0.448406	-0.994790	-0.063248	0.079949	0.099802	-0.444409	0.890247
29628	13.740820	-2.000603	9.665629	1.799411	4.603683	-0.459077	-0.021206	0.913411	0.406486	-0.992932	-0.066732	0.098152	0.116779	-0.401532	0.908369
29629	13.443819	-1.855200	9.950075	2.164181	4.500715	-0.418059	-0.022733	0.930791	0.364844	-0.990278	-0.071058	0.119580	0.137229	-0.358578	0.923358
29630	14.096768	-1.611694	10.435588	2.416906	4.299006	-0.349521	-0.025676	0.945593	0.324338	-0.986762	-0.075943	0.143293	0.160129	-0.316365	0.935025
29631	15.277409	-1.183726	10.477399	2.563314	4.061369	-0.230968	-0.030349	0.957789	0.285867	-0.982418	-0.081291	0.168065	0.184209	-0.275740	0.943416
29632	16.832068	-1.009074	9.286094	2.585037	3.767290	-0.033064	-0.037421	0.967502	0.250079	-0.977349	-0.087598	0.192653	0.208299	-0.237205	0.948865
29633	17.992771	-0.925615	7.383187	2.603177	3.408540	0.265263	-0.047466	0.974734	0.218269	-0.971510	-0.095847	0.216755	0.232198	-0.201762	0.951512
29634	18.183959	-1.958706	5.505976	2.512732	2.951928	0.608656	-0.060542	0.979622	0.191507	-0.965054	-0.106453	0.239454	0.254961	-0.170317	0.951833
29635	18.407953	-3.561234	3.635213	2.546032	2.385491	0.858151	-0.075098	0.982402	0.171014	-0.957699	-0.118834	0.262090	0.277800	-0.144097	0.949770
29636	20.300251	-4.147277	2.414453	2.613165	1.869954	1.040011	-0.090406	0.983594	0.156111	-0.949270	-0.132513	0.285179	0.301187	-0.122409	0.945676
29637	21.571155	-3.491463	1.892498	2.539209	1.498065	1.182858	-0.106211	0.983637	0.145523	-0.940185	-0.146985	0.307324	0.323685	-0.104177	0.940412
29638	18.641310	-1.339792	2.418840	2.175177	1.301084	1.252379	-0.122225	0.982960	0.137296	-0.931509	-0.161357	0.325968	0.342567	-0.088051	0.935358
29639	15.689931	13.239727	10.799311	-0.054878	0.240297	1.353703	-0.135594	0.980898	0.139478	-0.929966	-0.174562	0.323561	0.341728	-0.085837	0.935871
29640	11.208668	-0.930140	-3.656619	-4.954659	-0.993075	1.033894	-0.142060	0.978121	0.151978	-0.944351	-0.179940	0.275361	0.296683	-0.104403	0.949252
29641	1.257336	-4.652226	15.869734	-4.818091	-0.504906	1.059057	-0.150691	0.975628	0.159503	-0.956024	-0.184885	0.227673	0.251614	-0.118181	0.960585
29642	2.400848	-10.830554	14.026871	-4.925111	-0.251638	0.032523	-0.150374	0.975257	0.162055	-0.967218	-0.179057	0.180075	0.204637	-0.129664	0.970212
29643	-6.830390	2.797220	14.492262	-0.738283	0.071124	-0.396634	-0.146629	0.976050	0.160705	-0.969302	-0.174187	0.173528	0.197364	-0.130328	0.971628
29644	-8.080128	-0.334023	3.864036	-1.325554	-1.132497	-0.600427	-0.138577	0.975520	0.170755	-0.972707	-0.166471	0.161640	0.186109	-0.143695	0.971965
29645	-2.460409	-3.985463	4.274285	0.024758	-1.982090	-0.737686	-0.127634	0.973680	0.188829	-0.973653	-0.159278	0.163188	0.188969	-0.163026	0.968356
29646	5.661361	-1.656850	10.620159	0.189008	-2.238378	-0.893654	-0.114602	0.971174	0.209016	-0.974381	-0.150877	0.166788	0.193515	-0.184547	0.963584
29647	5.365812	-3.776299	11.105319	0.141577	-1.759220	-0.921931	-0.102136	0.969125	0.224421	-0.975113	-0.142164	0.170130	0.196782	-0.201460	0.959526
29648	3.339952	-4.061107	10.767353	0.410325	-1.778974	-0.668052	-0.092021	0.966318	0.240337	-0.974950	-0.136517	0.175599	0.202495	-0.218158	0.954674
29649	3.494259	-5.505743	10.560827	0.413183	-1.902826	-0.202083	-0.086097	0.962265	0.258133	-0.974291	-0.135464	0.180020	0.208195	-0.235997	0.949189
29650	5.827635	-4.108916	11.675413	0.686336	-1.876640	0.143097	-0.083457	0.957472	0.276194	-0.972722	-0.138472	0.186110	0.216440	-0.253128	0.942910
29651	7.459186	1.057075	12.424420	0.738897	-1.607806	0.258482	-0.082373	0.952915	0.291836	-0.970886	-0.142821	0.192307	0.224933	-0.267498	0.936936
29652	6.233486	5.856969	11.315996	0.558312	-1.472607	0.243058	-0.081320	0.948515	0.306115	-0.969425	-0.146616	0.196769	0.231520	-0.280754	0.931437
29653	7.281500	9.246536	11.038044	0.178114	-1.473719	0.194589	-0.079724	0.943980	0.320228	-0.968863	-0.148926	0.197802	0.234411	-0.294488	0.926460
29654	6.495527	8.921650	9.996136	-0.055858	-1.325498	0.016065	-0.076715	0.939955	0.332566	-0.968992	-0.148862	0.197216	0.234880	-0.307124	0.922229
29655	4.423499	5.836238	9.217191	-0.362929	-1.299198	-0.112349	-0.072542	0.936037	0.344342	-0.969933	-0.146626	0.194244	0.232310	-0.319898	0.918530
29656	4.067003	1.802748	10.443830	-0.610584	-1.418890	-0.024256	-0.068988	0.931416	0.357357	-0.971362	-0.144356	0.188726	0.227369	-0.334103	0.914701
29657	6.062025	-0.983168	11.613431	-1.003712	-1.360313	0.341543	-0.069228	0.926271	0.370445	-0.973372	-0.144059	0.178308	0.218527	-0.348237	0.911580
29658	6.684889	-2.386371	11.156547	-1.062452	-1.083941	0.578983	-0.072496	0.921576	0.381369	-0.975241	-0.145598	0.166449	0.208922	-0.359860	0.909314
29659	6.335270	0.341284	10.343803	-1.005024	-0.863291	0.628268	-0.076817	0.917494	0.390260	-0.976834	-0.147667	0.154885	0.199735	-0.369322	0.907583
29660	5.704626	0.830980	9.965056	-1.108656	-0.718305	0.603799	-0.081267	0.913894	0.397734	-0.978524	-0.149004	0.142437	0.189437	-0.377617	0.906377
29661	5.807918	0.250755	9.846010	-1.010257	-0.629105	0.553016	-0.085474	0.910655	0.404229	-0.979937	-0.150153	0.131060	0.180047	-0.384917	0.905219
29662	5.652944	-0.298869	9.988451	-0.958640	-0.503555	0.492272	-0.089362	0.907937	0.409469	-0.981200	-0.150857	0.120368	0.171058	-0.391014	0.904349
29663	5.783699	-0.014929	10.031203	-0.855079	-0.380015	0.410583	-0.092713	0.905808	0.413420	-0.982262	-0.151172	0.110940	0.162988	-0.395801	0.903757
29664	5.443234	-0.096431	10.068276	-0.768763	-0.295232	0.335918	-0.095489	0.904101	0.416513	-0.983181	-0.151100	0.102582	0.155680	-0.399712	0.903324
29665	5.468880	-0.731970	10.013573	-0.732409	-0.197425	0.275829	-0.097857	0.902879	0.418610	-0.984037	-0.150609	0.094807	0.148646	-0.402650	0.903204
29666	5.314810	-0.515949	10.036738	-0.585851	-0.111390	0.222352	-0.099830	0.902068	0.419889	-0.984682	-0.150196	0.088563	0.142955	-0.404616	0.903244
29667	5.313530	0.025934	9.754701	-0.520829	-0.036938	0.172387	-0.101432	0.901646	0.420413	-0.985247	-0.149596	0.083125	0.137841	-0.405779	0.903517
29668	5.013099	0.135719	9.565684	-0.474419	0.036076	0.142425	-0.102832	0.901553	0.420272	-0.985754	-0.148897	0.078216	0.133093	-0.406242	0.904021
29669	4.611402	0.340999	9.349452	-0.427163	0.067345	0.117122	-0.104031	0.901638	0.419794	-0.986200	-0.148173	0.073853	0.128791	-0.406318	0.904610
29670	4.349829	0.543412	9.168077	-0.386362	0.052914	0.100932	-0.105042	0.901676	0.419459	-0.986595	-0.147456	0.069909	0.124888	-0.406493	0.905078
29671	4.433669	0.917180	9.139413	-0.353211	0.021739	0.092851	-0.105941	0.901613	0.419369	-0.986939	-0.146812	0.066315	0.121358	-0.406866	0.905391
29672	4.236124	1.116955	9.027618	-0.310445	0.022282	0.082192	-0.106728	0.901556	0.419292	-0.987233	-0.146233	0.063135	0.118234	-0.407201	0.905653
29673	3.909344	1.073778	8.972795	-0.295373	-0.022906	0.061063	-0.107260	0.901359	0.419580	-0.987520	-0.145534	0.060195	0.115321	-0.407887	0.905720
29674	3.747708	1.151107	8.966076	-0.275713	-0.114565	0.029976	-0.107375	0.900820	0.420707	-0.987812	-0.144621	0.057550	0.112685	-0.409400	0.905369
29675	3.698358	0.918525	8.941917	-0.316700	-0.184912	0.023704	-0.107360	0.900011	0.422437	-0.988146	-0.143490	0.054576	0.109734	-0.411570	0.904748
29676	3.844238	0.927891	9.037429	-0.356798	-0.284299	0.040007	-0.107397	0.898752	0.425100	-0.988498	-0.142319	0.051158	0.106478	-0.414716	0.903699
29677	4.487729	1.187403	9.004654	-0.378843	-0.287468	0.074678	-0.107792	0.897434	0.427777	-0.988821	-0.141367	0.047410	0.103021	-0.417884	0.902640
29678	4.551548	1.127928	9.277834	-0.394950	-0.284325	0.099361	-0.108436	0.896074	0.430458	-0.989123	-0.140545	0.043401	0.099389	-0.421069	0.901567
29679	4.755103	0.749601	9.114121	-0.384030	-0.239621	0.113572	-0.109283	0.894886	0.432707	-0.989380	-0.139895	0.039442	0.095830	-0.423802	0.900671
29680	4.242647	0.919218	9.102275	-0.365541	-0.249785	0.128202	-0.110266	0.893617	0.435075	-0.989593	-0.139430	0.035577	0.092455	-0.426624	0.899691
29681	4.589256	0.708865	9.200551	-0.390001	-0.275640	0.135680	-0.111317	0.892232	0.437643	-0.989802	-0.138927	0.031471	0.088879	-0.429677	0.898598
29682	4.501450	0.588174	9.131811	-0.377736	-0.268095	0.141524	-0.112434	0.890851	0.440163	-0.989982	-0.138503	0.027440	0.085409	-0.432668	0.897499
29683	4.530323	0.506797	9.108840	-0.382955	-0.282672	0.143574	-0.113577	0.889408	0.442779	-0.990146	-0.138073	0.023364	0.081916	-0.435762	0.896326
29684	4.636802	-0.114928	9.998368	-0.413777	-0.305904	0.113593	-0.114408	0.887885	0.445613	-0.990356	-0.137216	0.019137	0.078136	-0.439127	0.895021
29685	6.456302	-1.443135	8.459784	-0.191525	-0.117581	-0.009466	-0.114182	0.887364	0.446708	-0.990521	-0.136244	0.017458	0.076353	-0.440480	0.894509
29686	3.591238	1.113393	10.596963	0.021142	-0.276627	-0.020112	-0.113721	0.886139	0.449249	-0.990536	-0.136102	0.017719	0.076845	-0.442982	0.893231
29687	5.012728	-0.222637	8.126694	-0.151408	-0.089126	-0.003990	-0.113572	0.885732	0.450088	-0.990662	-0.135350	0.016379	0.075426	-0.444025	0.892834
29688	4.866218	-0.042473	9.548847	-0.113109	-0.147448	-0.001690	-0.113396	0.885049	0.451474	-0.990757	-0.134775	0.015359	0.074441	-0.445560	0.892152
29689	4.507065	-0.076249	9.236122	0.002724	-0.070424	0.007341	-0.113375	0.884708	0.452148	-0.990753	-0.134807	0.015344	0.074528	-0.446227	0.891811
29690	4.990610	0.258211	9.073348	-0.044195	-0.115568	0.012608	-0.113366	0.884145	0.453250	-0.990780	-0.134664	0.014876	0.074189	-0.447384	0.891259
29691	4.801355	0.091321	9.257743	0.009083	-0.052318	0.026374	-0.113547	0.883858	0.453764	-0.990749	-0.134893	0.014830	0.074318	-0.447882	0.890999
29692	5.000937	0.302884	9.191248	0.006308	-0.055344	0.034912	-0.113803	0.883534	0.454332	-0.990713	-0.135173	0.014711	0.074411	-0.448438	0.890711
29693	4.800730	0.343999	9.064195	0.006808	-0.020991	0.043735	-0.114180	0.883363	0.454569	-0.990664	-0.135545	0.014567	0.074482	-0.448662	0.890592
29694	4.739943	0.228430	9.082753	0.017643	-0.000829	0.051905	-0.114645	0.883259	0.454653	-0.990599	-0.136027	0.014471	0.074627	-0.448720	0.890551
29695	4.678212	0.416158	9.090473	0.065508	-0.014259	0.053676	-0.115125	0.883105	0.454832	-0.990495	-0.136749	0.014804	0.075272	-0.448805	0.890454
29696	4.637070	0.418742	8.908850	0.114141	0.014080	0.061824	-0.115699	0.883054	0.454785	-0.990345	-0.137752	0.015524	0.076356	-0.448598	0.890466
29697	4.346642	0.323591	9.173863	0.172975	-0.005013	0.075124	-0.116398	0.882910	0.454886	-0.990131	-0.139145	0.016716	0.078054	-0.448450	0.890393
29698	3.914159	0.611667	9.345153	0.233633	-0.062716	0.079053	-0.117083	0.882490	0.455525	-0.989862	-0.140836	0.018420	0.080410	-0.448750	0.890032
29699	4.258099	0.400849	9.109459	0.296121	-0.176872	0.085901	-0.117746	0.881556	0.457159	-0.989525	-0.142879	0.020656	0.083528	-0.449938	0.889145
29700	3.945906	0.286044	9.808485	0.359631	-0.233970	0.105161	-0.118539	0.880322	0.459327	-0.989101	-0.145372	0.023356	0.087334	-0.451553	0.887960
29701	4.689982	0.433755	9.463169	0.378440	-0.322583	0.117093	-0.119366	0.878673	0.462262	-0.988631	-0.148070	0.026168	0.091440	-0.453882	0.886357
29702	4.294657	0.049446	9.805041	0.392413	-0.332756	0.123384	-0.120227	0.876947	0.465306	-0.988124	-0.150886	0.029056	0.095689	-0.456287	0.884673
29703	4.513324	0.202237	9.763350	0.370081	-0.416073	0.117205	-0.120935	0.874846	0.469061	-0.987628	-0.153561	0.031773	0.099826	-0.459416	0.882594
29704	4.843263	-0.067573	9.999913	0.343562	-0.506727	0.124089	-0.121597	0.872290	0.473630	-0.987137	-0.156178	0.034203	0.103805	-0.463378	0.880060
29705	3.008083	-1.139423	11.097810	0.331941	-0.514233	0.045524	-0.121460	0.869808	0.478207	-0.986738	-0.158074	0.036898	0.107686	-0.467384	0.877472
29706	4.781733	0.074360	10.362906	0.728278	-0.956337	-0.074291	-0.119612	0.865396	0.486603	-0.986022	-0.160808	0.043614	0.115993	-0.474585	0.872534
29707	4.516752	0.595516	10.829989	0.495001	-0.889168	-0.086347	-0.117660	0.861267	0.494343	-0.985543	-0.162383	0.048341	0.121908	-0.481509	0.867922
29708	4.346150	0.585049	10.669754	0.760452	-1.184262	-0.162308	-0.114519	0.855751	0.504554	-0.984780	-0.164635	0.055714	0.130745	-0.490495	0.861580
29709	3.461632	1.777221	11.753063	0.667253	-1.425392	-0.162010	-0.110958	0.848930	0.516726	-0.984071	-0.166519	0.062261	0.138900	-0.501586	0.853884
29710	2.809323	2.605219	12.968539	0.842185	-1.938475	-0.004499	-0.108076	0.839044	0.533221	-0.982871	-0.170719	0.069420	0.149278	-0.516585	0.843123
29711	2.934669	6.192329	16.012612	0.422884	-2.601314	0.413323	-0.108118	0.824596	0.555295	-0.981786	-0.176341	0.070704	0.156224	-0.537537	0.828643
29712	2.408841	2.647342	15.096364	-0.155900	-3.411848	0.788254	-0.110443	0.804341	0.583813	-0.981179	-0.181856	0.064935	0.158400	-0.565653	0.809287
29713	0.595140	7.515767	14.129658	0.416012	-4.319087	1.356863	-0.116662	0.776605	0.619091	-0.978969	-0.194961	0.060087	0.167363	-0.599061	0.783017
29714	-0.144694	5.969677	14.498137	-1.009265	-5.848462	2.193714	-0.128379	0.735797	0.664923	-0.977964	-0.205232	0.038290	0.164637	-0.645355	0.745930
29715	2.059666	4.772213	12.393228	0.026317	-6.839797	2.774485	-0.143833	0.683977	0.715184	-0.974151	-0.225069	0.019333	0.174189	-0.693916	0.698669
29716	3.245015	6.053590	12.752244	0.350717	-7.572608	3.181727	-0.160948	0.622013	0.766287	-0.968670	-0.248343	-0.001871	0.189138	-0.742581	0.642496
29717	9.800702	2.291145	12.883955	0.854743	-8.544129	3.189760	-0.174572	0.548119	0.817979	-0.961613	-0.273531	-0.021936	0.211720	-0.790409	0.574829
29718	24.564059	4.811465	19.498498	1.349294	-7.964481	3.379600	-0.188920	0.473932	0.860057	-0.952433	-0.301707	-0.042956	0.239127	-0.827262	0.508386
29719	19.388560	9.936868	20.186254	0.372064	-6.184887	3.898462	-0.210561	0.409739	0.887569	-0.943737	-0.322028	-0.075224	0.255000	-0.853470	0.454492
29720	12.630391	6.130185	16.499594	-1.139885	-5.846603	4.084181	-0.233952	0.345803	0.908673	-0.937588	-0.327568	-0.116738	0.257284	-0.879272	0.400856
29721	8.298858	4.781456	15.167074	-1.270311	-5.396274	4.093677	-0.258235	0.284285	0.923308	-0.930805	-0.329126	-0.158994	0.258685	-0.900477	0.349606
29722	4.243176	5.379259	13.199830	-1.111970	-4.872227	4.033358	-0.282882	0.226745	0.931968	-0.922796	-0.329330	-0.199973	0.261582	-0.916585	0.302401
29723	-4.960299	6.957348	11.000851	-1.181068	-4.809874	4.164420	-0.308418	0.168624	0.936186	-0.913608	-0.326625	-0.242149	0.264949	-0.929990	0.254793
29724	-6.734321	6.672539	9.040947	-1.738022	-5.379277	3.944061	-0.329941	0.105594	0.938077	-0.905651	-0.315772	-0.282991	0.266337	-0.942941	0.199817
29725	11.991880	12.310675	8.634877	-2.447013	-5.476087	1.197830	-0.326287	0.049934	0.943951	-0.908206	-0.293451	-0.298408	0.262103	-0.954669	0.141100
29726	23.094837	7.511126	12.687910	-1.033599	-1.584691	-1.092916	-0.312122	0.037977	0.949283	-0.914403	-0.283120	-0.289327	0.257773	-0.958332	0.123094
29727	13.023465	9.972286	15.044864	-0.765405	1.378276	-2.793226	-0.289862	0.058946	0.955251	-0.924760	-0.274397	-0.263677	0.246576	-0.959808	0.134049
29728	4.201520	12.129575	11.863832	-1.077134	3.012154	-3.511636	-0.264221	0.097349	0.959537	-0.937067	-0.261351	-0.231518	0.228238	-0.960322	0.160277
29729	-3.408113	8.449014	6.744975	-1.852993	3.088295	-3.632461	-0.236550	0.136085	0.962042	-0.950176	-0.239272	-0.199787	0.203002	-0.961369	0.185904
29730	-2.078859	4.724979	4.406335	-2.164586	2.738236	-3.497212	-0.208197	0.170421	0.963126	-0.962075	-0.213130	-0.170257	0.176255	-0.962046	0.208330
29731	-0.640765	-0.281924	3.729621	-2.053842	2.535131	-3.276741	-0.180616	0.201327	0.962728	-0.971824	-0.187249	-0.143165	0.151447	-0.961460	0.229474
29732	-0.063676	-2.599468	4.607426	-1.275513	2.501633	-3.048698	-0.154362	0.230854	0.960666	-0.978767	-0.168446	-0.116792	0.134858	-0.958297	0.251954
29733	1.553563	-2.314329	6.102886	-0.518548	2.641222	-2.746823	-0.130812	0.260518	0.956566	-0.983370	-0.156707	-0.091799	0.125985	-0.952667	0.276684
29734	2.886747	-0.680196	7.429565	0.043297	3.006794	-2.454800	-0.110287	0.292900	0.949761	-0.986281	-0.150346	-0.068162	0.122828	-0.944249	0.305463
29735	3.239270	0.461162	8.113929	0.205496	3.396699	-2.168347	-0.092982	0.327960	0.940105	-0.988241	-0.145507	-0.046982	0.121384	-0.933418	0.337633
29736	3.430705	0.531096	8.185033	0.213027	3.733019	-1.888931	-0.078731	0.365364	0.927529	-0.989607	-0.140948	-0.028479	0.120328	-0.920132	0.372664
29737	4.049379	0.131044	8.129284	0.233084	4.025909	-1.630105	-0.067378	0.404319	0.912133	-0.990525	-0.136762	-0.012546	0.119672	-0.904335	0.409702
29738	5.171259	-0.563953	8.213243	0.281379	4.280438	-1.420973	-0.058351	0.444654	0.893800	-0.991080	-0.133258	0.001593	0.119814	-0.885734	0.448464
29739	6.090888	-1.712239	7.937912	0.422403	4.564898	-1.295826	-0.050969	0.486270	0.872321	-0.991284	-0.130880	0.015039	0.121482	-0.863951	0.488703
29740	6.548634	-2.318650	7.915467	0.653638	4.815988	-1.181300	-0.045149	0.528917	0.847472	-0.991042	-0.130452	0.028619	0.125691	-0.838588	0.530068
29741	6.920931	-2.564407	7.971456	0.881365	4.989722	-1.055875	-0.041078	0.571405	0.819640	-0.990365	-0.131865	0.042294	0.132249	-0.810005	0.571316
29742	7.563181	-2.413730	8.062819	1.072691	5.097549	-0.898468	-0.039094	0.613187	0.788969	-0.989257	-0.135060	0.055950	0.140866	-0.778306	0.611880
29743	8.486962	-2.025032	8.298110	1.213043	5.155015	-0.706559	-0.039583	0.653373	0.756001	-0.987770	-0.139775	0.069083	0.150807	-0.744021	0.650915
29744	8.978950	-1.479970	8.668684	1.298359	5.176360	-0.492340	-0.042766	0.691730	0.720889	-0.985941	-0.145877	0.081486	0.161527	-0.707269	0.688244
29745	9.407460	-1.446519	9.092515	1.328346	5.126750	-0.285013	-0.048471	0.727413	0.684486	-0.983860	-0.152951	0.092873	0.172250	-0.668937	0.723086
29746	10.024698	-1.446321	9.601812	1.430267	5.052060	-0.121611	-0.056233	0.760471	0.646933	-0.981374	-0.161314	0.104321	0.183692	-0.629017	0.755377
29747	10.664653	-1.257431	10.423680	1.564382	5.007400	-0.025434	-0.065445	0.790956	0.608363	-0.978427	-0.170589	0.116536	0.195955	-0.587611	0.785057
29748	11.438839	-0.990837	10.996347	1.695169	4.996126	-0.022538	-0.075313	0.819340	0.568340	-0.975006	-0.179982	0.130267	0.209024	-0.544324	0.812416
29749	12.133482	-0.302610	11.713770	1.834377	5.049068	-0.079751	-0.085393	0.845812	0.526603	-0.971117	-0.188843	0.145839	0.222798	-0.498940	0.837508
29750	13.243295	0.541602	12.370427	1.930671	5.160811	-0.222035	-0.095077	0.870802	0.482352	-0.966878	-0.196079	0.163404	0.236872	-0.450839	0.860602
29751	14.183742	1.268874	12.409389	1.922950	5.335260	-0.445162	-0.103727	0.894374	0.435128	-0.962647	-0.200287	0.182197	0.250103	-0.399976	0.881741
29752	14.984029	0.684990	11.941433	1.833980	5.446471	-0.743270	-0.110504	0.916245	0.385078	-0.958746	-0.200373	0.201634	0.261905	-0.346910	0.900588
29753	15.750764	-1.084212	10.646426	1.741370	5.471421	-1.039895	-0.115120	0.935805	0.333190	-0.955278	-0.196268	0.221186	0.272381	-0.292827	0.916548
29754	15.949603	-2.985811	8.623911	1.784197	5.327491	-1.266904	-0.117811	0.952441	0.281029	-0.951797	-0.189010	0.241572	0.283201	-0.239023	0.928798
29755	16.033553	-3.890648	7.335847	2.076626	4.959724	-1.355220	-0.119281	0.965525	0.231374	-0.947390	-0.180400	0.264400	0.297025	-0.187664	0.936247
29756	16.395372	-3.280383	6.867597	2.284298	4.375720	-1.287523	-0.120440	0.975000	0.186733	-0.941965	-0.171619	0.288528	0.313362	-0.141146	0.939086
29757	18.433847	-2.163888	6.559854	2.124803	3.667792	-1.050700	-0.122298	0.981218	0.149177	-0.936430	-0.163881	0.310229	0.328850	-0.101754	0.938884
29758	21.682136	-0.949933	5.278594	1.765244	3.079901	-0.703680	-0.126011	0.984984	0.118016	-0.931394	-0.158423	0.327731	0.341506	-0.068622	0.937371
29759	24.365878	-0.350129	3.117064	1.108188	2.603922	-0.260614	-0.132519	0.986828	0.092785	-0.927922	-0.156423	0.338368	0.348425	-0.041257	0.936428
29760	25.467083	-2.587578	-1.059729	0.295483	2.234685	0.255041	-0.142619	0.987102	0.072728	-0.926551	-0.158989	0.340919	0.348085	-0.018764	0.937275
29761	21.865164	-6.641135	-4.832346	-0.097836	1.699344	0.709303	-0.155022	0.986134	0.059235	-0.925849	-0.165939	0.339511	0.344632	-0.002211	0.938735
29762	17.846252	-0.607787	-1.532423	-0.338877	0.166518	1.072223	-0.165462	0.984307	0.061340	-0.925305	-0.176462	0.335667	0.341224	-0.001218	0.939981
29763	18.341861	-2.298801	-7.475070	-2.372596	-1.411360	0.866000	-0.168774	0.982603	0.077497	-0.931735	-0.184696	0.312660	0.321535	-0.019438	0.946698
29764	4.947894	3.351746	13.697414	-3.836236	-0.833341	0.852095	-0.174161	0.980776	0.088015	-0.941960	-0.191984	0.275415	0.287018	-0.034940	0.957288
29765	1.992448	-9.906948	17.220069	-6.488681	-1.134701	0.006757	-0.171257	0.980238	0.099021	-0.958653	-0.188979	0.212769	0.227277	-0.058489	0.972072
29766	-3.945127	1.119125	8.564764	-0.429024	-0.536408	-0.770275	-0.162595	0.981334	0.102696	-0.960920	-0.181121	0.209350	0.224043	-0.064643	0.972433
29767	-13.778917	6.345249	5.110955	-0.385914	-1.693277	-1.149332	-0.147703	0.982111	0.116802	-0.963578	-0.169515	0.206839	0.222939	-0.081997	0.971378
29768	-1.473073	-2.555326	2.045305	-0.077802	-3.193508	-1.576806	-0.125256	0.981536	0.144560	-0.965916	-0.153915	0.208127	0.226534	-0.113564	0.967360
29769	9.781473	0.990449	12.013166	0.472829	-3.267119	-1.796496	-0.100308	0.979924	0.172302	-0.966862	-0.136865	0.215514	0.234769	-0.144975	0.961179
29770	11.230911	-0.306057	11.885826	-0.249887	-2.164192	-1.653751	-0.079167	0.978670	0.189573	-0.968942	-0.120238	0.216090	0.234274	-0.166578	0.957793
29771	1.954711	-5.110447	10.451130	-0.471834	-1.746979	-1.208661	-0.063331	0.976978	0.203725	-0.970909	-0.107549	0.213935	0.230920	-0.184250	0.955368
29772	-0.024259	-9.371212	10.003651	-0.090108	-2.316269	-0.591346	-0.052177	0.973050	0.224612	-0.971469	-0.101564	0.214319	0.231355	-0.207021	0.950588
29773	6.468697	-7.097264	13.045520	0.365252	-2.610156	-0.006351	-0.045965	0.967319	0.249360	-0.970626	-0.102261	0.217777	0.236160	-0.232025	0.943606
29774	9.794535	-2.991359	14.843070	0.423560	-2.240821	0.387326	-0.044319	0.961458	0.271357	-0.969454	-0.106981	0.220714	0.241237	-0.253286	0.936830
29775	10.065700	4.176002	14.264057	0.553826	-1.914661	0.429290	-0.043750	0.955958	0.290225	-0.967920	-0.112505	0.224665	0.247422	-0.271086	0.930212
29776	8.102974	7.560450	11.831093	-0.040685	-1.616153	0.352673	-0.043108	0.951024	0.306095	-0.967882	-0.115710	0.223196	0.247683	-0.286642	0.925467
29777	5.542023	5.684186	10.497263	-0.234074	-1.536031	0.212657	-0.041326	0.946249	0.320787	-0.968378	-0.116995	0.220356	0.246042	-0.301537	0.921162
29778	5.228095	4.424362	10.264058	-0.467403	-1.513710	0.278113	-0.040270	0.941217	0.335393	-0.969418	-0.118131	0.215114	0.242089	-0.316474	0.917190
29779	6.877821	4.533280	11.396508	-0.793874	-1.501941	0.490730	-0.041400	0.935754	0.350215	-0.971119	-0.120120	0.206152	0.234976	-0.331565	0.913702
29780	7.957468	2.997094	10.249314	-1.064318	-1.232240	0.564515	-0.043998	0.930875	0.362679	-0.973338	-0.121745	0.194398	0.225115	-0.344456	0.911413
29781	6.204306	2.199295	9.905544	-0.902458	-0.980968	0.500653	-0.046661	0.926820	0.372597	-0.975113	-0.123196	0.184331	0.216744	-0.354723	0.909502
29782	5.709451	0.240015	10.112452	-0.883813	-0.900122	0.449132	-0.049074	0.922994	0.381672	-0.976788	-0.124125	0.174579	0.208510	-0.364246	0.907661
29783	6.016002	-0.428597	10.269083	-0.668951	-0.746275	0.404040	-0.051443	0.919729	0.389169	-0.977967	-0.125341	0.166946	0.202324	-0.372006	0.905912
29784	6.119212	0.344283	10.086248	-0.518664	-0.569625	0.335883	-0.053536	0.917134	0.394968	-0.978839	-0.126432	0.160904	0.197507	-0.377996	0.904494
29785	5.571347	0.061406	10.115800	-0.509594	-0.395213	0.272639	-0.055388	0.915271	0.399012	-0.979692	-0.126948	0.155205	0.192709	-0.382312	0.903715
29786	5.214473	-0.394439	10.122334	-0.452855	-0.281346	0.232276	-0.057076	0.913858	0.402002	-0.980435	-0.127285	0.150151	0.188386	-0.385567	0.903244
29787	5.213372	0.047439	10.066368	-0.426164	-0.182645	0.214733	-0.058795	0.912864	0.404009	-0.981112	-0.127553	0.145428	0.184289	-0.387828	0.903121
29788	5.298798	0.664550	9.825637	-0.351405	-0.070062	0.175532	-0.060338	0.912329	0.404988	-0.981661	-0.127740	0.141510	0.180837	-0.389022	0.903305
29789	4.562877	1.061729	9.541153	-0.312209	0.010153	0.144305	-0.061727	0.912169	0.405138	-0.982139	-0.127797	0.138096	0.177742	-0.389378	0.903766
29790	4.076675	1.190423	9.346765	-0.324227	0.014960	0.139758	-0.063075	0.912010	0.405288	-0.982635	-0.127758	0.134563	0.174502	-0.389763	0.904231
29791	4.179981	1.146335	9.314883	-0.329691	0.007111	0.136675	-0.064385	0.911849	0.405446	-0.983124	-0.127674	0.131019	0.171234	-0.390168	0.904681
29792	3.464084	1.380740	9.036610	-0.369479	0.005639	0.144192	-0.065762	0.911649	0.405675	-0.983668	-0.127496	0.127055	0.167551	-0.390694	0.905144
29793	2.713479	1.838526	8.827713	-0.491129	-0.082632	0.194707	-0.067496	0.911062	0.406706	-0.984356	-0.127303	0.121810	0.162751	-0.392122	0.905402
29794	3.385899	1.895227	8.953360	-0.663416	-0.212584	0.257361	-0.069642	0.909861	0.409028	-0.985248	-0.126984	0.114720	0.156319	-0.395005	0.905282
29795	4.077582	1.553967	9.217485	-0.716500	-0.269111	0.273057	-0.071877	0.908432	0.411808	-0.986157	-0.126579	0.107105	0.149424	-0.398409	0.904955
29796	5.061262	0.945650	9.551311	-0.640642	-0.311301	0.211844	-0.073463	0.906880	0.414935	-0.986951	-0.125887	0.100401	0.143287	-0.402145	0.904294
29797	4.534857	1.107904	9.065805	-0.540700	-0.215768	0.182521	-0.074917	0.905765	0.417106	-0.987583	-0.125314	0.094745	0.138086	-0.404829	0.903906
29798	3.639134	1.792827	8.591337	-0.594260	-0.292442	0.187336	-0.076324	0.904303	0.420012	-0.988254	-0.124542	0.088560	0.132394	-0.408320	0.903187
29799	3.903982	2.415833	8.443586	-0.557232	-0.395633	0.189049	-0.077635	0.902429	0.423787	-0.988838	-0.123917	0.082725	0.127168	-0.412634	0.901976
29800	4.854610	1.289740	9.025639	-0.638621	-0.425781	0.180025	-0.078840	0.900400	0.427859	-0.989499	-0.122837	0.076172	0.121143	-0.417361	0.900630
29801	4.476428	-0.905331	9.761440	-0.605124	-0.357430	0.176879	-0.080124	0.898669	0.431248	-0.990081	-0.121845	0.069959	0.115415	-0.421365	0.899517
29802	4.621023	0.391187	9.362402	-0.403251	-0.396465	0.146348	-0.081076	0.896772	0.435001	-0.990429	-0.121399	0.065670	0.111700	-0.425514	0.898032
29803	4.616432	1.292024	9.058708	-0.433818	-0.367851	0.141416	-0.082031	0.895012	0.438435	-0.990796	-0.120766	0.061153	0.107680	-0.429383	0.896680
29804	4.283983	1.012063	9.113436	-0.458482	-0.383570	0.144325	-0.083010	0.893143	0.442047	-0.991169	-0.120025	0.056381	0.103413	-0.433463	0.895218
29805	4.327484	0.582711	9.187770	-0.495649	-0.403919	0.162865	-0.084173	0.891171	0.445790	-0.991539	-0.119274	0.051217	0.098815	-0.437707	0.893671
29806	6.185755	0.612931	10.296402	-0.514458	-0.521653	0.138267	-0.084996	0.888669	0.450604	-0.991927	-0.118185	0.045978	0.094114	-0.443058	0.891539
29807	4.422743	-0.064556	8.935708	-0.290789	-0.147131	0.127718	-0.086084	0.887847	0.452015	-0.992093	-0.117983	0.042803	0.091333	-0.444756	0.890983
29808	6.322494	-1.885783	9.378525	-0.317511	-0.293784	0.003413	-0.085809	0.886490	0.454722	-0.992383	-0.116543	0.039933	0.088395	-0.447831	0.889738
29809	4.149134	1.716288	9.918503	0.093371	-0.312145	0.009203	-0.085581	0.885059	0.457544	-0.992297	-0.116998	0.040715	0.089567	-0.450535	0.888255
29810	5.320058	0.298682	8.542544	-0.178514	-0.168360	0.020281	-0.085588	0.884233	0.459136	-0.992446	-0.116318	0.039009	0.087898	-0.452329	0.887509
29811	5.019180	-0.390714	9.330182	-0.064571	-0.223966	0.004554	-0.085395	0.883194	0.461168	-0.992504	-0.116019	0.038409	0.087427	-0.454431	0.886481
29812	4.826051	0.772720	9.185167	0.021263	-0.130462	0.009837	-0.085334	0.882546	0.462417	-0.992484	-0.116149	0.038524	0.087708	-0.455655	0.885825
29813	4.884670	0.267060	9.092524	-0.072224	-0.164792	0.008306	-0.085231	0.881766	0.463923	-0.992546	-0.115847	0.037840	0.087110	-0.457239	0.885067
29814	4.947618	0.589339	9.003213	-0.007683	-0.150162	0.015270	-0.085208	0.881018	0.465346	-0.992547	-0.115893	0.037673	0.087121	-0.458668	0.884327
29815	4.939429	0.790071	8.915639	0.006016	-0.111025	0.022770	-0.085295	0.880463	0.466379	-0.992528	-0.116075	0.037615	0.087253	-0.459686	0.883785
29816	4.760921	0.463126	8.998936	-0.007036	-0.111801	0.021605	-0.085368	0.879881	0.467464	-0.992523	-0.116179	0.037424	0.087239	-0.460774	0.883220
29817	4.726907	0.757317	9.086374	0.062011	-0.125971	0.032759	-0.085540	0.879243	0.468631	-0.992446	-0.116708	0.037813	0.087940	-0.461857	0.882584
29818	4.141725	0.705111	9.473142	0.032808	-0.126149	0.023936	-0.085623	0.878588	0.469842	-0.992404	-0.117017	0.037964	0.088334	-0.463022	0.881934
29819	4.630927	0.212949	9.231954	0.052783	-0.280087	0.008965	-0.085421	0.877259	0.472356	-0.992355	-0.117295	0.038381	0.089075	-0.465467	0.880572
29820	4.484541	0.523094	9.485396	0.123196	-0.240726	0.023017	-0.085390	0.876066	0.474570	-0.992232	-0.118018	0.039331	0.090464	-0.467526	0.879338
29821	5.072399	0.620811	9.104745	0.150344	-0.303390	0.042106	-0.085488	0.874575	0.477295	-0.992065	-0.119046	0.040446	0.092193	-0.470050	0.877812
29822	4.939016	0.234920	9.230531	0.146898	-0.273322	0.048410	-0.085671	0.873186	0.479798	-0.991894	-0.120108	0.041477	0.093845	-0.472356	0.876398
29823	5.164798	0.310897	9.059938	0.176225	-0.305229	0.058785	-0.085922	0.871650	0.482538	-0.991682	-0.121410	0.042733	0.095833	-0.474853	0.874832
29824	4.100570	-0.126627	9.847977	0.136487	-0.269372	0.041766	-0.086032	0.870274	0.484996	-0.991522	-0.122371	0.043698	0.097379	-0.477125	0.873424
29825	5.460411	-0.120664	8.943276	0.243315	-0.437812	-0.007730	-0.085480	0.868168	0.488853	-0.991294	-0.123423	0.045854	0.100145	-0.480678	0.871160
29826	4.893184	0.051418	9.390744	0.176694	-0.352888	-0.024252	-0.084840	0.866453	0.491997	-0.991144	-0.124013	0.047485	0.102157	-0.483611	0.869301
29827	5.016446	0.196647	9.329018	0.260693	-0.418238	-0.062051	-0.083749	0.864481	0.495639	-0.990932	-0.124695	0.050050	0.105071	-0.486953	0.867085
29828	5.122228	0.359460	9.268663	0.271450	-0.438299	-0.088068	-0.082367	0.862406	0.499472	-0.990724	-0.125209	0.052813	0.108085	-0.490489	0.864719
29829	4.878338	0.534390	9.383123	0.279971	-0.466674	-0.103390	-0.080788	0.860218	0.503487	-0.990507	-0.125652	0.055745	0.111217	-0.494203	0.862203
29830	4.718305	0.607632	9.476937	0.349090	-0.533015	-0.121832	-0.078935	0.857682	0.508085	-0.990217	-0.126286	0.059341	0.115060	-0.498431	0.859260
29831	4.871543	0.771193	9.454281	0.377638	-0.620052	-0.146986	-0.076710	0.854742	0.513353	-0.989895	-0.126874	0.063327	0.119259	-0.503308	0.855838
29832	4.887768	0.599529	9.490031	0.362571	-0.695541	-0.177742	-0.074065	0.851404	0.519255	-0.989598	-0.127141	0.067316	0.123332	-0.508868	0.851964
29833	4.856371	0.352766	9.472077	0.393998	-0.797296	-0.209833	-0.070944	0.847568	0.525924	-0.989261	-0.127331	0.071758	0.127786	-0.515186	0.847499
29834	4.902965	0.613229	9.399792	0.423920	-0.913162	-0.229821	-0.067440	0.843078	0.533546	-0.988877	-0.127537	0.076533	0.132570	-0.522449	0.842301
29835	4.754735	0.375582	9.483452	0.416123	-1.054592	-0.232134	-0.063677	0.837799	0.542253	-0.988473	-0.127732	0.081273	0.137353	-0.530827	0.836275
29836	4.385895	0.876454	9.811482	0.472255	-1.194215	-0.202177	-0.059965	0.831617	0.552102	-0.987945	-0.128524	0.086288	0.142717	-0.540273	0.829299
29837	4.027242	0.889209	9.941373	0.458000	-1.438347	-0.143606	-0.056411	0.823927	0.563881	-0.987369	-0.129790	0.090868	0.148054	-0.551633	0.820842
29838	3.767182	1.628425	11.093250	0.483426	-1.738853	-0.056434	-0.053189	0.814244	0.578080	-0.986679	-0.131978	0.095111	0.153738	-0.565321	0.810418
29839	3.377362	1.740742	11.796703	0.343917	-2.170249	0.028758	-0.050042	0.801727	0.595591	-0.986134	-0.134139	0.097708	0.158227	-0.582443	0.797323
29840	2.930659	2.352491	11.222742	0.487625	-2.665786	0.189438	-0.047571	0.785623	0.616874	-0.985264	-0.138485	0.100388	0.164295	-0.603008	0.780633
29841	2.295120	2.552753	11.852052	0.027641	-3.407639	0.430500	-0.046136	0.763993	0.643573	-0.985022	-0.141945	0.097891	0.166140	-0.629417	0.759099
29842	1.847816	1.681170	12.047310	-0.082291	-4.185895	0.611305	-0.045141	0.736058	0.675411	-0.984889	-0.145952	0.093232	0.167202	-0.660996	0.731524
29843	2.026112	1.780129	13.016567	-0.166262	-5.055783	0.804676	-0.044552	0.700485	0.712275	-0.984812	-0.150558	0.086468	0.167808	-0.697605	0.696554
29844	2.192610	3.388342	13.974125	-0.134811	-5.897187	1.017251	-0.044599	0.656544	0.752968	-0.984594	-0.156448	0.078095	0.169074	-0.737884	0.653407
29845	3.748946	4.369162	13.470820	-0.251442	-6.798818	1.263888	-0.045483	0.602837	0.796567	-0.984457	-0.162456	0.066734	0.169637	-0.781150	0.600856
29846	7.143920	3.287862	12.095277	-0.135561	-7.632900	1.414992	-0.046345	0.539127	0.840949	-0.984045	-0.169407	0.054374	0.171777	-0.825011	0.538376
29847	12.810127	2.907940	12.365744	0.430024	-8.102304	1.456344	-0.046379	0.468034	0.882492	-0.982620	-0.180339	0.044002	0.179743	-0.865114	0.468264
29848	26.523145	2.687400	15.971732	0.903627	-7.887647	1.344636	-0.044871	0.395934	0.917182	-0.980331	-0.194080	0.035821	0.192190	-0.897535	0.396856
29849	22.476923	5.566078	16.263603	0.694833	-6.614209	1.573310	-0.047195	0.332607	0.941884	-0.978244	-0.206093	0.023761	0.202019	-0.920271	0.335097
29850	16.200305	5.310891	16.510932	-0.058978	-6.211577	1.833229	-0.052458	0.270991	0.961151	-0.977457	-0.211046	0.006156	0.204515	-0.939161	0.275953
29851	11.343131	5.222346	16.268194	-0.670062	-5.672551	2.078551	-0.061226	0.212857	0.975163	-0.977642	-0.209696	-0.015609	0.201165	-0.954316	0.220937
29852	6.928077	5.937646	14.582787	-0.997017	-5.166909	2.252215	-0.072979	0.158569	0.984647	-0.978112	-0.204278	-0.039597	0.194863	-0.965985	0.170006
29853	2.061043	6.037242	12.776391	-1.221243	-4.712820	2.308550	-0.086531	0.108170	0.990359	-0.978608	-0.195474	-0.064154	0.186650	-0.974725	0.122771
29854	-8.600465	6.014799	9.643691	-1.686167	-4.821867	2.487626	-0.102129	0.056321	0.993176	-0.979315	-0.181005	-0.090439	0.174676	-0.981868	0.073642
29855	-8.330396	7.174538	7.719697	-2.212197	-5.946985	1.954884	-0.111316	-0.005624	0.993769	-0.980932	-0.159686	-0.110781	0.159314	-0.987152	0.012259
29856	25.826109	3.111963	12.239308	-2.627027	-5.120731	0.796598	-0.111444	-0.057379	0.992113	-0.983974	-0.133461	-0.118249	0.139193	-0.989392	-0.041586
29857	19.753083	4.373347	15.651568	-2.175883	-1.647499	0.221813	-0.111454	-0.074011	0.991010	-0.986550	-0.111745	-0.119298	0.119570	-0.990977	-0.060561
29858	12.092954	1.769143	13.521903	-1.639377	1.260897	-0.446997	-0.108375	-0.060979	0.992238	-0.988865	-0.095782	-0.113893	0.101984	-0.993533	-0.049920
29859	7.609471	3.106735	12.510341	-1.270994	3.193111	-0.899353	-0.102431	-0.028450	0.994333	-0.991014	-0.083515	-0.104478	0.086014	-0.996100	-0.019640
29860	1.811446	3.933022	9.761164	-1.273599	3.992045	-0.938548	-0.096160	0.012149	0.995292	-0.992943	-0.070899	-0.095068	0.069410	-0.997410	0.018881
29861	0.014520	4.066537	6.810481	-1.234694	4.168714	-0.858180	-0.090147	0.054230	0.994451	-0.994505	-0.058273	-0.086974	0.053233	-0.996827	0.059185
29862	-0.260795	3.392687	5.267897	-1.278554	4.175918	-0.751988	-0.084479	0.096289	0.991762	-0.995743	-0.044978	-0.080451	0.036861	-0.994337	0.099679
29863	0.141447	2.063580	4.322103	-1.169251	4.163583	-0.667173	-0.079014	0.137815	0.987301	-0.996635	-0.032564	-0.075215	0.021785	-0.989923	0.139924
29864	0.501990	1.434277	4.361329	-0.871252	4.144485	-0.632220	-0.073302	0.178988	0.981117	-0.997260	-0.022964	-0.070319	0.009944	-0.983583	0.180181
29865	1.129177	1.536039	4.534994	-0.608709	4.126110	-0.632922	-0.067174	0.219485	0.973301	-0.997741	-0.015705	-0.065320	0.000949	-0.975489	0.220044
29866	2.079695	2.034402	4.773452	-0.414117	4.125538	-0.643770	-0.060584	0.259716	0.963783	-0.998146	-0.010139	-0.060012	-0.005814	-0.965632	0.259848
29867	3.513303	2.667252	5.168497	-0.299187	4.166135	-0.647178	-0.053730	0.299712	0.952516	-0.998493	-0.005421	-0.054618	-0.011206	-0.954014	0.299551
29868	5.160200	3.079504	5.477757	-0.289817	4.308858	-0.627644	-0.046805	0.340651	0.939024	-0.998772	-0.000659	-0.049544	-0.016258	-0.940190	0.340263
29869	6.285092	3.119673	5.699707	-0.296740	4.512576	-0.617786	-0.039750	0.382658	0.923034	-0.998985	0.004380	-0.044837	-0.021201	-0.923880	0.382096
29870	7.153382	2.496747	5.998219	-0.285814	4.707525	-0.644783	-0.032136	0.425769	0.904261	-0.999152	0.009611	-0.040033	-0.025736	-0.904781	0.425099
29871	8.152010	1.752196	6.191645	-0.193014	4.925854	-0.702566	-0.023728	0.469673	0.882522	-0.999296	0.014523	-0.034596	-0.029066	-0.882721	0.468997
29872	8.774036	1.233651	6.212933	-0.007605	5.160913	-0.755358	-0.014584	0.514561	0.857330	-0.999440	0.018321	-0.027997	-0.030113	-0.857258	0.514006
29873	9.018153	1.194189	6.132112	0.193310	5.396842	-0.741090	-0.005549	0.559869	0.828563	-0.999571	0.020716	-0.020693	-0.028750	-0.828322	0.559514
29874	9.028557	0.765624	6.019552	0.364890	5.503532	-0.676207	0.002759	0.604539	0.796571	-0.999680	0.021707	-0.013012	-0.025157	-0.796280	0.604405
29875	9.341944	0.273342	6.144421	0.598283	5.496522	-0.587735	0.009883	0.647211	0.762247	-0.999773	0.020768	-0.004671	-0.018854	-0.762028	0.647270
29876	9.550134	-0.087814	6.523040	0.841407	5.440408	-0.467183	0.015393	0.687691	0.725841	-0.999834	0.017649	0.004482	-0.009728	-0.725789	0.687848
29877	9.848689	0.090868	7.051635	1.114785	5.333555	-0.315110	0.018780	0.725328	0.688147	-0.999821	0.012037	0.014598	0.002305	-0.688298	0.725424
29878	10.522537	0.325303	8.045893	1.304562	5.206018	-0.134182	0.019691	0.760228	0.649357	-0.999672	0.004333	0.025241	0.016376	-0.649641	0.760064
29879	11.179106	0.504664	8.858661	1.451413	5.130521	0.028901	0.018204	0.792513	0.609583	-0.999327	-0.004988	0.036328	0.031831	-0.609834	0.791889
29880	11.749444	1.011008	9.589378	1.526129	5.070648	0.151814	0.014717	0.822448	0.568650	-0.998742	-0.015176	0.047798	0.047941	-0.568638	0.821189
29881	12.008127	1.146031	9.892371	1.517913	5.014677	0.233011	0.009631	0.849837	0.526957	-0.997924	-0.025392	0.059190	0.063682	-0.526433	0.847828
29882	12.441098	1.195186	9.658657	1.544257	4.914326	0.293282	0.003239	0.874621	0.484797	-0.996835	-0.035684	0.071037	0.079430	-0.483493	0.871737
29883	13.506134	0.819998	9.168058	1.620539	4.775357	0.323806	-0.004124	0.896535	0.442953	-0.995418	-0.045996	0.083828	0.095529	-0.440578	0.892617
29884	14.685166	0.535088	8.326331	1.761031	4.622422	0.298636	-0.011860	0.915800	0.401459	-0.993558	-0.056045	0.098497	0.112704	-0.397704	0.910565
29885	15.184474	0.613560	7.583178	1.953593	4.431322	0.211021	-0.019319	0.932350	0.361041	-0.991144	-0.065310	0.115620	0.131377	-0.355610	0.925355
29886	15.195807	0.694503	7.117139	2.140347	4.152061	0.079377	-0.025934	0.946247	0.322405	-0.988094	-0.073190	0.135327	0.151650	-0.315057	0.936879
29887	16.072023	1.541552	8.027295	2.296513	3.825915	-0.028621	-0.031821	0.957583	0.286396	-0.984377	-0.079672	0.157015	0.173173	-0.276925	0.945158
29888	17.465754	1.234095	8.539049	2.327325	3.595465	-0.108414	-0.037324	0.966988	0.252073	-0.980129	-0.084602	0.179417	0.194820	-0.240368	0.950930
29889	17.991170	-0.552334	7.361618	2.364892	3.468291	-0.194639	-0.042508	0.974867	0.218693	-0.975348	-0.087932	0.202394	0.216538	-0.204698	0.954573
29890	17.859462	-2.493441	5.315839	2.519310	3.287726	-0.289960	-0.047137	0.981297	0.186638	-0.969728	-0.089772	0.227086	0.239594	-0.170284	0.955823
29891	18.159576	-4.151748	2.878841	2.696262	3.013244	-0.303972	-0.051740	0.986217	0.157161	-0.963095	-0.090900	0.253348	0.264142	-0.138253	0.954524
29892	18.451540	-4.573752	0.658897	2.968588	2.647896	-0.195583	-0.057166	0.989677	0.131420	-0.954955	-0.092598	0.281933	0.291192	-0.109383	0.950391
29893	18.326077	-3.539632	-0.365524	2.975131	2.149640	0.060025	-0.064235	0.991712	0.111268	-0.945864	-0.096050	0.310026	0.318144	-0.085330	0.944195
29894	18.911035	-3.239205	-1.138425	2.625336	1.556710	0.402889	-0.073110	0.992501	0.097958	-0.936923	-0.102013	0.334319	0.341805	-0.067337	0.937355
29895	18.853977	-2.660565	-1.356002	2.010363	0.946260	0.766561	-0.083530	0.992270	0.091782	-0.929282	-0.110819	0.352356	0.359803	-0.055859	0.931355
29896	17.703116	-3.249125	-1.573692	1.286481	0.300342	0.995121	-0.093788	0.991274	0.092624	-0.923696	-0.121350	0.363400	0.371469	-0.051474	0.927017
29897	3.083428	17.056581	15.458151	0.908973	0.002888	0.465940	-0.098040	0.990701	0.094342	-0.919848	-0.126392	0.371355	0.379825	-0.050373	0.923686
29898	7.744156	4.716123	2.288344	-8.183956	-2.617309	0.401399	-0.092749	0.988398	0.120281	-0.947540	-0.124728	0.294297	0.305885	-0.086675	0.948115
29899	-6.198329	-11.252756	17.612221	-4.915801	-0.235441	-0.119565	-0.090891	0.988330	0.122242	-0.961552	-0.119039	0.247484	0.259147	-0.095048	0.961150
29900	-0.993639	0.890719	13.699654	-2.492081	-1.364549	-1.542896	-0.072559	0.988613	0.131834	-0.968988	-0.101182	0.225443	0.236215	-0.111387	0.965295
29901	-10.393590	2.670739	4.750638	-0.753890	-1.428246	-1.872402	-0.051011	0.988626	0.141482	-0.971910	-0.081733	0.220705	0.229758	-0.126250	0.965024
29902	-1.886475	-2.139274	1.234689	-0.540607	-2.871636	-1.950127	-0.025441	0.985974	0.164949	-0.973887	-0.061681	0.218492	0.225602	-0.155083	0.961797
29903	5.803170	-3.810496	8.592772	-0.670091	-3.200453	-1.872536	-0.000015	0.981465	0.191644	-0.975623	-0.042071	0.215381	0.219451	-0.186969	0.957540
29904	9.427703	-5.849702	12.713610	-0.687652	-2.694268	-1.630589	0.021781	0.976594	0.213986	-0.976931	-0.024690	0.212121	0.212439	-0.213670	0.953527
29905	6.338829	-9.118366	13.459794	-0.509093	-2.132502	-1.121315	0.037258	0.972012	0.231956	-0.977672	-0.012581	0.209759	0.206807	-0.234593	0.949841
29906	3.556098	-12.018041	11.779973	-0.138178	-2.158265	-0.269507	0.044386	0.966727	0.251930	-0.977850	-0.009592	0.209089	0.204549	-0.255630	0.944888
29907	4.078401	-11.251911	11.789977	0.256008	-2.326696	0.512063	0.044203	0.960442	0.274951	-0.977555	-0.015166	0.210136	0.205993	-0.278068	0.938214
29908	6.256606	-3.097934	12.638271	0.505965	-2.356619	0.898530	0.040369	0.953412	0.298959	-0.976891	-0.025190	0.212246	0.209889	-0.300619	0.930363
29909	9.755250	7.890158	13.319517	0.635968	-2.242180	0.861035	0.036776	0.946159	0.321607	-0.975876	-0.035303	0.215452	0.215206	-0.321772	0.922035
29910	10.061596	12.495049	11.885162	0.057227	-2.012879	0.471991	0.036545	0.939277	0.341209	-0.975936	-0.039904	0.214375	0.214973	-0.340833	0.915215
29911	12.550787	16.526306	13.756448	-0.699801	-1.883268	0.531367	0.035380	0.932454	0.359553	-0.977609	-0.042385	0.206116	0.207433	-0.358794	0.910076
29912	9.712759	0.508278	9.601813	-1.650821	-1.106893	0.499883	0.032741	0.928169	0.370716	-0.981072	-0.040982	0.189256	0.190855	-0.369895	0.909259
29913	4.777668	-2.774967	10.617105	-0.825987	-1.037323	0.465819	0.030150	0.924069	0.381034	-0.982764	-0.042155	0.179995	0.182390	-0.379893	0.906871
29914	5.754719	-1.617675	10.172735	-0.754039	-0.961272	0.536514	0.026639	0.920093	0.390793	-0.984268	-0.044163	0.171073	0.174662	-0.389202	0.904442
29915	6.368638	1.794181	9.829808	-0.597594	-0.815596	0.466066	0.023495	0.916659	0.398980	-0.985414	-0.046049	0.163825	0.168544	-0.397009	0.902206
29916	6.069090	1.526554	9.707379	-0.656621	-0.627554	0.367436	0.020957	0.913926	0.405339	-0.986587	-0.046744	0.156403	0.161888	-0.403180	0.900688
29917	5.346964	-0.355482	9.997406	-0.585071	-0.505422	0.310030	0.018745	0.911712	0.410403	-0.987582	-0.047155	0.149864	0.155985	-0.408115	0.899506
29918	5.594089	-0.222112	10.047854	-0.448957	-0.419324	0.268281	0.016786	0.909811	0.414683	-0.988325	-0.047716	0.144693	0.151430	-0.412271	0.898388
29919	5.268786	0.874880	9.598690	-0.395120	-0.304592	0.236095	0.014952	0.908419	0.417794	-0.988957	-0.048182	0.140154	0.147449	-0.415276	0.897666
29920	5.004169	0.545800	9.706014	-0.393791	-0.248176	0.194003	0.013439	0.907236	0.420406	-0.989563	-0.048260	0.135777	0.143471	-0.417843	0.897119
29921	4.953883	0.295280	9.632024	-0.359367	-0.159731	0.177195	0.011956	0.906463	0.422116	-0.990098	-0.048317	0.131800	0.139867	-0.419512	0.896910
29922	4.185442	1.038169	9.257399	-0.329699	-0.138235	0.159757	0.010608	0.905749	0.423682	-0.990578	-0.048336	0.128135	0.136537	-0.421049	0.896702
29923	3.726654	1.329303	9.050229	-0.384752	-0.186727	0.166890	0.009251	0.904861	0.425606	-0.991116	-0.048177	0.123969	0.132680	-0.422972	0.896377
29924	4.179301	1.097158	9.072764	-0.387710	-0.243631	0.162827	0.007998	0.903694	0.428105	-0.991643	-0.047961	0.119768	0.128766	-0.425485	0.895758
29925	4.448317	1.204322	9.185368	-0.366347	-0.253686	0.154091	0.006836	0.902518	0.430598	-0.992122	-0.047744	0.115819	0.125087	-0.427998	0.895082
29926	4.517706	0.859978	9.292840	-0.359026	-0.243999	0.132350	0.005866	0.901351	0.433049	-0.992579	-0.047352	0.112003	0.121460	-0.430493	0.894384
29927	5.142735	0.345513	9.650445	-0.283785	-0.243113	0.100224	0.005206	0.900235	0.435374	-0.992928	-0.046984	0.109024	0.118603	-0.432863	0.893624
29928	5.181780	0.773579	9.512587	-0.192766	-0.162272	0.065205	0.004791	0.899443	0.437011	-0.993164	-0.046690	0.106985	0.116631	-0.434536	0.893071
29929	4.769408	1.100312	9.261696	-0.176361	-0.121798	0.052848	0.004451	0.898869	0.438196	-0.993373	-0.046352	0.105172	0.114847	-0.435760	0.892706
29930	4.465298	1.314196	9.175159	-0.194084	-0.108640	0.055308	0.004066	0.898311	0.439340	-0.993602	-0.045957	0.103164	0.112864	-0.436949	0.892377
29931	4.514791	1.082233	9.148811	-0.239137	-0.127248	0.060977	0.003646	0.897707	0.440579	-0.993874	-0.045413	0.100755	0.110456	-0.438247	0.892042
29932	4.719953	1.159628	9.219883	-0.258344	-0.104548	0.072458	0.003080	0.897157	0.441701	-0.994164	-0.044884	0.098099	0.107835	-0.439425	0.891783
29933	4.530213	1.236175	9.041505	-0.277422	-0.109887	0.073454	0.002510	0.896621	0.442793	-0.994464	-0.044276	0.095294	0.105047	-0.440580	0.891546
29934	4.646287	0.901272	9.180880	-0.290323	-0.119531	0.066981	0.002009	0.896006	0.444038	-0.994771	-0.043550	0.092377	0.102108	-0.441902	0.891233
29935	4.623386	0.494345	9.322390	-0.289123	-0.119766	0.058553	0.001589	0.895430	0.445200	-0.995066	-0.042749	0.089534	0.099203	-0.443146	0.890944
29936	4.386910	0.602122	9.263235	-0.287357	-0.098472	0.049670	0.001232	0.894913	0.446238	-0.995352	-0.041872	0.086721	0.096292	-0.444271	0.890703
29937	4.034200	0.977516	9.091460	-0.303661	-0.159235	0.055155	0.000876	0.894161	0.447744	-0.995643	-0.040969	0.083763	0.093241	-0.445867	0.890230
29938	4.273869	1.236903	8.999429	-0.324313	-0.215070	0.063313	0.000482	0.893116	0.449827	-0.995945	-0.040038	0.080562	0.089961	-0.448041	0.889475
29939	5.469720	1.163430	9.401524	-0.303296	-0.291195	0.045607	0.000328	0.891768	0.452493	-0.996216	-0.039036	0.077653	0.086912	-0.450806	0.888381
29940	3.948216	1.257519	8.869230	-0.243880	-0.122404	0.061241	-0.000138	0.891133	0.453743	-0.996429	-0.038434	0.075179	0.084434	-0.452112	0.887956
29941	5.407532	1.373861	8.951563	-0.370719	-0.249113	0.067222	-0.000560	0.889957	0.456045	-0.996737	-0.037306	0.071577	0.080714	-0.454517	0.887074
29942	4.328167	1.548782	8.953542	-0.412070	-0.170038	0.110066	-0.001484	0.889082	0.457746	-0.997064	-0.036361	0.067391	0.076560	-0.456302	0.886525
29943	5.289494	0.222361	9.447043	-0.510707	-0.208009	0.099625	-0.002282	0.888074	0.459696	-0.997442	-0.034865	0.062402	0.071445	-0.458377	0.885881
29944	5.416221	-1.316105	9.021430	-0.302664	-0.109645	0.014839	-0.002314	0.887505	0.460792	-0.997657	-0.033559	0.059625	0.068381	-0.459574	0.885503
29945	4.990430	1.662600	9.451990	-0.164851	-0.199192	0.002231	-0.002161	0.886565	0.462598	-0.997770	-0.032774	0.058150	0.066715	-0.461441	0.884659
29946	4.955971	0.460144	8.773324	-0.294302	-0.081436	0.011346	-0.002182	0.886125	0.463442	-0.997965	-0.031466	0.055465	0.063732	-0.462378	0.884390
29947	4.982139	0.480903	9.146060	-0.138076	-0.107724	0.004769	-0.002121	0.885602	0.464439	-0.998053	-0.030823	0.054217	0.062330	-0.463420	0.883944
29948	4.933583	0.498917	9.065585	-0.162524	-0.076738	0.000923	-0.002045	0.885185	0.465235	-0.998156	-0.030029	0.052747	0.060662	-0.464269	0.883614
29949	4.701526	0.421701	9.221529	-0.110931	-0.089863	-0.004019	-0.001910	0.884746	0.466069	-0.998225	-0.029432	0.051780	0.059530	-0.465143	0.883232
29950	4.762212	0.574604	9.122128	-0.103020	-0.105892	-0.007492	-0.001735	0.884194	0.467117	-0.998289	-0.028837	0.050877	0.058455	-0.466229	0.882731
29951	4.652309	0.737213	9.091629	-0.070716	-0.130325	-0.012819	-0.001490	0.883567	0.468302	-0.998331	-0.028347	0.050308	0.057725	-0.467446	0.882135
29952	4.663303	0.504892	9.045236	-0.037204	-0.155739	-0.016599	-0.001197	0.882781	0.469783	-0.998356	-0.027978	0.050029	0.057308	-0.468951	0.881363
29953	4.775740	0.661522	9.155303	0.031772	-0.195125	-0.017969	-0.000865	0.881847	0.471535	-0.998339	-0.027922	0.050388	0.057601	-0.470709	0.880406
29954	4.817553	0.861385	8.989922	0.074073	-0.194522	-0.011334	-0.000601	0.880871	0.473357	-0.998299	-0.028123	0.051066	0.058295	-0.472521	0.879389
29955	4.925279	0.758370	8.990489	0.068015	-0.202170	-0.005023	-0.000392	0.879892	0.475173	-0.998261	-0.028355	0.051683	0.058948	-0.474326	0.878373
29956	4.937118	0.746095	8.991818	0.109121	-0.202385	0.001954	-0.000253	0.878868	0.477065	-0.998199	-0.028842	0.052604	0.059992	-0.476193	0.877292
29957	4.910876	0.732423	9.068599	0.091838	-0.200607	0.005668	-0.000147	0.877886	0.478869	-0.998145	-0.029284	0.053378	0.060882	-0.477973	0.876262
29958	4.411474	0.808753	9.399331	0.065424	-0.211835	-0.003877	0.000059	0.876810	0.480836	-0.998108	-0.029514	0.053943	0.061489	-0.479930	0.875149
29959	5.041845	0.812549	9.060427	0.005211	-0.288362	-0.006804	0.000346	0.875402	0.483396	-0.998106	-0.029434	0.054017	0.061514	-0.482499	0.873734
29960	4.410943	0.317347	9.307000	0.040146	-0.229646	0.021130	0.000315	0.874222	0.485526	-0.998084	-0.029764	0.054240	0.061869	-0.484612	0.872538
29961	5.516905	0.846359	8.711299	0.045702	-0.278269	0.018429	0.000344	0.872842	0.488003	-0.998058	-0.030101	0.054544	0.062298	-0.487074	0.871136
29962	4.724839	0.483604	9.293138	0.044461	-0.233063	0.015560	0.000373	0.871636	0.490153	-0.998033	-0.030406	0.054830	0.062695	-0.489209	0.869910
29963	5.110626	0.086256	9.039207	0.068860	-0.265385	0.005031	0.000531	0.870310	0.492504	-0.997991	-0.030741	0.055399	0.063355	-0.491544	0.868545
29964	4.805823	0.634240	9.363923	0.112361	-0.304481	-0.013901	0.000902	0.868750	0.495249	-0.997922	-0.031126	0.056418	0.064428	-0.494271	0.866917
29965	4.867621	0.269287	9.274808	0.127150	-0.357208	-0.025787	0.001433	0.866964	0.498369	-0.997841	-0.031486	0.057643	0.065666	-0.497376	0.865046
29966	4.972908	0.711675	9.315486	0.163443	-0.379310	-0.032108	0.002043	0.865018	0.501737	-0.997734	-0.031976	0.059190	0.067244	-0.500722	0.862992
29967	5.001072	0.240957	9.264417	0.159547	-0.418666	-0.053968	0.002907	0.862907	0.505354	-0.997626	-0.032265	0.060834	0.068799	-0.504332	0.860765
29968	5.074099	0.532207	9.215809	0.235214	-0.455459	-0.076137	0.004023	0.860562	0.509330	-0.997462	-0.032753	0.063217	0.071084	-0.508292	0.858246
29969	5.052344	0.526940	9.207008	0.216677	-0.485498	-0.093582	0.005348	0.858091	0.513470	-0.997303	-0.033008	0.065549	0.073195	-0.512436	0.855600
29970	5.060341	0.442829	9.222574	0.237243	-0.537738	-0.120396	0.006985	0.855298	0.518089	-0.997123	-0.033151	0.068171	0.075482	-0.517074	0.852606
29971	5.083200	0.491887	9.257189	0.265370	-0.596799	-0.150028	0.008981	0.852222	0.523103	-0.996909	-0.033202	0.071207	0.078053	-0.522125	0.849290
29972	5.103681	0.446126	9.222067	0.294829	-0.658907	-0.176594	0.011301	0.848757	0.528662	-0.996660	-0.033201	0.074610	0.080878	-0.527739	0.845547
29973	4.815601	0.378584	9.478669	0.301006	-0.719466	-0.194831	0.013877	0.844978	0.534621	-0.996389	-0.033103	0.078182	0.083760	-0.533776	0.841468
29974	4.755163	0.489534	9.353626	0.390096	-0.833670	-0.207562	0.016694	0.840502	0.541551	-0.996027	-0.033403	0.082547	0.087471	-0.540777	0.836606
29975	4.739595	0.686247	9.406157	0.433223	-0.954474	-0.205024	0.019633	0.835346	0.549374	-0.995604	-0.033999	0.087277	0.091584	-0.548672	0.831006
29976	4.502585	0.554776	9.449283	0.484051	-1.101268	-0.185703	0.022550	0.829252	0.558419	-0.995114	-0.035086	0.092287	0.096122	-0.557772	0.824409
29977	4.134517	0.813888	9.523436	0.542661	-1.301380	-0.168370	0.025552	0.821958	0.568975	-0.994540	-0.036705	0.097688	0.101180	-0.568364	0.816532
29978	4.276969	0.936977	9.731868	0.547789	-1.548136	-0.160294	0.028785	0.813056	0.581473	-0.993933	-0.038498	0.103033	0.106157	-0.580911	0.807015
29979	4.077651	1.271807	10.195192	0.593116	-1.812607	-0.112484	0.031918	0.802412	0.595916	-0.993255	-0.041031	0.108450	0.111472	-0.595358	0.795690
29980	3.438373	1.963510	10.854559	0.378207	-2.249756	-0.022343	0.034715	0.788761	0.613719	-0.992825	-0.043094	0.111545	0.114430	-0.613187	0.781605
29981	3.382683	1.442661	11.011566	0.154781	-2.790998	0.077822	0.037187	0.771279	0.635410	-0.992677	-0.044621	0.112259	0.114936	-0.634931	0.763971
29982	2.678497	1.004099	11.727508	0.086917	-3.399049	0.147696	0.039652	0.749125	0.661241	-0.992638	-0.046263	0.111937	0.114445	-0.660812	0.741775
29983	2.325016	1.760058	12.706955	0.064496	-4.144861	0.228599	0.042148	0.720959	0.691695	-0.992659	-0.048334	0.110866	0.113362	-0.691290	0.713630
29984	1.996051	3.417809	13.057477	0.005817	-5.000467	0.360634	0.044213	0.685266	0.726950	-0.992812	-0.050867	0.108333	0.111214	-0.726515	0.678091
29985	3.709801	4.510163	12.624439	-0.021886	-5.893228	0.586889	0.044899	0.640940	0.766277	-0.993099	-0.054551	0.103817	0.108342	-0.765650	0.634067
29986	6.555053	3.756513	12.011891	0.032260	-6.544514	0.818016	0.043809	0.588977	0.806962	-0.993430	-0.059793	0.097574	0.105719	-0.805935	0.582488
29987	8.779368	2.093329	11.787489	0.301036	-7.074065	0.904497	0.042342	0.529931	0.846983	-0.993503	-0.067299	0.091773	0.105634	-0.845366	0.523638
29988	13.876767	1.060375	11.472748	0.783533	-7.369946	0.813312	0.042252	0.465631	0.883970	-0.993004	-0.078076	0.088590	0.110267	-0.881528	0.459074
29989	23.449342	3.090086	14.702790	1.128407	-6.934646	0.783663	0.042449	0.402755	0.914323	-0.992046	-0.091556	0.086388	0.118505	-0.910717	0.395665
29990	17.573255	4.872144	14.004825	0.713399	-6.160889	0.991481	0.040086	0.344941	0.937768	-0.991596	-0.101804	0.079834	0.123006	-0.933087	0.337962
29991	14.443990	5.159880	14.665426	0.106394	-5.825589	1.289131	0.034476	0.288644	0.956816	-0.991948	-0.106855	0.067976	0.121861	-0.951455	0.282636
29992	10.758328	5.593926	15.091469	-0.412592	-5.432188	1.616976	0.024926	0.234795	0.971725	-0.992922	-0.107096	0.051347	0.116124	-0.966127	0.230464
29993	8.042051	5.355903	14.698377	-0.715751	-5.139000	1.829843	0.012547	0.182862	0.983059	-0.994070	-0.103926	0.032019	0.108020	-0.977630	0.180474
29994	5.974013	5.744231	14.190982	-0.909120	-4.850140	1.993665	-0.002228	0.133221	0.991084	-0.995114	-0.098119	0.010952	0.098703	-0.986217	0.132789
29995	-2.183161	4.714863	12.447108	-1.043892	-4.822541	2.046746	-0.018044	0.083527	0.996342	-0.995889	-0.089978	-0.010493	0.088772	-0.992435	0.084808
29996	-6.469742	5.279357	10.965488	-1.153432	-5.417300	1.755138	-0.030946	0.028194	0.999123	-0.996427	-0.079464	-0.028620	0.078588	-0.996439	0.030552
29997	7.554612	5.034784	13.965472	-2.249841	-5.601024	0.935612	-0.036409	-0.028363	0.998934	-0.997652	-0.056995	-0.037981	0.058011	-0.997972	-0.026221
29998	27.367136	1.829384	15.652402	-1.838654	-1.698994	0.223270	-0.037740	-0.045357	0.998258	-0.998476	-0.038548	-0.039500	0.040272	-0.998227	-0.043833
29999	13.025352	2.893174	21.090881	-1.434000	1.504830	-0.494062	-0.033260	-0.030221	0.998990	-0.999124	-0.024387	-0.034002	0.025390	-0.999246	-0.029383
30000	5.820076	5.318391	16.756174	-1.178364	3.704059	-0.945734	-0.024443	0.007101	0.999676	-0.999623	-0.012707	-0.024351	0.012530	-0.999894	0.007409
30001	-2.920282	5.259920	12.590566	-1.526788	4.240768	-0.902417	-0.015570	0.049482	0.998654	-0.999872	0.002836	-0.015730	-0.003611	-0.998771	0.049432
30002	-2.717161	4.387959	9.903662	-1.563004	4.258822	-0.805861	-0.006938	0.092021	0.995733	-0.999781	0.019008	-0.008723	-0.019729	-0.995576	0.091869
30003	-1.597924	2.460449	7.804578	-1.578179	4.318146	-0.598341	0.000277	0.134691	0.990888	-0.999363	0.035389	-0.004531	-0.035677	-0.990255	0.134615
30004	-1.056127	0.617185	6.860419	-1.124452	4.378488	-0.383315	0.005995	0.177909	0.984029	-0.998887	0.047100	-0.002430	-0.046780	-0.982919	0.177993
30005	0.718952	0.097073	6.945868	-0.561084	4.469555	-0.203259	0.010270	0.221490	0.975109	-0.998592	0.053029	-0.001528	-0.052048	-0.973720	0.221722
