// General information: 
//  MT Manager version: 2022.2.0 
//  XDA version: 2022.2.0 build 7381 rev 124627 built on 2023-07-19
// Device information: 
//  DeviceId: 00B4CB9F
//  ProductCode: MTW2-3A7G6
//  Firmware Version: 4.6.0
//  Hardware Version: 2.0.0
// Device settings: 
//  Filter Profile: human(46.1)
//  Option Flags: Orientation Smoother Disabled, Position/Velocity Smoother Disabled, Continuous Zero Rotation Update Disabled, AHS Disabled, ICC Disabled
// Coordinate system: ENU
PacketCounter	Acc_X	Acc_Y	Acc_Z	Gyr_X	Gyr_Y	Gyr_Z	Mat[1][1]	Mat[2][1]	Mat[3][1]	Mat[1][2]	Mat[2][2]	Mat[3][2]	Mat[1][3]	Mat[2][3]	Mat[3][3]
40005	9.701032	-1.553639	-0.350339	0.002569	0.008974	-0.005569	0.131127	-0.107710	0.985497	0.566777	-0.807451	-0.163664	0.813369	0.580018	-0.044831
40006	9.685188	-1.537475	-0.375884	0.000230	0.009491	-0.011293	0.131058	-0.107678	0.985510	0.566825	-0.807430	-0.163600	0.813347	0.580053	-0.044786
40007	9.659287	-1.488404	-0.398774	-0.005125	0.010229	-0.005014	0.131011	-0.107678	0.985516	0.566822	-0.807439	-0.163572	0.813357	0.580042	-0.044749
40008	9.683347	-1.533103	-0.416050	-0.002286	0.012796	-0.012015	0.130911	-0.107659	0.985531	0.566850	-0.807433	-0.163500	0.813353	0.580052	-0.044675
40009	9.693640	-1.564873	-0.417664	-0.009096	0.010562	-0.011236	0.130826	-0.107611	0.985548	0.566823	-0.807471	-0.163410	0.813386	0.580009	-0.044642
40010	9.699778	-1.546286	-0.387530	-0.004710	0.012481	-0.009166	0.130745	-0.107613	0.985558	0.566828	-0.807477	-0.163365	0.813396	0.580001	-0.044575
40011	9.666358	-1.537826	-0.384145	-0.005361	0.013099	-0.007203	0.130662	-0.107613	0.985569	0.566826	-0.807488	-0.163315	0.813410	0.579985	-0.044511
40012	9.654297	-1.501356	-0.422510	-0.002566	0.011297	-0.009248	0.130590	-0.107607	0.985579	0.566848	-0.807481	-0.163270	0.813406	0.579995	-0.044452
40013	9.658249	-1.480043	-0.434717	-0.008214	0.007076	-0.011013	0.130535	-0.107541	0.985594	0.566826	-0.807514	-0.163182	0.813430	0.579962	-0.044452
40014	9.696192	-1.537209	-0.468094	-0.005600	0.008060	-0.008056	0.130496	-0.107527	0.985601	0.566823	-0.807524	-0.163148	0.813439	0.579951	-0.044430
40015	9.700681	-1.541699	-0.383184	-0.013626	0.007894	-0.011928	0.130428	-0.107458	0.985617	0.566758	-0.807589	-0.163048	0.813495	0.579873	-0.044430
40016	9.714740	-1.553138	-0.398177	-0.014651	0.010631	-0.010769	0.130353	-0.107436	0.985629	0.566684	-0.807654	-0.162983	0.813558	0.579786	-0.044398
40017	9.697383	-1.559507	-0.368667	-0.015356	0.011334	-0.015998	0.130235	-0.107355	0.985654	0.566612	-0.807733	-0.162842	0.813628	0.579691	-0.044366
40018	9.705194	-1.517216	-0.393705	-0.015731	0.013454	-0.016803	0.130102	-0.107301	0.985677	0.566537	-0.807811	-0.162717	0.813701	0.579593	-0.044308
40019	9.652159	-1.512865	-0.403789	-0.014474	0.015758	-0.017109	0.129942	-0.107236	0.985706	0.566472	-0.807887	-0.162567	0.813772	0.579499	-0.044232
40020	9.652469	-1.511222	-0.402524	-0.014614	0.015008	-0.015727	0.129803	-0.107200	0.985728	0.566405	-0.807957	-0.162453	0.813841	0.579408	-0.044156
40021	9.656513	-1.489301	-0.414467	-0.015362	0.011337	-0.016002	0.129684	-0.107118	0.985752	0.566332	-0.808036	-0.162312	0.813910	0.579313	-0.044125
40022	9.647131	-1.525900	-0.429778	-0.007614	0.010000	-0.009359	0.129622	-0.107105	0.985762	0.566314	-0.808059	-0.162264	0.813933	0.579284	-0.044087
40023	9.686786	-1.515005	-0.402061	-0.012653	0.008697	-0.009473	0.129562	-0.107061	0.985775	0.566255	-0.808115	-0.162190	0.813984	0.579213	-0.044077
40024	9.663507	-1.539306	-0.401473	-0.013171	0.017977	-0.010225	0.129430	-0.107087	0.985789	0.566192	-0.808171	-0.162131	0.814048	0.579131	-0.043970
40025	9.685136	-1.509903	-0.441960	-0.017138	0.010403	-0.015122	0.129324	-0.107007	0.985812	0.566104	-0.808259	-0.161998	0.814126	0.579023	-0.043950
40026	9.691269	-1.490785	-0.411863	-0.014110	0.013645	-0.016311	0.129193	-0.106958	0.985834	0.566042	-0.808326	-0.161879	0.814190	0.578937	-0.043887
40027	9.669755	-1.491274	-0.466411	-0.015745	0.013462	-0.016811	0.129053	-0.106882	0.985861	0.565968	-0.808408	-0.161731	0.814264	0.578838	-0.043835
40028	9.707437	-1.476758	-0.480421	-0.013975	0.014399	-0.017696	0.128908	-0.106827	0.985886	0.565908	-0.808476	-0.161598	0.814328	0.578752	-0.043765
40029	9.725812	-1.493269	-0.410597	-0.014629	0.015015	-0.015733	0.128761	-0.106769	0.985911	0.565841	-0.808550	-0.161461	0.814398	0.578659	-0.043695
40030	9.698911	-1.537454	-0.396577	-0.015432	0.022791	-0.013718	0.128570	-0.106794	0.985933	0.565765	-0.808623	-0.161367	0.814481	0.578553	-0.043544
40031	9.669334	-1.508174	-0.405301	-0.010396	0.024098	-0.013602	0.128361	-0.106806	0.985959	0.565729	-0.808671	-0.161253	0.814539	0.578485	-0.043378
40032	9.675400	-1.489454	-0.374134	-0.011932	0.020287	-0.010534	0.128209	-0.106843	0.985975	0.565677	-0.808719	-0.161191	0.814599	0.578410	-0.043246
40033	9.679400	-1.467901	-0.385181	-0.013805	0.022978	-0.013221	0.128011	-0.106851	0.986000	0.565614	-0.808785	-0.161079	0.814674	0.578316	-0.043097
40034	9.679695	-1.466501	-0.383080	-0.015818	0.024916	-0.014527	0.127798	-0.106882	0.986024	0.565536	-0.808861	-0.160977	0.814762	0.578204	-0.042925
40035	9.666070	-1.452489	-0.365435	-0.025898	0.022303	-0.014769	0.127596	-0.106874	0.986051	0.565373	-0.809001	-0.160844	0.814906	0.578010	-0.042802
40036	9.624959	-1.458009	-0.433083	-0.028275	0.018447	-0.015550	0.127431	-0.106859	0.986074	0.565194	-0.809150	-0.160726	0.815057	0.577805	-0.042714
40037	9.635467	-1.489190	-0.434643	-0.034434	0.015590	-0.016756	0.127273	-0.106797	0.986101	0.564965	-0.809340	-0.160571	0.815240	0.577549	-0.042671
40038	9.647732	-1.496956	-0.491463	-0.039856	0.016406	-0.017684	0.127112	-0.106753	0.986127	0.564694	-0.809558	-0.160427	0.815453	0.577252	-0.042622
40039	9.616464	-1.490363	-0.446086	-0.040102	0.019286	-0.019872	0.126906	-0.106686	0.986161	0.564425	-0.809783	-0.160239	0.815671	0.576949	-0.042550
40040	9.664488	-1.507928	-0.462589	-0.038521	0.019576	-0.026567	0.126669	-0.106588	0.986202	0.564176	-0.810002	-0.160008	0.815880	0.576659	-0.042468
40041	9.689166	-1.550587	-0.479552	-0.040079	0.023680	-0.024828	0.126400	-0.106506	0.986245	0.563913	-0.810232	-0.159771	0.816104	0.576351	-0.042353
40042	9.687925	-1.571282	-0.422701	-0.038694	0.026746	-0.026512	0.126104	-0.106450	0.986289	0.563662	-0.810452	-0.159540	0.816323	0.576052	-0.042200
40043	9.686686	-1.591985	-0.365543	-0.034178	0.029426	-0.025807	0.125783	-0.106394	0.986336	0.563447	-0.810649	-0.159297	0.816521	0.575785	-0.042019
40044	9.660095	-1.635162	-0.350830	-0.030043	0.034228	-0.025902	0.125430	-0.106385	0.986382	0.563265	-0.810819	-0.159076	0.816700	0.575548	-0.041778
40045	9.656882	-1.653145	-0.335143	-0.021498	0.033031	-0.022584	0.125097	-0.106376	0.986425	0.563150	-0.810939	-0.158869	0.816831	0.575380	-0.041541
40046	9.659302	-1.653843	-0.290026	-0.008612	0.033864	-0.024364	0.124756	-0.106378	0.986468	0.563142	-0.810983	-0.158673	0.816889	0.575317	-0.041269
40047	9.693494	-1.658670	-0.289020	-0.001222	0.031228	-0.029324	0.124400	-0.106303	0.986521	0.563201	-0.810994	-0.158409	0.816903	0.575315	-0.041018
40048	9.665927	-1.604783	-0.351714	0.000726	0.032818	-0.024390	0.124067	-0.106299	0.986564	0.563269	-0.810985	-0.158216	0.816906	0.575330	-0.040742
40049	9.649578	-1.516094	-0.356075	-0.007522	0.027611	-0.029167	0.123742	-0.106206	0.986615	0.563275	-0.811032	-0.157951	0.816951	0.575281	-0.040535
40050	9.667919	-1.504892	-0.382205	-0.023728	0.026517	-0.035607	0.123397	-0.106074	0.986672	0.563157	-0.811175	-0.157637	0.817085	0.575103	-0.040360
40051	9.690896	-1.404998	-0.360045	-0.044386	0.027027	-0.040521	0.123012	-0.105885	0.986740	0.562878	-0.811444	-0.157246	0.817335	0.574758	-0.040217
40052	9.691600	-1.400609	-0.358189	-0.066686	0.027352	-0.045948	0.122603	-0.105674	0.986814	0.562421	-0.811845	-0.156813	0.817711	0.574231	-0.040101
40053	9.674643	-1.377024	-0.425072	-0.083820	0.029756	-0.052628	0.122128	-0.105402	0.986902	0.561831	-0.812355	-0.156286	0.818187	0.573559	-0.039993
40054	9.682247	-1.397752	-0.510761	-0.097381	0.026129	-0.059756	0.121651	-0.105071	0.986996	0.561139	-0.812945	-0.155705	0.818733	0.572783	-0.039936
40055	9.693021	-1.491313	-0.574619	-0.107884	0.017839	-0.066751	0.121195	-0.104615	0.987101	0.560367	-0.813606	-0.155028	0.819329	0.571927	-0.039982
40056	9.748623	-1.557216	-0.582526	-0.113768	0.016383	-0.063573	0.120777	-0.104196	0.987196	0.559544	-0.814292	-0.154403	0.819954	0.571028	-0.040045
40057	9.765037	-1.660644	-0.520509	-0.100597	0.026442	-0.055003	0.120317	-0.103884	0.987285	0.558819	-0.814894	-0.153846	0.820515	0.570224	-0.039994
40058	9.959517	-1.723081	-0.292254	-0.078288	0.030560	-0.054504	0.119834	-0.103618	0.987372	0.558274	-0.815366	-0.153324	0.820957	0.569597	-0.039861
40059	9.610587	-1.731557	-0.175468	-0.052606	0.071378	-0.035658	0.119114	-0.103719	0.987448	0.557916	-0.815676	-0.152977	0.821305	0.569135	-0.039292
40060	9.524278	-1.745397	-0.083522	-0.020222	0.041666	-0.044951	0.118593	-0.103595	0.987524	0.557835	-0.815807	-0.152573	0.821435	0.568970	-0.038960
40061	9.696430	-1.551501	0.040998	-0.013528	0.035395	-0.050203	0.118087	-0.103373	0.987608	0.557813	-0.815911	-0.152098	0.821523	0.568862	-0.038686
40062	9.704892	-1.411054	-0.016084	-0.024412	0.037008	-0.052109	0.117565	-0.103163	0.987692	0.557706	-0.816073	-0.151622	0.821670	0.568668	-0.038406
40063	9.736089	-1.339233	-0.037106	-0.050247	0.039686	-0.053600	0.117004	-0.102938	0.987782	0.557389	-0.816386	-0.151100	0.821966	0.568258	-0.038144
40064	9.712293	-1.261664	-0.112473	-0.092476	0.036071	-0.055291	0.116472	-0.102697	0.987870	0.556725	-0.816938	-0.150566	0.822491	0.567509	-0.037976
40065	9.752008	-1.379952	-0.207238	-0.135708	0.031678	-0.059487	0.115944	-0.102377	0.987966	0.555708	-0.817742	-0.149954	0.823253	0.566407	-0.037920
40066	9.805916	-1.537441	-0.221551	-0.159935	0.038830	-0.058243	0.115374	-0.102126	0.988058	0.554491	-0.818676	-0.149365	0.824154	0.565102	-0.037826
40067	9.806780	-1.692842	-0.247446	-0.156242	0.050087	-0.056843	0.114709	-0.101930	0.988156	0.553302	-0.819588	-0.148772	0.825045	0.563814	-0.037616
40068	9.770733	-1.766930	-0.292620	-0.136685	0.056969	-0.062828	0.113964	-0.101742	0.988261	0.552278	-0.820391	-0.148147	0.825834	0.562678	-0.037306
40069	9.718789	-1.758349	-0.300886	-0.107012	0.062064	-0.063524	0.113165	-0.101558	0.988372	0.551497	-0.821031	-0.147507	0.826465	0.561777	-0.036903
40070	9.679151	-1.786269	-0.269497	-0.084677	0.066231	-0.062922	0.112343	-0.101419	0.988480	0.550901	-0.821540	-0.146902	0.826975	0.561058	-0.036423
40071	9.889282	-1.742406	-0.141997	-0.058460	0.052750	-0.057958	0.111652	-0.101227	0.988578	0.550515	-0.821899	-0.146336	0.827325	0.560566	-0.036039
40072	9.722424	-1.740680	-0.285812	-0.038866	0.087942	-0.045117	0.110748	-0.101355	0.988667	0.550277	-0.822133	-0.145923	0.827605	0.560201	-0.035276
40073	9.354134	-1.729429	-0.279125	-0.012887	0.065541	-0.057741	0.109952	-0.101238	0.988768	0.550264	-0.822238	-0.145377	0.827720	0.560067	-0.034699
40074	9.594133	-1.618288	-0.173342	-0.017888	0.060920	-0.068809	0.109142	-0.101019	0.988880	0.550224	-0.822378	-0.144737	0.827854	0.559902	-0.034173
40075	9.715437	-1.560550	-0.096342	-0.031004	0.068157	-0.075627	0.108226	-0.100769	0.989006	0.550082	-0.822600	-0.144009	0.828068	0.559620	-0.033596
40076	9.805852	-1.536936	-0.133870	-0.046582	0.079476	-0.084555	0.107175	-0.100524	0.989145	0.549820	-0.822916	-0.143204	0.828379	0.559200	-0.032926
40077	10.098880	-1.519551	0.020251	-0.059158	0.085162	-0.084772	0.106068	-0.100293	0.989288	0.549454	-0.823304	-0.142376	0.828764	0.558670	-0.032220
40078	9.690321	-1.574973	-0.147302	-0.071287	0.114696	-0.084900	0.104723	-0.100240	0.989437	0.548985	-0.823757	-0.141561	0.829245	0.558011	-0.031236
40079	9.619775	-1.602146	-0.024933	-0.059362	0.114895	-0.089065	0.103346	-0.100139	0.989592	0.548619	-0.824150	-0.140691	0.829661	0.557449	-0.030235
40080	9.806136	-1.642792	0.003873	-0.051933	0.125393	-0.094352	0.101861	-0.100066	0.989753	0.548318	-0.824504	-0.139789	0.830043	0.556939	-0.029116
40081	9.994674	-1.595614	0.084859	-0.031822	0.135291	-0.098502	0.100261	-0.099999	0.989923	0.548186	-0.824753	-0.138836	0.830325	0.556582	-0.027873
40082	10.036502	-1.488961	0.178315	-0.009532	0.165352	-0.091244	0.098461	-0.100173	0.990086	0.548231	-0.824867	-0.137977	0.830511	0.556381	-0.026299
40083	10.260835	-1.365861	0.356042	0.002791	0.176030	-0.080511	0.096621	-0.100482	0.990236	0.548364	-0.824906	-0.137211	0.830639	0.556268	-0.024603
40084	9.848613	-1.383145	0.314124	0.001985	0.237354	-0.055145	0.094420	-0.101353	0.990360	0.548467	-0.824920	-0.136712	0.830824	0.556088	-0.022300
40085	9.854249	-1.460468	0.443751	0.013786	0.250002	-0.038003	0.092198	-0.102423	0.990459	0.548651	-0.824855	-0.136370	0.830952	0.555989	-0.019855
40086	9.953078	-1.505959	0.562467	0.035737	0.270431	-0.019502	0.089916	-0.103773	0.990528	0.548999	-0.824646	-0.136230	0.830972	0.556049	-0.017178
40087	9.982561	-1.535891	0.644044	0.059698	0.284673	-0.001949	0.087602	-0.105334	0.990571	0.549530	-0.824289	-0.136251	0.830869	0.556284	-0.014325
40088	10.302084	-1.433079	0.751336	0.096005	0.319361	0.015181	0.085105	-0.107243	0.990584	0.550348	-0.823708	-0.136460	0.830586	0.556780	-0.011081
40089	10.057007	-1.397756	0.680958	0.115384	0.372197	0.033797	0.082262	-0.109590	0.990567	0.551312	-0.823001	-0.136836	0.830234	0.557368	-0.007284
40090	9.694921	-1.418871	0.581395	0.137469	0.418731	0.035003	0.079053	-0.112219	0.990534	0.552459	-0.822165	-0.137235	0.829783	0.558078	-0.002998
40091	9.850607	-1.334529	0.674155	0.158607	0.424070	0.030447	0.075764	-0.114834	0.990491	0.553785	-0.821217	-0.137569	0.829206	0.558942	0.001375
40092	9.760404	-1.415060	0.655498	0.179097	0.444039	0.018813	0.072261	-0.117478	0.990443	0.555290	-0.820162	-0.137794	0.828512	0.559940	0.005969
40093	9.884751	-1.482879	0.726223	0.215852	0.466202	0.005448	0.068490	-0.120133	0.990392	0.557108	-0.818917	-0.137860	0.827611	0.561198	0.010839
40094	9.951816	-1.481032	0.848935	0.260117	0.496460	0.002089	0.064469	-0.122946	0.990317	0.559293	-0.817422	-0.137891	0.826460	0.562767	0.016064
40095	9.971386	-1.533904	1.014179	0.310828	0.544083	0.015116	0.060120	-0.126133	0.990190	0.561884	-0.815622	-0.138011	0.825028	0.564670	0.021837
40096	10.012299	-1.731014	1.287791	0.397165	0.577240	0.013954	0.055515	-0.129519	0.990022	0.565184	-0.813324	-0.138095	0.823095	0.567211	0.028050
40097	10.275868	-2.019075	1.682420	0.514772	0.626255	0.026177	0.050576	-0.133291	0.989786	0.569436	-0.810332	-0.138222	0.820479	0.570610	0.034918
40098	10.434425	-2.445647	2.107930	0.675047	0.700069	0.013665	0.044995	-0.137417	0.989491	0.574991	-0.806414	-0.138139	0.816921	0.575164	0.042729
40099	10.502298	-2.835381	2.568620	0.887045	0.826387	-0.010735	0.038260	-0.142108	0.989111	0.582256	-0.801269	-0.137642	0.812105	0.581182	0.052087
40100	10.964440	-3.001569	3.203550	1.131359	0.995196	-0.023718	0.030143	-0.147744	0.988566	0.591452	-0.794652	-0.136797	0.805777	0.588813	0.063430
40101	10.922778	-3.146462	3.750973	1.379830	1.219095	-0.041140	0.020179	-0.154654	0.987763	0.602561	-0.786494	-0.135451	0.797818	0.597921	0.077318
40102	10.717572	-3.061704	4.188463	1.634641	1.487799	-0.058075	0.008100	-0.163176	0.986564	0.615567	-0.776692	-0.133517	0.788043	0.608378	0.094154
40103	10.383505	-2.717191	4.601031	1.877717	1.724217	-0.103756	-0.005979	-0.172970	0.984909	0.630292	-0.765299	-0.130576	0.776335	0.620000	0.113597
40104	10.029851	-2.141786	4.745647	2.062954	1.900769	-0.184663	-0.021714	-0.183470	0.982785	0.646180	-0.752673	-0.126235	0.762876	0.632315	0.134898
40105	9.744583	-1.113277	4.525530	2.169389	2.001396	-0.289618	-0.038679	-0.194096	0.980220	0.662519	-0.739330	-0.120254	0.748046	0.644762	0.157189
40106	9.324487	0.168427	4.210794	2.129849	2.041333	-0.402012	-0.056416	-0.204427	0.977255	0.678134	-0.726235	-0.112769	0.732770	0.656348	0.179601
40107	8.856843	1.380475	3.982892	1.944263	2.000294	-0.505338	-0.074343	-0.214020	0.973996	0.691945	-0.714396	-0.104163	0.718112	0.666208	0.201201
40108	8.722698	2.147227	3.666856	1.608974	1.886732	-0.544496	-0.091497	-0.222791	0.970563	0.702982	-0.704766	-0.095506	0.705298	0.673550	0.221102
40109	8.805149	2.429521	3.372956	1.152574	1.733098	-0.519573	-0.107266	-0.230858	0.967057	0.710574	-0.698119	-0.087840	0.695399	0.677743	0.238926
40110	9.069417	2.311422	3.056135	0.698767	1.567957	-0.450961	-0.121258	-0.238348	0.963580	0.714931	-0.694394	-0.081795	0.688600	0.678975	0.254604
40111	8.962342	1.824001	2.675550	0.309273	1.378246	-0.359608	-0.133259	-0.245202	0.960270	0.716632	-0.693127	-0.077540	0.684602	0.677828	0.268085
40112	8.861538	1.359558	2.172635	0.003696	1.178954	-0.263949	-0.143139	-0.251340	0.957256	0.716331	-0.693715	-0.075031	0.682921	0.674972	0.279340
40113	8.671182	0.969159	1.392118	-0.205546	0.985020	-0.181156	-0.151127	-0.256707	0.954600	0.714696	-0.695521	-0.073890	0.682913	0.671083	0.288580
40114	8.593154	0.754210	0.491650	-0.454446	0.763557	-0.154647	-0.157380	-0.260728	0.952498	0.711388	-0.698917	-0.073773	0.684951	0.665985	0.295474
40115	8.671518	0.372861	-0.248427	-0.720274	0.588477	-0.145249	-0.162418	-0.263603	0.950860	0.706244	-0.704033	-0.074542	0.689086	0.659432	0.300515
40116	8.698027	-0.147773	-0.815403	-0.932071	0.463792	-0.151425	-0.166620	-0.265567	0.949585	0.699585	-0.710502	-0.075951	0.694852	0.651660	0.304170
40117	8.725167	-0.761331	-1.082843	-1.014356	0.363090	-0.146949	-0.170139	-0.266861	0.948598	0.692294	-0.717425	-0.077658	0.701272	0.643496	0.306808
40118	8.592205	-1.304636	-1.115336	-0.961382	0.275599	-0.132288	-0.172919	-0.267667	0.947868	0.685336	-0.723887	-0.079392	0.707399	0.635879	0.308616
40119	8.354092	-1.609092	-1.067685	-0.793923	0.192748	-0.113759	-0.175021	-0.268050	0.947373	0.679540	-0.729178	-0.080773	0.712455	0.629641	0.309773
40120	8.219959	-1.846784	-0.751353	-0.565367	0.099003	-0.117867	-0.176455	-0.267808	0.947176	0.675336	-0.733000	-0.081439	0.716090	0.625291	0.310202
40121	8.488205	-2.036370	-0.244902	-0.270539	0.026107	-0.129581	-0.177468	-0.267008	0.947213	0.673206	-0.734999	-0.081057	0.717843	0.623284	0.310190
40122	8.975664	-2.178689	0.400341	0.045740	-0.022402	-0.120466	-0.178046	-0.265981	0.947393	0.673361	-0.734994	-0.079804	0.717554	0.623729	0.309964
40123	9.416979	-2.323662	1.021845	0.380497	-0.019599	-0.084808	-0.178425	-0.265224	0.947534	0.675975	-0.732803	-0.077829	0.714998	0.626622	0.310036
40124	9.698672	-2.377085	1.731755	0.732671	0.009474	-0.047340	-0.178742	-0.264936	0.947555	0.681151	-0.728277	-0.075137	0.709989	0.631998	0.310635
40125	9.809601	-2.086580	2.553748	1.096694	0.053953	-0.008240	-0.179124	-0.265206	0.947407	0.688920	-0.721286	-0.071656	0.702356	0.639853	0.311905
40126	9.649466	-1.483570	3.538650	1.424376	0.111030	0.013552	-0.179732	-0.266015	0.947065	0.698917	-0.712024	-0.067357	0.692251	0.649814	0.313896
40127	9.365961	-0.529026	4.445335	1.666380	0.174550	0.031682	-0.180649	-0.267370	0.946509	0.710448	-0.700976	-0.062416	0.680169	0.661170	0.316583
40128	9.169268	0.642193	5.228031	1.780993	0.208630	0.037488	-0.181715	-0.269016	0.945838	0.722552	-0.688951	-0.057135	0.667007	0.673035	0.319571
40129	8.940967	1.962614	5.826448	1.723272	0.223844	0.049830	-0.182776	-0.270860	0.945107	0.734063	-0.677081	-0.052084	0.654022	0.684248	0.322582
40130	8.826564	3.071426	6.187113	1.493333	0.219422	0.065386	-0.183644	-0.272803	0.944380	0.743902	-0.666570	-0.047893	0.642561	0.693731	0.325350
40131	8.765023	3.985481	6.153391	1.143385	0.215199	0.082922	-0.184349	-0.274835	0.943653	0.751386	-0.658330	-0.044948	0.633589	0.700761	0.327870
40132	8.243715	4.263459	5.879945	0.731179	0.216791	0.089145	-0.184974	-0.276933	0.942917	0.756199	-0.652900	-0.043411	0.627653	0.705003	0.330186
40133	7.753240	4.106012	5.568512	0.295790	0.181677	0.066540	-0.185568	-0.278629	0.942301	0.758209	-0.650588	-0.043058	0.625047	0.706471	0.331988
40134	7.369144	3.555623	5.072902	-0.158561	0.098218	0.030133	-0.185883	-0.279509	0.941978	0.757310	-0.651578	-0.043897	0.626042	0.705210	0.332792
40135	7.180654	2.834568	4.359377	-0.626769	-0.006173	-0.004632	-0.185846	-0.279414	0.942013	0.753397	-0.655960	-0.045932	0.630757	0.701174	0.332417
40136	6.975679	2.397138	3.689313	-1.096166	-0.109663	-0.006919	-0.185131	-0.278594	0.942397	0.746462	-0.663583	-0.049530	0.639157	0.694294	0.330809
40137	6.584526	2.383533	2.746393	-1.523715	-0.240255	-0.008570	-0.183616	-0.276859	0.943204	0.736652	-0.674076	-0.054456	0.650868	0.684814	0.327719
40138	6.075733	2.679638	1.500642	-1.908694	-0.408893	0.013126	-0.180757	-0.274164	0.944543	0.724151	-0.686955	-0.060816	0.665532	0.672998	0.322709
40139	5.727938	2.801784	0.454922	-2.270755	-0.601322	0.056575	-0.176271	-0.270531	0.946436	0.708977	-0.701889	-0.068584	0.682847	0.658912	0.315523
40140	5.656385	2.215252	-0.031793	-2.600647	-0.786093	0.103062	-0.170033	-0.266143	0.948819	0.691182	-0.718495	-0.077674	0.702394	0.642599	0.306121
40141	6.718572	0.666889	0.541077	-2.772028	-0.921722	0.151796	-0.162404	-0.261382	0.951475	0.671716	-0.735631	-0.087434	0.722788	0.624921	0.295044
40142	8.996501	-1.682104	2.359395	-2.695836	-0.919779	0.220940	-0.154132	-0.257357	0.953945	0.652360	-0.751628	-0.097372	0.742071	0.607307	0.283739
40143	12.143880	-5.212773	6.294703	-2.317848	-0.696776	0.286636	-0.147032	-0.255334	0.955608	0.635444	-0.764757	-0.106569	0.758019	0.591566	0.274694
40144	14.816981	-9.893317	10.240123	-1.553253	-0.218136	0.292666	-0.143452	-0.256308	0.955891	0.624059	-0.773071	-0.113634	0.768097	0.580231	0.270850
40145	14.980462	-13.223573	9.219143	-0.214147	0.171095	0.239799	-0.143243	-0.259146	0.955157	0.622796	-0.773661	-0.116505	0.769160	0.578179	0.272217
40146	14.173107	-10.420138	6.830172	1.228336	0.097208	0.343681	-0.141757	-0.262360	0.954501	0.632727	-0.765568	-0.116460	0.761289	0.587430	0.274527
40147	12.395809	-3.615671	4.875705	1.984174	-0.127304	0.411515	-0.138126	-0.264732	0.954378	0.648324	-0.752638	-0.114941	0.748731	0.602870	0.275591
40148	10.955685	3.506739	3.642404	2.006432	-0.272658	0.243962	-0.134429	-0.264887	0.954863	0.663591	-0.739698	-0.111776	0.735918	0.618613	0.275213
40149	9.531664	8.532454	1.925226	1.373573	-0.185903	-0.003970	-0.133063	-0.263700	0.955383	0.673671	-0.731102	-0.107968	0.726953	0.629248	0.274930
40150	8.371915	9.987427	0.230098	0.227208	-0.029355	-0.163113	-0.133878	-0.262321	0.955649	0.675143	-0.730058	-0.105816	0.725437	0.631033	0.274842
40151	7.622835	8.330583	-0.136239	-0.966365	0.092113	-0.119444	-0.135327	-0.262012	0.955529	0.667978	-0.736401	-0.107323	0.731773	0.623749	0.274674
40152	6.961222	4.804762	0.270168	-1.760882	-0.036446	0.109295	-0.134263	-0.262597	0.955519	0.655177	-0.746944	-0.113215	0.743449	0.610833	0.272334
40153	8.032408	1.373273	0.911697	-2.044230	-0.433449	0.390850	-0.128460	-0.262904	0.956232	0.640389	-0.758229	-0.122436	0.757232	0.596632	0.265762
40154	9.800411	-1.408500	0.845105	-2.183802	-0.788943	0.617159	-0.118451	-0.262970	0.957505	0.624493	-0.769438	-0.134064	0.771996	0.582075	0.255363
40155	11.205392	-2.827990	0.234874	-2.369300	-0.942211	0.728189	-0.106599	-0.263188	0.958837	0.606875	-0.781098	-0.146931	0.787617	0.566231	0.242987
40156	11.326816	-3.363846	-0.114154	-2.574142	-0.969544	0.704920	-0.094602	-0.263338	0.960054	0.587139	-0.793554	-0.159812	0.803939	0.548567	0.229688
40157	10.616040	-3.920292	-0.252671	-2.633898	-0.928812	0.594027	-0.083609	-0.263066	0.961148	0.566322	-0.806168	-0.171385	0.819932	0.529990	0.216383
40158	9.558242	-4.655376	-0.188950	-2.455326	-0.912590	0.482788	-0.073301	-0.262237	0.962216	0.546433	-0.817663	-0.181214	0.834289	0.512503	0.203231
40159	8.571907	-5.738875	-0.496965	-2.041371	-0.919784	0.368251	-0.063563	-0.260607	0.963350	0.529576	-0.826990	-0.188776	0.845878	0.498168	0.190577
40160	8.159449	-6.376777	-0.703986	-1.472129	-0.942943	0.240850	-0.054215	-0.257965	0.964632	0.517246	-0.833593	-0.193852	0.854118	0.488442	0.178624
40161	8.385321	-5.785293	-0.858356	-0.859693	-0.976375	0.140329	-0.045094	-0.254387	0.966051	0.509993	-0.837386	-0.196700	0.858996	0.483809	0.167497
40162	8.558075	-4.529675	-0.880819	-0.375026	-0.998251	0.074471	-0.036056	-0.250195	0.967524	0.506839	-0.838978	-0.198066	0.861286	0.483237	0.157059
40163	9.058424	-3.321470	-0.700336	-0.044641	-1.033104	0.053177	-0.026844	-0.245636	0.968990	0.506512	-0.839035	-0.198661	0.861815	0.485473	0.146940
40164	9.472326	-2.463863	-0.369401	0.146145	-1.031477	0.056484	-0.017598	-0.241093	0.970342	0.507824	-0.838152	-0.199039	0.861281	0.489261	0.137183
40165	9.618713	-1.815613	0.157238	0.230046	-1.008437	0.072999	-0.008501	-0.236747	0.971534	0.509854	-0.836819	-0.199457	0.860219	0.493645	0.127820
40166	9.785057	-1.131486	0.528685	0.211329	-0.985842	0.076580	0.000438	-0.232510	0.972594	0.511713	-0.835558	-0.199981	0.859156	0.497777	0.118613
40167	9.887639	-0.307997	0.733208	0.092673	-0.946256	0.082621	0.009035	-0.228472	0.973509	0.512544	-0.834877	-0.200694	0.858613	0.500780	0.109559
40168	9.727614	0.126475	0.794272	-0.142111	-0.917931	0.072728	0.017364	-0.224488	0.974322	0.511353	-0.835392	-0.201591	0.859195	0.501723	0.100287
40169	9.548433	-0.158884	0.774567	-0.443723	-0.915820	0.051722	0.025552	-0.220328	0.975091	0.507563	-0.837473	-0.202532	0.861236	0.500095	0.090431
40170	9.574433	-1.012719	0.537291	-0.701111	-0.947161	0.053448	0.034067	-0.216067	0.975784	0.501536	-0.840816	-0.203691	0.864466	0.496330	0.079722
40171	9.529255	-2.129470	0.221803	-0.821639	-0.997491	0.052185	0.043013	-0.211573	0.976415	0.494435	-0.844738	-0.204822	0.868150	0.491584	0.068275
40172	9.778715	-2.980136	-0.090627	-0.794379	-1.041700	0.066634	0.052474	-0.207051	0.976922	0.487531	-0.848453	-0.206010	0.871527	0.487090	0.056422
40173	9.783580	-3.444764	-0.407034	-0.687453	-1.088517	0.075005	0.062385	-0.202400	0.977314	0.481525	-0.851611	-0.207104	0.874209	0.483521	0.044333
40174	10.159722	-3.353952	-0.581071	-0.569547	-1.123597	0.080081	0.072674	-0.197676	0.977570	0.476523	-0.854166	-0.208148	0.876153	0.480961	0.032122
40175	9.714774	-3.055110	-0.971011	-0.505552	-1.142138	0.058917	0.083017	-0.192695	0.977741	0.472080	-0.856453	-0.208874	0.877638	0.478912	0.019867
40176	9.553429	-2.540766	-1.155070	-0.487896	-1.182509	0.024456	0.093589	-0.187265	0.977841	0.467810	-0.858708	-0.209224	0.878860	0.477025	0.007238
40177	9.367150	-2.235356	-1.388765	-0.520298	-1.203874	-0.023193	0.104120	-0.181333	0.977894	0.463292	-0.861203	-0.209022	0.880068	0.474814	-0.005658
40178	9.139503	-2.160358	-1.376759	-0.530161	-1.222597	-0.080756	0.114585	-0.174858	0.977903	0.458747	-0.863828	-0.208214	0.881148	0.472468	-0.018766
40179	9.763944	-2.197608	-1.277039	-0.528383	-1.239680	-0.113113	0.125050	-0.168034	0.977817	0.454258	-0.866488	-0.206996	0.882050	0.470067	-0.032024
40180	8.681761	-2.433054	-1.382246	-0.507251	-1.217982	-0.161576	0.135138	-0.160934	0.977670	0.450027	-0.869103	-0.205268	0.882731	0.467717	-0.045025
40181	9.192784	-2.306920	-1.072283	-0.463982	-1.266632	-0.202065	0.145469	-0.153261	0.977420	0.446248	-0.871563	-0.203077	0.883007	0.465713	-0.058394
40182	9.178443	-2.134307	-0.879316	-0.455808	-1.269028	-0.246410	0.155651	-0.145227	0.977078	0.442627	-0.874021	-0.200421	0.883093	0.463677	-0.071761
40183	8.994939	-2.073295	-0.715891	-0.450748	-1.268714	-0.290073	0.165631	-0.136816	0.976651	0.439145	-0.876493	-0.197260	0.883017	0.461564	-0.085092
40184	9.315812	-2.138996	-0.301348	-0.435734	-1.275294	-0.318266	0.175568	-0.128164	0.976089	0.435873	-0.878894	-0.193802	0.882718	0.459477	-0.098442
40185	9.203489	-2.278892	-0.007633	-0.403531	-1.212826	-0.318249	0.184943	-0.119802	0.975420	0.432917	-0.881117	-0.190302	0.882258	0.457471	-0.111092
40186	9.495998	-2.446564	0.587979	-0.355325	-1.175770	-0.304949	0.194066	-0.111758	0.974602	0.430393	-0.883067	-0.186963	0.881533	0.455745	-0.123273
40187	9.558636	-2.721044	1.036849	-0.290325	-1.093998	-0.270749	0.202594	-0.104388	0.973683	0.428402	-0.884659	-0.183982	0.880583	0.454402	-0.134507
40188	9.457807	-2.928278	1.528573	-0.205476	-1.015847	-0.233534	0.210604	-0.097723	0.972675	0.427107	-0.885803	-0.181473	0.879332	0.453656	-0.144816
40189	9.450972	-3.045940	1.971391	-0.119091	-0.933172	-0.195021	0.218021	-0.091767	0.971620	0.426509	-0.886507	-0.179432	0.877814	0.453524	-0.154138
40190	9.338031	-3.015571	2.299341	-0.043032	-0.867303	-0.149103	0.225060	-0.086525	0.970495	0.426491	-0.886810	-0.177968	0.876044	0.453962	-0.162684
40191	9.395584	-2.841578	2.664024	-0.008976	-0.815995	-0.083408	0.231892	-0.082087	0.969272	0.426632	-0.886900	-0.177180	0.874192	0.454609	-0.170644
40192	9.555624	-2.906849	2.903203	-0.022531	-0.777960	-0.022459	0.238659	-0.078364	0.967936	0.426517	-0.886996	-0.176976	0.872425	0.455079	-0.178266
40193	9.812975	-3.189732	3.062550	-0.042578	-0.745087	0.041306	0.245371	-0.075352	0.966496	0.426074	-0.887137	-0.177336	0.870777	0.455312	-0.185572
40194	10.015185	-3.298440	3.184578	-0.059988	-0.725722	0.091716	0.252145	-0.072876	0.964941	0.425353	-0.887318	-0.178161	0.869194	0.455363	-0.192734
40195	10.220257	-3.109985	2.834009	-0.063994	-0.719776	0.129350	0.258982	-0.070765	0.963286	0.424494	-0.887495	-0.179324	0.867602	0.455351	-0.199805
40196	10.665401	-2.495978	2.308861	-0.089139	-0.688410	0.122439	0.265537	-0.068733	0.961647	0.423428	-0.887792	-0.180375	0.866140	0.455085	-0.206638
40197	10.734570	-1.893686	1.699856	-0.176982	-0.610582	0.071628	0.271157	-0.066617	0.960227	0.421731	-0.888526	-0.180735	0.865227	0.453965	-0.212836
40198	10.537564	-1.815789	0.794210	-0.280428	-0.519869	0.022257	0.275817	-0.064476	0.959045	0.419271	-0.889758	-0.180398	0.864949	0.451857	-0.218377
40199	10.271843	-2.096120	-0.346392	-0.313736	-0.459249	-0.030601	0.279689	-0.062159	0.958076	0.416669	-0.891169	-0.179455	0.864963	0.449392	-0.223350
40200	9.998626	-1.980765	-1.340087	-0.327692	-0.442688	-0.081049	0.283250	-0.059468	0.957201	0.414089	-0.892664	-0.177994	0.865043	0.446783	-0.228222
40201	9.992262	-1.765394	-1.858841	-0.418857	-0.449121	-0.115907	0.286684	-0.056461	0.956360	0.410821	-0.894574	-0.175963	0.865470	0.443339	-0.233265
40202	9.880871	-1.894080	-2.168454	-0.548798	-0.454122	-0.120637	0.290191	-0.053393	0.955478	0.406443	-0.897038	-0.173570	0.866368	0.438716	-0.238611
40203	8.170347	-2.169639	-2.545801	-0.640555	-0.572276	-0.180966	0.294447	-0.049301	0.954395	0.401445	-0.899904	-0.170338	0.867262	0.433293	-0.245182
40204	11.570391	-2.319559	-1.914474	-0.717662	-0.570974	-0.192965	0.298700	-0.045122	0.953280	0.395816	-0.903060	-0.166769	0.868394	0.427137	-0.251885
40205	10.970978	-2.624256	-1.489726	-0.765985	-0.473129	-0.180680	0.302129	-0.041512	0.952363	0.389726	-0.906365	-0.163144	0.869961	0.420451	-0.257661
40206	11.461299	-3.595640	-0.824093	-0.693934	-0.427698	-0.165081	0.305281	-0.038246	0.951494	0.384211	-0.909307	-0.159822	0.871312	0.414365	-0.262900
40207	12.217212	-4.244967	-0.533444	-0.537438	-0.347605	-0.186432	0.307623	-0.035150	0.950859	0.380122	-0.911570	-0.156675	0.872282	0.409639	-0.267059
40208	13.578899	-3.905140	-0.241270	-0.379920	-0.176524	-0.208574	0.308441	-0.032545	0.950687	0.377474	-0.913171	-0.153729	0.873142	0.406276	-0.269374
40209	13.663943	-3.532252	-0.305278	-0.263539	0.143511	-0.247540	0.306276	-0.030903	0.951441	0.375957	-0.914298	-0.150719	0.874558	0.403862	-0.268409
40210	12.940970	-3.614279	-0.414883	-0.124125	0.520616	-0.260033	0.300807	-0.030643	0.953192	0.375685	-0.914858	-0.147969	0.876570	0.402611	-0.263684
40211	12.776115	-3.792822	-0.094448	0.094418	0.834985	-0.219761	0.292671	-0.032039	0.955676	0.377191	-0.914528	-0.146172	0.878676	0.403253	-0.255571
40212	12.196011	-3.193115	0.506091	0.351981	1.005738	-0.132503	0.283391	-0.034918	0.958368	0.380695	-0.913127	-0.145842	0.880205	0.406176	-0.245480
40213	11.173842	-2.066104	0.832495	0.595351	1.214460	-0.018731	0.272639	-0.039755	0.961295	0.386017	-0.910681	-0.147143	0.881283	0.411193	-0.232941
40214	10.654987	-0.614958	1.319057	0.726987	1.363690	0.019880	0.260761	-0.045603	0.964326	0.392401	-0.907640	-0.149031	0.882057	0.417264	-0.218783
40215	9.728747	0.756875	1.658195	0.722950	1.539541	-0.042795	0.247016	-0.051730	0.967630	0.398918	-0.904602	-0.150196	0.883090	0.423106	-0.202815
40216	9.103126	1.806662	1.824628	0.599216	1.737699	-0.175840	0.231018	-0.057551	0.971246	0.404665	-0.902128	-0.149707	0.884804	0.427614	-0.185119
40217	8.500418	2.046678	1.737794	0.367614	1.904489	-0.302180	0.212918	-0.063036	0.975035	0.408622	-0.900713	-0.147461	0.887522	0.429817	-0.166020
40218	7.941956	1.370280	1.424386	0.120965	2.014293	-0.389306	0.193479	-0.068203	0.978731	0.410520	-0.900426	-0.143899	0.891089	0.429630	-0.146215
40219	8.175413	0.198460	0.856051	-0.089541	2.034601	-0.403525	0.173652	-0.073328	0.982073	0.410490	-0.901075	-0.139864	0.895178	0.427419	-0.126373
40220	8.769704	-1.038827	0.178108	-0.201547	2.035892	-0.349688	0.154021	-0.078861	0.984915	0.409288	-0.902176	-0.136241	0.899311	0.424098	-0.106677
40221	9.312242	-2.013569	-0.318319	-0.221134	1.986743	-0.258813	0.135058	-0.084956	0.987189	0.407701	-0.903302	-0.133515	0.903072	0.420510	-0.087361
40222	9.507207	-2.669762	-0.723957	-0.149299	1.950010	-0.170257	0.116795	-0.091606	0.988922	0.406600	-0.904054	-0.131765	0.906110	0.417485	-0.068342
40223	9.644824	-2.991737	-0.884407	-0.006317	1.909566	-0.083409	0.099133	-0.098850	0.990152	0.406665	-0.904139	-0.130978	0.908183	0.415645	-0.049431
40224	9.911243	-2.995749	-0.895736	0.170555	1.854541	-0.022985	0.082258	-0.106365	0.990919	0.408274	-0.903431	-0.130866	0.909146	0.415331	-0.030888
40225	10.009525	-2.766524	-0.964771	0.322696	1.831969	0.019960	0.065685	-0.114207	0.991283	0.411227	-0.902045	-0.131175	0.909163	0.416259	-0.012286
40226	9.970931	-2.541175	-1.093413	0.418592	1.778674	0.032321	0.049725	-0.121935	0.991292	0.415052	-0.900236	-0.131555	0.908438	0.417979	0.005846
40227	10.206486	-2.294105	-1.387522	0.499438	1.705964	0.005158	0.034265	-0.129177	0.991029	0.419620	-0.898113	-0.131574	0.907053	0.420364	0.023432
40228	10.430913	-2.086796	-1.721674	0.630400	1.623959	-0.031332	0.019491	-0.135769	0.990549	0.425380	-0.895468	-0.131107	0.904805	0.423915	0.040300
40229	11.113022	-1.898737	-1.737694	0.804367	1.531850	-0.038606	0.005498	-0.141999	0.989851	0.432687	-0.892067	-0.130375	0.901527	0.429013	0.056537
40230	11.692143	-2.341151	-1.546023	1.004567	1.493432	0.008171	-0.007826	-0.148547	0.988874	0.441763	-0.887685	-0.129850	0.897098	0.435832	0.072570
40231	12.363911	-2.819047	-1.278167	1.255581	1.491537	0.071095	-0.020833	-0.155783	0.987572	0.453040	-0.882023	-0.129576	0.891247	0.444709	0.088951
40232	12.517776	-3.283574	-0.923611	1.500887	1.527107	0.145193	-0.033649	-0.163947	0.985895	0.466443	-0.875007	-0.129588	0.883911	0.455503	0.105915
40233	12.367576	-3.528317	-0.548744	1.752606	1.565196	0.232003	-0.046298	-0.173235	0.983792	0.481989	-0.866495	-0.129898	0.874953	0.468163	0.123614
40234	11.795511	-3.427119	-0.333052	1.959329	1.603528	0.299218	-0.058704	-0.183446	0.981275	0.499230	-0.856620	-0.130276	0.864478	0.482235	0.141869
40235	11.167271	-3.174493	-0.189808	2.129793	1.599319	0.340801	-0.070682	-0.194217	0.978409	0.517777	-0.845514	-0.130432	0.852591	0.497379	0.160324
40236	10.751472	-2.639529	-0.072622	2.268083	1.567609	0.371663	-0.081911	-0.205269	0.975272	0.537293	-0.833277	-0.130257	0.839409	0.513337	0.178544
40237	10.295204	-1.588907	0.095190	2.307302	1.556731	0.364577	-0.092851	-0.216433	0.971872	0.556859	-0.820448	-0.129510	0.825401	0.529171	0.196702
40238	9.550259	-0.822662	0.241405	2.219529	1.537440	0.312302	-0.103592	-0.227231	0.968315	0.575373	-0.807811	-0.128012	0.811304	0.543881	0.214426
40239	8.953452	-0.118963	0.428147	2.099422	1.508302	0.247213	-0.114253	-0.237547	0.964633	0.592570	-0.795643	-0.125747	0.797375	0.557246	0.231668
40240	8.798254	0.760249	0.735221	1.909489	1.437527	0.264543	-0.123961	-0.247735	0.960865	0.608028	-0.784212	-0.123749	0.784179	0.568892	0.247841
40241	8.254400	-0.143152	0.458024	1.675255	1.451774	0.161041	-0.134239	-0.257341	0.956951	0.621311	-0.774160	-0.121030	0.771980	0.578317	0.263811
40242	7.941455	0.038141	0.552913	1.520496	1.397424	0.093538	-0.144287	-0.266202	0.953057	0.633134	-0.765022	-0.117828	0.760475	0.586412	0.278924
40243	7.594271	0.285606	0.470416	1.388225	1.303856	0.080675	-0.153587	-0.274526	0.949235	0.643776	-0.756577	-0.114644	0.749642	0.593486	0.292934
40244	7.251248	0.177446	0.344037	1.262483	1.200708	0.052707	-0.162114	-0.282087	0.945593	0.653301	-0.748858	-0.111395	0.739538	0.599698	0.305688
40245	7.080273	0.493069	0.197079	1.190719	1.069250	0.045459	-0.169640	-0.288884	0.942215	0.662165	-0.741516	-0.108130	0.729904	0.605558	0.317080
40246	7.012848	0.817982	0.016976	1.107530	0.927260	0.053397	-0.175939	-0.294918	0.939185	0.670332	-0.734581	-0.105095	0.720902	0.611076	0.326934
40247	6.972695	1.013325	0.012916	0.992650	0.774362	0.053030	-0.181101	-0.300066	0.936570	0.677582	-0.728295	-0.102316	0.712801	0.616073	0.335214
40248	7.056651	1.200377	0.322373	0.856566	0.632773	0.069038	-0.185047	-0.304478	0.934372	0.683825	-0.722749	-0.100089	0.705791	0.620426	0.341952
40249	6.856321	0.881930	0.502679	0.713686	0.514662	0.031156	-0.188418	-0.307909	0.932572	0.688938	-0.718175	-0.097927	0.699902	0.624033	0.347448
40250	6.711219	0.670604	0.720210	0.603486	0.395346	-0.009389	-0.191169	-0.310312	0.931215	0.693170	-0.714385	-0.095757	0.694961	0.627184	0.351667
40251	6.474033	0.442456	1.066167	0.511541	0.272972	-0.048276	-0.193363	-0.311685	0.930303	0.696659	-0.711282	-0.093505	0.690852	0.630024	0.354674
40252	6.360084	0.288114	1.353122	0.434103	0.128371	-0.102235	-0.194890	-0.311766	0.929957	0.699493	-0.708817	-0.091037	0.687552	0.632756	0.356220
40253	6.407587	0.139522	1.554828	0.377844	-0.017535	-0.164172	-0.195887	-0.310491	0.930174	0.701803	-0.706894	-0.088167	0.684910	0.635528	0.356375
40254	6.634924	-0.083647	1.791615	0.358010	-0.136040	-0.179355	-0.196146	-0.308354	0.930830	0.703940	-0.705125	-0.085250	0.682639	0.638527	0.355370
40255	6.958872	-0.420605	2.519870	0.360136	-0.234887	-0.114014	-0.195315	-0.306044	0.931766	0.706208	-0.703132	-0.082914	0.680531	0.641827	0.353464
40256	7.190049	-0.720014	3.867414	0.316992	-0.274300	-0.068746	-0.193866	-0.303792	0.932806	0.708269	-0.701259	-0.081183	0.678801	0.644939	0.351117
40257	8.295975	-1.980002	6.806211	0.333258	-0.218835	-0.067371	-0.192827	-0.301902	0.933634	0.710434	-0.699271	-0.079389	0.676831	0.647977	0.349320
40258	10.006982	-3.729093	9.506214	0.619034	-0.105193	-0.083880	-0.192644	-0.300628	0.934083	0.714489	-0.695455	-0.076472	0.672602	0.652660	0.348771
40259	11.874791	-4.840579	10.775011	1.263783	0.091608	-0.062363	-0.193673	-0.300800	0.933815	0.722847	-0.687302	-0.071475	0.663312	0.661162	0.350544
40260	12.618788	-3.071323	10.286865	1.968135	0.237160	0.020599	-0.195007	-0.302517	0.932982	0.735835	-0.674057	-0.064760	0.648474	0.673892	0.354048
40261	12.360548	0.171653	9.999219	2.148579	0.416197	0.143372	-0.196577	-0.306310	0.931414	0.749904	-0.658960	-0.058440	0.631666	0.686983	0.359240
40262	11.049051	2.752861	8.854736	1.840798	0.518811	0.194754	-0.198273	-0.311163	0.929444	0.761816	-0.645571	-0.053612	0.616704	0.697436	0.365048
40263	9.518644	4.493456	8.142033	1.231855	0.622303	0.230541	-0.200290	-0.317005	0.927034	0.769840	-0.636178	-0.051217	0.605995	0.703410	0.371463
40264	6.149288	4.716089	7.045191	0.571774	0.642615	0.320432	-0.201623	-0.323549	0.924480	0.773970	-0.631078	-0.052067	0.600266	0.705022	0.377657
40265	3.478918	4.294925	4.956408	0.268580	0.320623	0.521515	-0.199486	-0.329097	0.922985	0.776656	-0.627443	-0.055860	0.597504	0.705698	0.380761
40266	1.817048	3.953619	2.484518	0.049150	-0.287134	0.700160	-0.192257	-0.331441	0.923680	0.778358	-0.624736	-0.062163	0.597659	0.707002	0.378089
40267	3.310800	2.767202	-0.064489	-0.535631	-0.953678	0.662134	-0.181374	-0.328843	0.926804	0.776409	-0.626299	-0.070278	0.603566	0.706832	0.368911
40268	7.929047	0.194465	-1.540788	-1.305599	-1.246993	0.480465	-0.169987	-0.323071	0.930983	0.769329	-0.633887	-0.079501	0.615823	0.702718	0.356300
40269	15.606876	-2.558923	1.834887	-1.560089	-1.061420	0.314431	-0.160965	-0.317655	0.934444	0.760167	-0.643755	-0.087893	0.629472	0.696186	0.345093
40270	20.682210	-5.825645	4.709419	-0.711642	-0.272700	0.384828	-0.156252	-0.318236	0.935046	0.756314	-0.647426	-0.093962	0.635275	0.692507	0.341848
40271	14.264582	-4.173116	0.247652	0.389555	-0.363891	0.578284	-0.149547	-0.319439	0.935732	0.759701	-0.642839	-0.098038	0.632842	0.696215	0.338813
40272	13.254203	0.720922	-2.253510	0.206345	-0.900168	0.522556	-0.139805	-0.316494	0.938236	0.761799	-0.639690	-0.102271	0.632548	0.700448	0.330537
40273	11.783597	3.273244	-3.294874	-0.428154	-0.728858	0.454354	-0.131703	-0.314294	0.940145	0.759731	-0.641217	-0.107932	0.636760	0.700043	0.323229
40274	8.417488	2.839831	-3.198010	-0.642498	-0.579675	0.489505	-0.124214	-0.313379	0.941470	0.756284	-0.644125	-0.114623	0.642344	0.697780	0.317012
40275	7.025488	-0.228396	-1.572535	-0.696948	-0.649278	0.519415	-0.116084	-0.312195	0.942899	0.752443	-0.647318	-0.121692	0.648347	0.695351	0.310052
40276	7.336814	-3.167983	-0.067539	-0.668762	-0.854028	0.569133	-0.106178	-0.309946	0.944807	0.748754	-0.650146	-0.129137	0.654288	0.693717	0.301104
40277	8.357335	-5.149494	0.183062	-0.617138	-1.036678	0.572233	-0.095065	-0.306470	0.947121	0.745308	-0.652625	-0.136368	0.659908	0.692933	0.290456
40278	9.135935	-5.781670	-0.199765	-0.532050	-1.112124	0.517611	-0.083776	-0.302138	0.949576	0.742281	-0.654691	-0.142823	0.664831	0.692887	0.279119
40279	9.844036	-4.806093	-0.438949	-0.413850	-1.163581	0.434465	-0.072765	-0.296904	0.952131	0.739895	-0.656221	-0.148085	0.668775	0.693702	0.267428
40280	10.355426	-3.131080	-0.594841	-0.344802	-1.170049	0.360294	-0.062186	-0.291137	0.954658	0.737860	-0.657510	-0.152454	0.672083	0.694924	0.255707
40281	11.450795	-0.842440	-0.132348	-0.416589	-1.226038	0.347713	-0.051323	-0.284887	0.957186	0.735283	-0.659368	-0.156822	0.675814	0.695754	0.243313
40282	11.162711	0.814804	-0.256649	-0.684192	-1.229358	0.425736	-0.039787	-0.279145	0.959424	0.730867	-0.662879	-0.162556	0.681359	0.694744	0.230392
40283	10.159729	0.803697	-0.261821	-1.041735	-1.267644	0.445969	-0.027815	-0.273310	0.961524	0.723911	-0.668831	-0.169172	0.689333	0.691352	0.216456
40284	9.880357	-0.243623	-0.193380	-1.327122	-1.382403	0.426038	-0.015080	-0.266646	0.963676	0.714821	-0.676777	-0.176077	0.699145	0.686201	0.200810
40285	9.800570	-1.351316	-0.444380	-1.518723	-1.491730	0.390066	-0.001761	-0.259094	0.965850	0.704185	-0.686091	-0.182764	0.710014	0.679816	0.183658
40286	10.040367	-2.167370	-0.798527	-1.638681	-1.553045	0.357774	0.011926	-0.251059	0.967898	0.692471	-0.696216	-0.189121	0.721347	0.672497	0.165548
40287	10.173769	-2.894635	-0.939269	-1.675915	-1.563866	0.318601	0.025525	-0.242816	0.969736	0.680260	-0.706601	-0.194835	0.732526	0.664646	0.147142
40288	10.012808	-3.366757	-0.888650	-1.651481	-1.527264	0.251160	0.038561	-0.234509	0.971349	0.668026	-0.716871	-0.199591	0.743138	0.656583	0.129015
40289	9.858060	-3.539733	-0.504668	-1.565354	-1.518778	0.163645	0.051052	-0.225756	0.972845	0.656276	-0.726680	-0.203071	0.752792	0.648822	0.111060
40290	9.614517	-3.567641	-0.089426	-1.446133	-1.500351	0.087500	0.063054	-0.216712	0.974197	0.645310	-0.735778	-0.205442	0.761314	0.641613	0.093453
40291	9.356147	-3.450628	0.361147	-1.321309	-1.469426	0.029605	0.074535	-0.207533	0.975384	0.635212	-0.744118	-0.206867	0.768733	0.634995	0.076364
40292	9.226800	-3.351060	0.736970	-1.206821	-1.444357	-0.015886	0.085658	-0.198285	0.976394	0.625940	-0.751739	-0.207575	0.775153	0.628945	0.059722
40293	9.103120	-3.048288	0.984107	-1.119855	-1.408350	-0.037534	0.096434	-0.189168	0.977198	0.617293	-0.758793	-0.207805	0.780801	0.623257	0.043599
40294	9.056602	-2.786056	1.052490	-1.071521	-1.346770	-0.034925	0.106843	-0.180545	0.977746	0.608965	-0.765469	-0.207892	0.785968	0.617625	0.028161
40295	9.110760	-2.499495	1.079915	-1.061278	-1.300226	-0.039014	0.116911	-0.172240	0.978093	0.600671	-0.772032	-0.207751	0.790902	0.611801	0.013200
40296	9.014460	-2.249097	0.917236	-1.099752	-1.236127	-0.051427	0.126485	-0.164319	0.978264	0.592039	-0.778776	-0.207359	0.795922	0.605398	-0.001220
40297	8.834934	-2.230420	0.742427	-1.145407	-1.183983	-0.090675	0.135458	-0.156473	0.978349	0.583041	-0.785787	-0.206401	0.801071	0.598377	-0.015211
40298	8.930436	-2.430300	0.473638	-1.140642	-1.150404	-0.112180	0.144126	-0.148748	0.978316	0.574063	-0.792709	-0.205098	0.806027	0.591175	-0.028859
40299	9.041336	-2.692461	0.238512	-1.091804	-1.128408	-0.138147	0.152511	-0.141009	0.978191	0.565472	-0.799297	-0.203385	0.810544	0.584158	-0.042165
40300	9.359324	-2.768749	0.032916	-0.979174	-1.124208	-0.154438	0.160849	-0.133242	0.977944	0.557789	-0.805165	-0.201445	0.814248	0.577889	-0.055189
40301	9.409379	-2.627053	-0.156345	-0.864969	-1.051799	-0.156614	0.168612	-0.125924	0.977606	0.551020	-0.810316	-0.199412	0.817280	0.572304	-0.067243
40302	8.898295	-2.634640	-0.345926	-0.755154	-1.033198	-0.169877	0.176209	-0.118660	0.977175	0.545162	-0.814796	-0.197248	0.819603	0.567475	-0.078885
40303	9.192276	-2.723486	-0.105024	-0.684836	-1.025423	-0.171840	0.183742	-0.111457	0.976635	0.539880	-0.818838	-0.195021	0.821443	0.563099	-0.090281
40304	9.040808	-2.634233	0.003718	-0.627377	-1.005697	-0.168858	0.191175	-0.104434	0.975984	0.535068	-0.822510	-0.192820	0.822894	0.559080	-0.101364
40305	8.678956	-2.553033	-0.005718	-0.608514	-1.024646	-0.169086	0.198763	-0.097332	0.975202	0.530414	-0.826045	-0.190553	0.824108	0.555136	-0.112561
40306	8.616858	-2.528025	0.181452	-0.621087	-1.065487	-0.176270	0.206690	-0.089987	0.974260	0.525678	-0.829616	-0.188150	0.825192	0.551035	-0.124169
40307	8.578733	-2.960964	0.519845	-0.629650	-1.110705	-0.167022	0.215037	-0.082504	0.973115	0.520859	-0.833191	-0.185739	0.826115	0.546796	-0.136194
40308	8.813021	-3.656119	0.967453	-0.620655	-1.170827	-0.149660	0.224008	-0.074884	0.971706	0.516086	-0.836661	-0.183451	0.826726	0.542578	-0.148772
40309	8.913211	-3.854315	1.402808	-0.541721	-1.237083	-0.131583	0.233608	-0.067098	0.970013	0.511935	-0.839659	-0.181371	0.826650	0.538953	-0.161801
40310	9.364368	-3.350932	1.767338	-0.473215	-1.304943	-0.141108	0.243742	-0.058907	0.968050	0.508388	-0.842264	-0.179258	0.825912	0.535838	-0.175347
40311	10.657308	-2.136803	2.179330	-0.470415	-1.310468	-0.184063	0.253674	-0.050365	0.965978	0.504989	-0.844853	-0.176664	0.825007	0.532623	-0.188883
40312	11.339427	-1.283351	2.543278	-0.544356	-1.180347	-0.229906	0.262324	-0.042165	0.964058	0.501118	-0.847821	-0.173437	0.824662	0.528603	-0.201274
40313	11.414493	-1.522437	2.622702	-0.610940	-1.023735	-0.264969	0.269488	-0.034542	0.962384	0.496808	-0.851114	-0.169665	0.824960	0.523843	-0.212204
40314	10.944607	-2.349974	2.289956	-0.553866	-0.864943	-0.239091	0.275511	-0.028002	0.960890	0.492914	-0.854053	-0.166219	0.825305	0.519432	-0.221499
40315	10.558464	-3.075161	1.870877	-0.403637	-0.756946	-0.186606	0.280878	-0.022506	0.959480	0.490127	-0.856168	-0.163562	0.825157	0.516207	-0.229447
40316	10.104968	-3.248535	1.460991	-0.241607	-0.671558	-0.105109	0.285972	-0.018156	0.958066	0.488456	-0.857410	-0.162047	0.824397	0.514314	-0.236327
40317	10.786596	-2.878134	1.405888	-0.166464	-0.618494	-0.034934	0.290931	-0.014704	0.956631	0.487209	-0.858248	-0.161362	0.823399	0.513024	-0.242527
40318	11.141699	-2.250589	0.966550	-0.260777	-0.410306	0.039343	0.294570	-0.012951	0.955542	0.484971	-0.859554	-0.161155	0.823427	0.510882	-0.246917
40319	11.031393	-1.929802	0.584624	-0.441010	-0.213229	0.068776	0.296689	-0.012487	0.954892	0.481156	-0.861767	-0.160766	0.824903	0.507150	-0.249669
40320	12.006958	-1.830723	0.823925	-0.618681	-0.009632	0.064685	0.297148	-0.013008	0.954743	0.475876	-0.864857	-0.159891	0.827796	0.501850	-0.250800
40321	11.404816	-2.172496	1.169506	-0.680553	0.279404	0.068983	0.295182	-0.015031	0.955323	0.470047	-0.868220	-0.158899	0.831819	0.495951	-0.249217
40322	10.764399	-3.720388	1.637732	-0.563068	0.475190	0.089579	0.291707	-0.018167	0.956335	0.465114	-0.870961	-0.158417	0.835808	0.491017	-0.245616
40323	11.020749	-5.062617	1.238001	-0.344481	0.590548	0.102279	0.287258	-0.021986	0.957601	0.461957	-0.872604	-0.158611	0.839094	0.487933	-0.240506
40324	11.615838	-4.835925	0.154878	-0.173718	0.732935	0.055447	0.281423	-0.026053	0.959230	0.460365	-0.873414	-0.158786	0.841942	0.486282	-0.233805
40325	12.497149	-3.380330	-0.453301	-0.093152	0.954314	-0.053586	0.273147	-0.030263	0.961496	0.459752	-0.873858	-0.158114	0.844996	0.485239	-0.224779
40326	13.431525	-2.142083	0.170830	0.012761	1.258439	-0.136627	0.261934	-0.035187	0.964444	0.460253	-0.873817	-0.156880	0.848268	0.484980	-0.212688
40327	12.857615	-1.065097	1.144524	0.250403	1.575165	-0.169482	0.247786	-0.041404	0.967930	0.462838	-0.872641	-0.155812	0.851107	0.486603	-0.197065
40328	12.018490	-0.198716	1.345301	0.489687	1.912851	-0.176800	0.230731	-0.049216	0.971772	0.467463	-0.870306	-0.155069	0.853371	0.490047	-0.177799
40329	12.231701	0.835968	1.186637	0.496406	2.122209	-0.212060	0.211612	-0.057853	0.975640	0.472202	-0.867954	-0.153886	0.855714	0.493263	-0.156351
40330	10.438557	1.317056	0.049975	0.290291	2.283596	-0.278605	0.190784	-0.066726	0.979362	0.475281	-0.866669	-0.151635	0.858900	0.494402	-0.133633
40331	10.379356	1.027254	-0.505611	0.022524	2.283242	-0.313992	0.169643	-0.075320	0.982623	0.476070	-0.866756	-0.148629	0.862890	0.493011	-0.111182
40332	10.241673	-0.378869	-0.864035	-0.177362	2.265317	-0.297618	0.148701	-0.083882	0.985318	0.475042	-0.867839	-0.145573	0.867308	0.489714	-0.089201
40333	10.204252	-2.064270	-1.221512	-0.286368	2.235901	-0.217924	0.128233	-0.092931	0.987380	0.472884	-0.869404	-0.143241	0.871744	0.485285	-0.067541
40334	10.059443	-3.302650	-1.486661	-0.259822	2.182479	-0.137121	0.108590	-0.102294	0.988809	0.470811	-0.870766	-0.141787	0.875526	0.480939	-0.046395
40335	10.621299	-3.943344	-1.556630	-0.109458	2.107626	-0.049958	0.089884	-0.112005	0.989634	0.469934	-0.871320	-0.141296	0.878113	0.477763	-0.025683
40336	10.770412	-3.923208	-1.602236	0.130833	2.070749	0.038041	0.071940	-0.122230	0.989891	0.471089	-0.870623	-0.141739	0.879147	0.476524	-0.005051
40337	10.175612	-3.504567	-1.576327	0.403784	2.040136	0.125574	0.054617	-0.133097	0.989597	0.474594	-0.868511	-0.143004	0.878509	0.477467	0.015732
40338	9.727143	-2.616441	-1.477081	0.639833	1.959416	0.180027	0.038355	-0.144054	0.988826	0.480162	-0.865169	-0.144664	0.876341	0.480346	0.035986
40339	9.522162	-1.848466	-1.430282	0.823793	1.836949	0.203142	0.023287	-0.154714	0.987685	0.487342	-0.860862	-0.146339	0.872901	0.484748	0.055352
40340	9.286609	-1.308030	-1.611952	1.009863	1.716814	0.192819	0.009362	-0.164755	0.986290	0.496141	-0.855598	-0.147633	0.868191	0.490721	0.073732
40341	9.752075	-1.204643	-1.576432	1.215923	1.598330	0.169768	-0.003596	-0.174147	0.984713	0.506694	-0.849267	-0.148343	0.862118	0.498415	0.091293
40342	10.308739	-1.445442	-1.332007	1.378444	1.524489	0.176011	-0.015709	-0.183313	0.982929	0.518586	-0.841989	-0.148740	0.854881	0.507396	0.108290
40343	10.917639	-2.064819	-1.343114	1.469041	1.446972	0.195870	-0.026970	-0.192402	0.980945	0.531166	-0.834065	-0.148989	0.846838	0.517027	0.124693
40344	11.568338	-2.510062	-1.651972	1.617659	1.432306	0.226119	-0.037745	-0.201769	0.978706	0.544905	-0.825136	-0.149094	0.837648	0.527674	0.141089
40345	11.493800	-2.709318	-1.757552	1.819930	1.460130	0.230150	-0.048599	-0.211481	0.976173	0.560191	-0.814915	-0.148656	0.826937	0.539619	0.158074
40346	11.053059	-2.597668	-1.574768	2.018552	1.483977	0.241131	-0.059336	-0.221544	0.973344	0.576930	-0.803332	-0.147677	0.814635	0.552789	0.175482
40347	10.528279	-2.128239	-1.343109	2.177708	1.467658	0.223748	-0.069849	-0.231572	0.970307	0.594706	-0.790598	-0.145872	0.800903	0.566859	0.192939
40348	10.110286	-1.410739	-1.088159	2.294203	1.436323	0.186563	-0.080046	-0.241285	0.967147	0.613090	-0.776947	-0.143091	0.785948	0.581494	0.210121
40349	9.878941	-0.567484	-0.650256	2.351264	1.402454	0.150305	-0.089986	-0.250723	0.963867	0.631551	-0.762694	-0.139432	0.770095	0.596185	0.226976
40350	9.779937	0.015404	-0.241459	2.295613	1.366592	0.115936	-0.099586	-0.259843	0.960502	0.649196	-0.748512	-0.135184	0.754074	0.610092	0.243230
40351	9.707007	0.899364	0.421859	2.184625	1.294905	0.107220	-0.108506	-0.268637	0.957110	0.665648	-0.734721	-0.130755	0.738335	0.622911	0.258539
40352	9.541470	0.937225	0.277897	1.955572	1.257451	0.123997	-0.116792	-0.277440	0.953618	0.680123	-0.722053	-0.126774	0.723735	0.633772	0.273023
40353	8.940780	0.234129	0.236418	1.762233	1.276666	0.031241	-0.125691	-0.285822	0.950004	0.692832	-0.710677	-0.122151	0.710060	0.642840	0.287353
40354	8.587858	0.366456	0.658725	1.659069	1.246950	-0.020243	-0.134533	-0.293742	0.946370	0.704515	-0.699960	-0.117108	0.696821	0.650978	0.301113
40355	8.306741	0.629330	1.048877	1.469465	1.221483	-0.058345	-0.143345	-0.301332	0.942683	0.714621	-0.690479	-0.112049	0.684667	0.657600	0.314315
40356	8.065973	0.598754	1.237995	1.235359	1.197810	-0.121501	-0.152284	-0.308399	0.938989	0.722872	-0.682651	-0.106973	0.673992	0.662479	0.326890
40357	7.954992	0.802043	1.569439	1.031035	1.134867	-0.168444	-0.161065	-0.314792	0.935395	0.729546	-0.676287	-0.101974	0.664696	0.665989	0.338581
40358	7.778042	1.018242	1.702649	0.837517	1.044434	-0.205495	-0.169399	-0.320369	0.932023	0.734778	-0.671307	-0.097202	0.656814	0.668364	0.349119
40359	7.660663	1.093131	1.850745	0.664538	0.932420	-0.226354	-0.177123	-0.325089	0.928948	0.738765	-0.667551	-0.092751	0.650273	0.669846	0.358403
40360	7.687678	1.144798	1.802815	0.521444	0.810031	-0.234195	-0.184032	-0.328950	0.926242	0.741757	-0.664776	-0.088715	0.644926	0.670720	0.366341
40361	7.734951	1.195047	1.798910	0.406413	0.683880	-0.227385	-0.190080	-0.332023	0.923921	0.743979	-0.662761	-0.085111	0.640598	0.671200	0.372995
40362	7.596296	0.950357	1.777418	0.276477	0.572589	-0.220790	-0.195312	-0.334396	0.921972	0.745358	-0.661595	-0.082060	0.637412	0.671172	0.378462
40363	7.468981	0.596036	1.830463	0.157660	0.468759	-0.202848	-0.199772	-0.336190	0.920363	0.745996	-0.661177	-0.079591	0.635281	0.670687	0.382881
40364	7.357261	0.157905	1.910144	0.066181	0.369521	-0.192146	-0.203480	-0.337388	0.919111	0.746067	-0.661335	-0.077594	0.634019	0.669930	0.386283
40365	7.091223	-0.260266	1.915135	0.033827	0.259384	-0.199508	-0.206576	-0.337794	0.918271	0.745907	-0.661742	-0.075627	0.633205	0.669322	0.388663
40366	6.690726	-0.573629	1.913882	0.022645	0.126311	-0.205839	-0.208840	-0.337269	0.917952	0.745662	-0.662239	-0.073674	0.632752	0.669095	0.389790
40367	6.359281	-0.609646	2.190560	-0.030290	-0.026909	-0.197436	-0.210104	-0.335768	0.918214	0.745091	-0.663067	-0.071977	0.633005	0.669030	0.389491
40368	6.630745	-0.820868	2.727994	-0.148569	-0.162939	-0.113450	-0.209846	-0.333918	0.918947	0.743950	-0.664395	-0.071536	0.634431	0.668639	0.387839
40369	6.938443	-1.359674	3.749891	-0.273454	-0.223374	0.012690	-0.208294	-0.332497	0.919815	0.742274	-0.666140	-0.072709	0.636901	0.667610	0.385557
40370	6.995966	-1.965917	5.083255	-0.352930	-0.252473	0.112614	-0.205777	-0.331558	0.920720	0.740293	-0.668074	-0.075126	0.640018	0.666143	0.382924
40371	7.784820	-2.733563	7.150368	-0.326194	-0.249449	0.223287	-0.202488	-0.331381	0.921512	0.738692	-0.669465	-0.078428	0.642910	0.664833	0.380347
40372	8.976710	-3.445996	8.182554	-0.072410	-0.243567	0.323348	-0.198461	-0.331918	0.922195	0.738913	-0.668829	-0.081708	0.643911	0.665206	0.377995
40373	10.507915	-3.637742	8.609641	0.407683	-0.163349	0.387098	-0.194507	-0.333405	0.922501	0.742329	-0.664782	-0.083744	0.641183	0.668510	0.376801
40374	10.420681	-2.534388	7.922924	0.863438	-0.048850	0.402849	-0.191122	-0.335733	0.922364	0.748652	-0.657590	-0.084230	0.634817	0.674432	0.377027
40375	9.493369	-1.180832	7.299269	1.071464	0.041178	0.383708	-0.188459	-0.338519	0.921894	0.756174	-0.648992	-0.083728	0.626645	0.681333	0.378287
40376	8.028488	-0.199753	6.743766	1.081247	0.078180	0.360417	-0.186136	-0.341368	0.921315	0.763616	-0.640316	-0.082976	0.618258	0.688086	0.379860
40377	6.507103	0.349787	6.085576	0.939008	-0.002476	0.369240	-0.183256	-0.343701	0.921025	0.770104	-0.632520	-0.082812	0.611029	0.694109	0.380599
40378	5.231359	0.453653	5.423353	0.829504	-0.161278	0.446113	-0.178757	-0.345372	0.921284	0.775991	-0.625153	-0.083793	0.604883	0.699930	0.379756
40379	4.213197	0.260181	4.511934	0.837886	-0.417932	0.554317	-0.171893	-0.345877	0.922400	0.782040	-0.617302	-0.085737	0.599054	0.706616	0.376600
40380	4.922182	0.338247	3.954614	0.844698	-0.811725	0.655194	-0.161838	-0.344114	0.924875	0.788206	-0.608991	-0.088662	0.593750	0.714644	0.369791
40381	7.188464	-0.899458	2.998374	0.606419	-1.136598	0.661617	-0.149849	-0.339957	0.928426	0.792861	-0.602328	-0.092582	0.590691	0.722240	0.359797
40382	11.308344	-1.027969	1.933326	0.358949	-1.356679	0.505844	-0.137753	-0.333134	0.932762	0.795741	-0.597972	-0.096047	0.589763	0.729007	0.347461
40383	19.139796	-0.168996	4.734089	0.281473	-1.140443	0.159497	-0.129733	-0.325740	0.936516	0.797645	-0.595345	-0.096578	0.589009	0.734478	0.337061
40384	23.097040	0.108558	7.080090	0.650380	-0.100069	-0.071020	-0.129644	-0.324567	0.936936	0.801400	-0.590736	-0.093749	0.583910	0.738706	0.336693
40385	14.402629	2.880850	2.549806	0.751276	0.124336	0.118796	-0.129384	-0.326182	0.936411	0.805948	-0.584742	-0.092326	0.577674	0.742753	0.338542
40386	10.354839	4.936015	-0.044438	0.134703	-0.449047	0.282306	-0.124444	-0.324474	0.937673	0.807116	-0.582773	-0.094546	0.577128	0.745045	0.334411
40387	8.239342	5.627577	-2.595958	-0.746931	-0.645567	0.411876	-0.117357	-0.322068	0.939415	0.803308	-0.586958	-0.100878	0.583886	0.742801	0.327603
40388	6.123855	5.107312	-3.944679	-1.485437	-0.776050	0.617117	-0.107773	-0.319962	0.941281	0.795267	-0.595916	-0.111510	0.596603	0.736552	0.318679
40389	6.044514	0.861318	-2.530377	-1.911307	-0.911708	0.686504	-0.096816	-0.317397	0.943338	0.784443	-0.607687	-0.123955	0.612597	0.727994	0.307814
40390	7.183125	-4.099049	-1.042253	-1.935175	-1.071235	0.731905	-0.084396	-0.314121	0.945624	0.773129	-0.619335	-0.136732	0.628609	0.719550	0.295125
40391	9.043165	-7.240561	-0.707789	-1.774244	-1.292921	0.731958	-0.070527	-0.309413	0.948309	0.762444	-0.629721	-0.148761	0.643199	0.712541	0.280322
40392	11.305951	-7.878715	-0.662065	-1.457851	-1.387156	0.682350	-0.056278	-0.303877	0.951048	0.753446	-0.637934	-0.159246	0.655097	0.707601	0.264856
40393	11.666238	-6.497505	-0.735338	-1.006504	-1.278180	0.592218	-0.043372	-0.298624	0.953385	0.747138	-0.643222	-0.167484	0.663253	0.705046	0.251011
40394	11.005368	-4.539749	-0.429307	-0.566569	-1.091160	0.477329	-0.032479	-0.293999	0.955254	0.743580	-0.645755	-0.173462	0.667857	0.704674	0.239585
40395	9.733288	-2.862943	-0.009797	-0.300259	-0.953511	0.371492	-0.023296	-0.289658	0.956847	0.741706	-0.646749	-0.177727	0.670320	0.705559	0.229908
40396	8.780889	-1.684797	0.163364	-0.226566	-0.928502	0.302297	-0.014751	-0.285047	0.958400	0.740275	-0.647435	-0.181166	0.672143	0.706807	0.220564
40397	8.453115	-0.700978	0.172566	-0.300344	-1.027719	0.271949	-0.005774	-0.279522	0.960122	0.738312	-0.648753	-0.184432	0.674435	0.707804	0.210120
40398	8.844232	-0.332178	-0.028502	-0.458733	-1.169215	0.268742	0.004183	-0.272980	0.962011	0.735243	-0.651213	-0.187986	0.677791	0.708098	0.197983
40399	9.513017	-0.430574	-0.319869	-0.656137	-1.289004	0.272515	0.014996	-0.265617	0.963962	0.730785	-0.655086	-0.191875	0.682443	0.707326	0.184285
40400	10.111283	-1.048948	-0.517320	-0.860567	-1.330741	0.259986	0.026082	-0.257918	0.965815	0.724863	-0.660439	-0.195943	0.688399	0.705194	0.169730
40401	10.386228	-1.764215	-0.732646	-1.016637	-1.330910	0.229104	0.036991	-0.250052	0.967526	0.717787	-0.666974	-0.199819	0.695279	0.701869	0.154812
40402	10.291799	-2.306612	-0.678013	-1.108382	-1.313380	0.170779	0.047463	-0.241997	0.969115	0.709998	-0.674267	-0.203143	0.702602	0.697712	0.139814
40403	10.051552	-2.770600	-0.457886	-1.121750	-1.312610	0.119986	0.057631	-0.233657	0.970610	0.702042	-0.681749	-0.205803	0.709799	0.693270	0.124747
40404	9.812546	-3.155958	-0.307206	-1.068635	-1.324689	0.077395	0.067691	-0.225023	0.971999	0.694403	-0.688915	-0.207847	0.716395	0.689029	0.109624
40405	9.470736	-3.285593	-0.175022	-0.980487	-1.345497	0.038089	0.077686	-0.216018	0.973294	0.687352	-0.695535	-0.209233	0.722158	0.685250	0.094447
40406	9.420313	-3.113747	0.089019	-0.885914	-1.361366	0.007643	0.087676	-0.206758	0.974456	0.680955	-0.701534	-0.210118	0.727058	0.681983	0.079285
40407	9.395766	-2.887713	0.356237	-0.818047	-1.357640	-0.017405	0.097514	-0.197374	0.975466	0.675035	-0.707103	-0.210554	0.731314	0.679005	0.064282
40408	9.491238	-2.606180	0.546719	-0.777128	-1.338421	-0.031286	0.107190	-0.188077	0.976288	0.669397	-0.712389	-0.210734	0.735131	0.676113	0.049537
40409	9.269843	-2.302137	0.534012	-0.786804	-1.293201	-0.028514	0.116588	-0.179129	0.976893	0.663658	-0.717717	-0.210810	0.738895	0.672901	0.035203
40410	9.169573	-2.021769	0.509251	-0.830341	-1.271077	-0.039194	0.125819	-0.170312	0.977325	0.657582	-0.723318	-0.210704	0.742802	0.669182	0.020987
40411	9.150164	-2.114651	0.451454	-0.880290	-1.220658	-0.061677	0.134565	-0.161702	0.977622	0.651133	-0.729261	-0.210248	0.746940	0.664853	0.007157
40412	9.191652	-2.314878	0.399783	-0.891965	-1.153465	-0.078371	0.142769	-0.153482	0.977783	0.644588	-0.735257	-0.209531	0.751081	0.660182	-0.006039
40413	9.021196	-2.642883	0.356435	-0.871471	-1.083775	-0.097367	0.150363	-0.145617	0.977848	0.638195	-0.741105	-0.208497	0.755048	0.655408	-0.018503
40414	9.073183	-2.945768	0.339951	-0.810135	-1.014396	-0.100303	0.157476	-0.138242	0.977799	0.632246	-0.746502	-0.207365	0.758595	0.650864	-0.030153
40415	8.929142	-3.176903	0.277111	-0.710072	-0.951412	-0.106753	0.164092	-0.131254	0.977674	0.627047	-0.751224	-0.206095	0.761503	0.646866	-0.040968
40416	8.949311	-3.131070	0.271530	-0.597078	-0.908646	-0.098049	0.170481	-0.124650	0.977445	0.622685	-0.755166	-0.204909	0.763675	0.643573	-0.051123
40417	9.226060	-2.977943	0.202828	-0.503133	-0.870627	-0.090836	0.176630	-0.118359	0.977135	0.619022	-0.758478	-0.203770	0.765254	0.640860	-0.060703
40418	9.181207	-2.803704	0.073698	-0.428605	-0.830812	-0.083812	0.182547	-0.112405	0.976751	0.615917	-0.761282	-0.202719	0.766370	0.638603	-0.069737
40419	9.070636	-2.756720	0.010275	-0.377099	-0.811747	-0.083257	0.188317	-0.106584	0.976308	0.613206	-0.763749	-0.201658	0.767147	0.636654	-0.078469
40420	9.011149	-2.681442	0.046238	-0.364813	-0.810088	-0.093066	0.194037	-0.100721	0.975810	0.610611	-0.766130	-0.200497	0.767792	0.634744	-0.087156
40421	8.504985	-2.634745	-0.032135	-0.379456	-0.811498	-0.113999	0.199633	-0.094695	0.975284	0.607946	-0.768617	-0.199071	0.768472	0.632661	-0.095872
40422	9.176293	-2.465714	0.402436	-0.415215	-0.930543	-0.158359	0.205898	-0.087599	0.974645	0.605101	-0.771351	-0.197158	0.769064	0.630353	-0.105814
40423	9.727810	-2.296007	0.791784	-0.513652	-0.907842	-0.143156	0.212079	-0.080778	0.973908	0.601471	-0.774672	-0.195230	0.770230	0.627182	-0.115706
40424	8.801777	-2.660515	0.970330	-0.599530	-0.927802	-0.139012	0.218471	-0.073897	0.973041	0.597174	-0.778496	-0.193202	0.771786	0.623284	-0.125949
40425	9.258809	-2.976315	1.279190	-0.632345	-1.041731	-0.130154	0.225800	-0.066407	0.971908	0.592603	-0.782488	-0.191142	0.773199	0.619115	-0.137333
40426	9.594493	-2.798599	1.438070	-0.667646	-1.113599	-0.145499	0.233630	-0.058397	0.970570	0.587795	-0.786666	-0.188823	0.774541	0.614611	-0.149463
40427	9.837232	-2.173827	1.525699	-0.727708	-1.171906	-0.191217	0.241650	-0.049716	0.969089	0.582632	-0.791196	-0.185874	0.775980	0.609538	-0.162226
40428	10.327991	-1.658064	1.621859	-0.824750	-1.179844	-0.250246	0.249437	-0.040576	0.967541	0.576863	-0.796282	-0.182112	0.777824	0.603564	-0.175215
40429	10.487168	-1.583064	1.468919	-0.904714	-1.124254	-0.302729	0.256508	-0.031414	0.966031	0.570605	-0.801794	-0.177585	0.780137	0.596774	-0.187742
40430	10.832041	-1.879735	1.166070	-0.931602	-1.062585	-0.332650	0.262994	-0.022438	0.964536	0.564213	-0.807382	-0.172622	0.782622	0.589603	-0.199677
40431	10.580611	-2.389460	0.696758	-0.895872	-0.963943	-0.338006	0.268700	-0.014059	0.963121	0.558112	-0.812669	-0.167570	0.785055	0.582556	-0.210518
40432	10.782901	-2.900614	0.660132	-0.808801	-0.858379	-0.311997	0.273786	-0.006548	0.961768	0.552624	-0.817360	-0.162879	0.787177	0.576090	-0.220163
40433	11.368462	-3.643155	0.910269	-0.694483	-0.751620	-0.238751	0.278439	-0.000296	0.960454	0.547833	-0.821325	-0.159072	0.788892	0.570460	-0.228527
40434	11.360750	-3.863876	1.080743	-0.549369	-0.571350	-0.147524	0.282215	0.004159	0.959342	0.543932	-0.824418	-0.156438	0.790248	0.565966	-0.234926
40435	11.691464	-3.474665	1.734365	-0.478908	-0.396611	-0.099660	0.284854	0.007200	0.958544	0.540449	-0.827090	-0.154394	0.791690	0.562024	-0.239491
40436	11.536736	-3.399644	2.476586	-0.481625	-0.139825	-0.063480	0.285690	0.008503	0.958284	0.536835	-0.829757	-0.152683	0.793845	0.558060	-0.241618
40437	11.702654	-3.913191	2.866696	-0.429582	0.110978	-0.042661	0.284618	0.008215	0.958606	0.533563	-0.832119	-0.151288	0.796431	0.554536	-0.241219
40438	12.087457	-4.120591	2.371113	-0.280891	0.379775	-0.040376	0.281443	0.006443	0.959556	0.531460	-0.833645	-0.150283	0.798961	0.552262	-0.238048
40439	12.690906	-3.780702	1.854483	-0.098692	0.701993	-0.053997	0.275573	0.002987	0.961275	0.530844	-0.834163	-0.149587	0.801414	0.551510	-0.231459
40440	13.606883	-3.088977	2.087221	0.074925	1.047196	-0.090270	0.266759	-0.002046	0.963761	0.531715	-0.833724	-0.148943	0.803815	0.552178	-0.221316
40441	13.354779	-2.540880	2.773120	0.304303	1.503100	-0.114087	0.254081	-0.009451	0.967137	0.534486	-0.832021	-0.148548	0.806082	0.554664	-0.206350
40442	13.573454	-1.622224	3.423901	0.568077	1.960858	-0.125127	0.237656	-0.019338	0.971157	0.539403	-0.828849	-0.148505	0.807814	0.559138	-0.186550
40443	12.861000	-0.329994	3.185563	0.774769	2.340582	-0.198901	0.217680	-0.030890	0.975531	0.546145	-0.824517	-0.147975	0.808913	0.564993	-0.162610
40444	11.838720	0.938984	2.698045	0.749222	2.684285	-0.264116	0.194566	-0.043960	0.979904	0.552784	-0.820335	-0.146561	0.810293	0.570191	-0.135309
40445	10.565766	1.215218	2.246970	0.495987	2.878127	-0.297851	0.169572	-0.058011	0.983809	0.557379	-0.817625	-0.144284	0.812757	0.572821	-0.106312
40446	9.538277	0.578978	1.535119	0.179081	2.909531	-0.261776	0.144482	-0.072539	0.986845	0.559279	-0.816741	-0.141918	0.816292	0.572426	-0.077435
40447	9.892463	-0.314532	0.747223	-0.103943	2.817890	-0.164627	0.120510	-0.087321	0.988864	0.558676	-0.817439	-0.140268	0.820584	0.569359	-0.049726
40448	10.509798	-1.389658	-0.166962	-0.364924	2.700203	-0.009057	0.098307	-0.102553	0.989858	0.555715	-0.819485	-0.140092	0.825540	0.563851	-0.023571
40449	10.639392	-2.456459	-1.110141	-0.502090	2.594793	0.127219	0.077535	-0.118179	0.989961	0.551477	-0.822129	-0.141336	0.830579	0.556899	0.001429
40450	11.215376	-3.269242	-1.577053	-0.464887	2.457820	0.223359	0.058368	-0.133628	0.989311	0.547489	-0.824390	-0.143653	0.834774	0.550022	0.025041
40451	11.558812	-3.645284	-1.839854	-0.286446	2.351763	0.267349	0.040179	-0.148743	0.988059	0.544997	-0.825550	-0.146441	0.837475	0.544373	0.047895
40452	11.240613	-3.343811	-2.110480	-0.033478	2.219249	0.245624	0.022994	-0.162818	0.986388	0.544676	-0.825317	-0.148928	0.838331	0.540686	0.069706
40453	11.152193	-2.660478	-2.340098	0.224381	2.049102	0.188915	0.006874	-0.175480	0.984459	0.546565	-0.823754	-0.150651	0.837389	0.539106	0.090249
40454	10.502701	-2.016446	-2.559047	0.515243	1.908406	0.122057	-0.008337	-0.186787	0.982365	0.550911	-0.820720	-0.151377	0.834522	0.539934	0.109746
40455	10.673156	-1.804209	-2.583275	0.820947	1.734578	0.106590	-0.022157	-0.197093	0.980134	0.557797	-0.816036	-0.151485	0.829681	0.543360	0.128018
40456	11.172240	-1.844831	-2.372788	1.037077	1.651636	0.127658	-0.035017	-0.207154	0.977681	0.566445	-0.810081	-0.151354	0.823355	0.548503	0.145708
40457	11.791633	-2.393470	-2.354829	1.249373	1.613410	0.183447	-0.047162	-0.217571	0.974904	0.576798	-0.802763	-0.151251	0.815525	0.555189	0.163354
40458	11.670816	-3.012071	-2.425776	1.484197	1.651518	0.243674	-0.059059	-0.228758	0.971690	0.589000	-0.793881	-0.151099	0.805972	0.563402	0.181624
40459	10.843033	-3.050196	-2.441609	1.726111	1.687044	0.295192	-0.070766	-0.240703	0.968016	0.603046	-0.783343	-0.150697	0.794562	0.573093	0.200589
40460	9.528963	-2.707879	-2.254071	1.961357	1.690114	0.323820	-0.082032	-0.253003	0.963981	0.618787	-0.771156	-0.149737	0.781264	0.584216	0.219815
40461	8.567513	-2.024763	-1.876482	2.120232	1.606556	0.308404	-0.092491	-0.264868	0.959839	0.635506	-0.757803	-0.147878	0.766536	0.596305	0.238416
40462	8.120538	-1.332366	-1.330991	2.232157	1.513969	0.273760	-0.102141	-0.276049	0.955701	0.652745	-0.743569	-0.145013	0.750660	0.609018	0.256138
40463	8.462801	0.451744	-0.194504	2.317803	1.325094	0.335283	-0.109714	-0.286694	0.951719	0.670345	-0.728313	-0.142118	0.733894	0.622388	0.272090
40464	7.931064	-0.348829	-0.407797	2.158397	1.270793	0.346091	-0.116518	-0.297172	0.947688	0.686443	-0.713697	-0.139400	0.717788	0.634291	0.287150
40465	7.948705	-0.705386	-0.081830	2.071118	1.152915	0.290635	-0.122640	-0.306616	0.943899	0.701532	-0.699524	-0.136084	0.702006	0.645486	0.300891
40466	7.798507	-0.221735	0.204395	2.000328	1.050190	0.250228	-0.128086	-0.315179	0.940349	0.715771	-0.685683	-0.132327	0.686488	0.656125	0.313422
40467	7.822007	-0.218562	0.489162	1.849715	1.000106	0.196807	-0.133409	-0.323132	0.936903	0.728628	-0.672788	-0.128288	0.671791	0.665539	0.325199
40468	7.856885	0.095735	1.137961	1.690302	0.961226	0.136491	-0.138727	-0.330472	0.933565	0.740090	-0.660977	-0.124002	0.658044	0.673719	0.336274
40469	7.907068	0.458328	1.416898	1.487256	0.925927	0.076272	-0.144147	-0.337244	0.930316	0.749928	-0.650608	-0.119652	0.645623	0.680423	0.346692
40470	7.855547	0.756067	1.661944	1.270339	0.884762	0.024537	-0.149555	-0.343437	0.927192	0.758133	-0.641801	-0.115441	0.634719	0.685670	0.356355
40471	7.684793	0.919611	1.985972	1.084970	0.814715	-0.008438	-0.154704	-0.348985	0.924271	0.764990	-0.634323	-0.111463	0.625185	0.689814	0.365102
40472	7.620518	1.068787	2.068254	0.967361	0.714112	-0.024882	-0.159259	-0.353756	0.921679	0.770993	-0.627672	-0.107690	0.616609	0.693458	0.372706
40473	7.586203	1.345988	1.986570	0.878492	0.616863	-0.018254	-0.163134	-0.357925	0.919389	0.776381	-0.621586	-0.104229	0.608786	0.696793	0.379288
40474	7.664542	1.547642	1.921373	0.770031	0.521145	-0.021742	-0.166388	-0.361418	0.917438	0.781042	-0.616239	-0.101112	0.601905	0.699733	0.384817
40475	7.748777	1.691721	1.909184	0.645462	0.440725	-0.022384	-0.169159	-0.364361	0.915765	0.784904	-0.611752	-0.098414	0.596079	0.702140	0.389472
40476	7.865227	1.624441	1.922369	0.500478	0.383974	-0.023292	-0.171553	-0.366906	0.914303	0.787871	-0.608269	-0.096266	0.591463	0.703838	0.393425
40477	7.885238	1.433434	1.940136	0.377945	0.338519	-0.049616	-0.173898	-0.368976	0.913026	0.790047	-0.605746	-0.094322	0.587864	0.704931	0.396847
40478	7.770650	0.960431	2.078156	0.317714	0.287502	-0.073858	-0.176098	-0.370545	0.911968	0.791816	-0.603729	-0.092406	0.584822	0.705838	0.399719
40479	7.565952	0.510229	2.296794	0.287501	0.228098	-0.077108	-0.178000	-0.371676	0.911139	0.793390	-0.601941	-0.090550	0.582107	0.706770	0.402029
40480	7.490624	0.239609	2.583358	0.262493	0.127209	-0.075836	-0.179271	-0.372107	0.910713	0.794814	-0.600317	-0.088826	0.579769	0.707924	0.403375
40481	7.673546	-0.153629	2.892384	0.253870	0.041097	-0.076019	-0.180074	-0.371924	0.910629	0.796179	-0.598758	-0.087106	0.577644	0.709338	0.403939
40482	7.707582	-0.366227	3.293537	0.269327	-0.009117	0.010612	-0.179867	-0.371910	0.910676	0.797786	-0.596756	-0.086138	0.575487	0.711031	0.404041
40483	7.598727	-0.529883	4.151481	0.216369	-0.055725	0.090467	-0.178785	-0.372033	0.910839	0.799224	-0.594837	-0.086086	0.573827	0.712573	0.403686
40484	7.891022	-1.472809	6.236491	0.124589	-0.056272	0.131470	-0.177341	-0.372400	0.910971	0.800207	-0.593409	-0.086804	0.572905	0.713571	0.403233
40485	8.806747	-2.696999	7.997814	0.220071	-0.073764	0.176196	-0.175469	-0.372899	0.911130	0.801808	-0.591137	-0.087520	0.571239	0.715194	0.402720
40486	10.081091	-2.879929	8.459885	0.606969	-0.062839	0.274345	-0.172837	-0.374049	0.911161	0.805773	-0.585710	-0.087599	0.566443	0.719049	0.402631
40487	9.561955	-0.968126	8.271935	0.820051	0.006491	0.375882	-0.169797	-0.376270	0.910818	0.811067	-0.578339	-0.087718	0.559768	0.723840	0.403380
40488	8.167445	1.389367	7.709875	0.612657	0.052099	0.400294	-0.166763	-0.378936	0.910273	0.815187	-0.572332	-0.088912	0.554671	0.727216	0.404348
40489	6.668253	2.999769	6.987071	0.149024	0.081041	0.330206	-0.164484	-0.381400	0.909659	0.816591	-0.569949	-0.091312	0.553285	0.727800	0.405195
40490	4.953261	3.190334	6.673545	-0.258619	0.043126	0.266111	-0.162482	-0.383216	0.909255	0.815625	-0.570760	-0.094803	0.555297	0.726208	0.405299
40491	3.983353	2.010020	6.426715	-0.433210	-0.158884	0.275336	-0.159327	-0.383628	0.909640	0.813686	-0.572804	-0.099052	0.559044	0.724380	0.403415
40492	5.324704	0.038396	6.765401	-0.353228	-0.462993	0.309002	-0.154149	-0.382032	0.911203	0.812222	-0.574128	-0.103305	0.562613	0.724174	0.398796
40493	9.504344	-2.188209	7.615070	-0.139909	-0.661393	0.354268	-0.147521	-0.379262	0.913454	0.811999	-0.573752	-0.107083	0.564708	0.725927	0.392601
40494	13.267043	-3.998414	6.571176	0.032702	-0.787504	0.436900	-0.139452	-0.376020	0.916058	0.812843	-0.571813	-0.110976	0.565543	0.729136	0.385386
40495	21.753072	-4.789713	8.156646	0.128809	-0.686383	0.397054	-0.132317	-0.373265	0.918240	0.814142	-0.569341	-0.114120	0.565389	0.732478	0.379225
40496	22.327142	-2.907640	4.053058	0.510867	-0.043395	0.427190	-0.128518	-0.375351	0.917929	0.817609	-0.563941	-0.116129	0.561247	0.735583	0.379367
40497	14.149453	3.143873	-1.460292	0.334291	-0.233463	0.401956	-0.123893	-0.375883	0.918348	0.820019	-0.559923	-0.118551	0.558765	0.738376	0.377601
40498	10.832163	6.502665	-3.094951	-0.592097	-0.267269	0.273476	-0.120084	-0.375432	0.919038	0.817061	-0.563210	-0.123315	0.563907	0.736102	0.374383
40499	6.722592	6.063162	-4.057341	-1.653221	-0.059150	0.270696	-0.117522	-0.376521	0.918924	0.807979	-0.574245	-0.131958	0.577372	0.726963	0.371707
40500	4.638873	3.542038	-2.423612	-2.043732	-0.263311	0.435470	-0.112416	-0.377136	0.919310	0.796541	-0.587301	-0.143529	0.594042	0.716133	0.366426
40501	3.925692	-1.621917	-1.821869	-2.018472	-0.713276	0.574929	-0.103549	-0.375447	0.921041	0.785034	-0.599461	-0.156103	0.610737	0.706884	0.356812
40502	6.533210	-5.671745	-2.251145	-1.835790	-1.201353	0.543592	-0.091809	-0.370270	0.924376	0.774243	-0.610302	-0.167566	0.626193	0.700308	0.342711
40503	10.005283	-7.492075	-2.331879	-1.532533	-1.413092	0.473451	-0.079194	-0.363290	0.928304	0.764985	-0.619228	-0.177073	0.639161	0.696115	0.326950
40504	12.430689	-7.433262	-1.652724	-1.068038	-1.384605	0.417859	-0.067026	-0.356252	0.931983	0.758448	-0.625103	-0.184401	0.648278	0.694501	0.312096
40505	13.099646	-6.014389	-1.053108	-0.533464	-1.231014	0.467809	-0.055433	-0.350601	0.934883	0.755295	-0.627118	-0.190398	0.653036	0.695559	0.299570
40506	11.466046	-4.493407	-0.541548	-0.172745	-1.040539	0.519357	-0.044636	-0.346594	0.936953	0.754458	-0.626464	-0.195797	0.654829	0.698152	0.289453
40507	9.470991	-3.339351	0.137404	0.005119	-0.943724	0.512955	-0.034534	-0.343172	0.938637	0.754726	-0.624619	-0.200597	0.655130	0.701487	0.280572
40508	8.383267	-2.010019	0.735621	0.054273	-0.935161	0.458981	-0.024871	-0.339447	0.940296	0.755249	-0.622623	-0.204790	0.654966	0.705065	0.271852
40509	7.983462	-0.659156	1.128185	-0.092619	-0.998331	0.378393	-0.015419	-0.334721	0.942191	0.754749	-0.621962	-0.208605	0.655832	0.707902	0.262220
40510	8.246159	-0.094030	1.244827	-0.353269	-1.076097	0.300213	-0.006012	-0.328953	0.944327	0.752490	-0.623422	-0.212376	0.658576	0.709320	0.251282
40511	9.011232	-0.379553	1.188076	-0.615886	-1.142736	0.245185	0.003432	-0.322351	0.946614	0.748453	-0.626953	-0.216210	0.663179	0.709239	0.239113
40512	9.723076	-1.307756	1.043309	-0.811392	-1.159964	0.213446	0.012824	-0.315464	0.948851	0.743061	-0.631975	-0.220155	0.669101	0.707877	0.226305
40513	10.033759	-2.452024	0.953950	-0.917225	-1.148812	0.196650	0.022055	-0.308561	0.950949	0.736889	-0.637807	-0.224045	0.675654	0.705685	0.213309
40514	9.924317	-3.263757	0.899814	-0.946327	-1.123672	0.190367	0.031154	-0.301856	0.952845	0.730443	-0.643846	-0.227849	0.682263	0.703097	0.200430
40515	9.707496	-3.439006	0.900320	-0.925073	-1.117744	0.168089	0.040092	-0.295067	0.954635	0.724072	-0.649801	-0.231255	0.688558	0.700496	0.187599
40516	9.582439	-3.236104	1.099510	-0.896335	-1.102365	0.130724	0.048730	-0.288203	0.956329	0.717845	-0.655641	-0.234165	0.694495	0.697907	0.174936
40517	9.454429	-3.174727	1.337812	-0.886258	-1.081298	0.091230	0.056979	-0.281242	0.957944	0.711645	-0.661519	-0.236544	0.700224	0.695194	0.162452
40518	9.287438	-3.189041	1.512793	-0.897980	-1.057582	0.051118	0.064849	-0.274236	0.959473	0.705330	-0.667562	-0.238474	0.705906	0.692211	0.150136
40519	9.288232	-3.119607	1.518312	-0.900946	-1.048578	0.024330	0.072509	-0.267129	0.960929	0.698957	-0.673684	-0.240019	0.711478	0.689052	0.137864
40520	9.136389	-2.906549	1.380467	-0.923336	-1.038721	0.012950	0.080091	-0.260069	0.962263	0.692381	-0.679952	-0.241398	0.717073	0.685587	0.125609
40521	9.245852	-2.698654	1.449367	-0.935998	-1.021077	0.002607	0.087518	-0.253079	0.963479	0.685670	-0.686311	-0.242558	0.722632	0.681857	0.113464
40522	9.210637	-2.610921	1.390336	-0.947959	-0.972123	0.007113	0.094691	-0.246512	0.964503	0.678816	-0.692695	-0.243686	0.728178	0.677795	0.101745
40523	9.109780	-2.554825	1.348986	-0.960170	-0.921814	-0.005092	0.101453	-0.240224	0.965401	0.671831	-0.699160	-0.244577	0.733724	0.673400	0.090458
40524	9.126457	-2.597149	1.286301	-0.981436	-0.886341	-0.025794	0.107881	-0.234090	0.966211	0.664658	-0.705766	-0.245202	0.739318	0.668653	0.079451
40525	9.150881	-2.597151	1.280721	-1.006931	-0.846627	-0.042122	0.113945	-0.228129	0.966940	0.657260	-0.712537	-0.245560	0.745000	0.663512	0.068750
40526	9.076246	-2.743834	1.292725	-1.009950	-0.788890	-0.048890	0.119597	-0.222561	0.967555	0.649794	-0.719281	-0.245771	0.750643	0.658105	0.058595
40527	8.866879	-3.077883	1.420126	-0.956066	-0.733082	-0.053184	0.124834	-0.217351	0.968078	0.642685	-0.725632	-0.245792	0.755892	0.652853	0.049105
40528	8.902202	-3.343017	1.462244	-0.850745	-0.679100	-0.035488	0.129828	-0.212671	0.968460	0.636309	-0.731203	-0.245871	0.760431	0.648161	0.040394
40529	8.659285	-3.462536	1.454117	-0.724596	-0.626361	-0.024255	0.134507	-0.208428	0.968744	0.630846	-0.735904	-0.245923	0.764160	0.644207	0.032502
40530	8.903269	-3.397129	1.498449	-0.605531	-0.584382	0.005222	0.139087	-0.204709	0.968891	0.626232	-0.739746	-0.246192	0.767130	0.640992	0.025306
40531	8.870780	-3.415613	1.485145	-0.522278	-0.526643	0.017469	0.143300	-0.201455	0.968959	0.622222	-0.743018	-0.246501	0.769613	0.638232	0.018875
40532	8.701919	-3.465539	1.462262	-0.452900	-0.479546	0.021055	0.147199	-0.198555	0.968973	0.618730	-0.745823	-0.246821	0.771690	0.635865	0.013068
40533	8.555636	-3.383741	1.334895	-0.384809	-0.462280	0.007054	0.150871	-0.195661	0.968997	0.615776	-0.748220	-0.246957	0.773342	0.633943	0.007598
40534	8.569738	-3.065766	1.217774	-0.339343	-0.456478	-0.029393	0.154296	-0.192549	0.969081	0.613222	-0.750387	-0.246733	0.774694	0.632332	0.002293
40535	8.670200	-2.756993	0.990999	-0.356801	-0.457138	-0.070655	0.157466	-0.189122	0.969246	0.610594	-0.752743	-0.246076	0.776131	0.630564	-0.003054
40536	8.752283	-2.500784	0.762502	-0.430924	-0.469146	-0.110009	0.160514	-0.185338	0.969477	0.607449	-0.755623	-0.245029	0.777973	0.628238	-0.008704
40537	8.809873	-2.624468	0.718520	-0.506597	-0.505539	-0.116803	0.163801	-0.181278	0.969695	0.603720	-0.758980	-0.243867	0.780187	0.625370	-0.014881
40538	8.920981	-3.104686	0.527780	-0.556401	-0.567482	-0.085936	0.167791	-0.177083	0.969787	0.599543	-0.762568	-0.242977	0.782556	0.622199	-0.021783
40539	9.159657	-3.315003	0.104571	-0.585717	-0.671385	-0.060953	0.172745	-0.172446	0.969753	0.595085	-0.766277	-0.242267	0.784878	0.618936	-0.029751
40540	9.635554	-2.771576	-0.293325	-0.632766	-0.780085	-0.093623	0.178394	-0.166912	0.969699	0.590303	-0.770306	-0.241188	0.787222	0.615443	-0.038889
40541	8.502202	-2.687244	-0.424119	-0.697407	-0.876630	-0.195339	0.184214	-0.160021	0.969772	0.585187	-0.774872	-0.239020	0.789697	0.611529	-0.049100
40542	10.576903	-2.523094	0.039509	-0.732096	-0.975160	-0.251381	0.190534	-0.152125	0.969822	0.579895	-0.779691	-0.236229	0.792098	0.607405	-0.060342
40543	10.457006	-2.187522	-0.072349	-0.762843	-1.016873	-0.289337	0.196988	-0.143705	0.969817	0.574431	-0.784705	-0.232953	0.794496	0.602982	-0.072029
40544	10.335519	-1.597648	-0.392066	-0.766974	-1.101557	-0.324638	0.203967	-0.134534	0.969690	0.569008	-0.789730	-0.229253	0.796635	0.598521	-0.084528
40545	10.604128	-1.241249	-0.344541	-0.766311	-1.155333	-0.361507	0.211190	-0.124780	0.969448	0.563673	-0.794738	-0.225086	0.798543	0.593987	-0.097506
40546	10.682634	-1.354864	-0.183664	-0.773767	-1.141595	-0.365772	0.218336	-0.115112	0.969061	0.558299	-0.799722	-0.220786	0.800394	0.589231	-0.110341
40547	9.580422	-1.666948	-0.159482	-0.792858	-1.167808	-0.381108	0.225630	-0.105202	0.968516	0.552818	-0.804766	-0.216203	0.802174	0.584195	-0.123422
40548	9.607137	-1.894213	0.140274	-0.856570	-1.183796	-0.387225	0.233080	-0.095198	0.967787	0.546853	-0.810102	-0.211390	0.804130	0.578508	-0.136760
40549	9.380476	-2.548078	0.376130	-0.903383	-1.163851	-0.378980	0.240443	-0.085422	0.966897	0.540502	-0.815616	-0.206465	0.806254	0.572253	-0.149938
40550	9.593311	-3.587809	0.619645	-0.850648	-1.134126	-0.340945	0.247835	-0.076181	0.965802	0.534494	-0.820704	-0.201893	0.808019	0.566252	-0.162681
40551	10.223973	-4.034272	1.255055	-0.741334	-1.055390	-0.301267	0.254817	-0.067759	0.964612	0.529281	-0.825074	-0.197775	0.809277	0.560948	-0.174380
40552	10.584326	-4.081682	2.230846	-0.669662	-0.894285	-0.299280	0.260553	-0.060295	0.963575	0.524654	-0.828977	-0.193741	0.810463	0.556024	-0.184358
40553	11.117580	-4.437849	3.383394	-0.631314	-0.696318	-0.273544	0.264820	-0.054179	0.962775	0.520277	-0.832603	-0.189960	0.811900	0.551215	-0.192302
40554	11.371392	-5.074565	3.547354	-0.566427	-0.492043	-0.226787	0.267714	-0.049592	0.962221	0.516302	-0.835802	-0.186725	0.813487	0.546786	-0.198151
40555	13.014269	-5.026590	3.463048	-0.418380	-0.254213	-0.162974	0.268988	-0.046861	0.962003	0.513358	-0.838136	-0.184369	0.814929	0.543445	-0.201392
40556	13.211130	-4.051259	3.147682	-0.231682	0.078490	-0.136013	0.267721	-0.046154	0.962390	0.511858	-0.839429	-0.182647	0.816288	0.541506	-0.201108
40557	13.058221	-3.031390	3.143454	-0.087205	0.453090	-0.152943	0.263274	-0.047347	0.963558	0.511577	-0.839946	-0.181052	0.817909	0.540601	-0.196914
40558	13.621982	-2.896181	3.730765	0.083250	0.895824	-0.156315	0.255209	-0.050886	0.965546	0.512690	-0.839545	-0.179758	0.819767	0.540902	-0.188170
40559	13.192484	-2.566363	4.400987	0.406479	1.338675	-0.150629	0.243484	-0.056913	0.968234	0.516427	-0.837395	-0.179089	0.820987	0.543627	-0.174500
40560	12.954573	-1.039185	4.061997	0.676099	1.859380	-0.187968	0.227304	-0.065501	0.971618	0.522450	-0.833791	-0.178433	0.821814	0.548181	-0.155303
40561	12.633175	1.124460	3.494467	0.733752	2.232661	-0.317072	0.207302	-0.075188	0.975383	0.529201	-0.829947	-0.176450	0.822783	0.552752	-0.132260
40562	11.391412	2.314316	2.846527	0.548954	2.552706	-0.441205	0.183996	-0.085682	0.979185	0.534615	-0.827231	-0.172843	0.824822	0.555290	-0.106401
40563	10.052805	2.510786	2.243474	0.244827	2.736941	-0.531376	0.158542	-0.096514	0.982624	0.537579	-0.826329	-0.167899	0.828175	0.554857	-0.079124
40564	9.403538	1.892450	1.987621	-0.069903	2.790479	-0.563294	0.132412	-0.107300	0.985370	0.537849	-0.827259	-0.162358	0.832577	0.551479	-0.051828
40565	9.561995	0.774696	1.647939	-0.368133	2.834946	-0.505000	0.106033	-0.118693	0.987253	0.535408	-0.829822	-0.157270	0.837911	0.545259	-0.024439
40566	9.624028	-0.561051	1.029273	-0.622183	2.819533	-0.395934	0.080284	-0.130660	0.988171	0.530579	-0.833651	-0.153336	0.843825	0.536613	0.002397
40567	9.791262	-1.656712	0.073679	-0.815863	2.729602	-0.291216	0.055638	-0.142761	0.988192	0.523900	-0.838358	-0.150612	0.849961	0.526094	0.028148
40568	10.860298	-2.464370	-0.645068	-0.862926	2.616958	-0.149057	0.032617	-0.155140	0.987354	0.516644	-0.843042	-0.149532	0.855579	0.514988	0.052654
40569	11.087170	-2.921097	-1.030579	-0.767579	2.484953	-0.045150	0.011077	-0.167458	0.985817	0.510105	-0.847001	-0.149610	0.860041	0.504527	0.076039
40570	11.574126	-3.133462	-1.373361	-0.568923	2.261625	-0.011206	-0.008392	-0.178686	0.983870	0.505243	-0.849835	-0.150034	0.862936	0.495835	0.097411
40571	11.571271	-3.062150	-1.910463	-0.310793	2.042157	-0.029188	-0.026161	-0.188531	0.981719	0.502592	-0.851392	-0.150110	0.864128	0.489477	0.117028
40572	11.264709	-2.849574	-2.463725	-0.017021	1.815538	-0.079344	-0.042171	-0.196721	0.979552	0.502459	-0.851596	-0.149392	0.863572	0.485885	0.134758
40573	11.247444	-2.408886	-2.736125	0.349039	1.653343	-0.087435	-0.056850	-0.204039	0.977311	0.505466	-0.850047	-0.148067	0.860972	0.485579	0.151461
40574	11.295513	-2.016129	-2.633639	0.674764	1.590054	-0.047298	-0.070673	-0.211390	0.974843	0.511272	-0.846829	-0.146565	0.856508	0.488052	0.167926
40575	11.137051	-2.018184	-2.403493	0.902041	1.599064	-0.001605	-0.084307	-0.219243	0.972021	0.519012	-0.842381	-0.144986	0.850599	0.492267	0.184808
40576	11.403672	-2.177094	-2.231069	1.053146	1.616346	0.049385	-0.097668	-0.227668	0.968828	0.528021	-0.837025	-0.143465	0.843596	0.497550	0.201964
40577	11.134489	-2.549184	-1.920306	1.195734	1.656958	0.105773	-0.110985	-0.236869	0.965181	0.538212	-0.830762	-0.141992	0.835470	0.503713	0.219688
40578	10.624342	-2.519683	-1.437990	1.350182	1.641869	0.181166	-0.123569	-0.246707	0.961180	0.549686	-0.823440	-0.140686	0.826182	0.510963	0.237363
40579	9.684545	-2.236538	-1.076622	1.499431	1.559606	0.259739	-0.134893	-0.256890	0.956980	0.562375	-0.815028	-0.139514	0.815806	0.519362	0.254410
40580	9.151488	-1.262524	-0.605113	1.629316	1.387208	0.344547	-0.144099	-0.266961	0.952873	0.576100	-0.805549	-0.138565	0.804577	0.528983	0.269875
40581	8.834408	-0.963659	-0.459889	1.622022	1.261335	0.446316	-0.151534	-0.277284	0.948763	0.589761	-0.795641	-0.138338	0.793234	0.538580	0.284098
40582	8.452914	-1.951047	-0.339150	1.572228	1.163843	0.379423	-0.158366	-0.286612	0.944867	0.602776	-0.785993	-0.137391	0.782037	0.547785	0.297237
40583	8.454196	-1.861971	-0.042885	1.598183	1.065816	0.354869	-0.164434	-0.295285	0.941153	0.615798	-0.776094	-0.135909	0.770555	0.557211	0.309452
40584	8.118417	-1.485161	0.343089	1.576453	0.951795	0.334056	-0.169563	-0.303213	0.937715	0.628456	-0.766197	-0.134111	0.759139	0.566573	0.320475
40585	7.764834	-1.366613	0.438394	1.512822	0.847713	0.289604	-0.174067	-0.310269	0.934577	0.640396	-0.756631	-0.131918	0.748060	0.575537	0.330399
40586	7.420023	-0.869499	0.530619	1.467572	0.734117	0.250790	-0.177826	-0.316413	0.931805	0.651779	-0.747293	-0.129373	0.737267	0.584325	0.339120
40587	7.123504	-0.282665	0.563889	1.380943	0.613589	0.224852	-0.180792	-0.321701	0.929421	0.662334	-0.738410	-0.126748	0.727068	0.592672	0.346572
40588	7.031585	0.514832	0.877389	1.246804	0.477387	0.230231	-0.182633	-0.326239	0.927477	0.671802	-0.730184	-0.124554	0.717863	0.600333	0.352523
40589	6.812758	0.578201	0.860726	1.039691	0.358722	0.203238	-0.183770	-0.329882	0.925962	0.679638	-0.723202	-0.122763	0.710156	0.606759	0.357104
40590	6.865277	0.593776	0.986006	0.869790	0.240337	0.164315	-0.184276	-0.332529	0.924915	0.686130	-0.717313	-0.121190	0.703753	0.612279	0.360342
40591	6.826058	0.617600	1.007656	0.734289	0.129733	0.158442	-0.184043	-0.334457	0.924266	0.691609	-0.712231	-0.120014	0.698430	0.617143	0.362395
40592	6.852636	0.801001	0.883334	0.623630	0.002862	0.152321	-0.182934	-0.335553	0.924088	0.696271	-0.707815	-0.119185	0.694076	0.621613	0.363120
40593	6.746213	0.946826	0.881462	0.545341	-0.120018	0.151470	-0.180995	-0.335868	0.924356	0.700361	-0.703864	-0.118616	0.690460	0.625914	0.362624
40594	6.485752	1.122377	0.990583	0.474676	-0.227716	0.149192	-0.178307	-0.335482	0.925018	0.703939	-0.700338	-0.118304	0.687515	0.630062	0.361034
40595	6.385529	1.181308	1.163405	0.393813	-0.355716	0.125555	-0.174929	-0.334101	0.926162	0.706902	-0.697389	-0.118058	0.685339	0.634054	0.358170
40596	6.492596	1.076934	1.451977	0.312631	-0.488755	0.081413	-0.170935	-0.331555	0.927822	0.709223	-0.695086	-0.117725	0.683948	0.637909	0.353960
40597	6.975167	1.162507	1.776847	0.273642	-0.603778	0.047519	-0.166421	-0.328008	0.929901	0.711210	-0.693139	-0.117211	0.682996	0.641849	0.348635
40598	7.939133	1.749084	2.392874	0.239772	-0.684785	0.077626	-0.161121	-0.324131	0.932190	0.713013	-0.691298	-0.117132	0.682387	0.645791	0.342493
40599	9.243800	1.585012	4.267097	0.155170	-0.661406	0.160428	-0.155415	-0.320940	0.934261	0.714362	-0.689737	-0.118106	0.682299	0.649045	0.336463
40600	10.757009	-0.291959	8.167037	0.049144	-0.415735	0.208584	-0.151016	-0.319670	0.935417	0.715056	-0.688705	-0.119919	0.682561	0.650766	0.332588
40601	12.228624	-3.283415	11.469404	0.103666	-0.109618	0.188430	-0.148876	-0.320236	0.935567	0.716081	-0.687390	-0.121338	0.681956	0.651878	0.331651
40602	13.559470	-5.804919	11.749137	0.733672	0.170227	0.142827	-0.148934	-0.322322	0.934841	0.721315	-0.682087	-0.120259	0.676405	0.656404	0.334081
40603	13.333842	-4.451794	10.256893	1.565122	0.402906	0.183825	-0.150259	-0.326220	0.933275	0.732119	-0.671105	-0.116708	0.664398	0.665732	0.339671
40604	11.062663	-0.738204	10.021789	1.619298	0.680729	0.291296	-0.152517	-0.332711	0.930614	0.743251	-0.659249	-0.113883	0.651396	0.674310	0.347834
40605	8.229514	1.428978	9.076427	1.129072	0.813104	0.403390	-0.154724	-0.340849	0.927299	0.751205	-0.650210	-0.113657	0.641678	0.679006	0.356650
40606	6.664334	2.865717	8.808821	0.633497	0.760360	0.483295	-0.155867	-0.349137	0.924018	0.756039	-0.644189	-0.115873	0.635697	0.680532	0.364368
40607	5.106412	2.467990	10.184357	0.305462	0.627402	0.514334	-0.155922	-0.356705	0.921113	0.758812	-0.640255	-0.119493	0.632371	0.680320	0.370501
40608	5.342409	1.063360	10.231111	0.235177	0.233429	0.477494	-0.153696	-0.361334	0.919682	0.761072	-0.636892	-0.123039	0.630196	0.681034	0.372888
40609	6.426598	-0.240714	3.904428	0.116728	-0.374739	0.486243	-0.147613	-0.361868	0.920468	0.762574	-0.634297	-0.127073	0.629834	0.683168	0.369582
40610	8.341734	0.880457	-4.225705	-0.509660	-1.125331	0.452888	-0.136975	-0.357043	0.923990	0.760030	-0.636105	-0.133131	0.635289	0.684025	0.358494
40611	12.246013	2.229345	-6.243522	-1.194750	-1.350107	0.316600	-0.125911	-0.349848	0.928306	0.752827	-0.643102	-0.140255	0.646064	0.681194	0.344349
40612	14.331402	0.793514	-4.674389	-1.404986	-0.839985	0.148748	-0.119251	-0.345107	0.930957	0.743886	-0.652066	-0.146434	0.657581	0.675064	0.334479
40613	11.573494	-0.346749	-3.745312	-1.238925	-0.396174	0.216647	-0.114998	-0.343853	0.931955	0.735968	-0.659605	-0.152552	0.667178	0.668346	0.328918
40614	9.224915	-1.515297	-2.289836	-0.937863	-0.522733	0.453485	-0.108095	-0.343365	0.932961	0.730218	-0.664248	-0.159864	0.674609	0.663984	0.322533
40615	9.220512	-2.725258	-1.357773	-0.703701	-0.879869	0.525133	-0.098278	-0.341006	0.934910	0.726026	-0.667082	-0.166997	0.680608	0.662357	0.313139
40616	10.046941	-3.585185	-1.452351	-0.416718	-1.081846	0.436814	-0.087654	-0.336745	0.937507	0.723623	-0.668318	-0.172397	0.684606	0.663291	0.302258
40617	10.416717	-3.351640	-1.408894	-0.123343	-1.064821	0.343487	-0.077833	-0.331941	0.940084	0.723097	-0.667953	-0.175984	0.686348	0.666074	0.292014
40618	10.230966	-2.539543	-0.912113	0.019448	-0.962744	0.245909	-0.069372	-0.327146	0.942424	0.723446	-0.666967	-0.178273	0.686887	0.669426	0.282941
40619	10.228717	-1.575755	-0.169500	-0.013015	-0.941249	0.225039	-0.061232	-0.322307	0.944653	0.723537	-0.666287	-0.180431	0.687564	0.672443	0.273999
40620	10.051231	-1.056497	0.248258	-0.207375	-1.015374	0.289946	-0.052072	-0.317394	0.946863	0.722308	-0.666710	-0.183762	0.689609	0.674358	0.263973
40621	9.810822	-1.237631	0.269462	-0.494130	-1.123883	0.357695	-0.041676	-0.312174	0.949110	0.719091	-0.668882	-0.188428	0.693665	0.674644	0.252358
40622	9.689348	-1.710401	0.122604	-0.789755	-1.226251	0.402435	-0.030176	-0.306603	0.951359	0.713767	-0.672914	-0.194226	0.699733	0.673187	0.239149
40623	9.707256	-2.289261	0.073251	-1.024382	-1.342338	0.413253	-0.017750	-0.300348	0.953665	0.706691	-0.678507	-0.200536	0.707299	0.670387	0.224297
40624	9.952207	-2.480378	-0.092695	-1.204612	-1.458204	0.417736	-0.004366	-0.293442	0.955967	0.698199	-0.685276	-0.207162	0.715891	0.666550	0.207873
40625	10.372817	-2.742056	-0.358022	-1.335621	-1.541049	0.399683	0.009559	-0.285930	0.958203	0.688597	-0.692956	-0.213649	0.725081	0.661858	0.190267
40626	10.732712	-3.085232	-0.497509	-1.393903	-1.579791	0.370619	0.023693	-0.278093	0.960262	0.678396	-0.701057	-0.219765	0.734314	0.656645	0.172047
40627	10.839867	-3.259786	-0.323933	-1.383090	-1.581971	0.324944	0.037621	-0.270008	0.962123	0.668111	-0.709180	-0.225147	0.743110	0.651275	0.153715
40628	10.535383	-3.288148	-0.095248	-1.323291	-1.553802	0.276891	0.051140	-0.261899	0.963739	0.658133	-0.716986	-0.229766	0.751163	0.646019	0.135698
40629	9.937762	-3.147718	0.087585	-1.270137	-1.536871	0.211429	0.064179	-0.253504	0.965203	0.648454	-0.724583	-0.233425	0.758544	0.640871	0.117883
40630	9.543958	-2.884104	0.342249	-1.255702	-1.546672	0.123332	0.076832	-0.244528	0.966593	0.638830	-0.732250	-0.236023	0.765502	0.635623	0.099951
40631	9.362446	-2.644218	0.551103	-1.259370	-1.524240	0.032963	0.088819	-0.235096	0.967905	0.629150	-0.740111	-0.237500	0.772193	0.630052	0.082175
40632	9.043577	-2.672039	0.759117	-1.279848	-1.490226	-0.044562	0.100170	-0.225419	0.969099	0.619298	-0.748199	-0.238049	0.778740	0.624007	0.064654
40633	8.795992	-2.810656	0.939109	-1.272162	-1.438317	-0.107863	0.110813	-0.215651	0.970162	0.609495	-0.756307	-0.237731	0.785008	0.617652	0.047630
40634	8.721016	-3.017036	1.064755	-1.224910	-1.375534	-0.133162	0.120918	-0.206186	0.971013	0.600028	-0.764077	-0.236965	0.790787	0.611289	0.031327
40635	8.468323	-3.070052	1.024970	-1.170584	-1.308347	-0.153472	0.130444	-0.197028	0.971681	0.590963	-0.771477	-0.235767	0.796083	0.604982	0.015801
40636	8.591703	-2.941585	1.031965	-1.120597	-1.271847	-0.166044	0.139698	-0.188087	0.972167	0.582269	-0.778506	-0.234290	0.800904	0.598793	0.000761
40637	8.483703	-2.935769	0.933095	-1.073885	-1.220229	-0.178943	0.148522	-0.179398	0.972501	0.573931	-0.785205	-0.232499	0.805322	0.592680	-0.013658
40638	8.588846	-3.121844	0.813392	-1.009898	-1.192129	-0.191048	0.157129	-0.170864	0.972685	0.566101	-0.791461	-0.230478	0.809222	0.586852	-0.027636
40639	8.708218	-3.232979	0.528662	-0.926088	-1.167180	-0.191702	0.165574	-0.162505	0.972716	0.558929	-0.797164	-0.228317	0.812517	0.581483	-0.041160
40640	8.824601	-3.145065	0.277331	-0.817969	-1.149261	-0.192767	0.173927	-0.154312	0.972593	0.552629	-0.802172	-0.226098	0.815077	0.576808	-0.054242
40641	8.742088	-2.898480	-0.033322	-0.717058	-1.142298	-0.201775	0.182197	-0.146109	0.972346	0.547165	-0.806571	-0.223726	0.816954	0.572796	-0.067009
40642	8.790756	-2.619073	-0.282258	-0.654541	-1.153153	-0.212845	0.190538	-0.137808	0.971959	0.542239	-0.810578	-0.221224	0.818335	0.569186	-0.079721
40643	9.410797	-2.470908	-0.292924	-0.631145	-1.179352	-0.206566	0.199138	-0.129426	0.971387	0.537500	-0.814410	-0.218700	0.819413	0.565673	-0.092614
40644	8.783567	-2.544233	-0.516732	-0.631132	-1.176602	-0.207253	0.207748	-0.121105	0.970657	0.532776	-0.818197	-0.216112	0.820360	0.562039	-0.105457
40645	8.711841	-2.571562	-0.198262	-0.628201	-1.256016	-0.215900	0.216968	-0.112288	0.969699	0.528105	-0.821943	-0.213340	0.820993	0.558391	-0.119036
40646	8.782074	-2.665457	0.152123	-0.633378	-1.302862	-0.210937	0.226629	-0.103306	0.968487	0.523399	-0.825665	-0.210548	0.821397	0.554622	-0.133050
40647	9.111375	-2.677827	0.680825	-0.656129	-1.358639	-0.210082	0.236753	-0.094052	0.967007	0.518522	-0.829474	-0.207625	0.821635	0.550570	-0.147613
40648	9.371642	-2.710247	1.247314	-0.687018	-1.384094	-0.214345	0.247091	-0.084687	0.965285	0.513421	-0.833404	-0.204541	0.821794	0.546138	-0.162447
40649	9.781130	-3.004640	1.789212	-0.713206	-1.384155	-0.193943	0.257531	-0.075536	0.963313	0.508074	-0.837414	-0.201492	0.821912	0.541325	-0.177282
40650	10.021846	-2.898833	2.037123	-0.716118	-1.355727	-0.182733	0.267821	-0.066705	0.961157	0.502694	-0.841374	-0.198465	0.821931	0.536320	-0.191805
40651	10.741215	-2.510075	2.372346	-0.765021	-1.289312	-0.222946	0.277356	-0.057947	0.959018	0.497036	-0.845572	-0.194840	0.822209	0.530707	-0.205723
40652	10.923855	-2.215203	2.655487	-0.838176	-1.123343	-0.263816	0.285364	-0.049794	0.957125	0.490908	-0.850109	-0.190589	0.823151	0.524247	-0.218146
40653	11.063971	-2.604587	2.690271	-0.870374	-0.943168	-0.273473	0.291846	-0.042558	0.955518	0.484550	-0.854746	-0.186067	0.824644	0.517299	-0.228833
40654	10.933025	-3.311279	2.319764	-0.802986	-0.719788	-0.222854	0.296784	-0.036958	0.954229	0.478601	-0.858937	-0.182122	0.826354	0.510746	-0.237230
40655	10.867058	-3.969748	2.136879	-0.620525	-0.555048	-0.143150	0.300732	-0.032919	0.953140	0.473920	-0.862119	-0.179305	0.827623	0.505635	-0.243666
40656	11.144692	-4.202633	1.814272	-0.406835	-0.366049	-0.030760	0.303687	-0.030819	0.952273	0.470669	-0.864155	-0.178067	0.828399	0.502282	-0.247927
40657	11.190043	-4.175584	1.341188	-0.250096	-0.185630	0.069578	0.305587	-0.030510	0.951675	0.468407	-0.865365	-0.178150	0.828982	0.500212	-0.250154
40658	11.527707	-3.867913	0.876860	-0.195391	0.012743	0.139494	0.306202	-0.031792	0.951435	0.466384	-0.866273	-0.179044	0.829895	0.498558	-0.250427
40659	11.624756	-3.649315	0.724346	-0.183224	0.270474	0.167939	0.304770	-0.034619	0.951797	0.464373	-0.867107	-0.180232	0.831549	0.496918	-0.248192
40660	11.594482	-3.578490	0.951135	-0.159990	0.527264	0.148222	0.301135	-0.038532	0.952803	0.462616	-0.867822	-0.181306	0.833849	0.495379	-0.243506
40661	11.361654	-3.306064	1.173655	-0.126625	0.753859	0.085891	0.295264	-0.043036	0.954446	0.461326	-0.868390	-0.181870	0.836658	0.494011	-0.236551
40662	11.488792	-2.423259	1.053229	-0.198470	0.901119	-0.019501	0.287688	-0.047321	0.956554	0.459744	-0.869353	-0.181277	0.840161	0.491921	-0.228347
40663	12.278879	-1.285594	1.125178	-0.343475	1.103392	-0.171772	0.277629	-0.051267	0.959319	0.457361	-0.871097	-0.178914	0.844833	0.488428	-0.218395
40664	12.353948	-0.916240	0.981226	-0.474862	1.319234	-0.316199	0.265074	-0.054933	0.962662	0.454221	-0.873548	-0.174920	0.850541	0.483628	-0.206603
40665	12.743951	-1.397438	0.956967	-0.458988	1.590291	-0.361839	0.249881	-0.059455	0.966449	0.451261	-0.875941	-0.170563	0.856693	0.478741	-0.192051
40666	11.690137	-1.905412	0.584201	-0.290512	1.786849	-0.346985	0.233029	-0.064948	0.970298	0.449630	-0.877517	-0.166722	0.862282	0.475126	-0.175285
40667	11.971156	-1.962154	0.298962	-0.133081	1.886451	-0.318214	0.215303	-0.071132	0.973953	0.449221	-0.878341	-0.163454	0.867090	0.472712	-0.157156
40668	11.228161	-1.964079	-0.174368	0.008539	1.975840	-0.282050	0.196933	-0.077995	0.977310	0.449907	-0.878486	-0.160767	0.871092	0.471359	-0.137912
40669	10.699862	-2.278487	-0.492856	0.149880	2.017775	-0.218574	0.178353	-0.085621	0.980234	0.451655	-0.877935	-0.158864	0.874184	0.471062	-0.117911
40670	10.282412	-3.065380	-0.736742	0.242418	2.029184	-0.108840	0.160168	-0.094242	0.982581	0.453994	-0.876865	-0.158107	0.876491	0.471409	-0.097660
40671	9.761987	-4.215592	-1.094661	0.321286	2.032275	0.013577	0.142415	-0.103989	0.984329	0.456824	-0.875311	-0.158566	0.878083	0.472247	-0.077152
40672	10.320242	-4.825059	-0.984913	0.500332	2.011664	0.162209	0.125562	-0.114943	0.985405	0.461035	-0.872738	-0.160547	0.878454	0.474465	-0.056590
40673	10.652822	-4.865457	-0.879830	0.812322	1.994170	0.308409	0.109507	-0.127178	0.985816	0.467837	-0.868464	-0.164007	0.877004	0.479161	-0.035604
40674	10.451592	-4.145315	-0.878308	1.199530	2.011173	0.396507	0.093852	-0.140337	0.985646	0.477968	-0.862111	-0.168259	0.873349	0.486898	-0.013834
40675	9.980521	-2.839612	-0.914742	1.440267	1.948260	0.405698	0.078872	-0.153441	0.985005	0.490195	-0.854404	-0.172347	0.868037	0.496437	0.007828
40676	10.217826	-1.279982	-0.952486	1.545278	1.863374	0.361991	0.064626	-0.165875	0.984027	0.503336	-0.846045	-0.175672	0.861671	0.506649	0.028815
40677	10.214331	-0.018972	-1.088997	1.592195	1.825973	0.288398	0.050449	-0.177688	0.982793	0.516871	-0.837368	-0.177928	0.854575	0.516954	0.049597
40678	10.363430	0.604976	-0.907611	1.603025	1.789412	0.196328	0.036326	-0.188674	0.981368	0.530462	-0.828608	-0.178940	0.846930	0.527078	0.069984
40679	10.495341	0.659790	-0.836662	1.539801	1.773700	0.124823	0.022065	-0.199168	0.979717	0.543445	-0.820145	-0.178968	0.839155	0.536371	0.090140
40680	10.927617	-0.121897	-0.853056	1.424301	1.744429	0.086092	0.008038	-0.209305	0.977817	0.555368	-0.812237	-0.178427	0.831566	0.544483	0.109713
40681	11.641635	-1.021017	-1.008003	1.387764	1.695040	0.070639	-0.005572	-0.219198	0.975665	0.566893	-0.804443	-0.177493	0.823773	0.552108	0.128744
40682	11.986614	-1.447544	-1.237983	1.491671	1.656283	0.095265	-0.018525	-0.229178	0.973208	0.579165	-0.795896	-0.176399	0.815000	0.560381	0.147476
40683	11.946010	-1.309414	-1.418604	1.613444	1.629035	0.115941	-0.031016	-0.239320	0.970445	0.592303	-0.786476	-0.175022	0.805118	0.569369	0.166144
40684	11.082203	-0.962249	-1.600656	1.682308	1.621757	0.108301	-0.043265	-0.249479	0.967413	0.605837	-0.776517	-0.173156	0.794412	0.578603	0.184740
40685	10.407675	-0.650225	-1.670215	1.711661	1.624729	0.071895	-0.055610	-0.259525	0.964134	0.619413	-0.766316	-0.170549	0.783093	0.587713	0.203368
40686	9.478233	-0.480188	-1.475516	1.711767	1.610007	0.026971	-0.067882	-0.269265	0.960671	0.632773	-0.756069	-0.167205	0.771356	0.596536	0.221707
40687	8.884251	-0.459781	-0.989898	1.709747	1.567302	-0.012828	-0.079926	-0.278596	0.957077	0.645887	-0.745795	-0.163155	0.759238	0.605123	0.239550
40688	8.794818	-0.395730	-0.464673	1.687672	1.522983	-0.058758	-0.091706	-0.287439	0.953399	0.658585	-0.735638	-0.158438	0.746898	0.613364	0.256765
40689	8.921224	-0.355986	-0.013105	1.626057	1.522836	-0.109781	-0.103681	-0.296038	0.949532	0.670561	-0.725886	-0.153092	0.734573	0.620847	0.273772
40690	9.153662	-0.324514	0.520052	1.538446	1.507596	-0.134772	-0.115503	-0.304474	0.945492	0.681660	-0.716646	-0.147506	0.722494	0.627467	0.290323
40691	9.088029	0.548501	1.065216	1.454666	1.449654	-0.106670	-0.126588	-0.312852	0.941328	0.691993	-0.707766	-0.142169	0.710718	0.633396	0.306086
40692	8.578158	0.138945	1.086341	1.246747	1.427091	-0.074907	-0.137105	-0.321391	0.936969	0.700728	-0.700036	-0.137584	0.700130	0.637697	0.321186
40693	8.199213	-0.801679	1.297806	1.031331	1.447148	-0.167160	-0.148310	-0.329467	0.932446	0.707699	-0.693952	-0.132636	0.690772	0.640220	0.336084
40694	7.935327	-0.490827	1.907855	0.894400	1.387784	-0.215007	-0.159293	-0.336872	0.927978	0.713548	-0.688890	-0.127594	0.682258	0.641832	0.350110
40695	7.582564	-0.106588	2.146011	0.740884	1.296527	-0.242366	-0.169789	-0.343525	0.923668	0.718213	-0.684918	-0.122709	0.674790	0.642556	0.363016
40696	7.236954	0.192115	2.298571	0.586147	1.160144	-0.271597	-0.179465	-0.349119	0.919733	0.721715	-0.682046	-0.118070	0.668521	0.642595	0.374368
40697	7.157425	0.386983	2.120377	0.474041	0.982153	-0.272384	-0.187938	-0.353564	0.916336	0.724408	-0.679919	-0.113770	0.663259	0.642420	0.383907
40698	7.296064	0.658264	2.128540	0.395326	0.803902	-0.268586	-0.195130	-0.356899	0.913536	0.726546	-0.678288	-0.109803	0.658829	0.642300	0.391657
40699	7.156547	0.837061	1.908735	0.318561	0.659704	-0.240809	-0.201179	-0.359491	0.911204	0.728199	-0.677065	-0.106343	0.655174	0.642144	0.397993
40700	6.938617	0.630587	1.686727	0.247124	0.532307	-0.218809	-0.206183	-0.361423	0.909320	0.729408	-0.676221	-0.103385	0.652267	0.641949	0.403050
40701	6.669136	0.407237	1.617101	0.183236	0.394551	-0.223148	-0.210345	-0.362432	0.907964	0.730173	-0.675814	-0.100608	0.650078	0.641809	0.406792
40702	6.380732	0.290966	1.622704	0.146394	0.267820	-0.226014	-0.213664	-0.362618	0.907114	0.730684	-0.675648	-0.097982	0.648420	0.641878	0.409321
40703	6.285583	0.178763	1.625153	0.070674	0.122802	-0.165706	-0.215635	-0.362269	0.906787	0.730823	-0.675757	-0.096180	0.647610	0.641961	0.410472
40704	6.283261	-0.389595	1.653674	-0.024899	0.018560	-0.055674	-0.216092	-0.362007	0.906783	0.730581	-0.676072	-0.095800	0.647731	0.641777	0.410569
40705	6.030995	-1.091392	2.216443	-0.091178	-0.041573	0.083787	-0.215174	-0.362288	0.906889	0.730208	-0.676315	-0.096924	0.648457	0.641362	0.410071
40706	5.499981	-2.144017	3.095405	-0.083543	-0.121436	0.192523	-0.212910	-0.362805	0.907216	0.730117	-0.676107	-0.099035	0.649306	0.641289	0.408840
40707	5.189224	-3.291145	4.126685	0.064807	-0.257380	0.296815	-0.209032	-0.363140	0.907984	0.731201	-0.674575	-0.101456	0.649346	0.642711	0.406536
40708	6.182960	-4.470293	6.235947	0.309774	-0.396222	0.393832	-0.203507	-0.363230	0.909202	0.734062	-0.671102	-0.103803	0.647872	0.646286	0.403207
40709	8.009346	-5.031755	7.641032	0.753531	-0.482516	0.425811	-0.197215	-0.362926	0.910709	0.739816	-0.664620	-0.104650	0.643256	0.653119	0.399572
40710	9.687494	-3.743747	8.387729	1.295569	-0.470005	0.381265	-0.191303	-0.362340	0.912202	0.748872	-0.654662	-0.102991	0.634502	0.663421	0.396586
40711	10.109956	-0.919471	8.826164	1.567245	-0.340986	0.288916	-0.186941	-0.361925	0.913271	0.759311	-0.643087	-0.099426	0.623297	0.674870	0.395033
40712	9.746011	1.611837	8.729703	1.475393	-0.196436	0.188783	-0.184215	-0.361784	0.913880	0.768814	-0.632324	-0.095349	0.612364	0.685040	0.394628
40713	8.918508	2.639698	8.236125	1.168402	-0.105758	0.175514	-0.182183	-0.362150	0.914143	0.776273	-0.623597	-0.092340	0.603497	0.692802	0.394736
40714	8.014176	2.204696	7.790330	0.957789	-0.102864	0.253887	-0.179517	-0.362996	0.914334	0.782514	-0.615962	-0.090905	0.596193	0.699160	0.394625
40715	8.248300	0.949652	8.143272	0.947914	-0.206248	0.373561	-0.175334	-0.363825	0.914817	0.788827	-0.607904	-0.090578	0.589075	0.705751	0.393581
40716	10.073584	-0.642875	9.029827	0.973179	-0.305565	0.497897	-0.169531	-0.364650	0.915581	0.795418	-0.599138	-0.091338	0.581867	0.712786	0.391622
40717	11.903857	-1.496943	7.585147	0.889402	-0.526754	0.640795	-0.161345	-0.364681	0.917047	0.801658	-0.590388	-0.093735	0.575597	0.720034	0.387606
40718	17.153330	0.128780	5.332492	0.471180	-0.665769	0.613613	-0.152522	-0.363461	0.919039	0.805360	-0.584699	-0.097580	0.572828	0.725274	0.381897
40719	17.090849	3.487176	0.150880	-0.052271	-0.391398	0.484529	-0.146356	-0.363442	0.920049	0.805816	-0.583276	-0.102224	0.573795	0.726429	0.378234
40720	12.229907	6.661904	-3.186989	-0.711000	-0.369825	0.451437	-0.140522	-0.363388	0.920979	0.802395	-0.586740	-0.109079	0.580014	0.723661	0.374030
40721	8.794341	6.920393	-4.157145	-1.591014	-0.338576	0.452474	-0.134907	-0.363609	0.921731	0.793717	-0.596505	-0.119141	0.593138	0.715521	0.369075
40722	6.444998	3.616168	-3.751877	-2.221361	-0.379778	0.523020	-0.128432	-0.364057	0.922479	0.781064	-0.610315	-0.132118	0.611101	0.703547	0.362736
40723	5.859058	-1.487080	-2.225688	-2.080767	-0.675408	0.636955	-0.119293	-0.363237	0.924028	0.768993	-0.622496	-0.145426	0.628028	0.693223	0.353587
40724	7.218848	-4.152809	-2.349127	-1.765187	-1.203734	0.695257	-0.106262	-0.359284	0.927159	0.758595	-0.632114	-0.158008	0.642840	0.686547	0.339720
40725	9.932866	-5.702642	-2.895268	-1.657018	-1.535866	0.608277	-0.091673	-0.352621	0.931265	0.748462	-0.641249	-0.169128	0.656811	0.681512	0.322709
40726	11.624150	-6.964462	-2.905414	-1.439844	-1.493030	0.463952	-0.078254	-0.345460	0.935165	0.739347	-0.649366	-0.178015	0.668761	0.677481	0.306231
40727	11.240434	-7.488271	-2.358425	-0.983712	-1.305762	0.394160	-0.066530	-0.339165	0.938371	0.733048	-0.654637	-0.184639	0.676916	0.675587	0.292178
40728	10.451342	-7.029396	-1.303647	-0.474140	-1.191998	0.429703	-0.055221	-0.333915	0.940984	0.730124	-0.656350	-0.190064	0.681080	0.676539	0.280043
40729	9.749505	-5.774661	-0.203818	-0.090877	-1.178468	0.454915	-0.043819	-0.328876	0.943356	0.729763	-0.655422	-0.194598	0.682295	0.679899	0.268721
40730	9.952224	-3.956914	0.727192	0.074552	-1.275624	0.453827	-0.031730	-0.323134	0.945821	0.730476	-0.653388	-0.198720	0.682201	0.684594	0.256774
40731	10.845931	-0.778423	1.290070	-0.031908	-1.324119	0.470310	-0.019205	-0.317081	0.948204	0.730410	-0.652064	-0.203258	0.682739	0.688674	0.244122
40732	10.252227	1.210393	1.469652	-0.441143	-1.305465	0.485000	-0.006662	-0.311239	0.950308	0.727485	-0.653535	-0.208942	0.686091	0.689943	0.230776
40733	9.476026	1.106859	1.481376	-0.869098	-1.295841	0.437302	0.005490	-0.305143	0.952291	0.721529	-0.658141	-0.215048	0.692362	0.688286	0.216557
40734	8.921362	-0.051368	1.304249	-1.225956	-1.332280	0.360994	0.017433	-0.298381	0.954288	0.712978	-0.665420	-0.221084	0.700970	0.684240	0.201138
40735	8.996142	-1.464846	0.941198	-1.441582	-1.378975	0.314615	0.029445	-0.291055	0.956253	0.702759	-0.674284	-0.226871	0.710818	0.678696	0.184687
40736	9.317016	-2.569892	0.552058	-1.502166	-1.403455	0.296934	0.041634	-0.283581	0.958044	0.691932	-0.683537	-0.232397	0.720761	0.672577	0.167760
40737	9.482672	-3.325784	0.432744	-1.485890	-1.381354	0.272678	0.053580	-0.276175	0.959613	0.681052	-0.692689	-0.237381	0.730272	0.666265	0.150975
40738	9.490430	-3.821190	0.582896	-1.407846	-1.344183	0.238709	0.065141	-0.268918	0.960958	0.670599	-0.701333	-0.241722	0.738955	0.660163	0.134651
40739	9.247835	-4.118706	0.641786	-1.297333	-1.306388	0.189763	0.076162	-0.261636	0.962157	0.660859	-0.709327	-0.245196	0.746636	0.654524	0.118880
40740	9.105036	-4.088734	0.722265	-1.169960	-1.288490	0.141993	0.086830	-0.254242	0.963235	0.651999	-0.716548	-0.247904	0.753231	0.649554	0.103548
40741	8.915535	-3.895337	0.748354	-1.041309	-1.279569	0.105197	0.097241	-0.246684	0.964205	0.644060	-0.722996	-0.249927	0.758769	0.645309	0.088574
40742	8.801796	-3.595760	0.751366	-0.926184	-1.284853	0.073758	0.107565	-0.238948	0.965056	0.636966	-0.728737	-0.251431	0.763351	0.641753	0.073815
40743	8.880959	-3.091441	0.751906	-0.838026	-1.300277	0.062898	0.117972	-0.231055	0.965762	0.630511	-0.733924	-0.252608	0.767163	0.638724	0.059100
40744	8.978271	-2.494973	0.677011	-0.792434	-1.306586	0.037101	0.128323	-0.222998	0.966336	0.624402	-0.738851	-0.253419	0.770490	0.635902	0.044429
40745	9.233383	-2.090171	0.628748	-0.814811	-1.308108	0.012068	0.138556	-0.214763	0.966788	0.618124	-0.743964	-0.253852	0.773773	0.632767	0.029670
40746	9.118115	-2.033605	0.389414	-0.877679	-1.280218	-0.006013	0.148520	-0.206640	0.967079	0.611354	-0.749475	-0.254033	0.777295	0.628957	0.015018
40747	9.258284	-2.303583	0.193174	-0.924188	-1.273133	-0.019618	0.158378	-0.198487	0.967222	0.604212	-0.755279	-0.253930	0.780925	0.624625	0.000309
40748	9.162860	-2.622873	-0.058588	-0.921432	-1.261467	-0.016328	0.168225	-0.190512	0.967164	0.597056	-0.761009	-0.253753	0.784363	0.620138	-0.014274
40749	9.229747	-2.869488	-0.224279	-0.859340	-1.266655	-0.011159	0.178169	-0.182574	0.966914	0.590350	-0.766314	-0.253477	0.787238	0.615979	-0.028751
40750	9.210557	-2.973902	-0.398419	-0.760919	-1.259955	-0.016945	0.188074	-0.174705	0.966492	0.584410	-0.770981	-0.253087	0.789363	0.612427	-0.042902
40751	9.141476	-2.953871	-0.447734	-0.665142	-1.247465	-0.029798	0.197814	-0.166831	0.965938	0.579239	-0.775069	-0.252487	0.790792	0.609455	-0.056684
40752	8.915281	-2.964772	-0.558470	-0.550064	-1.246695	-0.036373	0.207538	-0.158965	0.965224	0.574988	-0.778439	-0.251834	0.791402	0.607258	-0.070153
40753	8.838973	-2.860083	-0.560557	-0.456796	-1.252177	-0.055959	0.217184	-0.150914	0.964394	0.571518	-0.781271	-0.250965	0.791327	0.605674	-0.083430
40754	9.271641	-2.921784	-0.390110	-0.382603	-1.247281	-0.059524	0.226783	-0.142902	0.963405	0.568650	-0.783639	-0.250096	0.790700	0.604557	-0.096455
40755	8.784210	-3.003789	-0.372932	-0.317875	-1.229695	-0.071821	0.236149	-0.134889	0.962309	0.566329	-0.785633	-0.249101	0.789623	0.603809	-0.109135
40756	8.877028	-2.994524	-0.130079	-0.270502	-1.259050	-0.087794	0.245656	-0.126601	0.961054	0.564432	-0.787347	-0.247993	0.788080	0.603371	-0.121959
40757	9.231565	-2.923661	0.389013	-0.256392	-1.254139	-0.094396	0.255054	-0.118275	0.959666	0.562674	-0.788984	-0.246783	0.786349	0.602922	-0.134683
40758	9.105722	-3.060189	0.924720	-0.279301	-1.201555	-0.077715	0.264127	-0.110423	0.958146	0.560706	-0.790723	-0.245695	0.784758	0.602133	-0.146936
40759	9.250151	-3.276484	1.383730	-0.296603	-1.173740	-0.052654	0.273090	-0.102930	0.956466	0.558545	-0.792538	-0.244765	0.783230	0.601073	-0.158943
40760	9.443009	-3.339447	1.778902	-0.327890	-1.148671	-0.024762	0.282011	-0.095840	0.954612	0.556071	-0.794499	-0.244039	0.781828	0.599654	-0.170764
40761	9.620311	-3.209032	2.108301	-0.367945	-1.132026	-0.004713	0.290881	-0.089014	0.952609	0.553233	-0.796682	-0.243375	0.780590	0.597808	-0.182494
40762	10.062145	-2.689732	2.206280	-0.390838	-1.121558	-0.000077	0.299698	-0.082323	0.950476	0.550207	-0.798983	-0.242690	0.779393	0.595692	-0.194159
40763	10.766176	-2.220576	2.295028	-0.445974	-1.054001	-0.014222	0.307879	-0.075940	0.948390	0.546799	-0.801620	-0.241697	0.778602	0.592992	-0.205278
40764	10.485504	-2.169037	2.050802	-0.504152	-0.957260	-0.030531	0.315234	-0.070037	0.946426	0.542990	-0.804593	-0.240399	0.778324	0.589682	-0.215606
40765	10.065585	-2.519676	1.595526	-0.522319	-0.877634	-0.040339	0.321889	-0.064551	0.944574	0.539076	-0.807666	-0.238900	0.778322	0.586096	-0.225181
40766	9.742777	-2.900918	1.168704	-0.489152	-0.837007	-0.016349	0.328385	-0.059531	0.942666	0.535343	-0.810505	-0.237675	0.778185	0.582698	-0.234288
40767	9.471217	-3.069362	0.738080	-0.465692	-0.731827	0.035962	0.334310	-0.055574	0.940823	0.531621	-0.813166	-0.236939	0.778213	0.579373	-0.242305
40768	9.655657	-3.115820	0.687963	-0.476738	-0.619371	0.079131	0.339619	-0.052645	0.939088	0.527664	-0.815848	-0.236565	0.778607	0.575865	-0.249299
40769	10.800043	-3.262652	0.815031	-0.575525	-0.425347	0.142897	0.343721	-0.051381	0.937665	0.522712	-0.819051	-0.236492	0.780146	0.571416	-0.254667
40770	10.778603	-3.273238	0.681082	-0.724060	-0.149227	0.185084	0.345917	-0.052057	0.936820	0.516433	-0.823043	-0.236426	0.783350	0.565589	-0.257820
40771	11.253595	-3.245126	1.064457	-0.828709	0.094026	0.176515	0.346116	-0.054055	0.936633	0.509334	-0.827583	-0.235977	0.787898	0.558735	-0.258908
40772	10.689999	-3.769868	1.748652	-0.827172	0.382137	0.161641	0.343980	-0.057525	0.937213	0.502257	-0.832058	-0.235411	0.793357	0.551698	-0.257319
40773	10.030526	-5.153313	2.306794	-0.654885	0.613973	0.164083	0.339940	-0.062280	0.938383	0.496506	-0.835528	-0.235319	0.798701	0.545907	-0.253107
40774	10.268031	-5.820334	2.222929	-0.377583	0.761317	0.152193	0.334664	-0.067703	0.939902	0.492990	-0.837456	-0.235859	0.803095	0.542296	-0.246890
40775	11.587019	-4.620901	1.513507	-0.191015	0.903256	0.066225	0.327743	-0.073172	0.941929	0.491257	-0.838415	-0.236063	0.807001	0.540098	-0.238838
40776	13.275086	-2.867486	0.985080	-0.165274	1.208879	-0.091369	0.317579	-0.078929	0.944941	0.490237	-0.839348	-0.234869	0.811672	0.537835	-0.227865
40777	14.366489	-1.446266	1.002024	-0.104193	1.635301	-0.261481	0.302998	-0.085541	0.949144	0.490226	-0.840094	-0.232209	0.817233	0.535654	-0.212613
40778	13.689755	-0.196651	1.121749	0.138637	2.169128	-0.344165	0.283588	-0.094270	0.954301	0.492397	-0.839632	-0.229267	0.822875	0.534912	-0.191691
40779	12.963128	0.859732	0.983876	0.365004	2.587561	-0.396811	0.260278	-0.104820	0.959827	0.496518	-0.838046	-0.226162	0.828085	0.535436	-0.166080
40780	10.430743	1.753097	-0.259200	0.288386	2.782166	-0.499208	0.234745	-0.115536	0.965167	0.500176	-0.837023	-0.221848	0.833498	0.534831	-0.138698
40781	9.349840	2.464523	-1.026102	-0.114447	2.654763	-0.608076	0.209495	-0.124614	0.969837	0.500600	-0.838336	-0.215852	0.839947	0.530721	-0.113246
40782	9.349705	1.849782	-1.241924	-0.602069	2.439164	-0.649396	0.185744	-0.132012	0.973690	0.496833	-0.842310	-0.208976	0.847736	0.522577	-0.090866
40783	10.178874	-0.230738	-1.258206	-0.951595	2.256207	-0.625815	0.163436	-0.138411	0.976796	0.489850	-0.848052	-0.202129	0.856350	0.511518	-0.070802
40784	10.691957	-2.458020	-1.375302	-1.094680	2.119559	-0.544848	0.142619	-0.144496	0.979173	0.481294	-0.854325	-0.196174	0.864879	0.499249	-0.052298
40785	11.077366	-4.339240	-1.750774	-1.043934	2.001402	-0.423009	0.123220	-0.150766	0.980860	0.472822	-0.860075	-0.191598	0.872500	0.487381	-0.034693
40786	11.215298	-5.496294	-2.252630	-0.861149	1.901687	-0.303209	0.105217	-0.157334	0.981924	0.465663	-0.864666	-0.188443	0.878685	0.477073	-0.017713
40787	10.980245	-5.925319	-2.462171	-0.605873	1.822680	-0.210408	0.088194	-0.164159	0.982483	0.460565	-0.867845	-0.186347	0.883234	0.468932	-0.000933
40788	11.128665	-5.861212	-2.220679	-0.260682	1.728178	-0.140743	0.072332	-0.171010	0.982611	0.458409	-0.869267	-0.185028	0.885793	0.463821	0.015516
40789	11.028100	-5.409840	-2.235948	0.128524	1.667651	-0.069358	0.057253	-0.178157	0.982335	0.459631	-0.868767	-0.184348	0.886263	0.462066	0.032147
40790	10.663510	-4.802651	-2.241944	0.538083	1.604639	-0.011783	0.043062	-0.185497	0.981701	0.464439	-0.866267	-0.184058	0.884557	0.463866	0.048849
40791	10.764630	-4.250243	-2.198333	0.913503	1.522979	0.023023	0.029748	-0.192830	0.980781	0.472534	-0.861934	-0.183796	0.880810	0.468920	0.065478
40792	10.854060	-4.028006	-2.266452	1.263732	1.437487	0.069571	0.017532	-0.200239	0.979590	0.483652	-0.855790	-0.183589	0.875085	0.476999	0.081842
40793	10.837019	-3.938896	-2.038747	1.551253	1.353812	0.118271	0.006343	-0.207805	0.978150	0.497195	-0.848037	-0.183387	0.867616	0.487494	0.097941
40794	11.144094	-3.998097	-1.557336	1.826538	1.251014	0.159832	-0.003574	-0.215342	0.976532	0.512996	-0.838645	-0.183058	0.858384	0.500303	0.113467
40795	11.256283	-4.066198	-1.196304	2.130339	1.209877	0.241954	-0.012595	-0.223530	0.974616	0.531224	-0.827261	-0.182869	0.847138	0.515436	0.129164
40796	10.900273	-3.746129	-0.997316	2.403462	1.168670	0.318926	-0.020619	-0.232279	0.972431	0.551519	-0.813905	-0.182719	0.833908	0.532546	0.144889
40797	10.142151	-3.012286	-0.863342	2.629606	1.133500	0.364629	-0.027897	-0.241386	0.970028	0.573379	-0.798756	-0.182276	0.818815	0.551109	0.160688
40798	9.446572	-2.185309	-0.795607	2.720534	1.082051	0.377411	-0.034390	-0.250440	0.967521	0.595592	-0.782540	-0.181388	0.802551	0.570009	0.176072
40799	8.952764	-1.491859	-0.657434	2.715719	1.040653	0.381263	-0.040299	-0.259439	0.964918	0.617341	-0.765799	-0.180119	0.785663	0.588425	0.191024
40800	9.000085	-0.848148	-0.355521	2.649319	0.972161	0.360628	-0.045518	-0.267978	0.962349	0.638123	-0.748985	-0.178382	0.768588	0.605978	0.205095
40801	9.369838	-0.206071	0.066338	2.548548	0.907334	0.350855	-0.050096	-0.276163	0.959804	0.657702	-0.732336	-0.176386	0.751611	0.622429	0.218320
40802	9.282422	-0.012546	0.116556	2.372492	0.934765	0.347773	-0.054654	-0.284567	0.957097	0.675559	-0.716378	-0.174418	0.735277	0.637043	0.231395
40803	8.689101	-0.570839	0.275040	2.180463	0.989044	0.262280	-0.060011	-0.292796	0.954290	0.691611	-0.701551	-0.171758	0.719773	0.649690	0.244601
40804	8.376163	-0.776985	0.541777	2.061421	1.015228	0.167717	-0.065997	-0.300609	0.951461	0.706435	-0.687499	-0.168211	0.704694	0.661044	0.257733
40805	7.827150	-0.923957	0.817319	1.996072	1.026748	0.075333	-0.072571	-0.307964	0.948626	0.720440	-0.673927	-0.163671	0.689710	0.671551	0.270777
40806	8.135615	-0.672354	1.717291	1.977663	1.049732	-0.029273	-0.079872	-0.314863	0.945770	0.733943	-0.660593	-0.157939	0.674498	0.681527	0.283855
40807	9.005920	-0.497493	2.806764	1.915807	1.138460	-0.113476	-0.088258	-0.321928	0.942642	0.746660	-0.647768	-0.151315	0.659325	0.690478	0.297541
40808	9.607674	-0.393534	3.365969	1.792841	1.203632	-0.152231	-0.097180	-0.329298	0.939212	0.758243	-0.635769	-0.144452	0.644689	0.698113	0.311472
40809	9.373414	-0.120102	3.404907	1.680069	1.200496	-0.151228	-0.105945	-0.336760	0.935611	0.768837	-0.624443	-0.137699	0.630608	0.704744	0.325070
40810	9.024156	0.408390	3.414689	1.570946	1.144843	-0.140609	-0.114104	-0.343979	0.932018	0.778517	-0.613756	-0.131207	0.617164	0.710621	0.337826
