// General information: 
//  MT Manager version: 2022.2.0 
//  XDA version: 2022.2.0 build 7381 rev 124627 built on 2023-07-19
// Device information: 
//  DeviceId: 00B4CBA7
//  ProductCode: MTW2-3A7G6
//  Firmware Version: 4.6.0
//  Hardware Version: 2.0.0
// Device settings: 
//  Filter Profile: human(46.1)
//  Option Flags: Orientation Smoother Disabled, Position/Velocity Smoother Disabled, Continuous Zero Rotation Update Disabled, AHS Disabled, ICC Disabled
// Coordinate system: ENU
PacketCounter	Acc_X	Acc_Y	Acc_Z	Gyr_X	Gyr_Y	Gyr_Z	Mat[1][1]	Mat[2][1]	Mat[3][1]	Mat[1][2]	Mat[2][2]	Mat[3][2]	Mat[1][3]	Mat[2][3]	Mat[3][3]
25636	9.726285	-0.865023	-0.440371	0.132666	-0.403309	0.128229	0.202329	0.059596	0.977503	0.703154	-0.703589	-0.102646	0.681643	0.708103	-0.184262
25637	9.783464	-0.815595	-0.496863	0.070526	-0.435347	0.121672	0.206121	0.061846	0.976570	0.703357	-0.703200	-0.103921	0.680297	0.708297	-0.188444
25638	9.690791	-1.015097	-0.839834	0.017440	-0.473666	0.126331	0.210193	0.064332	0.975541	0.703204	-0.703171	-0.105144	0.679208	0.708104	-0.193040
25639	9.741898	-1.196661	-1.161506	0.025475	-0.508334	0.112449	0.214401	0.067161	0.974434	0.703113	-0.703096	-0.106244	0.677986	0.707916	-0.197966
25640	9.996103	-1.477788	-1.469944	0.042068	-0.535248	0.105950	0.218735	0.070225	0.973254	0.703160	-0.702886	-0.107316	0.676551	0.707827	-0.203125
25641	10.006801	-1.231450	-1.665493	0.100778	-0.546568	0.095267	0.223064	0.073446	0.972033	0.703617	-0.702261	-0.108405	0.674659	0.708120	-0.208327
25642	9.961540	-1.126359	-1.737142	0.054976	-0.554213	0.090144	0.227397	0.076758	0.970772	0.703777	-0.701954	-0.109353	0.673044	0.708074	-0.213643
25643	10.046864	-1.550045	-2.340076	0.057930	-0.545623	0.074892	0.231559	0.080116	0.969516	0.703980	-0.701624	-0.110160	0.671411	0.708029	-0.218868
25644	10.064675	-1.438789	-2.371439	0.150104	-0.537647	0.068972	0.235613	0.083461	0.968257	0.704818	-0.700632	-0.111116	0.669117	0.708625	-0.223902
25645	10.048520	-1.342729	-2.432778	0.168852	-0.526908	0.050805	0.239458	0.086862	0.967013	0.705815	-0.699495	-0.111947	0.666697	0.709339	-0.228808
25646	10.214896	-1.403824	-2.618538	0.129067	-0.502346	0.019828	0.242906	0.090308	0.965837	0.706620	-0.698611	-0.112392	0.664594	0.709780	-0.233510
25647	10.516572	-1.487633	-2.442303	0.171224	-0.482282	0.030316	0.246286	0.093542	0.964673	0.707676	-0.697435	-0.113045	0.662222	0.710517	-0.237965
25648	10.585325	-0.995313	-2.244512	0.041585	-0.451064	0.051040	0.249595	0.096410	0.963539	0.707818	-0.697202	-0.113592	0.660829	0.710363	-0.242259
25649	10.477627	-0.719753	-2.119911	-0.189646	-0.392567	0.044590	0.252470	0.098905	0.962536	0.706453	-0.698597	-0.113516	0.661198	0.708646	-0.246247
25650	10.094921	-0.642033	-1.921957	-0.447758	-0.358742	0.045755	0.255133	0.101141	0.961602	0.703365	-0.701822	-0.112800	0.663464	0.705136	-0.250197
25651	9.672952	-0.938196	-2.469901	-0.687014	-0.335227	0.039152	0.257601	0.103241	0.960720	0.698691	-0.706698	-0.111399	0.667438	0.699943	-0.254180
25652	9.608379	-0.969810	-2.578138	-0.745100	-0.326681	0.023893	0.259920	0.105369	0.959864	0.693633	-0.711930	-0.109675	0.671800	0.694300	-0.258132
25653	9.451424	-0.901809	-2.815557	-0.886729	-0.244241	0.020606	0.261675	0.106931	0.959214	0.687594	-0.718090	-0.107525	0.677304	0.687687	-0.261431
25654	9.010681	-0.946748	-3.402959	-0.926029	-0.194743	0.015976	0.263074	0.108170	0.958693	0.681247	-0.724456	-0.105199	0.683151	0.680781	-0.264275
25655	8.840928	-0.876532	-3.686215	-0.979754	-0.188801	-0.006509	0.264292	0.109519	0.958204	0.674535	-0.731094	-0.102490	0.689312	0.673430	-0.267096
25656	8.746585	-1.074687	-4.168901	-0.994868	-0.179584	-0.019071	0.265373	0.110883	0.957749	0.667691	-0.737747	-0.099591	0.695533	0.665908	-0.269814
25657	8.437567	-1.214541	-4.815533	-0.844663	-0.164221	-0.041692	0.266212	0.112306	0.957350	0.661903	-0.743305	-0.096860	0.700725	0.659458	-0.272213
25658	8.575010	0.436272	-4.406898	-0.468375	-0.174748	-0.088618	0.266819	0.114138	0.956964	0.658844	-0.746297	-0.094686	0.703372	0.655754	-0.274326
25659	8.807714	2.711200	-3.579330	-0.665187	-0.185691	-0.148179	0.267124	0.116488	0.956596	0.654554	-0.750471	-0.091393	0.707251	0.650557	-0.276717
25660	9.667028	2.469931	-3.263534	-1.006072	-0.134059	-0.162158	0.266987	0.118600	0.956375	0.647833	-0.756798	-0.087002	0.713464	0.642800	-0.278888
25661	9.398607	1.987526	-3.339874	-1.282671	0.011871	-0.152494	0.265889	0.119718	0.956541	0.639037	-0.764802	-0.081912	0.721758	0.633045	-0.279857
25662	9.043380	1.023639	-3.577810	-1.404029	0.123756	-0.148040	0.264018	0.120104	0.957011	0.629223	-0.773449	-0.076521	0.731008	0.622376	-0.279776
25663	8.822972	0.025897	-3.657832	-1.304093	0.243821	-0.130288	0.261382	0.119650	0.957791	0.619968	-0.781356	-0.071580	0.739811	0.612509	-0.278411
25664	8.811752	-0.476200	-3.936730	-1.107210	0.353273	-0.101618	0.258095	0.118323	0.958846	0.611989	-0.787981	-0.067493	0.747567	0.604223	-0.275787
25665	8.703502	-0.519881	-3.997278	-0.846750	0.467965	-0.078680	0.254081	0.116175	0.960180	0.605829	-0.792987	-0.064367	0.753933	0.598059	-0.271865
25666	8.555072	-0.802567	-4.108144	-0.656182	0.579221	-0.044986	0.249394	0.113107	0.961774	0.600968	-0.796855	-0.062123	0.759368	0.593489	-0.266704
25667	8.536232	-1.281610	-4.213310	-0.382233	0.670801	-0.033610	0.244062	0.109445	0.963564	0.598135	-0.799090	-0.060739	0.763327	0.591166	-0.260490
25668	8.744215	-1.699126	-4.058637	-0.137851	0.759750	-0.038301	0.237991	0.105286	0.965544	0.597164	-0.799874	-0.059970	0.766000	0.590861	-0.253236
25669	8.428986	-2.580784	-4.133782	0.120368	0.850449	-0.058255	0.231107	0.100763	0.967696	0.598225	-0.799104	-0.059661	0.767278	0.592688	-0.244958
25670	8.421406	-2.386163	-3.744084	0.489080	0.914005	-0.111835	0.223394	0.096241	0.969965	0.602220	-0.796094	-0.059709	0.766437	0.597471	-0.235801
25671	8.471572	-1.995363	-3.436642	0.583617	0.988134	-0.153347	0.214889	0.091574	0.972336	0.607011	-0.792462	-0.059517	0.765089	0.603008	-0.225877
25672	8.403524	-2.180634	-3.456418	0.668855	1.034449	-0.199724	0.205733	0.086908	0.974742	0.612531	-0.788241	-0.059004	0.763203	0.609199	-0.215401
25673	8.443213	-2.011374	-3.095595	0.781660	1.046653	-0.229054	0.196345	0.082337	0.977072	0.618944	-0.783263	-0.058373	0.760498	0.616214	-0.204752
25674	10.417588	-1.302268	-0.884576	0.869447	0.929181	-0.201806	0.188005	0.078176	0.979052	0.625917	-0.777723	-0.058093	0.756889	0.623728	-0.195148
25675	8.161276	0.492707	-1.672874	0.239190	0.686194	0.027147	0.182974	0.073716	0.980350	0.627672	-0.776256	-0.058780	0.756669	0.626094	-0.188304
25676	9.033192	0.316011	-1.968772	-0.578386	0.323869	0.226858	0.181901	0.069954	0.980825	0.622858	-0.780040	-0.059879	0.760894	0.621807	-0.185462
25677	10.121458	-2.324293	-1.895203	-0.901775	0.188200	0.261979	0.182073	0.066782	0.981015	0.615479	-0.785810	-0.060737	0.766835	0.614852	-0.184178
25678	10.061652	-3.019033	-1.236974	-0.756592	0.236492	0.148135	0.181127	0.064192	0.981362	0.609377	-0.790549	-0.060760	0.771915	0.609025	-0.182307
25679	10.156014	-4.087661	-1.254424	-0.673685	0.299325	0.064593	0.179190	0.061904	0.981865	0.604033	-0.794687	-0.060133	0.776553	0.603855	-0.179792
25680	10.413451	-5.365493	-1.515244	-0.167949	0.399819	0.046366	0.176329	0.059148	0.982553	0.602633	-0.795741	-0.060246	0.778294	0.602742	-0.175956
25681	10.248665	-4.457722	-1.251934	0.482513	0.493648	0.038708	0.172715	0.055887	0.983385	0.606305	-0.792856	-0.061428	0.776250	0.606841	-0.170823
25682	9.215474	-1.760300	-1.398934	0.928046	0.410546	0.006690	0.169546	0.053352	0.984077	0.613462	-0.787206	-0.063014	0.771310	0.614378	-0.166197
25683	8.852368	0.960396	-1.645167	0.910613	0.156964	-0.074806	0.167868	0.052998	0.984384	0.620574	-0.781552	-0.063749	0.765969	0.621585	-0.164087
25684	9.391221	1.460368	-2.098658	0.769309	-0.034048	-0.123317	0.167325	0.054196	0.984411	0.626643	-0.776695	-0.063753	0.761132	0.627541	-0.163922
25685	9.854274	1.186345	-1.728360	0.728916	-0.065233	-0.139318	0.166929	0.055717	0.984393	0.632393	-0.772037	-0.063541	0.756448	0.633130	-0.164111
25686	9.937835	0.694849	-1.369850	0.633904	0.010331	-0.120536	0.166052	0.056603	0.984491	0.637364	-0.767954	-0.063350	0.752458	0.637999	-0.163597
25687	9.684083	1.055612	-1.063150	0.355729	0.089789	-0.092529	0.164771	0.056770	0.984697	0.640177	-0.765641	-0.062981	0.750349	0.640758	-0.162499
25688	9.380193	1.491142	-1.717025	-0.111816	0.149379	-0.058472	0.163242	0.056285	0.984979	0.639421	-0.766338	-0.062181	0.751327	0.639967	-0.161088
25689	9.245138	0.574359	-2.974155	-0.431471	0.180253	-0.042095	0.161598	0.055491	0.985295	0.636228	-0.769083	-0.061033	0.754388	0.636735	-0.159587
25690	9.154220	-0.888350	-3.767560	-0.357760	0.182949	-0.044392	0.159899	0.054694	0.985617	0.633583	-0.771346	-0.059984	0.756971	0.634062	-0.157991
25691	9.072138	-1.158376	-3.741582	-0.183543	0.196496	-0.061027	0.158009	0.053957	0.985962	0.632276	-0.772490	-0.059053	0.758459	0.632731	-0.156176
25692	9.326691	-0.939824	-3.104231	-0.171104	0.229780	-0.058954	0.155858	0.052984	0.986357	0.631057	-0.773553	-0.058163	0.759918	0.631513	-0.154000
25693	9.588650	-1.311298	-2.467371	-0.249131	0.277071	-0.049968	0.153422	0.051661	0.986809	0.629225	-0.775112	-0.057249	0.761930	0.629708	-0.151426
25694	9.741689	-1.629949	-1.787441	-0.297257	0.307541	-0.029163	0.150858	0.049978	0.987291	0.626988	-0.776979	-0.056472	0.764282	0.627539	-0.148550
25695	9.939984	-1.697133	-1.136346	-0.298882	0.307764	-0.032799	0.148287	0.048343	0.987762	0.624735	-0.778850	-0.055669	0.766627	0.625344	-0.145695
25696	10.176774	-1.501562	-0.677114	-0.213308	0.271620	-0.069512	0.145735	0.047213	0.988197	0.623187	-0.780163	-0.054631	0.768375	0.623793	-0.143119
25697	10.210918	-0.770089	-0.060358	-0.165522	0.228784	-0.087175	0.143422	0.046503	0.988569	0.622026	-0.781167	-0.053497	0.769749	0.622588	-0.140962
25698	10.148249	-0.461797	-0.216769	-0.256092	0.209293	-0.100871	0.141148	0.046015	0.988918	0.620182	-0.782726	-0.052098	0.771655	0.620663	-0.139018
25699	9.855870	-0.237432	-0.381888	-0.277609	0.200796	-0.102629	0.138949	0.045609	0.989249	0.618167	-0.784412	-0.050662	0.773668	0.618560	-0.137187
25700	9.517503	-0.385578	-0.717121	-0.307238	0.174042	-0.108232	0.136899	0.045409	0.989544	0.615922	-0.786273	-0.049129	0.775821	0.616208	-0.135609
25701	9.274257	-0.781441	-1.317595	-0.240176	0.142156	-0.116608	0.135064	0.045486	0.989792	0.614201	-0.787712	-0.047612	0.777506	0.614362	-0.134329
25702	9.298035	-0.754741	-1.492562	-0.101383	0.120818	-0.118653	0.133362	0.045704	0.990013	0.613557	-0.788294	-0.046259	0.778307	0.613599	-0.133171
25703	9.625680	-0.591496	-1.540004	-0.065912	0.106514	-0.120235	0.131782	0.046032	0.990209	0.613189	-0.788657	-0.044944	0.778866	0.613108	-0.132157
25704	9.798394	-0.589831	-1.863446	-0.058615	0.120442	-0.117616	0.130089	0.046247	0.990423	0.612872	-0.788975	-0.043659	0.779400	0.612683	-0.130981
25705	9.879729	-0.309957	-1.969394	-0.000281	0.136092	-0.119752	0.128281	0.046391	0.990652	0.613010	-0.788934	-0.042435	0.779591	0.612724	-0.129644
25706	9.750329	-0.268290	-1.920210	-0.035868	0.159243	-0.119306	0.126275	0.046382	0.990910	0.612868	-0.789112	-0.041164	0.780030	0.612495	-0.128071
25707	9.480002	-1.057071	-2.103693	-0.125114	0.187489	-0.125836	0.124028	0.046262	0.991200	0.612034	-0.789833	-0.039720	0.781045	0.611575	-0.126276
25708	9.410782	-1.375566	-1.919223	-0.000227	0.181549	-0.124495	0.121815	0.046160	0.991479	0.612171	-0.789790	-0.038442	0.781286	0.611638	-0.124466
25709	9.863948	-0.760303	-1.488488	0.128636	0.168802	-0.126291	0.119712	0.046157	0.991735	0.613313	-0.788958	-0.037313	0.780715	0.612711	-0.122756
25710	10.242207	0.427138	-0.698791	0.083279	0.167978	-0.109971	0.117692	0.046020	0.991983	0.614079	-0.788410	-0.036281	0.780420	0.613426	-0.121049
25711	10.225437	0.505492	-0.558626	-0.212069	0.184829	-0.098197	0.115635	0.045696	0.992240	0.612522	-0.789678	-0.035015	0.781950	0.611818	-0.119304
25712	9.963204	0.139483	-1.140870	-0.272358	0.212762	-0.090270	0.113383	0.045135	0.992526	0.610478	-0.791313	-0.033754	0.783875	0.609742	-0.117276
25713	9.804030	0.428111	-1.304190	-0.242103	0.214898	-0.082363	0.111182	0.044514	0.992803	0.608655	-0.792764	-0.032617	0.785606	0.607901	-0.115235
25714	9.658022	-0.384692	-1.705898	-0.253871	0.220181	-0.081450	0.108922	0.043849	0.993083	0.606733	-0.794282	-0.031476	0.787408	0.605965	-0.113120
25715	9.666571	-1.006502	-1.874614	-0.006566	0.208644	-0.083275	0.106761	0.043281	0.993342	0.606756	-0.794299	-0.030603	0.787686	0.605983	-0.111061
25716	9.980710	-0.307715	-1.355959	0.122643	0.210364	-0.069234	0.104651	0.042580	0.993597	0.607779	-0.793539	-0.030008	0.787180	0.607028	-0.108924
25717	9.708184	-0.008457	-1.083515	0.065616	0.222847	-0.057099	0.102538	0.041715	0.993854	0.608339	-0.793130	-0.029473	0.787026	0.607622	-0.106703
25718	9.653391	0.246771	-0.714063	-0.012112	0.216909	-0.047591	0.100507	0.040800	0.994099	0.608276	-0.793197	-0.028945	0.787336	0.607596	-0.104540
25719	9.672821	0.420149	-0.537371	-0.149594	0.215956	-0.034267	0.098585	0.039796	0.994333	0.607116	-0.794105	-0.028411	0.788474	0.606476	-0.102448
25720	9.648151	0.319128	-0.590206	-0.257431	0.208831	-0.034837	0.096692	0.038834	0.994556	0.605102	-0.795664	-0.027761	0.790254	0.604492	-0.100433
25721	9.561949	0.092440	-0.683677	-0.287292	0.210037	-0.039808	0.094776	0.037920	0.994776	0.602851	-0.797396	-0.027040	0.792205	0.602264	-0.098434
25722	9.451702	-0.353906	-0.787783	-0.297161	0.191988	-0.047217	0.092936	0.037168	0.994978	0.600522	-0.799178	-0.026238	0.794189	0.599945	-0.096592
25723	9.556075	-1.100423	-0.841243	-0.172522	0.165584	-0.058535	0.091255	0.036680	0.995152	0.599188	-0.800204	-0.025451	0.795391	0.598606	-0.095000
25724	9.689379	-0.996556	-0.452487	0.003675	0.136554	-0.068347	0.089726	0.036434	0.995300	0.599263	-0.800170	-0.024732	0.795508	0.598666	-0.093630
25725	9.702599	-0.385808	0.059183	0.062392	0.103813	-0.066049	0.088490	0.036376	0.995413	0.599802	-0.799786	-0.024094	0.795240	0.599182	-0.092591
25726	9.718316	-0.021942	0.449961	-0.009627	0.060547	-0.057116	0.087633	0.036495	0.995484	0.599759	-0.799836	-0.023474	0.795367	0.599108	-0.091980
25727	9.842388	0.091480	0.516003	-0.020943	0.019539	-0.052929	0.087144	0.036835	0.995514	0.599622	-0.799956	-0.022890	0.795524	0.598927	-0.091799
25728	9.906702	0.645224	0.238376	-0.109854	0.006053	-0.041268	0.086816	0.037155	0.995531	0.598768	-0.800611	-0.022336	0.796204	0.598031	-0.091753
25729	9.732425	0.607062	-0.183972	-0.161151	-0.023750	-0.034974	0.086778	0.037610	0.995517	0.597498	-0.801574	-0.021800	0.797161	0.596711	-0.092031
25730	9.790732	0.341785	-0.714823	-0.112144	-0.039339	-0.037091	0.086837	0.038167	0.995491	0.596619	-0.802242	-0.021285	0.797813	0.595777	-0.092436
25731	9.702810	0.267060	-1.037253	-0.115721	-0.038934	-0.030516	0.086947	0.038678	0.995462	0.595705	-0.802933	-0.020834	0.798483	0.594813	-0.092853
25732	9.620583	-0.410776	-1.339967	-0.120174	-0.037774	-0.022266	0.087083	0.039107	0.995433	0.594748	-0.803652	-0.020458	0.799181	0.593814	-0.093243
25733	9.735178	-0.748257	-1.423110	-0.017617	-0.044746	-0.018168	0.087314	0.039552	0.995395	0.594607	-0.803762	-0.020220	0.799262	0.593634	-0.093698
25734	10.034689	-0.334794	-1.399037	-0.016401	-0.022623	-0.006070	0.087426	0.039761	0.995377	0.594465	-0.803870	-0.020102	0.799355	0.593474	-0.093916
25735	10.013457	-0.085442	-1.803629	-0.132781	0.017909	0.001931	0.087276	0.039673	0.995394	0.593384	-0.804672	-0.019956	0.800174	0.592393	-0.093770
25736	9.762624	-0.494897	-2.494110	-0.123244	0.043617	0.001785	0.086904	0.039426	0.995436	0.592380	-0.805415	-0.019816	0.800958	0.591398	-0.093350
25737	9.825123	-0.600362	-2.597285	0.038678	0.070787	0.001938	0.086332	0.039027	0.995502	0.592671	-0.805201	-0.019831	0.800805	0.591717	-0.092645
25738	9.823134	-0.481307	-2.181389	0.067557	0.110388	0.006378	0.085453	0.038348	0.995604	0.593190	-0.804816	-0.019915	0.800514	0.592284	-0.091522
25739	9.783239	-0.312568	-1.717405	0.132427	0.140541	0.009005	0.084368	0.037478	0.995730	0.594225	-0.804048	-0.020085	0.799862	0.593382	-0.090106
25740	9.782973	0.098215	-1.104014	0.110620	0.148977	0.025669	0.083296	0.036413	0.995859	0.595072	-0.803414	-0.020397	0.799344	0.594307	-0.088589
25741	9.790865	0.169900	-0.647527	0.072388	0.142360	0.041747	0.082392	0.035267	0.995976	0.595599	-0.803012	-0.020837	0.799046	0.594919	-0.087167
25742	9.729106	0.148001	-0.238831	0.091483	0.122186	0.052702	0.081697	0.034142	0.996072	0.596270	-0.802499	-0.021399	0.798616	0.595676	-0.085920
25743	9.646483	0.401691	0.130454	0.122985	0.095310	0.071424	0.081347	0.033037	0.996138	0.597176	-0.801804	-0.022175	0.797975	0.596674	-0.084954
25744	9.716182	0.612034	0.177097	0.109554	0.064721	0.078052	0.081265	0.032050	0.996177	0.597970	-0.801188	-0.023003	0.797388	0.597553	-0.084273
25745	9.474525	0.580375	0.149499	0.085402	0.045006	0.093221	0.081446	0.031071	0.996193	0.598558	-0.800721	-0.023962	0.796929	0.598231	-0.083813
25746	9.508029	0.255571	0.003212	0.073062	0.004756	0.099100	0.081968	0.030274	0.996175	0.599042	-0.800328	-0.024969	0.796511	0.598798	-0.083737
25747	9.586222	0.159926	0.032665	0.055825	-0.022932	0.115129	0.082822	0.029526	0.996127	0.599375	-0.800042	-0.026120	0.796172	0.599217	-0.083958
25748	9.541168	-0.235293	-0.228521	0.020949	-0.049160	0.122689	0.083915	0.028864	0.996055	0.599423	-0.799966	-0.027318	0.796022	0.599350	-0.084431
25749	9.679245	-0.098965	-0.288437	0.083551	-0.081284	0.127662	0.085307	0.028366	0.995951	0.599963	-0.799516	-0.028618	0.795467	0.599974	-0.085223
25750	9.719430	0.004313	-0.425071	0.055510	-0.098976	0.140563	0.086905	0.027862	0.995827	0.600267	-0.799236	-0.030023	0.795064	0.600371	-0.086182
25751	9.708874	0.006770	-0.558432	0.056815	-0.115420	0.148349	0.088692	0.027405	0.995682	0.600571	-0.798950	-0.031507	0.794637	0.600772	-0.087319
25752	9.678548	-0.100576	-0.677331	0.060915	-0.129053	0.153826	0.090608	0.026977	0.995521	0.600901	-0.798640	-0.033050	0.794172	0.601204	-0.088573
25753	9.864571	-0.182044	-0.685229	0.074043	-0.127811	0.161429	0.092571	0.026492	0.995354	0.601324	-0.798252	-0.034679	0.793625	0.601740	-0.089825
25754	9.709902	-0.496741	-0.680888	0.036073	-0.122004	0.168902	0.094522	0.025903	0.995186	0.601436	-0.798093	-0.036351	0.793310	0.601977	-0.091016
25755	9.531023	-1.149427	-1.029907	0.086383	-0.135887	0.162366	0.096554	0.025461	0.995002	0.601949	-0.797630	-0.038002	0.792676	0.602610	-0.092340
25756	9.700556	-1.021156	-1.027912	0.273913	-0.156882	0.159887	0.098727	0.025159	0.994796	0.603946	-0.796031	-0.039806	0.790887	0.604733	-0.093784
25757	9.866887	-0.138930	-0.715268	0.262592	-0.155466	0.166734	0.100942	0.024808	0.994583	0.605838	-0.794496	-0.041670	0.789159	0.606762	-0.095228
25758	9.833647	-0.097663	-1.262085	0.139051	-0.145917	0.181722	0.103161	0.024276	0.994368	0.606734	-0.793710	-0.043568	0.788183	0.607811	-0.096609
25759	10.108418	0.493056	-1.136881	0.147217	-0.149357	0.207697	0.105577	0.023571	0.994132	0.607660	-0.792879	-0.045734	0.787149	0.608923	-0.098033
25760	9.700959	-0.243586	-1.572102	0.053487	-0.127998	0.217851	0.107875	0.022649	0.993906	0.607833	-0.792618	-0.047910	0.786703	0.609298	-0.099270
25761	9.939249	-0.197821	-1.443440	0.248632	-0.139011	0.224465	0.110311	0.021754	0.993659	0.609526	-0.791166	-0.050345	0.785054	0.611214	-0.100534
25762	10.213511	0.114074	-1.106583	0.253325	-0.128591	0.241910	0.112763	0.020654	0.993407	0.611228	-0.789681	-0.052963	0.783381	0.613170	-0.101671
25763	9.877423	-0.424674	-1.115108	0.233965	-0.120995	0.252297	0.115231	0.019442	0.993148	0.612755	-0.788310	-0.055664	0.781827	0.614971	-0.102751
25764	9.921198	-0.562237	-0.969627	0.301962	-0.136381	0.259598	0.117856	0.018263	0.992863	0.614796	-0.786513	-0.058511	0.779831	0.617304	-0.103923
25765	10.111366	-0.255568	-0.661791	0.326850	-0.145461	0.274301	0.120655	0.017043	0.992548	0.616998	-0.784556	-0.061532	0.777660	0.619824	-0.105176
25766	10.010374	-0.096110	-0.591615	0.294276	-0.150977	0.288247	0.123575	0.015746	0.992210	0.618917	-0.782790	-0.064661	0.775674	0.622086	-0.106479
25767	9.958539	0.185396	-0.373981	0.238068	-0.160148	0.296469	0.126629	0.014460	0.991845	0.620375	-0.781368	-0.067812	0.774015	0.623903	-0.107914
25768	9.779003	0.098214	-0.421670	0.122558	-0.158737	0.310427	0.129750	0.013050	0.991461	0.620912	-0.780660	-0.070981	0.773068	0.624819	-0.109394
25769	9.592490	-0.058371	-0.344792	0.037088	-0.162529	0.314517	0.132933	0.011646	0.991057	0.620769	-0.780484	-0.074094	0.772641	0.625067	-0.110982
25770	9.382548	-0.397287	-0.387439	-0.011737	-0.183042	0.322113	0.136312	0.010300	0.990612	0.620231	-0.780608	-0.077230	0.772484	0.624936	-0.112795
25771	9.261560	-0.647555	-0.209421	-0.041067	-0.216860	0.323664	0.139967	0.009163	0.990114	0.619451	-0.780913	-0.080342	0.772457	0.624572	-0.114978
25772	9.225618	-0.851633	0.043056	-0.054315	-0.265535	0.315328	0.143936	0.008382	0.989551	0.618571	-0.781295	-0.083357	0.772433	0.624106	-0.117642
25773	9.203546	-1.068595	0.413332	-0.039149	-0.330021	0.308473	0.148364	0.008064	0.988900	0.617803	-0.781581	-0.086315	0.772210	0.623751	-0.120941
25774	9.172675	-1.057083	0.881106	0.002036	-0.412308	0.289765	0.153303	0.008395	0.988144	0.617369	-0.781607	-0.089139	0.771592	0.623714	-0.125005
25775	9.207205	-0.978223	1.467300	0.027903	-0.513826	0.274981	0.158932	0.009483	0.987244	0.617139	-0.781476	-0.091844	0.770636	0.623864	-0.130054
25776	9.345167	-0.955454	1.913659	0.041004	-0.625596	0.260792	0.165325	0.011373	0.986174	0.617019	-0.781262	-0.094429	0.769386	0.624100	-0.136180
25777	9.647141	-0.858925	2.423149	-0.059759	-0.727886	0.219411	0.172242	0.014228	0.984952	0.616176	-0.781679	-0.096461	0.768544	0.623518	-0.143405
25778	9.942589	-0.732990	2.223879	-0.343982	-0.806626	0.187175	0.179562	0.017806	0.983586	0.613190	-0.783864	-0.097753	0.769257	0.620677	-0.151670
25779	9.855836	-0.883208	1.527181	-0.504186	-0.902826	0.160509	0.187457	0.022156	0.982023	0.609002	-0.787030	-0.098495	0.770699	0.616517	-0.161027
25780	10.100678	-1.301044	0.722370	-0.565602	-1.011980	0.116185	0.195936	0.027479	0.980232	0.604404	-0.790546	-0.098651	0.772208	0.611785	-0.171505
25781	10.441822	-1.380597	-0.295364	-0.464857	-1.061762	0.089635	0.204640	0.033268	0.978272	0.600623	-0.793422	-0.098660	0.772900	0.607762	-0.182347
25782	10.373498	-1.209556	-0.746406	-0.376277	-1.091665	0.047244	0.213327	0.039533	0.976181	0.597605	-0.795733	-0.098371	0.772890	0.604356	-0.193377
25783	10.442366	-1.274479	-1.652101	-0.304248	-1.136080	0.006689	0.222102	0.046351	0.973921	0.595231	-0.797583	-0.097783	0.772250	0.601426	-0.204735
25784	10.624781	-1.458312	-2.167788	-0.291986	-1.145983	0.002105	0.230927	0.053235	0.971514	0.592963	-0.799348	-0.097145	0.771406	0.598505	-0.216158
25785	11.102466	-1.418879	-2.594638	-0.303707	-1.068243	-0.019050	0.239011	0.059787	0.969174	0.590657	-0.801163	-0.096241	0.770712	0.595453	-0.226800
25786	10.406850	-1.315450	-3.440743	-0.329997	-0.961707	-0.039181	0.246158	0.065838	0.966991	0.588200	-0.803110	-0.095053	0.770342	0.592182	-0.236418
25787	10.055311	-0.904866	-4.505409	-0.261267	-0.901251	-0.100139	0.252469	0.071990	0.964923	0.586430	-0.804596	-0.093409	0.769649	0.589443	-0.245352
25788	9.971538	-0.803148	-5.147579	-0.199515	-0.801859	-0.156445	0.257688	0.077992	0.963075	0.585286	-0.805664	-0.091359	0.768790	0.587216	-0.253258
25789	9.796395	-0.764963	-5.369943	-0.051317	-0.677473	-0.186151	0.261763	0.083490	0.961514	0.585368	-0.805825	-0.089389	0.767349	0.586239	-0.259807
25790	9.740798	-0.398745	-5.056492	0.092581	-0.490770	-0.217903	0.264215	0.088149	0.960427	0.586643	-0.805106	-0.087493	0.765533	0.586544	-0.264433
25791	9.361092	-0.047894	-4.606338	0.083859	-0.258482	-0.223682	0.264839	0.091491	0.959942	0.587867	-0.804425	-0.085518	0.764377	0.586967	-0.266828
25792	8.760200	-0.542039	-4.810433	-0.006850	-0.003055	-0.240406	0.263417	0.093468	0.960143	0.588441	-0.804254	-0.083147	0.764427	0.586890	-0.266854
25793	8.475221	-1.402063	-5.142300	0.114627	0.222242	-0.275820	0.260057	0.094408	0.960967	0.590031	-0.803332	-0.080753	0.764352	0.588000	-0.264616
25794	8.242161	-1.884550	-5.162572	0.402330	0.440709	-0.303936	0.254860	0.094271	0.962372	0.593877	-0.800683	-0.078841	0.763123	0.591624	-0.260048
25795	8.122427	-1.926329	-5.039096	0.718789	0.638699	-0.339299	0.247936	0.093210	0.964282	0.600198	-0.796101	-0.077370	0.760454	0.597943	-0.253326
25796	7.901503	-1.705953	-4.792761	0.993969	0.817648	-0.370311	0.239463	0.091247	0.966608	0.608630	-0.789784	-0.076224	0.756457	0.606560	-0.244660
25797	7.477103	-1.685567	-4.764654	1.178318	0.962648	-0.407053	0.229678	0.088588	0.969227	0.618459	-0.782224	-0.075061	0.751503	0.616667	-0.234447
25798	7.200569	-1.291666	-4.724103	1.400769	1.082332	-0.431497	0.218851	0.085229	0.972029	0.629900	-0.773140	-0.074031	0.745205	0.628483	-0.222888
25799	7.196809	-0.807447	-4.858169	1.448234	1.197886	-0.420819	0.207258	0.080894	0.974936	0.641523	-0.763621	-0.073019	0.738575	0.640577	-0.210162
25800	7.347952	-0.833703	-5.277408	1.454579	1.290089	-0.392071	0.195201	0.075550	0.977849	0.652996	-0.753922	-0.072104	0.731774	0.652606	-0.196500
25801	7.495474	-0.568988	-5.011406	1.541359	1.360407	-0.349537	0.182974	0.069235	0.980677	0.664867	-0.743526	-0.071558	0.724204	0.665113	-0.182078
25802	7.994878	0.705806	-4.344855	1.520890	1.381499	-0.280656	0.171105	0.062057	0.983297	0.676309	-0.733148	-0.071416	0.716470	0.677232	-0.167415
25803	11.341315	2.090008	-0.686126	1.273024	1.285823	-0.139525	0.160965	0.054340	0.985463	0.685604	-0.724401	-0.072042	0.709955	0.687234	-0.153859
25804	7.795375	2.418372	-2.975277	-0.449129	1.052345	0.277563	0.155331	0.045128	0.986831	0.681955	-0.727634	-0.074067	0.714710	0.684479	-0.143800
25805	8.056442	0.647389	-3.393886	-1.499208	0.600878	0.500005	0.154362	0.037424	0.987305	0.670366	-0.738042	-0.076834	0.725798	0.673716	-0.139013
25806	10.032053	-3.584647	-2.275414	-1.307108	0.355916	0.358577	0.154113	0.032403	0.987522	0.660253	-0.746926	-0.078531	0.735061	0.664117	-0.136505
25807	10.474814	-4.903104	-1.336849	-0.773542	0.298761	0.159890	0.152943	0.029269	0.987802	0.654285	-0.752109	-0.079018	0.740621	0.658389	-0.134180
25808	10.920679	-5.952087	-0.812899	-0.467295	0.217266	0.065887	0.151725	0.027369	0.988044	0.650703	-0.755211	-0.079004	0.744019	0.654910	-0.132393
25809	11.182533	-5.439276	-0.146572	-0.119084	0.311194	0.092701	0.149998	0.024667	0.988379	0.649662	-0.756031	-0.079725	0.745278	0.654071	-0.129428
25810	11.274789	-3.053773	1.787133	0.031686	0.459316	0.130330	0.147386	0.020700	0.988862	0.649692	-0.755869	-0.081011	0.745773	0.654396	-0.124853
25811	10.373184	-1.712300	1.724042	0.149094	0.559264	0.093891	0.143813	0.016358	0.989470	0.650654	-0.754925	-0.082088	0.745632	0.655607	-0.119211
25812	9.274724	-0.437300	0.393676	0.550165	0.469699	-0.022367	0.140137	0.013460	0.990041	0.654767	-0.751319	-0.082466	0.742726	0.659802	-0.114100
25813	9.066721	0.910363	-0.671645	0.668785	0.347728	-0.077765	0.137034	0.011766	0.990496	0.659815	-0.746895	-0.082412	0.738827	0.664838	-0.110114
25814	9.179338	2.017368	-0.949285	0.282970	0.243706	-0.086311	0.134630	0.010810	0.990837	0.662008	-0.745017	-0.081822	0.737306	0.666958	-0.107458
25815	9.687314	1.198316	-1.507308	-0.372235	0.174460	-0.018591	0.133201	0.009817	0.991040	0.659269	-0.747509	-0.081204	0.740015	0.664179	-0.106041
25816	10.057843	-1.639465	-2.271151	-0.495721	0.155952	0.020410	0.132143	0.008654	0.991193	0.655552	-0.750811	-0.080842	0.743498	0.660461	-0.104887
25817	9.816897	-1.824596	-2.611182	-0.103452	0.212745	0.017172	0.130655	0.007151	0.991402	0.654745	-0.751511	-0.080867	0.744472	0.659681	-0.102871
25818	9.819530	0.828164	-0.884375	-0.152992	0.230224	-0.000203	0.128904	0.005658	0.991641	0.653592	-0.752536	-0.080667	0.745789	0.658527	-0.100702
25819	9.645055	-0.696834	-1.776672	-0.536582	0.222486	0.013389	0.127310	0.004128	0.991854	0.649548	-0.756076	-0.080227	0.749586	0.654471	-0.098937
25820	9.647524	-1.619941	-2.021046	-0.278538	0.208281	0.003232	0.125733	0.002765	0.992060	0.647440	-0.757912	-0.079943	0.751673	0.652351	-0.097085
25821	9.730133	-0.937098	-1.812680	-0.195050	0.226371	-0.012262	0.123935	0.001416	0.992289	0.645973	-0.759199	-0.079597	0.753233	0.650857	-0.095006
25822	9.687638	-1.501800	-1.915752	-0.120465	0.245255	-0.018752	0.121930	-0.000014	0.992539	0.645074	-0.759999	-0.079256	0.754329	0.649924	-0.092658
25823	9.415777	-1.770531	-1.581317	0.018774	0.236446	-0.031802	0.119927	-0.001276	0.992782	0.645239	-0.759894	-0.078921	0.754510	0.650046	-0.090308
25824	9.541444	-1.873078	-1.296839	0.198561	0.207530	-0.050208	0.118003	-0.002223	0.993011	0.646782	-0.758619	-0.078557	0.753491	0.651531	-0.088082
25825	9.901832	-1.227482	-0.617082	0.319703	0.173298	-0.054778	0.116330	-0.002907	0.993206	0.649237	-0.756550	-0.078257	0.751638	0.653930	-0.086123
25826	10.168639	-0.753030	0.414495	0.284534	0.149760	-0.039674	0.114913	-0.003565	0.993369	0.651405	-0.754704	-0.078063	0.749978	0.656056	-0.084403
25827	10.168818	-0.509536	0.798198	0.245147	0.146102	-0.036537	0.113566	-0.004218	0.993522	0.653268	-0.753112	-0.077870	0.748561	0.657879	-0.082772
25828	9.986977	-0.011211	0.588661	0.143677	0.132124	-0.029645	0.112349	-0.004843	0.993657	0.654362	-0.752184	-0.077652	0.747789	0.658936	-0.081338
25829	9.663713	-0.128778	-0.036321	0.204049	0.113695	-0.045693	0.111183	-0.005219	0.993786	0.655923	-0.750857	-0.077327	0.746595	0.660444	-0.080059
25830	9.682962	0.351234	-0.082000	0.213870	0.080075	-0.050067	0.110222	-0.005351	0.993893	0.657559	-0.749462	-0.076958	0.745296	0.662026	-0.079089
25831	9.692494	-0.085004	-0.374468	-0.010380	0.086949	-0.041128	0.109285	-0.005588	0.993995	0.657512	-0.749550	-0.076504	0.745476	0.661924	-0.078241
25832	9.415172	-0.866642	-0.449847	-0.069423	0.068999	-0.019667	0.108607	-0.005875	0.994067	0.657001	-0.750027	-0.076213	0.746025	0.661381	-0.077598
25833	9.454560	-0.427006	-0.278081	-0.058910	0.042115	-0.012661	0.108190	-0.006028	0.994112	0.656560	-0.750435	-0.076005	0.746474	0.660917	-0.077232
25834	9.569330	-0.182619	-0.321678	-0.239602	0.033864	-0.001492	0.107892	-0.006218	0.994143	0.654757	-0.752033	-0.075763	0.748099	0.659096	-0.077067
25835	9.597827	-0.565145	-0.879360	-0.289139	0.024161	0.001884	0.107704	-0.006361	0.994163	0.652574	-0.753952	-0.075522	0.750031	0.656899	-0.077052
25836	9.546738	-0.526038	-0.916373	-0.236525	0.010897	-0.001934	0.107575	-0.006395	0.994176	0.650786	-0.755520	-0.075278	0.751602	0.655094	-0.077113
25837	9.759130	-0.486789	-1.092974	-0.247304	0.009506	-0.006625	0.107440	-0.006377	0.994191	0.648917	-0.757155	-0.074984	0.753235	0.653204	-0.077211
25838	9.741005	-0.492572	-0.946714	-0.330848	0.044517	0.000622	0.107074	-0.006649	0.994229	0.646406	-0.759328	-0.074693	0.755443	0.650674	-0.077006
25839	9.469753	-0.660694	-0.932188	-0.378589	0.055676	0.013359	0.106719	-0.007081	0.994264	0.643512	-0.761802	-0.074497	0.757960	0.647771	-0.076742
25840	9.587124	-0.970608	-0.534952	-0.311239	0.018842	0.018537	0.106661	-0.007321	0.994269	0.641115	-0.763830	-0.074400	0.759997	0.645376	-0.076777
25841	9.705584	-0.901339	-0.015249	-0.283928	-0.008923	0.014567	0.106802	-0.007344	0.994253	0.638923	-0.765675	-0.074288	0.761821	0.643185	-0.077084
25842	9.537575	-0.911760	0.269452	-0.248402	-0.060673	0.009462	0.107291	-0.007003	0.994203	0.637004	-0.767286	-0.074148	0.763357	0.641267	-0.077862
25843	9.528574	-0.918461	0.331312	-0.194593	-0.118792	-0.000569	0.108174	-0.006208	0.994113	0.635503	-0.768549	-0.073951	0.764483	0.639761	-0.079192
25844	9.761314	-0.777035	0.282933	-0.113548	-0.162585	-0.007295	0.109337	-0.005089	0.993992	0.634628	-0.769291	-0.073746	0.765044	0.638878	-0.080883
25845	9.990636	-0.528511	-0.244514	-0.130648	-0.156834	-0.009320	0.110457	-0.003986	0.993873	0.633623	-0.770142	-0.073509	0.765716	0.637860	-0.082542
25846	9.756552	-0.667621	-1.180589	-0.148914	-0.141582	-0.005569	0.111473	-0.003017	0.993763	0.632474	-0.771107	-0.073287	0.766518	0.636699	-0.084049
25847	9.701242	-0.883235	-1.943640	-0.111579	-0.135017	-0.011628	0.112413	-0.002039	0.993660	0.631616	-0.771833	-0.073039	0.767088	0.635822	-0.085476
25848	9.628601	-0.999340	-2.246095	-0.063761	-0.107029	-0.007378	0.113153	-0.001278	0.993577	0.631121	-0.772254	-0.072869	0.767387	0.635312	-0.086576
25849	9.929113	-0.770952	-2.085195	-0.017375	-0.083623	0.001192	0.113782	-0.000726	0.993505	0.630971	-0.772381	-0.072827	0.767418	0.635159	-0.087425
25850	9.954297	-0.457600	-1.766030	-0.092145	-0.047363	0.015693	0.114211	-0.000523	0.993456	0.630231	-0.772982	-0.072860	0.767962	0.634428	-0.087953
25851	9.805532	-0.731353	-1.663432	-0.159864	-0.024076	0.020648	0.114506	-0.000499	0.993422	0.628963	-0.774011	-0.072886	0.768956	0.633172	-0.088315
25852	9.746373	-0.958924	-1.389139	-0.130270	-0.014903	0.019074	0.114707	-0.000529	0.993399	0.627925	-0.774851	-0.072918	0.769775	0.632144	-0.088549
25853	9.724567	-0.957058	-1.056544	-0.074151	-0.013218	0.014283	0.114879	-0.000524	0.993379	0.627322	-0.775335	-0.072956	0.770240	0.631550	-0.088741
25854	9.677039	-0.762808	-0.413174	-0.079709	-0.014321	0.002456	0.114971	-0.000429	0.993369	0.626690	-0.775854	-0.072867	0.770741	0.630912	-0.088932
25855	9.493739	-0.529137	-0.217548	-0.194157	0.000522	0.001810	0.114960	-0.000415	0.993370	0.625175	-0.777094	-0.072674	0.771972	0.629385	-0.089075
25856	9.332309	-0.684747	-0.236991	-0.251484	-0.024715	0.001130	0.115124	-0.000244	0.993351	0.623216	-0.778690	-0.072419	0.773530	0.627409	-0.089493
25857	9.410585	-1.204294	-0.144916	-0.186988	-0.092866	-0.006574	0.115782	0.000420	0.993275	0.621761	-0.779877	-0.072147	0.774602	0.625932	-0.090557
25858	9.597674	-0.959640	0.035410	-0.085707	-0.152061	-0.014827	0.116835	0.001511	0.993150	0.621099	-0.780429	-0.071879	0.774974	0.625243	-0.092120
25859	9.888579	-0.246653	-0.075836	-0.083028	-0.179838	-0.025799	0.118048	0.002866	0.993004	0.620470	-0.780963	-0.071507	0.775294	0.624571	-0.093970
25860	9.993971	-0.367334	-0.522335	-0.161189	-0.180906	-0.023714	0.119271	0.004205	0.992853	0.619234	-0.781983	-0.071077	0.776096	0.623285	-0.095872
25861	10.027422	-0.527607	-1.252862	-0.161933	-0.173566	-0.028417	0.120422	0.005538	0.992707	0.617995	-0.783006	-0.070599	0.776905	0.621990	-0.097713
25862	10.038852	-0.563218	-1.972483	-0.088557	-0.163293	-0.034941	0.121441	0.006851	0.992575	0.617335	-0.783569	-0.070123	0.777271	0.621267	-0.099387
25863	9.959650	-0.471202	-2.242317	-0.054258	-0.140469	-0.028971	0.122334	0.007981	0.992457	0.616934	-0.783919	-0.069742	0.777449	0.620812	-0.100823
25864	9.603386	-0.558298	-2.203519	-0.029319	-0.120708	-0.028232	0.123064	0.008976	0.992358	0.616726	-0.784113	-0.069389	0.777498	0.620553	-0.102032
25865	9.550241	-0.683151	-1.846277	-0.019629	-0.100820	-0.023819	0.123682	0.009820	0.992273	0.616588	-0.784248	-0.069094	0.777510	0.620370	-0.103052
25866	9.711880	-0.753267	-1.385019	-0.065566	-0.073379	-0.023270	0.124075	0.010482	0.992217	0.616093	-0.784667	-0.068752	0.777840	0.619829	-0.103815
25867	9.770895	-0.862662	-1.051717	-0.114745	-0.044928	-0.023900	0.124259	0.010980	0.992189	0.615213	-0.785392	-0.068356	0.778507	0.618902	-0.104347
25868	9.774411	-1.037558	-0.845679	-0.155472	-0.045290	-0.034200	0.124368	0.011553	0.992169	0.614030	-0.786364	-0.067812	0.779423	0.617655	-0.104893
25869	9.708648	-1.251812	-0.701899	-0.176060	-0.057700	-0.041707	0.124543	0.012269	0.992138	0.612694	-0.787460	-0.067174	0.780445	0.616243	-0.105590
25870	9.549852	-1.497325	-0.540393	-0.128589	-0.082557	-0.057044	0.124805	0.013251	0.992093	0.611747	-0.788260	-0.066429	0.781146	0.615200	-0.106485
25871	9.403303	-1.473536	-0.374655	-0.059343	-0.113844	-0.059775	0.125310	0.014454	0.992012	0.611343	-0.788631	-0.065734	0.781382	0.614696	-0.107659
25872	9.419508	-1.262733	-0.107747	0.012325	-0.145319	-0.059704	0.126047	0.015842	0.991898	0.611499	-0.788561	-0.065112	0.781141	0.614752	-0.109083
25873	9.586914	-0.860289	-0.053437	0.060976	-0.163280	-0.071507	0.126865	0.017440	0.991767	0.612052	-0.788188	-0.064433	0.780575	0.615187	-0.110668
25874	9.822670	-0.522932	-0.518781	-0.002792	-0.143268	-0.075302	0.127489	0.018939	0.991659	0.612112	-0.788206	-0.063640	0.780427	0.615119	-0.112081
25875	9.543385	-0.644879	-1.040625	-0.016496	-0.110200	-0.077324	0.127856	0.020255	0.991586	0.612068	-0.788306	-0.062818	0.780401	0.614949	-0.113187
25876	9.362008	-0.483715	-1.338526	0.010031	-0.105741	-0.086864	0.128116	0.021615	0.991524	0.612243	-0.788241	-0.061925	0.780221	0.614987	-0.114220
25877	9.271087	-0.310243	-1.552214	-0.032755	-0.107796	-0.083413	0.128426	0.022964	0.991453	0.612080	-0.788438	-0.061023	0.780298	0.614686	-0.115312
25878	9.320201	-0.581174	-1.712840	-0.072650	-0.118665	-0.081515	0.128820	0.024361	0.991369	0.611604	-0.788879	-0.060088	0.780606	0.614065	-0.116522
25879	9.623135	-0.902962	-1.709012	-0.029239	-0.108625	-0.085034	0.129128	0.025728	0.991294	0.611471	-0.789051	-0.059173	0.780659	0.613789	-0.117620
25880	9.910436	-0.578791	-1.402617	-0.064587	-0.080353	-0.074319	0.129268	0.026832	0.991247	0.611049	-0.789442	-0.058317	0.780967	0.613238	-0.118445
25881	9.911474	-0.633123	-1.359462	-0.164097	-0.053937	-0.074279	0.129216	0.027779	0.991227	0.609851	-0.790439	-0.057348	0.781911	0.611911	-0.119079
25882	9.767646	-0.586647	-1.291503	-0.249109	-0.040949	-0.075771	0.129042	0.028653	0.991225	0.607985	-0.791953	-0.056257	0.783392	0.609909	-0.119616
25883	9.582622	-0.232199	-1.380207	-0.323118	-0.062314	-0.082215	0.129013	0.029714	0.991198	0.605542	-0.793909	-0.055017	0.785286	0.607310	-0.120418
25884	9.504309	-0.455875	-1.449631	-0.315938	-0.113792	-0.094330	0.129304	0.031179	0.991115	0.603166	-0.795809	-0.053656	0.787065	0.604745	-0.121707
25885	9.598032	-1.320944	-1.408460	-0.252593	-0.130154	-0.116575	0.129609	0.032923	0.991018	0.601314	-0.797309	-0.052154	0.788430	0.602673	-0.123135
25886	9.571557	-1.906922	-1.352785	-0.034395	-0.126164	-0.119647	0.129851	0.034663	0.990927	0.601184	-0.797489	-0.050883	0.788490	0.602337	-0.124393
25887	9.487561	-1.579690	-0.869803	0.139672	-0.124549	-0.129024	0.130038	0.036471	0.990838	0.602438	-0.796615	-0.049742	0.787502	0.603386	-0.125561
25888	9.441435	-1.418865	-0.626359	0.214044	-0.145871	-0.143276	0.130288	0.038518	0.990728	0.604294	-0.795281	-0.048550	0.786037	0.605016	-0.126891
25889	9.483181	-1.147834	-0.750459	0.334976	-0.167728	-0.143734	0.130715	0.040704	0.990584	0.607095	-0.793207	-0.047517	0.783804	0.607590	-0.128396
25890	9.695045	-0.200178	-0.611447	0.336329	-0.188224	-0.140508	0.131300	0.042988	0.990410	0.609897	-0.791114	-0.046517	0.781528	0.610156	-0.130092
25891	9.902583	-0.297993	-1.192240	0.135857	-0.163525	-0.129735	0.131766	0.045039	0.990257	0.611118	-0.790238	-0.045375	0.780495	0.611143	-0.131651
25892	9.511928	-1.202730	-1.931530	0.097836	-0.125682	-0.135302	0.131886	0.046901	0.990155	0.612045	-0.789591	-0.044121	0.779748	0.611839	-0.132841
25893	9.185356	-1.866236	-2.303493	0.218518	-0.109384	-0.148649	0.131808	0.048771	0.990075	0.613932	-0.788192	-0.042906	0.778276	0.613494	-0.133832
25894	9.191718	-1.515877	-2.162265	0.421519	-0.107701	-0.150276	0.131686	0.050640	0.989997	0.617391	-0.785538	-0.041941	0.775556	0.616738	-0.134709
25895	9.493471	-0.804746	-1.700624	0.515278	-0.116376	-0.151382	0.131632	0.052573	0.989904	0.621567	-0.782282	-0.041106	0.772222	0.620702	-0.135651
25896	9.778437	0.078241	-0.961395	0.529168	-0.138645	-0.148650	0.131739	0.054621	0.989778	0.625826	-0.778920	-0.040312	0.768756	0.624740	-0.136797
25897	9.915851	0.895492	-0.380750	0.446179	-0.139963	-0.144528	0.131888	0.056647	0.989645	0.629430	-0.776055	-0.039462	0.765783	0.628117	-0.138007
25898	9.717517	1.060128	-0.084653	0.276666	-0.130790	-0.127850	0.132048	0.058485	0.989516	0.631701	-0.774254	-0.038537	0.763883	0.630167	-0.139184
25899	9.452579	0.934550	-0.359849	0.253241	-0.164918	-0.130670	0.132459	0.060561	0.989337	0.633793	-0.772590	-0.037563	0.762077	0.632010	-0.140720
25900	9.682662	1.404270	-0.210969	0.206261	-0.207940	-0.149343	0.133060	0.063053	0.989100	0.635548	-0.771206	-0.036335	0.760509	0.633455	-0.142690
25901	9.309717	0.104981	-0.703389	-0.001653	-0.207584	-0.135809	0.133752	0.065441	0.988852	0.635706	-0.771140	-0.034952	0.760256	0.633294	-0.144743
25902	9.450912	-0.740998	-1.101675	0.057524	-0.244076	-0.133375	0.134725	0.068039	0.988544	0.636309	-0.770699	-0.033674	0.759579	0.633556	-0.147126
25903	9.635317	-0.312696	-1.038825	0.079988	-0.268099	-0.129993	0.135909	0.070765	0.988191	0.637082	-0.770112	-0.032471	0.758719	0.633972	-0.149748
25904	9.632173	0.059138	-1.164301	-0.110914	-0.262044	-0.115212	0.137130	0.073337	0.987835	0.636385	-0.770744	-0.031122	0.759085	0.632910	-0.152362
25905	9.472687	-0.166116	-1.537674	-0.317101	-0.279463	-0.109902	0.138532	0.075975	0.987439	0.634115	-0.772675	-0.029511	0.760728	0.630238	-0.155217
25906	9.588917	-1.075581	-2.004966	-0.251980	-0.310391	-0.110610	0.140160	0.078808	0.986988	0.632337	-0.774188	-0.027981	0.761908	0.628031	-0.158343
25907	9.923004	-0.099468	-1.475389	-0.045254	-0.315735	-0.133678	0.141697	0.081850	0.986520	0.632171	-0.774374	-0.026552	0.761762	0.627412	-0.161469
25908	9.956149	0.066447	-1.629313	-0.204361	-0.296051	-0.137265	0.143052	0.084792	0.986076	0.630796	-0.775552	-0.024822	0.762648	0.625564	-0.164431
25909	9.818470	-0.643199	-1.847545	-0.145676	-0.298707	-0.136836	0.144445	0.087746	0.985615	0.629874	-0.776351	-0.023194	0.763148	0.624163	-0.167409
25910	9.785389	-0.615389	-1.754845	-0.060249	-0.305760	-0.135667	0.145890	0.090731	0.985132	0.629598	-0.776618	-0.021711	0.763100	0.623404	-0.170425
25911	10.054236	-0.509959	-1.965434	0.040078	-0.326125	-0.131458	0.147525	0.093810	0.984599	0.630086	-0.776256	-0.020448	0.762383	0.623399	-0.173626
25912	10.057933	0.043179	-2.108294	0.090984	-0.313708	-0.112587	0.149172	0.096664	0.984075	0.630933	-0.775593	-0.019455	0.761361	0.623788	-0.176685
25913	9.823456	0.326787	-2.550931	0.091460	-0.293303	-0.096467	0.150771	0.099268	0.983572	0.631762	-0.774938	-0.018631	0.760358	0.624192	-0.179552
25914	9.814234	0.473426	-2.941494	0.104518	-0.264974	-0.079219	0.152250	0.101560	0.983110	0.632663	-0.774218	-0.017997	0.759313	0.624718	-0.182128
25915	9.687292	0.441017	-3.118726	0.145348	-0.228580	-0.062691	0.153564	0.103501	0.982703	0.633850	-0.773256	-0.017608	0.758059	0.625590	-0.184348
25916	9.575241	0.529316	-3.214942	0.158284	-0.192309	-0.045022	0.154701	0.105077	0.982358	0.635105	-0.772229	-0.017415	0.756775	0.626595	-0.186199
25917	9.670410	0.536371	-2.879636	0.214976	-0.167581	-0.021977	0.155805	0.106326	0.982049	0.636755	-0.770866	-0.017562	0.755161	0.628061	-0.187808
25918	9.694668	0.440949	-2.502469	0.139146	-0.131631	-0.003457	0.156743	0.107203	0.981804	0.637798	-0.769999	-0.017746	0.754086	0.628974	-0.189066
25919	9.723761	0.140357	-2.287223	0.074075	-0.115071	0.015972	0.157690	0.107834	0.981583	0.638316	-0.769563	-0.018003	0.753449	0.629400	-0.190185
25920	9.528331	-0.543747	-2.089100	0.030164	-0.106629	0.021185	0.158594	0.108366	0.981379	0.638498	-0.769408	-0.018224	0.753106	0.629499	-0.191215
25921	9.364668	-1.141794	-1.849617	0.123221	-0.124075	0.023921	0.159659	0.108993	0.981137	0.639376	-0.768668	-0.018655	0.752135	0.630294	-0.192413
25922	9.331756	-0.827556	-1.295149	0.269862	-0.162243	0.020027	0.160972	0.109887	0.980823	0.641359	-0.766997	-0.019328	0.750164	0.632171	-0.193942
25923	9.411803	-0.222165	-0.582486	0.291543	-0.205582	0.024931	0.162651	0.111027	0.980417	0.643490	-0.765190	-0.020101	0.747974	0.634159	-0.195903
25924	9.158008	-0.370940	-0.231865	0.275269	-0.259414	0.025060	0.164716	0.112506	0.979904	0.645493	-0.763481	-0.020845	0.745793	0.635955	-0.198379
25925	9.082815	-0.109896	0.129144	0.322108	-0.336216	0.031008	0.167397	0.114439	0.979225	0.647828	-0.761476	-0.021754	0.743167	0.638012	-0.201605
25926	9.341283	0.521037	0.254289	0.298796	-0.409295	0.050946	0.170729	0.116689	0.978384	0.649947	-0.759637	-0.022817	0.740554	0.639794	-0.205534
25927	9.495690	0.662836	0.106896	0.221106	-0.460163	0.063736	0.174521	0.119178	0.977414	0.651462	-0.758306	-0.023859	0.738336	0.640912	-0.209981
25928	9.583382	0.589711	-0.753245	0.156169	-0.499967	0.064234	0.178592	0.121920	0.976340	0.652488	-0.757394	-0.024774	0.736453	0.641475	-0.214816
25929	9.579585	0.623680	-1.688608	0.112482	-0.507026	0.088806	0.182875	0.124526	0.975218	0.653144	-0.756792	-0.025843	0.734819	0.641684	-0.219732
25930	9.278367	0.032048	-2.462892	0.097898	-0.525004	0.098619	0.187338	0.127172	0.974029	0.653670	-0.756299	-0.026977	0.733226	0.641747	-0.224812
25931	9.626510	-0.220087	-3.255342	0.228472	-0.528746	0.105516	0.191871	0.129796	0.972799	0.655131	-0.754978	-0.028482	0.730745	0.642776	-0.229892
25932	9.891147	0.294685	-3.648023	0.261460	-0.493264	0.125398	0.196257	0.132048	0.971621	0.656785	-0.753471	-0.030263	0.728091	0.644085	-0.234601
25933	9.778583	0.097299	-3.628889	0.231138	-0.458753	0.150711	0.200555	0.133897	0.970489	0.658156	-0.752192	-0.032231	0.725678	0.645197	-0.238981
25934	9.689869	-0.496780	-3.229036	0.213552	-0.442331	0.162312	0.204794	0.135556	0.969373	0.659364	-0.751042	-0.034276	0.723394	0.646189	-0.243190
25935	9.574933	-1.305742	-2.884317	0.184835	-0.432870	0.172784	0.209035	0.137085	0.968252	0.660332	-0.750093	-0.036360	0.721295	0.646968	-0.247317
25936	9.299543	-2.272277	-2.779447	0.377543	-0.465306	0.169886	0.213472	0.138851	0.967032	0.662680	-0.747892	-0.038901	0.717834	0.649137	-0.251668
25937	9.183843	-1.594635	-1.509735	0.662737	-0.517291	0.146225	0.218118	0.141155	0.965660	0.667094	-0.743791	-0.041956	0.712327	0.653338	-0.256398
25938	9.258323	-0.018293	-0.209095	0.685497	-0.577977	0.136849	0.223099	0.143951	0.964108	0.671647	-0.739503	-0.045007	0.706483	0.657581	-0.261667
25939	9.158391	0.551729	0.806419	0.414822	-0.639340	0.143160	0.228539	0.147129	0.962353	0.674237	-0.736990	-0.047443	0.702264	0.659696	-0.267631
25940	8.971081	0.455085	1.006229	0.272080	-0.741320	0.143362	0.234665	0.150990	0.960278	0.675803	-0.735418	-0.049513	0.698730	0.660578	-0.274616
25941	9.382206	0.689619	1.209497	0.192053	-0.855902	0.151574	0.241626	0.155552	0.957821	0.676773	-0.734391	-0.051460	0.695410	0.660661	-0.282721
25942	9.818555	1.041435	0.873654	0.174712	-0.949568	0.158978	0.249254	0.160680	0.955015	0.677587	-0.733498	-0.053437	0.691916	0.660426	-0.291702
25943	10.103239	1.349853	0.600226	0.056421	-1.031559	0.175386	0.257530	0.166220	0.951866	0.677526	-0.733422	-0.055232	0.688939	0.659138	-0.301496
25944	10.185868	0.970492	-0.155891	-0.117189	-1.096136	0.193908	0.266348	0.172029	0.948401	0.676205	-0.734531	-0.056670	0.686881	0.656408	-0.311967
25945	11.055820	1.332486	0.123880	-0.101550	-1.185507	0.209224	0.275851	0.178275	0.944523	0.674936	-0.735571	-0.058281	0.684374	0.653570	-0.323233
25946	10.963147	0.664450	0.073861	-0.551755	-1.147461	0.245843	0.285326	0.183948	0.940613	0.670463	-0.739614	-0.058738	0.684886	0.647405	-0.334362
25947	9.888157	-1.135610	-0.825568	-0.548606	-1.237967	0.248109	0.295421	0.190102	0.936263	0.665980	-0.743621	-0.059151	0.684979	0.641007	-0.346285
25948	10.371988	-1.044438	-0.704945	-0.245692	-1.375494	0.240235	0.306389	0.197122	0.931273	0.663572	-0.745663	-0.060481	0.682494	0.636498	-0.359267
25949	11.140248	0.311745	0.465249	-0.107002	-1.512107	0.225823	0.318132	0.205048	0.925606	0.662136	-0.746803	-0.062138	0.678505	0.632645	-0.373352
25950	12.021075	0.304270	1.797582	-0.353108	-1.661019	0.227974	0.330849	0.213823	0.919140	0.659002	-0.749511	-0.062849	0.675467	0.626508	-0.388885
25951	11.953782	-1.354694	1.708088	-0.490291	-1.816447	0.244558	0.344651	0.223311	0.911783	0.654869	-0.753104	-0.063090	0.672579	0.618843	-0.405797
25952	12.058714	-1.355955	2.377523	-0.483996	-1.995904	0.234347	0.359533	0.233835	0.903359	0.650795	-0.756621	-0.063162	0.668731	0.610611	-0.424209
25953	12.588116	-1.068516	2.757829	-0.497049	-2.162696	0.227111	0.375366	0.245231	0.893847	0.646649	-0.760182	-0.062997	0.664037	0.601652	-0.443925
25954	13.423470	-0.533169	2.724250	-0.726237	-2.344776	0.232280	0.392348	0.257457	0.883051	0.640949	-0.765098	-0.061713	0.659732	0.590204	-0.465202
25955	14.174516	-0.723089	2.522286	-0.884906	-2.516281	0.236270	0.410343	0.270331	0.870942	0.634186	-0.770886	-0.059520	0.655307	0.576763	-0.487768
25956	14.282455	-0.834454	1.534015	-1.090960	-2.628929	0.200939	0.428751	0.283756	0.857703	0.626216	-0.777653	-0.055761	0.651173	0.561015	-0.511112
25957	13.864934	-1.512546	-1.717789	-0.932412	-2.742097	0.107958	0.447132	0.298091	0.843335	0.619706	-0.783126	-0.051756	0.645010	0.545762	-0.534889
25958	14.037458	-0.237944	-3.127135	-0.648923	-2.731958	0.004862	0.464637	0.312806	0.828411	0.615528	-0.786640	-0.048203	0.636583	0.532307	-0.558043
25959	13.679126	-1.540883	-5.129453	-0.552438	-2.602516	-0.037681	0.480793	0.326792	0.813662	0.612221	-0.789422	-0.044705	0.627713	0.519635	-0.579617
25960	13.620741	-1.520131	-4.960935	-0.112355	-2.298179	-0.046125	0.494785	0.339027	0.800156	0.611751	-0.789847	-0.043624	0.617210	0.511081	-0.598204
25961	12.812004	-1.228348	-5.295039	0.156644	-1.957668	-0.070495	0.506264	0.349534	0.788367	0.613072	-0.788802	-0.043969	0.606497	0.505586	-0.613632
25962	12.911615	-1.717197	-3.947126	0.407351	-1.510812	-0.099778	0.514706	0.357968	0.779061	0.616037	-0.786392	-0.045663	0.596302	0.503434	-0.625282
25963	11.148976	-1.785702	-3.599191	0.527173	-0.987055	-0.205332	0.519213	0.364549	0.772996	0.620232	-0.782988	-0.047342	0.587988	0.504017	-0.632642
25964	10.032150	-2.637837	-4.324845	0.776306	-0.483540	-0.277007	0.520280	0.369184	0.770073	0.626215	-0.778041	-0.050082	0.580658	0.508287	-0.635987
25965	9.169897	-2.620224	-4.225191	1.053451	0.045783	-0.292936	0.518099	0.371213	0.770567	0.633832	-0.771550	-0.054478	0.574308	0.516635	-0.635026
25966	8.533769	-2.114821	-3.739497	1.302671	0.555525	-0.308470	0.512923	0.370703	0.774267	0.642875	-0.763595	-0.060288	0.568878	0.528680	-0.629981
25967	8.184484	-1.167631	-3.403365	1.336062	1.039829	-0.315442	0.504910	0.367519	0.781022	0.652074	-0.755264	-0.066150	0.565567	0.542684	-0.620990
25968	8.021044	-0.651123	-3.532589	1.204810	1.486791	-0.324159	0.494344	0.361802	0.790394	0.660511	-0.747456	-0.070962	0.565110	0.557144	-0.608474
25969	7.945950	-0.353852	-4.041980	1.038386	1.890367	-0.273726	0.481745	0.353157	0.801998	0.667742	-0.740608	-0.074976	0.567488	0.571647	-0.592602
25970	7.817199	0.123336	-4.235038	0.841065	2.249374	-0.210087	0.467480	0.341714	0.815288	0.673538	-0.735011	-0.078135	0.572546	0.585654	-0.573761
25971	7.834775	0.553359	-4.478884	0.552271	2.550694	-0.132224	0.451802	0.327569	0.829803	0.677343	-0.731292	-0.080111	0.580587	0.598256	-0.552276
25972	7.812797	0.737440	-4.936784	0.223660	2.809912	-0.031024	0.435089	0.310858	0.845024	0.678795	-0.729845	-0.081013	0.591553	0.608846	-0.528556
25973	7.925109	0.294095	-5.665316	-0.074389	3.026362	0.089469	0.417508	0.291631	0.860603	0.677980	-0.730566	-0.081345	0.605005	0.617434	-0.502737
25974	7.805699	-0.816908	-5.907862	-0.195883	3.215537	0.186106	0.399045	0.270315	0.876181	0.676022	-0.732310	-0.081957	0.619482	0.625022	-0.474963
25975	7.499932	-1.146141	-5.658831	-0.191332	3.363389	0.229317	0.379432	0.247470	0.891510	0.673938	-0.734104	-0.083056	0.633907	0.632337	-0.445322
25976	7.536976	-1.159192	-5.893156	-0.334992	3.488640	0.230987	0.358570	0.223631	0.906320	0.670936	-0.736783	-0.083646	0.649055	0.638076	-0.414230
25977	7.620588	-2.230264	-6.607849	-0.428264	3.612412	0.214400	0.336196	0.198898	0.920550	0.667384	-0.739978	-0.083854	0.664508	0.642551	-0.381519
25978	7.750849	-3.132220	-7.377776	-0.202546	3.706026	0.177638	0.312468	0.173689	0.933914	0.665444	-0.741624	-0.084717	0.677899	0.647939	-0.347314
25979	8.088294	-3.307019	-7.566985	0.191414	3.773029	0.133261	0.287508	0.148093	0.946260	0.666355	-0.740593	-0.086558	0.687975	0.655431	-0.311609
25980	8.125637	-3.197472	-6.771837	0.670510	3.785978	0.072414	0.261795	0.122572	0.957308	0.670784	-0.736273	-0.089168	0.693911	0.665491	-0.274973
25981	8.230175	-2.205071	-5.767496	0.956395	3.752819	-0.015989	0.235516	0.097486	0.966969	0.677476	-0.729841	-0.091427	0.696820	0.676631	-0.237934
25982	8.451430	-1.715061	-5.234844	0.815748	3.712675	-0.091618	0.208933	0.072881	0.975210	0.683367	-0.724219	-0.092284	0.699540	0.685708	-0.201118
25983	8.279728	-2.367754	-5.614088	0.820700	3.632260	-0.122223	0.182585	0.048689	0.981984	0.689353	-0.718489	-0.092550	0.701039	0.693832	-0.164750
25984	8.456711	-1.739906	-5.279625	1.070915	3.531578	-0.112756	0.157032	0.024852	0.987281	0.697035	-0.710985	-0.092970	0.699631	0.702768	-0.128970
25985	8.759876	-0.431533	-4.223558	1.029947	3.418998	-0.064368	0.132631	0.001130	0.991165	0.704319	-0.703707	-0.093445	0.697384	0.710490	-0.094129
25986	10.290739	-1.442439	-3.384336	0.664761	3.261350	0.003945	0.109888	-0.022122	0.993698	0.708936	-0.698986	-0.093959	0.696660	0.714793	-0.061127
25987	9.895873	-1.765326	-3.834686	0.520287	3.143862	0.074791	0.088461	-0.045172	0.995055	0.712478	-0.695247	-0.094901	0.696096	0.717350	-0.029319
25988	9.012065	-1.756639	-3.841348	0.257018	2.886212	0.118856	0.069174	-0.066685	0.995373	0.714161	-0.693356	-0.096082	0.696556	0.717503	-0.000338
25989	8.564657	-3.231750	-5.143341	0.317018	2.645443	0.182588	0.052001	-0.086945	0.994855	0.716249	-0.690955	-0.097824	0.695905	0.717651	0.026344
25990	8.215058	-3.026701	-4.648109	0.762273	2.319806	0.204669	0.037342	-0.105018	0.993769	0.721430	-0.685298	-0.099528	0.691480	0.720651	0.050173
25991	7.854409	-0.934048	-3.648866	0.975088	1.984060	0.168235	0.024852	-0.120517	0.992400	0.728079	-0.678074	-0.100578	0.685042	0.725046	0.070895
25992	7.672453	0.263705	-3.109161	0.370014	1.658035	0.111462	0.014289	-0.133278	0.990976	0.730572	-0.675272	-0.101352	0.682686	0.725427	0.087720
25993	7.543762	-1.865104	-4.085348	-0.024932	1.329146	0.057476	0.005582	-0.143301	0.989663	0.730384	-0.675390	-0.101914	0.683013	0.723404	0.100895
25994	7.925090	-2.566324	-4.018762	0.326948	0.950462	-0.016490	-0.001057	-0.150051	0.988678	0.732597	-0.673072	-0.101368	0.680662	0.724196	0.110638
25995	8.276715	-1.140277	-2.909111	0.431671	0.640569	-0.023805	-0.005627	-0.154540	0.987971	0.735515	-0.669996	-0.100612	0.677485	0.726101	0.117436
25996	7.825387	-0.682409	-2.834632	0.104004	0.327639	0.049371	-0.007520	-0.157231	0.987533	0.736206	-0.669188	-0.100939	0.676716	0.726269	0.120786
25997	7.665143	-1.031046	-3.003917	-0.033252	0.010920	0.130995	-0.006672	-0.158187	0.987387	0.735977	-0.669241	-0.102245	0.676974	0.726012	0.120888
25998	7.930793	-0.730735	-2.847225	-0.291445	-0.264726	0.176125	-0.003620	-0.157429	0.987524	0.733993	-0.671101	-0.104295	0.679148	0.724458	0.117981
25999	8.143280	-1.346366	-3.880411	-0.720392	-0.481355	0.199934	0.001085	-0.155296	0.987867	0.729070	-0.676012	-0.107072	0.684438	0.720341	0.112488
26000	8.194263	-1.728160	-4.504514	-0.683236	-0.687247	0.172736	0.007024	-0.151510	0.988431	0.724353	-0.680681	-0.109485	0.689394	0.716742	0.104966
26001	8.682066	-0.562011	-4.199239	-0.689108	-0.801142	0.128227	0.013458	-0.146651	0.989097	0.719558	-0.685436	-0.111418	0.694302	0.713212	0.096299
26002	9.347647	0.850020	-3.720633	-1.402085	-0.786377	0.105817	0.019676	-0.141787	0.989702	0.709719	-0.695247	-0.113713	0.704210	0.704648	0.086949
26003	9.778017	-0.987676	-5.846434	-1.776715	-0.722897	0.022071	0.024935	-0.136876	0.990274	0.697077	-0.707654	-0.115365	0.716562	0.693174	0.077768
26004	9.717062	-1.555714	-5.492617	-0.731825	-0.899414	-0.122562	0.030515	-0.129768	0.991075	0.691833	-0.712898	-0.114646	0.721413	0.689156	0.068024
26005	10.068893	1.335178	-4.552102	-0.462765	-1.232406	-0.288207	0.037407	-0.119208	0.992164	0.688569	-0.716462	-0.112043	0.724205	0.687365	0.055282
26006	12.376712	-0.879304	-3.070219	-0.565309	-1.247220	-0.342677	0.044073	-0.108168	0.993155	0.684589	-0.720752	-0.108879	0.727596	0.684702	0.042285
26007	12.763295	-2.495029	-1.018248	-0.451728	-0.857890	-0.318789	0.048125	-0.099977	0.993825	0.681426	-0.724192	-0.105850	0.730303	0.682313	0.033275
26008	11.940836	-2.898725	0.049793	-0.380818	-0.525328	-0.284054	0.050000	-0.094316	0.994286	0.678764	-0.727083	-0.103103	0.732652	0.680041	0.027664
26009	11.087980	-2.967801	-0.272785	-0.313896	-0.422817	-0.255931	0.051346	-0.089557	0.994657	0.676574	-0.729469	-0.100606	0.734582	0.678125	0.023137
26010	10.338254	-2.608623	-1.378425	-0.159298	-0.500559	-0.259033	0.053239	-0.084252	0.995021	0.675523	-0.730794	-0.098023	0.735415	0.677378	0.018008
26011	10.236537	-1.396737	-1.538417	-0.040353	-0.579165	-0.264702	0.055690	-0.078370	0.995368	0.675354	-0.731302	-0.095365	0.735388	0.677536	0.012201
26012	10.414880	-1.212020	-1.988819	-0.094217	-0.565362	-0.267510	0.058007	-0.072561	0.995676	0.674797	-0.732162	-0.092671	0.735720	0.677255	0.006493
26013	9.987726	-1.325829	-2.235160	-0.101026	-0.517585	-0.250726	0.060108	-0.067196	0.995928	0.674186	-0.733040	-0.090148	0.736112	0.676859	0.001241
26014	9.094411	-1.972063	-2.584441	0.071910	-0.484919	-0.231164	0.062081	-0.062196	0.996131	0.674840	-0.732722	-0.087806	0.735348	0.677680	-0.003516
26015	8.907792	-0.532166	-1.469712	0.428996	-0.452223	-0.186959	0.064119	-0.057730	0.996271	0.678090	-0.729937	-0.085938	0.732177	0.681072	-0.007656
26016	9.526122	0.993105	-0.350695	0.203417	-0.363940	-0.162367	0.065643	-0.054043	0.996379	0.679667	-0.728660	-0.084300	0.730577	0.682740	-0.011100
26017	10.037025	-0.032996	-0.046020	-0.028252	-0.308086	-0.185274	0.066619	-0.050563	0.996497	0.679567	-0.728969	-0.082419	0.730582	0.682677	-0.014202
26018	10.253663	-0.694838	-0.130605	0.145440	-0.322975	-0.270296	0.067102	-0.046365	0.996668	0.680794	-0.728125	-0.079708	0.729394	0.683875	-0.017294
26019	10.302439	-0.955704	0.008227	0.305324	-0.318141	-0.315933	0.067248	-0.041861	0.996858	0.683214	-0.726191	-0.076585	0.727115	0.686218	-0.020235
26020	9.899997	-0.759124	0.298023	0.432261	-0.297936	-0.298271	0.067331	-0.037629	0.997021	0.686536	-0.723355	-0.073664	0.723972	0.689450	-0.022871
26021	9.560913	-0.384222	0.220059	0.286986	-0.340036	-0.250143	0.068052	-0.033447	0.997121	0.688764	-0.721480	-0.071209	0.721784	0.691627	-0.026061
26022	9.820135	-1.055584	0.274805	0.219757	-0.421910	-0.203172	0.069657	-0.029040	0.997148	0.690473	-0.720040	-0.069204	0.719996	0.693325	-0.030104
26023	9.883307	0.549779	1.329800	0.298249	-0.437492	-0.185144	0.071504	-0.024645	0.997136	0.692732	-0.718036	-0.067422	0.717641	0.695569	-0.034270
26024	9.878055	1.810019	1.587916	-0.516215	-0.420680	-0.183307	0.073227	-0.020386	0.997107	0.689137	-0.721677	-0.065365	0.720922	0.691930	-0.038798
26025	9.457274	-0.531943	-0.025927	-0.989578	-0.435174	-0.188112	0.075069	-0.016000	0.997050	0.682095	-0.728541	-0.063047	0.727400	0.684816	-0.043777
26026	9.557603	-1.893904	-0.943245	-0.818459	-0.462872	-0.216660	0.076941	-0.011238	0.996972	0.676270	-0.734168	-0.060466	0.732625	0.678874	-0.048887
26027	9.574982	-2.643736	-1.381379	-0.465035	-0.478204	-0.253198	0.078723	-0.006111	0.996878	0.673038	-0.737356	-0.057669	0.735406	0.675477	-0.053934
26028	9.816277	-2.314125	-1.571221	0.022171	-0.495763	-0.283688	0.080422	-0.000648	0.996761	0.673412	-0.737233	-0.054812	0.734880	0.675639	-0.058854
26029	10.083786	-0.939006	-1.194985	0.232419	-0.494038	-0.276956	0.082163	0.004759	0.996608	0.675328	-0.735671	-0.052163	0.732927	0.677323	-0.063659
26030	10.048867	0.032733	-1.048316	0.128122	-0.493362	-0.250372	0.084048	0.009966	0.996412	0.676459	-0.734800	-0.049711	0.731668	0.678210	-0.068500
26031	10.250413	0.145043	-1.420908	-0.075477	-0.472912	-0.234972	0.085902	0.014925	0.996192	0.676092	-0.735298	-0.047284	0.731792	0.677579	-0.073254
26032	10.095951	-0.120315	-2.305144	-0.131226	-0.418289	-0.218210	0.087455	0.019384	0.995980	0.675306	-0.736165	-0.044970	0.732334	0.676524	-0.077471
26033	9.803058	-0.269579	-2.737359	0.001543	-0.387512	-0.207985	0.088870	0.023563	0.995764	0.675486	-0.736125	-0.042867	0.731997	0.676435	-0.081336
26034	9.975522	0.100560	-2.897512	0.135410	-0.348186	-0.190765	0.090092	0.027345	0.995558	0.676633	-0.735176	-0.041038	0.730788	0.677324	-0.084736
26035	9.776116	0.538717	-2.660383	0.197759	-0.293490	-0.173202	0.091045	0.030636	0.995375	0.678219	-0.733800	-0.039450	0.729198	0.678674	-0.087587
26036	9.698117	0.417297	-2.281691	0.147542	-0.256401	-0.155150	0.091825	0.033537	0.995210	0.679421	-0.732764	-0.037995	0.727980	0.679656	-0.090071
26037	9.815382	0.255267	-1.936910	0.166076	-0.229311	-0.137918	0.092539	0.036137	0.995053	0.680741	-0.731602	-0.036739	0.726655	0.680774	-0.092302
26038	9.872333	0.367614	-1.524785	0.210087	-0.215376	-0.116028	0.093276	0.038474	0.994897	0.682360	-0.730142	-0.035739	0.725041	0.682211	-0.094358
26039	9.885479	0.621980	-1.301878	0.237458	-0.200663	-0.101222	0.094023	0.040615	0.994741	0.684159	-0.728496	-0.034923	0.723247	0.683845	-0.096282
26040	9.768210	0.845152	-1.157280	0.181635	-0.176511	-0.087910	0.094660	0.042484	0.994603	0.685541	-0.727232	-0.034182	0.721854	0.685076	-0.097964
26041	9.397687	-0.002138	-0.768752	0.046925	-0.165366	-0.081240	0.095281	0.044240	0.994467	0.685941	-0.726891	-0.033384	0.721392	0.685327	-0.099605
26042	9.185414	-1.687776	-0.803241	0.150614	-0.204983	-0.092431	0.096088	0.046339	0.994294	0.687101	-0.725831	-0.032574	0.720180	0.686310	-0.101583
26043	9.709414	-1.302996	0.117771	0.432026	-0.265635	-0.093650	0.097336	0.048876	0.994051	0.690282	-0.722831	-0.032051	0.716964	0.689295	-0.104095
26044	9.779236	-0.243217	0.839923	0.400347	-0.307564	-0.084792	0.098914	0.051633	0.993756	0.693215	-0.720038	-0.031588	0.713911	0.692011	-0.107014
26045	9.374014	-0.520021	0.909399	0.237015	-0.350896	-0.075524	0.100874	0.054636	0.993398	0.694966	-0.718371	-0.031060	0.711931	0.693511	-0.110435
26046	9.131477	-0.812171	0.712887	0.303442	-0.437892	-0.075580	0.103424	0.058240	0.992931	0.697186	-0.716236	-0.030608	0.709390	0.695423	-0.114680
26047	9.630130	0.338214	0.941626	0.370481	-0.510364	-0.059736	0.106601	0.062250	0.992351	0.699858	-0.713634	-0.030414	0.706283	0.697747	-0.119640
26048	9.692730	0.948381	0.827261	0.230632	-0.556601	-0.043029	0.110188	0.066465	0.991686	0.701518	-0.712011	-0.030226	0.704082	0.699016	-0.125081
26049	9.532233	0.901538	0.318557	0.121245	-0.589054	-0.025704	0.114130	0.070793	0.990940	0.702386	-0.711160	-0.030090	0.702587	0.699457	-0.130889
26050	9.332597	0.900927	-0.046246	0.075494	-0.626691	-0.013897	0.118395	0.075296	0.990108	0.702920	-0.710636	-0.030011	0.701346	0.699519	-0.137063
26051	9.562795	1.080161	-0.469870	0.055624	-0.659421	0.001456	0.123003	0.079925	0.989183	0.703295	-0.710262	-0.030065	0.700176	0.699385	-0.143575
26052	9.798262	1.330192	-1.116325	-0.084487	-0.643429	0.018911	0.127604	0.084307	0.988235	0.702667	-0.710882	-0.030085	0.699983	0.698240	-0.149952
26053	9.456428	0.568996	-1.798317	-0.322545	-0.614755	0.034559	0.132130	0.088372	0.987285	0.700350	-0.713174	-0.029892	0.701464	0.695395	-0.156123
26054	9.540142	-0.648778	-2.901443	-0.294416	-0.600497	0.036860	0.136567	0.092298	0.986322	0.698221	-0.715264	-0.029744	0.702735	0.692733	-0.162126
26055	9.771492	-0.262460	-2.918132	-0.154993	-0.582851	0.048894	0.140981	0.096008	0.985346	0.697051	-0.716396	-0.029929	0.703025	0.691056	-0.167921
26056	9.840668	-0.034967	-2.881475	-0.187408	-0.555162	0.063464	0.145291	0.099406	0.984383	0.695631	-0.717765	-0.030191	0.703554	0.689153	-0.173435
26057	9.894604	-0.305625	-2.690804	-0.230289	-0.524800	0.078042	0.149505	0.102485	0.983435	0.693882	-0.719442	-0.030512	0.704398	0.686950	-0.178672
26058	9.510136	-1.142894	-2.266737	-0.215372	-0.510192	0.080464	0.153622	0.105426	0.982490	0.692231	-0.721016	-0.030869	0.705136	0.684852	-0.183743
26059	9.175827	-2.824877	-2.272499	-0.056468	-0.537834	0.071586	0.157886	0.108620	0.981465	0.691709	-0.721492	-0.031426	0.704706	0.683850	-0.189047
26060	9.477297	-2.886362	-1.951677	0.490942	-0.601371	0.048162	0.162409	0.112415	0.980299	0.695070	-0.718194	-0.032796	0.700358	0.686703	-0.194778
26061	9.504554	-0.845853	-0.752291	0.762160	-0.636455	0.042864	0.167125	0.116522	0.979026	0.700302	-0.713003	-0.034685	0.694007	0.691411	-0.200761
26062	9.406336	0.564055	-0.107691	0.665772	-0.675437	0.050515	0.172112	0.120866	0.977634	0.704807	-0.708460	-0.036493	0.688204	0.695325	-0.207122
26063	9.340518	0.891219	-0.170616	0.439529	-0.712763	0.072095	0.177488	0.125347	0.976108	0.707686	-0.705500	-0.038084	0.683870	0.697537	-0.213924
26064	9.277880	0.375702	-0.437569	0.366514	-0.765519	0.080316	0.183241	0.130147	0.974415	0.710031	-0.703055	-0.039620	0.679911	0.699125	-0.221237
26065	9.323974	0.292833	-0.488142	0.404644	-0.816879	0.096640	0.189440	0.135212	0.972538	0.712584	-0.700363	-0.041432	0.675527	0.700864	-0.229027
26066	8.992852	0.423535	-0.403621	0.394418	-0.877396	0.116118	0.196140	0.140577	0.970447	0.715006	-0.697767	-0.043435	0.671040	0.702395	-0.237374
26067	8.762050	0.249071	-0.456350	0.457323	-0.966280	0.133568	0.203530	0.146467	0.968051	0.717788	-0.694754	-0.045796	0.665850	0.704176	-0.246535
26068	9.076291	0.697504	-0.024668	0.448966	-1.046863	0.152998	0.211536	0.152806	0.965351	0.720439	-0.691830	-0.048359	0.660469	0.705707	-0.256434
26069	8.960548	0.430467	-0.124286	0.326244	-1.106729	0.176084	0.220060	0.159425	0.962370	0.722199	-0.689813	-0.050868	0.655746	0.706217	-0.266937
26070	8.793419	-0.020184	-0.508239	0.314549	-1.179619	0.196577	0.229152	0.166423	0.959058	0.723805	-0.687922	-0.053568	0.650843	0.706446	-0.278096
26071	9.214180	0.095403	-0.605630	0.483972	-1.290584	0.205795	0.238971	0.174157	0.955281	0.726450	-0.684862	-0.056870	0.644331	0.707555	-0.290178
26072	10.029324	1.050050	-0.051310	0.479859	-1.346376	0.230857	0.249244	0.182131	0.951160	0.728956	-0.681886	-0.060448	0.637573	0.708421	-0.302721
26073	9.767518	1.095545	0.674829	0.099197	-1.377233	0.288033	0.260061	0.189931	0.946728	0.728848	-0.681730	-0.063444	0.633363	0.706520	-0.315722
26074	9.572224	-0.220065	-0.129972	0.039901	-1.495817	0.310240	0.271728	0.198383	0.941705	0.728270	-0.682061	-0.066456	0.629116	0.703873	-0.329811
26075	11.115035	1.420748	0.963711	0.224251	-1.652421	0.333948	0.284468	0.207741	0.935907	0.728741	-0.681172	-0.070302	0.622908	0.702032	-0.345161
26076	12.107275	1.564878	1.033437	-0.296224	-1.685811	0.359276	0.297523	0.217096	0.929704	0.725850	-0.684015	-0.072561	0.620178	0.696414	-0.361090
26077	11.516499	-0.330335	-0.368674	-0.466476	-1.737838	0.357691	0.310832	0.226700	0.923033	0.721871	-0.688049	-0.074103	0.618293	0.689345	-0.377516
26078	12.335167	-1.440842	-1.993471	-0.329142	-1.864597	0.345026	0.324778	0.237133	0.915580	0.718743	-0.691115	-0.075958	0.614759	0.682736	-0.394896
26079	13.942164	-2.773657	-2.172177	-0.173211	-1.938425	0.334566	0.339002	0.248010	0.907507	0.716571	-0.693110	-0.078259	0.609593	0.676823	-0.412682
26080	14.167492	-3.857375	-1.786753	0.132847	-1.968075	0.327322	0.353232	0.259042	0.898957	0.716242	-0.693050	-0.081729	0.601851	0.672740	-0.430344
26081	13.715593	-2.594528	-0.780867	0.026943	-1.967018	0.329379	0.367312	0.269953	0.890060	0.715218	-0.693744	-0.084747	0.594596	0.667716	-0.447896
26082	13.650238	-1.756141	-0.302413	-0.024195	-1.996745	0.340334	0.381509	0.280886	0.880655	0.713801	-0.694848	-0.087603	0.587315	0.662034	-0.465588
26083	13.469669	-0.683526	0.627123	-0.270577	-2.031348	0.387264	0.396090	0.291567	0.870690	0.710719	-0.697739	-0.089665	0.581371	0.654331	-0.483590
26084	13.256025	0.111114	1.165533	-0.382325	-2.130416	0.436868	0.411475	0.302376	0.859801	0.706745	-0.701525	-0.091514	0.575500	0.645315	-0.502362
26085	13.291225	1.437833	1.678256	-0.703553	-2.234852	0.468251	0.427530	0.313371	0.847948	0.700754	-0.707464	-0.091863	0.571106	0.633477	-0.522059
26086	13.282954	1.599762	0.650758	-1.028774	-2.354906	0.507155	0.444443	0.324528	0.834956	0.692686	-0.715525	-0.090605	0.568028	0.618632	-0.542806
26087	13.160353	1.308243	-0.560722	-1.278133	-2.454139	0.548382	0.462070	0.335551	0.820912	0.682964	-0.725129	-0.088023	0.565731	0.601327	-0.564229
26088	12.175308	1.042054	-3.255292	-1.341360	-2.510818	0.550356	0.479939	0.346424	0.806008	0.672806	-0.734950	-0.084740	0.563020	0.582957	-0.585807
26089	11.797371	1.867556	-4.129857	-1.322004	-2.566836	0.490785	0.497561	0.357520	0.790325	0.662999	-0.744256	-0.080721	0.559344	0.564148	-0.607347
26090	11.234589	-0.038726	-5.681547	-1.387988	-2.466897	0.460213	0.514315	0.367776	0.774740	0.652936	-0.753620	-0.075704	0.556018	0.544791	-0.627732
26091	10.657299	-0.610576	-6.043976	-0.921173	-2.273611	0.486378	0.529985	0.376309	0.759939	0.645313	-0.760372	-0.073521	0.550170	0.529364	-0.645823
26092	10.183899	-0.200031	-5.182843	-0.734708	-1.995505	0.451474	0.543772	0.383321	0.746577	0.638877	-0.765925	-0.072073	0.544195	0.516163	-0.661383
26093	10.579192	-1.248635	-3.789885	-0.710799	-1.529184	0.354856	0.554258	0.388405	0.736165	0.633088	-0.770916	-0.069912	0.540367	0.504807	-0.673181
26094	8.978327	-1.354759	-3.032303	-0.515595	-0.979599	0.194981	0.560740	0.391831	0.729410	0.629230	-0.774256	-0.067804	0.538182	0.496987	-0.680708
26095	7.693229	-2.109093	-4.044058	-0.290345	-0.514200	0.065256	0.563851	0.393873	0.725904	0.627317	-0.775941	-0.066250	0.537164	0.492727	-0.684598
26096	7.270682	-3.093759	-4.860415	0.283197	-0.056649	-0.022314	0.563983	0.394351	0.725541	0.628971	-0.774451	-0.067981	0.535088	0.494684	-0.684813
26097	7.566350	-2.624276	-4.929438	0.882863	0.431394	-0.077307	0.561129	0.392797	0.728591	0.634132	-0.769733	-0.073403	0.531988	0.503211	-0.681004
26098	7.609503	-2.030944	-4.611871	1.283072	0.912535	-0.142709	0.555346	0.389263	0.734892	0.641744	-0.762629	-0.081001	0.528919	0.516596	-0.673330
26099	7.711225	-1.493771	-4.683329	1.488017	1.377493	-0.200632	0.546711	0.383552	0.744308	0.650723	-0.754033	-0.089407	0.526941	0.533218	-0.661824
26100	7.542593	-1.118250	-4.845202	1.582949	1.799455	-0.251829	0.535551	0.375700	0.756330	0.660431	-0.744486	-0.097829	0.526323	0.551896	-0.646834
26101	7.602659	-0.824719	-4.987736	1.643511	2.170134	-0.282635	0.522172	0.365589	0.770507	0.670599	-0.734193	-0.106106	0.526909	0.572107	-0.628538
26102	7.667917	-0.238006	-4.990388	1.591660	2.480418	-0.297886	0.507031	0.353337	0.786176	0.680543	-0.723852	-0.113578	0.528944	0.592614	-0.607476
26103	7.685923	-0.070502	-5.057495	1.422764	2.740490	-0.308790	0.490293	0.339039	0.802911	0.689654	-0.714202	-0.119553	0.532908	0.612346	-0.583987
26104	7.739078	0.253676	-5.212635	1.123495	2.957460	-0.314038	0.472224	0.322916	0.820201	0.697195	-0.706185	-0.123376	0.539373	0.630101	-0.558613
26105	8.158836	-0.416721	-6.235745	0.717222	3.150716	-0.293804	0.452947	0.304885	0.837786	0.702472	-0.700684	-0.124799	0.548973	0.645049	-0.531545
26106	8.367192	-2.160898	-7.037962	0.630685	3.292295	-0.276142	0.432723	0.285362	0.855172	0.707194	-0.695760	-0.125677	0.559131	0.659156	-0.502878
26107	8.170900	-2.752986	-6.354394	0.839615	3.388876	-0.289570	0.411499	0.264761	0.872107	0.713159	-0.689362	-0.127219	0.567514	0.674301	-0.472488
26108	8.274455	-1.581074	-5.652375	0.839390	3.433115	-0.326342	0.389508	0.243619	0.888219	0.719265	-0.682817	-0.128135	0.575275	0.688774	-0.441189
26109	8.807250	-0.341001	-5.219586	0.426996	3.485285	-0.338955	0.366760	0.221715	0.903510	0.723035	-0.679063	-0.126862	0.585412	0.699797	-0.409361
26110	9.189672	-1.115024	-5.587143	-0.085819	3.549829	-0.305707	0.343494	0.198844	0.917863	0.723612	-0.679032	-0.123694	0.598663	0.706665	-0.377130
26111	9.232429	-1.946902	-5.956049	-0.248929	3.596179	-0.238110	0.319917	0.174945	0.931154	0.722902	-0.680355	-0.120543	0.612427	0.711696	-0.344125
26112	9.171437	-2.022383	-5.750865	-0.380978	3.631440	-0.162644	0.296211	0.150165	0.943244	0.721040	-0.682819	-0.117726	0.626387	0.714988	-0.310534
26113	8.712997	-3.037968	-5.836032	-0.651539	3.670024	-0.113946	0.272048	0.124680	0.954172	0.717236	-0.687328	-0.114682	0.641531	0.715566	-0.276412
26114	7.879152	-5.158132	-6.291323	-0.764187	3.695625	-0.096392	0.247333	0.098939	0.963866	0.712520	-0.692698	-0.111732	0.656614	0.714409	-0.241823
26115	7.445611	-7.188938	-7.584960	-0.388613	3.676583	-0.108908	0.222135	0.073406	0.972249	0.710202	-0.695388	-0.109761	0.668033	0.714875	-0.206603
26116	7.565571	-6.836155	-7.744379	0.649341	3.627861	-0.137052	0.196830	0.048316	0.979246	0.714829	-0.690656	-0.109604	0.671027	0.721568	-0.170480
26117	8.124886	-3.395281	-6.437352	1.329520	3.585044	-0.138688	0.171764	0.023197	0.984865	0.723986	-0.680951	-0.110227	0.668087	0.731962	-0.133758
26118	8.658911	-0.470772	-5.234640	1.172019	3.550502	-0.079745	0.147474	-0.002383	0.989063	0.731918	-0.672332	-0.110752	0.665242	0.740246	-0.097408
26119	8.298670	0.028036	-4.986191	0.683979	3.502206	-0.002274	0.124105	-0.028376	0.991863	0.736466	-0.667265	-0.111239	0.664993	0.744279	-0.061913
26120	7.884142	-1.089257	-5.323635	0.211166	3.388772	0.062823	0.101955	-0.054001	0.993322	0.737790	-0.665688	-0.111916	0.667286	0.744274	-0.028029
26121	7.726288	-2.260381	-5.233335	0.139925	3.195775	0.107512	0.081338	-0.078491	0.993591	0.738620	-0.664590	-0.112966	0.669197	0.743074	0.003919
26122	7.707964	-2.508719	-5.116043	0.193413	2.932006	0.114227	0.062512	-0.101000	0.992921	0.739819	-0.663073	-0.114025	0.669896	0.741709	0.033271
26123	7.808845	-1.916798	-4.576953	0.295760	2.605949	0.105380	0.045797	-0.121019	0.991593	0.741733	-0.660780	-0.114902	0.669130	0.740759	0.059502
26124	8.023141	-1.392197	-3.792104	0.215582	2.259298	0.108676	0.031456	-0.138437	0.989872	0.743118	-0.659067	-0.115788	0.668421	0.739233	0.082143
26125	9.049755	-1.625540	-2.888536	0.168087	1.887210	0.089745	0.019472	-0.152964	0.988040	0.744206	-0.657713	-0.116491	0.667666	0.737574	0.101030
26126	7.917222	-1.475067	-2.177235	-0.150032	1.501643	0.125646	0.010333	-0.164824	0.986269	0.743169	-0.658642	-0.117857	0.669024	0.734182	0.115686
26127	8.310049	-2.543868	-2.322115	-0.371569	1.040228	0.121934	0.004222	-0.173242	0.984870	0.740656	-0.661176	-0.119478	0.671871	0.729955	0.125521
26128	7.817956	-2.828852	-2.042678	-0.289847	0.607808	0.108780	0.000899	-0.178371	0.983963	0.738686	-0.663121	-0.120885	0.674049	0.726948	0.131164
26129	7.668406	-3.349048	-2.555323	-0.509209	0.186779	0.107493	0.000392	-0.180437	0.983586	0.735230	-0.666640	-0.122587	0.677817	0.723211	0.132401
26130	7.330475	-3.919530	-3.840230	-0.433736	-0.197207	0.100046	0.002429	-0.179663	0.983725	0.732265	-0.669616	-0.124104	0.681015	0.720649	0.129935
26131	7.481985	-2.301931	-3.931524	-0.352226	-0.549891	0.105193	0.006919	-0.176404	0.984293	0.729843	-0.671984	-0.125563	0.683580	0.719249	0.124098
26132	7.127569	-0.568112	-4.571458	-0.708484	-0.865291	0.111281	0.013628	-0.170927	0.985190	0.724954	-0.676900	-0.127468	0.688662	0.715954	0.114689
26133	7.263225	-0.602018	-6.627790	-0.899708	-1.226522	0.081460	0.022675	-0.162715	0.986413	0.718700	-0.683207	-0.129220	0.694950	0.711865	0.101451
26134	8.858420	-1.036687	-6.439361	-0.594422	-1.448638	0.009755	0.032804	-0.152462	0.987765	0.714539	-0.687442	-0.129837	0.698826	0.710056	0.086390
26135	11.107868	-1.616839	-4.876784	-0.049861	-1.269233	-0.062635	0.041204	-0.142994	0.988866	0.714198	-0.687909	-0.129233	0.698729	0.711571	0.073781
26136	11.741769	0.173011	-2.286344	0.095470	-0.810358	-0.096747	0.046134	-0.136535	0.989560	0.714892	-0.687388	-0.128172	0.697712	0.713342	0.065896
26137	10.938970	0.970690	-1.280410	-0.218136	-0.415482	-0.141369	0.048008	-0.132580	0.990009	0.713419	-0.689154	-0.126886	0.699091	0.712383	0.061501
26138	10.297670	0.175668	-1.415883	-0.536730	-0.129840	-0.156033	0.047771	-0.130560	0.990289	0.709716	-0.693196	-0.125627	0.702867	0.708825	0.059546
26139	10.035934	-1.234449	-2.087140	-0.674197	0.010535	-0.109747	0.046902	-0.129847	0.990424	0.704996	-0.698124	-0.124911	0.707659	0.704104	0.058798
26140	10.143432	-1.259479	-1.875326	-0.297602	-0.100852	-0.156586	0.046478	-0.128023	0.990682	0.702944	-0.700441	-0.123495	0.709725	0.702134	0.057438
26141	12.006077	2.324435	-0.904667	-0.138976	-0.404235	-0.295184	0.047258	-0.123090	0.991270	0.702079	-0.701810	-0.120618	0.710530	0.701649	0.053253
26142	14.180078	0.781736	0.259072	-0.812986	-0.585034	-0.321095	0.049149	-0.116716	0.991948	0.696419	-0.707901	-0.117801	0.715950	0.696602	0.046491
26143	13.051630	-5.495283	-0.150933	-1.151312	-0.574333	-0.228590	0.051683	-0.111080	0.992467	0.688229	-0.716161	-0.115994	0.723650	0.689039	0.039435
26144	10.639638	-8.000483	-0.857805	-0.630729	-0.601553	-0.199786	0.054642	-0.105490	0.992918	0.683742	-0.720732	-0.114200	0.727675	0.685140	0.032746
26145	9.544340	-5.257665	-0.737737	0.177981	-0.666314	-0.275702	0.057585	-0.098906	0.993429	0.685174	-0.719813	-0.111382	0.726100	0.687085	0.026317
26146	9.828746	-0.561294	-0.515641	0.560297	-0.664236	-0.345625	0.059983	-0.091824	0.993967	0.689418	-0.716301	-0.107777	0.721876	0.691723	0.020339
26147	9.708462	1.439185	-0.846584	0.291112	-0.646115	-0.340010	0.062280	-0.084888	0.994442	0.691707	-0.714604	-0.104321	0.719487	0.694360	0.014212
26148	9.566711	0.755886	-1.761994	0.006493	-0.627141	-0.296231	0.064706	-0.078394	0.994820	0.691927	-0.714821	-0.101334	0.719062	0.694900	0.007990
26149	9.346465	0.167571	-1.539179	-0.016383	-0.558407	-0.262250	0.066894	-0.072609	0.995115	0.691965	-0.715153	-0.098697	0.718825	0.695187	0.002404
26150	9.179240	0.003297	-0.599098	0.108985	-0.527234	-0.276396	0.068731	-0.066944	0.995387	0.692920	-0.714607	-0.095907	0.717731	0.696315	-0.002729
26151	9.441258	-0.095337	0.309319	0.146223	-0.493649	-0.301148	0.070171	-0.061323	0.995648	0.694161	-0.713801	-0.092886	0.716391	0.697658	-0.007520
26152	9.375549	-0.804215	0.564733	-0.024256	-0.479863	-0.314467	0.071389	-0.055709	0.995892	0.694195	-0.714174	-0.089712	0.716238	0.697747	-0.012311
26153	9.462500	-2.115620	0.288760	-0.013578	-0.521161	-0.323083	0.072865	-0.049735	0.996101	0.694314	-0.714459	-0.086462	0.715974	0.697907	-0.017528
26154	9.720009	-2.130351	0.265940	0.164404	-0.579604	-0.330108	0.074680	-0.043308	0.996267	0.695719	-0.713483	-0.083166	0.714421	0.699332	-0.023153
26155	9.722359	-1.356115	0.267265	0.268609	-0.653167	-0.323536	0.077073	-0.036399	0.996361	0.697865	-0.711750	-0.079984	0.712071	0.701490	-0.029455
26156	9.805788	-0.961287	0.285447	0.179326	-0.723164	-0.311095	0.080006	-0.029088	0.996370	0.699370	-0.710611	-0.076903	0.710268	0.702984	-0.036510
26157	9.718692	0.108904	0.399824	0.248049	-0.753490	-0.293948	0.083278	-0.021670	0.996291	0.701354	-0.708957	-0.074045	0.707932	0.704918	-0.043842
26158	9.950537	1.294002	0.473470	0.008389	-0.764644	-0.278261	0.086700	-0.014286	0.996132	0.701635	-0.708966	-0.071236	0.707242	0.705098	-0.051444
26159	9.870459	0.819593	-0.337655	-0.073293	-0.770839	-0.252189	0.090368	-0.007036	0.995884	0.701325	-0.709528	-0.068652	0.707090	0.704642	-0.059184
26160	10.141140	1.459133	-0.598763	-0.020721	-0.765181	-0.230068	0.094126	0.000008	0.995560	0.701377	-0.709699	-0.066307	0.706548	0.704505	-0.066807
26161	10.027920	0.998366	-1.401042	-0.180546	-0.715858	-0.197216	0.097788	0.006477	0.995186	0.700276	-0.710981	-0.064183	0.707143	0.703181	-0.074061
26162	9.513881	-0.193194	-2.326635	-0.067582	-0.688246	-0.174628	0.101396	0.012577	0.994767	0.699958	-0.711457	-0.062351	0.706949	0.702617	-0.080942
26163	9.655629	-0.387511	-2.461192	0.188862	-0.665308	-0.160169	0.104954	0.018425	0.994306	0.701442	-0.710121	-0.060882	0.704957	0.703838	-0.087454
26164	9.724172	0.087637	-2.029323	0.282003	-0.625959	-0.129793	0.108410	0.023777	0.993822	0.703552	-0.708123	-0.059805	0.702326	0.705688	-0.093496
26165	9.724790	0.182245	-1.532858	0.159781	-0.594742	-0.092004	0.111919	0.028660	0.993304	0.704759	-0.706988	-0.059009	0.700563	0.706644	-0.099324
26166	9.648540	-0.416266	-1.292190	0.022858	-0.584609	-0.063243	0.115530	0.033258	0.992747	0.704978	-0.706824	-0.058361	0.699756	0.706608	-0.105106
26167	9.842243	-0.535758	-1.157399	0.049136	-0.581695	-0.048851	0.119237	0.037747	0.992148	0.705365	-0.706476	-0.057893	0.698744	0.706729	-0.110864
26168	9.756382	-0.125420	-0.819153	0.005895	-0.574020	-0.027755	0.123014	0.042019	0.991515	0.705427	-0.706440	-0.057582	0.698026	0.706525	-0.116544
26169	9.810743	-0.391415	-0.768388	-0.063503	-0.575094	-0.018937	0.126878	0.046247	0.990840	0.704993	-0.706897	-0.057281	0.697772	0.705803	-0.122293
26170	9.824818	-0.351198	-0.962423	-0.081661	-0.560992	-0.009096	0.130692	0.050289	0.990147	0.704423	-0.707484	-0.057046	0.697644	0.704938	-0.127887
26171	9.602083	-0.841885	-1.635265	-0.058397	-0.556986	0.001354	0.134570	0.054236	0.989419	0.704000	-0.707913	-0.056945	0.697334	0.704214	-0.133446
26172	9.594902	-0.838023	-1.868360	0.237015	-0.579520	-0.000166	0.138566	0.058342	0.988633	0.705639	-0.706257	-0.057224	0.694891	0.705547	-0.139032
26173	9.787970	0.250655	-1.434629	0.262917	-0.576845	0.024335	0.142723	0.062277	0.987801	0.707415	-0.704432	-0.057799	0.692239	0.707035	-0.144594
26174	9.801088	-0.021080	-1.736926	0.030352	-0.561661	0.053815	0.146953	0.065889	0.986947	0.707535	-0.704266	-0.058332	0.691230	0.706872	-0.150113
26175	9.506223	-0.103631	-1.842512	0.081319	-0.562634	0.074327	0.151347	0.069376	0.986043	0.707973	-0.703758	-0.059151	0.689832	0.707044	-0.155628
26176	9.837942	0.198281	-1.442294	-0.049703	-0.552611	0.084135	0.155717	0.072709	0.985122	0.707490	-0.704184	-0.059858	0.689355	0.706285	-0.161095
26177	9.436809	-0.320088	-1.585923	-0.237944	-0.525623	0.080009	0.159891	0.075885	0.984214	0.705709	-0.705938	-0.060217	0.690224	0.704197	-0.166426
26178	9.629204	-0.457759	-2.019864	-0.198300	-0.524587	0.071735	0.163983	0.079088	0.983288	0.704213	-0.707402	-0.060544	0.690792	0.702372	-0.171697
26179	9.653112	-0.120593	-2.123820	-0.230662	-0.505453	0.082714	0.168041	0.082081	0.982357	0.702469	-0.709103	-0.060914	0.691592	0.700311	-0.176818
26180	9.367311	-0.812278	-2.549977	-0.274322	-0.498303	0.087622	0.172069	0.084963	0.981414	0.700411	-0.711108	-0.061239	0.692688	0.697931	-0.181869
26181	9.401167	-1.444541	-2.672216	-0.094675	-0.498237	0.080899	0.176069	0.087897	0.980446	0.699602	-0.711854	-0.061817	0.692501	0.696806	-0.186828
26182	9.358431	-1.268157	-2.411924	0.029103	-0.490760	0.083191	0.180011	0.090744	0.979470	0.699645	-0.711739	-0.062644	0.691443	0.696558	-0.191609
26183	9.169183	-1.188435	-2.246504	0.133818	-0.502953	0.078890	0.184021	0.093722	0.978444	0.700413	-0.710895	-0.063636	0.689607	0.697026	-0.196463
26184	9.297139	-0.502533	-1.553666	0.262590	-0.544602	0.081677	0.188305	0.096962	0.977312	0.702059	-0.709154	-0.064913	0.686771	0.698354	-0.201610
26185	9.509698	-0.018711	-0.736554	0.243764	-0.587450	0.086192	0.192922	0.100491	0.976055	0.703554	-0.707551	-0.066214	0.683954	0.699481	-0.207203
26186	9.393652	-0.337198	-0.070827	0.231365	-0.641873	0.088645	0.197891	0.104378	0.974651	0.704950	-0.706035	-0.067520	0.681090	0.700442	-0.213299
26187	9.230813	-0.750624	0.472877	0.337914	-0.728267	0.091487	0.203465	0.108873	0.973010	0.707051	-0.703778	-0.069103	0.677260	0.702028	-0.220173
26188	9.380833	-0.633767	1.291270	0.402251	-0.839547	0.095384	0.209772	0.114125	0.971067	0.709560	-0.701070	-0.070887	0.672696	0.703901	-0.228043
26189	9.024303	-0.707018	1.464422	0.334438	-0.928177	0.092991	0.216636	0.120043	0.968844	0.711595	-0.698837	-0.072526	0.668357	0.705136	-0.236815
26190	8.477345	-0.750672	1.294299	0.328992	-1.038029	0.099740	0.224225	0.126692	0.966267	0.713558	-0.696651	-0.074242	0.663745	0.706135	-0.246608
26191	8.729109	-0.791989	0.862527	0.394800	-1.186288	0.088799	0.232678	0.134485	0.963211	0.715957	-0.693990	-0.076054	0.658230	0.707313	-0.257762
26192	8.783813	-0.357525	0.581880	0.492171	-1.288555	0.100147	0.241800	0.142936	0.959741	0.718936	-0.690655	-0.078270	0.651663	0.708918	-0.269762
26193	8.632326	-0.005755	0.169374	0.473192	-1.396438	0.113548	0.251645	0.152086	0.955795	0.721716	-0.687478	-0.080624	0.644826	0.710102	-0.282763
26194	9.042263	-0.155201	-0.147379	0.484737	-1.511712	0.120520	0.262172	0.162021	0.951323	0.724509	-0.684234	-0.083133	0.637458	0.711037	-0.296773
26195	10.264525	-0.335899	0.295988	0.583951	-1.624749	0.146062	0.273493	0.172610	0.946260	0.727810	-0.680333	-0.086254	0.628884	0.712287	-0.311693
26196	11.692685	0.225731	0.677084	0.708746	-1.727523	0.176740	0.285524	0.183751	0.940591	0.731733	-0.675604	-0.090140	0.618904	0.713999	-0.327358
26197	12.761609	0.604555	1.334545	0.633198	-1.797686	0.208782	0.298061	0.195208	0.934373	0.735008	-0.671486	-0.094179	0.609034	0.714843	-0.343623
26198	14.177275	1.720141	1.909670	0.633733	-1.913017	0.250349	0.311420	0.207230	0.927401	0.738069	-0.667468	-0.098695	0.598558	0.715222	-0.360813
26199	14.228154	1.078609	1.832494	-0.000918	-1.945097	0.351067	0.325554	0.218773	0.919866	0.736944	-0.668230	-0.101889	0.592392	0.711060	-0.378769
26200	15.381356	-0.762164	2.050974	-0.154055	-2.177281	0.377236	0.341126	0.231685	0.911019	0.734778	-0.670179	-0.104697	0.586289	0.705111	-0.398853
26201	16.203609	-1.263991	2.954013	-0.417307	-2.229172	0.367755	0.356795	0.244854	0.901523	0.731059	-0.673987	-0.106275	0.581594	0.696985	-0.419478
26202	15.172508	-2.616478	1.998262	-0.621745	-2.312555	0.385100	0.372970	0.258270	0.891173	0.726049	-0.679266	-0.107006	0.577707	0.686946	-0.440863
26203	14.203915	-1.611750	2.490454	-0.192408	-2.400398	0.393110	0.389544	0.272000	0.879927	0.723451	-0.681625	-0.109571	0.569977	0.679267	-0.462302
26204	12.897619	-0.469103	2.403261	-0.464626	-2.489116	0.444550	0.406822	0.285762	0.867661	0.719050	-0.686003	-0.111209	0.563439	0.669134	-0.484558
26205	12.231411	-0.439903	1.401609	-0.852913	-2.595619	0.415777	0.424308	0.300092	0.854346	0.712544	-0.692870	-0.110510	0.558788	0.655649	-0.507819
26206	11.568312	-0.708577	-1.449198	-1.118013	-2.675075	0.325695	0.441483	0.315168	0.840097	0.704910	-0.701117	-0.107411	0.555153	0.639613	-0.531696
26207	11.780890	0.798902	-3.039554	-0.913384	-2.840672	0.164426	0.458259	0.331959	0.824501	0.699139	-0.707416	-0.103764	0.548820	0.623991	-0.556266
26208	12.843967	0.424171	-4.080738	-1.020052	-2.864881	0.086288	0.474461	0.349001	0.808137	0.693175	-0.713991	-0.098623	0.542582	0.606972	-0.580680
26209	13.313770	-0.411563	-4.465478	-0.727727	-2.654619	0.134964	0.489634	0.363955	0.792335	0.688616	-0.718830	-0.095349	0.534852	0.592301	-0.602589
26210	12.846804	0.472259	-3.700482	-0.748832	-2.304507	0.164954	0.502987	0.376277	0.778088	0.683822	-0.723824	-0.092014	0.528575	0.578356	-0.621380
26211	12.909225	-0.445739	-3.082835	-0.956450	-1.797534	0.101062	0.513090	0.385815	0.766737	0.678279	-0.729668	-0.086733	0.526000	0.564563	-0.636076
26212	10.684715	-0.874490	-3.899959	-0.818327	-1.313691	-0.028311	0.519767	0.393389	0.758345	0.674134	-0.734130	-0.081221	0.524772	0.553442	-0.646774
26213	10.125675	-1.689594	-5.450554	-0.436632	-0.862807	-0.123090	0.523394	0.399040	0.752878	0.672503	-0.736036	-0.077404	0.523258	0.546826	-0.653592
26214	9.922039	-1.525125	-5.421317	0.071822	-0.339693	-0.144965	0.524159	0.401986	0.750776	0.673645	-0.735060	-0.076738	0.521018	0.545980	-0.656084
26215	9.223775	-0.914607	-4.788357	0.372565	0.176807	-0.164530	0.522061	0.402223	0.752110	0.676460	-0.732349	-0.077895	0.519475	0.549438	-0.654418
26216	8.534174	-0.873707	-4.797287	0.475668	0.701178	-0.179638	0.517166	0.399684	0.756830	0.679873	-0.728997	-0.079593	0.519915	0.555712	-0.648747
26217	8.114895	-1.060531	-5.412148	0.616069	1.210364	-0.199629	0.509430	0.394349	0.764834	0.684123	-0.724743	-0.081993	0.521974	0.565010	-0.638989
26218	7.622143	-0.932779	-5.681167	0.777843	1.686112	-0.199442	0.499198	0.386182	0.775670	0.689209	-0.719521	-0.085327	0.525159	0.577194	-0.625344
26219	7.097277	-0.735035	-5.451937	0.853828	2.111351	-0.183501	0.486721	0.375155	0.788899	0.694632	-0.713825	-0.089109	0.529706	0.591366	-0.608028
26220	6.722563	-0.447172	-5.234815	0.805441	2.485170	-0.189351	0.472124	0.361641	0.803937	0.699838	-0.708304	-0.092369	0.536028	0.606236	-0.587497
26221	6.488906	-0.848729	-5.481702	0.624087	2.822905	-0.189886	0.455462	0.345656	0.820412	0.704106	-0.703796	-0.094369	0.544784	0.620639	-0.563931
26222	6.199482	-2.130026	-6.315363	0.528548	3.125048	-0.196767	0.436852	0.327439	0.837821	0.707895	-0.699818	-0.095602	0.555018	0.634853	-0.537509
26223	6.161912	-3.022309	-6.825589	0.634759	3.401111	-0.209019	0.416245	0.307034	0.855845	0.712353	-0.695071	-0.097100	0.565060	0.650081	-0.508037
26224	6.326459	-3.454032	-7.072629	0.702842	3.647855	-0.241830	0.393688	0.284727	0.874037	0.717341	-0.689736	-0.098419	0.574832	0.665729	-0.475787
26225	6.664240	-3.742547	-6.861912	0.831741	3.853393	-0.271636	0.369338	0.260612	0.892004	0.723205	-0.683386	-0.099785	0.583578	0.681956	-0.440877
26226	6.854434	-3.057742	-6.078464	0.955348	4.022020	-0.305674	0.343457	0.234946	0.909306	0.729906	-0.676042	-0.101020	0.590994	0.698404	-0.403680
26227	7.111979	-2.314168	-5.764190	0.873490	4.118534	-0.310981	0.316616	0.207948	0.925479	0.736134	-0.669185	-0.101478	0.598215	0.713406	-0.364952
26228	7.469707	-1.871157	-5.650946	0.767340	4.177774	-0.288510	0.289305	0.179804	0.940198	0.741623	-0.663110	-0.101389	0.605225	0.726605	-0.325188
26229	7.756510	-1.324744	-5.571909	0.549714	4.225662	-0.213724	0.261910	0.150270	0.953322	0.745565	-0.658736	-0.100997	0.612810	0.737215	-0.284565
26230	7.749419	-1.323467	-5.779811	0.259127	4.247456	-0.126857	0.234710	0.119647	0.964674	0.747474	-0.656657	-0.100420	0.621445	0.744638	-0.243557
26231	7.766025	-1.665709	-6.147531	0.022800	4.263266	-0.017833	0.207816	0.087903	0.974210	0.747657	-0.656474	-0.100255	0.630731	0.749209	-0.202147
26232	7.932784	-2.175012	-6.541807	-0.146095	4.284141	0.076870	0.181126	0.055269	0.981906	0.746571	-0.657641	-0.100698	0.640176	0.751301	-0.160378
26233	8.449989	-2.886957	-6.722775	-0.209230	4.285365	0.140403	0.154487	0.022127	0.987747	0.744984	-0.659277	-0.101749	0.648948	0.751574	-0.118334
26234	8.987636	-3.310370	-6.980777	-0.100490	4.271855	0.181977	0.127933	-0.011158	0.991720	0.744060	-0.660061	-0.103411	0.655749	0.751129	-0.076142
26235	9.515096	-2.946982	-5.934921	0.236123	4.188342	0.212492	0.101929	-0.044039	0.993816	0.745363	-0.658240	-0.105615	0.658821	0.751519	-0.034269
26236	9.487505	-1.986595	-4.753353	0.307665	4.064751	0.242949	0.076894	-0.076160	0.994126	0.747162	-0.655803	-0.108033	0.660179	0.751080	0.006476
26237	9.514320	-1.329155	-4.358902	0.198522	3.844639	0.258821	0.053377	-0.106697	0.992858	0.748296	-0.654093	-0.110521	0.661214	0.748851	0.044927
26238	9.770776	-1.040474	-3.964394	0.137239	3.562197	0.272816	0.031817	-0.135080	0.990324	0.749073	-0.652761	-0.113103	0.661723	0.745424	0.080416
26239	9.685479	-1.015198	-3.159025	0.027612	3.249492	0.261601	0.012220	-0.160937	0.986889	0.749187	-0.652187	-0.115632	0.662246	0.740778	0.112602
26240	7.632174	-1.451899	-2.827043	-0.367848	2.769017	0.258461	-0.004263	-0.183022	0.983100	0.746719	-0.654479	-0.118605	0.665126	0.733594	0.139456
26241	6.051393	-2.543942	-3.645156	-0.249802	2.135565	0.183944	-0.017154	-0.199830	0.979680	0.745062	-0.655973	-0.120756	0.666775	0.727851	0.160138
26242	5.083834	-1.592436	-2.384607	0.127677	1.401883	0.105817	-0.025741	-0.210695	0.977213	0.745918	-0.654854	-0.121543	0.665541	0.725792	0.174018
26243	5.709335	-0.938875	-1.215677	-0.069006	0.682266	0.085511	-0.029682	-0.216195	0.975899	0.745467	-0.655194	-0.122475	0.665881	0.723865	0.180614
26244	5.930520	-0.594804	-0.893763	-0.411253	0.058188	0.102080	-0.029348	-0.217268	0.975671	0.742735	-0.657970	-0.124179	0.668942	0.721020	0.180682
26245	6.961655	-1.046992	-1.618891	-0.986236	-0.457227	0.107420	-0.025512	-0.214687	0.976350	0.736115	-0.664844	-0.126956	0.676376	0.715467	0.174996
26246	7.625473	-2.377953	-3.553123	-1.121731	-0.889233	0.133929	-0.018517	-0.209227	0.977692	0.728492	-0.672580	-0.130136	0.684804	0.709831	0.164874
26247	7.921452	-2.285919	-4.720755	-1.164317	-1.171265	0.130281	-0.009532	-0.201816	0.979377	0.720471	-0.680567	-0.133229	0.693420	0.704343	0.151889
26248	8.899618	-2.070387	-4.291215	-0.933738	-1.241746	0.099112	-0.000205	-0.193752	0.981051	0.713952	-0.686955	-0.135521	0.700195	0.700395	0.138470
26249	11.819915	-1.636334	-2.316115	-1.046667	-0.919514	0.066952	0.006719	-0.187784	0.982187	0.706565	-0.694151	-0.137548	0.707616	0.694904	0.128018
26250	10.955214	-1.523888	-3.263018	-1.084316	-0.491859	0.027946	0.010378	-0.184557	0.982767	0.698831	-0.701623	-0.139140	0.715211	0.688232	0.121693
26251	9.697364	-0.396423	-3.701518	-1.095772	-0.426418	-0.002593	0.013405	-0.181599	0.983281	0.690935	-0.709153	-0.140391	0.722792	0.681266	0.115967
26252	9.054427	-0.328370	-4.804612	-1.080602	-0.548869	-0.087906	0.016753	-0.177231	0.984027	0.683081	-0.716661	-0.140706	0.730151	0.674527	0.109057
26253	11.892300	0.017332	-3.026963	-0.705170	-0.739370	-0.207244	0.020742	-0.170742	0.985097	0.677935	-0.721788	-0.139378	0.734829	0.670723	0.100781
26254	15.282741	-0.462842	0.490575	-0.670421	-0.610234	-0.235776	0.023611	-0.164931	0.986022	0.673029	-0.726691	-0.137669	0.739239	0.666872	0.093845
26255	15.144697	-2.029602	1.083006	-0.770041	-0.456705	-0.238809	0.025383	-0.160125	0.986770	0.667356	-0.732219	-0.135985	0.744306	0.661978	0.088275
26256	12.155125	-2.186103	1.356164	-0.843501	-0.506011	-0.262221	0.027386	-0.154839	0.987560	0.661106	-0.738215	-0.134078	0.749793	0.656554	0.082148
26257	9.819673	-5.124114	-0.417109	-0.854380	-0.708810	-0.332052	0.030520	-0.147713	0.988559	0.654753	-0.744328	-0.131434	0.755227	0.651273	0.073998
26258	9.794167	-6.939052	-1.837191	-0.057251	-0.908770	-0.404380	0.034702	-0.138756	0.989718	0.654435	-0.745302	-0.127436	0.755322	0.652129	0.064943
26259	10.250564	-3.192037	-2.028927	0.703419	-0.962807	-0.405395	0.039277	-0.129405	0.990814	0.659862	-0.741256	-0.122969	0.750360	0.658630	0.056276
26260	9.995430	0.356525	-1.717892	0.541464	-0.906339	-0.351670	0.043697	-0.120789	0.991716	0.664043	-0.738137	-0.119163	0.746416	0.663749	0.047955
26261	9.487914	1.361143	-1.085351	0.279015	-0.811052	-0.311899	0.047659	-0.113065	0.992444	0.666247	-0.736667	-0.115920	0.744207	0.666737	0.040220
26262	9.231646	1.992108	-0.594887	-0.017082	-0.707986	-0.295622	0.050923	-0.106142	0.993046	0.666249	-0.737126	-0.112953	0.743989	0.667368	0.033180
26263	9.187414	1.866942	-0.823149	-0.335670	-0.634776	-0.299098	0.053653	-0.099671	0.993573	0.663886	-0.739692	-0.110053	0.745907	0.665524	0.026483
26264	9.428862	0.250331	-1.207501	-0.587708	-0.569281	-0.296746	0.055911	-0.093669	0.994032	0.659638	-0.743899	-0.107202	0.749501	0.661695	0.020196
26265	9.281241	-2.455309	-1.153193	-0.410260	-0.556559	-0.308125	0.058052	-0.087662	0.994457	0.656714	-0.746910	-0.104176	0.751902	0.659122	0.014209
26266	9.572589	-2.413720	-0.042504	0.044724	-0.602880	-0.348698	0.060257	-0.081059	0.994886	0.657240	-0.746928	-0.100663	0.751268	0.659945	0.008267
26267	9.864244	-1.749213	0.603692	0.141414	-0.641951	-0.348368	0.062776	-0.074182	0.995267	0.658497	-0.746285	-0.097159	0.749960	0.661480	0.001999
26268	9.931446	-1.047515	0.681039	0.181604	-0.718421	-0.332547	0.065931	-0.066920	0.995578	0.660056	-0.745336	-0.093811	0.748318	0.663322	-0.004970
26269	10.132133	-0.082372	0.657186	0.168606	-0.808843	-0.309763	0.069922	-0.059207	0.995794	0.661508	-0.744431	-0.090711	0.746671	0.665069	-0.012886
26270	10.176618	0.505420	0.480809	0.099166	-0.873759	-0.292427	0.074470	-0.051192	0.995908	0.662444	-0.743951	-0.087776	0.745401	0.666270	-0.021490
26271	9.916476	0.447993	-0.484140	0.024135	-0.905208	-0.269320	0.079419	-0.043121	0.995908	0.662813	-0.743937	-0.085067	0.744561	0.666857	-0.030502
26272	9.900235	0.136922	-1.517690	0.084364	-0.889544	-0.244459	0.084380	-0.035344	0.995807	0.663626	-0.743488	-0.082621	0.743290	0.667815	-0.039281
26273	10.238397	0.845647	-2.169912	0.171869	-0.818559	-0.225626	0.088948	-0.028160	0.995638	0.665080	-0.742430	-0.080415	0.741456	0.669332	-0.047309
26274	9.916564	0.233831	-3.036278	0.065075	-0.715855	-0.201657	0.092875	-0.021847	0.995438	0.665731	-0.742062	-0.078399	0.740390	0.669975	-0.054375
26275	9.538968	-0.788980	-3.224517	0.248516	-0.660705	-0.183329	0.096528	-0.016017	0.995201	0.667724	-0.740449	-0.076681	0.738124	0.671922	-0.060779
26276	9.660124	-0.477084	-2.345149	0.341334	-0.615280	-0.160433	0.099952	-0.010667	0.994935	0.670382	-0.738190	-0.075261	0.735254	0.674509	-0.066633
26277	9.734233	-0.557401	-1.497673	0.240694	-0.572356	-0.131801	0.103261	-0.005789	0.994637	0.672265	-0.736595	-0.074080	0.733073	0.676310	-0.072170
26278	9.622345	-1.073856	-0.910634	0.100112	-0.546346	-0.110024	0.106487	-0.001260	0.994313	0.673100	-0.735938	-0.073019	0.731845	0.677048	-0.077520
26279	9.581311	-1.347893	-0.333754	0.093776	-0.561356	-0.101702	0.109900	0.003330	0.993937	0.673879	-0.735321	-0.072047	0.730623	0.677711	-0.083056
26280	9.727795	-0.819874	0.080606	0.145054	-0.594322	-0.083283	0.113640	0.007995	0.993490	0.675017	-0.734349	-0.071302	0.728998	0.678725	-0.088848
26281	9.735930	-0.075705	0.224372	0.125929	-0.625648	-0.069568	0.117718	0.012793	0.992965	0.675998	-0.733505	-0.070691	0.727440	0.679563	-0.094995
26282	9.565530	-0.409944	0.073904	0.103348	-0.666390	-0.056915	0.122141	0.017763	0.992354	0.676804	-0.732810	-0.070185	0.725960	0.680201	-0.101528
26283	9.679378	-0.575699	-0.252838	0.234246	-0.699967	-0.057282	0.126816	0.022987	0.991660	0.678557	-0.731222	-0.069826	0.723518	0.681753	-0.108329
26284	9.524147	-0.416170	-0.452778	0.352971	-0.712564	-0.039003	0.131659	0.028160	0.990895	0.681143	-0.728817	-0.069791	0.720216	0.684129	-0.115136
26285	9.364753	-0.211370	-0.604414	0.458626	-0.753434	-0.029732	0.136857	0.033579	0.990022	0.684461	-0.725681	-0.070004	0.716089	0.687211	-0.122298
26286	9.698770	0.163968	-0.723360	0.406918	-0.757323	-0.012099	0.142147	0.038903	0.989081	0.687372	-0.722890	-0.070353	0.712260	0.689867	-0.129497
26287	9.508669	-0.007739	-1.386183	0.257970	-0.734143	0.014136	0.147451	0.043908	0.988094	0.689170	-0.721133	-0.070798	0.709438	0.691404	-0.136592
26288	9.694942	-0.241025	-2.128787	0.169802	-0.714596	0.024946	0.152649	0.048693	0.987080	0.690324	-0.719985	-0.071239	0.707214	0.692280	-0.143519
26289	9.505680	-0.566236	-2.805836	0.114123	-0.680977	0.048291	0.157780	0.053099	0.986046	0.691041	-0.719237	-0.071844	0.705385	0.692733	-0.150175
26290	9.457774	-0.622603	-2.820953	0.167988	-0.664741	0.055534	0.162810	0.057329	0.984990	0.692124	-0.718118	-0.072606	0.703177	0.693556	-0.156595
26291	9.569994	-0.401892	-2.577486	0.195090	-0.641548	0.066239	0.167762	0.061345	0.983917	0.693369	-0.716821	-0.073530	0.700782	0.694554	-0.162790
26292	9.618930	-0.160657	-2.205931	0.142498	-0.619100	0.076118	0.172586	0.065122	0.982839	0.694227	-0.715893	-0.074471	0.698759	0.695166	-0.168763
26293	9.637877	-0.723901	-1.973919	0.054879	-0.603733	0.086285	0.177389	0.068741	0.981737	0.694445	-0.715588	-0.075373	0.697338	0.695132	-0.174674
26294	9.241374	-1.469171	-1.638964	0.112421	-0.607759	0.084747	0.182175	0.072381	0.980598	0.695065	-0.714880	-0.076361	0.695483	0.695491	-0.180543
26295	9.209380	-1.635929	-1.163804	0.257629	-0.654503	0.084036	0.187291	0.076377	0.979331	0.696684	-0.713167	-0.077618	0.692498	0.696821	-0.186780
26296	9.402888	-0.983215	-0.230484	0.331884	-0.712680	0.095308	0.192842	0.080691	0.977906	0.698786	-0.710940	-0.079137	0.688847	0.698608	-0.193485
26297	9.319550	-0.866415	0.173326	0.324230	-0.771487	0.101200	0.198839	0.085406	0.976304	0.700802	-0.708773	-0.080726	0.685083	0.700248	-0.200785
26298	9.206705	-0.391698	0.702527	0.398987	-0.852680	0.109568	0.205395	0.090631	0.974474	0.703297	-0.706085	-0.082568	0.680578	0.702303	-0.208767
26299	9.270774	0.473924	0.776949	0.428791	-0.937130	0.119101	0.212575	0.096419	0.972376	0.705944	-0.703197	-0.084602	0.675615	0.704427	-0.217549
26300	9.442079	1.368132	0.669230	0.344625	-1.001476	0.150517	0.220347	0.102444	0.970027	0.707930	-0.700930	-0.086785	0.671030	0.705835	-0.226971
26301	9.510381	0.918821	-0.137366	0.219607	-1.053268	0.174865	0.228615	0.108690	0.967430	0.708997	-0.699580	-0.088947	0.667127	0.706240	-0.236995
26302	9.286696	0.296741	-1.015913	0.271922	-1.095973	0.196573	0.237262	0.115080	0.964605	0.710340	-0.697892	-0.091460	0.662665	0.706897	-0.247329
26303	9.009288	-0.095328	-1.734487	0.339774	-1.154841	0.231535	0.246511	0.121669	0.961472	0.712013	-0.695778	-0.094505	0.657473	0.707877	-0.258147
26304	9.369397	-0.437512	-1.938264	0.421283	-1.195058	0.258301	0.256138	0.128363	0.958079	0.714115	-0.693128	-0.098050	0.651486	0.709293	-0.269203
26305	9.354277	-0.535650	-1.695460	0.397936	-1.215345	0.291953	0.266086	0.135003	0.954449	0.715924	-0.690703	-0.101891	0.645485	0.710425	-0.280438
26306	9.121791	-0.524725	-1.224292	0.229784	-1.246672	0.337484	0.276483	0.141550	0.950537	0.716481	-0.689550	-0.105718	0.640478	0.710271	-0.292066
26307	9.307869	-0.722621	-1.093031	0.296323	-1.324972	0.356573	0.287464	0.148537	0.946204	0.717357	-0.687977	-0.109938	0.634636	0.710369	-0.304322
26308	10.008259	0.584808	0.054272	0.431821	-1.418228	0.369424	0.299030	0.156100	0.941389	0.718995	-0.685482	-0.114722	0.627397	0.711159	-0.317215
26309	11.257743	1.369131	0.607710	0.339277	-1.511251	0.394709	0.311273	0.164174	0.936032	0.719901	-0.683715	-0.119480	0.620364	0.711041	-0.331011
26310	12.974978	1.667215	0.503243	0.345237	-1.606187	0.401285	0.324031	0.172872	0.930118	0.720753	-0.681948	-0.124347	0.612796	0.710677	-0.345570
26311	13.633852	0.319444	0.404801	0.003927	-1.615256	0.415730	0.336848	0.181519	0.923896	0.719399	-0.682671	-0.128164	0.607453	0.707821	-0.360541
26312	13.446052	-2.962855	-1.512072	0.141277	-1.703898	0.385150	0.349875	0.190952	0.917129	0.718928	-0.682400	-0.132184	0.600608	0.705598	-0.376035
26313	14.880778	-3.111256	-0.748482	0.533477	-1.827983	0.367046	0.363367	0.201376	0.909622	0.720794	-0.679367	-0.137534	0.590272	0.705626	-0.392010
26314	15.672844	-3.060412	0.223318	0.458043	-1.888352	0.403161	0.377289	0.211978	0.901509	0.721982	-0.676980	-0.142972	0.579996	0.704815	-0.408462
26315	15.045714	-1.555722	2.597881	0.253626	-1.926213	0.449960	0.391582	0.222506	0.892835	0.721713	-0.676182	-0.148017	0.570784	0.702331	-0.425366
26316	14.215255	-0.784521	3.745408	-0.311156	-1.974102	0.500723	0.406364	0.232931	0.883522	0.717949	-0.679505	-0.151067	0.565170	0.695712	-0.443359
26317	13.562329	-0.718880	2.841423	-0.873328	-2.056028	0.533897	0.421729	0.243489	0.873417	0.710817	-0.686812	-0.151750	0.562924	0.684838	-0.462725
26318	13.122014	-0.717883	1.733248	-0.901076	-2.179305	0.488523	0.437385	0.254934	0.862382	0.703663	-0.694155	-0.151683	0.559957	0.673170	-0.483001
26319	12.720655	-0.417158	0.328095	-1.122816	-2.240556	0.426260	0.452838	0.266895	0.850708	0.695498	-0.702752	-0.149742	0.557871	0.659475	-0.503858
26320	12.024793	-0.028693	-2.872126	-1.015975	-2.298749	0.317585	0.467786	0.279678	0.838425	0.688390	-0.710257	-0.147152	0.554342	0.646000	-0.524776
26321	11.980999	1.291613	-4.209705	-0.696514	-2.404776	0.181557	0.482227	0.293784	0.825317	0.683700	-0.715236	-0.144882	0.547732	0.634135	-0.545767
26322	12.036606	0.722750	-5.109096	-0.862928	-2.351310	0.112757	0.495775	0.307751	0.812093	0.678453	-0.720994	-0.140960	0.542134	0.620852	-0.566246
26323	11.377954	-0.441138	-5.318612	-0.567190	-2.156222	0.146671	0.508324	0.319970	0.799516	0.674673	-0.724944	-0.138824	0.535185	0.609979	-0.584381
26324	10.021201	0.145473	-4.494259	-0.413545	-1.898425	0.159335	0.519458	0.330328	0.788065	0.671663	-0.727968	-0.137593	0.528236	0.600788	-0.600017
26325	10.318992	0.232808	-2.521644	-0.661076	-1.503898	0.109084	0.528047	0.338501	0.778835	0.667624	-0.732270	-0.134383	0.524829	0.590929	-0.612664
26326	8.683252	0.140048	-2.638749	-0.886246	-0.989158	-0.027761	0.533024	0.344524	0.772780	0.663125	-0.737370	-0.128652	0.525501	0.581024	-0.621498
26327	7.594778	-1.086934	-3.930110	-0.998724	-0.574757	-0.186173	0.534761	0.349223	0.769464	0.658867	-0.742477	-0.120923	0.529080	0.571639	-0.627139
26328	7.170698	-2.677122	-5.482338	-0.596749	-0.132732	-0.260964	0.533716	0.351942	0.768950	0.657102	-0.744959	-0.115122	0.532320	0.566721	-0.628858
26329	7.315674	-2.692037	-5.711250	0.054961	0.311646	-0.319110	0.529891	0.352556	0.771310	0.659106	-0.743520	-0.112953	0.533662	0.568228	-0.626356
26330	7.278069	-2.099108	-5.140019	0.530148	0.756938	-0.382062	0.523289	0.351086	0.776471	0.663956	-0.739145	-0.113253	0.534163	0.574807	-0.619893
26331	7.141804	-1.704921	-5.213276	0.787015	1.200294	-0.446934	0.513826	0.347422	0.784398	0.670495	-0.733018	-0.114548	0.535182	0.584793	-0.609588
26332	6.887807	-1.666663	-5.176641	1.030634	1.612584	-0.509624	0.501714	0.341625	0.794717	0.678613	-0.725168	-0.116688	0.536440	0.597849	-0.595658
26333	6.826635	-1.455220	-5.237401	1.247180	1.981707	-0.553881	0.487220	0.333616	0.807042	0.688063	-0.715741	-0.119517	0.537760	0.613527	-0.578272
26334	6.760291	-1.045428	-5.087289	1.402600	2.309796	-0.591694	0.470646	0.323466	0.820891	0.698456	-0.705070	-0.122622	0.539122	0.631067	-0.557765
26335	6.859339	-0.394530	-4.911132	1.428116	2.590142	-0.607687	0.452313	0.311137	0.835827	0.708985	-0.693997	-0.125331	0.541067	0.649278	-0.534495
26336	6.980170	0.201184	-4.869298	1.284879	2.840657	-0.617867	0.432447	0.296720	0.851438	0.718698	-0.683668	-0.126775	0.544484	0.666750	-0.508902
26337	7.485222	0.006679	-5.409618	1.010763	3.059484	-0.604118	0.411266	0.280185	0.867385	0.726788	-0.675107	-0.126528	0.550126	0.682442	-0.481284
26338	8.055971	-0.825118	-5.968649	0.890765	3.241467	-0.571001	0.389120	0.261675	0.883239	0.734006	-0.667421	-0.125639	0.556616	0.697191	-0.451778
26339	8.180666	-1.123894	-5.551338	0.893101	3.386219	-0.544768	0.366076	0.241436	0.898719	0.741069	-0.659762	-0.124619	0.562854	0.711634	-0.420444
26340	8.587463	-0.562450	-5.045199	0.722872	3.482138	-0.530366	0.342371	0.219932	0.913462	0.747043	-0.653356	-0.122689	0.569833	0.724400	-0.387988
26341	8.864367	-0.526138	-4.818273	0.362447	3.548544	-0.518050	0.318036	0.197426	0.927295	0.750840	-0.649638	-0.119206	0.578872	0.734161	-0.354844
26342	9.103238	-1.112367	-4.800370	0.055868	3.586947	-0.492559	0.293341	0.174178	0.940007	0.752670	-0.648322	-0.114749	0.589440	0.741175	-0.321278
26343	9.186766	-1.457841	-4.631791	-0.079797	3.602516	-0.479670	0.268226	0.150489	0.951529	0.753543	-0.648146	-0.109908	0.600190	0.746498	-0.287250
26344	9.253908	-1.142471	-4.335472	-0.247489	3.590187	-0.467587	0.242917	0.126677	0.961740	0.753234	-0.649363	-0.104721	0.611253	0.749854	-0.253159
26345	9.425031	-1.254540	-4.455169	-0.534460	3.596438	-0.438447	0.217341	0.102552	0.970693	0.750940	-0.652882	-0.099162	0.623579	0.750485	-0.218909
26346	9.190750	-2.379821	-4.761445	-0.769230	3.600909	-0.415904	0.191495	0.078302	0.978365	0.746935	-0.658288	-0.093512	0.636724	0.748683	-0.184545
26347	8.788963	-4.023898	-5.279632	-0.745358	3.578028	-0.406842	0.165397	0.054250	0.984734	0.742865	-0.663604	-0.088214	0.648688	0.746114	-0.150059
26348	8.686256	-4.472842	-4.863067	-0.360642	3.505399	-0.416242	0.139389	0.030896	0.989756	0.741135	-0.666133	-0.083582	0.656727	0.745193	-0.115749
26349	8.756974	-4.257892	-4.345126	-0.032483	3.419270	-0.411057	0.113744	0.008149	0.993477	0.741432	-0.666311	-0.079421	0.661317	0.745629	-0.081831
26350	8.799014	-3.629172	-4.753371	0.274009	3.334698	-0.382230	0.088790	-0.014184	0.995949	0.743621	-0.664295	-0.075756	0.662679	0.747335	-0.048435
26351	9.093717	-1.865284	-3.985116	0.591190	3.257693	-0.308923	0.064872	-0.036531	0.997225	0.747760	-0.659964	-0.072820	0.660792	0.750409	-0.015496
26352	9.680451	-0.017111	-3.035868	0.439740	3.161509	-0.212511	0.042374	-0.058862	0.997366	0.750762	-0.656783	-0.070658	0.659212	0.751779	0.016361
26353	10.560650	0.871471	-2.046104	0.197027	3.044424	-0.077126	0.021678	-0.081223	0.996460	0.752072	-0.655376	-0.069782	0.658724	0.750923	0.046878
26354	8.685593	0.852452	-2.236227	-0.641004	2.843179	0.123135	0.003760	-0.103269	0.994646	0.747801	-0.660077	-0.071360	0.663912	0.744066	0.074743
26355	8.340159	-1.368517	-2.914756	-1.017950	2.517571	0.263418	-0.011140	-0.123617	0.992267	0.740998	-0.667326	-0.074817	0.671415	0.734435	0.099034
26356	7.315132	-2.777366	-2.583321	-0.884591	2.132083	0.297206	-0.023366	-0.141157	0.989711	0.735065	-0.673414	-0.078692	0.677594	0.725664	0.119494
26357	7.138405	-2.636828	-2.229472	-0.689570	1.655294	0.218920	-0.033063	-0.154574	0.987428	0.730421	-0.678094	-0.081693	0.682196	0.718537	0.135324
26358	7.444127	-2.008665	-1.959483	-0.697630	1.224989	0.136005	-0.040495	-0.164241	0.985589	0.725677	-0.682891	-0.083983	0.686843	0.711818	0.146840
26359	7.400394	-2.150925	-2.040664	-0.723377	0.814231	0.091634	-0.045487	-0.170622	0.984286	0.720712	-0.687888	-0.085936	0.691741	0.705478	0.154259
26360	7.673552	-2.410620	-1.893893	-0.749302	0.426474	0.083519	-0.047885	-0.174175	0.983550	0.715529	-0.693032	-0.087891	0.696940	0.699550	0.157813
26361	7.826950	-2.349939	-1.988082	-0.801761	0.074428	0.101706	-0.047718	-0.175381	0.983343	0.709948	-0.698464	-0.090121	0.702636	0.693822	0.157841
26362	7.999348	-2.532646	-2.748962	-0.858797	-0.243597	0.128009	-0.045131	-0.174576	0.983609	0.703927	-0.704199	-0.092686	0.708837	0.688206	0.154669
26363	8.132228	-2.393771	-3.520035	-0.759043	-0.514144	0.146162	-0.040479	-0.172060	0.984254	0.698569	-0.709176	-0.095243	0.714397	0.683714	0.148902
26364	7.969417	-1.176469	-3.651505	-0.844056	-0.709486	0.177387	-0.034191	-0.168468	0.985114	0.692560	-0.714648	-0.098178	0.720550	0.678893	0.141109
26365	7.625427	-0.275819	-4.521867	-1.205530	-0.896721	0.186673	-0.026433	-0.163728	0.986151	0.683857	-0.722503	-0.101625	0.729137	0.671701	0.131064
26366	8.253386	-0.891960	-5.485080	-1.444598	-1.067593	0.149043	-0.017619	-0.157666	0.987335	0.673265	-0.731927	-0.104866	0.739191	0.662891	0.119047
26367	11.250770	-2.749766	-4.957192	-1.125767	-0.945170	0.107699	-0.009896	-0.152193	0.988301	0.664894	-0.739209	-0.107176	0.746872	0.656055	0.108507
26368	10.970130	-2.263592	-3.463223	-0.989081	-0.568736	0.095208	-0.005035	-0.149164	0.988800	0.657462	-0.745544	-0.109121	0.753471	0.649549	0.101824
26369	10.178043	-2.624013	-3.117981	-1.097688	-0.406628	0.073810	-0.001488	-0.147055	0.989127	0.649132	-0.752548	-0.110906	0.760675	0.641909	0.096578
26370	9.897359	-3.015098	-2.662367	-1.026815	-0.341420	0.091678	0.001678	-0.145546	0.989350	0.641268	-0.758989	-0.112744	0.767315	0.634628	0.092061
26371	10.128592	-3.536173	-1.485023	-0.736810	-0.436635	0.055326	0.005383	-0.143169	0.989684	0.635572	-0.763591	-0.113919	0.772023	0.629629	0.086883
26372	12.702359	-3.363952	0.281901	-0.385770	-0.546638	-0.016692	0.009470	-0.139582	0.990165	0.632572	-0.766060	-0.114040	0.774444	0.627430	0.081041
26373	13.849270	-2.706490	1.742433	-0.203046	-0.552159	-0.059761	0.013368	-0.135623	0.990670	0.630982	-0.767438	-0.113577	0.775682	0.626614	0.075317
26374	12.769197	-1.188977	2.125942	-0.223378	-0.610677	-0.100336	0.017442	-0.131005	0.991228	0.629245	-0.768992	-0.112706	0.777011	0.625691	0.069021
26375	11.229253	-0.283136	1.468576	-0.350425	-0.756007	-0.145238	0.022408	-0.125126	0.991888	0.626525	-0.771389	-0.111464	0.779079	0.623941	0.061109
26376	10.361666	-0.390871	0.736423	-0.375156	-0.902982	-0.178325	0.028304	-0.118098	0.992598	0.623625	-0.773964	-0.109868	0.781211	0.622119	0.051743
26377	9.986721	-0.306454	0.270563	-0.384446	-0.919669	-0.198444	0.034258	-0.110810	0.993251	0.620659	-0.776601	-0.108046	0.783332	0.620171	0.042170
26378	9.485059	-0.322131	-0.938764	-0.471251	-0.881904	-0.202652	0.039889	-0.103751	0.993803	0.617018	-0.779754	-0.106171	0.785937	0.617430	0.032912
26379	9.241215	-0.333300	-1.366123	-0.330602	-0.851986	-0.227904	0.045184	-0.096679	0.994289	0.614493	-0.782042	-0.103966	0.787628	0.615681	0.024073
26380	9.419808	-0.186403	-1.179654	-0.235202	-0.788585	-0.241251	0.049885	-0.089915	0.994699	0.612736	-0.783733	-0.101574	0.788712	0.614555	0.015998
26381	9.384089	-0.057070	-0.753359	-0.297119	-0.706211	-0.227711	0.054063	-0.083753	0.995019	0.610487	-0.785775	-0.099311	0.790179	0.612815	0.008649
26382	9.074128	-0.786368	-0.996181	-0.489184	-0.656010	-0.222763	0.057866	-0.077965	0.995275	0.606723	-0.788964	-0.097079	0.792805	0.609474	0.001649
26383	9.258441	-1.832346	-1.279983	-0.572777	-0.641176	-0.243504	0.061484	-0.072102	0.995500	0.602297	-0.792646	-0.094608	0.795901	0.605403	-0.005308
26384	9.377639	-3.034399	-1.430897	-0.459263	-0.623081	-0.249613	0.064918	-0.066333	0.995684	0.598776	-0.795610	-0.092043	0.798281	0.602167	-0.011931
26385	9.640591	-2.638577	-1.166822	-0.215532	-0.633510	-0.253815	0.068459	-0.060458	0.995820	0.597203	-0.797087	-0.089448	0.799163	0.600831	-0.018462
26386	10.154674	-1.412026	-1.185878	-0.179033	-0.652790	-0.248651	0.072162	-0.054531	0.995901	0.595930	-0.798322	-0.086893	0.799788	0.599757	-0.025112
26387	10.341694	-0.790026	-1.444628	-0.154188	-0.687441	-0.245009	0.076203	-0.048412	0.995916	0.594858	-0.799391	-0.084374	0.800211	0.598858	-0.032118
26388	10.478213	-0.489706	-1.808367	-0.023104	-0.680839	-0.228534	0.080258	-0.042481	0.995868	0.594835	-0.799650	-0.082049	0.799831	0.598962	-0.038909
26389	10.418278	1.010594	-1.504280	-0.001582	-0.624205	-0.222888	0.083925	-0.036916	0.995788	0.594985	-0.799766	-0.079794	0.799343	0.599176	-0.045156
26390	10.122688	0.258441	-2.365316	-0.170094	-0.571187	-0.204478	0.087244	-0.031835	0.995678	0.593784	-0.800871	-0.077635	0.799881	0.597991	-0.050968
26391	9.856644	-0.503603	-2.593359	-0.031173	-0.518708	-0.185959	0.090290	-0.027198	0.995544	0.593679	-0.801131	-0.075730	0.799621	0.597871	-0.056187
26392	9.918543	-0.503646	-2.227670	0.083586	-0.476246	-0.162628	0.093097	-0.023021	0.995391	0.594480	-0.800687	-0.074119	0.798703	0.598640	-0.060856
26393	10.259222	-0.170107	-1.994618	0.234666	-0.436633	-0.140829	0.095746	-0.019229	0.995220	0.596465	-0.799328	-0.072827	0.796908	0.600587	-0.065063
26394	10.448570	0.585626	-1.601617	0.245390	-0.404247	-0.110060	0.098273	-0.015893	0.995033	0.598509	-0.797887	-0.071855	0.795066	0.602597	-0.068899
26395	10.055376	0.223277	-1.594997	0.084078	-0.356010	-0.071397	0.100679	-0.013127	0.994832	0.599228	-0.797409	-0.071165	0.794223	0.603296	-0.072416
26396	9.710683	-0.612967	-1.710736	0.075186	-0.332408	-0.045730	0.103010	-0.010731	0.994622	0.599856	-0.796976	-0.070724	0.793450	0.603915	-0.075660
26397	9.585839	-0.846947	-1.428312	0.177334	-0.324013	-0.033706	0.105381	-0.008453	0.994396	0.601276	-0.795926	-0.070486	0.792062	0.605334	-0.078793
26398	9.457507	-0.857374	-1.168044	0.324181	-0.318136	-0.033356	0.107663	-0.006233	0.994168	0.603860	-0.793978	-0.070373	0.789786	0.607915	-0.081718
26399	9.584265	-0.240144	-0.422866	0.453232	-0.337932	-0.021221	0.110203	-0.003954	0.993901	0.607436	-0.791234	-0.070500	0.786687	0.611501	-0.084795
26400	9.602175	0.136409	0.219807	0.358009	-0.343507	-0.006934	0.112826	-0.001769	0.993613	0.610240	-0.789055	-0.070698	0.784141	0.614320	-0.087946
26401	9.493681	-0.372845	0.419274	0.270173	-0.367020	0.007900	0.115751	0.000477	0.993278	0.612327	-0.787412	-0.070979	0.782085	0.616427	-0.091436
26402	9.466531	-0.689517	0.530510	0.285073	-0.421928	0.019579	0.119133	0.002954	0.992874	0.614516	-0.785667	-0.071398	0.779857	0.618643	-0.095414
26403	9.575798	-0.527221	0.516586	0.303015	-0.465243	0.027776	0.122928	0.005668	0.992399	0.616823	-0.783809	-0.071929	0.777444	0.620977	-0.099848
26404	9.578013	-0.290437	0.206301	0.268692	-0.489900	0.032607	0.126899	0.008484	0.991879	0.618854	-0.782155	-0.072485	0.775188	0.623026	-0.104505
26405	9.436638	-0.263019	-0.253611	0.219170	-0.514220	0.041314	0.131136	0.011417	0.991299	0.620478	-0.780810	-0.073088	0.773182	0.624664	-0.109476
26406	9.566911	-0.348544	-0.683490	0.238688	-0.544389	0.051648	0.135626	0.014444	0.990655	0.622239	-0.779339	-0.073825	0.770989	0.626436	-0.114686
26407	9.886004	-0.139634	-0.912458	0.233304	-0.559456	0.058884	0.140299	0.017542	0.989954	0.623935	-0.777903	-0.074641	0.768779	0.628139	-0.120084
26408	9.576957	-0.440671	-1.242754	0.137325	-0.547288	0.078942	0.144961	0.020393	0.989227	0.624864	-0.777070	-0.075548	0.767158	0.629084	-0.125387
26409	9.399039	-0.681127	-1.439782	0.195603	-0.561851	0.085827	0.149800	0.023312	0.988441	0.626218	-0.775875	-0.076606	0.765121	0.630456	-0.130825
26410	9.614597	-0.585196	-1.288756	0.182471	-0.568256	0.104496	0.154764	0.026112	0.987606	0.627441	-0.774764	-0.077839	0.763129	0.631711	-0.136289
26411	9.481877	-1.024597	-1.431079	0.178330	-0.581802	0.117704	0.159934	0.028927	0.986704	0.628597	-0.773687	-0.079207	0.761109	0.632907	-0.141923
26412	9.534672	-0.735431	-1.132942	0.298785	-0.607726	0.130621	0.165340	0.031794	0.985724	0.630642	-0.771847	-0.080885	0.758257	0.635012	-0.147668
26413	9.456459	-0.052806	-0.606059	0.285468	-0.629795	0.146059	0.171026	0.034720	0.984655	0.632540	-0.770099	-0.082712	0.755409	0.636979	-0.153669
26414	9.285916	0.058163	-0.314472	0.224811	-0.662380	0.160458	0.177004	0.037733	0.983487	0.633944	-0.768737	-0.084600	0.752851	0.638450	-0.159990
26415	9.290829	0.051288	-0.043505	0.211777	-0.723498	0.184369	0.183606	0.040988	0.982145	0.635187	-0.767475	-0.086716	0.750217	0.639767	-0.166948
26416	9.265709	0.134056	0.259067	0.219102	-0.781669	0.202764	0.190715	0.044462	0.980638	0.636437	-0.766173	-0.089036	0.747379	0.641095	-0.174418
26417	9.162190	0.183337	0.543713	0.263410	-0.855552	0.224930	0.198521	0.048278	0.978907	0.637948	-0.764604	-0.091666	0.744051	0.642689	-0.182588
26418	9.101247	0.475993	0.950519	0.284310	-0.943544	0.249004	0.207080	0.052471	0.976916	0.639543	-0.762914	-0.094589	0.740340	0.644367	-0.191542
26419	9.192831	0.528646	1.180593	0.267332	-1.043075	0.270459	0.216503	0.057183	0.974606	0.640929	-0.761356	-0.097707	0.736435	0.645807	-0.201486
26420	9.233271	0.144543	1.214671	0.268267	-1.147037	0.296820	0.226796	0.062364	0.971944	0.642232	-0.759813	-0.101107	0.732190	0.647144	-0.212375
26421	9.398555	0.308257	1.499985	0.350721	-1.257284	0.317362	0.237995	0.068146	0.968873	0.644040	-0.757765	-0.104905	0.727029	0.648959	-0.224233
26422	8.809960	-0.120046	1.257713	0.276023	-1.347178	0.347903	0.249964	0.074286	0.965401	0.645183	-0.756233	-0.108862	0.721981	0.650072	-0.236959
26423	8.660325	-0.377114	1.367773	0.324976	-1.497718	0.371054	0.263110	0.081269	0.961337	0.646556	-0.754424	-0.113180	0.716058	0.651336	-0.251042
26424	8.757663	-0.428939	1.692456	0.403673	-1.638780	0.405124	0.277376	0.088928	0.956637	0.648330	-0.752149	-0.118064	0.709035	0.652965	-0.266283
26425	9.596559	0.523990	2.473334	0.496471	-1.833234	0.448412	0.293186	0.097587	0.951062	0.650541	-0.749337	-0.123655	0.700599	0.654958	-0.283179
26426	11.707829	1.929764	3.487352	0.412355	-2.010282	0.495297	0.310374	0.107080	0.944564	0.651912	-0.747153	-0.129511	0.691866	0.655969	-0.301704
26427	13.574645	1.329981	3.333587	0.155778	-2.121416	0.533750	0.328416	0.117030	0.937255	0.651272	-0.746746	-0.134964	0.684097	0.654732	-0.321462
26428	13.850479	-1.107077	2.894381	-0.061881	-2.186042	0.578052	0.347019	0.127012	0.929218	0.648895	-0.747867	-0.140108	0.677136	0.651585	-0.341941
26429	13.625231	-3.750980	1.190675	0.211240	-2.365552	0.588744	0.366701	0.138034	0.920042	0.648210	-0.747286	-0.146241	0.667349	0.650007	-0.363506
26430	15.981561	-1.700123	3.817451	0.580845	-2.619396	0.512885	0.387300	0.151266	0.909460	0.650112	-0.744261	-0.153065	0.653722	0.650533	-0.386592
26431	17.115486	-1.143443	2.310563	0.210058	-2.754584	0.451409	0.408026	0.165811	0.897787	0.649678	-0.743624	-0.157927	0.641430	0.647711	-0.411142
26432	17.073448	-0.255551	2.989607	-0.326138	-2.790679	0.456777	0.428720	0.180405	0.885242	0.645692	-0.746525	-0.160571	0.631887	0.640433	-0.436536
26433	16.370555	0.067006	2.617621	-1.012439	-2.749099	0.437558	0.448768	0.194571	0.872210	0.637407	-0.753773	-0.159808	0.626354	0.627669	-0.462290
26434	14.476193	0.766887	0.543531	-1.527904	-2.725472	0.322763	0.467809	0.209020	0.858758	0.626382	-0.763892	-0.155292	0.623539	0.610557	-0.488282
26435	13.266859	0.011796	-3.790130	-1.302514	-2.918658	0.078059	0.486347	0.226016	0.844028	0.617933	-0.771913	-0.149362	0.617758	0.594194	-0.515080
26436	13.027664	-1.278962	-5.308310	-1.118369	-2.894780	-0.082473	0.503585	0.243657	0.828875	0.611478	-0.778284	-0.142720	0.610325	0.578710	-0.540923
26437	12.008683	-2.319967	-6.437084	-0.624416	-2.713623	-0.085253	0.519426	0.259882	0.814038	0.608145	-0.781649	-0.138507	0.600297	0.566997	-0.564055
26438	10.859468	0.596319	-5.452272	-0.479706	-2.430495	-0.009749	0.533807	0.273640	0.800107	0.605346	-0.784322	-0.135628	0.590428	0.556741	-0.584324
26439	11.444264	0.980857	-3.242674	-1.274344	-2.000727	-0.031286	0.545336	0.284883	0.788321	0.598022	-0.791231	-0.127758	0.587348	0.541105	-0.601853
26440	9.571791	-1.320541	-3.304031	-1.588970	-1.372078	-0.188732	0.552257	0.293720	0.780218	0.589717	-0.799153	-0.116567	0.589276	0.524483	-0.614550
26441	8.141554	-2.794250	-4.738736	-1.473443	-0.858463	-0.375182	0.555064	0.301185	0.775365	0.583094	-0.805659	-0.104470	0.593216	0.510098	-0.622812
26442	7.795724	-4.699710	-6.197683	-0.728085	-0.321045	-0.471224	0.554199	0.306640	0.773845	0.581387	-0.807917	-0.096227	0.595695	0.503232	-0.626023
26443	7.327159	-3.948097	-5.923498	0.150413	0.225585	-0.474018	0.550023	0.309339	0.775747	0.584912	-0.805697	-0.093435	0.596114	0.505136	-0.624088
