// General information: 
//  MT Manager version: 2022.2.0 
//  XDA version: 2022.2.0 build 7381 rev 124627 built on 2023-07-19
// Device information: 
//  DeviceId: 00B4CBA7
//  ProductCode: MTW2-3A7G6
//  Firmware Version: 4.6.0
//  Hardware Version: 2.0.0
// Device settings: 
//  Filter Profile: human(46.1)
//  Option Flags: Orientation Smoother Disabled, Position/Velocity Smoother Disabled, Continuous Zero Rotation Update Disabled, AHS Disabled, ICC Disabled
// Coordinate system: ENU
PacketCounter	Acc_X	Acc_Y	Acc_Z	Gyr_X	Gyr_Y	Gyr_Z	Mat[1][1]	Mat[2][1]	Mat[3][1]	Mat[1][2]	Mat[2][2]	Mat[3][2]	Mat[1][3]	Mat[2][3]	Mat[3][3]
20588	9.336537	-0.045782	-1.575178	-0.035569	-0.789013	-0.097871	-0.051430	-0.229903	0.971854	-0.998618	0.022407	-0.047545	-0.010845	-0.972955	-0.230738
20589	9.225219	-0.099404	-2.206247	-0.088294	-0.815476	-0.090480	-0.050568	-0.237841	0.969987	-0.998656	0.023063	-0.046408	-0.011333	-0.971030	-0.238688
20590	9.283658	-0.454380	-2.565094	-0.155146	-0.828862	-0.089974	-0.049722	-0.245892	0.968021	-0.998685	0.024354	-0.045111	-0.012483	-0.968991	-0.246780
20591	9.388525	-0.811648	-2.613560	-0.200765	-0.843070	-0.103779	-0.048750	-0.254070	0.965957	-0.998712	0.026046	-0.043552	-0.014094	-0.966835	-0.255012
20592	9.474741	-1.129488	-2.483091	-0.176731	-0.836850	-0.112756	-0.047702	-0.262170	0.963842	-0.998742	0.027468	-0.041958	-0.015475	-0.964631	-0.263150
20593	9.550441	-1.179325	-2.818753	-0.064439	-0.847269	-0.125486	-0.046532	-0.270359	0.961634	-0.998793	0.027762	-0.040525	-0.015741	-0.962359	-0.271325
20594	9.657774	-0.847693	-3.551972	0.029141	-0.829677	-0.137284	-0.045244	-0.278361	0.959410	-0.998862	0.027110	-0.039239	-0.015087	-0.960094	-0.279270
20595	9.544956	-0.475622	-4.224382	0.040682	-0.786710	-0.157021	-0.043742	-0.285938	0.957249	-0.998940	0.026283	-0.037797	-0.014352	-0.957888	-0.286785
20596	9.451026	-0.123555	-4.595554	0.016231	-0.746252	-0.170741	-0.042097	-0.293112	0.955151	-0.999017	0.025638	-0.036163	-0.013888	-0.955734	-0.293903
20597	9.478753	-0.029985	-4.805507	-0.016709	-0.697977	-0.174420	-0.040403	-0.299811	0.953143	-0.999088	0.025286	-0.034397	-0.013789	-0.953663	-0.300560
20598	9.590134	-0.038600	-5.065789	-0.047141	-0.636502	-0.174046	-0.038707	-0.305910	0.951273	-0.999152	0.025212	-0.032548	-0.014027	-0.951727	-0.306626
20599	9.506353	0.048171	-5.104568	-0.058913	-0.571656	-0.169865	-0.037043	-0.311379	0.949563	-0.999210	0.025253	-0.030698	-0.014420	-0.949950	-0.312069
20600	9.460456	0.183494	-4.991916	-0.102431	-0.512707	-0.165230	-0.035422	-0.316280	0.948004	-0.999256	0.025710	-0.028760	-0.015277	-0.948317	-0.316955
20601	9.568696	0.179568	-4.773571	-0.152231	-0.464895	-0.161718	-0.033832	-0.320719	0.946570	-0.999289	0.026642	-0.026689	-0.016659	-0.946800	-0.321392
20602	9.661204	0.101868	-4.624858	-0.164089	-0.405236	-0.145395	-0.032404	-0.324586	0.945301	-0.999309	0.027729	-0.024734	-0.018184	-0.945450	-0.325260
20603	9.643465	0.246607	-4.219406	-0.188734	-0.367636	-0.133584	-0.031091	-0.328088	0.944135	-0.999317	0.029081	-0.022802	-0.019975	-0.944199	-0.328769
20604	9.935671	0.562562	-3.697719	-0.229618	-0.348988	-0.136716	-0.029752	-0.331417	0.943015	-0.999311	0.030800	-0.020704	-0.022183	-0.942982	-0.332105
20605	10.038802	0.315529	-3.319554	-0.220262	-0.350037	-0.125976	-0.028526	-0.334747	0.941876	-0.999298	0.032460	-0.018729	-0.024304	-0.941749	-0.335438
20606	9.990564	0.201936	-3.117088	-0.106558	-0.364681	-0.120581	-0.027365	-0.338213	0.940672	-0.999306	0.033060	-0.017184	-0.025287	-0.940489	-0.338883
20607	9.860090	0.239001	-2.827396	-0.067371	-0.369214	-0.107216	-0.026339	-0.341710	0.939436	-0.999318	0.033332	-0.015894	-0.025883	-0.939214	-0.342355
20608	9.799876	0.284565	-2.433349	-0.044686	-0.417967	-0.102192	-0.025380	-0.345661	0.938016	-0.999333	0.033404	-0.014730	-0.026242	-0.937765	-0.346279
20609	9.844823	0.325288	-2.054136	-0.071873	-0.466257	-0.098486	-0.024471	-0.350054	0.936410	-0.999340	0.033737	-0.013504	-0.026865	-0.936122	-0.350649
20610	9.909712	0.310774	-1.662680	-0.140273	-0.507945	-0.083004	-0.023734	-0.354826	0.934631	-0.999321	0.034759	-0.012181	-0.028165	-0.934286	-0.355411
20611	9.933393	0.298788	-1.467896	-0.209262	-0.556191	-0.078269	-0.023066	-0.360037	0.932653	-0.999279	0.036434	-0.010648	-0.030147	-0.932226	-0.360618
20612	9.924696	0.325009	-1.186904	-0.228323	-0.639608	-0.070245	-0.022516	-0.366010	0.930338	-0.999224	0.038307	-0.009112	-0.032303	-0.929822	-0.366589
20613	9.975590	0.383133	-0.934578	-0.220693	-0.743844	-0.058246	-0.022133	-0.372931	0.927595	-0.999164	0.040142	-0.007702	-0.034363	-0.926990	-0.373508
20614	10.088073	0.493498	-0.791875	-0.173006	-0.857999	-0.032762	-0.022059	-0.380874	0.924364	-0.999111	0.041620	-0.006694	-0.035922	-0.923690	-0.381453
20615	10.262305	0.646829	-0.946287	-0.096884	-0.962153	-0.011742	-0.022242	-0.389740	0.920656	-0.999079	0.042468	-0.006159	-0.036698	-0.919945	-0.390326
20616	10.203989	0.783620	-1.126680	-0.080557	-1.057726	0.014307	-0.022727	-0.399431	0.916482	-0.999046	0.043263	-0.005919	-0.037285	-0.915742	-0.400033
20617	10.054800	0.817869	-1.258850	-0.052089	-1.159527	0.037975	-0.023492	-0.409998	0.911784	-0.999018	0.043892	-0.006003	-0.037559	-0.911030	-0.410626
20618	10.285146	1.014168	-1.580369	-0.029033	-1.239277	0.062889	-0.024536	-0.421215	0.906629	-0.998993	0.044415	-0.006401	-0.037572	-0.905873	-0.421880
20619	10.416444	1.113417	-2.225690	-0.073897	-1.254461	0.097079	-0.025931	-0.432494	0.901264	-0.998941	0.045495	-0.006909	-0.038014	-0.900488	-0.433215
20620	10.427189	1.050843	-2.647829	-0.148562	-1.276868	0.131610	-0.027688	-0.443880	0.895659	-0.998849	0.047401	-0.007386	-0.039176	-0.894832	-0.444681
20621	10.177450	0.867496	-2.824749	-0.155187	-1.317070	0.171188	-0.029872	-0.455536	0.889716	-0.998738	0.049552	-0.008162	-0.040369	-0.888837	-0.456441
20622	10.066349	0.463981	-3.417619	-0.126489	-1.381844	0.184661	-0.032229	-0.467664	0.883318	-0.998630	0.051519	-0.009160	-0.041224	-0.882404	-0.468684
20623	10.187293	0.141396	-4.025898	-0.074120	-1.402507	0.209131	-0.034848	-0.479877	0.876643	-0.998530	0.053156	-0.010596	-0.041515	-0.875724	-0.481024
20624	10.403084	-0.066401	-4.300975	-0.029395	-1.395337	0.248743	-0.037858	-0.491898	0.869829	-0.998428	0.054614	-0.012570	-0.041322	-0.868938	-0.493193
20625	10.512461	-0.181706	-4.657723	-0.032075	-1.371875	0.290293	-0.041273	-0.503605	0.862948	-0.998301	0.056331	-0.014873	-0.041121	-0.862096	-0.505074
20626	10.568584	-0.252381	-4.872588	-0.057329	-1.344901	0.341333	-0.045181	-0.514940	0.856035	-0.998132	0.058552	-0.017459	-0.041132	-0.855224	-0.516623
20627	10.352771	-0.151127	-5.424825	-0.077505	-1.318548	0.393500	-0.049603	-0.525929	0.849081	-0.997915	0.061253	-0.020357	-0.041302	-0.848320	-0.527871
20628	10.060812	0.154151	-5.567937	-0.134459	-1.305149	0.449500	-0.054579	-0.536655	0.842035	-0.997626	0.064766	-0.023386	-0.041985	-0.841312	-0.538916
20629	9.849137	0.525978	-5.570616	-0.243819	-1.280516	0.501886	-0.060085	-0.547041	0.834947	-0.997236	0.069520	-0.026216	-0.043705	-0.834214	-0.549706
20630	9.504094	0.705870	-5.667572	-0.430447	-1.237362	0.540542	-0.065984	-0.556909	0.827949	-0.996702	0.076067	-0.028267	-0.047237	-0.827083	-0.560091
20631	9.230123	0.786842	-5.597077	-0.622976	-1.136604	0.582580	-0.072307	-0.565798	0.821367	-0.995990	0.084459	-0.029501	-0.052680	-0.820207	-0.569636
20632	8.955171	1.287564	-5.209685	-0.799412	-0.982387	0.619254	-0.078972	-0.573255	0.815563	-0.995074	0.094504	-0.029928	-0.059918	-0.813909	-0.577895
20633	8.423488	1.741216	-4.932417	-1.026023	-0.771978	0.645465	-0.085842	-0.578865	0.810893	-0.993881	0.106535	-0.029162	-0.069507	-0.808434	-0.584468
20634	7.892408	1.759632	-4.849059	-1.247959	-0.514498	0.654937	-0.092680	-0.582255	0.807706	-0.992358	0.120385	-0.027085	-0.081466	-0.804044	-0.588962
20635	7.386573	1.559173	-4.693126	-1.437222	-0.230650	0.649096	-0.099271	-0.583272	0.806188	-0.990466	0.135690	-0.023791	-0.095515	-0.800863	-0.591181
20636	6.933401	0.338820	-5.475346	-1.524032	0.031616	0.633733	-0.105452	-0.582096	0.806253	-0.988249	0.151560	-0.019833	-0.110651	-0.798871	-0.591238
20637	7.536278	-0.514822	-5.156715	-1.417189	0.310835	0.617411	-0.111131	-0.578631	0.807983	-0.985913	0.166451	-0.016402	-0.124999	-0.798424	-0.588978
20638	8.239105	-0.565709	-4.135495	-1.196757	0.626698	0.573340	-0.115899	-0.572619	0.811588	-0.983695	0.179303	-0.013969	-0.137521	-0.799974	-0.584063
20639	8.253158	-1.052787	-4.124962	-0.919744	0.958943	0.502832	-0.119424	-0.564003	0.817092	-0.981794	0.189525	-0.012676	-0.147710	-0.803730	-0.576368
20640	7.827258	-1.251956	-4.318161	-0.557887	1.269175	0.413784	-0.121509	-0.552953	0.824305	-0.980455	0.196324	-0.012830	-0.154737	-0.809753	-0.566001
20641	7.660083	-0.968955	-4.438320	-0.237808	1.549137	0.303134	-0.122001	-0.539747	0.832940	-0.979716	0.199906	-0.013959	-0.158976	-0.817747	-0.553187
20642	7.619316	-0.574073	-4.400371	-0.047519	1.800435	0.188630	-0.120907	-0.524547	0.842753	-0.979413	0.201290	-0.015226	-0.161651	-0.827244	-0.538085
20643	7.722993	-0.352447	-4.381158	0.022993	2.039226	0.081279	-0.118334	-0.507406	0.853543	-0.979356	0.201511	-0.015985	-0.163887	-0.837814	-0.520777
20644	7.830797	-0.365977	-4.139221	0.059400	2.253842	-0.016956	-0.114395	-0.488415	0.865081	-0.979476	0.200916	-0.016088	-0.165951	-0.849166	-0.501375
20645	7.874305	-0.521822	-4.050175	0.127151	2.451665	-0.128870	-0.108996	-0.467707	0.877137	-0.979834	0.199207	-0.015536	-0.167466	-0.861143	-0.479988
20646	7.979769	-0.607282	-4.040682	0.234120	2.630037	-0.249105	-0.102088	-0.445371	0.889507	-0.980492	0.196033	-0.014378	-0.167969	-0.873622	-0.456695
20647	7.985132	-0.418546	-3.952397	0.335815	2.783938	-0.367148	-0.093768	-0.421582	0.901929	-0.981416	0.191483	-0.012528	-0.167423	-0.886342	-0.431703
20648	8.076663	-0.063718	-3.963654	0.398506	2.914232	-0.455121	-0.084382	-0.396409	0.914188	-0.982487	0.186060	-0.010008	-0.166127	-0.899023	-0.405167
20649	8.191871	0.282188	-3.866411	0.416491	3.035404	-0.522238	-0.074181	-0.369886	0.926111	-0.983590	0.180289	-0.006778	-0.164460	-0.911417	-0.377190
20650	8.395599	0.608041	-3.796698	0.394601	3.132708	-0.571061	-0.063379	-0.342142	0.937508	-0.984629	0.174635	-0.002832	-0.162753	-0.923278	-0.347951
20651	8.476801	0.904289	-3.730209	0.353334	3.210488	-0.602116	-0.052198	-0.313353	0.948201	-0.985549	0.169383	0.001722	-0.161149	-0.934409	-0.317666
20652	8.537231	1.202669	-3.573324	0.314091	3.265603	-0.615667	-0.040834	-0.283679	0.958050	-0.986338	0.164597	0.006697	-0.159592	-0.944687	-0.286525
20653	8.626573	1.472493	-3.453009	0.242097	3.307625	-0.607064	-0.029535	-0.253261	0.966947	-0.986935	0.160675	0.011938	-0.158388	-0.953961	-0.254698
20654	8.634749	1.612236	-3.307020	0.115047	3.333542	-0.580366	-0.018474	-0.222230	0.974819	-0.987255	0.158200	0.017355	-0.158073	-0.962074	-0.222320
20655	8.746476	1.546035	-3.370335	-0.011445	3.334648	-0.555730	-0.007656	-0.190904	0.981579	-0.987306	0.157173	0.022867	-0.158643	-0.968944	-0.189684
20656	8.949655	1.487578	-3.438623	-0.115653	3.335390	-0.502851	0.002679	-0.159263	0.987233	-0.987131	0.157428	0.028075	-0.159889	-0.974603	-0.156792
20657	9.063464	1.471888	-3.424790	-0.167374	3.320149	-0.456597	0.012568	-0.127546	0.991753	-0.986824	0.158421	0.032879	-0.161309	-0.979099	-0.123874
20658	9.137049	1.599009	-3.277519	-0.210307	3.293236	-0.394570	0.021857	-0.095857	0.995155	-0.986411	0.160059	0.037082	-0.162838	-0.982442	-0.091056
20659	9.416725	1.614584	-3.089020	-0.273068	3.252600	-0.329496	0.030483	-0.064393	0.997459	-0.985873	0.162497	0.040620	-0.164700	-0.984606	-0.058530
20660	9.422395	1.344767	-2.659922	-0.305927	3.168082	-0.271968	0.038472	-0.033613	0.998694	-0.985266	0.165397	0.043521	-0.166644	-0.985654	-0.026755
20661	9.466544	1.168464	-2.028284	-0.303379	3.035839	-0.227328	0.045846	-0.004064	0.998940	-0.984657	0.168364	0.045876	-0.168373	-0.985716	0.003717
20662	9.180957	1.065135	-0.834828	-0.287098	2.829523	-0.199468	0.052654	0.023490	0.998336	-0.984066	0.171235	0.047872	-0.169826	-0.984950	0.032132
20663	9.523240	-0.102690	-0.944547	-0.421233	2.581626	-0.231585	0.059401	0.048498	0.997055	-0.983209	0.175487	0.050040	-0.172543	-0.983287	0.058108
20664	9.236783	-0.300911	-0.430799	-0.414428	2.304535	-0.297353	0.066390	0.070616	0.995292	-0.982294	0.179759	0.052769	-0.175187	-0.981173	0.081300
20665	8.652508	0.427754	-0.001160	-0.425095	1.940529	-0.300170	0.072813	0.089090	0.993359	-0.981327	0.184190	0.055413	-0.178030	-0.978845	0.100838
20666	8.875934	1.482619	1.347567	-0.549442	1.569987	-0.225388	0.077911	0.104024	0.991518	-0.980160	0.189805	0.057105	-0.182255	-0.976296	0.116748
20667	6.885882	1.112615	0.184702	-0.574216	1.061438	-0.101451	0.080914	0.114181	0.990159	-0.979011	0.195541	0.057454	-0.187057	-0.974026	0.127606
20668	6.214998	1.104758	0.151544	-0.439763	0.497342	0.038957	0.081532	0.119106	0.989528	-0.978203	0.199804	0.056549	-0.190976	-0.972570	0.132800
20669	6.187621	0.867051	-0.314929	-0.447220	-0.052493	0.144260	0.080069	0.118887	0.989674	-0.977447	0.204006	0.054573	-0.195411	-0.971724	0.132541
20670	6.505342	-0.236593	-1.397164	-0.394086	-0.572226	0.245606	0.076598	0.113839	0.990542	-0.976852	0.207577	0.051684	-0.199730	-0.971572	0.127104
20671	6.960391	-1.090942	-2.317215	-0.212726	-1.023230	0.308908	0.071572	0.104538	0.991942	-0.976646	0.209333	0.048408	-0.202586	-0.972241	0.117079
20672	8.158758	-1.368903	-2.545767	-0.080671	-1.381732	0.384569	0.065063	0.091905	0.993640	-0.976736	0.209767	0.044554	-0.204338	-0.973422	0.103415
20673	11.292014	1.120778	0.726148	-0.219316	-1.374873	0.444023	0.057946	0.079452	0.995153	-0.976550	0.211547	0.039973	-0.207345	-0.974133	0.089848
20674	13.444166	3.121882	3.726445	-0.897028	-1.074370	0.469220	0.051147	0.070007	0.996234	-0.974896	0.219955	0.034595	-0.216705	-0.972995	0.079500
20675	12.953950	0.767841	1.852453	-1.250258	-1.001464	0.495287	0.044141	0.061392	0.997137	-0.972337	0.231805	0.028771	-0.229375	-0.970823	0.069925
20676	12.007530	-2.738058	-0.758444	-1.000414	-1.122929	0.484979	0.036856	0.051649	0.997985	-0.970180	0.241259	0.023343	-0.239568	-0.969085	0.059001
20677	11.695330	-3.472078	-3.578186	-0.475864	-1.214653	0.389541	0.030188	0.040828	0.998710	-0.969152	0.245712	0.019249	-0.244609	-0.968483	0.046986
20678	10.762498	-1.455596	-5.066774	0.198910	-1.225836	0.332979	0.024027	0.029766	0.999268	-0.969720	0.243691	0.016057	-0.243034	-0.969396	0.034719
20679	10.480607	1.063133	-4.874508	0.539245	-1.231481	0.320328	0.018005	0.018589	0.999665	-0.971079	0.238403	0.013057	-0.238080	-0.970988	0.022343
20680	10.173914	1.810286	-4.273463	0.482559	-1.165887	0.354077	0.011869	0.008093	0.999897	-0.972263	0.233690	0.009650	-0.233587	-0.972278	0.010642
20681	10.072881	1.179943	-4.141065	0.380244	-1.127998	0.427239	0.005148	-0.001890	0.999985	-0.973176	0.229998	0.005445	-0.230005	-0.973189	-0.000655
20682	10.234350	0.567963	-3.939259	0.315162	-1.075614	0.467169	-0.001803	-0.011301	0.999935	-0.973898	0.226984	0.000809	-0.226978	-0.973833	-0.011415
20683	10.340664	0.527024	-3.439482	0.221623	-1.012976	0.459538	-0.008518	-0.020130	0.999761	-0.974371	0.224917	-0.003773	-0.224787	-0.974170	-0.021530
20684	10.214139	0.009677	-3.127307	0.086394	-0.951752	0.448344	-0.014967	-0.028404	0.999484	-0.974507	0.224207	-0.008222	-0.223858	-0.974128	-0.031036
20685	9.765089	-0.971236	-2.741073	0.041977	-0.928692	0.458379	-0.021461	-0.036423	0.999106	-0.974513	0.223965	-0.012768	-0.223300	-0.973916	-0.040301
20686	9.844378	-0.119054	-1.906897	0.185605	-0.877060	0.449272	-0.027736	-0.043974	0.998648	-0.974811	0.222360	-0.017283	-0.221300	-0.973972	-0.049034
20687	9.756349	0.689489	-1.075728	0.102096	-0.814937	0.459899	-0.033969	-0.050890	0.998126	-0.974892	0.221602	-0.021879	-0.220074	-0.973808	-0.057140
20688	9.631027	0.619050	-0.554830	0.043074	-0.851348	0.511128	-0.040768	-0.058059	0.997480	-0.974792	0.221483	-0.026950	-0.219361	-0.973434	-0.065625
20689	9.703150	0.526220	-0.550458	-0.082544	-0.856875	0.510643	-0.047577	-0.065263	0.996733	-0.974382	0.222619	-0.031934	-0.219808	-0.972719	-0.074183
20690	9.655176	0.013338	-0.493602	-0.196878	-0.881596	0.511299	-0.054448	-0.072702	0.995866	-0.973684	0.224907	-0.036816	-0.221301	-0.971664	-0.083035
20691	9.740185	-0.552271	-0.638153	-0.266632	-0.903165	0.494245	-0.061217	-0.080354	0.994885	-0.972804	0.227891	-0.041452	-0.223395	-0.970365	-0.092119
20692	9.696085	-0.981039	-1.199600	-0.268347	-0.900080	0.485681	-0.067905	-0.087980	0.993805	-0.971886	0.230923	-0.045964	-0.225448	-0.968986	-0.101187
20693	9.695399	-1.229080	-1.923272	-0.297928	-0.879958	0.461964	-0.074337	-0.095427	0.992657	-0.970881	0.234247	-0.050187	-0.227738	-0.967482	-0.110061
20694	9.705862	-1.449613	-2.541540	-0.294358	-0.848706	0.427723	-0.080376	-0.102635	0.991466	-0.969875	0.237536	-0.054037	-0.229963	-0.965941	-0.118635
20695	9.915270	-1.716971	-2.911645	-0.252308	-0.801974	0.385018	-0.085911	-0.109457	0.990272	-0.968971	0.240395	-0.057492	-0.231763	-0.964484	-0.126713
20696	10.037632	-1.822648	-3.025898	-0.148185	-0.729669	0.345251	-0.090897	-0.115671	0.989120	-0.968321	0.242231	-0.060658	-0.232579	-0.963299	-0.134025
20697	9.931285	-1.764592	-3.116729	-0.050546	-0.664910	0.307848	-0.095374	-0.121328	0.988020	-0.967916	0.243097	-0.063582	-0.232470	-0.962384	-0.140620
20698	9.903242	-1.255380	-3.188950	0.013117	-0.607863	0.276076	-0.099406	-0.126519	0.986971	-0.967677	0.243332	-0.066271	-0.231777	-0.961656	-0.146618
20699	9.799888	-0.817733	-3.265007	-0.017977	-0.543051	0.259055	-0.103121	-0.131110	0.985990	-0.967373	0.243852	-0.068748	-0.231422	-0.960909	-0.151979
20700	9.731703	-0.694752	-3.042394	-0.082449	-0.501759	0.249665	-0.106648	-0.135336	0.985043	-0.966919	0.244995	-0.071025	-0.231719	-0.960032	-0.156987
20701	9.705037	-0.816685	-2.734329	-0.119736	-0.470133	0.241384	-0.110023	-0.139255	0.984125	-0.966380	0.246489	-0.073160	-0.232388	-0.959089	-0.161693
20702	9.721236	-1.064765	-2.285098	-0.124736	-0.449688	0.232358	-0.113265	-0.143009	0.983219	-0.965830	0.248031	-0.075185	-0.233117	-0.958138	-0.166216
20703	9.822458	-1.162566	-2.059203	-0.084482	-0.428067	0.218349	-0.116322	-0.146568	0.982338	-0.965383	0.249169	-0.077138	-0.233462	-0.957305	-0.170478
20704	9.713621	-0.996929	-1.781121	-0.047028	-0.401406	0.211747	-0.119254	-0.149899	0.981483	-0.965024	0.249951	-0.079080	-0.233469	-0.956585	-0.174463
20705	9.641855	-0.712002	-1.982464	-0.072227	-0.374018	0.197622	-0.121985	-0.152982	0.980671	-0.964618	0.250954	-0.080840	-0.233736	-0.955834	-0.178182
20706	9.597468	-0.690135	-2.003276	-0.134522	-0.368505	0.186591	-0.124598	-0.156051	0.979859	-0.964073	0.252545	-0.082371	-0.234604	-0.954918	-0.181911
20707	9.541994	-0.769438	-2.025779	-0.164859	-0.379596	0.182790	-0.127204	-0.159213	0.979015	-0.963456	0.254419	-0.083807	-0.235737	-0.953898	-0.185757
20708	9.489088	-0.762672	-1.949097	-0.186504	-0.391064	0.178154	-0.129795	-0.162504	0.978134	-0.962786	0.256501	-0.085144	-0.237056	-0.952785	-0.189749
20709	9.466213	-0.913611	-1.948175	-0.188147	-0.400308	0.169606	-0.132330	-0.165882	0.977227	-0.962118	0.258583	-0.086390	-0.238364	-0.951640	-0.193816
20710	9.361562	-1.012515	-2.023820	-0.185658	-0.410740	0.160484	-0.134806	-0.169390	0.976286	-0.961461	0.260635	-0.087538	-0.239626	-0.950461	-0.197997
20711	9.297619	-1.028978	-2.057464	-0.164647	-0.422512	0.150355	-0.137217	-0.173013	0.975314	-0.960862	0.262468	-0.088624	-0.240656	-0.949304	-0.202256
20712	9.320740	-0.990075	-2.141577	-0.160659	-0.431268	0.142371	-0.139576	-0.176748	0.974309	-0.960278	0.264258	-0.089627	-0.241628	-0.948118	-0.206611
20713	9.258212	-1.102667	-2.230692	-0.154492	-0.436405	0.137935	-0.141907	-0.180520	0.973281	-0.959712	0.265979	-0.090596	-0.242518	-0.946925	-0.210992
20714	9.297791	-1.054343	-2.264732	-0.125386	-0.440541	0.127703	-0.144154	-0.184367	0.972229	-0.959226	0.267415	-0.091515	-0.243116	-0.945779	-0.215399
20715	9.246434	-0.910527	-2.177504	-0.131961	-0.448004	0.123270	-0.146377	-0.188274	0.971147	-0.958727	0.268903	-0.092374	-0.243753	-0.944587	-0.219865
20716	9.275742	-0.909487	-2.096257	-0.132878	-0.466965	0.120087	-0.148620	-0.192378	0.970002	-0.958227	0.270402	-0.093188	-0.244363	-0.943331	-0.224528
20717	9.268496	-0.951093	-1.996735	-0.113042	-0.483762	0.119191	-0.150896	-0.196618	0.968799	-0.957774	0.271710	-0.094035	-0.244743	-0.942080	-0.229316
20718	9.330590	-0.840225	-1.866139	-0.099743	-0.510559	0.117775	-0.153225	-0.201123	0.967508	-0.957352	0.272898	-0.094887	-0.244947	-0.940785	-0.234361
20719	9.278506	-0.752824	-1.644714	-0.104629	-0.539226	0.126183	-0.155705	-0.205851	0.966117	-0.956903	0.274148	-0.095808	-0.245137	-0.939398	-0.239665
20720	9.281630	-0.697084	-1.394114	-0.108755	-0.582192	0.128252	-0.158312	-0.210982	0.964585	-0.956437	0.275451	-0.096725	-0.245289	-0.937877	-0.245398
20721	9.213299	-0.751928	-1.244095	-0.097348	-0.631342	0.130937	-0.161063	-0.216540	0.962896	-0.955991	0.276653	-0.097693	-0.245233	-0.936255	-0.251569
20722	9.239362	-0.823152	-0.966989	-0.103337	-0.696510	0.137283	-0.164034	-0.222692	0.960990	-0.955517	0.277935	-0.098694	-0.245114	-0.934431	-0.258377
20723	9.258786	-0.953242	-0.660260	-0.105521	-0.768324	0.141272	-0.167217	-0.229474	0.958843	-0.955027	0.279248	-0.099721	-0.244871	-0.932396	-0.265849
20724	9.389529	-0.963389	-0.662079	-0.062007	-0.848695	0.149099	-0.170667	-0.236978	0.956407	-0.954626	0.280186	-0.100925	-0.244055	-0.930235	-0.274043
20725	9.430947	-0.764783	-0.690811	-0.045900	-0.926160	0.157901	-0.174380	-0.245143	0.953675	-0.954245	0.281001	-0.102253	-0.242917	-0.927870	-0.282927
20726	9.498655	-0.546668	-0.754255	-0.060322	-1.011773	0.162518	-0.178333	-0.254075	0.950601	-0.953815	0.281977	-0.103569	-0.241733	-0.925167	-0.292626
20727	9.599250	-0.472685	-0.880623	-0.060284	-1.086064	0.181252	-0.182631	-0.263599	0.947186	-0.953346	0.283010	-0.105058	-0.240370	-0.922183	-0.302987
20728	9.411517	-0.328961	-1.101409	-0.051568	-1.171667	0.199691	-0.187291	-0.273832	0.943365	-0.952856	0.284032	-0.106729	-0.238720	-0.918881	-0.314119
20729	9.214776	-0.679123	-1.324531	-0.103558	-1.260356	0.210094	-0.192243	-0.284795	0.939113	-0.952215	0.285574	-0.108322	-0.237337	-0.915062	-0.326086
20730	9.217169	-0.949785	-1.480623	-0.098093	-1.346026	0.211611	-0.197390	-0.296491	0.934414	-0.951575	0.287093	-0.109920	-0.235674	-0.910862	-0.338803
20731	9.206059	-1.060634	-1.749609	-0.078968	-1.408812	0.225081	-0.202789	-0.308649	0.929308	-0.950944	0.288496	-0.111693	-0.233628	-0.906370	-0.352011
20732	9.122814	-0.801038	-2.068522	-0.129956	-1.468256	0.253367	-0.208564	-0.321198	0.923760	-0.950125	0.290476	-0.113516	-0.231869	-0.901363	-0.365761
20733	9.201518	-0.853424	-2.364632	-0.240488	-1.532401	0.278665	-0.214707	-0.334158	0.917736	-0.948984	0.293553	-0.115132	-0.230932	-0.895637	-0.380139
20734	9.174682	-0.897278	-2.578061	-0.328302	-1.587085	0.300607	-0.221170	-0.347445	0.911244	-0.947577	0.297513	-0.116550	-0.230612	-0.889251	-0.395032
20735	9.325551	-1.361219	-2.658745	-0.485400	-1.646951	0.297823	-0.227747	-0.361142	0.904272	-0.945793	0.302869	-0.117246	-0.231533	-0.881956	-0.410543
20736	9.633360	-1.471937	-2.694333	-0.487368	-1.718287	0.279307	-0.234319	-0.375387	0.896761	-0.944023	0.308180	-0.117663	-0.232195	-0.874134	-0.426586
20737	9.849305	-1.035294	-3.121751	-0.394921	-1.770503	0.275927	-0.240980	-0.389942	0.888748	-0.942458	0.312672	-0.118357	-0.231735	-0.866130	-0.442852
20738	9.788058	-0.284557	-3.575994	-0.360350	-1.802336	0.288278	-0.247812	-0.404581	0.880286	-0.940927	0.316925	-0.119224	-0.230749	-0.857830	-0.459219
20739	9.677380	-0.072661	-3.791015	-0.484352	-1.845054	0.292815	-0.254773	-0.419395	0.871320	-0.939081	0.322263	-0.119471	-0.230688	-0.848678	-0.475950
20740	10.085970	-0.981001	-3.843843	-0.590655	-1.917631	0.253636	-0.261531	-0.434758	0.861735	-0.937070	0.328329	-0.118747	-0.231306	-0.838562	-0.493266
20741	10.967188	-1.054462	-3.949371	-0.484530	-1.979084	0.189592	-0.267829	-0.450632	0.851586	-0.935457	0.333202	-0.117887	-0.230627	-0.828195	-0.510788
20742	11.362649	-0.585060	-4.492842	-0.321092	-1.989678	0.154131	-0.273783	-0.466502	0.841082	-0.934311	0.336550	-0.117465	-0.228268	-0.817991	-0.528000
20743	11.350638	0.286721	-5.432391	-0.136216	-1.965214	0.145266	-0.279538	-0.482000	0.830382	-0.933609	0.338340	-0.117897	-0.224126	-0.808209	-0.544578
20744	10.846766	1.299139	-5.943014	-0.220116	-1.914347	0.165778	-0.285291	-0.496821	0.819621	-0.932661	0.340915	-0.117988	-0.220802	-0.798089	-0.560625
20745	10.370611	1.452194	-6.097958	-0.467279	-1.857278	0.172461	-0.290942	-0.510959	0.808872	-0.931143	0.345480	-0.116685	-0.219828	-0.787124	-0.576290
20746	10.053134	0.883779	-6.292108	-0.713858	-1.816811	0.174661	-0.296519	-0.524551	0.798074	-0.929066	0.351955	-0.113857	-0.221163	-0.775225	-0.591704
20747	10.034349	0.324283	-6.492129	-0.861166	-1.770027	0.171670	-0.302003	-0.537562	0.787288	-0.926646	0.359480	-0.110007	-0.223879	-0.762759	-0.606693
20748	9.746214	0.190463	-6.370811	-0.974260	-1.678805	0.187924	-0.307478	-0.549587	0.776795	-0.923883	0.367864	-0.105434	-0.227810	-0.750086	-0.620865
20749	9.392454	-0.557570	-6.139983	-1.124582	-1.615491	0.204459	-0.313041	-0.560847	0.766457	-0.920666	0.377350	-0.099902	-0.233193	-0.736924	-0.634479
20750	9.127531	-1.443604	-5.183343	-1.207072	-1.564443	0.207929	-0.318593	-0.571486	0.756242	-0.917168	0.387333	-0.093684	-0.239378	-0.723448	-0.647550
20751	9.164329	-2.678226	-4.999147	-1.132071	-1.524780	0.202147	-0.324088	-0.581636	0.746101	-0.913788	0.396601	-0.087751	-0.244865	-0.710217	-0.660025
20752	9.558885	-3.956748	-5.620088	-0.914413	-1.509613	0.200801	-0.329588	-0.591469	0.735891	-0.910887	0.404205	-0.083087	-0.248307	-0.697698	-0.671983
20753	9.769756	-4.302382	-5.356438	-0.561666	-1.480642	0.189511	-0.334944	-0.600959	0.725714	-0.908873	0.409208	-0.080616	-0.248521	-0.686583	-0.683257
20754	9.646747	-3.643983	-5.195739	-0.191839	-1.534000	0.178077	-0.340294	-0.610693	0.715021	-0.907809	0.411581	-0.080519	-0.245116	-0.676503	-0.694451
20755	9.533896	-2.816106	-5.238381	0.068385	-1.656997	0.171128	-0.345810	-0.621128	0.703289	-0.907399	0.412160	-0.082163	-0.238834	-0.666576	-0.706141
20756	9.619601	-1.541489	-5.323195	0.141023	-1.722985	0.165440	-0.351311	-0.631851	0.690901	-0.907167	0.412247	-0.084265	-0.231580	-0.656366	-0.718021
20757	9.689897	-0.175497	-5.342800	0.087293	-1.739141	0.198187	-0.357029	-0.642369	0.678154	-0.906676	0.412924	-0.086205	-0.224651	-0.645644	-0.729847
20758	9.466566	0.449699	-5.110238	-0.154277	-1.701617	0.245366	-0.362982	-0.652246	0.665446	-0.905464	0.415482	-0.086664	-0.219955	-0.633995	-0.741398
20759	8.907193	0.517310	-5.542362	-0.364976	-1.650076	0.287548	-0.369144	-0.661419	0.652884	-0.903626	0.419643	-0.085785	-0.217239	-0.621630	-0.752584
20760	8.179841	0.558172	-6.043832	-0.530682	-1.560181	0.323688	-0.375392	-0.669658	0.640811	-0.901285	0.425044	-0.083802	-0.216254	-0.609012	-0.763111
20761	7.525872	0.785888	-6.036110	-0.690784	-1.411839	0.357499	-0.381623	-0.676652	0.629688	-0.898449	0.431594	-0.080722	-0.217149	-0.596547	-0.772643
20762	7.106882	1.029143	-6.191489	-0.805202	-1.196154	0.383162	-0.387617	-0.682056	0.620122	-0.895231	0.438934	-0.076807	-0.219806	-0.584924	-0.780736
20763	6.386025	1.234041	-6.614692	-0.897177	-0.922385	0.411670	-0.393298	-0.685596	0.612597	-0.891646	0.446930	-0.072265	-0.224243	-0.574641	-0.787085
20764	5.299600	0.408607	-7.827851	-1.008789	-0.722875	0.449474	-0.398884	-0.687694	0.606604	-0.887587	0.455744	-0.066983	-0.230393	-0.565132	-0.792178
20765	6.404444	0.106075	-6.209123	-1.015535	-0.444506	0.458264	-0.403937	-0.688097	0.602792	-0.883385	0.464575	-0.061646	-0.237624	-0.557399	-0.795514
20766	7.780894	0.213673	-4.488157	-1.006200	-0.086947	0.417891	-0.407775	-0.686628	0.601882	-0.879270	0.473008	-0.056097	-0.246178	-0.552091	-0.796613
20767	8.521326	-0.551692	-4.899269	-0.826103	0.309997	0.308690	-0.409663	-0.683466	0.604194	-0.875954	0.479655	-0.051337	-0.254717	-0.550277	-0.795182
20768	8.185256	-1.043419	-5.223998	-0.440119	0.688260	0.179670	-0.409402	-0.678812	0.609593	-0.874097	0.483285	-0.048880	-0.261427	-0.552856	-0.791206
20769	7.544993	-1.275719	-6.078678	-0.012938	0.996967	0.008574	-0.406804	-0.673243	0.617458	-0.874042	0.483394	-0.048785	-0.265632	-0.559530	-0.785090
20770	7.451102	-1.192217	-6.450188	0.348043	1.294783	-0.139591	-0.402072	-0.666609	0.627670	-0.875550	0.480473	-0.050577	-0.267863	-0.569892	-0.776834
20771	7.645917	-1.204307	-6.484958	0.623281	1.599821	-0.280554	-0.395273	-0.658741	0.640172	-0.878354	0.475000	-0.053561	-0.268798	-0.583469	-0.766362
20772	7.727885	-1.242726	-6.235621	0.880605	1.900710	-0.372425	-0.386829	-0.649251	0.654856	-0.882191	0.467333	-0.057785	-0.268519	-0.600061	-0.753541
20773	7.770090	-1.427719	-5.973297	1.125801	2.198689	-0.433006	-0.377066	-0.637862	0.671530	-0.886872	0.457663	-0.063264	-0.266981	-0.619416	-0.738272
20774	7.555880	-1.064376	-5.940208	1.341380	2.486369	-0.515332	-0.365816	-0.624518	0.690040	-0.892364	0.445937	-0.069482	-0.264322	-0.641184	-0.720428
20775	7.258499	-0.371665	-5.996374	1.391073	2.734018	-0.607424	-0.353139	-0.609357	0.709913	-0.898218	0.433093	-0.075063	-0.261718	-0.664165	-0.700278
20776	7.062372	0.261711	-6.044561	1.295428	2.935350	-0.699550	-0.339112	-0.592501	0.730716	-0.904034	0.420118	-0.078893	-0.260243	-0.687346	-0.678108
20777	7.101520	0.739289	-6.147311	1.065217	3.121685	-0.781079	-0.323846	-0.573937	0.752144	-0.909410	0.408105	-0.080147	-0.260954	-0.709963	-0.654107
20778	7.099055	0.744830	-6.180749	0.754876	3.315415	-0.846425	-0.307352	-0.553441	0.774104	-0.914077	0.397878	-0.078466	-0.264573	-0.731707	-0.628176
20779	7.142758	0.409554	-6.189051	0.476581	3.500542	-0.892000	-0.289763	-0.530983	0.796301	-0.918024	0.389493	-0.074338	-0.270682	-0.752564	-0.600316
20780	7.197855	-0.119903	-6.250486	0.312025	3.677399	-0.930955	-0.271040	-0.506517	0.818522	-0.921501	0.382274	-0.068582	-0.278162	-0.772856	-0.570368
20781	7.406650	-0.587658	-6.343805	0.269080	3.846296	-0.975944	-0.251136	-0.480110	0.840491	-0.924815	0.375344	-0.061925	-0.285743	-0.792850	-0.538275
20782	7.670893	-0.826471	-6.467772	0.307774	4.017297	-1.026114	-0.229941	-0.451661	0.862049	-0.928180	0.368086	-0.054726	-0.292591	-0.812720	-0.503861
20783	7.764309	-0.693744	-6.349937	0.397294	4.161492	-1.074168	-0.207611	-0.421347	0.882816	-0.931708	0.360125	-0.047230	-0.298023	-0.832332	-0.467339
20784	8.019857	-0.511616	-6.300714	0.473831	4.286829	-1.114260	-0.184276	-0.389209	0.902529	-0.935317	0.351617	-0.039338	-0.302034	-0.851400	-0.428828
20785	8.417228	-0.379614	-6.391097	0.523540	4.398348	-1.152348	-0.160081	-0.355364	0.920918	-0.938892	0.342820	-0.030917	-0.304723	-0.869592	-0.388527
20786	8.680039	-0.132705	-5.930749	0.533367	4.491735	-1.179790	-0.135186	-0.319900	0.937757	-0.942265	0.334155	-0.021844	-0.306368	-0.886569	-0.346604
20787	8.795406	0.054342	-5.307353	0.490315	4.536414	-1.197761	-0.109909	-0.283289	0.952716	-0.945237	0.326161	-0.012062	-0.307322	-0.901868	-0.303623
20788	8.977027	0.089783	-4.853549	0.432916	4.548858	-1.201960	-0.084513	-0.245806	0.965628	-0.947679	0.319220	-0.001683	-0.307834	-0.915248	-0.259923
20789	9.222388	0.187173	-4.419826	0.370516	4.543631	-1.176953	-0.059312	-0.207680	0.976397	-0.949663	0.313146	0.008918	-0.307607	-0.926719	-0.215799
20790	9.409346	0.322402	-4.325676	0.287330	4.509109	-1.148840	-0.034492	-0.169230	0.984973	-0.951026	0.308482	0.019697	-0.307180	-0.936056	-0.171582
20791	10.061930	0.765479	-4.577685	0.230303	4.462124	-1.088760	-0.010399	-0.130633	0.991376	-0.951971	0.304697	0.030164	-0.306010	-0.943448	-0.127527
20792	10.580177	1.622249	-3.804895	0.057956	4.372542	-0.989277	0.012445	-0.092266	0.995657	-0.952078	0.303230	0.040000	-0.305603	-0.948440	-0.084070
20793	10.417628	1.668057	-2.675551	-0.255482	4.221196	-0.870475	0.033712	-0.054827	0.997927	-0.951086	0.305032	0.048889	-0.307080	-0.950762	-0.041862
20794	10.312909	1.270693	-1.577481	-0.553229	3.976356	-0.758557	0.053270	-0.019360	0.998392	-0.948983	0.310198	0.056649	-0.310796	-0.950475	-0.001848
20795	11.612429	1.496696	-0.638020	-0.809469	3.719398	-0.642597	0.071070	0.013928	0.997374	-0.946036	0.317885	0.062972	-0.316173	-0.948027	0.035768
20796	9.624171	-0.804011	-2.043537	-0.837764	3.230835	-0.472582	0.085915	0.042966	0.995376	-0.942923	0.326137	0.067310	-0.321737	-0.944346	0.068534
20797	8.553598	-0.144289	-1.341775	-0.615889	2.620683	-0.316330	0.097421	0.066624	0.993011	-0.940630	0.332139	0.069998	-0.325154	-0.940875	0.095025
20798	7.921904	-0.564656	-0.986989	-0.704379	1.952245	-0.199051	0.105768	0.084268	0.990814	-0.938047	0.339093	0.071295	-0.329971	-0.936971	0.114912
20799	7.426762	-1.298596	-1.494312	-0.537289	1.337837	-0.073126	0.110940	0.096526	0.989128	-0.936173	0.344210	0.071411	-0.333575	-0.933918	0.128552
20800	6.583208	-1.082939	-1.842035	-0.243538	0.790235	0.007320	0.113599	0.103903	0.988079	-0.935292	0.346666	0.071076	-0.335148	-0.932216	0.136560
20801	6.004054	-0.489090	-2.630392	-0.048860	0.265571	0.077613	0.113812	0.106640	0.987763	-0.935204	0.347064	0.070287	-0.335322	-0.931759	0.139230
20802	5.912818	-0.337916	-3.556328	-0.068765	-0.198348	0.155064	0.111761	0.105325	0.988138	-0.935133	0.347568	0.068719	-0.336207	-0.931720	0.137338
20803	5.770079	-0.705639	-4.792447	-0.130335	-0.571532	0.220508	0.107821	0.100760	0.989051	-0.934924	0.348580	0.066408	-0.338072	-0.931847	0.131787
20804	5.554792	-1.254820	-5.912074	-0.103471	-0.854792	0.273152	0.102432	0.093737	0.990314	-0.934846	0.349306	0.063631	-0.339958	-0.932308	0.123410
20805	5.702298	-1.391846	-6.860093	0.007706	-1.040673	0.299417	0.096138	0.085068	0.991726	-0.935157	0.348990	0.060719	-0.340938	-0.933257	0.113103
20806	6.668324	-1.124504	-6.596031	0.052304	-1.118068	0.295442	0.089632	0.075627	0.993100	-0.935536	0.348454	0.057901	-0.341671	-0.934270	0.101984
20807	10.951033	-0.301321	-3.457898	-0.047373	-0.984686	0.256919	0.083906	0.067313	0.994198	-0.935585	0.348736	0.055348	-0.342987	-0.934800	0.092238
20808	15.222778	2.980646	1.564653	-0.258224	-0.562900	0.180683	0.080344	0.062651	0.994796	-0.934770	0.351221	0.053377	-0.346049	-0.934194	0.086783
20809	14.485221	-1.320331	0.452611	-0.796743	-0.612873	0.301215	0.075436	0.057995	0.995463	-0.932205	0.358495	0.049757	-0.353983	-0.931728	0.081107
20810	13.188964	-8.067641	-5.398842	0.294765	-1.303040	0.642930	0.064901	0.048106	0.996731	-0.933622	0.355593	0.043630	-0.352332	-0.933402	0.067991
20811	14.572936	-0.923322	-4.382930	2.221826	-1.686413	0.625380	0.053311	0.034445	0.997984	-0.941590	0.334524	0.038753	-0.332514	-0.941758	0.050267
20812	12.355715	8.527082	-3.444015	2.278840	-1.641167	0.305259	0.045191	0.019882	0.998780	-0.949018	0.313078	0.036707	-0.311967	-0.949519	0.033017
20813	9.131901	8.675359	-4.080437	0.947828	-1.631978	0.334162	0.037040	0.005387	0.999299	-0.952064	0.304042	0.033651	-0.303647	-0.952643	0.016390
20814	7.558433	6.044739	-3.308817	-0.473008	-1.570038	0.616304	0.026424	-0.007703	0.999621	-0.950748	0.308742	0.027511	-0.308837	-0.951115	0.000835
20815	7.588471	0.699473	-3.583353	-1.175976	-1.491540	0.750438	0.014660	-0.019507	0.999702	-0.947195	0.320026	0.020134	-0.320323	-0.947208	-0.013785
20816	9.446835	-2.284624	-3.564842	-0.773106	-1.383366	0.722090	0.003398	-0.030285	0.999536	-0.944688	0.327707	0.013141	-0.327952	-0.944294	-0.027496
20817	10.734957	-2.040179	-2.690216	-0.362152	-1.287003	0.666348	-0.007087	-0.040238	0.999165	-0.943475	0.331377	0.006653	-0.331368	-0.942640	-0.040312
20818	10.574823	-2.171515	-1.552461	-0.264121	-1.206833	0.616311	-0.016866	-0.049586	0.998627	-0.942456	0.334329	0.000683	-0.333904	-0.941151	-0.052371
20819	9.848612	-2.702501	-1.176750	-0.078659	-1.150253	0.530061	-0.025656	-0.058638	0.997950	-0.942075	0.335373	-0.004513	-0.334421	-0.940259	-0.063845
20820	9.723228	-2.333163	-0.997449	0.221511	-1.118006	0.436253	-0.033452	-0.067719	0.997143	-0.942618	0.333753	-0.008957	-0.332193	-0.940225	-0.074998
20821	9.842614	-1.301769	-1.129651	0.350487	-1.084525	0.395409	-0.040715	-0.076611	0.996229	-0.943624	0.330758	-0.013130	-0.328505	-0.940601	-0.085759
20822	9.573442	-0.286299	-1.299381	0.286932	-1.066997	0.383161	-0.047786	-0.085410	0.995199	-0.944329	0.328556	-0.017146	-0.325514	-0.940615	-0.096355
20823	9.729816	0.506088	-1.635808	0.146577	-1.087003	0.369555	-0.054755	-0.094426	0.994025	-0.944611	0.327525	-0.020920	-0.323593	-0.940112	-0.107129
20824	9.623503	0.371850	-1.924675	-0.058756	-1.074904	0.373071	-0.061724	-0.103324	0.992731	-0.944140	0.328631	-0.024499	-0.323711	-0.938789	-0.117837
20825	9.614570	-0.412087	-2.403297	-0.154630	-1.040089	0.366858	-0.068509	-0.111876	0.991358	-0.943397	0.330491	-0.027898	-0.324514	-0.937155	-0.128185
20826	9.863716	-0.952656	-2.924661	-0.097242	-0.984494	0.343817	-0.074898	-0.119992	0.989946	-0.942829	0.331820	-0.031113	-0.324751	-0.935680	-0.137984
20827	9.884181	-1.062150	-3.261840	0.025695	-0.913137	0.326532	-0.080888	-0.127454	0.988541	-0.942655	0.331998	-0.034329	-0.323818	-0.934630	-0.146999
20828	9.861970	-0.838441	-3.308647	0.043810	-0.857641	0.308283	-0.086542	-0.134463	0.987132	-0.942476	0.332176	-0.037379	-0.322876	-0.933584	-0.155475
20829	9.809255	-0.873999	-3.259045	0.001503	-0.814826	0.284278	-0.091799	-0.141127	0.985726	-0.942225	0.332567	-0.040135	-0.322156	-0.932461	-0.163502
20830	9.832059	-0.931910	-3.302733	-0.002599	-0.772073	0.263403	-0.096744	-0.147466	0.984324	-0.941907	0.333154	-0.042664	-0.321641	-0.931269	-0.171130
20831	9.704043	-0.749187	-3.207151	-0.028521	-0.727120	0.242721	-0.101318	-0.153430	0.982952	-0.941573	0.333797	-0.044950	-0.321210	-0.930075	-0.178285
20832	9.718690	-0.619858	-3.015942	-0.074258	-0.684484	0.228133	-0.105618	-0.159067	0.981602	-0.941094	0.334862	-0.046995	-0.321226	-0.928744	-0.185065
20833	9.728477	-0.591303	-2.831506	-0.088514	-0.647877	0.214918	-0.109673	-0.164366	0.980284	-0.940577	0.336043	-0.048885	-0.321382	-0.927394	-0.191453
20834	9.681803	-0.594537	-2.725582	-0.073659	-0.620544	0.207072	-0.113569	-0.169459	0.978972	-0.940106	0.337090	-0.050710	-0.321408	-0.926096	-0.197592
20835	9.591284	-0.620837	-2.565301	-0.065307	-0.601549	0.194020	-0.117276	-0.174378	0.977670	-0.939671	0.338039	-0.052425	-0.321348	-0.924836	-0.203502
20836	9.608979	-0.879899	-2.323753	-0.054578	-0.591562	0.176918	-0.120794	-0.179287	0.976353	-0.939282	0.338874	-0.053980	-0.321183	-0.923591	-0.209335
20837	9.623347	-0.998063	-2.080711	-0.001400	-0.585054	0.155335	-0.124081	-0.184167	0.975032	-0.939087	0.339180	-0.055441	-0.320500	-0.922518	-0.215034
20838	9.573940	-0.806363	-2.131599	0.062212	-0.585668	0.147947	-0.127299	-0.189106	0.973670	-0.939097	0.338899	-0.056958	-0.319205	-0.921621	-0.220730
20839	9.482131	-0.344638	-2.098886	0.058116	-0.591007	0.143441	-0.130480	-0.194071	0.972271	-0.939097	0.338649	-0.058431	-0.317919	-0.920681	-0.226438
20840	9.405119	-0.081168	-2.064316	-0.027247	-0.594584	0.149445	-0.133762	-0.199051	0.970817	-0.938751	0.339374	-0.059760	-0.317575	-0.919350	-0.232255
20841	9.318430	-0.390636	-2.033219	-0.077834	-0.619103	0.143347	-0.137024	-0.204258	0.969280	-0.938310	0.340388	-0.060915	-0.317488	-0.917832	-0.238298
20842	9.358379	-0.736763	-2.070197	-0.055924	-0.630365	0.141264	-0.140305	-0.209597	0.967669	-0.937935	0.341209	-0.062087	-0.317164	-0.916322	-0.244462
20843	9.280856	-0.776733	-2.126827	-0.017215	-0.635031	0.137934	-0.143561	-0.214947	0.966016	-0.937685	0.341669	-0.063326	-0.316446	-0.914910	-0.250603
20844	9.219868	-0.761366	-2.112866	-0.032594	-0.654238	0.137349	-0.146872	-0.220498	0.964266	-0.937380	0.342281	-0.064508	-0.315826	-0.913359	-0.256962
20845	9.271867	-0.808519	-2.256329	-0.024016	-0.673088	0.131274	-0.150177	-0.226197	0.962435	-0.937110	0.342802	-0.065658	-0.315073	-0.911768	-0.263453
20846	9.398908	-0.594606	-2.372619	-0.018899	-0.684481	0.138150	-0.153581	-0.231998	0.960515	-0.936840	0.343306	-0.066875	-0.314236	-0.910120	-0.270070
20847	9.310123	-0.562204	-2.377102	-0.053175	-0.701558	0.129704	-0.156949	-0.237938	0.958516	-0.936472	0.344102	-0.067922	-0.313666	-0.908284	-0.276829
20848	9.194194	-0.579640	-2.046535	-0.064201	-0.725760	0.121235	-0.160314	-0.244143	0.956396	-0.936078	0.344991	-0.068841	-0.313141	-0.906298	-0.283844
20849	9.022513	-0.946500	-1.757737	-0.050600	-0.766967	0.119806	-0.163786	-0.250680	0.954114	-0.935727	0.345752	-0.069788	-0.312393	-0.904221	-0.291197
20850	8.960483	-1.289860	-1.435625	0.013115	-0.829712	0.106974	-0.167373	-0.257813	0.951588	-0.935530	0.346083	-0.070784	-0.311079	-0.902086	-0.299116
20851	9.058910	-1.034370	-1.140848	0.120600	-0.895530	0.104452	-0.171075	-0.265529	0.948803	-0.935728	0.345276	-0.072090	-0.308457	-0.900155	-0.307531
20852	9.105472	-0.770840	-0.997683	0.117016	-0.977610	0.120017	-0.175203	-0.273909	0.945662	-0.935820	0.344723	-0.073531	-0.305851	-0.897853	-0.316726
20853	9.453621	-0.596415	-1.201780	0.131972	-1.062866	0.129953	-0.179605	-0.282999	0.942154	-0.935993	0.343907	-0.075130	-0.302752	-0.895343	-0.326652
20854	9.513568	0.336516	-1.691029	0.177027	-1.138362	0.158960	-0.184473	-0.292664	0.938252	-0.936237	0.342793	-0.077152	-0.299047	-0.892659	-0.337239
20855	9.359923	0.400707	-2.220935	0.031266	-1.214208	0.173209	-0.189662	-0.302895	0.933961	-0.936009	0.343035	-0.078828	-0.296505	-0.889147	-0.348573
20856	9.138243	-0.307977	-2.657284	-0.047037	-1.278743	0.161686	-0.194907	-0.313716	0.929297	-0.935561	0.343961	-0.080105	-0.294511	-0.885027	-0.360541
20857	9.304694	-0.955914	-3.262890	0.022227	-1.346844	0.132758	-0.200048	-0.325159	0.924258	-0.935367	0.344192	-0.081364	-0.291665	-0.880797	-0.372998
20858	9.478840	-0.908344	-3.800508	0.124800	-1.350547	0.111083	-0.204953	-0.336677	0.919044	-0.935506	0.343471	-0.082799	-0.287789	-0.876742	-0.385359
20859	9.349549	-0.616779	-4.138093	0.108093	-1.354385	0.112621	-0.209831	-0.348144	0.913656	-0.935586	0.342913	-0.084202	-0.283991	-0.872471	-0.397672
20860	9.234228	-0.265550	-4.263273	0.019385	-1.358377	0.124181	-0.214783	-0.359569	0.908063	-0.935380	0.343192	-0.085349	-0.280951	-0.867715	-0.410045
20861	9.315236	-0.100517	-4.373924	-0.121128	-1.366440	0.148538	-0.219950	-0.370886	0.902256	-0.934722	0.344783	-0.086137	-0.279135	-0.862304	-0.422510
20862	9.417180	0.065844	-4.243038	-0.256794	-1.360643	0.176026	-0.225342	-0.382001	0.896268	-0.933618	0.347659	-0.086556	-0.278531	-0.856276	-0.434984
20863	9.465791	-0.137508	-3.904285	-0.422270	-1.388956	0.188428	-0.230925	-0.393195	0.889984	-0.932015	0.351989	-0.086322	-0.279323	-0.849412	-0.447747
20864	9.792200	-0.642536	-3.477060	-0.510539	-1.422232	0.184815	-0.236582	-0.404600	0.883362	-0.930157	0.357049	-0.085578	-0.280779	-0.841911	-0.460813
20865	9.957413	-0.617248	-3.017882	-0.463619	-1.482156	0.163212	-0.242218	-0.416443	0.876302	-0.928468	0.361603	-0.084794	-0.281561	-0.834158	-0.474241
20866	10.048026	-0.205057	-2.441359	-0.434212	-1.553862	0.152250	-0.247959	-0.428819	0.868695	-0.926877	0.365854	-0.083968	-0.281808	-0.825994	-0.488179
20867	10.203703	-0.295317	-1.591590	-0.488828	-1.657912	0.133799	-0.253826	-0.441955	0.860377	-0.925169	0.370448	-0.082650	-0.282198	-0.816972	-0.502912
20868	10.904476	-1.203981	-0.666848	-0.537679	-1.819147	0.071127	-0.259571	-0.456488	0.851024	-0.923473	0.375135	-0.080447	-0.282526	-0.806779	-0.518928
20869	12.018856	-1.230975	0.235784	-0.368874	-1.986787	0.001837	-0.265135	-0.472415	0.840552	-0.922436	0.378094	-0.078464	-0.280740	-0.796159	-0.536019
20870	13.004049	-0.262199	0.555159	-0.151906	-2.152538	-0.011736	-0.270973	-0.489504	0.828830	-0.922051	0.379237	-0.077474	-0.276399	-0.785217	-0.554110
20871	13.534541	1.322190	0.357685	-0.068869	-2.262110	0.049794	-0.277574	-0.506958	0.816055	-0.921733	0.380014	-0.077444	-0.270852	-0.773682	-0.572762
20872	13.235862	2.500072	-0.577340	-0.123232	-2.351995	0.164180	-0.285339	-0.524400	0.802238	-0.920948	0.381802	-0.077989	-0.265398	-0.761073	-0.591888
20873	12.457174	3.322767	-1.663598	-0.320638	-2.446697	0.283735	-0.294346	-0.541769	0.787304	-0.919290	0.385722	-0.078264	-0.261279	-0.746797	-0.611578
20874	11.874779	3.926190	-1.944595	-0.823387	-2.537076	0.390757	-0.304503	-0.558990	0.771238	-0.915977	0.393944	-0.076121	-0.261274	-0.729615	-0.631979
20875	11.712248	3.266281	-2.532307	-1.376733	-2.603768	0.458700	-0.315509	-0.575900	0.754184	-0.910936	0.406441	-0.070724	-0.265801	-0.709327	-0.652844
20876	11.432025	1.883276	-3.181617	-1.773766	-2.647211	0.484766	-0.326986	-0.592383	0.736317	-0.904605	0.421644	-0.062498	-0.273441	-0.686512	-0.673744
20877	11.064651	0.104241	-4.735793	-1.871799	-2.657679	0.477311	-0.338616	-0.608275	0.717873	-0.897833	0.437121	-0.053116	-0.281488	-0.662516	-0.694145
20878	10.925284	-1.956624	-6.926361	-1.709558	-2.595501	0.453614	-0.350001	-0.623163	0.699405	-0.891414	0.451028	-0.044226	-0.287891	-0.638938	-0.713356
20879	10.682941	-2.612476	-8.315324	-1.410721	-2.495129	0.447625	-0.361163	-0.636800	0.681210	-0.885745	0.462688	-0.037078	-0.291577	-0.616770	-0.731148
20880	10.356695	-2.623097	-9.190309	-1.171009	-2.434154	0.458675	-0.372268	-0.649423	0.663073	-0.880651	0.472722	-0.031432	-0.293037	-0.595637	-0.747894
20881	9.877252	-2.509896	-9.649727	-0.936188	-2.427171	0.437936	-0.383171	-0.661562	0.644605	-0.876269	0.481055	-0.027170	-0.292116	-0.575258	-0.764033
20882	9.492803	-1.947087	-9.173669	-0.682634	-2.380816	0.365110	-0.393222	-0.673274	0.626162	-0.872881	0.487336	-0.024156	-0.288887	-0.556064	-0.779318
20883	8.702788	-1.637068	-8.593437	-0.498410	-2.149831	0.308338	-0.402030	-0.683553	0.609202	-0.870238	0.492135	-0.022097	-0.284705	-0.539034	-0.792707
20884	7.550703	-1.522155	-8.051038	-0.323411	-1.808635	0.287995	-0.409584	-0.691764	0.594729	-0.868169	0.495816	-0.021186	-0.280221	-0.525003	-0.803647
20885	6.304942	-1.107111	-7.877364	-0.189122	-1.435063	0.285726	-0.416008	-0.697818	0.583084	-0.866478	0.498761	-0.021295	-0.275960	-0.514088	-0.812133
20886	5.220317	-0.599384	-7.664962	-0.124978	-1.064038	0.297878	-0.421448	-0.701767	0.574373	-0.864901	0.501462	-0.021940	-0.272630	-0.506022	-0.818300
20887	4.327487	0.068098	-8.404995	-0.076984	-0.688903	0.319561	-0.426036	-0.703647	0.568660	-0.863353	0.504072	-0.023090	-0.270398	-0.500791	-0.822249
20888	2.537945	-0.575471	-10.922648	-0.101215	-0.440877	0.370755	-0.430367	-0.703985	0.564969	-0.861507	0.507165	-0.024298	-0.269427	-0.497181	-0.824755
20889	2.237743	-0.585402	-8.959594	-0.135654	-0.246412	0.368879	-0.434161	-0.703350	0.562853	-0.859562	0.510409	-0.025213	-0.269552	-0.494754	-0.826172
20890	4.197660	0.998250	-5.296509	-0.359794	0.143760	0.299364	-0.436286	-0.701120	0.563991	-0.857297	0.514269	-0.023870	-0.273308	-0.493922	-0.825436
20891	5.496824	0.478297	-4.662132	-0.644651	0.624228	0.216526	-0.436363	-0.696935	0.569096	-0.854579	0.518946	-0.019741	-0.281572	-0.494952	-0.822034
20892	5.609581	-0.959662	-5.166347	-0.588111	1.091434	0.146703	-0.434432	-0.690758	0.578033	-0.852269	0.522867	-0.015706	-0.291386	-0.499463	-0.815862
20893	4.922723	-2.205986	-5.842605	-0.182052	1.496948	0.037386	-0.430284	-0.683036	0.590185	-0.851585	0.524019	-0.014401	-0.299431	-0.508789	-0.807140
20894	4.272301	-2.692058	-7.011608	0.447456	1.836424	-0.142291	-0.423478	-0.674312	0.604953	-0.853555	0.520723	-0.017078	-0.303497	-0.523593	-0.796078
20895	4.071697	-2.128200	-7.703979	0.983893	2.118075	-0.343654	-0.414059	-0.664814	0.621754	-0.857996	0.513154	-0.022692	-0.303970	-0.542858	-0.782884
20896	4.158081	-1.370044	-7.673261	1.261574	2.392208	-0.515635	-0.402304	-0.654192	0.640456	-0.863942	0.502746	-0.029159	-0.302911	-0.565048	-0.767441
20897	4.318400	-1.164081	-7.426155	1.383238	2.684989	-0.618288	-0.388781	-0.641783	0.661032	-0.870582	0.490735	-0.035580	-0.301557	-0.589316	-0.749513
20898	4.483767	-1.551976	-7.363881	1.475443	2.967633	-0.691081	-0.373756	-0.627264	0.683262	-0.877668	0.477445	-0.041784	-0.300010	-0.615294	-0.728977
20899	4.723588	-1.737330	-7.315043	1.665284	3.230265	-0.766682	-0.357304	-0.610555	0.706793	-0.885455	0.462204	-0.048353	-0.297160	-0.643110	-0.705766
20900	4.995110	-1.744733	-7.372806	1.861773	3.446176	-0.866806	-0.339371	-0.591827	0.731142	-0.893976	0.444731	-0.054963	-0.292633	-0.672276	-0.680008
20901	5.035453	-1.463836	-8.696277	1.995474	3.578325	-0.989223	-0.320071	-0.571557	0.755564	-0.903028	0.425251	-0.060853	-0.286523	-0.701772	-0.652242
20902	5.676375	-2.756677	-10.215223	2.027308	3.518909	-1.043084	-0.300594	-0.550701	0.778699	-0.912009	0.404871	-0.065728	-0.279076	-0.729937	-0.623946
20903	8.632391	1.093392	-6.019763	2.040689	3.632134	-1.064427	-0.280801	-0.527892	0.801549	-0.920725	0.383939	-0.069693	-0.270955	-0.757576	-0.593854
20904	8.897396	3.744082	-5.953470	1.180161	3.707535	-1.154767	-0.260043	-0.503718	0.823800	-0.927049	0.368893	-0.067073	-0.270108	-0.781144	-0.562899
20905	7.919450	1.837186	-7.237488	0.164085	3.658378	-1.187431	-0.238943	-0.479145	0.844586	-0.930468	0.361752	-0.058013	-0.277734	-0.799722	-0.532267
20906	8.286785	1.530067	-6.061796	-0.420263	3.606400	-1.151292	-0.217923	-0.454185	0.863843	-0.931910	0.359769	-0.045938	-0.289919	-0.815035	-0.501662
20907	9.223738	0.856523	-6.077084	-0.883086	3.597970	-1.146780	-0.196473	-0.428776	0.881788	-0.931660	0.361955	-0.031582	-0.305626	-0.827732	-0.470588
20908	9.283069	-0.178396	-6.021713	-0.964038	3.590369	-1.093836	-0.174968	-0.402835	0.898393	-0.930672	0.365442	-0.017392	-0.321305	-0.839152	-0.438848
20909	9.453381	-0.774160	-5.595714	-0.816921	3.587963	-0.994991	-0.153891	-0.376187	0.913674	-0.929629	0.368466	-0.004870	-0.334826	-0.850127	-0.406418
20910	9.094590	-1.486423	-5.514257	-0.448360	3.607780	-0.907296	-0.133144	-0.348662	0.927743	-0.929407	0.369018	0.005300	-0.344202	-0.861546	-0.373181
20911	8.958827	-1.986725	-5.598581	0.103843	3.571074	-0.828349	-0.113035	-0.320722	0.940404	-0.930785	0.365346	0.012721	-0.347653	-0.873876	-0.339820
20912	9.527910	-1.516275	-4.961538	0.670148	3.528344	-0.747101	-0.093786	-0.292361	0.951698	-0.933876	0.357160	0.017690	-0.345080	-0.887109	-0.306525
20913	9.898040	-0.250868	-4.275415	1.036883	3.502588	-0.675818	-0.075441	-0.263435	0.961723	-0.937988	0.346018	0.021202	-0.338359	-0.900485	-0.273203
20914	9.882814	0.835631	-3.878071	1.143795	3.440494	-0.602919	-0.058215	-0.234297	0.970421	-0.942209	0.334155	0.024155	-0.329930	-0.912932	-0.240209
20915	9.641679	1.591856	-3.542087	1.012846	3.360361	-0.532216	-0.042185	-0.205193	0.977812	-0.945774	0.323692	0.027124	-0.322075	-0.923645	-0.207721
20916	9.449438	1.826071	-3.182652	0.736338	3.255192	-0.464418	-0.027335	-0.176480	0.983925	-0.948279	0.315985	0.030331	-0.316258	-0.932206	-0.175990
20917	9.411169	1.912177	-3.056864	0.411246	3.139895	-0.382142	-0.013779	-0.148311	0.988845	-0.949646	0.311529	0.033492	-0.313021	-0.938591	-0.145136
20918	9.461805	1.544048	-2.848316	0.088005	3.018787	-0.266228	-0.001747	-0.120749	0.992681	-0.949935	0.310358	0.036081	-0.312444	-0.942920	-0.115246
20919	9.378937	1.666927	-2.749027	-0.075304	2.918870	-0.142633	0.008787	-0.093631	0.995568	-0.949687	0.310931	0.037625	-0.313076	-0.945809	-0.086188
20920	9.198511	1.345971	-2.290151	-0.283648	2.796541	-0.045255	0.018069	-0.067316	0.997568	-0.948781	0.313599	0.038347	-0.315417	-0.947167	-0.058202
20921	9.002709	1.265006	-1.874432	-0.389059	2.658292	-0.005348	0.026595	-0.042155	0.998757	-0.947539	0.317299	0.038624	-0.318533	-0.947388	-0.031505
20922	9.249912	0.982637	-2.257085	-0.510315	2.506628	-0.002617	0.034720	-0.018442	0.999227	-0.945892	0.322152	0.038813	-0.322619	-0.946508	-0.006259
20923	9.342897	0.840069	-2.365367	-0.561147	2.370726	-0.025463	0.042711	0.003890	0.999080	-0.944051	0.327477	0.039083	-0.327023	-0.944851	0.017659
20924	9.101459	0.542623	-2.036707	-0.656963	2.202688	-0.074987	0.050742	0.024407	0.998413	-0.941839	0.333711	0.039709	-0.332212	-0.942360	0.039921
20925	8.709104	0.437846	-1.938329	-0.717575	2.002801	-0.132467	0.058748	0.042798	0.997355	-0.939352	0.340528	0.040719	-0.337884	-0.939260	0.060207
20926	8.439235	0.459630	-2.054099	-0.681293	1.827142	-0.175410	0.066679	0.059303	0.996011	-0.936910	0.347031	0.042060	-0.343152	-0.935977	0.078701
20927	8.002533	0.954744	-2.134297	-0.594656	1.638497	-0.194274	0.074205	0.073927	0.994499	-0.934709	0.352740	0.043522	-0.347582	-0.932797	0.095275
20928	7.834653	1.430275	-2.138102	-0.502016	1.478939	-0.190153	0.081209	0.086998	0.992893	-0.932794	0.357595	0.044961	-0.351142	-0.929816	0.110191
20929	7.940028	1.602656	-1.898558	-0.482993	1.342102	-0.169878	0.087577	0.098838	0.991242	-0.930935	0.362261	0.046127	-0.354529	-0.926822	0.123737
20930	7.375068	0.886411	-2.381968	-0.414262	1.151119	-0.134651	0.092989	0.108969	0.989686	-0.929324	0.366262	0.046990	-0.357364	-0.924109	0.135326
20931	7.371410	0.551875	-2.290671	-0.264323	0.938353	-0.116049	0.097476	0.117197	0.988313	-0.928255	0.368858	0.047813	-0.358944	-0.922067	0.144743
20932	7.348884	0.122059	-2.311133	-0.180968	0.732544	-0.110414	0.101195	0.123502	0.987171	-0.927480	0.370687	0.048701	-0.359917	-0.920510	0.152057
20933	7.150625	-0.210198	-2.441867	-0.076487	0.502194	-0.098884	0.103969	0.127747	0.986342	-0.927091	0.371541	0.049603	-0.360130	-0.919586	0.157061
20934	7.080455	-0.075116	-2.667692	0.005812	0.274032	-0.074873	0.105709	0.129949	0.985870	-0.927018	0.371613	0.050416	-0.359810	-0.919248	0.159748
20935	6.930884	0.087040	-2.829117	0.045867	0.033478	-0.027017	0.106128	0.130148	0.985798	-0.927142	0.371252	0.050800	-0.359368	-0.919366	0.160066
20936	6.992369	0.208218	-3.014724	-0.007830	-0.217530	0.053230	0.104910	0.128302	0.986171	-0.927154	0.371284	0.050327	-0.359692	-0.919612	0.157907
20937	7.203922	0.063139	-3.062156	-0.113625	-0.480522	0.168102	0.101668	0.124499	0.986997	-0.926906	0.372142	0.048537	-0.361260	-0.919788	0.153234
20938	8.735961	0.077232	-1.760845	-0.331487	-0.703400	0.329884	0.096113	0.119215	0.988206	-0.926013	0.374817	0.044847	-0.365050	-0.919402	0.146419
20939	13.149961	1.898336	4.120700	-0.819521	-0.626269	0.465761	0.089543	0.115218	0.989296	-0.923408	0.381821	0.039110	-0.373228	-0.917026	0.140582
20940	14.814166	2.870484	6.661891	-1.595652	-0.507006	0.430557	0.083704	0.112208	0.990153	-0.917690	0.395948	0.032708	-0.388379	-0.911391	0.136114
20941	14.662247	-3.433201	3.266488	-1.863181	-0.732786	0.450809	0.076720	0.107366	0.991255	-0.910639	0.412396	0.025813	-0.406019	-0.904656	0.129410
20942	12.973593	-8.331031	1.209617	-0.955413	-1.115541	0.542512	0.067263	0.099502	0.992761	-0.907090	0.420493	0.019314	-0.415528	-0.901823	0.118540
20943	11.448064	-5.869771	-1.388336	0.565021	-1.491936	0.456544	0.056996	0.087915	0.994496	-0.909698	0.414983	0.015451	-0.411340	-0.905572	0.103628
20944	11.028823	1.306584	-2.210624	1.542480	-1.662147	0.263005	0.047914	0.073827	0.996119	-0.916067	0.400768	0.014360	-0.398153	-0.913200	0.086833
20945	9.873678	5.558830	-2.964539	1.409667	-1.597829	0.191609	0.039937	0.059929	0.997403	-0.921667	0.387743	0.013607	-0.385920	-0.919818	0.070720
20946	8.843374	5.304948	-2.751021	0.529375	-1.537381	0.291431	0.031397	0.046839	0.998409	-0.923791	0.382736	0.011095	-0.381607	-0.922670	0.055286
20947	8.747884	2.375515	-3.096106	-0.294360	-1.476829	0.438134	0.021742	0.034890	0.999155	-0.922770	0.385293	0.006625	-0.384737	-0.922134	0.040572
20948	9.346660	-0.341196	-3.673710	-0.459807	-1.389060	0.508010	0.011734	0.024004	0.999643	-0.921065	0.389407	0.001461	-0.389233	-0.920753	0.026678
20949	10.229089	-1.153549	-3.432883	-0.187223	-1.282195	0.485876	0.002307	0.014088	0.999898	-0.920360	0.391058	-0.003387	-0.391066	-0.920258	0.013868
20950	10.422114	-0.841205	-2.783040	0.036294	-1.172505	0.444103	-0.006316	0.004973	0.999968	-0.920482	0.390707	-0.007757	-0.390733	-0.920502	0.002110
20951	10.014140	-0.041987	-2.087805	0.020487	-1.084599	0.430492	-0.014466	-0.003339	0.999890	-0.920510	0.390534	-0.012014	-0.390451	-0.920582	-0.008723
20952	9.580124	0.211125	-1.352647	-0.161259	-1.054209	0.435222	-0.022547	-0.011398	0.999681	-0.919789	0.392075	-0.016275	-0.391765	-0.919862	-0.019324
20953	9.564161	-0.417026	-1.125262	-0.279385	-1.048784	0.417186	-0.030454	-0.019407	0.999348	-0.918574	0.394726	-0.020327	-0.394075	-0.918594	-0.029848
20954	9.712062	-1.090210	-0.920939	-0.284338	-1.018973	0.371072	-0.037841	-0.027353	0.998909	-0.917314	0.397448	-0.023867	-0.396362	-0.917217	-0.040131
20955	9.663231	-1.338099	-0.822946	-0.164856	-1.005066	0.347056	-0.044964	-0.035194	0.998368	-0.916510	0.399086	-0.027209	-0.397477	-0.916238	-0.050200
20956	9.735794	-0.915698	-0.746003	0.007812	-0.983729	0.335136	-0.051898	-0.042931	0.997729	-0.916370	0.399169	-0.030491	-0.396954	-0.915872	-0.060057
20957	9.748784	-0.412723	-1.056582	0.122556	-0.955281	0.323220	-0.058596	-0.050401	0.997009	-0.916672	0.398214	-0.033744	-0.395322	-0.915907	-0.069535
20958	9.661546	-0.144870	-1.519448	0.126588	-0.933259	0.329586	-0.065255	-0.057700	0.996199	-0.916959	0.397257	-0.037055	-0.393609	-0.915892	-0.078832
20959	9.681282	0.006511	-1.875440	0.042511	-0.909649	0.333254	-0.071838	-0.064716	0.995315	-0.916893	0.397088	-0.040359	-0.392615	-0.915496	-0.087864
20960	9.752074	-0.205987	-2.020149	-0.019935	-0.889569	0.332969	-0.078337	-0.071598	0.994353	-0.916558	0.397520	-0.043585	-0.392155	-0.914796	-0.096764
20961	9.867408	-0.351532	-2.164509	-0.077175	-0.862846	0.324991	-0.084651	-0.078203	0.993337	-0.915986	0.398485	-0.046687	-0.392179	-0.913835	-0.105365
20962	9.798853	-0.517271	-2.145598	-0.134639	-0.838379	0.318997	-0.090818	-0.084650	0.992263	-0.915171	0.399997	-0.049638	-0.392701	-0.912599	-0.113797
20963	9.825483	-0.640170	-2.113063	-0.200966	-0.819131	0.311652	-0.096841	-0.090879	0.991142	-0.914085	0.402118	-0.052441	-0.393791	-0.911066	-0.122013
20964	9.836053	-1.042784	-2.205739	-0.254085	-0.798219	0.297177	-0.102663	-0.097012	0.989974	-0.912780	0.404733	-0.054996	-0.395340	-0.909274	-0.130101
20965	9.835436	-1.344057	-2.252916	-0.244762	-0.774894	0.271670	-0.108161	-0.102958	0.988788	-0.911521	0.407242	-0.057305	-0.396776	-0.907498	-0.137896
20966	9.823581	-1.401074	-2.456595	-0.219486	-0.747266	0.238892	-0.113266	-0.108824	0.987587	-0.910378	0.409508	-0.059286	-0.397973	-0.905793	-0.145454
20967	9.814221	-1.345852	-2.579886	-0.184401	-0.711395	0.210192	-0.117964	-0.114410	0.986405	-0.909398	0.411425	-0.061035	-0.398848	-0.904235	-0.152577
20968	9.686024	-1.083733	-2.510497	-0.167821	-0.681735	0.188434	-0.122359	-0.119860	0.985222	-0.908496	0.413183	-0.062563	-0.399579	-0.902725	-0.159449
20969	9.729966	-0.924898	-2.368898	-0.200398	-0.659115	0.173116	-0.126519	-0.125098	0.984044	-0.907477	0.415216	-0.063890	-0.400598	-0.901081	-0.166056
20970	9.724995	-1.101140	-2.187199	-0.208180	-0.633356	0.151609	-0.130396	-0.130237	0.982871	-0.906442	0.417305	-0.064961	-0.401697	-0.899386	-0.172467
20971	9.567436	-1.069865	-2.049558	-0.150160	-0.613785	0.134534	-0.134034	-0.135201	0.981711	-0.905658	0.418845	-0.065967	-0.402266	-0.897936	-0.178585
20972	9.648071	-1.091897	-2.046437	-0.139164	-0.607706	0.113635	-0.137471	-0.140245	0.980527	-0.904939	0.420271	-0.066762	-0.402724	-0.896495	-0.184688
20973	9.574880	-1.045404	-2.098793	-0.074480	-0.595201	0.097311	-0.140700	-0.145179	0.979350	-0.904502	0.421089	-0.067524	-0.402591	-0.895325	-0.190562
20974	9.545877	-0.822502	-2.207440	-0.034685	-0.592066	0.087170	-0.143833	-0.150178	0.978140	-0.904234	0.421549	-0.068243	-0.402085	-0.894284	-0.196429
20975	9.493173	-0.681650	-2.295839	-0.049509	-0.568854	0.078296	-0.146779	-0.154943	0.976959	-0.903920	0.422122	-0.068858	-0.401727	-0.893200	-0.202015
20976	9.375603	-0.581632	-2.201453	-0.070461	-0.567853	0.074489	-0.149696	-0.159765	0.975739	-0.903523	0.422888	-0.069374	-0.401545	-0.891987	-0.207656
20977	9.371116	-0.569221	-2.165842	-0.092094	-0.566625	0.074266	-0.152594	-0.164513	0.974500	-0.903039	0.423840	-0.069852	-0.401541	-0.890671	-0.213237
20978	9.355590	-0.528389	-2.114741	-0.101531	-0.569929	0.079587	-0.155564	-0.169316	0.973207	-0.902505	0.424896	-0.070340	-0.401602	-0.889267	-0.218907
20979	9.321959	-0.633485	-1.966804	-0.093583	-0.579583	0.080297	-0.158568	-0.174136	0.971871	-0.902003	0.425875	-0.070862	-0.401556	-0.887866	-0.224601
20980	9.317311	-0.660280	-1.978771	-0.082792	-0.596244	0.079150	-0.161638	-0.179156	0.970451	-0.901540	0.426769	-0.071374	-0.401371	-0.886438	-0.230499
20981	9.359917	-0.713507	-1.986180	-0.073174	-0.612379	0.077124	-0.164742	-0.184262	0.968972	-0.901120	0.427567	-0.071899	-0.401052	-0.885005	-0.236481
20982	9.279209	-0.549314	-1.948571	-0.048290	-0.632100	0.084768	-0.168002	-0.189557	0.967390	-0.900782	0.428170	-0.072536	-0.400458	-0.883594	-0.242683
20983	9.205839	-0.591229	-1.987379	-0.077305	-0.663636	0.073432	-0.171272	-0.195113	0.965711	-0.900348	0.429003	-0.073004	-0.400049	-0.881979	-0.249145
20984	9.246355	-0.734960	-1.990816	-0.086137	-0.684519	0.077557	-0.174670	-0.200878	0.963918	-0.899867	0.429933	-0.073466	-0.399663	-0.880230	-0.255860
20985	9.229184	-0.918287	-1.893974	-0.067331	-0.709466	0.074636	-0.178126	-0.206808	0.962030	-0.899466	0.430686	-0.073958	-0.399038	-0.878487	-0.262733
20986	9.248171	-0.761327	-1.748967	-0.030256	-0.742956	0.069468	-0.181675	-0.213096	0.959992	-0.899218	0.431114	-0.074476	-0.397996	-0.876773	-0.269942
20987	9.139026	-0.794105	-1.617690	-0.022105	-0.789252	0.064786	-0.185346	-0.219741	0.957790	-0.899012	0.431456	-0.074985	-0.396767	-0.874963	-0.277518
20988	9.087823	-1.021226	-1.515556	0.005590	-0.838418	0.058818	-0.189156	-0.226880	0.955377	-0.898922	0.431555	-0.075494	-0.395169	-0.873090	-0.285579
20989	9.050492	-1.158343	-1.598386	0.071513	-0.897246	0.049302	-0.193087	-0.234505	0.952746	-0.899111	0.431052	-0.076120	-0.392832	-0.871322	-0.294077
20990	9.265553	-1.383678	-1.736797	0.088793	-0.951550	0.030370	-0.197048	-0.242720	0.949873	-0.899398	0.430366	-0.076606	-0.390200	-0.869409	-0.303105
20991	9.363505	-0.946721	-1.690204	0.162340	-0.998312	0.032134	-0.201167	-0.251264	0.946783	-0.899966	0.429042	-0.077358	-0.386773	-0.867634	-0.312439
20992	9.408792	-0.596239	-1.820456	0.098713	-1.054977	0.046441	-0.205612	-0.260268	0.943390	-0.900251	0.428319	-0.078042	-0.383760	-0.865334	-0.322374
20993	9.643609	-0.303488	-1.928460	0.039842	-1.111017	0.049146	-0.210255	-0.269668	0.939719	-0.900303	0.428111	-0.078583	-0.381112	-0.862555	-0.332795
20994	9.575883	-0.334714	-2.405001	0.037492	-1.173155	0.056742	-0.215182	-0.279586	0.935697	-0.900325	0.427956	-0.079174	-0.378301	-0.859468	-0.343806
20995	9.524446	-0.292125	-2.715593	0.003564	-1.229360	0.048923	-0.220209	-0.289933	0.931368	-0.900234	0.428069	-0.079591	-0.375614	-0.855976	-0.355272
20996	9.497197	-0.482552	-2.902764	0.007753	-1.275650	0.038297	-0.225287	-0.300723	0.926721	-0.900179	0.428128	-0.079906	-0.372725	-0.852216	-0.367155
20997	9.449390	-0.495782	-3.255193	0.024107	-1.310206	0.041472	-0.230475	-0.311697	0.921806	-0.900177	0.428053	-0.080326	-0.369544	-0.848302	-0.379238
20998	9.379739	-0.408897	-3.439080	-0.002896	-1.334712	0.046619	-0.235766	-0.322849	0.916615	-0.900059	0.428235	-0.080675	-0.366481	-0.844028	-0.391546
20999	9.330765	-0.207446	-3.661676	-0.073967	-1.365901	0.058056	-0.241229	-0.334108	0.911142	-0.899654	0.429050	-0.080859	-0.363911	-0.839218	-0.404081
21000	9.240685	-0.174298	-3.930943	-0.153755	-1.383926	0.079301	-0.246924	-0.345401	0.905388	-0.898905	0.430615	-0.080878	-0.361938	-0.833828	-0.416811
21001	9.115559	-0.463306	-4.126198	-0.300142	-1.404946	0.086107	-0.252729	-0.356712	0.899380	-0.897609	0.433411	-0.080332	-0.361146	-0.827594	-0.429724
21002	9.297141	-0.847788	-4.004671	-0.374323	-1.427081	0.073136	-0.258495	-0.368212	0.893084	-0.896073	0.436769	-0.079284	-0.360878	-0.820763	-0.442848
21003	9.406119	-0.745461	-3.896113	-0.350622	-1.455381	0.055059	-0.264189	-0.379878	0.886508	-0.894670	0.439840	-0.078145	-0.360236	-0.813777	-0.456066
21004	9.365840	-0.311508	-3.811597	-0.331833	-1.481236	0.052552	-0.269946	-0.391702	0.879601	-0.893339	0.442737	-0.077003	-0.359270	-0.806569	-0.469438
21005	9.268378	-0.547857	-3.500059	-0.396511	-1.542739	0.032466	-0.275726	-0.403954	0.872237	-0.891833	0.446046	-0.075346	-0.358621	-0.798664	-0.483246
21006	9.868859	-1.509837	-3.271402	-0.399013	-1.626645	-0.032821	-0.281217	-0.417077	0.864271	-0.890499	0.449085	-0.073033	-0.357671	-0.790170	-0.497697
21007	10.988677	-1.747548	-3.105985	-0.211916	-1.694620	-0.130856	-0.286041	-0.431001	0.855815	-0.890122	0.450192	-0.070784	-0.354773	-0.782026	-0.512417
21008	11.846407	-0.799215	-2.806738	0.000308	-1.746968	-0.178373	-0.290564	-0.445448	0.846846	-0.890642	0.449410	-0.069197	-0.349757	-0.774342	-0.527317
21009	12.003243	0.742343	-2.304485	0.079273	-1.795779	-0.166595	-0.295261	-0.460046	0.837364	-0.891411	0.448039	-0.068166	-0.343812	-0.766563	-0.542378
21010	11.763822	1.663870	-2.226852	-0.044014	-1.870371	-0.108825	-0.300627	-0.474833	0.827138	-0.891591	0.447865	-0.066948	-0.338658	-0.757595	-0.557997
21011	11.595935	1.820660	-2.896422	-0.221260	-1.925982	-0.053048	-0.306593	-0.489577	0.816281	-0.891015	0.449267	-0.065208	-0.334804	-0.747311	-0.573963
21012	11.235867	1.793431	-3.274515	-0.460170	-1.974310	0.002152	-0.313153	-0.504247	0.804780	-0.889478	0.452687	-0.062473	-0.332812	-0.735398	-0.590276
21013	10.943389	1.575565	-3.351467	-0.730061	-2.004542	0.046136	-0.320189	-0.518657	0.792764	-0.886910	0.458233	-0.058420	-0.332970	-0.721816	-0.606723
21014	10.381760	1.287936	-3.514342	-0.917010	-2.022262	0.091718	-0.327697	-0.532719	0.780272	-0.883560	0.465261	-0.053426	-0.334570	-0.706924	-0.623154
21015	10.063287	0.765328	-4.172404	-1.082978	-2.028767	0.129709	-0.335611	-0.546305	0.767408	-0.879500	0.473519	-0.047542	-0.337410	-0.690891	-0.639394
21016	9.630039	0.336486	-4.771588	-1.182366	-1.986916	0.171168	-0.343798	-0.559086	0.754470	-0.874915	0.482529	-0.041113	-0.341068	-0.674232	-0.655045
21017	8.992678	-0.260331	-4.876892	-1.153965	-1.996838	0.217269	-0.352490	-0.571340	0.741162	-0.870214	0.491427	-0.035039	-0.344208	-0.657321	-0.670411
21018	9.013609	-0.906785	-5.529220	-1.046021	-2.006183	0.273428	-0.361732	-0.583039	0.727472	-0.865635	0.499784	-0.029876	-0.346160	-0.640532	-0.685487
21019	9.345098	-1.490042	-6.142796	-1.008798	-1.960962	0.298783	-0.371070	-0.593949	0.713815	-0.861050	0.507905	-0.024992	-0.347706	-0.623904	-0.699888
21020	9.581541	-2.115109	-6.436056	-0.872597	-1.940667	0.318214	-0.380497	-0.604307	0.700025	-0.856828	0.515174	-0.020996	-0.347947	-0.607790	-0.713809
21021	9.661184	-2.364201	-6.671964	-0.568397	-1.962655	0.330474	-0.390082	-0.614397	0.685823	-0.853596	0.520583	-0.019141	-0.345268	-0.592882	-0.727517
21022	9.705954	-1.763166	-7.095763	-0.323326	-1.966753	0.313194	-0.399439	-0.624315	0.671326	-0.851262	0.524404	-0.018819	-0.340297	-0.578991	-0.740923
21023	9.589040	-1.062073	-6.922892	-0.210928	-1.943640	0.280670	-0.408336	-0.633983	0.656755	-0.849429	0.527358	-0.019058	-0.334263	-0.565649	-0.753863
21024	9.286164	-0.685829	-6.857162	-0.120926	-1.835407	0.253804	-0.416512	-0.642938	0.642766	-0.847994	0.529640	-0.019717	-0.327757	-0.553274	-0.765809
21025	8.478376	-0.354648	-7.227745	-0.076512	-1.702230	0.235784	-0.423990	-0.651028	0.629599	-0.846768	0.531564	-0.020580	-0.321274	-0.541850	-0.776648
21026	7.602385	-0.026502	-7.570347	-0.093718	-1.513608	0.252563	-0.430892	-0.657832	0.617728	-0.845402	0.533703	-0.021353	-0.315637	-0.531430	-0.786101
21027	6.735801	0.343385	-7.386963	-0.168633	-1.310129	0.292872	-0.437429	-0.663185	0.607323	-0.843617	0.536504	-0.021769	-0.311395	-0.521870	-0.794157
21028	6.229961	0.663733	-6.989664	-0.262447	-1.060358	0.339201	-0.443522	-0.666874	0.598805	-0.841322	0.540101	-0.021652	-0.308976	-0.513391	-0.800602
21029	5.514956	0.811021	-7.850166	-0.328415	-0.805534	0.362808	-0.449011	-0.669035	0.592268	-0.838705	0.544177	-0.021129	-0.308162	-0.506225	-0.805464
21030	4.081449	0.399039	-9.096051	-0.435862	-0.611806	0.365354	-0.453904	-0.670142	0.587266	-0.835724	0.548797	-0.019695	-0.309091	-0.499732	-0.809154
21031	4.241723	-0.176716	-8.081165	-0.556818	-0.390758	0.350963	-0.458001	-0.670170	0.584044	-0.832410	0.553894	-0.017193	-0.311976	-0.494038	-0.811540
21032	5.864701	0.473729	-4.941586	-0.650294	0.002798	0.315858	-0.460562	-0.668427	0.584028	-0.828927	0.559190	-0.013689	-0.317432	-0.490421	-0.811618
21033	7.085440	-0.334653	-4.651112	-0.688951	0.445826	0.271945	-0.461336	-0.664737	0.587618	-0.825475	0.564356	-0.009654	-0.325208	-0.489517	-0.809081
21034	6.926596	-1.560454	-5.518615	-0.367112	0.897321	0.218205	-0.460130	-0.659119	0.594847	-0.823276	0.567586	-0.007912	-0.332412	-0.493364	-0.803800
21035	6.196469	-2.201266	-6.318441	0.187900	1.276385	0.113216	-0.456748	-0.652141	0.605056	-0.823401	0.567371	-0.010049	-0.336738	-0.502794	-0.796119
21036	5.710986	-1.728717	-7.212216	0.719692	1.608575	-0.036543	-0.450963	-0.644169	0.617802	-0.826009	0.563446	-0.015450	-0.338145	-0.517277	-0.786182
21037	5.698468	-0.753507	-7.613787	0.997669	1.920719	-0.174487	-0.442976	-0.635060	0.632827	-0.830178	0.557060	-0.022095	-0.338491	-0.535147	-0.773978
21038	5.797704	-0.072881	-7.375866	1.013597	2.213136	-0.274361	-0.433130	-0.624543	0.649880	-0.834831	0.549792	-0.028039	-0.339787	-0.554685	-0.759519
21039	5.843804	0.063343	-7.049564	0.947742	2.506804	-0.325016	-0.421812	-0.612173	0.668819	-0.839468	0.542409	-0.032967	-0.342591	-0.575358	-0.742694
21040	5.857385	-0.207402	-6.808857	0.938138	2.784692	-0.362238	-0.409113	-0.597820	0.689375	-0.844216	0.534702	-0.037315	-0.346302	-0.597248	-0.723443
21041	5.783344	-0.467533	-6.849371	0.947978	3.051037	-0.416621	-0.394908	-0.581475	0.711290	-0.849207	0.526458	-0.041104	-0.350564	-0.620265	-0.701696
21042	5.690590	-0.376180	-7.574985	0.998994	3.275818	-0.498539	-0.379049	-0.563387	0.734109	-0.854670	0.517276	-0.044319	-0.354768	-0.644221	-0.677583
21043	5.354852	-1.879066	-10.057726	1.061923	3.273410	-0.529298	-0.362800	-0.544641	0.756136	-0.860428	0.507363	-0.047389	-0.357826	-0.667794	-0.652696
21044	7.823059	0.731351	-5.883438	1.167035	3.361354	-0.524588	-0.346152	-0.524450	0.777902	-0.866485	0.496617	-0.050757	-0.359699	-0.691610	-0.626332
21045	8.177619	3.392944	-5.194689	0.757814	3.483813	-0.577763	-0.328462	-0.502838	0.799541	-0.871188	0.488315	-0.050790	-0.364889	-0.713234	-0.598460
21046	7.065874	1.823382	-7.018742	0.102890	3.471432	-0.615044	-0.310189	-0.480788	0.820138	-0.873540	0.484542	-0.046334	-0.375114	-0.730796	-0.570287
21047	7.180079	1.439618	-6.230653	-0.183198	3.487202	-0.600096	-0.291603	-0.457950	0.839791	-0.874654	0.483071	-0.040283	-0.387231	-0.746273	-0.541413
21048	7.859952	1.581247	-6.026281	-0.511811	3.507679	-0.613478	-0.272336	-0.434534	0.858495	-0.874369	0.484185	-0.032298	-0.401636	-0.759437	-0.511804
21049	8.182773	0.816625	-6.090669	-0.706256	3.530020	-0.620993	-0.252411	-0.410551	0.876206	-0.873112	0.486961	-0.023351	-0.417091	-0.770919	-0.481371
21050	8.199042	0.126596	-5.946098	-0.661084	3.549618	-0.601188	-0.232036	-0.385956	0.892859	-0.871764	0.489700	-0.014871	-0.431494	-0.781813	-0.450091
21051	8.379706	-0.412302	-5.843817	-0.481769	3.576101	-0.583370	-0.211256	-0.360676	0.908451	-0.870950	0.491314	-0.007472	-0.443640	-0.792795	-0.417924
21052	8.705438	-0.524484	-5.395175	-0.188470	3.640593	-0.585352	-0.189773	-0.334504	0.923089	-0.871278	0.490788	-0.001273	-0.452616	-0.804508	-0.384584
21053	8.824293	-0.210625	-5.036024	0.131686	3.694399	-0.611684	-0.167567	-0.307556	0.936659	-0.872970	0.487758	0.003985	-0.458089	-0.817007	-0.350219
21054	8.835632	-0.130066	-5.069777	0.391663	3.714856	-0.626612	-0.144957	-0.280039	0.948981	-0.875744	0.482698	0.008672	-0.460500	-0.829808	-0.315213
21055	8.839627	-0.378175	-4.965115	0.589322	3.712573	-0.626143	-0.122319	-0.252009	0.959963	-0.879291	0.476109	0.012948	-0.460310	-0.842503	-0.279826
21056	9.206137	-0.595143	-4.413834	0.766005	3.675858	-0.627226	-0.099851	-0.223806	0.969505	-0.883498	0.468124	0.017072	-0.457670	-0.854851	-0.244475
21057	9.684466	-0.405804	-3.595031	0.899605	3.625471	-0.640524	-0.077620	-0.195580	0.977611	-0.888157	0.459045	0.021319	-0.452937	-0.866618	-0.209337
21058	9.909507	0.232540	-2.908925	0.963389	3.559947	-0.645119	-0.055793	-0.167500	0.984292	-0.892913	0.449484	0.025877	-0.446758	-0.877444	-0.174642
21059	10.046938	1.291670	-2.844351	0.972345	3.487505	-0.635539	-0.034597	-0.139566	0.989608	-0.897504	0.439940	0.030669	-0.439648	-0.887116	-0.140482
21060	9.974977	1.822296	-2.355010	0.754202	3.390939	-0.618152	-0.014164	-0.112088	0.993597	-0.900938	0.432457	0.035943	-0.433717	-0.894660	-0.107110
21061	9.982174	1.917486	-1.978817	0.461567	3.243421	-0.592177	0.005230	-0.085543	0.996321	-0.902948	0.427744	0.041465	-0.429718	-0.899843	-0.075003
21062	10.587716	1.676756	-1.108858	0.172443	3.058811	-0.547215	0.023355	-0.060346	0.997904	-0.903597	0.425809	0.046898	-0.427747	-0.902798	-0.044584
21063	11.199808	1.106274	-0.245984	-0.062890	2.874239	-0.475911	0.039994	-0.036419	0.998536	-0.903167	0.426164	0.051717	-0.427423	-0.903913	-0.015848
21064	9.799317	-0.161458	-1.932316	0.002469	2.505739	-0.415101	0.054506	-0.015569	0.998392	-0.902967	0.426054	0.055941	-0.426240	-0.904564	0.009164
21065	9.077924	1.059428	-1.228345	0.081487	2.114768	-0.369736	0.066887	0.001981	0.997759	-0.903077	0.425310	0.059695	-0.424238	-0.905046	0.030236
21066	8.427464	1.174230	-0.847274	-0.157265	1.698913	-0.295545	0.076831	0.016048	0.996915	-0.902182	0.426781	0.062660	-0.424459	-0.904213	0.047268
21067	7.931198	0.620710	-1.512294	-0.325004	1.297306	-0.168363	0.083916	0.027035	0.996106	-0.900651	0.429773	0.064210	-0.426364	-0.902532	0.060414
21068	7.590703	0.436870	-1.865940	-0.387387	0.964481	-0.055186	0.088604	0.035446	0.995436	-0.898930	0.433306	0.064584	-0.429039	-0.900550	0.070256
21069	7.174381	0.342061	-2.182682	-0.374133	0.676730	0.035448	0.091246	0.041677	0.994956	-0.897338	0.436678	0.064002	-0.431808	-0.898652	0.077243
21070	7.133785	0.537072	-2.761002	-0.388904	0.426741	0.115146	0.092128	0.045963	0.994686	-0.895742	0.440142	0.062625	-0.434925	-0.896751	0.081720
21071	7.129871	0.376684	-2.956513	-0.506346	0.207749	0.181575	0.091459	0.048615	0.994621	-0.893681	0.444612	0.060446	-0.439282	-0.894403	0.084110
21072	7.196575	-0.143963	-3.154413	-0.587982	0.033351	0.227457	0.089639	0.049875	0.994725	-0.891272	0.449774	0.057764	-0.444520	-0.891749	0.084770
21073	7.334107	-0.784001	-3.233516	-0.551405	-0.143119	0.249284	0.086828	0.049715	0.994982	-0.889014	0.454582	0.054867	-0.449573	-0.889317	0.083668
21074	7.620159	-0.995470	-3.615721	-0.426493	-0.277698	0.256446	0.083354	0.048359	0.995346	-0.887290	0.458268	0.052040	-0.453618	-0.887498	0.081107
21075	8.079539	-0.889864	-3.630458	-0.348346	-0.358944	0.250386	0.079548	0.046315	0.995755	-0.885894	0.461259	0.049317	-0.457017	-0.886056	0.077722
21076	8.423431	-1.226872	-3.482630	-0.341098	-0.462776	0.241062	0.075344	0.043268	0.996218	-0.884500	0.464193	0.046734	-0.460416	-0.884676	0.073245
21077	9.090109	-3.485108	-3.400359	-0.389813	-0.846309	0.306620	0.068769	0.037203	0.996939	-0.882905	0.467536	0.043456	-0.464488	-0.883191	0.064998
21078	11.123411	-5.609275	-2.290304	-0.072577	-1.363221	0.462397	0.058390	0.027257	0.997922	-0.882847	0.468050	0.038873	-0.466017	-0.883282	0.051393
21079	14.130896	-2.298040	-2.142442	0.832810	-1.713483	0.411467	0.046867	0.013983	0.998803	-0.886905	0.460610	0.035168	-0.459567	-0.887492	0.033989
21080	15.372332	2.610835	-2.799295	1.360573	-1.676659	0.177785	0.037713	-0.000210	0.999289	-0.893144	0.448500	0.033802	-0.448188	-0.893783	0.016726
21081	11.727636	4.377113	-3.314193	1.171128	-1.525071	0.130134	0.029836	-0.013316	0.999466	-0.898367	0.438030	0.032654	-0.438231	-0.898862	0.001107
21082	8.747094	4.216164	-3.869556	0.896337	-1.490182	0.343000	0.020315	-0.025322	0.999473	-0.902335	0.430042	0.029236	-0.430556	-0.902454	-0.014113
21083	7.712964	4.592176	-3.721405	0.390689	-1.416482	0.501669	0.009757	-0.035976	0.999305	-0.904077	0.426685	0.024188	-0.427259	-0.903684	-0.028362
21084	8.019128	3.710973	-4.297146	-0.287263	-1.332951	0.538825	-0.000780	-0.045784	0.998951	-0.902859	0.429518	0.018981	-0.429937	-0.901897	-0.041672
21085	9.351902	1.194436	-5.265552	-0.498320	-1.277266	0.602625	-0.011686	-0.054695	0.998435	-0.900659	0.434325	0.013251	-0.434370	-0.899094	-0.054337
21086	10.659851	0.217964	-4.148975	-0.460705	-1.132042	0.601033	-0.021989	-0.062322	0.997814	-0.898537	0.438833	0.007608	-0.438347	-0.896405	-0.065648
21087	10.814945	-1.006677	-2.976586	-0.351462	-1.009312	0.577701	-0.031566	-0.068825	0.997129	-0.896828	0.442374	0.002144	-0.441251	-0.894186	-0.075688
21088	10.614760	-2.674124	-2.577699	-0.142041	-0.947221	0.531297	-0.040471	-0.075026	0.996360	-0.896000	0.444045	-0.002958	-0.442207	-0.892858	-0.085194
21089	10.176122	-3.366016	-2.753374	0.180725	-0.862294	0.436930	-0.048144	-0.080801	0.995567	-0.896596	0.442787	-0.007421	-0.440224	-0.892979	-0.093763
21090	9.614519	-2.524065	-2.590021	0.421428	-0.775992	0.368380	-0.054813	-0.086202	0.994769	-0.898244	0.439348	-0.011423	-0.436065	-0.894172	-0.101513
21091	9.563313	-1.038946	-1.808067	0.401743	-0.756179	0.328989	-0.061005	-0.091540	0.993931	-0.899791	0.436060	-0.015067	-0.432035	-0.895250	-0.108968
21092	9.614148	-0.327091	-1.511000	0.255293	-0.729221	0.306185	-0.066869	-0.096829	0.993052	-0.900687	0.434082	-0.018323	-0.429291	-0.895655	-0.116239
21093	9.715287	-0.013355	-1.310600	0.139902	-0.729240	0.292058	-0.072576	-0.102106	0.992123	-0.901077	0.433133	-0.021339	-0.427542	-0.895528	-0.123440
21094	9.959014	-0.033551	-1.317977	0.080118	-0.740081	0.293855	-0.078351	-0.107551	0.991107	-0.901190	0.432743	-0.024283	-0.426283	-0.895079	-0.130830
21095	9.908238	-0.051937	-1.572024	0.118090	-0.728898	0.302733	-0.084132	-0.112777	0.990052	-0.901442	0.432033	-0.027389	-0.424646	-0.894779	-0.138010
21096	9.727232	0.054974	-1.859060	0.158103	-0.728542	0.304393	-0.089930	-0.118073	0.988924	-0.901840	0.430989	-0.030552	-0.422608	-0.894599	-0.145242
21097	9.695208	0.053508	-2.238933	0.110439	-0.696134	0.306318	-0.095581	-0.122992	0.987794	-0.902017	0.430383	-0.033693	-0.420986	-0.894228	-0.152077
21098	9.639703	-0.313858	-2.547045	0.033658	-0.675913	0.308344	-0.101171	-0.127799	0.986627	-0.901849	0.430488	-0.036716	-0.420039	-0.893503	-0.158808
21099	9.679175	-0.660589	-2.799628	-0.004197	-0.643186	0.303925	-0.106563	-0.132246	0.985472	-0.901512	0.430934	-0.039655	-0.419429	-0.892641	-0.165142
21100	9.694979	-0.724296	-2.881797	-0.019653	-0.606324	0.289219	-0.111679	-0.136501	0.984325	-0.901108	0.431517	-0.042397	-0.418965	-0.891718	-0.171194
21101	9.751961	-0.842568	-2.938924	-0.047013	-0.563105	0.266944	-0.116394	-0.140379	0.983233	-0.900604	0.432317	-0.044890	-0.418767	-0.890728	-0.176745
21102	9.751000	-1.097185	-2.943660	-0.029704	-0.520306	0.239888	-0.120701	-0.144068	0.982179	-0.900189	0.432942	-0.047121	-0.418438	-0.889835	-0.181945
21103	9.815933	-1.180297	-3.006444	0.008802	-0.479658	0.213356	-0.124579	-0.147422	0.981197	-0.899962	0.433186	-0.049180	-0.417791	-0.889166	-0.186640
21104	9.849412	-0.931148	-2.925351	0.050659	-0.446766	0.189123	-0.128116	-0.150670	0.980247	-0.899929	0.433037	-0.051058	-0.416790	-0.888694	-0.191071
21105	9.714978	-0.626305	-2.845206	0.027295	-0.410349	0.171658	-0.131321	-0.153584	0.979371	-0.899818	0.433067	-0.052741	-0.416033	-0.888181	-0.195068
21106	9.582829	-0.654113	-2.652744	-0.032349	-0.389140	0.159494	-0.134346	-0.156443	0.978507	-0.899466	0.433620	-0.054167	-0.415826	-0.887411	-0.198971
21107	9.644670	-0.832305	-2.451873	-0.025498	-0.370347	0.139218	-0.137090	-0.159136	0.977692	-0.899169	0.434077	-0.055426	-0.415573	-0.886709	-0.202598
21108	9.617935	-0.948829	-2.426063	-0.009586	-0.351003	0.117961	-0.139581	-0.161832	0.976897	-0.898962	0.434370	-0.056488	-0.415193	-0.886077	-0.206110
21109	9.627502	-0.797931	-2.243969	0.037300	-0.333349	0.102797	-0.141839	-0.164351	0.976151	-0.898970	0.434218	-0.057517	-0.414409	-0.885688	-0.209335
21110	9.530617	-0.569405	-1.979090	0.021853	-0.347141	0.092707	-0.144083	-0.167118	0.975352	-0.898923	0.434197	-0.058397	-0.413735	-0.885181	-0.212787
21111	9.448112	-0.733398	-1.829900	-0.017546	-0.358054	0.086199	-0.146291	-0.169924	0.974538	-0.898724	0.434508	-0.059148	-0.413394	-0.884494	-0.216279
21112	9.370248	-0.820260	-1.589695	0.003144	-0.383249	0.076031	-0.148530	-0.173078	0.973644	-0.898621	0.434629	-0.059824	-0.412819	-0.883822	-0.220087
21113	9.343641	-0.698511	-1.421568	0.031557	-0.409231	0.065844	-0.150761	-0.176419	0.972701	-0.898651	0.434475	-0.060483	-0.411944	-0.883237	-0.224041
21114	9.259759	-0.518111	-1.327320	0.036936	-0.446793	0.071943	-0.153219	-0.180146	0.971633	-0.898690	0.434295	-0.061196	-0.410951	-0.882573	-0.228437
21115	9.214793	-0.437514	-1.181946	0.030972	-0.487925	0.075386	-0.155851	-0.184135	0.970466	-0.898699	0.434169	-0.061947	-0.409940	-0.881812	-0.233147
21116	9.111640	-0.441560	-1.044531	0.012258	-0.544065	0.075091	-0.158725	-0.188697	0.969123	-0.898628	0.434218	-0.062633	-0.408992	-0.880822	-0.238489
21117	9.063515	-0.584045	-0.852345	0.005070	-0.606165	0.077785	-0.161852	-0.193706	0.967616	-0.898523	0.434332	-0.063347	-0.407996	-0.879678	-0.244347
21118	9.112116	-0.779355	-0.655185	-0.016386	-0.678458	0.075855	-0.165270	-0.199431	0.965874	-0.898329	0.434642	-0.063968	-0.407052	-0.878245	-0.250988
21119	9.153202	-0.761555	-0.550415	0.007227	-0.745120	0.088311	-0.169043	-0.205597	0.963926	-0.898210	0.434766	-0.064787	-0.405762	-0.876760	-0.258164
21120	9.162917	-0.909262	-0.805968	0.024577	-0.818775	0.084341	-0.173086	-0.212490	0.961711	-0.898163	0.434743	-0.065593	-0.404159	-0.875127	-0.266099
21121	9.061064	-0.831845	-1.126276	0.061114	-0.879129	0.077052	-0.177275	-0.219854	0.959290	-0.898274	0.434383	-0.066446	-0.402091	-0.873485	-0.274494
21122	9.028935	-0.709147	-1.444281	0.077344	-0.937358	0.076774	-0.181691	-0.227785	0.956610	-0.898444	0.433895	-0.067326	-0.399732	-0.871693	-0.283487
21123	9.003941	-0.821745	-1.859117	0.092982	-0.979088	0.080182	-0.186265	-0.235974	0.953741	-0.898668	0.433278	-0.068308	-0.397116	-0.869820	-0.292767
21124	8.771582	-1.020193	-2.466186	0.085304	-1.009931	0.080617	-0.190955	-0.244482	0.950665	-0.898852	0.432745	-0.069259	-0.394463	-0.867733	-0.302388
21125	8.664505	-1.364130	-2.955575	0.032670	-1.035862	0.072641	-0.195635	-0.253156	0.947438	-0.898841	0.432649	-0.069996	-0.392188	-0.865290	-0.312188
21126	8.989141	-1.703660	-3.476513	0.014110	-1.041027	0.057692	-0.200194	-0.261982	0.944080	-0.898781	0.432689	-0.070518	-0.390019	-0.862639	-0.322086
21127	9.364792	-1.494255	-4.081639	0.039666	-1.023475	0.044221	-0.204523	-0.270618	0.940710	-0.898848	0.432470	-0.071011	-0.387612	-0.860079	-0.331695
21128	9.387687	-0.745336	-4.349756	-0.002115	-0.999026	0.042023	-0.208734	-0.279096	0.937302	-0.898752	0.432616	-0.071331	-0.385583	-0.857292	-0.341140
21129	9.451383	-0.489651	-4.428551	-0.112920	-0.963579	0.031151	-0.212677	-0.287218	0.933956	-0.898254	0.433674	-0.071180	-0.384589	-0.854068	-0.350228
21130	9.588133	-0.589118	-4.429348	-0.168784	-0.963389	0.025879	-0.216583	-0.295399	0.930501	-0.897550	0.435199	-0.070754	-0.384053	-0.850495	-0.359392
21131	9.746335	-0.537857	-4.562137	-0.169476	-0.941101	0.013255	-0.220266	-0.303340	0.927075	-0.896873	0.436681	-0.070208	-0.383539	-0.846932	-0.368244
21132	9.737081	-0.511979	-4.769034	-0.144873	-0.914895	-0.003798	-0.223709	-0.311172	0.923648	-0.896326	0.437904	-0.069564	-0.382823	-0.843452	-0.376875
21133	9.646583	-0.194270	-4.737082	-0.141987	-0.890648	-0.018062	-0.226906	-0.318761	0.920275	-0.895827	0.439045	-0.068804	-0.382110	-0.840019	-0.385176
21134	9.586905	-0.015936	-4.496864	-0.202160	-0.879840	-0.021638	-0.230045	-0.326313	0.916842	-0.895105	0.440679	-0.067749	-0.381925	-0.836255	-0.393460
21135	9.438223	-0.187393	-4.175071	-0.275010	-0.873826	-0.019666	-0.233161	-0.333702	0.913389	-0.894103	0.442909	-0.066423	-0.382383	-0.832150	-0.401633
21136	9.562941	-0.518947	-3.746986	-0.327881	-0.897501	-0.020905	-0.236380	-0.341327	0.909736	-0.892898	0.445568	-0.064830	-0.383221	-0.827626	-0.410093
21137	9.759113	-0.718695	-3.307822	-0.345168	-0.922489	-0.031395	-0.239592	-0.349093	0.905941	-0.891651	0.448309	-0.063062	-0.384127	-0.822893	-0.418681
21138	9.912516	-0.799958	-2.791795	-0.333925	-0.974330	-0.045860	-0.242899	-0.357375	0.901822	-0.890480	0.450894	-0.061163	-0.384768	-0.817911	-0.427756
21139	9.956306	-0.524289	-2.363664	-0.301216	-1.048298	-0.059597	-0.246355	-0.366205	0.897331	-0.889470	0.453133	-0.059271	-0.384905	-0.812751	-0.437360
21140	10.092856	-0.708007	-2.147149	-0.334006	-1.143191	-0.082483	-0.249992	-0.375917	0.892295	-0.888391	0.455538	-0.056983	-0.385053	-0.806952	-0.447841
21141	10.508641	-1.125095	-1.808371	-0.308372	-1.238028	-0.134828	-0.253512	-0.386498	0.886764	-0.887547	0.457501	-0.054333	-0.384696	-0.800819	-0.459018
21142	11.195576	-0.868156	-1.407722	-0.215197	-1.341042	-0.191252	-0.256931	-0.398146	0.880606	-0.887212	0.458471	-0.051571	-0.383199	-0.794534	-0.471035
21143	11.729934	0.104189	-0.821411	-0.107293	-1.454833	-0.220370	-0.260483	-0.410683	0.873778	-0.887377	0.458426	-0.049073	-0.380409	-0.788153	-0.483843
21144	11.697710	1.081721	0.026860	-0.195538	-1.580125	-0.202803	-0.264639	-0.424075	0.866098	-0.887171	0.459114	-0.046278	-0.378013	-0.780624	-0.497727
21145	11.517790	1.406338	0.292506	-0.282482	-1.734453	-0.158458	-0.269725	-0.438282	0.857413	-0.886535	0.460619	-0.043433	-0.375905	-0.771841	-0.512793
21146	11.365495	1.450799	0.001489	-0.422771	-1.888000	-0.110584	-0.275788	-0.453327	0.847606	-0.885254	0.463366	-0.040214	-0.374522	-0.761437	-0.529101
21147	11.251382	1.064989	-0.680632	-0.523388	-2.020363	-0.066897	-0.282706	-0.468919	0.836775	-0.883489	0.467006	-0.036784	-0.373531	-0.749680	-0.546310
21148	11.171080	1.289642	-1.476819	-0.506496	-2.096106	-0.030399	-0.290204	-0.484699	0.825135	-0.881692	0.470624	-0.033643	-0.372022	-0.737279	-0.563933
21149	10.939007	1.805125	-1.585648	-0.602630	-2.178136	0.024682	-0.298466	-0.500510	0.812655	-0.879387	0.475139	-0.030340	-0.370939	-0.723694	-0.581955
21150	10.799435	1.661023	-1.411749	-0.775231	-2.255907	0.070691	-0.307403	-0.516375	0.799288	-0.876303	0.481045	-0.026247	-0.370940	-0.708487	-0.600375
21151	10.769896	1.335002	-2.009668	-0.913204	-2.298534	0.094310	-0.316718	-0.532030	0.785261	-0.872625	0.487923	-0.021376	-0.371774	-0.692008	-0.618796
21152	10.887214	0.545915	-3.356875	-1.014097	-2.307501	0.106392	-0.326183	-0.547317	0.770746	-0.868511	0.495419	-0.015754	-0.373220	-0.674540	-0.636948
21153	10.894182	-0.616934	-4.655914	-1.003205	-2.279391	0.121197	-0.335708	-0.561904	0.756018	-0.864368	0.502757	-0.010150	-0.374390	-0.656886	-0.654472
21154	10.710259	-1.288862	-5.425557	-0.822902	-2.275367	0.144185	-0.345406	-0.575966	0.740917	-0.860806	0.508902	-0.005691	-0.373776	-0.639752	-0.671572
21155	10.757081	-1.383015	-6.379376	-0.620435	-2.316915	0.154011	-0.355312	-0.589826	0.725161	-0.857965	0.513703	-0.002551	-0.371012	-0.623069	-0.688575
21156	10.627058	-1.212766	-7.150398	-0.508072	-2.318078	0.158623	-0.365168	-0.603295	0.709004	-0.855526	0.517760	-0.000069	-0.367052	-0.606596	-0.705204
21157	10.183485	-0.969369	-7.427324	-0.484928	-2.342916	0.145390	-0.374913	-0.616575	0.692298	-0.853229	0.521531	0.002421	-0.362547	-0.589781	-0.721608
21158	9.864830	-0.850996	-7.643226	-0.471514	-2.300573	0.109140	-0.384073	-0.629411	0.675522	-0.851125	0.524937	0.005191	-0.357874	-0.572961	-0.737321
21159	9.315094	-0.767459	-7.712618	-0.446376	-2.185263	0.070589	-0.392398	-0.641402	0.659262	-0.849276	0.527888	0.008092	-0.353206	-0.556720	-0.751869
21160	8.360782	-0.700875	-7.473246	-0.433637	-1.977230	0.050258	-0.399711	-0.652024	0.644279	-0.847564	0.530577	0.011126	-0.349094	-0.541620	-0.764710
21161	7.000701	-0.646996	-7.657442	-0.363702	-1.732595	0.062632	-0.406212	-0.660980	0.630949	-0.846061	0.532913	0.013575	-0.345214	-0.528307	-0.775705
21162	5.866136	-0.352130	-7.781264	-0.321623	-1.441348	0.095488	-0.411917	-0.668032	0.619724	-0.844576	0.535210	0.015559	-0.342076	-0.516995	-0.784666
21163	5.084162	0.003092	-8.057815	-0.296670	-1.137992	0.127101	-0.416825	-0.673202	0.610783	-0.843051	0.537561	0.017161	-0.339886	-0.507768	-0.791612
21164	3.600412	-0.624586	-9.506218	-0.330833	-0.931452	0.168038	-0.421347	-0.677016	0.603420	-0.841235	0.540341	0.018840	-0.338807	-0.499680	-0.797201
21165	3.778457	-1.237443	-9.363852	-0.327950	-0.745704	0.191876	-0.425440	-0.679699	0.597503	-0.839325	0.543248	0.020355	-0.338428	-0.492840	-0.801608
21166	5.100742	-0.428257	-6.157778	-0.351782	-0.387800	0.155444	-0.428007	-0.680785	0.594426	-0.837481	0.546010	0.022320	-0.339758	-0.488267	-0.803841
21167	6.008612	-0.860356	-4.921519	-0.425769	-0.005953	0.084931	-0.428694	-0.680371	0.594405	-0.835677	0.548639	0.025284	-0.343316	-0.485892	-0.803768
21168	5.955442	-1.901863	-5.554424	-0.193040	0.420828	0.011182	-0.427284	-0.678290	0.597789	-0.834975	0.549634	0.026833	-0.346765	-0.487673	-0.801205
21169	5.400070	-2.277920	-6.031682	0.233042	0.795943	-0.077837	-0.423823	-0.674831	0.604134	-0.836129	0.547940	0.025485	-0.348227	-0.494333	-0.796475
21170	4.976920	-2.070833	-6.766325	0.689746	1.115497	-0.213063	-0.418109	-0.670443	0.612937	-0.839436	0.543038	0.021373	-0.347178	-0.505585	-0.789843
21171	4.923636	-1.328426	-6.988500	1.018047	1.396846	-0.341408	-0.410360	-0.665139	0.623855	-0.844384	0.535514	0.015533	-0.344415	-0.520399	-0.781386
21172	5.028104	-0.729333	-7.003831	1.153194	1.657820	-0.436615	-0.400925	-0.658714	0.636674	-0.850121	0.526504	0.009393	-0.341399	-0.537484	-0.771075
21173	5.389827	-0.580890	-6.757064	1.163063	1.933355	-0.498333	-0.390050	-0.650761	0.651438	-0.856062	0.516860	0.003754	-0.339145	-0.556207	-0.758693
21174	5.525710	-0.873410	-6.594664	1.194104	2.202521	-0.529307	-0.378002	-0.641019	0.667988	-0.862145	0.506660	-0.001667	-0.337374	-0.576533	-0.744170
21175	5.766685	-1.020745	-6.578113	1.295478	2.475084	-0.579240	-0.364617	-0.629394	0.686234	-0.868664	0.495348	-0.007229	-0.335375	-0.598743	-0.727345
21176	5.976271	-0.866224	-6.553274	1.407015	2.734674	-0.653730	-0.349727	-0.615913	0.705934	-0.875711	0.482668	-0.012719	-0.332898	-0.622642	-0.708164
21177	6.194663	-0.492192	-6.566330	1.437946	2.957408	-0.730342	-0.333449	-0.600622	0.726681	-0.882985	0.469076	-0.017467	-0.330377	-0.647472	-0.686753
21178	6.578196	-0.070786	-6.523275	1.373425	3.148630	-0.803085	-0.315906	-0.583574	0.748094	-0.890126	0.455242	-0.020758	-0.328450	-0.672455	-0.663268
21179	6.921307	0.186513	-6.435723	1.251211	3.312584	-0.858144	-0.297326	-0.564751	0.769840	-0.896869	0.441732	-0.022334	-0.327450	-0.697086	-0.637846
21180	7.303014	0.316046	-6.270280	1.080992	3.471377	-0.892669	-0.277868	-0.544043	0.791711	-0.902985	0.429106	-0.022051	-0.327731	-0.721031	-0.610497
21181	7.306306	0.029322	-7.018508	0.928750	3.585856	-0.919386	-0.257717	-0.521676	0.813287	-0.908503	0.417391	-0.020157	-0.328944	-0.744069	-0.581513
21182	7.832247	-0.843989	-6.962316	0.863000	3.596883	-0.894908	-0.237659	-0.498223	0.833842	-0.913569	0.406303	-0.017615	-0.330016	-0.765958	-0.551723
21183	9.462872	1.801464	-4.553598	0.822954	3.749487	-0.888256	-0.217079	-0.472670	0.854084	-0.918313	0.395591	-0.014475	-0.331026	-0.787459	-0.519934
21184	8.748445	2.205111	-5.412299	0.411967	3.839771	-0.913349	-0.195831	-0.445660	0.873520	-0.921574	0.388108	-0.008595	-0.335190	-0.806697	-0.486712
21185	8.752360	1.421756	-5.601894	0.154491	3.854463	-0.879075	-0.174638	-0.417630	0.891676	-0.923727	0.383049	-0.001508	-0.340926	-0.823928	-0.452671
21186	9.145659	2.098939	-4.718342	-0.074157	3.905372	-0.838801	-0.153373	-0.388371	0.908650	-0.924847	0.380285	0.006432	-0.348044	-0.839376	-0.417509
21187	9.332258	1.413079	-4.713252	-0.321665	3.937580	-0.813394	-0.131925	-0.358152	0.924296	-0.924873	0.379970	0.015226	-0.356658	-0.852848	-0.381373
21188	9.219965	0.501241	-4.937732	-0.324341	3.942364	-0.737042	-0.110833	-0.327109	0.938465	-0.924596	0.380234	0.023338	-0.364470	-0.865114	-0.344586
21189	9.479755	0.017712	-4.730022	-0.188831	3.946384	-0.627868	-0.090480	-0.295132	0.951163	-0.924531	0.379928	0.029940	-0.370210	-0.876671	-0.307234
21190	10.077896	0.160731	-4.104235	-0.011309	3.952274	-0.541188	-0.070717	-0.262341	0.962381	-0.924921	0.378525	0.035220	-0.373525	-0.887635	-0.269412
21191	10.542563	0.327845	-3.511887	0.142837	3.917809	-0.476100	-0.051605	-0.229167	0.972018	-0.925741	0.376087	0.039520	-0.374620	-0.897798	-0.231557
21192	10.784203	0.694865	-2.824452	0.261560	3.842337	-0.418665	-0.033287	-0.196086	0.980022	-0.926891	0.372846	0.043118	-0.373852	-0.906938	-0.194161
21193	10.719286	1.155084	-2.532334	0.282529	3.754541	-0.375538	-0.015748	-0.163287	0.986453	-0.928030	0.369608	0.046366	-0.372171	-0.914728	-0.157356
21194	10.831301	1.292814	-2.231019	0.220005	3.630798	-0.318377	0.000750	-0.131161	0.991361	-0.928863	0.367132	0.049275	-0.370424	-0.920875	-0.121555
21195	10.795968	1.177923	-1.815370	0.118803	3.486260	-0.258923	0.016096	-0.099933	0.994864	-0.929272	0.365750	0.051773	-0.369046	-0.925332	-0.086978
21196	10.764859	1.091779	-1.171144	0.027442	3.311409	-0.204522	0.030261	-0.070017	0.997087	-0.929315	0.365338	0.053859	-0.368045	-0.928238	-0.054013
21197	10.556518	0.781195	-0.714253	-0.107173	3.104055	-0.157286	0.043195	-0.041765	0.998193	-0.928854	0.366263	0.055519	-0.367920	-0.929574	-0.022973
21198	11.136531	0.552403	-0.759172	-0.207295	2.902861	-0.133413	0.055182	-0.015298	0.998359	-0.928013	0.368171	0.056935	-0.368438	-0.929632	0.006119
21199	10.093699	0.680074	-0.931691	-0.251321	2.646519	-0.098772	0.065908	0.008922	0.997786	-0.927016	0.370523	0.057921	-0.369186	-0.928781	0.032691
21200	8.895996	0.677906	-0.986327	-0.389048	2.272260	-0.067482	0.075005	0.029722	0.996740	-0.925515	0.374167	0.058488	-0.371209	-0.926885	0.055572
21201	8.191167	1.056191	-1.012249	-0.610774	1.901603	-0.028683	0.082418	0.047202	0.995479	-0.923201	0.379851	0.058422	-0.375376	-0.923843	0.074884
21202	7.764192	0.656906	-1.501784	-0.852819	1.581513	0.042701	0.088072	0.061909	0.994188	-0.919995	0.387712	0.057356	-0.381908	-0.919699	0.091102
21203	7.304304	0.284993	-1.760014	-0.912043	1.340353	0.125924	0.092131	0.074691	0.992942	-0.916579	0.396016	0.055257	-0.389094	-0.915201	0.104945
21204	6.883871	0.300108	-2.011387	-0.865347	1.113993	0.181489	0.094901	0.085548	0.991804	-0.913338	0.403795	0.052563	-0.395989	-0.910841	0.116454
21205	6.543653	0.334192	-2.242800	-0.766652	0.893910	0.213603	0.096568	0.094532	0.990827	-0.910470	0.410594	0.049563	-0.402143	-0.906905	0.125719
21206	6.420931	0.130560	-2.386592	-0.659504	0.671126	0.234642	0.097207	0.101532	0.990072	-0.908013	0.416358	0.046453	-0.407508	-0.903514	0.132665
21207	6.327731	-0.620242	-2.804475	-0.506878	0.466239	0.238824	0.096999	0.106727	0.989546	-0.906156	0.420707	0.043449	-0.411671	-0.900897	0.137519
21208	6.290418	-1.341340	-3.326870	-0.228664	0.277250	0.227524	0.096133	0.110132	0.989257	-0.905417	0.422543	0.040945	-0.413494	-0.899627	0.140336
21209	6.304132	-1.600950	-3.761100	0.153526	0.117986	0.193608	0.094915	0.111999	0.989165	-0.906223	0.420971	0.039291	-0.412009	-0.900133	0.141453
21210	6.416504	-1.663269	-4.272143	0.540839	-0.024105	0.158900	0.093420	0.112391	0.989263	-0.908574	0.415942	0.038544	-0.407144	-0.902419	0.140973
21211	6.751300	-1.448764	-4.366863	0.881880	-0.181056	0.131533	0.091540	0.111285	0.989564	-0.912238	0.407844	0.038522	-0.399301	-0.906244	0.138853
21212	7.822834	-1.344576	-3.591124	1.078628	-0.336581	0.144156	0.088933	0.108746	0.990083	-0.916611	0.397909	0.038630	-0.389762	-0.910957	0.135065
21213	9.810961	-1.851180	-1.277722	1.160940	-0.563709	0.221042	0.084782	0.104454	0.990909	-0.921257	0.387092	0.038019	-0.379602	-0.916105	0.129047
21214	14.558346	0.358832	1.750880	1.398709	-0.895386	0.306334	0.078641	0.097324	0.992141	-0.926720	0.373948	0.036773	-0.367430	-0.922329	0.119600
21215	17.099539	2.810195	4.116926	1.126061	-1.110662	0.314079	0.071745	0.088201	0.993516	-0.931029	0.363265	0.034983	-0.357824	-0.927501	0.108180
21216	15.306893	1.085756	-1.650211	1.416301	-1.742958	0.444375	0.061500	0.073499	0.995397	-0.936297	0.349746	0.032023	-0.345783	-0.933957	0.090326
21217	12.943013	3.776804	-2.063222	1.861995	-2.088278	0.527228	0.049544	0.055705	0.997217	-0.942867	0.331965	0.028300	-0.329465	-0.941645	0.068969
21218	9.266229	7.173119	-2.041851	1.376466	-2.094210	0.504036	0.038043	0.037499	0.998572	-0.947531	0.318752	0.024129	-0.317393	-0.947096	0.047658
21219	7.072334	5.350919	-3.032566	0.247308	-2.147086	0.579174	0.025804	0.018982	0.999487	-0.948490	0.316266	0.018481	-0.315753	-0.948481	0.026165
21220	7.345627	1.488647	-3.938753	-0.596920	-2.061660	0.682863	0.012807	0.001547	0.999917	-0.946711	0.321875	0.011628	-0.321830	-0.946781	0.005587
21221	8.524685	-2.075361	-4.984811	-0.852214	-1.899284	0.694263	0.000103	-0.014151	0.999900	-0.943971	0.329995	0.004767	-0.330029	-0.943877	-0.013324
21222	10.038154	-4.014178	-5.127881	-0.441523	-1.706790	0.617348	-0.011345	-0.028278	0.999536	-0.942462	0.334310	-0.001240	-0.334120	-0.942039	-0.030444
21223	10.936088	-3.267134	-5.041027	0.089493	-1.546260	0.520979	-0.021365	-0.041109	0.998926	-0.942669	0.333666	-0.006430	-0.333043	-0.941795	-0.045881
21224	11.023361	-1.587594	-4.282557	0.210237	-1.343137	0.463324	-0.030158	-0.052306	0.998176	-0.943241	0.331922	-0.011105	-0.330736	-0.941855	-0.059348
21225	10.127771	-1.654639	-4.088002	0.189807	-1.222577	0.399922	-0.037912	-0.062503	0.997324	-0.943726	0.330381	-0.015169	-0.328549	-0.941776	-0.071511
21226	10.010133	-0.961023	-3.753614	0.362813	-1.129778	0.340454	-0.044787	-0.072119	0.996390	-0.944764	0.327212	-0.018783	-0.324676	-0.942195	-0.082791
21227	10.196444	0.474049	-3.244463	0.383655	-1.051635	0.323772	-0.051192	-0.080982	0.995400	-0.945842	0.323860	-0.022295	-0.320565	-0.942633	-0.093175
21228	10.123544	1.036556	-2.902081	0.164213	-0.985122	0.347894	-0.057603	-0.089239	0.994343	-0.946173	0.322628	-0.025857	-0.318495	-0.942310	-0.103020
21229	10.029903	0.600727	-2.952282	-0.079443	-0.924345	0.367720	-0.063977	-0.096762	0.993249	-0.945692	0.323733	-0.029376	-0.318705	-0.941188	-0.112218
21230	9.943421	-0.112454	-3.146289	-0.201948	-0.866774	0.359149	-0.070111	-0.103847	0.992119	-0.944802	0.326012	-0.032643	-0.320052	-0.939645	-0.120972
21231	9.953015	-0.437754	-3.207206	-0.158321	-0.800015	0.347876	-0.075912	-0.110227	0.991003	-0.944037	0.327885	-0.035844	-0.320984	-0.938265	-0.128949
21232	9.830764	-0.324869	-3.094067	-0.092573	-0.724597	0.340612	-0.081426	-0.116006	0.989905	-0.943468	0.329158	-0.039032	-0.321307	-0.937122	-0.136250
21233	9.764511	-0.415955	-2.660131	-0.101919	-0.679414	0.351552	-0.086877	-0.121216	0.988817	-0.942842	0.330543	-0.042317	-0.321717	-0.935974	-0.143004
21234	9.797748	-0.849043	-2.223958	-0.091138	-0.655827	0.340629	-0.092171	-0.126328	0.987697	-0.942240	0.331837	-0.045487	-0.322008	-0.934840	-0.149617
21235	9.889367	-1.097855	-1.830258	-0.090528	-0.629406	0.320896	-0.097172	-0.131148	0.986589	-0.941642	0.333109	-0.048465	-0.322286	-0.933723	-0.155863
21236	9.982192	-1.227184	-2.070000	-0.081136	-0.583683	0.295726	-0.101812	-0.135714	0.985503	-0.941083	0.334280	-0.051189	-0.322487	-0.932651	-0.161751
21237	9.716807	-0.815724	-1.940394	-0.133630	-0.563361	0.268362	-0.106106	-0.140072	0.984440	-0.940370	0.335908	-0.053561	-0.323179	-0.931421	-0.167361
21238	9.664372	-0.868419	-2.107532	-0.188937	-0.558500	0.243284	-0.110151	-0.144588	0.983342	-0.939556	0.337856	-0.055569	-0.324194	-0.930026	-0.173064
21239	9.628364	-1.244697	-2.056794	-0.182600	-0.565283	0.233014	-0.114126	-0.149058	0.982220	-0.938700	0.339908	-0.057486	-0.325296	-0.928571	-0.178713
21240	9.696302	-1.240047	-2.035339	-0.079155	-0.543650	0.197937	-0.117701	-0.153569	0.981103	-0.938274	0.340786	-0.059221	-0.325251	-0.927514	-0.184201
21241	9.521690	-1.098393	-2.007713	0.022372	-0.549920	0.175980	-0.121090	-0.158075	0.979974	-0.938135	0.340864	-0.060937	-0.324406	-0.926728	-0.189571
21242	9.527786	-0.800322	-2.023635	0.049673	-0.543827	0.159987	-0.124307	-0.162699	0.978814	-0.938146	0.340545	-0.062537	-0.323156	-0.926044	-0.194967
21243	9.480203	-0.641950	-1.952983	0.023719	-0.550413	0.151842	-0.127459	-0.167284	0.977635	-0.938031	0.340587	-0.064017	-0.322261	-0.925212	-0.200328
21244	9.408266	-0.783718	-1.860387	-0.051548	-0.562913	0.144705	-0.130589	-0.172120	0.976382	-0.937711	0.341230	-0.065264	-0.321937	-0.924087	-0.205959
21245	9.390255	-1.054850	-1.878993	-0.079850	-0.578810	0.133204	-0.133652	-0.177016	0.975091	-0.937278	0.342211	-0.066345	-0.321942	-0.922798	-0.211651
21246	9.389680	-1.094662	-1.947920	-0.090276	-0.592574	0.117895	-0.136634	-0.182190	0.973724	-0.936843	0.343227	-0.067239	-0.321958	-0.921413	-0.217580
21247	9.344956	-1.023183	-1.942821	-0.077782	-0.601576	0.108615	-0.139539	-0.187362	0.972329	-0.936442	0.344154	-0.068072	-0.321877	-0.920029	-0.223477
21248	9.354536	-0.950674	-2.026700	-0.070999	-0.618546	0.103165	-0.142460	-0.192810	0.970840	-0.936090	0.344956	-0.068853	-0.321622	-0.918602	-0.229630
21249	9.325590	-0.916196	-2.014188	-0.070058	-0.633663	0.093114	-0.145320	-0.198312	0.969306	-0.935731	0.345791	-0.069541	-0.321387	-0.917116	-0.235817
21250	9.357855	-0.843270	-1.946457	-0.020399	-0.654639	0.087268	-0.148219	-0.204107	0.967663	-0.935531	0.346184	-0.070278	-0.320645	-0.915695	-0.242260
21251	9.419529	-0.660083	-1.923996	-0.003059	-0.682560	0.086557	-0.151165	-0.210060	0.965932	-0.935392	0.346400	-0.071055	-0.319673	-0.914266	-0.248852
21252	9.342771	-0.393346	-1.765286	0.015570	-0.708439	0.092765	-0.154261	-0.216321	0.964058	-0.935316	0.346424	-0.071929	-0.318413	-0.912795	-0.255769
21253	9.323575	-0.364771	-1.657953	-0.019208	-0.748172	0.100571	-0.157531	-0.222803	0.962051	-0.935099	0.346828	-0.072795	-0.317448	-0.911081	-0.262979
21254	9.278993	-0.548939	-1.549833	-0.071574	-0.777648	0.112709	-0.161043	-0.229571	0.959876	-0.934668	0.347815	-0.073628	-0.316957	-0.909022	-0.270586
21255	9.140937	-0.694483	-1.516377	-0.092342	-0.831387	0.114442	-0.164697	-0.236728	0.957515	-0.934190	0.348928	-0.074419	-0.316487	-0.906757	-0.278617
21256	9.060949	-0.882810	-1.435692	-0.099634	-0.885088	0.116663	-0.168586	-0.244408	0.954905	-0.933644	0.350221	-0.075193	-0.316050	-0.904218	-0.287232
21257	8.986428	-1.244462	-1.454612	-0.074128	-0.937977	0.104028	-0.172469	-0.252520	0.952097	-0.933234	0.351156	-0.075917	-0.315164	-0.901623	-0.296223
21258	8.974713	-1.541729	-1.522008	-0.034532	-0.994872	0.094201	-0.176498	-0.261195	0.949013	-0.932897	0.351892	-0.076650	-0.313929	-0.898860	-0.305776
21259	9.086972	-1.634524	-1.761436	0.050894	-1.046841	0.082242	-0.180491	-0.270309	0.945704	-0.932911	0.351660	-0.077535	-0.311608	-0.896252	-0.315646
21260	9.029720	-1.284566	-2.084587	0.100716	-1.088110	0.081071	-0.184648	-0.279807	0.942132	-0.933012	0.351162	-0.078567	-0.308858	-0.893528	-0.325905
21261	8.861037	-1.388495	-2.290335	-0.005136	-1.140724	0.073132	-0.188793	-0.289732	0.938303	-0.932863	0.351421	-0.079185	-0.306797	-0.890257	-0.336626
21262	9.132452	-1.366352	-2.579333	0.020184	-1.189239	0.059123	-0.193022	-0.300121	0.934168	-0.932732	0.351638	-0.079754	-0.304554	-0.886723	-0.347806
21263	9.324238	-0.718134	-3.098692	0.039107	-1.224586	0.063135	-0.197275	-0.310744	0.929796	-0.932731	0.351489	-0.080428	-0.301821	-0.883116	-0.359180
21264	9.415500	-0.274059	-3.513281	-0.021763	-1.226094	0.073935	-0.201691	-0.321319	0.925243	-0.932448	0.352111	-0.080980	-0.299768	-0.879074	-0.370631
21265	9.298205	-0.101822	-3.864497	-0.126596	-1.239087	0.071557	-0.206016	-0.331940	0.920529	-0.931928	0.353457	-0.081111	-0.298444	-0.874576	-0.382162
21266	9.351167	-0.327436	-4.107970	-0.176744	-1.266133	0.057791	-0.210401	-0.342782	0.915550	-0.931178	0.355476	-0.080902	-0.297724	-0.869562	-0.393984
21267	9.493642	-0.399546	-4.244810	-0.167391	-1.272164	0.044235	-0.214545	-0.353663	0.910435	-0.930590	0.357083	-0.080584	-0.296601	-0.864531	-0.405726
21268	9.426096	-0.354489	-4.259878	-0.188620	-1.269551	0.044293	-0.218824	-0.364428	0.905156	-0.929804	0.359220	-0.080156	-0.295939	-0.859158	-0.417453
21269	9.376162	-0.325487	-4.231963	-0.242954	-1.281147	0.039474	-0.222931	-0.375266	0.899710	-0.929003	0.361446	-0.079431	-0.295389	-0.853541	-0.429201
21270	9.424816	-0.304935	-4.135737	-0.315974	-1.299282	0.040721	-0.227265	-0.386143	0.894004	-0.927842	0.364647	-0.078367	-0.295735	-0.847305	-0.441152
21271	9.420102	-0.773229	-3.833119	-0.413696	-1.332543	0.026656	-0.231411	-0.397301	0.888032	-0.926561	0.368241	-0.076702	-0.296536	-0.840566	-0.453338
21272	9.761219	-1.032182	-3.393981	-0.391902	-1.366920	-0.004660	-0.235577	-0.408712	0.881736	-0.925246	0.371920	-0.074806	-0.297361	-0.833445	-0.465775
21273	9.855491	-0.604903	-2.834648	-0.313774	-1.419596	-0.023199	-0.239533	-0.420589	0.875059	-0.924374	0.374425	-0.073068	-0.296913	-0.826384	-0.478469
21274	9.800496	-0.724206	-2.216129	-0.352367	-1.499482	-0.042378	-0.243752	-0.433027	0.867797	-0.923267	0.377553	-0.070936	-0.296922	-0.818500	-0.491829
21275	10.321244	-1.628212	-1.537326	-0.332558	-1.625246	-0.111578	-0.247493	-0.446694	0.859774	-0.922561	0.379766	-0.068260	-0.296021	-0.810088	-0.506092
21276	11.356043	-1.766665	-0.999470	-0.132408	-1.755486	-0.198002	-0.251041	-0.461507	0.850876	-0.922473	0.380408	-0.065835	-0.293296	-0.801437	-0.521226
21277	12.182009	-0.855149	-0.705163	0.082057	-1.863058	-0.231689	-0.254269	-0.477250	0.841178	-0.923303	0.378660	-0.064257	-0.287854	-0.793000	-0.536928
21278	12.370052	0.375782	-0.665269	0.168934	-1.960295	-0.208231	-0.257895	-0.493553	0.830600	-0.924318	0.376324	-0.063377	-0.281294	-0.784083	-0.553252
21279	12.338626	1.530396	-1.288828	0.138695	-2.069563	-0.141985	-0.262287	-0.510221	0.819072	-0.925080	0.374522	-0.062933	-0.274651	-0.774214	-0.570228
21280	12.098347	2.314095	-2.260275	-0.063986	-2.137767	-0.060091	-0.267513	-0.526926	0.806713	-0.925068	0.374705	-0.062012	-0.269604	-0.762853	-0.587681
21281	11.334411	2.533054	-2.766406	-0.403693	-2.195375	0.016660	-0.273514	-0.543476	0.793614	-0.923946	0.377837	-0.059685	-0.267420	-0.749581	-0.605487
21282	10.666965	2.392226	-3.079001	-0.721870	-2.234901	0.073280	-0.280131	-0.559825	0.779822	-0.921815	0.383598	-0.055758	-0.267924	-0.734471	-0.623513
21283	10.377133	1.845961	-3.464922	-1.076127	-2.273632	0.138414	-0.287488	-0.575806	0.765375	-0.918529	0.392184	-0.049968	-0.271395	-0.717384	-0.641642
21284	9.969294	0.818503	-4.004685	-1.290925	-2.284504	0.184967	-0.295396	-0.591289	0.750413	-0.914458	0.402402	-0.042898	-0.276602	-0.698893	-0.659576
21285	9.953801	-0.035754	-4.346449	-1.318572	-2.256223	0.229235	-0.303741	-0.605923	0.735254	-0.910097	0.412851	-0.035740	-0.281895	-0.680008	-0.676849
21286	9.881615	-1.045888	-5.155007	-1.254784	-2.195845	0.248054	-0.312184	-0.619650	0.720122	-0.905773	0.422779	-0.028874	-0.286561	-0.661281	-0.693247
21287	10.218868	-2.060580	-6.205110	-1.155160	-2.130030	0.254125	-0.320578	-0.632469	0.705133	-0.901646	0.431887	-0.022538	-0.290284	-0.643006	-0.708717
21288	10.464924	-2.464490	-6.096295	-0.895392	-2.150834	0.267747	-0.329193	-0.644975	0.689666	-0.898179	0.439265	-0.017920	-0.291388	-0.625342	-0.723906
21289	10.862255	-2.738767	-6.463086	-0.597228	-2.198255	0.255006	-0.337817	-0.657424	0.673552	-0.895604	0.444591	-0.015241	-0.289436	-0.608385	-0.738983
21290	11.166040	-2.097968	-6.682439	-0.279575	-2.211421	0.199412	-0.345898	-0.669840	0.657015	-0.894128	0.447579	-0.014415	-0.284411	-0.592442	-0.753740
21291	10.795806	-1.440658	-6.607756	-0.088849	-2.202975	0.115520	-0.353074	-0.682222	0.640244	-0.893486	0.448859	-0.014440	-0.277528	-0.577148	-0.768036
21292	10.481281	-0.929454	-6.465191	0.025387	-2.149940	0.043822	-0.359297	-0.694298	0.623583	-0.893410	0.448998	-0.014852	-0.269676	-0.562451	-0.781616
21293	9.901177	-0.527259	-6.978751	0.116976	-1.980253	-0.015659	-0.364370	-0.705391	0.607995	-0.893789	0.448216	-0.015630	-0.261487	-0.549115	-0.793787
21294	8.779956	-0.101177	-6.477660	0.111414	-1.749058	-0.031652	-0.368545	-0.715051	0.594034	-0.894204	0.447365	-0.016270	-0.254116	-0.537184	-0.804275
21295	7.592696	0.514427	-6.336985	0.117538	-1.453229	-0.021170	-0.371956	-0.722896	0.582297	-0.894590	0.446563	-0.017051	-0.247707	-0.527259	-0.812797
21296	6.336217	0.796240	-7.451991	0.071454	-1.149281	0.008876	-0.374800	-0.728887	0.572931	-0.894744	0.446231	-0.017625	-0.242813	-0.519232	-0.819414
21297	4.859920	0.436497	-9.405654	-0.007220	-0.930026	0.059883	-0.377532	-0.733433	0.565284	-0.894515	0.446682	-0.017862	-0.239402	-0.512398	-0.824703
21298	4.066104	-0.414933	-9.710599	-0.041411	-0.776527	0.120664	-0.380407	-0.736866	0.558855	-0.893971	0.447757	-0.018137	-0.236867	-0.506500	-0.829067
21299	5.828904	0.478598	-6.375269	-0.118683	-0.421785	0.114801	-0.382385	-0.738496	0.555342	-0.893266	0.449177	-0.017746	-0.236342	-0.502855	-0.831432
21300	7.200573	0.719593	-4.504534	-0.381707	0.075093	0.065046	-0.382733	-0.737844	0.555970	-0.892121	0.451552	-0.014874	-0.240074	-0.501685	-0.831069
21301	7.292474	-0.647263	-5.357148	-0.359936	0.589108	0.038261	-0.381598	-0.734724	0.560860	-0.891114	0.453619	-0.012058	-0.245558	-0.504392	-0.827823
21302	6.406160	-1.630707	-6.417975	0.021837	1.048538	-0.010902	-0.378850	-0.729458	0.569529	-0.891222	0.453405	-0.012115	-0.249390	-0.512167	-0.821882
21303	5.666844	-1.659279	-7.304290	0.509789	1.443819	-0.125814	-0.374074	-0.722556	0.581362	-0.892983	0.449823	-0.015514	-0.250300	-0.524949	-0.813497
21304	5.226219	-0.958341	-7.780917	0.879998	1.817149	-0.243780	-0.367299	-0.713964	0.596110	-0.896097	0.443355	-0.021131	-0.249202	-0.541934	-0.802624
21305	5.161793	-0.097481	-7.713679	1.010266	2.162039	-0.337410	-0.358848	-0.703531	0.613411	-0.899846	0.435365	-0.027086	-0.248002	-0.561695	-0.789299
21306	5.301668	0.272834	-7.562369	0.946087	2.503782	-0.375936	-0.349187	-0.690830	0.633106	-0.903538	0.427307	-0.032075	-0.248372	-0.583235	-0.773400
21307	5.271290	0.164494	-7.335725	0.838786	2.845465	-0.376252	-0.338635	-0.675514	0.654987	-0.906936	0.419727	-0.036014	-0.250587	-0.606227	-0.754781
21308	5.186164	-0.002755	-7.185189	0.749175	3.162241	-0.372282	-0.327210	-0.657520	0.678676	-0.910078	0.412594	-0.039044	-0.254345	-0.630424	-0.733399
21309	5.230629	-0.067933	-7.440504	0.714360	3.435289	-0.386575	-0.314822	-0.637023	0.703625	-0.913163	0.405480	-0.041477	-0.258884	-0.655582	-0.709359
21310	5.458615	0.529147	-7.314062	0.577698	3.686135	-0.439192	-0.301090	-0.614164	0.729484	-0.916038	0.398856	-0.042287	-0.264988	-0.680967	-0.682689
21311	5.621363	0.919729	-7.034635	0.330442	3.884791	-0.481218	-0.286170	-0.589146	0.755654	-0.918350	0.393654	-0.040871	-0.273388	-0.705651	-0.653694
21312	5.258971	0.316396	-8.462308	0.017024	3.994223	-0.490061	-0.270465	-0.562431	0.781358	-0.919769	0.390699	-0.037145	-0.284384	-0.728715	-0.622977
21313	6.180083	-0.950346	-8.002450	-0.117007	3.984334	-0.429321	-0.254904	-0.534652	0.805712	-0.920564	0.389198	-0.032976	-0.295951	-0.750114	-0.591389
21314	7.909906	1.750059	-5.030406	-0.229699	4.154463	-0.418092	-0.238440	-0.504697	0.829715	-0.920906	0.388766	-0.028168	-0.308349	-0.770806	-0.557476
21315	6.985169	0.916482	-6.964683	-0.685422	4.235988	-0.450832	-0.220838	-0.473430	0.852698	-0.919777	0.391899	-0.020623	-0.324408	-0.788847	-0.521996
21316	6.768336	-0.364199	-7.476731	-0.704237	4.271287	-0.405874	-0.202855	-0.440990	0.874287	-0.918299	0.395657	-0.013498	-0.339965	-0.805595	-0.485222
21317	7.365733	0.373015	-6.550932	-0.675516	4.345033	-0.395603	-0.184085	-0.407223	0.894585	-0.916720	0.399471	-0.006797	-0.354593	-0.821336	-0.446846
21318	7.792520	-0.083531	-6.713117	-0.692548	4.420506	-0.404659	-0.164329	-0.372239	0.913474	-0.914920	0.403636	-0.000108	-0.368670	-0.835773	-0.406898
21319	7.747480	-0.627629	-6.671176	-0.515211	4.481506	-0.390926	-0.143920	-0.336063	0.930778	-0.913592	0.406594	0.005540	-0.380311	-0.849555	-0.365542
21320	8.069069	-0.842325	-6.735049	-0.247002	4.565433	-0.364911	-0.122971	-0.298477	0.946461	-0.913126	0.407558	0.009888	-0.388690	-0.863022	-0.322665
21321	8.219516	-1.586941	-6.819710	0.045268	4.639776	-0.352646	-0.101552	-0.259569	0.960370	-0.913696	0.406185	0.013168	-0.393506	-0.876149	-0.278416
21322	8.576085	-2.097830	-6.263043	0.485395	4.687040	-0.355699	-0.079799	-0.219657	0.972308	-0.915922	0.401059	0.015433	-0.393343	-0.889327	-0.233193
21323	9.378835	-1.649504	-5.298088	0.846016	4.679083	-0.391437	-0.057855	-0.179304	0.982091	-0.919496	0.392708	0.017530	-0.388818	-0.902015	-0.187590
21324	10.078232	-1.401320	-4.363606	1.013884	4.644359	-0.423007	-0.036012	-0.138820	0.989663	-0.923593	0.382847	0.020094	-0.381679	-0.913322	-0.142000
21325	10.390699	-0.954933	-3.282927	1.077514	4.533901	-0.450392	-0.014685	-0.098899	0.994989	-0.927767	0.372431	0.023326	-0.372872	-0.922775	-0.097224
21326	11.081502	0.601937	-2.584685	1.078360	4.372027	-0.507826	0.006173	-0.060291	0.998162	-0.931747	0.362055	0.027632	-0.363055	-0.930205	-0.053941
21327	12.502815	1.316503	0.839607	0.604220	4.166149	-0.468876	0.025594	-0.023142	0.999405	-0.933839	0.356243	0.032164	-0.356776	-0.934107	-0.012494
21328	11.590167	1.168126	-1.157171	0.342661	3.821742	-0.461619	0.043505	0.010910	0.998994	-0.934884	0.353035	0.036857	-0.352278	-0.935546	0.025559
21329	10.364609	0.383460	-1.751919	0.202144	3.243154	-0.482385	0.059434	0.039546	0.997449	-0.935334	0.351287	0.041805	-0.348737	-0.935432	0.057867
21330	9.728264	0.701980	-0.299843	0.032926	2.668140	-0.444277	0.072914	0.062885	0.995354	-0.935142	0.351233	0.046313	-0.346689	-0.934174	0.084416
21331	8.458664	-0.435431	0.231872	-0.200754	2.129153	-0.334229	0.083471	0.081566	0.993166	-0.934173	0.353371	0.049491	-0.346919	-0.931920	0.105693
21332	7.725566	-1.224925	-0.124897	-0.057224	1.642474	-0.155194	0.090657	0.096265	0.991219	-0.933826	0.354070	0.051022	-0.346049	-0.930251	0.121994
21333	7.521561	-0.369361	0.129541	0.186712	1.249595	0.000942	0.095004	0.107882	0.989614	-0.934459	0.352357	0.051297	-0.343164	-0.929627	0.134286
21334	7.063860	0.462600	0.250572	0.162167	0.858934	0.117015	0.096891	0.116230	0.988485	-0.935112	0.350748	0.050417	-0.340849	-0.929229	0.142673
21335	7.030654	0.622293	-0.093041	-0.058751	0.440081	0.207358	0.096501	0.121038	0.987946	-0.935100	0.351073	0.048327	-0.340992	-0.928492	0.147062
21336	7.509183	0.227368	-1.333694	-0.282028	0.087188	0.271871	0.094301	0.122757	0.987946	-0.934380	0.353389	0.045278	-0.343571	-0.927387	0.148027
21337	7.528512	-0.389620	-2.284333	-0.394540	-0.160396	0.305414	0.090944	0.122348	0.988312	-0.933288	0.356697	0.041724	-0.347423	-0.926174	0.146625
21338	7.304952	-0.568705	-3.069615	-0.341087	-0.334515	0.329674	0.086741	0.120379	0.988931	-0.932376	0.359485	0.038022	-0.350928	-0.925354	0.143420
21339	6.942706	-0.553668	-3.862887	-0.251832	-0.454876	0.356442	0.081865	0.117447	0.989699	-0.931778	0.361416	0.034185	-0.353678	-0.924978	0.139022
21340	6.389995	-0.640034	-4.198453	-0.244379	-0.523873	0.364361	0.076647	0.113862	0.990535	-0.931185	0.363286	0.030295	-0.356398	-0.924694	0.133872
21341	6.327291	-0.732609	-4.405498	-0.246040	-0.560144	0.365038	0.071294	0.110005	0.991371	-0.930564	0.365177	0.026401	-0.359121	-0.924416	0.128402
21342	7.062678	-1.165130	-3.672326	-0.211457	-0.598099	0.344979	0.065961	0.105670	0.992211	-0.930025	0.366791	0.022764	-0.361529	-0.924282	0.122470
21343	8.600405	-1.015972	-1.772990	0.002985	-0.709531	0.288432	0.060760	0.100159	0.993115	-0.930208	0.366491	0.019950	-0.361970	-0.925015	0.115436
21344	12.961433	-1.144627	1.480111	0.068562	-1.048537	0.198835	0.055141	0.091107	0.994313	-0.930558	0.365698	0.018097	-0.361970	-0.926264	0.104945
21345	15.800905	-2.126514	1.310652	0.738737	-1.309848	0.167978	0.048924	0.079549	0.995630	-0.933286	0.358722	0.017199	-0.355786	-0.930049	0.091792
21346	15.999566	0.205601	-1.270691	1.967051	-1.717199	0.162735	0.041463	0.064005	0.997088	-0.940173	0.340260	0.017254	-0.338165	-0.938150	0.074284
21347	13.993307	3.764134	-1.532401	2.574985	-1.882454	0.233464	0.033163	0.047014	0.998344	-0.948656	0.315872	0.016638	-0.314566	-0.947636	0.055075
21348	9.883198	7.199539	-2.319841	2.467021	-1.976761	0.357216	0.023792	0.029209	0.999290	-0.956226	0.292284	0.014224	-0.291661	-0.955885	0.034885
21349	7.848081	8.082312	-2.171478	1.546625	-2.008023	0.528283	0.013066	0.011466	0.999849	-0.960716	0.277376	0.009374	-0.277226	-0.960693	0.014640
21350	6.901925	6.268465	-1.898575	0.146159	-1.940689	0.682561	0.001175	-0.005377	0.999985	-0.961159	0.275983	0.002613	-0.275993	-0.961147	-0.004843
21351	7.306953	2.022766	-3.016466	-0.923643	-1.912692	0.794720	-0.011767	-0.021508	0.999699	-0.958521	0.284974	-0.005151	-0.284778	-0.958294	-0.023970
21352	8.939128	-1.607634	-3.722727	-1.308754	-1.778478	0.778882	-0.024349	-0.036333	0.999043	-0.954564	0.297747	-0.012436	-0.297010	-0.953953	-0.041932
21353	10.108581	-3.966399	-4.298432	-1.117236	-1.588460	0.690928	-0.035681	-0.049365	0.998143	-0.950976	0.308697	-0.018728	-0.307199	-0.949879	-0.057959
21354	10.800917	-4.648613	-4.179816	-0.668035	-1.396902	0.574663	-0.045437	-0.060915	0.997108	-0.948662	0.315383	-0.023962	-0.313012	-0.947007	-0.072118
21355	10.440459	-4.911572	-4.329217	-0.154929	-1.229074	0.456895	-0.053573	-0.071107	0.996029	-0.947946	0.317168	-0.028344	-0.313893	-0.945700	-0.084397
21356	9.823055	-3.692235	-4.330453	0.377859	-1.102666	0.351171	-0.060318	-0.080527	0.994926	-0.948915	0.313893	-0.032122	-0.309713	-0.946037	-0.095346
21357	9.784982	-1.386508	-3.945388	0.607065	-1.005688	0.269178	-0.065908	-0.089214	0.993829	-0.950602	0.308391	-0.035357	-0.303334	-0.947067	-0.105132
21358	9.904667	-0.206182	-3.436029	0.601967	-0.918447	0.256400	-0.071086	-0.097234	0.992720	-0.952225	0.302959	-0.038512	-0.297009	-0.948030	-0.114125
21359	9.965944	0.746752	-3.057180	0.555969	-0.866835	0.274717	-0.076203	-0.104635	0.991587	-0.953655	0.297978	-0.041845	-0.291093	-0.948821	-0.122492
21360	10.030375	1.291646	-2.942220	0.366537	-0.838253	0.298710	-0.081458	-0.111807	0.990386	-0.954471	0.294857	-0.045217	-0.286967	-0.948978	-0.130735
21361	9.878230	1.035446	-3.032979	0.148469	-0.807492	0.333212	-0.086898	-0.118492	0.989145	-0.954613	0.293847	-0.048664	-0.284891	-0.948480	-0.138649
21362	9.945497	0.552173	-3.309631	0.001590	-0.762014	0.358739	-0.092471	-0.124768	0.987867	-0.954288	0.294303	-0.052157	-0.284225	-0.947533	-0.146279
21363	9.982254	-0.067169	-3.339748	-0.080703	-0.716022	0.382166	-0.098103	-0.130426	0.986593	-0.953693	0.295568	-0.055758	-0.284333	-0.946377	-0.153382
21364	10.045898	-0.553013	-3.096452	-0.111260	-0.668271	0.392010	-0.103722	-0.135694	0.985307	-0.952973	0.297178	-0.059391	-0.284752	-0.945131	-0.160137
21365	10.070924	-0.809438	-2.823506	-0.109077	-0.596693	0.389263	-0.109081	-0.140175	0.984100	-0.952247	0.298758	-0.062995	-0.285178	-0.943978	-0.166070
21366	9.876319	-0.746304	-2.649390	-0.132770	-0.527740	0.387145	-0.114254	-0.144105	0.982944	-0.951428	0.300598	-0.066521	-0.285885	-0.942802	-0.171450
21367	9.762393	-0.772810	-2.558520	-0.237910	-0.487345	0.371347	-0.119133	-0.147580	0.981849	-0.950313	0.303393	-0.069704	-0.287599	-0.941368	-0.176391
21368	9.814103	-1.386510	-2.391298	-0.308240	-0.458338	0.346582	-0.123729	-0.150946	0.980768	-0.948994	0.306846	-0.072495	-0.290002	-0.939713	-0.181212
21369	9.917583	-1.757918	-2.283300	-0.273094	-0.441491	0.305997	-0.127867	-0.154153	0.979738	-0.947814	0.309890	-0.074943	-0.292058	-0.938193	-0.185733
21370	9.902483	-1.780559	-2.330790	-0.245139	-0.424409	0.271569	-0.131666	-0.157399	0.978718	-0.946736	0.312648	-0.077084	-0.293861	-0.936738	-0.190180
21371	9.780908	-1.527425	-2.374822	-0.246206	-0.408240	0.239709	-0.135089	-0.160473	0.977752	-0.945691	0.315345	-0.078904	-0.295667	-0.935311	-0.194357
21372	9.557467	-1.382442	-2.231602	-0.282097	-0.399014	0.210243	-0.138245	-0.163648	0.976784	-0.944559	0.318358	-0.080347	-0.297819	-0.933738	-0.198586
21373	9.518574	-1.512636	-2.101811	-0.260192	-0.400752	0.177816	-0.141072	-0.166824	0.975842	-0.943534	0.321091	-0.081510	-0.299737	-0.932239	-0.202701
21374	9.473967	-1.478934	-1.940571	-0.209551	-0.391460	0.151833	-0.143667	-0.170093	0.974899	-0.942681	0.323335	-0.082506	-0.301185	-0.930872	-0.206796
21375	9.378613	-1.308531	-1.775172	-0.154468	-0.401184	0.142525	-0.146171	-0.173369	0.973949	-0.942009	0.325028	-0.083520	-0.302081	-0.929677	-0.210825
21376	9.361122	-1.098767	-1.685102	-0.118902	-0.418668	0.134003	-0.148686	-0.176933	0.972927	-0.941445	0.326403	-0.084516	-0.302612	-0.928523	-0.215104
21377	9.390797	-1.015589	-1.726074	-0.128261	-0.439637	0.121954	-0.151116	-0.180620	0.971875	-0.940874	0.327822	-0.085372	-0.303182	-0.927313	-0.219480
21378	9.277998	-1.090436	-1.750513	-0.140061	-0.463476	0.114261	-0.153585	-0.184648	0.970730	-0.940268	0.329363	-0.086115	-0.303821	-0.925972	-0.224204
21379	9.232316	-1.096530	-1.737585	-0.128031	-0.497024	0.108009	-0.156063	-0.188897	0.969516	-0.939713	0.330760	-0.086821	-0.304277	-0.924617	-0.229128
