// General information: 
//  MT Manager version: 2022.2.0 
//  XDA version: 2022.2.0 build 7381 rev 124627 built on 2023-07-19
// Device information: 
//  DeviceId: 00B4CB9F
//  ProductCode: MTW2-3A7G6
//  Firmware Version: 4.6.0
//  Hardware Version: 2.0.0
// Device settings: 
//  Filter Profile: human(46.1)
//  Option Flags: Orientation Smoother Disabled, Position/Velocity Smoother Disabled, Continuous Zero Rotation Update Disabled, AHS Disabled, ICC Disabled
// Coordinate system: ENU
PacketCounter	Acc_X	Acc_Y	Acc_Z	Gyr_X	Gyr_Y	Gyr_Z	Mat[1][1]	Mat[2][1]	Mat[3][1]	Mat[1][2]	Mat[2][2]	Mat[3][2]	Mat[1][3]	Mat[2][3]	Mat[3][3]
19302	9.535109	-1.452150	0.162980	-0.047591	0.068639	-0.162561	-0.048028	-0.057959	0.997163	-0.976848	0.211089	-0.034780	-0.208474	-0.975747	-0.066756
19303	9.231212	-1.301812	-0.349783	0.113965	0.033067	-0.167171	-0.046367	-0.058036	0.997237	-0.977171	0.209842	-0.033222	-0.207334	-0.976011	-0.066440
19304	9.385282	-0.730462	-1.136553	0.266440	-0.044319	-0.168260	-0.044866	-0.058861	0.997257	-0.977805	0.207097	-0.031768	-0.204659	-0.976548	-0.066846
19305	9.868545	0.037559	-1.333959	0.309470	-0.105957	-0.144136	-0.043713	-0.060240	0.997226	-0.978504	0.203948	-0.030572	-0.201540	-0.977127	-0.067860
19306	9.881930	0.921177	-1.428296	0.266323	-0.141845	-0.123641	-0.042840	-0.061919	0.997161	-0.979099	0.201224	-0.029569	-0.198822	-0.977586	-0.069245
19307	10.057406	1.184558	-1.099445	0.119914	-0.150061	-0.111697	-0.042084	-0.063660	0.997084	-0.979391	0.199941	-0.028571	-0.197539	-0.977738	-0.070763
19308	10.190350	1.002685	-0.545517	-0.045658	-0.119520	-0.101855	-0.041375	-0.065075	0.997022	-0.979351	0.200276	-0.027570	-0.197886	-0.977576	-0.072018
19309	9.885809	0.821964	-0.273057	-0.176772	-0.084624	-0.108547	-0.040519	-0.066172	0.996985	-0.979052	0.201894	-0.026390	-0.199539	-0.977169	-0.072966
19310	9.785624	0.284009	-0.031977	-0.255704	-0.073111	-0.118759	-0.039556	-0.067169	0.996957	-0.978594	0.204268	-0.025065	-0.201963	-0.976608	-0.073811
19311	9.931551	-0.395398	-0.045454	-0.265396	-0.044105	-0.124160	-0.038467	-0.067903	0.996950	-0.978110	0.206739	-0.023658	-0.204502	-0.976037	-0.074370
19312	9.549579	-0.947405	-0.372056	-0.185454	-0.042195	-0.131972	-0.037316	-0.068631	0.996944	-0.977787	0.208414	-0.022251	-0.206250	-0.975630	-0.074884
19313	9.621945	-1.139701	-0.583527	-0.075981	-0.068428	-0.138642	-0.036139	-0.069637	0.996918	-0.977689	0.209020	-0.020841	-0.206924	-0.975429	-0.075637
19314	9.637651	-0.903892	-0.649289	0.029023	-0.087205	-0.136823	-0.035034	-0.070815	0.996874	-0.977807	0.208596	-0.019546	-0.206560	-0.975435	-0.076552
19315	9.581358	-0.798327	-0.931864	0.104915	-0.123352	-0.132423	-0.034033	-0.072342	0.996799	-0.978076	0.207437	-0.018339	-0.205446	-0.975570	-0.077816
19316	9.578265	-0.650292	-1.054082	0.167619	-0.154820	-0.115170	-0.033276	-0.074133	0.996693	-0.978467	0.205673	-0.017370	-0.203705	-0.975809	-0.079380
19317	9.494558	-0.578562	-1.322984	0.256235	-0.197163	-0.096909	-0.032767	-0.076304	0.996546	-0.979025	0.203059	-0.016643	-0.201088	-0.976189	-0.081357
19318	9.637076	-0.389678	-1.171840	0.316341	-0.236833	-0.071948	-0.032588	-0.078803	0.996357	-0.979688	0.199870	-0.016235	-0.197862	-0.976648	-0.083716
19319	9.524599	0.291929	-0.914012	0.321421	-0.259966	-0.058169	-0.032569	-0.081507	0.996140	-0.980345	0.196643	-0.015963	-0.194582	-0.977082	-0.086310
19320	9.511419	0.878719	-0.912214	0.270077	-0.307050	-0.056417	-0.032662	-0.084660	0.995874	-0.980893	0.193912	-0.015686	-0.191784	-0.977359	-0.089376
19321	10.000729	1.183523	-0.553761	0.140564	-0.293898	-0.058954	-0.032685	-0.087696	0.995611	-0.981188	0.192449	-0.015260	-0.190266	-0.977381	-0.092336
19322	9.857886	1.196042	-0.535228	-0.009871	-0.264799	-0.051779	-0.032733	-0.090426	0.995365	-0.981194	0.192455	-0.014783	-0.190226	-0.977131	-0.095025
19323	9.954496	0.677785	-0.839926	-0.119120	-0.251059	-0.062306	-0.032637	-0.093049	0.995126	-0.980994	0.193525	-0.014078	-0.191271	-0.976673	-0.097596
19324	9.990094	0.207918	-0.656292	-0.177832	-0.233949	-0.057065	-0.032580	-0.095486	0.994897	-0.980679	0.195163	-0.013383	-0.192890	-0.976111	-0.100000
19325	9.762280	0.032305	-0.729535	-0.189713	-0.226967	-0.056742	-0.032500	-0.097861	0.994669	-0.980337	0.196923	-0.012657	-0.194635	-0.975523	-0.102337
19326	9.671121	-0.123729	-1.024563	-0.157369	-0.257257	-0.074749	-0.032323	-0.100560	0.994406	-0.980062	0.198340	-0.011799	-0.196044	-0.974961	-0.104966
19327	9.853956	-0.144148	-0.698567	-0.128001	-0.260158	-0.069526	-0.032188	-0.103283	0.994131	-0.979840	0.199481	-0.011001	-0.197174	-0.974443	-0.107622
19328	9.535466	0.205937	-0.591973	-0.087371	-0.257126	-0.059347	-0.032167	-0.105949	0.993851	-0.979695	0.200227	-0.010364	-0.197898	-0.974004	-0.110238
19329	9.628822	0.355627	-0.715659	-0.057181	-0.275471	-0.060422	-0.032159	-0.108800	0.993543	-0.979608	0.200681	-0.009732	-0.198327	-0.973596	-0.113035
19330	9.605537	0.673594	-0.482527	-0.055762	-0.270488	-0.050807	-0.032251	-0.111577	0.993232	-0.979522	0.201125	-0.009212	-0.198736	-0.973190	-0.115779
19331	9.488627	0.877082	-0.685951	-0.088669	-0.293083	-0.040697	-0.032472	-0.114558	0.992886	-0.979367	0.201903	-0.008734	-0.199466	-0.972683	-0.118751
19332	9.883504	0.876228	-0.467722	-0.150628	-0.283665	-0.020713	-0.032889	-0.117400	0.992540	-0.979080	0.203301	-0.008396	-0.200799	-0.972052	-0.121631
19333	9.825325	0.916673	-0.418654	-0.203689	-0.250898	-0.010916	-0.033324	-0.119908	0.992226	-0.978681	0.205230	-0.008068	-0.202667	-0.971341	-0.124191
19334	9.791555	0.589305	-0.699377	-0.242459	-0.240089	-0.009689	-0.033772	-0.122300	0.991918	-0.978198	0.207530	-0.007717	-0.204909	-0.970553	-0.126643
19335	9.930103	0.195023	-0.589618	-0.282116	-0.225087	-0.004634	-0.034225	-0.124540	0.991624	-0.977625	0.210225	-0.007339	-0.207550	-0.969688	-0.128948
19336	9.946801	0.056248	-0.581801	-0.266752	-0.195611	0.002669	-0.034713	-0.126471	0.991363	-0.977076	0.212772	-0.007069	-0.210040	-0.968882	-0.130958
19337	9.925039	0.113548	-0.603521	-0.245719	-0.172343	0.001661	-0.035128	-0.128180	0.991129	-0.976564	0.215121	-0.006790	-0.212342	-0.968139	-0.132733
19338	9.857963	0.034605	-0.660532	-0.224564	-0.145185	0.003192	-0.035522	-0.129620	0.990927	-0.976092	0.217257	-0.006572	-0.214434	-0.967470	-0.134238
19339	9.650805	-0.271176	-1.161904	-0.144639	-0.159682	0.004109	-0.035940	-0.131197	0.990705	-0.975787	0.218628	-0.006446	-0.215751	-0.966948	-0.135878
19340	9.566192	-0.433080	-1.613488	-0.003287	-0.216629	0.023222	-0.036687	-0.133282	0.990399	-0.975780	0.218649	-0.006721	-0.215654	-0.966658	-0.138075
19341	9.148032	0.010789	-2.114783	0.163255	-0.294721	0.033868	-0.037686	-0.136101	0.989978	-0.976126	0.217080	-0.007315	-0.213909	-0.966619	-0.141033
19342	9.084776	0.645857	-2.440643	0.221435	-0.394067	0.057480	-0.039139	-0.139827	0.989402	-0.976584	0.214978	-0.008251	-0.211546	-0.966557	-0.144966
19343	9.709410	1.593104	-2.066997	0.149889	-0.432463	0.106324	-0.041124	-0.143823	0.988749	-0.976865	0.213644	-0.009553	-0.209866	-0.966267	-0.149281
19344	9.983284	2.304580	-1.841449	-0.017678	-0.434026	0.131796	-0.043375	-0.147774	0.988069	-0.976781	0.213966	-0.010879	-0.209806	-0.965599	-0.153624
19345	10.149563	2.256746	-1.349309	-0.249810	-0.403211	0.146386	-0.045686	-0.151397	0.987417	-0.976195	0.216563	-0.011962	-0.212027	-0.964458	-0.157687
19346	10.137208	1.699463	-0.777385	-0.472163	-0.353505	0.138317	-0.047846	-0.154541	0.986827	-0.975128	0.221284	-0.012625	-0.216418	-0.962886	-0.161285
19347	10.173750	0.820575	-0.614513	-0.581291	-0.306907	0.119858	-0.049717	-0.157271	0.986303	-0.973802	0.227034	-0.012885	-0.221898	-0.961104	-0.164438
19348	10.166220	-0.030882	-0.437114	-0.602449	-0.254768	0.107008	-0.051385	-0.159511	0.985858	-0.972402	0.232948	-0.012993	-0.227581	-0.959318	-0.167079
19349	9.966367	-0.740950	-0.277841	-0.554574	-0.213425	0.098058	-0.052858	-0.161369	0.985478	-0.971081	0.238393	-0.013049	-0.232825	-0.957668	-0.169303
19350	9.796552	-1.329778	-0.348144	-0.455050	-0.184156	0.095030	-0.054267	-0.162942	0.985142	-0.969970	0.242862	-0.013262	-0.237093	-0.956278	-0.171228
19351	9.780353	-1.707244	-0.586484	-0.301547	-0.173902	0.103587	-0.055717	-0.164390	0.984821	-0.969202	0.245882	-0.013790	-0.239883	-0.955258	-0.173027
19352	9.603487	-1.710447	-0.992757	-0.110690	-0.166334	0.106640	-0.057205	-0.165755	0.984506	-0.968885	0.247076	-0.014698	-0.240812	-0.954714	-0.174731
19353	9.302116	-1.510107	-1.853374	0.064839	-0.226537	0.089034	-0.058644	-0.167734	0.984087	-0.968996	0.246576	-0.015717	-0.240015	-0.954498	-0.176993
19354	9.348343	-0.979724	-2.268814	0.204718	-0.293570	0.095022	-0.060321	-0.170341	0.983537	-0.969438	0.244743	-0.017069	-0.237806	-0.954508	-0.179898
19355	9.309271	-0.314046	-2.672768	0.303103	-0.342827	0.101692	-0.062151	-0.173404	0.982888	-0.970099	0.241994	-0.018649	-0.234619	-0.954657	-0.183259
19356	9.423133	0.182662	-2.914724	0.327597	-0.386475	0.120461	-0.064274	-0.176843	0.982138	-0.970794	0.239038	-0.020491	-0.231145	-0.954771	-0.187042
19357	9.598152	0.631104	-2.821783	0.285625	-0.404371	0.138819	-0.066585	-0.180413	0.981335	-0.971366	0.236529	-0.022424	-0.228068	-0.954728	-0.190996
19358	9.637085	0.878614	-2.508767	0.174275	-0.409236	0.146525	-0.068991	-0.184013	0.980499	-0.971670	0.235093	-0.024249	-0.226047	-0.954395	-0.195020
19359	9.853256	0.910540	-1.944852	0.043265	-0.402327	0.145534	-0.071346	-0.187550	0.979660	-0.971672	0.234922	-0.025790	-0.225307	-0.953749	-0.198998
19360	9.951722	0.677340	-1.529025	-0.064084	-0.381884	0.153833	-0.073756	-0.190868	0.978841	-0.971424	0.235786	-0.027220	-0.225601	-0.952877	-0.202804
19361	9.953618	0.376839	-1.164863	-0.106373	-0.351916	0.161416	-0.076151	-0.193878	0.978066	-0.971068	0.237081	-0.028610	-0.226334	-0.951947	-0.206323
19362	9.929353	0.264346	-0.880913	-0.140297	-0.317134	0.172219	-0.078596	-0.196525	0.977344	-0.970625	0.238714	-0.030055	-0.227400	-0.950996	-0.209514
19363	10.077096	0.122828	-0.701163	-0.149766	-0.297252	0.181211	-0.081063	-0.198954	0.976650	-0.970144	0.240469	-0.031537	-0.228580	-0.950048	-0.212507
19364	10.068995	0.083639	-0.656080	-0.145479	-0.272133	0.171924	-0.083408	-0.201162	0.976000	-0.969677	0.242157	-0.032957	-0.229715	-0.949154	-0.215260
19365	10.034305	0.025068	-0.690475	-0.122485	-0.259318	0.159853	-0.085585	-0.203270	0.975375	-0.969266	0.243615	-0.034279	-0.230648	-0.948332	-0.217873
19366	9.821292	-0.228873	-0.725856	-0.085609	-0.255284	0.148676	-0.087670	-0.205366	0.974751	-0.968947	0.244693	-0.035594	-0.231205	-0.947602	-0.220441
19367	9.732239	-0.598293	-0.810720	-0.021305	-0.261408	0.152781	-0.089784	-0.207502	0.974106	-0.968768	0.245184	-0.037063	-0.231145	-0.947010	-0.223035
19368	9.676174	-0.957624	-0.954431	0.083938	-0.277399	0.165235	-0.092078	-0.209762	0.973407	-0.968818	0.244697	-0.038913	-0.230027	-0.946638	-0.225753
19369	9.567009	-1.127071	-1.172390	0.247779	-0.305659	0.185478	-0.094604	-0.212235	0.972629	-0.969217	0.242717	-0.041310	-0.227306	-0.946596	-0.228664
19370	9.563960	-1.034354	-1.317946	0.416150	-0.338947	0.210735	-0.097464	-0.214975	0.971744	-0.969959	0.239190	-0.044370	-0.222893	-0.946876	-0.231829
19371	9.581058	-0.889172	-1.584766	0.547746	-0.378620	0.240810	-0.100665	-0.218021	0.970739	-0.970930	0.234497	-0.048018	-0.217166	-0.947353	-0.235289
19372	9.509175	-0.683064	-1.754009	0.620413	-0.422768	0.260237	-0.104151	-0.221463	0.969591	-0.971997	0.229153	-0.052068	-0.210653	-0.947862	-0.239128
19373	9.721659	-0.456568	-1.622597	0.629898	-0.442244	0.270816	-0.107732	-0.225072	0.968368	-0.973020	0.223759	-0.056242	-0.204023	-0.948301	-0.243106
19374	9.666922	-0.229704	-1.448234	0.568304	-0.432486	0.258979	-0.111175	-0.228641	0.967142	-0.973884	0.218920	-0.060195	-0.197964	-0.948577	-0.247008
19375	10.090185	-0.088885	-0.905357	0.457097	-0.408049	0.243174	-0.114371	-0.232013	0.965966	-0.974508	0.215118	-0.063714	-0.193014	-0.948628	-0.250701
19376	10.513423	-0.061848	-0.403297	0.346305	-0.358487	0.256723	-0.117610	-0.234905	0.964877	-0.974876	0.212396	-0.067120	-0.189169	-0.948529	-0.253983
19377	10.514436	-0.272382	0.034424	0.298971	-0.294226	0.260684	-0.120732	-0.237171	0.963937	-0.975129	0.210150	-0.070428	-0.185867	-0.948466	-0.256644
19378	10.352014	-0.431920	0.356742	0.293561	-0.244050	0.279347	-0.123958	-0.238942	0.963089	-0.975332	0.207994	-0.073930	-0.182652	-0.948496	-0.258831
19379	10.269429	-0.482569	0.109185	0.351618	-0.223255	0.276687	-0.127088	-0.240511	0.962291	-0.975624	0.205297	-0.077537	-0.178906	-0.948687	-0.260739
19380	10.325433	-0.337234	-0.432501	0.434273	-0.241540	0.271264	-0.130213	-0.242291	0.961426	-0.976045	0.201795	-0.081338	-0.174303	-0.948986	-0.262763
19381	10.231136	-0.218812	-0.941607	0.483062	-0.268748	0.276059	-0.133395	-0.244309	0.960478	-0.976513	0.197856	-0.085295	-0.169198	-0.949298	-0.264964
19382	10.165597	-0.203821	-1.094525	0.475170	-0.282179	0.286525	-0.136715	-0.246468	0.959460	-0.976920	0.194012	-0.089365	-0.164121	-0.949533	-0.267304
19383	10.328223	-0.316826	-0.983437	0.429926	-0.270764	0.277616	-0.139890	-0.248523	0.958471	-0.977234	0.190591	-0.093210	-0.159512	-0.949690	-0.269527
19384	10.551393	-0.415440	-0.563494	0.347352	-0.231556	0.285714	-0.143098	-0.250222	0.957555	-0.977379	0.187969	-0.096941	-0.155734	-0.949766	-0.271460
19385	10.900697	-0.635728	0.345709	0.303984	-0.141551	0.288679	-0.146160	-0.251043	0.956878	-0.977432	0.185780	-0.100559	-0.152524	-0.949981	-0.272531
19386	10.973284	-0.992330	1.305322	0.334479	-0.026220	0.315023	-0.149329	-0.250752	0.956464	-0.977472	0.183357	-0.104540	-0.149161	-0.950528	-0.272484
19387	10.869533	-1.250672	1.750431	0.426056	0.107242	0.331626	-0.152435	-0.249139	0.956396	-0.977600	0.180108	-0.108897	-0.145124	-0.951573	-0.271013
19388	10.914650	-1.379924	1.460821	0.555818	0.192312	0.351941	-0.155652	-0.246724	0.956504	-0.977851	0.175652	-0.113817	-0.139930	-0.953034	-0.268599
19389	11.030731	-1.508805	0.711732	0.713036	0.233013	0.371536	-0.158987	-0.243863	0.956689	-0.978242	0.169735	-0.119303	-0.133290	-0.954841	-0.265543
19390	11.127419	-1.772181	-0.165388	0.856869	0.243877	0.406301	-0.162697	-0.240900	0.956816	-0.978695	0.162493	-0.125506	-0.125241	-0.956851	-0.262204
19391	11.244228	-2.116580	-0.636594	0.956043	0.245362	0.445658	-0.166783	-0.237843	0.956877	-0.979116	0.154373	-0.132288	-0.116252	-0.958958	-0.258623
19392	11.378295	-2.475246	-0.735130	0.984873	0.282306	0.498777	-0.171400	-0.234427	0.956904	-0.979371	0.146059	-0.139642	-0.107028	-0.961099	-0.254626
19393	11.437011	-2.733920	-0.168593	1.001169	0.375734	0.535527	-0.176279	-0.230050	0.957080	-0.979466	0.137639	-0.147319	-0.097840	-0.963396	-0.249589
19394	11.345138	-2.882207	1.106845	1.011225	0.530163	0.567018	-0.181386	-0.224224	0.957509	-0.979392	0.129134	-0.155291	-0.088827	-0.965944	-0.243026
19395	11.226005	-2.806130	2.458123	1.027303	0.754784	0.597690	-0.186621	-0.216170	0.958354	-0.979160	0.120478	-0.163497	-0.080118	-0.968894	-0.234149
19396	11.123637	-2.503823	3.794095	1.040773	1.027560	0.614512	-0.191902	-0.205529	0.959652	-0.978783	0.111634	-0.171820	-0.071816	-0.972263	-0.222591
19397	11.052716	-2.170445	4.831251	1.108104	1.313042	0.620478	-0.197105	-0.192060	0.961386	-0.978325	0.102035	-0.180193	-0.063487	-0.976064	-0.208009
19398	11.149042	-1.814517	5.286652	1.209876	1.571473	0.625202	-0.202336	-0.176132	0.963347	-0.977785	0.091312	-0.188674	-0.054733	-0.980122	-0.190694
19399	11.166820	-1.284069	4.921968	1.271011	1.770050	0.648141	-0.207798	-0.158167	0.965300	-0.977094	0.079869	-0.197250	-0.045899	-0.984177	-0.171141
19400	11.172120	-0.958784	3.903186	1.147780	1.904709	0.697425	-0.213848	-0.138913	0.966940	-0.976102	0.069546	-0.205884	-0.038646	-0.987860	-0.150465
19401	11.665433	-1.173622	3.157562	0.870201	1.978445	0.750222	-0.220456	-0.118810	0.968134	-0.974790	0.061856	-0.214380	-0.034414	-0.990988	-0.129451
19402	11.735061	-1.556108	2.629972	0.527005	2.108714	0.825586	-0.227820	-0.097441	0.968815	-0.973111	0.057475	-0.223050	-0.033948	-0.993580	-0.107915
19403	11.198977	-1.854006	2.553843	0.226287	2.244851	0.896048	-0.235745	-0.074565	0.968950	-0.971114	0.055944	-0.231966	-0.036910	-0.995646	-0.085600
19404	10.425274	-1.934224	2.446043	0.037901	2.313042	0.901043	-0.243617	-0.051062	0.968526	-0.968961	0.056086	-0.240769	-0.042027	-0.997119	-0.063141
19405	10.772318	-1.994671	1.972783	-0.096040	2.301812	0.850826	-0.250819	-0.027577	0.967641	-0.966813	0.057323	-0.248971	-0.048602	-0.997975	-0.041040
19406	11.537095	-2.121025	1.192197	-0.169269	2.269668	0.738184	-0.256808	-0.004542	0.966452	-0.964842	0.059083	-0.256102	-0.055938	-0.998243	-0.019555
19407	12.480246	-2.184269	0.599796	-0.109282	2.209461	0.530635	-0.260623	0.017871	0.965275	-0.963405	0.060080	-0.261230	-0.062662	-0.998034	0.001559
19408	13.486645	-1.912209	-0.697995	0.008510	2.081511	0.211329	-0.261344	0.038717	0.964469	-0.962851	0.059885	-0.263309	-0.067952	-0.997454	0.021629
19409	14.557080	-0.820991	-2.994666	0.147852	1.980233	-0.152734	-0.258498	0.058412	0.964244	-0.963353	0.058425	-0.261798	-0.071628	-0.996581	0.041169
19410	15.066675	0.484832	-4.221767	0.260901	1.969808	-0.472314	-0.252555	0.077712	0.964457	-0.964742	0.056096	-0.257150	-0.074086	-0.995396	0.060805
19411	14.568160	1.667316	-4.741733	0.279084	2.036268	-0.661815	-0.244633	0.097636	0.964687	-0.966600	0.053844	-0.250568	-0.076407	-0.993765	0.081203
19412	13.937800	2.278011	-4.744178	0.177422	2.119064	-0.749806	-0.235770	0.118223	0.964591	-0.968533	0.052839	-0.243210	-0.079721	-0.991580	0.102045
19413	12.915030	1.714938	-4.432664	0.013049	2.221361	-0.656727	-0.227572	0.139896	0.963660	-0.970071	0.053506	-0.236854	-0.084697	-0.988720	0.123532
19414	12.437480	0.722459	-3.820370	-0.180086	2.363928	-0.392670	-0.221723	0.162962	0.961396	-0.970789	0.055823	-0.233352	-0.091696	-0.985052	0.145825
19415	11.791528	0.187975	-3.308467	-0.332567	2.494082	-0.121298	-0.218139	0.187422	0.957752	-0.970743	0.059257	-0.232694	-0.100366	-0.980490	0.169013
19416	10.912843	-0.188997	-2.858251	-0.438223	2.527951	-0.002500	-0.215503	0.212093	0.953192	-0.970283	0.063491	-0.233494	-0.110042	-0.975185	0.192108
19417	10.448506	-0.309732	-2.649663	-0.512153	2.455243	-0.081197	-0.211874	0.235922	0.948393	-0.969876	0.068608	-0.233740	-0.120212	-0.969347	0.214279
19418	10.048387	-0.326040	-2.697667	-0.602081	2.351259	-0.255934	-0.206488	0.258411	0.943709	-0.969652	0.075000	-0.232702	-0.130911	-0.963119	0.235082
19419	9.662188	-0.458397	-2.108811	-0.709954	2.227355	-0.415382	-0.199402	0.279467	0.939221	-0.969535	0.082889	-0.230502	-0.142268	-0.956571	0.254425
19420	9.216550	-0.667665	-1.502072	-0.838205	2.152495	-0.533698	-0.191084	0.299470	0.934775	-0.969332	0.092364	-0.227738	-0.154540	-0.949625	0.272637
19421	8.554582	-0.910921	-1.253875	-1.014409	2.150949	-0.597261	-0.181807	0.319227	0.930076	-0.968819	0.103764	-0.224995	-0.168333	-0.941980	0.290408
19422	7.776946	-1.197113	-1.168420	-1.152676	2.124734	-0.591192	-0.172398	0.338460	0.925053	-0.967841	0.116459	-0.222982	-0.183202	-0.933746	0.307498
19423	6.975324	-1.340634	-0.940000	-1.207270	2.020417	-0.525806	-0.163444	0.356588	0.919854	-0.966434	0.129467	-0.221909	-0.198221	-0.925248	0.323458
19424	6.767892	-1.613785	-0.751155	-1.184505	1.870997	-0.431474	-0.155487	0.373194	0.914631	-0.964692	0.141891	-0.221892	-0.212587	-0.916839	0.337955
19425	6.889344	-2.003977	-0.566848	-1.072540	1.718044	-0.371449	-0.148130	0.388319	0.909542	-0.962920	0.153055	-0.222169	-0.225482	-0.908726	0.351248
19426	7.107096	-2.302360	-0.351179	-0.901127	1.593287	-0.382550	-0.140823	0.402092	0.904705	-0.961397	0.162659	-0.221941	-0.236400	-0.901035	0.363664
19427	7.188771	-2.242768	-0.028427	-0.718155	1.483705	-0.460891	-0.132811	0.414626	0.900248	-0.960312	0.170945	-0.220405	-0.245278	-0.893791	0.375467
19428	7.382981	-2.236305	0.049026	-0.588397	1.382173	-0.549723	-0.124148	0.425934	0.896196	-0.959560	0.178433	-0.217729	-0.252649	-0.886985	0.386557
19429	7.266659	-2.480812	0.232675	-0.491512	1.289865	-0.603448	-0.115053	0.436220	0.892454	-0.959040	0.185336	-0.214227	-0.258854	-0.880546	0.397029
19430	7.153643	-2.828305	0.455858	-0.381178	1.163465	-0.611386	-0.106205	0.445243	0.889089	-0.958728	0.191314	-0.210331	-0.263744	-0.874733	0.406548
19431	6.657938	-3.080706	0.827785	-0.223018	1.007300	-0.601115	-0.097766	0.452847	0.886212	-0.958765	0.195917	-0.205881	-0.266857	-0.869797	0.415019
19432	6.275278	-2.924178	1.361607	-0.056624	0.816024	-0.601130	-0.089874	0.458705	0.884032	-0.959186	0.199086	-0.200816	-0.268113	-0.865999	0.422091
19433	5.909230	-2.482569	1.769477	0.075041	0.649143	-0.631025	-0.082079	0.463034	0.882532	-0.959944	0.201302	-0.194895	-0.267899	-0.863178	0.427964
19434	5.563040	-1.848760	1.902722	0.170283	0.489384	-0.711420	-0.073994	0.465779	0.881802	-0.960964	0.203076	-0.187903	-0.266594	-0.861284	0.432571
19435	5.381206	-1.531594	1.846999	0.209376	0.332723	-0.804203	-0.065379	0.466981	0.881847	-0.962095	0.204981	-0.179876	-0.264760	-0.860181	0.435879
19436	5.495117	-1.367142	1.817431	0.197308	0.191509	-0.869518	-0.056559	0.466800	0.882553	-0.963156	0.207281	-0.171360	-0.262927	-0.859728	0.437877
19437	5.586784	-1.323208	1.953376	0.206721	0.081551	-0.900168	-0.047674	0.465602	0.883709	-0.964181	0.209657	-0.162477	-0.260926	-0.859802	0.438929
19438	5.480975	-1.481456	2.107787	0.248540	0.003847	-0.888854	-0.039144	0.463727	0.885113	-0.965223	0.211588	-0.153542	-0.258480	-0.860342	0.439318
19439	5.487544	-1.752250	2.126372	0.341050	-0.097559	-0.867697	-0.031018	0.461023	0.886846	-0.966417	0.212620	-0.144331	-0.255101	-0.861540	0.438945
19440	5.573887	-2.121884	2.370049	0.449152	-0.253165	-0.849015	-0.023503	0.456998	0.889157	-0.967795	0.212581	-0.134841	-0.250640	-0.863691	0.437285
19441	5.685251	-2.540099	2.479370	0.546027	-0.481760	-0.838788	-0.016579	0.451026	0.892357	-0.969330	0.211620	-0.124968	-0.245204	-0.867060	0.433684
19442	5.746605	-2.999707	2.245189	0.615307	-0.792631	-0.849397	-0.010312	0.442307	0.896804	-0.970945	0.210002	-0.114739	-0.239080	-0.871931	0.427290
19443	5.754034	-2.614360	1.997869	0.618781	-1.098131	-0.879162	-0.004370	0.430834	0.902421	-0.972482	0.208381	-0.104195	-0.232938	-0.878043	0.418068
19444	5.720572	-2.180061	2.351569	0.610119	-1.357102	-0.927275	0.001480	0.416908	0.908948	-0.973909	0.206872	-0.093300	-0.226933	-0.885094	0.406336
19445	6.115392	-1.835353	3.307316	0.651358	-1.504920	-0.932931	0.007193	0.401584	0.915794	-0.975337	0.204855	-0.082170	-0.220603	-0.892617	0.393153
19446	6.662667	-1.169223	4.401417	0.720588	-1.510653	-0.874893	0.012399	0.386226	0.922321	-0.976827	0.201781	-0.071365	-0.213670	-0.900063	0.379778
19447	7.515176	-0.678263	5.703085	0.766386	-1.479559	-0.781374	0.016918	0.371269	0.928371	-0.978332	0.197770	-0.061263	-0.206349	-0.907219	0.366570
19448	8.765879	0.210824	5.955979	0.732910	-1.419089	-0.694620	0.020787	0.356949	0.933892	-0.979699	0.193566	-0.052178	-0.199394	-0.913849	0.353726
19449	10.919557	0.514487	6.902736	0.536430	-1.344779	-0.624955	0.024254	0.343396	0.938877	-0.980623	0.190793	-0.044451	-0.194395	-0.919607	0.341370
19450	14.093819	0.044766	8.511495	0.334480	-1.231600	-0.540726	0.027129	0.330973	0.943250	-0.981140	0.189472	-0.038264	-0.191384	-0.924423	0.329871
19451	16.120914	0.408311	8.579956	0.093265	-1.050632	-0.453846	0.029566	0.320360	0.946835	-0.981198	0.190044	-0.033662	-0.190725	-0.928037	0.319955
19452	15.445001	0.390361	8.746769	-0.254403	-0.736436	-0.426660	0.032284	0.312660	0.949316	-0.980588	0.193699	-0.030447	-0.193401	-0.929906	0.312844
19453	11.184308	0.696711	7.498577	-0.662755	-0.494252	-0.429697	0.035516	0.307198	0.950983	-0.979148	0.201154	-0.028412	-0.200022	-0.930143	0.307936
19454	5.958702	0.957611	5.325542	-1.068746	-0.677249	-0.391670	0.037902	0.300050	0.953170	-0.976821	0.212225	-0.027964	-0.210677	-0.930017	0.301139
19455	4.772760	1.166921	2.464200	-1.244386	-1.215998	-0.348055	0.038654	0.287963	0.956861	-0.973997	0.224788	-0.028303	-0.223241	-0.930885	0.289164
19456	8.962758	0.918114	1.765237	-1.513116	-1.531318	-0.351910	0.038485	0.272846	0.961288	-0.970380	0.239809	-0.029217	-0.238497	-0.931690	0.273993
19457	13.807031	0.037015	3.101980	-2.103663	-1.293487	-0.258253	0.037760	0.260150	0.964830	-0.965056	0.260041	-0.032347	-0.259310	-0.929893	0.260878
19458	13.755818	-2.151164	3.856597	-2.795738	-0.807393	-0.037864	0.035864	0.252524	0.966926	-0.957427	0.286003	-0.039181	-0.286438	-0.924356	0.252030
19459	11.922446	-6.520605	4.302023	-3.117456	-0.531747	0.186623	0.032475	0.248182	0.968169	-0.948107	0.314193	-0.048739	-0.316288	-0.916345	0.245506
19460	11.754561	-11.204977	5.090486	-2.825784	-0.516328	0.340741	0.027499	0.244550	0.969247	-0.938910	0.339081	-0.058915	-0.343061	-0.908416	0.238935
19461	12.334999	-13.997371	4.589804	-2.052919	-0.598190	0.423847	0.021402	0.240608	0.970386	-0.931788	0.356602	-0.067870	-0.362372	-0.902742	0.231828
19462	11.575263	-12.881271	1.735890	-0.949919	-0.749597	0.249545	0.016271	0.234716	0.971928	-0.928369	0.364522	-0.072488	-0.371304	-0.901128	0.223834
19463	9.278209	-7.815096	-2.065190	0.597678	-1.127292	-0.284115	0.014715	0.223511	0.974590	-0.930545	0.359722	-0.068448	-0.365881	-0.905893	0.213280
19464	8.311977	-1.840141	-4.768848	1.969629	-1.475336	-0.761772	0.016507	0.207360	0.978125	-0.937472	0.343366	-0.056972	-0.347669	-0.916025	0.200062
19465	8.613767	2.178156	-5.404782	2.380239	-1.522661	-0.709907	0.018015	0.190964	0.981432	-0.945378	0.322792	-0.045455	-0.325478	-0.927005	0.186349
19466	8.291473	4.398339	-4.162638	2.006747	-1.374420	-0.366697	0.017092	0.176977	0.984067	-0.951673	0.304720	-0.038273	-0.306638	-0.935855	0.173632
19467	8.450252	6.269822	-1.573406	1.257398	-1.363835	-0.125507	0.014140	0.163785	0.986395	-0.955449	0.293078	-0.034968	-0.294817	-0.941955	0.160632
19468	10.371419	7.508685	-0.098865	0.370411	-1.412728	-0.082275	0.010729	0.150178	0.988601	-0.956539	0.289659	-0.033621	-0.291406	-0.945275	0.146759
19469	11.859088	6.189136	-0.459344	-0.603575	-1.350551	-0.090525	0.007582	0.137128	0.990524	-0.954767	0.295450	-0.033594	-0.297257	-0.945466	0.133165
19470	11.139196	2.985374	-1.094091	-1.388206	-1.256080	-0.070208	0.004376	0.125019	0.992145	-0.950560	0.308598	-0.034693	-0.310511	-0.942941	0.120189
19471	10.080687	0.287820	-0.729712	-1.739334	-1.168712	-0.061482	0.001201	0.113806	0.993502	-0.945027	0.324996	-0.036086	-0.326991	-0.938843	0.107940
19472	9.662391	-1.312788	-0.133166	-1.692838	-1.084388	-0.068137	-0.001847	0.103388	0.994639	-0.939373	0.340876	-0.037177	-0.342892	-0.934406	0.096490
19473	9.489913	-2.176910	0.248728	-1.389185	-1.064891	-0.094115	-0.004720	0.093108	0.995645	-0.934537	0.353883	-0.037524	-0.355836	-0.930644	0.085343
19474	9.568375	-1.936517	0.824563	-1.010545	-1.068298	-0.130328	-0.007415	0.082680	0.996549	-0.930919	0.363340	-0.037072	-0.365151	-0.927981	0.074274
19475	9.522907	-0.670859	1.537525	-0.705457	-1.061783	-0.164514	-0.009835	0.072212	0.997341	-0.928349	0.369967	-0.035942	-0.371579	-0.926234	0.063400
19476	9.652537	0.356052	1.846126	-0.539496	-1.055286	-0.198522	-0.012001	0.061673	0.998024	-0.926371	0.375046	-0.034315	-0.376421	-0.924953	0.052631
19477	9.820069	0.600800	1.849172	-0.481481	-1.044185	-0.213686	-0.014014	0.051197	0.998590	-0.924591	0.379578	-0.032436	-0.380704	-0.923742	0.042017
19478	9.542409	0.703575	1.548037	-0.452496	-1.018459	-0.182375	-0.016287	0.041067	0.999024	-0.922905	0.383792	-0.030822	-0.384683	-0.922506	0.031650
19479	9.542255	0.870328	1.376741	-0.481514	-0.976388	-0.138937	-0.018819	0.031514	0.999326	-0.921081	0.388244	-0.029589	-0.388915	-0.921018	0.021721
19480	9.761202	0.985571	1.294923	-0.622750	-0.925406	-0.091565	-0.021661	0.022612	0.999510	-0.918679	0.393952	-0.028822	-0.394410	-0.918853	0.012240
19481	10.037377	0.621771	0.943875	-0.828605	-0.866762	-0.070192	-0.024503	0.014367	0.999597	-0.915411	0.401530	-0.028211	-0.401774	-0.915733	0.003313
19482	9.935755	-0.539707	0.244131	-0.980228	-0.824607	-0.066805	-0.027303	0.006530	0.999606	-0.911466	0.410449	-0.027577	-0.410468	-0.911860	-0.005254
19483	9.690647	-1.539909	-0.207509	-0.929856	-0.808036	-0.092096	-0.029850	-0.001218	0.999554	-0.907652	0.418879	-0.026595	-0.418660	-0.908041	-0.013609
19484	9.296047	-1.934460	-0.670419	-0.739734	-0.802737	-0.110278	-0.032299	-0.008989	0.999438	-0.904585	0.425535	-0.025406	-0.425068	-0.904897	-0.021876
19485	9.249180	-1.860992	-0.748941	-0.524596	-0.838513	-0.119245	-0.034842	-0.017090	0.999247	-0.902399	0.430227	-0.024107	-0.429491	-0.902559	-0.030411
19486	9.758683	-1.734459	-0.537802	-0.341016	-0.811409	-0.103421	-0.037467	-0.024881	0.998988	-0.900987	0.433237	-0.023001	-0.432226	-0.900937	-0.038650
19487	9.738330	-1.580311	-0.847550	-0.143071	-0.804336	-0.099416	-0.040093	-0.032567	0.998665	-0.900422	0.434462	-0.021980	-0.433167	-0.900101	-0.046743
19488	9.798575	-0.925402	-1.191957	0.049089	-0.821593	-0.101956	-0.042792	-0.040433	0.998266	-0.900696	0.433941	-0.021033	-0.432338	-0.900034	-0.054987
19489	9.449178	-0.078960	-1.695105	0.189197	-0.825243	-0.080725	-0.045666	-0.048223	0.997792	-0.901563	0.432168	-0.020375	-0.430231	-0.900503	-0.063212
19490	9.686114	0.630880	-1.962106	0.212357	-0.819920	-0.041320	-0.048873	-0.055815	0.997244	-0.902513	0.430192	-0.020152	-0.427881	-0.901010	-0.071398
19491	9.773967	1.254631	-1.864371	0.127410	-0.794201	-0.003710	-0.052274	-0.063001	0.996644	-0.903074	0.429008	-0.020247	-0.426292	-0.901101	-0.079320
19492	9.942348	1.481235	-1.849936	0.002990	-0.777062	0.013386	-0.055767	-0.069972	0.995989	-0.903098	0.428948	-0.020430	-0.425798	-0.900615	-0.087113
19493	9.732841	1.350244	-1.983633	-0.103809	-0.777602	0.009138	-0.059204	-0.076948	0.995276	-0.902665	0.429857	-0.020461	-0.426252	-0.899612	-0.094908
19494	10.002868	0.999316	-1.707230	-0.223702	-0.765337	0.021976	-0.062732	-0.083761	0.994509	-0.901715	0.431845	-0.020507	-0.427756	-0.898050	-0.102619
19495	9.848963	0.692723	-1.605802	-0.315907	-0.735514	0.028473	-0.066184	-0.090253	0.993717	-0.900355	0.434673	-0.020487	-0.430093	-0.896055	-0.110028
19496	9.932129	0.082321	-1.701621	-0.399105	-0.725116	0.045065	-0.069780	-0.096573	0.992877	-0.898620	0.438247	-0.020530	-0.433142	-0.893652	-0.117363
19497	9.917069	-0.931361	-1.870417	-0.449242	-0.691790	0.069995	-0.073458	-0.102456	0.992022	-0.896631	0.442295	-0.020715	-0.436644	-0.890998	-0.124355
19498	9.749473	-2.078837	-2.107576	-0.402279	-0.670943	0.077265	-0.077152	-0.108110	0.991141	-0.894828	0.445916	-0.021016	-0.439694	-0.888522	-0.131143
19499	9.349525	-2.904111	-2.362791	-0.190526	-0.697137	0.051470	-0.080725	-0.114086	0.990186	-0.893963	0.447635	-0.021305	-0.440811	-0.886909	-0.138124
19500	9.205640	-3.016621	-2.066825	0.111167	-0.737123	0.030242	-0.084300	-0.120514	0.989126	-0.894445	0.446646	-0.021812	-0.439160	-0.886557	-0.145446
19501	9.073715	-2.210778	-1.839979	0.452788	-0.802190	-0.016161	-0.087707	-0.127720	0.987925	-0.896451	0.442578	-0.022369	-0.434376	-0.887588	-0.153311
19502	9.403015	-0.874606	-1.275135	0.699140	-0.888180	-0.066140	-0.091001	-0.135929	0.986530	-0.899539	0.436240	-0.022869	-0.427256	-0.889504	-0.161972
19503	9.831500	0.579795	-0.421006	0.785074	-0.908531	-0.070169	-0.094263	-0.144342	0.985028	-0.902942	0.429118	-0.023526	-0.419298	-0.891641	-0.170782
19504	9.860811	1.468694	0.184506	0.707930	-0.872554	-0.086315	-0.097170	-0.152525	0.983511	-0.905983	0.422635	-0.023967	-0.412010	-0.893373	-0.179252
19505	9.860903	1.483552	0.180108	0.596327	-0.871167	-0.084811	-0.100009	-0.160686	0.981926	-0.908518	0.417141	-0.024270	-0.405701	-0.894524	-0.187704
19506	10.461536	1.319087	0.283510	0.480901	-0.820711	-0.044940	-0.102968	-0.168245	0.980352	-0.910517	0.412727	-0.024802	-0.400445	-0.895182	-0.195688
19507	10.391809	0.943860	0.244840	0.358011	-0.721480	-0.018785	-0.105715	-0.174798	0.978913	-0.911975	0.409461	-0.025371	-0.396392	-0.895426	-0.202697
19508	10.383162	0.516401	0.437445	0.292098	-0.657516	0.013349	-0.108492	-0.180660	0.977544	-0.913128	0.406833	-0.026156	-0.392972	-0.895460	-0.209104
19509	10.519147	0.380274	0.345199	0.231645	-0.578936	0.053941	-0.111292	-0.185638	0.976295	-0.913987	0.404831	-0.027213	-0.390183	-0.895349	-0.214725
19510	10.649651	-0.185494	0.209629	0.164689	-0.485332	0.070725	-0.113887	-0.189726	0.975210	-0.914562	0.403454	-0.028313	-0.388080	-0.895114	-0.219465
19511	10.236600	-1.268395	-0.174408	0.176204	-0.420169	0.076210	-0.116250	-0.193191	0.974250	-0.915166	0.401997	-0.029485	-0.385949	-0.895029	-0.223534
19512	10.023852	-2.247441	-0.419013	0.303113	-0.401033	0.086179	-0.118640	-0.196465	0.973307	-0.916244	0.399416	-0.031061	-0.382651	-0.895471	-0.227396
19513	10.014561	-2.705655	-0.568996	0.542713	-0.416849	0.111918	-0.121290	-0.199763	0.972308	-0.918181	0.394748	-0.033436	-0.377137	-0.896810	-0.231298
19514	9.636380	-2.394464	-0.650557	0.866294	-0.465972	0.135840	-0.124336	-0.203447	0.971159	-0.921257	0.387207	-0.036832	-0.368546	-0.899267	-0.235570
19515	9.410611	-1.672985	-1.028340	1.141787	-0.548867	0.158941	-0.127836	-0.207789	0.969784	-0.925210	0.377220	-0.041136	-0.357274	-0.902512	-0.240471
19516	9.549771	-1.016654	-1.467769	1.294284	-0.618590	0.195025	-0.131874	-0.212689	0.968180	-0.929509	0.365891	-0.046228	-0.344416	-0.906028	-0.245948
19517	9.573023	-0.336207	-1.589924	1.299316	-0.639341	0.234468	-0.136260	-0.217653	0.966468	-0.933594	0.354574	-0.051773	-0.331416	-0.909343	-0.251513
19518	9.964979	0.102717	-1.191553	1.200508	-0.640313	0.256189	-0.140797	-0.222621	0.964684	-0.937154	0.344169	-0.057354	-0.319246	-0.912133	-0.257089
19519	10.557557	0.255113	-0.447074	1.084781	-0.593201	0.262206	-0.145158	-0.227154	0.962980	-0.940189	0.334824	-0.062742	-0.308177	-0.914491	-0.262170
19520	11.036509	0.196247	0.326582	0.956591	-0.548569	0.258506	-0.149312	-0.231354	0.961343	-0.942718	0.326625	-0.067815	-0.298309	-0.916401	-0.266871
19521	11.532090	0.028216	1.462082	0.886983	-0.474191	0.259693	-0.153193	-0.234868	0.959880	-0.944937	0.319067	-0.072737	-0.289183	-0.918168	-0.270815
19522	11.845256	-0.819599	2.380829	0.968824	-0.346257	0.270744	-0.156795	-0.237233	0.958716	-0.947279	0.310765	-0.078026	-0.279425	-0.920405	-0.273452
19523	12.408889	-1.854908	2.964077	1.215602	-0.203643	0.292959	-0.160165	-0.238213	0.957915	-0.950144	0.300227	-0.084205	-0.267534	-0.923644	-0.274422
19524	12.336606	-1.998626	3.204095	1.472409	-0.068556	0.325726	-0.163499	-0.237926	0.957423	-0.953457	0.287337	-0.091416	-0.253353	-0.927808	-0.273832
19525	11.848375	-2.197466	3.171436	1.639097	0.048289	0.350762	-0.166762	-0.236484	0.957218	-0.956906	0.272895	-0.099288	-0.237740	-0.932525	-0.271802
19526	11.697534	-2.757129	3.127041	1.719230	0.112592	0.379265	-0.170193	-0.234463	0.957111	-0.960218	0.257679	-0.107622	-0.221394	-0.937352	-0.268991
19527	11.860924	-3.744512	3.285916	1.735448	0.182234	0.448379	-0.174147	-0.231612	0.957094	-0.963149	0.242385	-0.116592	-0.204981	-0.942128	-0.265288
19528	11.932397	-4.461359	4.157532	1.741759	0.291045	0.564781	-0.179073	-0.227576	0.957153	-0.965581	0.227194	-0.126631	-0.188641	-0.946885	-0.260428
19529	12.170588	-4.821275	5.707386	1.761678	0.436318	0.715177	-0.185228	-0.221839	0.957329	-0.967460	0.212043	-0.138052	-0.172370	-0.951748	-0.253897
19530	12.734727	-4.629863	7.704369	1.895407	0.682268	0.883646	-0.192716	-0.213566	0.957732	-0.968895	0.195839	-0.151292	-0.155250	-0.957098	-0.244664
19531	14.771397	-3.927191	9.634874	2.177854	1.054605	0.968235	-0.200597	-0.201598	0.958707	-0.970165	0.176896	-0.165796	-0.136167	-0.963362	-0.231068
19532	16.533439	-3.222009	10.617744	2.569351	1.601674	0.966715	-0.208024	-0.184552	0.960555	-0.971406	0.153875	-0.180810	-0.114436	-0.970702	-0.211285
19533	15.991140	-1.791109	9.390093	2.801758	2.138641	1.013901	-0.215699	-0.162226	0.962890	-0.972145	0.128279	-0.196161	-0.091696	-0.978380	-0.185377
19534	14.192495	-0.379513	6.834813	2.502358	2.624122	1.143086	-0.224695	-0.135170	0.965009	-0.971684	0.105366	-0.211490	-0.073092	-0.985204	-0.155017
19535	12.640139	-0.330833	4.790862	1.834456	3.038959	1.242554	-0.234723	-0.103874	0.966496	-0.970069	0.088672	-0.226061	-0.062219	-0.990630	-0.121578
19536	11.167953	-0.325181	2.688307	1.139898	3.292599	1.228202	-0.244674	-0.070212	0.967060	-0.967808	0.078381	-0.239173	-0.059007	-0.994448	-0.087130
19537	11.046349	-0.763098	1.226167	0.602286	3.360207	1.140807	-0.253692	-0.035822	0.966621	-0.965327	0.072929	-0.250650	-0.061516	-0.996694	-0.053081
19538	12.249895	-1.132585	-0.009314	0.286100	3.283148	0.987117	-0.261143	-0.002424	0.965297	-0.962962	0.070217	-0.260335	-0.067149	-0.997529	-0.020671
19539	14.353072	-1.242606	-1.402190	0.187637	3.050505	0.691816	-0.265668	0.028553	0.963642	-0.961271	0.068191	-0.267035	-0.073336	-0.997264	0.009331
19540	17.990766	-0.417204	-2.581994	0.208530	2.737749	0.265175	-0.266183	0.055973	0.962296	-0.960716	0.065949	-0.269582	-0.078552	-0.996252	0.036219
19541	20.409066	1.458199	-3.012698	0.204481	2.447812	-0.213855	-0.262157	0.080269	0.961681	-0.961448	0.063995	-0.267435	-0.083010	-0.994717	0.060398
19542	20.881929	3.837091	-3.306401	0.105760	2.352927	-0.602495	-0.254393	0.103218	0.961577	-0.963088	0.063445	-0.261603	-0.088009	-0.992633	0.083268
19543	19.017077	6.069786	-4.510988	-0.127163	2.464617	-0.803110	-0.244386	0.127190	0.961300	-0.964979	0.065573	-0.253998	-0.095341	-0.989708	0.106711
19544	17.330902	6.478704	-5.258018	-0.451740	2.717400	-0.714219	-0.234799	0.153495	0.959848	-0.966230	0.070983	-0.247711	-0.106155	-0.985597	0.131644
19545	16.364403	4.726147	-5.486404	-0.883615	3.094790	-0.417883	-0.227214	0.183643	0.956373	-0.966197	0.080323	-0.244971	-0.121806	-0.979706	0.159185
19546	14.919961	2.040004	-4.756696	-1.357965	3.502387	-0.121858	-0.221453	0.217664	0.950569	-0.964671	0.093761	-0.246208	-0.142717	-0.971510	0.189210
19547	12.983885	-1.218632	-4.058973	-1.647076	3.670246	0.006576	-0.215812	0.253184	0.943039	-0.962122	0.109620	-0.249609	-0.166573	-0.961188	0.219936
19548	11.533605	-3.574406	-3.762038	-1.572937	3.519862	-0.046883	-0.209152	0.286722	0.934904	-0.959423	0.124720	-0.252887	-0.189109	-0.949861	0.249002
19549	11.127537	-5.802306	-3.643950	-1.222088	3.270784	-0.158097	-0.201124	0.317431	0.926708	-0.957339	0.136692	-0.254594	-0.207490	-0.938378	0.276396
19550	10.802694	-6.729404	-3.831768	-0.756399	3.109626	-0.291650	-0.191727	0.345984	0.918442	-0.956294	0.144655	-0.254121	-0.220779	-0.927022	0.303128
19551	9.755982	-6.289017	-3.600854	-0.367426	3.042671	-0.446781	-0.180579	0.373384	0.909932	-0.956312	0.149601	-0.251171	-0.229910	-0.915535	0.330056
19552	8.730853	-4.872229	-3.142617	-0.092644	2.912794	-0.558721	-0.168503	0.399003	0.901334	-0.957075	0.152541	-0.246451	-0.235825	-0.904173	0.356172
19553	8.099095	-2.967454	-2.682679	-0.000602	2.756804	-0.634488	-0.155854	0.422813	0.892714	-0.958117	0.155106	-0.240735	-0.240251	-0.892844	0.380931
19554	7.449289	-1.360553	-2.548196	-0.098180	2.643227	-0.678521	-0.142989	0.445157	0.883962	-0.958898	0.158859	-0.235111	-0.245087	-0.881248	0.404145
19555	6.735462	-0.344548	-2.384028	-0.243124	2.517450	-0.703372	-0.129993	0.466066	0.875148	-0.959271	0.164145	-0.229905	-0.250802	-0.869390	0.425745
19556	6.003572	0.198275	-1.985908	-0.401788	2.373567	-0.702610	-0.117275	0.485346	0.866421	-0.959125	0.170894	-0.225554	-0.257538	-0.857458	0.445466
19557	5.490920	0.354304	-1.711320	-0.600006	2.225404	-0.680567	-0.104921	0.503105	0.857833	-0.958327	0.179321	-0.222381	-0.265708	-0.845417	0.463324
19558	5.191669	0.216416	-1.556994	-0.821180	2.074098	-0.637246	-0.093261	0.519305	0.849485	-0.956745	0.189408	-0.220825	-0.275575	-0.833335	0.479178
19559	5.161446	-0.305302	-1.494441	-0.998096	1.921424	-0.590772	-0.082206	0.534046	0.841449	-0.954474	0.200733	-0.220648	-0.286743	-0.821280	0.493232
19560	5.200370	-0.603531	-1.656611	-1.020374	1.750288	-0.538170	-0.072017	0.547177	0.833913	-0.951918	0.211901	-0.221248	-0.297769	-0.809750	0.505607
19561	5.426552	-1.642765	-1.564201	-1.076626	1.621004	-0.594324	-0.061446	0.558911	0.826948	-0.949066	0.223801	-0.221781	-0.309027	-0.798456	0.516691
19562	5.794036	-1.603030	-1.586795	-0.933067	1.432496	-0.624021	-0.051093	0.568814	0.820878	-0.946502	0.234659	-0.221516	-0.318628	-0.788280	0.526394
19563	5.778883	-1.746046	-1.293686	-0.840511	1.306205	-0.723978	-0.040031	0.577301	0.815549	-0.944137	0.245350	-0.220019	-0.327112	-0.778798	0.535230
19564	5.272931	-1.509136	-0.953927	-0.755770	1.097158	-0.811576	-0.028806	0.583738	0.811431	-0.941931	0.255853	-0.217498	-0.334569	-0.770577	0.542470
19565	4.896827	-1.668382	-0.853326	-0.655378	0.889477	-0.853830	-0.017771	0.588320	0.808433	-0.939936	0.265841	-0.214123	-0.340887	-0.763680	0.548259
19566	4.401929	-2.065365	-0.748716	-0.538207	0.680976	-0.871521	-0.007307	0.591118	0.806552	-0.938213	0.275013	-0.210056	-0.345980	-0.758253	0.552585
19567	4.089467	-2.346095	-0.592538	-0.382022	0.472598	-0.862498	0.002416	0.592270	0.805736	-0.936926	0.282962	-0.205187	-0.349519	-0.754420	0.555597
19568	3.833971	-2.318245	-0.364829	-0.197297	0.252570	-0.825111	0.010970	0.591785	0.806021	-0.936197	0.289271	-0.199643	-0.351304	-0.752404	0.557201
19569	3.946688	-2.045140	0.010263	-0.056109	0.039130	-0.806214	0.018643	0.589709	0.807401	-0.935901	0.294411	-0.193422	-0.351770	-0.752041	0.557397
19570	3.927491	-1.888834	-0.015775	0.009619	-0.120660	-0.814281	0.025780	0.586358	0.809642	-0.935772	0.299065	-0.186792	-0.351662	-0.752824	0.556407
19571	3.844642	-1.692305	0.030052	0.025972	-0.267370	-0.848072	0.032761	0.581767	0.812696	-0.935635	0.303777	-0.179741	-0.351446	-0.754498	0.554273
19572	3.944813	-1.068909	0.417452	0.077298	-0.449082	-0.865132	0.039220	0.575699	0.816721	-0.935614	0.308137	-0.172274	-0.350840	-0.757378	0.550717
19573	4.519928	-0.723302	0.981496	0.160061	-0.641857	-0.877384	0.045165	0.568082	0.821732	-0.935824	0.311894	-0.164183	-0.349563	-0.761581	0.545711
19574	5.198571	-0.591869	1.239645	0.191981	-0.781266	-0.884276	0.050657	0.559313	0.827407	-0.936089	0.315350	-0.155859	-0.348097	-0.766632	0.539541
19575	5.215343	-0.698352	1.174352	0.214666	-0.909700	-0.872932	0.055653	0.549521	0.833624	-0.936390	0.318492	-0.147435	-0.346521	-0.772392	0.532291
19576	5.285938	-1.391321	1.059035	0.292604	-1.092043	-0.854550	0.059827	0.538290	0.840633	-0.936927	0.320808	-0.138747	-0.344368	-0.779311	0.523532
19577	5.845935	-2.393440	1.453462	0.504341	-1.312932	-0.847287	0.063256	0.525254	0.848591	-0.938151	0.321317	-0.128954	-0.340400	-0.787949	0.513093
19578	6.457426	-3.106910	1.746553	0.820547	-1.549461	-0.871130	0.066158	0.510144	0.857541	-0.940372	0.319256	-0.117374	-0.333653	-0.798642	0.500847
19579	7.066582	-3.846163	2.013325	1.105434	-1.787479	-0.927920	0.068995	0.492784	0.867412	-0.943400	0.314965	-0.103895	-0.324402	-0.811148	0.486623
19580	7.754329	-4.378018	2.236823	1.290848	-2.030257	-0.957862	0.071514	0.473156	0.878071	-0.946863	0.308970	-0.089374	-0.313585	-0.825022	0.470110
19581	8.929983	-4.394720	2.800996	1.320155	-2.317839	-0.940572	0.073267	0.450954	0.889535	-0.950267	0.302278	-0.074972	-0.302695	-0.839803	0.450674
19582	10.505180	-4.159661	3.719455	1.301357	-2.565087	-0.895649	0.074106	0.426509	0.901442	-0.953496	0.295118	-0.061247	-0.292155	-0.854982	0.428545
19583	12.225157	-3.843145	5.352984	1.345858	-2.627315	-0.855795	0.074715	0.401324	0.912884	-0.956733	0.287003	-0.047869	-0.281211	-0.869809	0.405403
19584	13.208980	-3.537434	6.678480	1.578685	-2.485421	-0.817376	0.075671	0.377192	0.923038	-0.960470	0.276281	-0.034160	-0.267903	-0.883965	0.383188
19585	13.146359	-2.250487	7.448419	1.814185	-2.223143	-0.794458	0.077502	0.355216	0.931566	-0.964593	0.262982	-0.020029	-0.252100	-0.897029	0.363020
19586	12.649353	0.585583	7.982823	1.975594	-1.928559	-0.799250	0.080482	0.335724	0.938516	-0.968783	0.247846	-0.005582	-0.234481	-0.908769	0.345191
19587	11.497371	3.681174	9.097551	2.007769	-1.800074	-0.848182	0.084622	0.317197	0.944577	-0.972623	0.232209	0.009157	-0.216435	-0.919491	0.328163
19588	12.589154	5.830694	10.595739	1.802906	-1.822016	-0.795246	0.088519	0.298527	0.950287	-0.975706	0.217933	0.022424	-0.200405	-0.929186	0.310565
19589	13.491352	7.430710	9.843014	1.102811	-1.762983	-0.498950	0.089915	0.280982	0.955492	-0.977430	0.209044	0.030506	-0.191168	-0.936670	0.293436
19590	13.486465	6.326562	7.677015	0.032802	-1.767707	-0.050276	0.086964	0.264236	0.960529	-0.977462	0.208815	0.031053	-0.192368	-0.941581	0.276440
19591	15.273548	2.478112	7.794603	-1.087730	-1.565330	0.349141	0.080436	0.250200	0.964847	-0.975606	0.218129	0.024769	-0.204264	-0.943303	0.261642
19592	15.751088	-1.241604	9.755882	-2.248680	-1.077325	0.523537	0.072964	0.241205	0.967727	-0.971173	0.237971	0.013909	-0.226936	-0.940845	0.251615
19593	13.927302	-4.192915	11.395402	-3.358334	-0.557574	0.547371	0.066297	0.237344	0.969161	-0.963390	0.268102	0.000245	-0.259776	-0.933697	0.246429
19594	9.781062	-7.807373	9.650633	-3.668610	-0.424038	0.525036	0.060031	0.234862	0.970173	-0.953558	0.300892	-0.013837	-0.295167	-0.924286	0.242017
19595	7.690479	-11.174706	5.676604	-2.648508	-0.741029	0.346646	0.054434	0.229116	0.971876	-0.945613	0.324441	-0.023522	-0.320706	-0.917738	0.234316
19596	7.553224	-12.628323	1.689324	-1.018630	-0.973970	0.067355	0.050568	0.220371	0.974104	-0.942349	0.333578	-0.026546	-0.330789	-0.916604	0.224535
19597	6.844524	-10.828791	-0.632845	0.331140	-1.087172	-0.076640	0.047668	0.210137	0.976509	-0.943418	0.330654	-0.025102	-0.328162	-0.920060	0.214009
19598	7.705294	-7.647930	-0.268256	1.200135	-1.189735	-0.127679	0.044977	0.198704	0.979027	-0.947250	0.319781	-0.021385	-0.317323	-0.926422	0.202605
19599	10.004251	-2.744942	0.631433	1.767847	-1.244557	-0.118168	0.042197	0.186761	0.981499	-0.952681	0.303507	-0.016793	-0.301028	-0.934347	0.190731
19600	12.417409	3.441814	0.865667	1.918389	-1.245688	-0.154350	0.039977	0.174581	0.983831	-0.958238	0.285731	-0.011766	-0.283165	-0.942273	0.178713
19601	13.359735	8.938021	1.003676	1.418074	-1.144610	-0.247761	0.039137	0.163071	0.985838	-0.962076	0.272693	-0.006913	-0.269958	-0.948181	0.167559
19602	12.618952	11.117393	0.241245	0.422098	-1.054235	-0.334657	0.039476	0.152116	0.987574	-0.963091	0.269159	-0.002961	-0.266265	-0.951007	0.157127
19603	10.999486	8.059528	-0.616203	-0.721238	-0.886516	-0.266055	0.039605	0.142956	0.988936	-0.961052	0.276363	-0.001462	-0.273514	-0.950362	0.148333
19604	9.448779	3.077674	-1.703354	-1.425025	-0.761959	-0.088814	0.038263	0.135437	0.990047	-0.957036	0.289956	-0.002678	-0.287433	-0.947408	0.140713
19605	9.225081	-0.641798	-2.671452	-1.461843	-0.722397	0.030206	0.035814	0.128684	0.991039	-0.952754	0.303700	-0.005004	-0.301623	-0.944037	0.133481
19606	10.215512	-2.388005	-2.963545	-1.147593	-0.695186	0.023142	0.033402	0.122166	0.991947	-0.949254	0.314438	-0.006762	-0.312732	-0.941384	0.126469
19607	9.402382	-2.202585	-3.189140	-0.711782	-0.793816	-0.070018	0.031518	0.114461	0.992928	-0.946994	0.321175	-0.006964	-0.319700	-0.940077	0.118517
19608	9.519171	-1.618049	-3.383963	-0.428943	-0.921008	-0.112511	0.029560	0.105406	0.993990	-0.945596	0.325279	-0.006373	-0.323996	-0.939725	0.109287
19609	9.618091	-1.405978	-3.271480	-0.293489	-0.985836	-0.095321	0.027209	0.095811	0.995028	-0.944629	0.328090	-0.005761	-0.327010	-0.939775	0.099433
19610	9.401776	-1.122751	-3.006912	-0.142266	-1.048274	-0.070342	0.024379	0.085691	0.996023	-0.944162	0.329441	-0.005233	-0.328579	-0.940280	0.088938
19611	9.307913	-0.536122	-2.557912	0.033355	-1.110550	-0.068280	0.021329	0.074994	0.996956	-0.944271	0.329137	-0.004557	-0.328477	-0.941299	0.077835
19612	9.734651	0.335821	-1.493034	0.114088	-1.130465	-0.076370	0.018284	0.064060	0.997779	-0.944647	0.328067	-0.003753	-0.327578	-0.942480	0.066513
19613	10.015827	1.316366	-0.798967	0.049612	-1.118852	-0.079210	0.015320	0.053223	0.998465	-0.944812	0.327601	-0.002966	-0.327256	-0.943316	0.055305
19614	10.310177	1.586297	-0.209462	-0.118772	-1.082144	-0.078917	0.012459	0.042720	0.999009	-0.944428	0.328711	-0.002278	-0.328483	-0.943464	0.044442
19615	9.707195	1.147909	0.202065	-0.316269	-1.041008	-0.070557	0.009643	0.032639	0.999421	-0.943391	0.331677	-0.001730	-0.331542	-0.942828	0.033990
19616	9.683163	0.346553	0.199128	-0.465746	-1.016300	-0.065642	0.006811	0.022810	0.999717	-0.941848	0.336037	-0.001250	-0.335970	-0.941573	0.023772
19617	9.448534	-0.584073	0.052598	-0.507280	-0.965116	-0.075053	0.004205	0.013446	0.999901	-0.940142	0.340781	-0.000628	-0.340756	-0.940046	0.014074
19618	9.596829	-1.429303	0.429228	-0.485180	-0.894948	-0.076279	0.001793	0.004744	0.999987	-0.938493	0.345299	0.000045	-0.345294	-0.938481	0.005071
19619	9.587096	-2.692959	0.570883	-0.406695	-0.812430	-0.076749	-0.000356	-0.003170	0.999995	-0.937096	0.349072	0.000773	-0.349073	-0.937090	-0.003095
19620	9.251231	-4.214334	-0.117830	-0.171832	-0.793388	-0.087015	-0.002375	-0.010941	0.999937	-0.936513	0.350630	0.001612	-0.350626	-0.936450	-0.011079
19621	9.238893	-4.749898	-0.523074	0.296710	-0.806418	-0.099516	-0.004312	-0.018870	0.999813	-0.937568	0.347793	0.002521	-0.347775	-0.937381	-0.019192
19622	9.068070	-3.595667	-1.020578	0.833386	-0.843274	-0.103684	-0.006296	-0.027177	0.999611	-0.940455	0.339901	0.003317	-0.339859	-0.940069	-0.027699
19623	9.377337	-1.364914	-1.237799	1.221242	-0.882665	-0.093948	-0.008418	-0.035832	0.999322	-0.944558	0.328322	0.003815	-0.328237	-0.943886	-0.036609
19624	9.813090	1.460043	-1.097301	1.350367	-0.891899	-0.058310	-0.010794	-0.044491	0.998951	-0.948924	0.315481	0.003797	-0.315319	-0.947888	-0.045624
19625	10.452988	3.463050	-0.761072	1.148836	-0.873093	-0.008165	-0.013479	-0.052835	0.998512	-0.952499	0.304525	0.003256	-0.304244	-0.951038	-0.054430
19626	10.351474	4.125633	-0.247594	0.754410	-0.854994	0.015910	-0.016258	-0.060963	0.998008	-0.954778	0.297308	0.002607	-0.296875	-0.952833	-0.063040
19627	9.922570	3.707742	-0.389912	0.381494	-0.857012	0.007718	-0.018912	-0.069140	0.997428	-0.955915	0.293635	0.002230	-0.293034	-0.953414	-0.071645
19628	9.737733	2.795589	-0.299652	0.066682	-0.816067	0.008995	-0.021442	-0.076929	0.996806	-0.956122	0.292963	0.002042	-0.292184	-0.953024	-0.079836
19629	10.040950	1.622220	0.329897	-0.148284	-0.733753	0.027784	-0.023904	-0.083869	0.996190	-0.955693	0.294359	0.001850	-0.293392	-0.952008	-0.087190
19630	10.023599	0.815421	0.768205	-0.216607	-0.658168	0.027928	-0.026165	-0.090085	0.995590	-0.955062	0.296401	0.001720	-0.295249	-0.950806	-0.093792
19631	9.699014	0.040768	0.674374	-0.211671	-0.623615	0.006107	-0.028116	-0.096023	0.994982	-0.954445	0.298381	0.001825	-0.297059	-0.949604	-0.100038
19632	9.829553	-0.811622	0.806639	-0.161873	-0.571808	-0.012352	-0.029758	-0.101524	0.994388	-0.953980	0.299863	0.002067	-0.298390	-0.948565	-0.105775
19633	9.289891	-1.259230	0.793063	-0.019158	-0.534260	-0.031894	-0.031094	-0.106713	0.993804	-0.953944	0.299974	0.002364	-0.298368	-0.947960	-0.111126
19634	9.334508	-1.577943	0.672592	0.227601	-0.537515	-0.055144	-0.032221	-0.112010	0.993185	-0.954651	0.297715	0.002605	-0.295977	-0.948061	-0.116523
19635	10.094876	-1.752241	0.477362	0.472563	-0.514040	-0.047090	-0.033328	-0.117050	0.992567	-0.956066	0.293142	0.002467	-0.291252	-0.948877	-0.121677
19636	9.755909	-1.557520	-0.721979	0.718103	-0.546909	-0.048250	-0.034496	-0.122420	0.991879	-0.958161	0.286224	0.002003	-0.284145	-0.950310	-0.127171
19637	9.079691	-0.913171	-1.582908	0.946671	-0.666587	-0.037420	-0.036049	-0.128890	0.991004	-0.960830	0.277135	0.001093	-0.274782	-0.952147	-0.133831
19638	8.931929	0.002877	-1.999753	1.072500	-0.772717	0.031779	-0.038492	-0.136206	0.989933	-0.963720	0.266914	-0.000748	-0.264125	-0.954047	-0.141538
19639	9.030166	0.984485	-2.000200	1.054662	-0.851422	0.138060	-0.042077	-0.143999	0.988683	-0.966404	0.257000	-0.003698	-0.253559	-0.955623	-0.149975
19640	9.297122	1.714882	-1.436141	0.899895	-0.893349	0.221559	-0.046500	-0.152019	0.987283	-0.968557	0.248683	-0.007326	-0.244407	-0.956581	-0.158803
19641	9.694944	2.102908	-0.702509	0.673474	-0.894587	0.264689	-0.051267	-0.159955	0.985792	-0.970059	0.242617	-0.011082	-0.237397	-0.956845	-0.167604
19642	9.703342	1.851100	-0.167020	0.449030	-0.854802	0.235413	-0.055615	-0.167605	0.984284	-0.970997	0.238667	-0.014223	-0.232532	-0.956528	-0.176018
19643	9.801900	1.233411	0.135558	0.296474	-0.810772	0.176007	-0.059239	-0.174967	0.982791	-0.971588	0.236100	-0.016531	-0.229144	-0.955847	-0.183982
19644	9.648513	0.929768	0.140316	0.178607	-0.773890	0.131368	-0.062334	-0.182090	0.981304	-0.971924	0.234589	-0.018208	-0.226888	-0.954888	-0.191601
19645	9.683712	0.656767	0.279355	0.111811	-0.739715	0.110077	-0.065117	-0.188916	0.979832	-0.972114	0.233694	-0.019547	-0.225288	-0.953781	-0.198866
19646	9.721103	0.139270	0.141665	0.083560	-0.688667	0.112055	-0.067807	-0.195259	0.978405	-0.972235	0.233075	-0.020865	-0.223967	-0.952654	-0.205641
19647	9.732718	-0.810684	-0.015342	0.116319	-0.637360	0.114224	-0.070380	-0.201083	0.977043	-0.972422	0.232163	-0.022266	-0.222356	-0.951665	-0.211877
19648	9.952018	-1.642253	-0.093395	0.278409	-0.611433	0.100922	-0.072765	-0.206706	0.975693	-0.972972	0.229682	-0.023902	-0.219159	-0.951062	-0.217832
19649	10.482388	-1.713279	0.201247	0.517005	-0.602473	0.081335	-0.074900	-0.212270	0.974336	-0.974037	0.224905	-0.025879	-0.213640	-0.950978	-0.223604
19650	11.116588	-1.247542	0.558312	0.741095	-0.595982	0.091989	-0.077100	-0.217775	0.972949	-0.975529	0.218017	-0.028506	-0.205911	-0.951337	-0.229255
19651	10.669520	-0.294852	0.460748	0.929232	-0.623078	0.141961	-0.079780	-0.223416	0.971453	-0.977291	0.209456	-0.032088	-0.196308	-0.951952	-0.235053
19652	10.932171	-0.075328	0.725832	1.019270	-0.695262	0.275168	-0.083852	-0.229513	0.969687	-0.979019	0.200337	-0.037242	-0.185717	-0.952465	-0.241496
19653	10.714937	-0.785360	1.014879	1.038839	-0.709749	0.449500	-0.089574	-0.235406	0.967761	-0.980506	0.191455	-0.044183	-0.174882	-0.952853	-0.247966
19654	10.184470	-1.402495	1.202659	1.074056	-0.717953	0.566322	-0.096397	-0.241230	0.965668	-0.981802	0.182532	-0.052410	-0.163623	-0.953147	-0.254436
19655	9.963980	-1.439205	1.797529	1.109128	-0.736316	0.619984	-0.103688	-0.247153	0.963413	-0.982935	0.173443	-0.061294	-0.151949	-0.953327	-0.260919
19656	10.450483	-1.107648	2.913058	1.101516	-0.688821	0.648349	-0.111120	-0.252667	0.961151	-0.983850	0.164526	-0.070494	-0.140323	-0.953462	-0.266869
19657	11.532286	-1.213329	4.161750	1.071661	-0.590083	0.639792	-0.118249	-0.257270	0.959077	-0.984562	0.155908	-0.079569	-0.129057	-0.953680	-0.271734
19658	13.046288	-1.904671	5.348471	1.082045	-0.411055	0.562466	-0.124345	-0.260382	0.957465	-0.985216	0.147005	-0.087971	-0.117846	-0.954249	-0.274812
19659	13.164457	-2.925911	6.098537	1.168538	-0.117019	0.548956	-0.129922	-0.260711	0.956635	-0.985827	0.137245	-0.096483	-0.106140	-0.955612	-0.274847
19660	13.187767	-4.240758	6.904497	1.275643	0.243423	0.595192	-0.135595	-0.257641	0.956679	-0.986311	0.126547	-0.105715	-0.093829	-0.957918	-0.271273
19661	13.003612	-5.249877	7.313202	1.417523	0.577273	0.661997	-0.141658	-0.251281	0.957492	-0.986629	0.114595	-0.115895	-0.080602	-0.961106	-0.264155
19662	13.265034	-6.028609	7.868565	1.609197	0.859444	0.741021	-0.148387	-0.242251	0.958799	-0.986730	0.100890	-0.127219	-0.065914	-0.964954	-0.254007
19663	13.853225	-6.439190	8.692095	1.810348	1.164013	0.853337	-0.156171	-0.230162	0.960540	-0.986475	0.085354	-0.139935	-0.049778	-0.969402	-0.240379
19664	14.255646	-6.347838	9.328572	2.040349	1.541883	0.967748	-0.165129	-0.214482	0.962668	-0.985750	0.067637	-0.154018	-0.032077	-0.974383	-0.222595
19665	13.829204	-5.501717	8.936676	2.235365	1.949497	1.130212	-0.175861	-0.194728	0.964963	-0.984325	0.048057	-0.169692	-0.013329	-0.979679	-0.200127
19666	13.466663	-4.478831	8.073004	2.246488	2.316678	1.324303	-0.188824	-0.171514	0.966917	-0.982000	0.028374	-0.186736	0.004592	-0.984773	-0.173784
19667	13.699545	-3.844942	7.081520	2.062206	2.674526	1.472578	-0.203629	-0.144761	0.968287	-0.978852	0.010284	-0.204313	0.019618	-0.989413	-0.143793
19668	12.428783	-2.615323	4.392716	2.028074	2.906027	1.493723	-0.219035	-0.115983	0.968799	-0.975147	-0.007918	-0.221418	0.033352	-0.993220	-0.111366
19669	11.475144	-0.983809	1.499070	2.175710	2.930789	1.395983	-0.233854	-0.087010	0.968371	-0.971089	-0.028211	-0.237046	0.047945	-0.995808	-0.077897
19670	12.532418	-0.110974	-0.488714	2.294375	2.838795	1.239905	-0.247490	-0.059261	0.967077	-0.966814	-0.050214	-0.250499	0.063406	-0.996979	-0.044867
19671	14.915761	0.921725	-2.171542	2.268572	2.687764	0.982771	-0.258916	-0.032992	0.965336	-0.962701	-0.072453	-0.260685	0.078543	-0.996826	-0.013002
19672	18.105372	2.195071	-3.654418	1.915959	2.498255	0.552438	-0.266374	-0.008608	0.963831	-0.959616	-0.091477	-0.266026	0.090458	-0.995770	0.016106
19673	21.556592	3.417067	-5.052299	1.383762	2.340671	-0.061098	-0.268014	0.014813	0.963301	-0.958466	-0.105318	-0.265049	0.097527	-0.994328	0.042425
19674	22.615247	5.332395	-6.197979	0.912405	2.319458	-0.616869	-0.264428	0.038480	0.963637	-0.959190	-0.114269	-0.258645	0.100161	-0.992704	0.067125
19675	20.100353	7.992488	-7.114724	0.503409	2.404973	-0.906124	-0.258129	0.063452	0.964025	-0.961050	-0.118865	-0.249509	0.098757	-0.990881	0.091663
19676	17.401803	9.745174	-7.283204	-0.062500	2.528561	-0.883025	-0.252078	0.089472	0.963562	-0.963346	-0.117623	-0.241099	0.091766	-0.989019	0.115843
19677	15.747664	8.384535	-5.987966	-0.867896	2.703650	-0.680206	-0.247781	0.117011	0.961724	-0.965777	-0.108399	-0.235637	0.076678	-0.987197	0.139866
19678	15.267998	4.951308	-3.850290	-1.633996	3.011035	-0.449580	-0.245433	0.147098	0.958188	-0.967936	-0.091746	-0.233845	0.053512	-0.984858	0.164899
19679	15.103159	1.598015	-3.144412	-2.308332	3.354058	-0.353122	-0.243268	0.180404	0.953035	-0.969687	-0.068520	-0.234548	0.022989	-0.981203	0.191604
19680	13.893518	-1.442209	-3.413014	-2.750832	3.502794	-0.386405	-0.239751	0.214843	0.946764	-0.970759	-0.040892	-0.236548	-0.012106	-0.975792	0.218364
19681	12.953790	-3.955572	-4.112572	-2.783147	3.391604	-0.484231	-0.234014	0.247992	0.940073	-0.971091	-0.012754	-0.238370	-0.047124	-0.968678	0.243808
19682	12.482881	-5.974108	-4.740872	-2.420470	3.227508	-0.517971	-0.227010	0.279076	0.933051	-0.970763	0.011900	-0.239744	-0.078010	-0.960195	0.268215
19683	11.606531	-6.492343	-4.913572	-1.904436	3.166502	-0.547471	-0.218797	0.309241	0.925472	-0.970265	0.031659	-0.239966	-0.103506	-0.950457	0.293118
19684	9.936083	-6.603227	-4.821415	-1.429483	3.110672	-0.594428	-0.209540	0.338363	0.917390	-0.969908	0.047036	-0.238884	-0.123979	-0.939840	0.318325
19685	8.663992	-5.989547	-4.453447	-1.020569	2.984374	-0.650211	-0.199279	0.365923	0.909059	-0.969901	0.058812	-0.236290	-0.139928	-0.928785	0.343189
19686	7.908227	-4.977592	-4.190581	-0.769868	2.828413	-0.699985	-0.188398	0.391546	0.900665	-0.970130	0.068510	-0.232712	-0.152822	-0.917604	0.366944
19687	7.075664	-3.676193	-3.835038	-0.565967	2.609973	-0.702633	-0.177450	0.414854	0.892416	-0.970531	0.076455	-0.228524	-0.163034	-0.906670	0.389062
19688	6.505819	-2.401737	-3.384792	-0.465709	2.385907	-0.688746	-0.166823	0.435768	0.884464	-0.970939	0.083520	-0.224283	-0.171606	-0.896175	0.409171
19689	6.064660	-1.718514	-2.910384	-0.486183	2.208168	-0.687270	-0.156266	0.454847	0.876752	-0.971205	0.090862	-0.220238	-0.179839	-0.885922	0.427551
19690	5.537258	-1.531247	-2.388799	-0.611157	2.073064	-0.704634	-0.145652	0.472396	0.869268	-0.971145	0.099450	-0.216767	-0.188848	-0.875758	0.444280
19691	4.859462	-1.588723	-1.915164	-0.796195	1.952922	-0.696859	-0.135097	0.488667	0.861947	-0.970589	0.109680	-0.214307	-0.199263	-0.865549	0.459477
19692	4.476658	-1.593909	-1.862764	-0.955240	1.778605	-0.661385	-0.125087	0.503171	0.855086	-0.969495	0.121118	-0.213095	-0.210789	-0.855657	0.472672
19693	4.148242	-2.193428	-1.833171	-1.074691	1.603881	-0.642724	-0.115386	0.515992	0.848786	-0.967949	0.133487	-0.212734	-0.223071	-0.846128	0.484052
19694	4.171488	-2.124119	-1.915131	-1.034209	1.362947	-0.609684	-0.106425	0.526579	0.843438	-0.966265	0.145308	-0.212643	-0.234532	-0.837615	0.493351
19695	4.241952	-2.292683	-1.696308	-1.024301	1.160620	-0.644186	-0.097429	0.535270	0.839043	-0.964477	0.157218	-0.212291	-0.245546	-0.829921	0.500938
19696	4.339348	-2.141270	-1.565859	-0.958143	0.903163	-0.685886	-0.088611	0.541583	0.835964	-0.962722	0.168768	-0.211385	-0.255567	-0.823532	0.506439
19697	4.529430	-2.300757	-1.550383	-0.840359	0.718127	-0.695841	-0.080065	0.546251	0.833786	-0.961139	0.179400	-0.209827	-0.264199	-0.818184	0.510660
19698	4.681331	-2.392588	-1.262751	-0.696805	0.568392	-0.670352	-0.072160	0.549621	0.832292	-0.959794	0.188695	-0.207824	-0.271274	-0.813825	0.513907
19699	4.467764	-2.529024	-0.646716	-0.543741	0.432436	-0.637344	-0.064880	0.551887	0.831391	-0.958755	0.196569	-0.205303	-0.276730	-0.810421	0.516371
19700	3.900103	-2.526729	-0.423892	-0.355586	0.261045	-0.616796	-0.058297	0.552735	0.831316	-0.958156	0.202790	-0.202025	-0.280249	-0.808307	0.517784
19701	3.109643	-2.321029	-0.636421	-0.156917	0.044158	-0.586769	-0.052574	0.551867	0.832273	-0.958055	0.207245	-0.197940	-0.281722	-0.807770	0.517824
19702	2.426757	-2.701822	-1.020027	0.011752	-0.190553	-0.580554	-0.047603	0.549082	0.834412	-0.958390	0.210283	-0.193052	-0.281464	-0.808882	0.516225
19703	1.917359	-3.004271	-0.972824	0.222649	-0.410749	-0.597149	-0.043056	0.544471	0.837674	-0.959299	0.211690	-0.186901	-0.279089	-0.811627	0.513196
19704	1.954415	-3.371228	-0.683149	0.514340	-0.671954	-0.604647	-0.039164	0.537691	0.842232	-0.960982	0.210711	-0.179206	-0.273826	-0.816388	0.508459
19705	2.616152	-3.627266	0.017140	0.898887	-0.975942	-0.652544	-0.035544	0.528301	0.848313	-0.963660	0.206764	-0.169142	-0.264758	-0.823497	0.501753
19706	3.666913	-3.722304	0.723237	1.333231	-1.293291	-0.740018	-0.031792	0.516052	0.855967	-0.967361	0.199522	-0.156218	-0.251401	-0.832996	0.492865
19707	4.463981	-3.209690	0.841995	1.805519	-1.599702	-0.878639	-0.027185	0.500898	0.865079	-0.972008	0.188787	-0.139857	-0.233369	-0.844666	0.481745
19708	5.067106	-2.628990	0.766592	2.167018	-1.934325	-1.004022	-0.021758	0.482564	0.875590	-0.977087	0.175210	-0.120844	-0.211727	-0.858157	0.467695
19709	7.025983	-2.357567	2.370317	2.286057	-2.290997	-1.089609	-0.015712	0.460873	0.887327	-0.981880	0.160504	-0.100752	-0.188854	-0.872831	0.450000
19710	10.065732	-2.009467	5.022184	2.288985	-2.504967	-1.170241	-0.008693	0.436991	0.899424	-0.986092	0.145546	-0.080245	-0.165974	-0.887612	0.429648
19711	13.174090	-0.912228	6.995367	2.443591	-2.531702	-1.265293	-0.000124	0.412566	0.910928	-0.989914	0.128998	-0.058559	-0.141668	-0.901748	0.408389
19712	15.629291	1.484375	8.435201	2.538849	-2.318518	-1.293170	0.009656	0.389919	0.920799	-0.993137	0.111072	-0.036619	-0.116554	-0.914126	0.388315
19713	17.652371	4.292954	11.088375	2.259546	-1.944904	-1.223164	0.019734	0.370747	0.928524	-0.995346	0.094902	-0.016739	-0.094325	-0.923872	0.370894
19714	17.593891	6.499405	13.526089	1.453462	-1.541972	-1.110286	0.029398	0.355402	0.934251	-0.996347	0.085393	-0.001133	-0.080181	-0.930805	0.356614
19715	15.492113	6.862708	14.429349	0.331524	-1.157797	-0.813599	0.036570	0.343874	0.938303	-0.996344	0.085093	0.007647	-0.077214	-0.935152	0.345729
19716	12.053442	4.466742	15.171820	-0.606175	-0.813234	-0.257394	0.038433	0.335988	0.941082	-0.995766	0.091583	0.007969	-0.083510	-0.937403	0.338085
19717	7.023805	1.712835	11.988994	-1.219838	-0.753872	0.337703	0.034383	0.329223	0.943626	-0.994799	0.101857	0.000711	-0.095881	-0.938742	0.331013
19718	5.326886	-0.401133	4.999851	-1.649650	-1.177527	0.654350	0.026603	0.318823	0.947441	-0.993285	0.115181	-0.010870	-0.112592	-0.940790	0.319746
19719	9.243576	-3.097643	-2.110516	-1.919787	-1.558852	0.558965	0.019138	0.304817	0.952219	-0.991071	0.131479	-0.022169	-0.131954	-0.943292	0.304612
19720	14.586244	-5.998668	-3.767275	-2.185638	-1.460379	0.253292	0.014495	0.291346	0.956508	-0.987999	0.151297	-0.031112	-0.153781	-0.944577	0.290043
19721	14.614992	-6.329898	3.175070	-2.589153	-0.828128	0.021777	0.012877	0.283551	0.958871	-0.983696	0.175620	-0.038723	-0.179377	-0.942739	0.281189
19722	7.908145	-4.803906	8.768099	-2.312923	-0.531005	-0.159109	0.013374	0.278214	0.960426	-0.979273	0.197783	-0.043657	-0.202102	-0.939936	0.275093
19723	5.276693	-3.777751	5.703020	-1.467271	-1.028420	-0.301700	0.014138	0.267921	0.963337	-0.976170	0.212346	-0.044731	-0.216546	-0.939749	0.264538
19724	9.783757	-6.669647	0.014404	-1.180770	-1.320699	-0.198748	0.013085	0.255030	0.966845	-0.973529	0.223911	-0.045887	-0.228189	-0.940651	0.251209
19725	11.525463	-9.581289	-0.362753	-0.905557	-1.294046	-0.023793	0.010264	0.242791	0.970024	-0.971430	0.232441	-0.047900	-0.237103	-0.941819	0.238240
19726	12.542339	-9.148091	1.184144	-0.144580	-1.358022	0.109546	0.005916	0.230197	0.973126	-0.971107	0.233489	-0.049330	-0.238570	-0.944718	0.224927
19727	12.265943	-5.768823	1.949640	0.535862	-1.318590	0.052997	0.002232	0.217829	0.975984	-0.972385	0.228240	-0.048717	-0.233370	-0.948924	0.212323
19728	11.551758	-0.885369	2.180456	0.845291	-1.280601	-0.157551	0.000776	0.205254	0.978708	-0.974332	0.220476	-0.045466	-0.225114	-0.953552	0.200156
19729	11.752032	4.053745	1.985355	0.799915	-1.144325	-0.294440	0.001055	0.193674	0.981065	-0.976110	0.213362	-0.041070	-0.217276	-0.957584	0.189272
19730	10.259975	6.976576	1.513052	0.456359	-1.002963	-0.347888	0.002242	0.183279	0.983058	-0.977096	0.209586	-0.036846	-0.212788	-0.960460	0.179551
19731	11.112756	6.852889	0.618773	-0.123061	-0.806481	-0.309476	0.003494	0.174867	0.984586	-0.976835	0.211269	-0.034056	-0.213967	-0.961659	0.171554
19732	11.256144	5.813329	-0.107395	-0.621416	-0.607972	-0.204657	0.004119	0.168542	0.985686	-0.975489	0.217541	-0.033121	-0.220009	-0.961390	0.165307
19733	10.186641	3.621203	-1.974958	-0.978661	-0.563275	-0.166740	0.004436	0.162745	0.986658	-0.973293	0.227170	-0.033095	-0.229526	-0.960160	0.159406
19734	9.771452	0.542661	-3.570620	-1.058118	-0.611157	-0.158959	0.004493	0.156472	0.987672	-0.970814	0.237522	-0.033213	-0.239791	-0.958697	0.152973
19735	9.305081	-1.897670	-4.308638	-0.868899	-0.659657	-0.136648	0.004168	0.149801	0.988707	-0.968699	0.246009	-0.033189	-0.248203	-0.957622	0.146138
19736	8.723627	-3.083930	-4.254897	-0.563286	-0.774211	-0.135205	0.003479	0.142013	0.989859	-0.967293	0.251547	-0.032689	-0.253638	-0.957370	0.138243
19737	9.133078	-3.025540	-3.910034	-0.237867	-0.891732	-0.122773	0.002348	0.133135	0.991095	-0.966695	0.253944	-0.031822	-0.255919	-0.958012	0.129297
19738	10.097761	-1.977013	-3.352515	0.039278	-0.997033	-0.086055	0.000575	0.123319	0.992367	-0.966807	0.253625	-0.030957	-0.255507	-0.959409	0.119372
19739	10.291217	-0.220610	-2.546218	0.148282	-1.061816	-0.045422	-0.001742	0.112974	0.993596	-0.967197	0.252204	-0.030372	-0.254021	-0.961057	0.108829
19740	10.025951	1.054552	-2.165289	0.050077	-1.092387	-0.034991	-0.004231	0.102341	0.994740	-0.967338	0.251709	-0.030011	-0.253456	-0.962377	0.097934
19741	10.008923	1.293922	-1.677647	-0.164461	-1.056653	-0.051180	-0.006474	0.092000	0.995738	-0.966934	0.253291	-0.029690	-0.254943	-0.963005	0.087318
19742	9.906291	0.812522	-1.004587	-0.379247	-0.991751	-0.082031	-0.008283	0.082202	0.996581	-0.965979	0.256964	-0.029224	-0.258488	-0.962919	0.077277
19743	9.988520	0.046505	-0.381701	-0.505048	-0.936583	-0.119317	-0.009626	0.072833	0.997298	-0.964684	0.261869	-0.028435	-0.263233	-0.962351	0.067740
19744	9.387645	-0.578939	0.246172	-0.508780	-0.881429	-0.149331	-0.010583	0.063920	0.997899	-0.963361	0.266816	-0.027307	-0.268001	-0.961625	0.058755
19745	9.299463	-1.062458	0.480159	-0.445777	-0.857531	-0.180221	-0.011216	0.055148	0.998415	-0.962189	0.271160	-0.025787	-0.272152	-0.960953	0.050022
19746	9.278976	-1.127814	0.654258	-0.369399	-0.837705	-0.180617	-0.011829	0.046570	0.998845	-0.961211	0.274751	-0.024193	-0.275561	-0.960387	0.041513
19747	9.258738	-0.963393	0.851462	-0.265954	-0.801696	-0.154310	-0.012619	0.038403	0.999183	-0.960507	0.277323	-0.022789	-0.277971	-0.960009	0.033387
19748	9.662447	-0.958277	0.879013	-0.184022	-0.790349	-0.118899	-0.013736	0.030448	0.999442	-0.960022	0.279082	-0.021697	-0.279586	-0.959785	0.025397
19749	9.846988	-1.350317	1.132966	-0.132500	-0.750772	-0.109907	-0.014839	0.022894	0.999628	-0.959680	0.280335	-0.020667	-0.280704	-0.959629	0.017810
19750	9.915860	-1.498988	1.041608	-0.000571	-0.742050	-0.123879	-0.015789	0.015387	0.999757	-0.959710	0.280316	-0.019471	-0.280548	-0.959784	0.010341
19751	10.104287	-1.697258	0.981141	0.166201	-0.714079	-0.121896	-0.016672	0.008151	0.999828	-0.960208	0.278687	-0.018284	-0.278788	-0.960347	0.003180
19752	9.670157	-1.569857	0.764254	0.328205	-0.701543	-0.110021	-0.017616	0.001068	0.999844	-0.961149	0.275492	-0.017228	-0.275467	-0.961303	-0.003827
19753	9.795322	-0.772588	0.766846	0.493399	-0.691072	-0.075472	-0.018834	-0.005824	0.999806	-0.962523	0.270696	-0.016555	-0.270547	-0.962647	-0.010704
19754	9.680312	0.147929	0.721434	0.584166	-0.647478	-0.045525	-0.020184	-0.012223	0.999722	-0.964107	0.265017	-0.016225	-0.264745	-0.964166	-0.017133
19755	9.485599	0.627509	0.467243	0.584468	-0.630511	-0.024340	-0.021657	-0.018408	0.999596	-0.965655	0.259327	-0.016147	-0.258925	-0.965614	-0.023392
19756	9.478911	0.737165	0.472788	0.548671	-0.647693	-0.010125	-0.023274	-0.024731	0.999423	-0.967074	0.253977	-0.016236	-0.253429	-0.966894	-0.029828
19757	9.481956	0.974106	0.211312	0.517900	-0.653061	0.018088	-0.025142	-0.031041	0.999202	-0.968380	0.248925	-0.016634	-0.248210	-0.968025	-0.036318
19758	9.440561	0.939866	-0.234200	0.436337	-0.667057	0.018428	-0.027017	-0.037495	0.998932	-0.969459	0.244660	-0.017036	-0.243760	-0.968884	-0.042960
19759	9.476003	0.515454	-0.311188	0.372424	-0.678743	0.013399	-0.028841	-0.044079	0.998612	-0.970367	0.241011	-0.017387	-0.239910	-0.969521	-0.049723
19760	9.366432	0.604978	-0.516741	0.322444	-0.689267	0.019722	-0.030729	-0.050755	0.998238	-0.971139	0.237848	-0.017801	-0.236525	-0.969975	-0.056599
19761	9.662271	0.613591	-0.369268	0.259379	-0.678076	0.028199	-0.032649	-0.057305	0.997823	-0.971750	0.235303	-0.018282	-0.233743	-0.970231	-0.063368
19762	9.592503	0.527683	-0.328432	0.181808	-0.652330	0.025527	-0.034469	-0.063615	0.997379	-0.972175	0.233509	-0.018705	-0.231707	-0.970271	-0.069893
19763	9.518430	-0.287486	-0.218915	0.090167	-0.627587	0.017244	-0.036138	-0.069701	0.996913	-0.972386	0.232603	-0.018986	-0.230562	-0.970071	-0.076182
19764	9.483636	-1.448072	-0.319485	0.131400	-0.627855	0.006683	-0.037700	-0.075816	0.996409	-0.972696	0.231289	-0.019204	-0.229002	-0.969926	-0.082465
19765	9.290915	-1.877395	-0.566957	0.321981	-0.634633	0.008779	-0.039278	-0.081990	0.995859	-0.973433	0.228130	-0.019612	-0.225577	-0.970172	-0.088772
19766	9.288639	-1.055023	-0.444304	0.571461	-0.681708	0.017588	-0.041021	-0.088607	0.995222	-0.974708	0.222555	-0.020361	-0.219687	-0.970885	-0.095495
19767	9.986726	0.403945	-0.059350	0.701815	-0.693964	0.052779	-0.043088	-0.095269	0.994519	-0.976211	0.215743	-0.021628	-0.212500	-0.971791	-0.102298
19768	9.767592	1.555881	-0.000103	0.662547	-0.676561	0.088728	-0.045423	-0.101699	0.993778	-0.977565	0.209346	-0.023258	-0.205678	-0.972539	-0.108926
19769	9.188756	1.911300	0.107893	0.537930	-0.716250	0.107852	-0.047980	-0.108479	0.992940	-0.978613	0.204185	-0.024981	-0.200034	-0.972903	-0.115956
19770	8.102184	1.549076	0.122417	0.346213	-0.835267	0.094067	-0.050609	-0.116456	0.991906	-0.979261	0.200881	-0.026379	-0.196183	-0.972669	-0.124207
19771	8.862716	0.677452	-0.631355	0.186305	-0.905609	0.106335	-0.053462	-0.125084	0.990705	-0.979575	0.199158	-0.027717	-0.193840	-0.971952	-0.133177
19772	9.605916	-0.426169	-1.422313	0.203260	-0.920389	0.146813	-0.056726	-0.133777	0.989387	-0.979893	0.197331	-0.029500	-0.191290	-0.971166	-0.142281
19773	9.958350	-0.343060	-1.959891	0.338821	-0.965069	0.191159	-0.060472	-0.142807	0.987901	-0.980429	0.194267	-0.031932	-0.187357	-0.970498	-0.151760
19774	9.568467	0.467746	-1.967682	0.356632	-1.030562	0.226683	-0.064656	-0.152410	0.986200	-0.980954	0.191101	-0.034779	-0.183163	-0.969666	-0.161863
19775	9.565283	1.377717	-1.680101	0.282073	-1.088169	0.270383	-0.069328	-0.162478	0.984274	-0.981290	0.188756	-0.037959	-0.179620	-0.968490	-0.172524
19776	9.969099	1.683240	-1.263299	0.141700	-1.096835	0.297263	-0.074254	-0.172575	0.982194	-0.981335	0.187843	-0.041185	-0.177390	-0.966919	-0.183302
19777	10.738186	1.648429	-0.805372	0.025027	-1.038481	0.294971	-0.079027	-0.182089	0.980101	-0.981158	0.188088	-0.044168	-0.176303	-0.965125	-0.193522
19778	11.080328	1.852564	0.090232	-0.119228	-0.953640	0.284098	-0.083549	-0.190788	0.978069	-0.980722	0.189728	-0.046766	-0.176645	-0.963121	-0.202962
19779	11.346363	1.653797	1.012181	-0.281200	-0.832643	0.254813	-0.087564	-0.198345	0.976213	-0.980009	0.192896	-0.048712	-0.178646	-0.960963	-0.211271
19780	11.428950	0.658390	1.958192	-0.396244	-0.695624	0.202303	-0.090851	-0.204669	0.974606	-0.979120	0.197069	-0.049887	-0.181854	-0.958788	-0.218300
19781	11.962620	-0.636295	2.802571	-0.355410	-0.585532	0.173804	-0.093661	-0.209960	0.973214	-0.978312	0.200803	-0.050831	-0.184751	-0.956867	-0.224213
19782	10.946884	-2.079005	2.976667	-0.175278	-0.512571	0.221706	-0.096831	-0.214454	0.971922	-0.977781	0.202911	-0.052643	-0.185925	-0.955425	-0.229337
19783	10.181328	-3.231180	2.455700	0.145088	-0.501688	0.304714	-0.100774	-0.218647	0.970587	-0.977752	0.202155	-0.055978	-0.183970	-0.954634	-0.234154
19784	10.586745	-3.875570	1.825206	0.617372	-0.510202	0.358750	-0.105256	-0.222843	0.969155	-0.978503	0.197016	-0.060971	-0.177352	-0.954739	-0.238789
19785	10.983296	-3.949317	1.550505	1.077601	-0.460969	0.455137	-0.110543	-0.226382	0.967746	-0.979866	0.187712	-0.068016	-0.166260	-0.955780	-0.242574
19786	10.208289	-3.512274	1.700555	1.348508	-0.408983	0.597350	-0.117103	-0.229249	0.966298	-0.981339	0.176137	-0.077138	-0.152517	-0.957299	-0.245597
19787	10.147763	-2.917418	1.899080	1.477194	-0.372329	0.676248	-0.124324	-0.231674	0.964817	-0.982666	0.163508	-0.087362	-0.137516	-0.958954	-0.247986
19788	10.460486	-2.147927	1.431647	1.507828	-0.360950	0.612300	-0.130863	-0.234220	0.963336	-0.983844	0.150426	-0.097075	-0.122174	-0.960475	-0.250121
19789	11.491388	-1.712349	1.466561	1.430520	-0.364659	0.511543	-0.136357	-0.236987	0.961896	-0.984803	0.137848	-0.105642	-0.107559	-0.961683	-0.252182
19790	12.439349	-2.129095	2.846472	1.332081	-0.240313	0.461479	-0.141193	-0.238735	0.960765	-0.985505	0.126090	-0.113498	-0.094047	-0.962864	-0.253077
19791	12.905029	-2.613678	5.009391	1.258403	-0.016654	0.470493	-0.145885	-0.238321	0.960167	-0.985933	0.115049	-0.121244	-0.081572	-0.964348	-0.251753
19792	13.394790	-2.940709	7.520046	1.235411	0.284198	0.522756	-0.150871	-0.235050	0.960203	-0.986089	0.104324	-0.129401	-0.069756	-0.966369	-0.247519
19793	13.777973	-2.715603	9.966781	1.398337	0.684589	0.630904	-0.156697	-0.227783	0.961021	-0.986002	0.092210	-0.138915	-0.056973	-0.969336	-0.239044
19794	15.201116	-2.112072	11.703869	1.806211	1.147544	0.689889	-0.162982	-0.216102	0.962672	-0.985779	0.076158	-0.149799	-0.040943	-0.973396	-0.225441
19795	16.272554	-0.656684	11.731773	2.283542	1.622846	0.655699	-0.168978	-0.199792	0.965158	-0.985394	0.055191	-0.161096	-0.021083	-0.978283	-0.206200
19796	15.692694	1.664431	9.287075	2.448098	2.053961	0.662304	-0.175324	-0.179405	0.968026	-0.984511	0.032395	-0.172306	-0.000447	-0.983242	-0.182306
19797	14.806441	3.220768	7.342677	1.935576	2.428843	0.732721	-0.182731	-0.155234	0.970831	-0.983059	0.014495	-0.182714	0.014291	-0.987771	-0.155253
19798	13.962180	2.997862	5.727753	1.072383	2.768218	0.774791	-0.190854	-0.127808	0.973263	-0.981421	0.004934	-0.191806	0.019712	-0.991787	-0.126375
19799	12.817380	1.809100	4.167534	0.263123	3.003437	0.783224	-0.199098	-0.097860	0.975081	-0.979841	0.003151	-0.199753	0.016476	-0.995195	-0.096515
19800	12.371953	0.226459	2.872459	-0.276409	3.089451	0.687222	-0.206240	-0.067091	0.976199	-0.978472	0.006427	-0.206279	0.007566	-0.997726	-0.066972
19801	12.699705	-1.148037	1.362076	-0.701822	3.037767	0.487037	-0.211047	-0.036625	0.976789	-0.977460	0.013631	-0.210681	-0.005598	-0.999236	-0.038677
19802	13.892701	-1.908562	-1.676489	-0.927893	2.895290	0.194687	-0.212612	-0.007701	0.977106	-0.976917	0.022901	-0.212390	-0.020741	-0.999708	-0.012392
19803	15.507986	-1.886731	-5.065346	-0.948471	2.703760	-0.121316	-0.210676	0.019375	0.977364	-0.976904	0.032329	-0.211217	-0.035690	-0.999289	0.012117
19804	17.690012	-2.131956	-7.162637	-0.733026	2.487915	-0.474447	-0.205043	0.044004	0.977763	-0.977577	0.039751	-0.206793	-0.047966	-0.998240	0.034867
19805	18.908721	-1.907993	-7.520178	-0.273343	2.398907	-0.751167	-0.196464	0.067698	0.978171	-0.978944	0.042839	-0.199584	-0.055415	-0.996786	0.057856
19806	18.008374	-0.805911	-7.585841	0.147425	2.508550	-0.838136	-0.186866	0.092275	0.978042	-0.980629	0.041989	-0.191321	-0.058721	-0.994848	0.082641
19807	15.258348	0.480194	-6.776144	0.353889	2.539995	-0.707544	-0.178422	0.117285	0.976939	-0.982132	0.039159	-0.184072	-0.059845	-0.992326	0.108202
19808	14.046422	0.663594	-4.755428	0.259499	2.597704	-0.382936	-0.173125	0.142826	0.974489	-0.982959	0.037032	-0.180058	-0.061805	-0.989055	0.133981
19809	13.713440	-0.258152	-3.355733	0.025694	2.760503	-0.069394	-0.170677	0.170091	0.970535	-0.983097	0.036835	-0.179342	-0.066254	-0.984740	0.160929
19810	13.285847	-0.868427	-2.379486	-0.289609	2.981340	0.023068	-0.168858	0.199328	0.965275	-0.982851	0.039580	-0.180106	-0.074106	-0.979133	0.189226
19811	12.077277	-0.707904	-1.913935	-0.605066	3.048282	-0.034255	-0.166094	0.229096	0.959129	-0.982430	0.045505	-0.180998	-0.085111	-0.972340	0.217512
19812	11.078670	-0.462316	-2.354267	-0.845476	2.892642	-0.174279	-0.161779	0.256982	0.952779	-0.981939	0.054061	-0.181312	-0.098102	-0.964903	0.243594
19813	10.824338	-0.602801	-3.455139	-1.038898	2.735276	-0.296990	-0.155980	0.283120	0.946316	-0.981321	0.064793	-0.181135	-0.112598	-0.956893	0.267725
19814	10.103682	-0.935423	-3.805468	-1.201297	2.719241	-0.383565	-0.148989	0.308702	0.939418	-0.980458	0.077312	-0.180903	-0.128473	-0.948012	0.291151
19815	9.482776	-2.125801	-4.175981	-1.354413	2.756867	-0.409291	-0.141197	0.334376	0.931802	-0.979202	0.091348	-0.181160	-0.145694	-0.938002	0.314524
19816	8.099328	-2.866941	-3.888728	-1.384801	2.748771	-0.399837	-0.133093	0.359575	0.923576	-0.977615	0.105590	-0.181990	-0.162959	-0.927123	0.337472
19817	7.251513	-3.116824	-3.548878	-1.352461	2.662896	-0.372143	-0.124902	0.383704	0.914970	-0.975787	0.119382	-0.183268	-0.179552	-0.915707	0.359503
19818	6.734734	-2.849040	-3.384357	-1.310532	2.527472	-0.324868	-0.117049	0.406253	0.906233	-0.973728	0.132529	-0.185178	-0.195331	-0.904099	0.380067
19819	6.367429	-2.382107	-3.309052	-1.291109	2.408057	-0.299237	-0.109261	0.427470	0.897403	-0.971456	0.145319	-0.187499	-0.210560	-0.892274	0.399390
19820	5.639898	-1.883787	-3.153987	-1.261993	2.246063	-0.282227	-0.101683	0.446913	0.888779	-0.969010	0.157678	-0.190149	-0.225121	-0.880572	0.417031
19821	5.354411	-1.300411	-2.940479	-1.211888	2.065825	-0.304040	-0.093965	0.464486	0.880581	-0.966508	0.169610	-0.192599	-0.238815	-0.869186	0.432992
19822	5.525792	-1.071895	-2.726323	-1.198492	1.928295	-0.351382	-0.085894	0.480485	0.872786	-0.963891	0.181558	-0.194812	-0.252066	-0.858004	0.447540
19823	5.021718	-1.063352	-2.344669	-1.205736	1.803491	-0.370832	-0.077681	0.495155	0.865325	-0.961089	0.193590	-0.197054	-0.265091	-0.846962	0.460850
19824	4.286059	-1.275109	-2.080470	-1.189414	1.609353	-0.357836	-0.069936	0.507953	0.858541	-0.958136	0.205334	-0.199534	-0.277642	-0.836553	0.472328
19825	3.791021	-1.727165	-1.527120	-1.128949	1.337701	-0.340477	-0.062910	0.518350	0.852851	-0.955176	0.216418	-0.201994	-0.289276	-0.827331	0.481501
19826	3.531359	-2.232990	-1.081571	-0.927862	1.021267	-0.334646	-0.056772	0.525989	0.848594	-0.952661	0.225745	-0.203659	-0.298688	-0.819985	0.488273
19827	3.342095	-2.525724	-0.845716	-0.629433	0.728608	-0.395363	-0.050838	0.531021	0.845832	-0.950989	0.232922	-0.203389	-0.305017	-0.814717	0.493154
19828	3.034666	-2.524324	-0.710868	-0.269881	0.425912	-0.491130	-0.044921	0.533297	0.844734	-0.950410	0.237668	-0.200585	-0.307737	-0.811855	0.496175
19829	2.925371	-2.256979	-0.700069	0.092592	0.113495	-0.623820	-0.038675	0.532709	0.845414	-0.950971	0.240184	-0.194847	-0.306851	-0.811500	0.497302
19830	3.122546	-1.979834	-0.738327	0.387479	-0.160826	-0.742973	-0.032151	0.529583	0.847648	-0.952429	0.240919	-0.186644	-0.303058	-0.813326	0.496645
19831	3.201189	-1.783042	-0.768778	0.545071	-0.348272	-0.787875	-0.025723	0.524827	0.850820	-0.954310	0.240573	-0.177248	-0.297709	-0.816506	0.494660
19832	2.996904	-2.007667	-0.925893	0.585593	-0.508332	-0.729412	-0.020310	0.518883	0.854604	-0.956218	0.239523	-0.168154	-0.291950	-0.820603	0.491300
19833	2.675311	-2.370723	-1.027930	0.669980	-0.689984	-0.623532	-0.016373	0.511692	0.859013	-0.958281	0.237162	-0.159536	-0.285359	-0.825788	0.486462
19834	2.496628	-3.154249	-0.767548	0.807967	-0.920013	-0.556842	-0.013675	0.502722	0.864340	-0.960651	0.233225	-0.150848	-0.277421	-0.832392	0.479751
19835	2.844533	-3.648505	0.382885	1.134143	-1.205837	-0.584276	-0.011375	0.491261	0.870938	-0.963821	0.226580	-0.140393	-0.266307	-0.841026	0.470910
19836	3.745270	-3.573403	1.633761	1.631079	-1.551947	-0.732383	-0.008365	0.476465	0.879154	-0.968119	0.216252	-0.126411	-0.250349	-0.852183	0.459466
19837	4.975934	-2.503246	2.645770	2.050104	-1.897031	-0.959875	-0.003655	0.458130	0.888878	-0.973116	0.203070	-0.108665	-0.230287	-0.865378	0.445071
19838	6.524549	-1.511583	3.897884	2.264694	-2.163532	-1.225044	0.003500	0.436816	0.899544	-0.978093	0.188730	-0.087840	-0.208141	-0.879530	0.427907
19839	8.802204	-1.221908	5.385617	2.344411	-2.332299	-1.392627	0.012517	0.413578	0.910382	-0.982603	0.173802	-0.065447	-0.185294	-0.893726	0.408559
19840	12.092499	-0.957668	8.905377	2.303959	-2.373344	-1.393731	0.022055	0.389850	0.920614	-0.986384	0.158593	-0.043528	-0.162972	-0.907119	0.388040
19841	17.434038	0.310562	12.276688	2.268788	-2.162604	-1.277465	0.031342	0.368150	0.929238	-0.989501	0.142660	-0.023145	-0.141087	-0.918757	0.368756
19842	22.457900	3.670132	15.250439	1.898788	-1.659319	-1.112524	0.040123	0.351279	0.935411	-0.991617	0.129074	-0.005938	-0.122823	-0.927331	0.353513
19843	20.619541	6.085419	17.401967	0.848214	-1.112659	-0.693636	0.045643	0.340033	0.939305	-0.992335	0.123528	0.003502	-0.114840	-0.932265	0.343065
19844	15.786963	4.466854	17.254842	-0.277879	-0.699129	0.105962	0.043729	0.333597	0.941701	-0.992067	0.125705	0.001537	-0.117864	-0.934297	0.336447
19845	8.271410	0.828905	12.473054	-0.981922	-0.503894	0.866173	0.034493	0.329994	0.943353	-0.991206	0.131955	-0.009916	-0.127753	-0.934715	0.331644
19846	4.736990	-2.110744	3.008001	-1.425977	-1.201818	1.073172	0.022192	0.320174	0.947099	-0.989594	0.141750	-0.024732	-0.142170	-0.936694	0.319988
19847	12.272978	-7.138574	-3.301253	-1.649324	-1.657643	0.723512	0.012518	0.305697	0.952047	-0.987245	0.154906	-0.036759	-0.158715	-0.939443	0.303737
19848	16.914691	-9.407643	0.066531	-1.995531	-1.019599	0.289960	0.007890	0.296552	0.954984	-0.983919	0.172720	-0.045506	-0.178440	-0.939268	0.293146
19849	10.539507	-8.130544	8.461224	-1.998142	-0.351292	-0.084731	0.008014	0.293096	0.956049	-0.980160	0.191656	-0.050539	-0.198045	-0.936676	0.288817
19850	4.937195	-6.462735	7.082040	-0.788172	-0.659431	-0.401099	0.010558	0.286092	0.958144	-0.978542	0.200143	-0.048978	-0.205778	-0.937067	0.282066
19851	7.909346	-8.068901	-0.169362	0.108001	-1.159805	-0.455132	0.012574	0.274297	0.961563	-0.978721	0.200346	-0.044352	-0.204811	-0.940544	0.270980
19852	10.328192	-8.394893	-1.275268	0.664120	-1.224800	-0.326817	0.013253	0.262063	0.964960	-0.980028	0.194903	-0.039472	-0.198417	-0.945165	0.259412
19853	11.145538	-3.943827	0.121222	1.460090	-1.296074	-0.226819	0.012927	0.249348	0.968328	-0.982802	0.181575	-0.033636	-0.184211	-0.951239	0.247407
19854	12.452184	2.670987	-0.667933	1.933803	-1.236371	-0.176296	0.012451	0.237201	0.971381	-0.986168	0.163489	-0.027282	-0.165282	-0.957605	0.235955
19855	11.890104	6.553757	0.521233	1.397035	-0.946466	-0.251924	0.013367	0.227715	0.973636	-0.988357	0.150604	-0.021654	-0.151565	-0.962010	0.227077
19856	11.304310	7.647738	1.771553	0.533627	-0.711412	-0.376211	0.015976	0.220261	0.975310	-0.989105	0.146250	-0.016826	-0.146345	-0.964415	0.220198
19857	11.093007	6.769751	0.266147	-0.147752	-0.611521	-0.346781	0.018448	0.213838	0.976695	-0.988835	0.148371	-0.013807	-0.147865	-0.965536	0.214188
19858	9.750549	4.163142	-2.217005	-0.611174	-0.644315	-0.179321	0.019197	0.207301	0.978089	-0.987887	0.154595	-0.013376	-0.153980	-0.965985	0.207758
19859	8.626047	1.327280	-3.783012	-0.721356	-0.825329	-0.081716	0.018654	0.199180	0.979785	-0.986743	0.161676	-0.014081	-0.161213	-0.966534	0.199555
19860	9.521759	-0.946546	-4.459946	-0.560410	-0.954095	-0.060263	0.017632	0.189811	0.981662	-0.985822	0.167157	-0.014615	-0.166866	-0.967487	0.190067
19861	11.219134	-2.078734	-4.052246	-0.330287	-0.964338	-0.061350	0.016560	0.180345	0.983464	-0.985264	0.170413	-0.014660	-0.170239	-0.968729	0.180509
19862	8.662396	-2.475147	-4.047209	-0.077470	-1.103048	-0.124385	0.015851	0.169394	0.985421	-0.985120	0.171327	-0.013605	-0.171134	-0.970542	0.169589
19863	9.264439	-2.725690	-3.271966	0.172617	-1.356720	-0.171539	0.015172	0.155881	0.987659	-0.985397	0.169873	-0.011673	-0.169596	-0.973059	0.156182
19864	9.792831	-2.152563	-2.684875	0.365847	-1.385630	-0.130948	0.014085	0.142115	0.989750	-0.986001	0.166449	-0.009868	-0.166145	-0.975755	0.142470
19865	9.386595	-1.300655	-1.948874	0.513469	-1.420729	-0.118394	0.012865	0.127995	0.991691	-0.986834	0.161534	-0.008046	-0.161222	-0.978531	0.128388
19866	9.853597	-0.641163	-1.731561	0.648505	-1.422608	-0.117913	0.011730	0.113824	0.993432	-0.987853	0.155269	-0.006126	-0.154946	-0.981293	0.114262
19867	10.007221	0.048111	-1.473441	0.760595	-1.393848	-0.134466	0.010886	0.099874	0.994940	-0.988997	0.147882	-0.004023	-0.147535	-0.983949	0.100385
19868	9.560500	0.958705	-1.584235	0.797593	-1.385649	-0.150953	0.010340	0.085961	0.996245	-0.990134	0.140112	-0.001813	-0.139742	-0.986397	0.086561
19869	9.151501	1.864370	-1.418600	0.727007	-1.423153	-0.148189	0.009806	0.071651	0.997382	-0.991117	0.132994	0.000191	-0.132632	-0.988524	0.072318
19870	9.607308	2.518327	-0.994380	0.573309	-1.440731	-0.115169	0.009028	0.057201	0.998322	-0.991857	0.127344	0.001673	-0.127035	-0.990208	0.057885
19871	9.722600	2.671911	-0.976696	0.350374	-1.432992	-0.078453	0.007951	0.042845	0.999050	-0.992297	0.123858	0.002586	-0.123630	-0.991375	0.043500
19872	9.774130	2.085267	-0.520097	0.112720	-1.456782	-0.068651	0.006790	0.028267	0.999577	-0.992437	0.122715	0.003271	-0.122570	-0.992039	0.028887
19873	10.171803	1.354304	0.606028	-0.079484	-1.397103	-0.055332	0.005566	0.014276	0.999883	-0.992342	0.123463	0.003761	-0.123395	-0.992246	0.014854
19874	9.769789	1.404051	1.096353	-0.198770	-1.376836	-0.029946	0.004101	0.000532	0.999991	-0.992100	0.125388	0.004002	-0.125385	-0.992108	0.001042
19875	9.977653	1.349145	1.400237	-0.349469	-1.338492	0.016619	0.002182	-0.012783	0.999916	-0.991663	0.128806	0.003811	-0.128844	-0.991587	-0.012396
19876	10.389232	0.754207	1.833827	-0.483699	-1.206995	0.056898	-0.000016	-0.024718	0.999694	-0.991035	0.133563	0.003287	-0.133603	-0.990732	-0.024498
19877	10.120111	0.082624	1.708591	-0.523622	-1.106530	0.056000	-0.002128	-0.035656	0.999362	-0.990328	0.138717	0.002841	-0.138730	-0.989690	-0.035606
19878	9.916911	-0.524069	1.247528	-0.459702	-1.039373	0.020644	-0.003848	-0.045953	0.998936	-0.989686	0.143226	0.002777	-0.143201	-0.988623	-0.046030
19879	9.848407	-0.637476	0.917561	-0.332047	-0.987361	0.001311	-0.005341	-0.055761	0.998430	-0.989212	0.146461	0.002888	-0.146392	-0.987644	-0.055942
19880	10.041336	-0.535856	0.654421	-0.218317	-0.938151	0.007737	-0.006851	-0.065056	0.997858	-0.988897	0.148575	0.002897	-0.148445	-0.986759	-0.065351
19881	9.973395	-0.177117	0.571966	-0.133429	-0.889771	0.018113	-0.008409	-0.073855	0.997234	-0.988704	0.149858	0.002762	-0.149647	-0.985945	-0.074281
19882	9.896144	0.056197	0.127541	-0.071512	-0.861746	0.015739	-0.009907	-0.082369	0.996553	-0.988602	0.150530	0.002614	-0.150226	-0.985168	-0.082922
19883	9.709354	0.084390	0.099504	-0.055751	-0.867680	0.007817	-0.011341	-0.090950	0.995791	-0.988524	0.151041	0.002537	-0.150636	-0.984335	-0.091620
19884	9.114617	0.552122	0.126240	-0.049033	-0.920688	-0.035661	-0.012428	-0.100107	0.994899	-0.988461	0.151445	0.002891	-0.150962	-0.983383	-0.100834
19885	9.208012	0.739559	0.079979	-0.027820	-0.982985	-0.076428	-0.013208	-0.109931	0.993851	-0.988436	0.151595	0.003632	-0.151062	-0.982311	-0.110662
19886	9.128840	0.553386	-0.107082	-0.057588	-0.992769	-0.087702	-0.013894	-0.119854	0.992694	-0.988368	0.152016	0.004521	-0.151447	-0.981084	-0.120572
19887	9.311243	0.024084	-0.360496	-0.094145	-0.992289	-0.071915	-0.014739	-0.129737	0.991439	-0.988242	0.152807	0.005304	-0.152187	-0.979703	-0.130464
19888	9.631397	-0.373041	-0.704595	-0.031864	-0.962759	-0.013400	-0.016123	-0.139228	0.990129	-0.988202	0.153059	0.005430	-0.152304	-0.978360	-0.140053
19889	9.863452	-0.734889	-0.609578	0.039352	-0.910108	0.049432	-0.018045	-0.148094	0.988809	-0.988260	0.152704	0.004835	-0.151711	-0.977113	-0.149111
19890	9.697939	-0.598520	-0.311901	0.108003	-0.857330	0.093180	-0.020312	-0.156368	0.987490	-0.988412	0.151750	0.003698	-0.150430	-0.975972	-0.157639
19891	9.691368	-0.149267	-0.203515	0.167508	-0.812696	0.096375	-0.022531	-0.164192	0.986171	-0.988648	0.150230	0.002425	-0.148550	-0.974922	-0.165713
19892	10.088554	0.048028	0.088727	0.194757	-0.736843	0.086874	-0.024527	-0.171286	0.984916	-0.988921	0.148437	0.001188	-0.146402	-0.973975	-0.173029
19893	10.366504	-0.248586	0.108057	0.227611	-0.644482	0.059826	-0.026105	-0.177511	0.983772	-0.989242	0.146286	0.000146	-0.143938	-0.973186	-0.179420
19894	10.265490	-0.430564	0.093549	0.318298	-0.591738	0.033859	-0.027332	-0.183263	0.982684	-0.989692	0.143210	-0.000819	-0.140580	-0.972577	-0.185288
19895	9.986615	-0.199323	0.062067	0.447319	-0.576235	0.030230	-0.028479	-0.188859	0.981591	-0.990307	0.138878	-0.002011	-0.135942	-0.972134	-0.190984
19896	10.055582	0.231787	-0.148522	0.574693	-0.592309	0.053311	-0.029844	-0.194588	0.980431	-0.991061	0.133355	-0.003700	-0.130026	-0.971778	-0.196829
19897	9.965135	0.503765	0.045382	0.626646	-0.590597	0.087718	-0.031512	-0.200245	0.979239	-0.991834	0.127402	-0.005865	-0.123582	-0.971427	-0.202624
19898	9.437765	0.706941	-0.064821	0.651584	-0.606052	0.098276	-0.033265	-0.206054	0.977975	-0.992590	0.121234	-0.008219	-0.116871	-0.971002	-0.208560
19899	8.849006	0.635106	-0.595526	0.630396	-0.662712	0.095978	-0.035018	-0.212403	0.976555	-0.993277	0.115279	-0.010545	-0.110337	-0.970359	-0.215012
19900	9.124504	0.025694	-1.119911	0.607745	-0.717444	0.117578	-0.037004	-0.219275	0.974961	-0.993890	0.109600	-0.013073	-0.103989	-0.969488	-0.221991
19901	9.492873	-0.825690	-1.573642	0.632458	-0.739343	0.166512	-0.039450	-0.226290	0.973261	-0.994466	0.103806	-0.016174	-0.097371	-0.968513	-0.229133
19902	9.695787	-1.763649	-1.921054	0.731358	-0.759394	0.244136	-0.042637	-0.233442	0.971436	-0.995053	0.097251	-0.020304	-0.089733	-0.967495	-0.236433
19903	9.637941	-2.232317	-1.968472	0.827553	-0.774863	0.353326	-0.046863	-0.240632	0.969485	-0.995604	0.090050	-0.025774	-0.081100	-0.966430	-0.243794
19904	10.013060	-2.419863	-1.518385	0.856374	-0.770753	0.424136	-0.051724	-0.247756	0.967441	-0.996052	0.082777	-0.032055	-0.072140	-0.965280	-0.251059
19905	10.391584	-2.330594	-0.928147	0.912957	-0.742829	0.446156	-0.056719	-0.254597	0.965382	-0.996426	0.075054	-0.038749	-0.062591	-0.964130	-0.257945
19906	10.469082	-1.828251	-0.655550	0.996340	-0.724441	0.439053	-0.061556	-0.261314	0.963289	-0.996739	0.066550	-0.045641	-0.052181	-0.962957	-0.264558
19907	10.551935	-1.210263	-0.445750	1.016798	-0.701923	0.415422	-0.066077	-0.267835	0.961196	-0.996949	0.057828	-0.052422	-0.041543	-0.961728	-0.270839
19908	10.676364	-0.877929	-0.340912	1.019157	-0.658237	0.369006	-0.070040	-0.274012	0.959172	-0.997066	0.048997	-0.058810	-0.030882	-0.960477	-0.276640
19909	10.809264	-0.764178	-0.439906	1.034364	-0.610349	0.325829	-0.073495	-0.279747	0.957257	-0.997094	0.039934	-0.064883	-0.020076	-0.959243	-0.281869
19910	11.218576	-0.914342	-0.231487	1.074980	-0.556800	0.320631	-0.076816	-0.285020	0.955439	-0.997006	0.030499	-0.071060	-0.008887	-0.958036	-0.286509
19911	11.025738	-1.085541	0.357136	1.149398	-0.499184	0.347090	-0.080340	-0.289728	0.953731	-0.996763	0.020455	-0.077751	0.003018	-0.956890	-0.290434
19912	11.438175	-1.445793	1.560757	1.224086	-0.429678	0.397579	-0.084305	-0.293826	0.952134	-0.996317	0.009874	-0.085170	0.015623	-0.955808	-0.293576
19913	11.852803	-1.978093	3.013238	1.278632	-0.309490	0.464849	-0.088915	-0.296773	0.950800	-0.995626	-0.001006	-0.093421	0.028681	-0.954947	-0.295386
19914	12.368463	-2.616842	4.339684	1.388539	-0.122399	0.516664	-0.094054	-0.298027	0.949912	-0.994652	-0.012760	-0.102488	0.042665	-0.954472	-0.295233
19915	12.791629	-3.020549	5.451066	1.545539	0.090135	0.594403	-0.100058	-0.297282	0.949533	-0.993290	-0.025781	-0.112740	0.057995	-0.954442	-0.292707
19916	13.078920	-3.518546	6.503374	1.684352	0.316713	0.677362	-0.107029	-0.294531	0.949629	-0.991466	-0.039890	-0.124116	0.074437	-0.954809	-0.287748
19917	12.951613	-3.998836	7.423351	1.818443	0.560559	0.784571	-0.115317	-0.289534	0.950196	-0.989070	-0.055011	-0.136797	0.091879	-0.955586	-0.280026
19918	12.727076	-3.933319	7.942816	1.979899	0.833779	0.905174	-0.125137	-0.282186	0.951163	-0.985969	-0.071390	-0.150896	0.110484	-0.956700	-0.269293
19919	13.594319	-3.369566	8.265157	2.240877	1.123184	0.983196	-0.136224	-0.272195	0.952551	-0.981962	-0.090167	-0.166195	0.131126	-0.958008	-0.255002
19920	15.871206	-2.537998	7.296026	2.515996	1.499166	1.017786	-0.148363	-0.258902	0.954441	-0.976917	-0.111623	-0.182136	0.153693	-0.959432	-0.236365
19921	16.284955	-2.015925	5.337116	2.592830	1.929666	1.076827	-0.162089	-0.241644	0.956732	-0.970952	-0.133884	-0.198313	0.176012	-0.961085	-0.212923
19922	14.430097	-1.717398	3.209947	2.405062	2.331016	1.159159	-0.177669	-0.220943	0.958967	-0.964499	-0.154380	-0.214263	0.195385	-0.962991	-0.185671
19923	12.116904	-1.275644	1.622702	2.099213	2.574866	1.093224	-0.193464	-0.197845	0.960952	-0.958183	-0.172392	-0.228399	0.210848	-0.964955	-0.156220
19924	11.635396	-0.842861	0.976166	1.774817	2.639398	0.863540	-0.207465	-0.173966	0.962650	-0.952586	-0.187968	-0.239265	0.222571	-0.966646	-0.126720
19925	13.166171	0.726686	0.366515	1.452816	2.613107	0.525249	-0.218432	-0.149643	0.964310	-0.948149	-0.201242	-0.246000	0.230872	-0.968044	-0.097926
19926	15.915439	3.190699	-0.188819	1.123901	2.589343	0.116105	-0.225603	-0.124859	0.966185	-0.945247	-0.212011	-0.248112	0.235821	-0.969258	-0.070192
19927	17.980099	6.314260	-1.427567	0.716658	2.591434	-0.346785	-0.228491	-0.098905	0.968509	-0.944318	-0.219421	-0.245191	0.236762	-0.970604	-0.043262
19928	18.905972	8.696083	-2.716304	0.075060	2.572719	-0.747040	-0.227485	-0.072322	0.971092	-0.945824	-0.220834	-0.238012	0.231663	-0.972626	-0.018167
19929	17.586407	10.040453	-3.471294	-0.801631	2.517771	-1.008664	-0.223611	-0.045526	0.973615	-0.949887	-0.213684	-0.228153	0.218433	-0.975841	0.004537
19930	16.718330	9.097946	-4.066689	-1.705051	2.483523	-1.060522	-0.218692	-0.019115	0.975607	-0.955753	-0.197396	-0.218109	0.196750	-0.980137	0.024899
19931	15.922400	6.934029	-4.722631	-2.334431	2.584457	-0.901716	-0.214767	0.008027	0.976632	-0.961967	-0.174570	-0.210107	0.168805	-0.984612	0.045214
19932	15.108817	3.686163	-5.222369	-2.640861	2.751285	-0.633121	-0.212907	0.036135	0.976404	-0.967349	-0.148426	-0.205439	0.137500	-0.988263	0.066556
19933	14.363194	0.920011	-4.759920	-2.762916	2.927017	-0.369949	-0.212846	0.065664	0.974877	-0.971479	-0.120954	-0.203957	0.104522	-0.990484	0.089536
19934	13.939844	-0.937081	-4.400353	-2.835769	3.105429	-0.155662	-0.214085	0.096546	0.972032	-0.974278	-0.092780	-0.205364	0.070358	-0.990995	0.113925
19935	13.043454	-2.608723	-4.132200	-2.872263	3.137085	-0.094523	-0.214807	0.127753	0.968265	-0.976005	-0.064280	-0.208043	0.035662	-0.989721	0.138495
19936	12.313537	-4.334257	-4.033013	-2.752409	3.012754	-0.115482	-0.214293	0.157536	0.963982	-0.976766	-0.036964	-0.211095	0.002378	-0.986821	0.161797
19937	11.873359	-5.984035	-4.099690	-2.413269	2.911799	-0.140851	-0.212538	0.186295	0.959230	-0.976770	-0.013015	-0.213897	-0.027364	-0.982408	0.184734
19938	11.279892	-6.309081	-4.237603	-1.977189	2.895861	-0.173879	-0.209725	0.214619	0.953915	-0.976338	0.006647	-0.216150	-0.052730	-0.976675	0.208147
19939	10.333047	-5.771443	-3.895406	-1.513915	2.884457	-0.296560	-0.205003	0.242692	0.948195	-0.976002	0.022001	-0.216646	-0.073440	-0.969854	0.232357
19940	9.457882	-4.743127	-3.721601	-1.089756	2.841067	-0.467764	-0.198166	0.269961	0.942259	-0.976051	0.033671	-0.214919	-0.089746	-0.962282	0.256824
19941	8.730768	-3.300430	-3.237102	-0.775893	2.778959	-0.641685	-0.189228	0.296374	0.936138	-0.976553	0.042863	-0.210968	-0.102651	-0.954110	0.281314
19942	8.630143	-2.258449	-3.130575	-0.595442	2.751603	-0.771399	-0.178766	0.322100	0.929674	-0.977326	0.050844	-0.205545	-0.113474	-0.945339	0.305708
19943	7.729856	-0.677306	-2.685402	-0.515879	2.647751	-0.833130	-0.167494	0.346575	0.922947	-0.978164	0.058423	-0.199453	-0.123047	-0.936201	0.329222
19944	7.004956	0.857452	-2.418537	-0.632903	2.536858	-0.817744	-0.156290	0.369647	0.915934	-0.978676	0.067186	-0.194111	-0.133291	-0.926740	0.351265
19945	6.961230	1.400179	-2.193627	-0.895562	2.437560	-0.742096	-0.145632	0.391589	0.908542	-0.978555	0.078208	-0.190563	-0.145677	-0.916811	0.371802
19946	6.892264	1.204008	-1.770920	-1.140555	2.329299	-0.657630	-0.135688	0.412225	0.900921	-0.977738	0.091188	-0.188982	-0.160056	-0.906507	0.390675
19947	6.866527	0.560618	-1.481157	-1.324918	2.196785	-0.604496	-0.126096	0.431433	0.893289	-0.976314	0.105621	-0.188828	-0.175817	-0.895941	0.407896
19948	6.610024	-0.445914	-1.375800	-1.447873	2.065863	-0.560542	-0.116877	0.449156	0.885776	-0.974333	0.120922	-0.189879	-0.192395	-0.885232	0.423495
19949	5.958154	-1.269796	-1.470378	-1.494351	1.898697	-0.557265	-0.107647	0.465145	0.878665	-0.971971	0.136563	-0.191371	-0.209008	-0.874637	0.437407
19950	5.439005	-1.893267	-1.640796	-1.471670	1.664581	-0.567533	-0.098579	0.478765	0.872391	-0.969369	0.151978	-0.192942	-0.224958	-0.864689	0.449118
19951	5.140975	-2.396286	-1.819054	-1.412919	1.397561	-0.586605	-0.089661	0.489845	0.867187	-0.966651	0.166916	-0.194230	-0.239890	-0.855682	0.458543
19952	4.986486	-2.742246	-1.926819	-1.328871	1.146063	-0.601592	-0.081080	0.498523	0.863077	-0.963894	0.181144	-0.195182	-0.253644	-0.847739	0.465836
19953	4.852475	-3.013626	-2.048040	-1.223296	0.922743	-0.603246	-0.072890	0.505170	0.859936	-0.961194	0.194443	-0.195698	-0.266069	-0.840830	0.471393
19954	4.435442	-3.000339	-2.117349	-1.095959	0.723139	-0.579815	-0.065416	0.510032	0.857664	-0.958629	0.206506	-0.195921	-0.277039	-0.834999	0.475423
19955	4.143630	-2.735719	-2.251671	-0.950802	0.503740	-0.513730	-0.059100	0.513123	0.856278	-0.956286	0.216994	-0.196036	-0.286398	-0.830432	0.477868
19956	4.068355	-2.424231	-2.473016	-0.812226	0.309633	-0.433513	-0.054117	0.514696	0.855663	-0.954185	0.225890	-0.196225	-0.294282	-0.827080	0.478891
19957	3.865059	-2.157040	-2.818541	-0.733965	0.148189	-0.360000	-0.050272	0.515072	0.855671	-0.952204	0.233748	-0.196648	-0.301299	-0.824659	0.478703
19958	3.356482	-1.915198	-3.084121	-0.698637	-0.011557	-0.320900	-0.047312	0.514183	0.856375	-0.950245	0.241092	-0.197254	-0.307890	-0.823098	0.477193
19959	3.057016	-1.996994	-3.062146	-0.669671	-0.151615	-0.311519	-0.044860	0.512148	0.857725	-0.948322	0.248142	-0.197764	-0.314122	-0.822271	0.474549
19960	2.636421	-2.466521	-2.556603	-0.514848	-0.276588	-0.301439	-0.042937	0.509085	0.859645	-0.946839	0.253853	-0.197624	-0.318831	-0.822430	0.471122
19961	2.561365	-3.451765	-1.964338	-0.164596	-0.449280	-0.306855	-0.041507	0.504572	0.862371	-0.946459	0.256705	-0.195752	-0.320146	-0.824324	0.466901
19962	2.791191	-3.998270	-1.246548	0.330899	-0.701822	-0.401001	-0.040002	0.497711	0.866420	-0.947689	0.255917	-0.190764	-0.316677	-0.828728	0.461439
19963	2.864947	-3.570687	-0.087598	0.857199	-1.010591	-0.624130	-0.037282	0.487681	0.872225	-0.950623	0.251798	-0.181419	-0.308099	-0.835921	0.454214
19964	3.026816	-2.836145	0.722434	1.359985	-1.375172	-0.924103	-0.032677	0.473790	0.880032	-0.955058	0.244742	-0.167227	-0.294611	-0.845946	0.444499
19965	4.399135	-1.875974	1.690112	1.740028	-1.837723	-1.191837	-0.026569	0.455228	0.889979	-0.960401	0.235386	-0.149073	-0.277351	-0.858697	0.430947
19966	7.292924	-2.266816	3.940043	1.963413	-2.249930	-1.347913	-0.019662	0.432609	0.901367	-0.965980	0.224305	-0.128726	-0.257869	-0.873234	0.413481
19967	11.254261	-3.161590	6.155877	2.156702	-2.411921	-1.367624	-0.012426	0.408350	0.912741	-0.971543	0.211000	-0.107626	-0.236538	-0.888104	0.394108
19968	14.855084	-3.413080	8.049217	2.371551	-2.309656	-1.327044	-0.004744	0.384943	0.922928	-0.977001	0.194973	-0.086343	-0.213184	-0.902111	0.375164
19969	17.081178	-2.211351	10.086971	2.461831	-2.050160	-1.196509	0.002801	0.364056	0.931373	-0.981973	0.177032	-0.066245	-0.189000	-0.914397	0.357989
19970	17.914797	0.524591	12.532916	2.303556	-1.613463	-1.012248	0.009843	0.347481	0.937636	-0.986012	0.159397	-0.048720	-0.166386	-0.924040	0.344189
19971	16.649173	3.110207	15.771991	1.881555	-1.148350	-0.855534	0.016439	0.335495	0.941899	-0.988864	0.144808	-0.034321	-0.147909	-0.930846	0.334140
19972	14.659280	4.583234	16.675922	1.401230	-0.685325	-0.649819	0.021854	0.328153	0.944372	-0.990724	0.133831	-0.023577	-0.134123	-0.935096	0.328034
19973	8.417881	5.130898	14.825154	0.851278	-0.492960	-0.341678	0.024566	0.323073	0.946055	-0.991758	0.126916	-0.017589	-0.125752	-0.937825	0.323528
19974	4.134255	4.800015	9.184687	0.220380	-1.013323	0.042326	0.022832	0.313562	0.949293	-0.992050	0.124651	-0.017313	-0.123759	-0.941351	0.313915
19975	7.684602	3.668474	0.837899	-0.419090	-1.615912	0.288969	0.017908	0.298676	0.954187	-0.991587	0.127669	-0.021352	-0.128197	-0.945777	0.298449
19976	14.443015	0.262036	-2.837854	-1.364621	-1.585352	0.458096	0.011179	0.284227	0.958692	-0.989818	0.139201	-0.029728	-0.141900	-0.948598	0.282889
19977	18.167485	-1.983035	2.460149	-2.874070	-0.910073	0.579978	0.004009	0.276473	0.961013	-0.985383	0.164763	-0.043290	-0.170308	-0.946793	0.273092
19978	12.799535	-3.915328	8.858164	-3.983775	-0.254115	0.409459	-0.000546	0.274783	0.961506	-0.977835	0.201169	-0.058046	-0.209375	-0.940226	0.268583
19979	8.690815	-5.701165	7.714809	-3.634265	-0.504981	0.048716	-0.002194	0.270153	0.962815	-0.969593	0.235039	-0.068159	-0.244712	-0.933688	0.261423
19980	11.532622	-9.527496	2.125705	-2.698805	-0.877628	-0.081105	-0.003728	0.261739	0.965132	-0.962652	0.260339	-0.074321	-0.270714	-0.929363	0.250993
19981	12.871478	-13.144612	-0.935729	-1.620929	-0.840842	-0.102297	-0.005129	0.253664	0.967279	-0.958156	0.275596	-0.077354	-0.286200	-0.927201	0.241637
19982	9.667592	-12.248042	-0.984147	-0.338240	-0.840382	-0.293561	-0.004792	0.245017	0.969507	-0.957211	0.279410	-0.075345	-0.289350	-0.928384	0.233194
19983	8.096981	-6.910904	-1.408620	0.947582	-1.026236	-0.500629	-0.002982	0.234088	0.972211	-0.959942	0.271729	-0.068371	-0.280183	-0.933470	0.223901
19984	8.392836	0.356959	-2.156666	1.669138	-1.075515	-0.585394	-0.000332	0.222425	0.974950	-0.964507	0.257370	-0.059045	-0.264056	-0.940366	0.214446
19985	9.057602	6.373706	-1.251993	1.500621	-0.998882	-0.570059	0.002540	0.211570	0.977359	-0.968367	0.244392	-0.050388	-0.249519	-0.946314	0.205498
19986	11.033196	9.320880	-0.507986	0.786579	-0.899639	-0.463391	0.004766	0.201884	0.979398	-0.970294	0.237836	-0.044303	-0.241880	-0.950093	0.197020
19987	11.510934	9.362649	-1.344762	-0.098524	-0.868475	-0.280787	0.005328	0.192944	0.981195	-0.970053	0.239272	-0.041783	-0.242834	-0.951589	0.188441
19988	10.783468	5.935606	-2.613938	-0.905722	-0.920840	-0.138463	0.004338	0.183808	0.982953	-0.967820	0.248095	-0.042121	-0.251608	-0.951138	0.178969
19989	10.450168	1.699641	-3.620424	-1.246572	-0.975428	-0.101132	0.002758	0.174257	0.984696	-0.964617	0.260072	-0.043322	-0.263641	-0.949735	0.168809
19990	10.010079	-1.327787	-4.056788	-1.112539	-0.992313	-0.140518	0.001386	0.164428	0.986388	-0.961635	0.270816	-0.043793	-0.274330	-0.948484	0.158495
19991	9.441244	-2.946781	-4.021796	-0.840624	-1.033343	-0.173103	0.000125	0.154123	0.988052	-0.959307	0.279011	-0.043401	-0.282366	-0.947839	0.147886
19992	9.435480	-3.246593	-3.458441	-0.530639	-1.104373	-0.199116	-0.001169	0.143056	0.989714	-0.957810	0.284284	-0.042223	-0.287400	-0.948007	0.136689
19993	9.696829	-2.640388	-2.767101	-0.219867	-1.166987	-0.200213	-0.002674	0.131377	0.991329	-0.957194	0.286592	-0.040563	-0.289436	-0.949002	0.124987
19994	9.632657	-1.806548	-2.191700	-0.002973	-1.214147	-0.174515	-0.004574	0.119308	0.992847	-0.957205	0.286787	-0.038872	-0.289373	-0.950536	0.112891
19995	9.291633	-1.415501	-2.140568	0.109626	-1.298454	-0.174496	-0.006714	0.106409	0.994300	-0.957546	0.285888	-0.037062	-0.288202	-0.952337	0.099972
19996	9.462957	-1.327777	-2.105945	0.194583	-1.368385	-0.190364	-0.008877	0.092785	0.995647	-0.958133	0.284172	-0.035025	-0.286184	-0.954273	0.086377
19997	9.937563	-1.366721	-1.797900	0.293973	-1.402430	-0.205563	-0.010964	0.078755	0.996834	-0.959005	0.281487	-0.032787	-0.283178	-0.956328	0.072440
19998	9.184425	-0.715112	-1.600288	0.406982	-1.442839	-0.207284	-0.013087	0.064324	0.997843	-0.960187	0.277689	-0.030494	-0.279051	-0.958515	0.058129
19999	8.969929	-0.423745	-1.238481	0.449671	-1.480146	-0.186439	-0.015460	0.049552	0.998652	-0.961472	0.273428	-0.028451	-0.274469	-0.960615	0.043416
20000	9.171317	0.193041	-0.486960	0.455677	-1.483893	-0.128335	-0.018319	0.034897	0.999223	-0.962746	0.269052	-0.027047	-0.269786	-0.962493	0.028668
20001	9.960793	0.920058	0.058854	0.403778	-1.474128	-0.083039	-0.021532	0.020418	0.999560	-0.963856	0.265134	-0.026179	-0.265552	-0.963995	0.013971
20002	10.247758	1.593262	0.590892	0.261117	-1.422582	-0.057769	-0.024788	0.006507	0.999672	-0.964571	0.262575	-0.025626	-0.262656	-0.964890	-0.000233
20003	10.201058	1.918483	1.087862	0.047632	-1.377009	-0.028813	-0.028184	-0.006915	0.999579	-0.964716	0.262066	-0.025388	-0.261780	-0.965025	-0.014057
20004	10.064191	1.936833	1.204420	-0.192916	-1.328858	-0.008806	-0.031643	-0.019796	0.999303	-0.964224	0.263879	-0.025305	-0.263195	-0.964353	-0.027438
20005	10.228820	1.439878	0.751649	-0.408242	-1.261348	0.020236	-0.035239	-0.031955	0.998868	-0.963147	0.267771	-0.025412	-0.266656	-0.962952	-0.040213
20006	10.180385	0.803536	0.120195	-0.540104	-1.208379	0.059038	-0.039113	-0.043458	0.998289	-0.961684	0.272944	-0.025797	-0.271356	-0.961048	-0.052469
20007	10.125368	0.267878	-0.307228	-0.592698	-1.170503	0.086493	-0.043207	-0.054511	0.997578	-0.960037	0.278631	-0.026356	-0.276519	-0.958850	-0.064371
20008	9.972437	0.218750	-0.401118	-0.575117	-1.142870	0.091479	-0.047329	-0.065237	0.996747	-0.958402	0.284149	-0.026911	-0.281469	-0.956558	-0.075971
20009	9.689103	0.471261	-0.879145	-0.516540	-1.141012	0.056323	-0.051161	-0.076031	0.995792	-0.956922	0.289080	-0.027092	-0.285804	-0.954281	-0.087545
20010	9.757028	0.487109	-1.288464	-0.497231	-1.159713	0.017428	-0.054722	-0.087070	0.994698	-0.955493	0.293790	-0.026849	-0.289895	-0.951896	-0.099272
20011	9.514215	0.412702	-1.381529	-0.475412	-1.173647	-0.008216	-0.058123	-0.098306	0.993457	-0.954122	0.298259	-0.026308	-0.293722	-0.949409	-0.111132
20012	9.007929	-0.100341	-1.483216	-0.405080	-1.218407	-0.028834	-0.061502	-0.109981	0.992029	-0.952955	0.302028	-0.025596	-0.296806	-0.946933	-0.123383
20013	9.099957	-0.856622	-1.215324	-0.325266	-1.255053	-0.012588	-0.065176	-0.121943	0.990395	-0.952006	0.305049	-0.025090	-0.299059	-0.944497	-0.135973
20014	9.715936	-1.838644	-0.790517	-0.180136	-1.220012	0.015058	-0.069030	-0.133443	0.988649	-0.951468	0.306727	-0.025033	-0.299905	-0.942397	-0.148140
20015	9.797618	-2.323227	-0.307317	0.050950	-1.172124	0.037918	-0.072954	-0.144417	0.986824	-0.951606	0.306259	-0.025531	-0.298537	-0.940930	-0.159771
20016	10.305607	-2.105873	0.201596	0.297219	-1.128770	0.039619	-0.076737	-0.154949	0.984938	-0.952469	0.303483	-0.026464	-0.294812	-0.940154	-0.170872
20017	10.797152	-1.478559	0.966633	0.503356	-1.060068	0.025579	-0.080134	-0.164886	0.983052	-0.953930	0.298752	-0.027651	-0.289130	-0.939978	-0.181230
20018	11.006171	-0.739857	1.507544	0.613001	-0.959589	0.011982	-0.083047	-0.173907	0.981254	-0.955683	0.292971	-0.028960	-0.282443	-0.940172	-0.190531
20019	11.154704	-0.294971	1.589485	0.637505	-0.852644	0.012938	-0.085608	-0.181931	0.979578	-0.957460	0.286961	-0.030380	-0.275573	-0.940508	-0.198757
20020	11.118479	-0.201999	1.387013	0.665890	-0.759865	0.022047	-0.087942	-0.189053	0.978021	-0.959262	0.280699	-0.031996	-0.268481	-0.940993	-0.206037
20021	10.636201	-0.244638	1.016557	0.751234	-0.694487	0.054995	-0.090362	-0.195475	0.976537	-0.961210	0.273695	-0.034158	-0.260597	-0.941743	-0.212624
20022	10.018058	-0.299091	0.468911	0.862806	-0.673320	0.104353	-0.093146	-0.201575	0.975034	-0.963332	0.265735	-0.037091	-0.251624	-0.942737	-0.218936
20023	9.481317	-0.396569	-0.104486	0.945259	-0.690010	0.142892	-0.096279	-0.207742	0.973434	-0.965537	0.257075	-0.040636	-0.241803	-0.943799	-0.225334
20024	9.530071	-0.782573	-0.558157	0.988209	-0.737515	0.166880	-0.099692	-0.214323	0.971662	-0.967719	0.248058	-0.044572	-0.231476	-0.944740	-0.232134
20025	9.183758	-1.173722	-0.934762	1.031275	-0.795729	0.169157	-0.103181	-0.221461	0.969695	-0.969885	0.238644	-0.048699	-0.220626	-0.945518	-0.239416
20026	9.081372	-1.399202	-0.973557	1.005785	-0.848058	0.185604	-0.106862	-0.229086	0.967523	-0.971862	0.229513	-0.052998	-0.209918	-0.945962	-0.247166
20027	9.416558	-1.682949	-0.746402	0.954882	-0.872852	0.208249	-0.110727	-0.236902	0.965203	-0.973596	0.220929	-0.057464	-0.199628	-0.946080	-0.255110
20028	9.479122	-1.687219	-0.363855	0.932663	-0.866900	0.189362	-0.114311	-0.244733	0.962829	-0.975202	0.212526	-0.061760	-0.189511	-0.946012	-0.262958
20029	9.979089	-1.299288	0.065993	0.914267	-0.856479	0.146403	-0.117373	-0.252554	0.960438	-0.976723	0.204206	-0.065666	-0.179543	-0.945789	-0.270643
20030	10.799201	-0.905760	0.254823	0.886737	-0.785068	0.104730	-0.119820	-0.259809	0.958198	-0.978152	0.196053	-0.069156	-0.169890	-0.945549	-0.277623
20031	11.393338	-0.369899	0.688490	0.859416	-0.667620	0.111980	-0.122070	-0.265926	0.956233	-0.979439	0.188187	-0.072698	-0.160618	-0.945447	-0.283430
20032	11.818333	-0.483106	1.188647	0.839459	-0.471149	0.158815	-0.124413	-0.270129	0.954752	-0.980557	0.180640	-0.076667	-0.151757	-0.945727	-0.287351
20033	11.624410	-1.322061	1.597090	0.897139	-0.288102	0.239762	-0.127238	-0.272444	0.953722	-0.981577	0.172768	-0.081600	-0.142541	-0.946534	-0.289407
20034	11.668542	-2.541306	2.079780	1.051436	-0.160933	0.317541	-0.130627	-0.273476	0.952968	-0.982611	0.163641	-0.087730	-0.131952	-0.947857	-0.290096
20035	11.520865	-3.579913	2.828608	1.320307	-0.016745	0.371618	-0.134349	-0.273052	0.952572	-0.983775	0.152093	-0.095153	-0.118897	-0.949900	-0.289055
20036	11.420509	-4.394217	3.700141	1.610299	0.104490	0.413428	-0.138352	-0.271502	0.952442	-0.984999	0.137866	-0.103781	-0.103133	-0.952512	-0.286503
20037	11.812171	-5.230264	4.374209	1.845540	0.210176	0.483217	-0.142966	-0.268862	0.952509	-0.986055	0.121527	-0.113698	-0.085186	-0.955481	-0.282487
20038	12.152728	-5.611622	5.680320	2.036332	0.345943	0.592348	-0.148595	-0.264929	0.952750	-0.986723	0.103582	-0.125091	-0.065548	-0.958688	-0.276804
20039	12.121959	-5.730344	7.059403	2.302225	0.551187	0.711188	-0.155367	-0.258949	0.953314	-0.986894	0.083289	-0.138216	-0.043610	-0.962293	-0.268495
20040	12.466610	-5.046699	8.432708	2.547737	0.758777	0.824733	-0.163310	-0.251085	0.954089	-0.986380	0.060791	-0.152839	-0.019624	-0.966054	-0.257593
20041	13.267979	-3.607047	9.189611	2.930287	1.074189	0.891346	-0.172089	-0.240220	0.955343	-0.985053	0.034562	-0.168750	0.007519	-0.970103	-0.242577
20042	14.877911	-1.209811	8.923085	3.323488	1.452941	0.901046	-0.181325	-0.225968	0.957110	-0.982700	0.004313	-0.185155	0.037711	-0.974125	-0.222841
20043	16.430576	1.137970	6.871212	3.382737	1.929716	0.897813	-0.191203	-0.207171	0.959438	-0.979237	-0.026820	-0.200939	0.067361	-0.977937	-0.197742
20044	15.811304	2.456897	4.788561	2.937705	2.435071	0.915884	-0.202124	-0.183733	0.961971	-0.975091	-0.053854	-0.215167	0.091339	-0.981500	-0.168272
20045	13.683931	3.080421	3.004810	2.219656	2.837254	0.868204	-0.213433	-0.156314	0.964372	-0.971070	-0.074267	-0.226953	0.107097	-0.984911	-0.135941
20046	12.224431	3.508678	1.499709	1.502374	3.028459	0.715612	-0.223772	-0.127073	0.966322	-0.967821	-0.088116	-0.235707	0.115101	-0.987972	-0.103266
20047	12.948205	3.816536	0.511083	0.868691	3.057463	0.513118	-0.232306	-0.097212	0.967772	-0.965631	-0.096203	-0.241456	0.116575	-0.990603	-0.071522
20048	15.137058	3.953932	-0.805187	0.273490	3.000171	0.187348	-0.237583	-0.067695	0.969005	-0.964863	-0.098806	-0.243470	0.112225	-0.992801	-0.041842
20049	17.628340	3.919819	-2.516791	-0.236144	2.882602	-0.215578	-0.238624	-0.038752	0.970339	-0.965621	-0.096643	-0.241323	0.103128	-0.994564	-0.014358
20050	18.790826	3.995029	-4.351827	-0.700323	2.716961	-0.589705	-0.235584	-0.011216	0.971789	-0.967680	-0.089868	-0.235625	0.089975	-0.995891	0.010318
20051	18.562897	4.015783	-5.690525	-1.076336	2.525927	-0.855523	-0.229362	0.014759	0.973229	-0.970546	-0.079194	-0.227528	0.073716	-0.996750	0.032488
20052	17.712493	4.037072	-6.641063	-1.255208	2.445030	-0.957106	-0.221683	0.039776	0.974307	-0.973506	-0.066470	-0.218787	0.056059	-0.996995	0.053458
20053	16.052725	3.275476	-6.937247	-1.394656	2.499436	-0.896795	-0.214091	0.065295	0.974629	-0.976110	-0.052157	-0.210922	0.037062	-0.996502	0.074902
20054	14.622179	1.169129	-6.138143	-1.454593	2.634008	-0.681176	-0.208193	0.091778	0.973772	-0.977934	-0.037189	-0.205577	0.017346	-0.995085	0.097495
20055	13.937421	-0.669006	-4.750299	-1.510533	2.834442	-0.380649	-0.204645	0.120119	0.971438	-0.978831	-0.021830	-0.203503	-0.003238	-0.992519	0.122044
20056	13.181472	-1.601011	-3.435781	-1.693056	3.069154	-0.138592	-0.202882	0.150491	0.967570	-0.978858	-0.004924	-0.204483	-0.026008	-0.988599	0.148308
20057	12.318463	-2.236417	-2.871706	-1.829815	3.096510	-0.104242	-0.200659	0.181069	0.962782	-0.978378	0.013234	-0.206399	-0.050114	-0.983381	0.174498
20058	11.498134	-2.988838	-3.035221	-1.804993	2.912388	-0.207199	-0.196878	0.209527	0.957777	-0.977669	0.031279	-0.207810	-0.073500	-0.977302	0.198690
20059	11.348924	-3.938291	-3.391698	-1.608889	2.709117	-0.286969	-0.191777	0.235840	0.952681	-0.976885	0.047531	-0.208416	-0.094435	-0.970629	0.221273
20060	10.970832	-4.456036	-3.571603	-1.336277	2.624105	-0.360790	-0.185587	0.260974	0.947338	-0.976180	0.061292	-0.208123	-0.112379	-0.963398	0.243382
20061	10.185479	-4.744453	-3.775261	-1.043166	2.614428	-0.459278	-0.177957	0.285780	0.941627	-0.975775	0.072498	-0.206414	-0.127255	-0.955549	0.265956
20062	9.527122	-4.814497	-3.856953	-0.810363	2.610280	-0.612148	-0.168550	0.310096	0.935645	-0.975753	0.081973	-0.202943	-0.139629	-0.947165	0.288761
20063	8.688016	-4.308780	-3.604895	-0.631266	2.543484	-0.750400	-0.157538	0.333447	0.929513	-0.976073	0.090280	-0.197816	-0.149877	-0.938436	0.311246
20064	7.846365	-2.751926	-3.143575	-0.516176	2.419524	-0.812476	-0.145925	0.355239	0.923315	-0.976511	0.097838	-0.191975	-0.158533	-0.929641	0.332618
20065	7.522238	-1.399868	-2.981673	-0.559929	2.307448	-0.813624	-0.134221	0.375764	0.916944	-0.976749	0.105933	-0.186387	-0.167172	-0.920641	0.352808
20066	7.317208	-0.449774	-3.181063	-0.730948	2.253153	-0.768245	-0.122890	0.395508	0.910204	-0.976481	0.115530	-0.182039	-0.177153	-0.911168	0.372008
20067	7.076115	0.149396	-3.252749	-0.998539	2.234939	-0.719326	-0.111775	0.414880	0.902984	-0.975506	0.127434	-0.179302	-0.189460	-0.900908	0.390474
20068	6.940720	0.284322	-2.949291	-1.250029	2.170696	-0.681237	-0.100918	0.433363	0.895551	-0.973777	0.141455	-0.178185	-0.203899	-0.890049	0.407723
20069	6.825799	0.061552	-2.701842	-1.445378	2.080340	-0.656332	-0.090131	0.450769	0.888079	-0.971354	0.157082	-0.178315	-0.219880	-0.878711	0.423698
20070	6.518988	-0.421914	-2.519171	-1.552381	1.964402	-0.615217	-0.079735	0.466863	0.880728	-0.968341	0.173395	-0.179581	-0.236554	-0.867164	0.438257
20071	6.011241	-1.245270	-2.435057	-1.573914	1.804423	-0.562447	-0.069888	0.481367	0.873729	-0.964925	0.189564	-0.181620	-0.253053	-0.855775	0.451235
20072	5.278715	-2.072753	-2.326623	-1.485763	1.579302	-0.523664	-0.060782	0.493731	0.867488	-0.961403	0.204691	-0.183862	-0.268346	-0.845181	0.462233
20073	4.692961	-2.680518	-2.333060	-1.277782	1.285213	-0.540106	-0.052079	0.503367	0.862502	-0.958214	0.218069	-0.185126	-0.281272	-0.836102	0.470977
20074	4.271546	-2.860142	-2.235211	-0.991057	0.958047	-0.564312	-0.043993	0.510049	0.859020	-0.955660	0.229118	-0.184982	-0.291166	-0.829069	0.477354
20075	3.965472	-2.811791	-2.153825	-0.674213	0.635809	-0.611871	-0.036299	0.513845	0.857115	-0.953939	0.237767	-0.182942	-0.297797	-0.824276	0.481546
20076	3.718291	-2.243579	-2.436093	-0.351048	0.332669	-0.668919	-0.028981	0.514939	0.856737	-0.953119	0.244034	-0.178917	-0.301205	-0.821757	0.483726
20077	3.636249	-1.436611	-2.834054	-0.145961	0.081052	-0.719526	-0.021906	0.513795	0.857633	-0.952880	0.248878	-0.173438	-0.302557	-0.821021	0.484133
20078	3.152258	-1.504815	-2.846610	-0.112482	-0.092851	-0.729098	-0.015298	0.511169	0.859344	-0.952688	0.253475	-0.167736	-0.303564	-0.821253	0.483107
20079	2.433009	-1.956920	-3.036863	-0.094891	-0.239190	-0.712431	-0.009270	0.507340	0.861696	-0.952505	0.257827	-0.162047	-0.304381	-0.822272	0.480854
20080	2.264244	-2.681232	-2.713097	0.156813	-0.457108	-0.664992	-0.004379	0.501822	0.864960	-0.953041	0.259828	-0.155569	-0.302809	-0.825024	0.477119
20081	2.802755	-3.391004	-1.988633	0.472249	-0.747487	-0.652598	-0.000438	0.493895	0.869522	-0.954493	0.259112	-0.147659	-0.298232	-0.830017	0.471306
20082	3.113195	-4.277397	-0.943293	0.776636	-1.025879	-0.726423	0.003426	0.483440	0.875371	-0.956784	0.256126	-0.137706	-0.290778	-0.837069	0.463425
20083	3.502840	-5.044680	-0.541984	1.111319	-1.353313	-0.862303	0.007782	0.469810	0.882733	-0.959924	0.250824	-0.125032	-0.280152	-0.846384	0.452934
20084	4.068311	-5.138074	-0.551177	1.480622	-1.733907	-1.034819	0.012945	0.452444	0.891699	-0.963875	0.242915	-0.109261	-0.266042	-0.858071	0.439244
20085	5.786647	-3.864257	-0.462948	1.790218	-2.201433	-1.146867	0.018302	0.430616	0.902349	-0.968320	0.232431	-0.091280	-0.249041	-0.872092	0.421228
20086	8.939053	-3.219379	2.563933	1.702177	-2.537385	-1.163618	0.023422	0.405621	0.913741	-0.972193	0.222266	-0.073746	-0.233007	-0.886606	0.399547
20087	12.672064	-3.103867	6.304927	1.686395	-2.572364	-1.133696	0.028615	0.380113	0.924497	-0.975707	0.211590	-0.056797	-0.217203	-0.900413	0.376933
20088	15.580015	-1.813048	9.330095	2.062175	-2.397085	-1.099979	0.034343	0.356086	0.933822	-0.979651	0.196874	-0.039044	-0.197749	-0.913479	0.355601
20089	17.917098	0.567879	12.558464	2.330148	-2.018506	-1.033963	0.040666	0.335527	0.941152	-0.983624	0.178968	-0.021303	-0.175584	-0.924874	0.337310
20090	18.812679	3.310437	15.944343	2.235694	-1.438026	-0.984761	0.047946	0.320448	0.946052	-0.986884	0.161364	-0.004642	-0.154147	-0.933421	0.323982
20091	16.922465	5.704232	17.988830	1.722395	-0.933625	-0.920177	0.055625	0.310233	0.949032	-0.988929	0.148080	0.009558	-0.137568	-0.939057	0.315035
20092	14.776434	7.231678	17.352774	0.957618	-0.606316	-0.722322	0.061916	0.303442	0.950836	-0.989787	0.141229	0.019382	-0.128404	-0.942326	0.309087
20093	11.279669	7.277924	14.516409	0.311799	-0.188615	-0.507226	0.066665	0.300921	0.951316	-0.989865	0.139766	0.025155	-0.125392	-0.943352	0.307188
20094	3.641476	4.464729	8.590620	-0.382595	-0.443236	-0.072530	0.066768	0.296592	0.952667	-0.989338	0.143534	0.024652	-0.129429	-0.944156	0.303014
20095	5.227781	1.218990	1.840005	-0.989797	-1.275730	0.383131	0.061243	0.285083	0.956544	-0.988258	0.151725	0.018054	-0.139985	-0.946418	0.291028
20096	12.424364	-0.671962	-0.762651	-1.543925	-1.472881	0.469965	0.054372	0.271833	0.960807	-0.986254	0.164983	0.009135	-0.156034	-0.948097	0.277067
