// General information: 
//  MT Manager version: 2022.2.0 
//  XDA version: 2022.2.0 build 7381 rev 124627 built on 2023-07-19
// Device information: 
//  DeviceId: 00B4CBA7
//  ProductCode: MTW2-3A7G6
//  Firmware Version: 4.6.0
//  Hardware Version: 2.0.0
// Device settings: 
//  Filter Profile: human(46.1)
//  Option Flags: Orientation Smoother Disabled, Position/Velocity Smoother Disabled, Continuous Zero Rotation Update Disabled, AHS Disabled, ICC Disabled
// Coordinate system: ENU
PacketCounter	Acc_X	Acc_Y	Acc_Z	Gyr_X	Gyr_Y	Gyr_Z	Mat[1][1]	Mat[2][1]	Mat[3][1]	Mat[1][2]	Mat[2][2]	Mat[3][2]	Mat[1][3]	Mat[2][3]	Mat[3][3]
17245	8.014031	2.347984	-3.935610	0.621968	0.987289	-0.631049	-0.091584	-0.293979	0.951414	-0.691352	0.706408	0.151723	-0.716690	-0.643867	-0.267939
17246	8.238729	2.386333	-3.536469	0.414375	0.856770	-0.540830	-0.081670	-0.292269	0.952843	-0.694772	0.702148	0.155822	-0.714578	-0.649282	-0.260404
17247	8.481594	2.061153	-3.271217	0.247344	0.731563	-0.441348	-0.073342	-0.290622	0.954023	-0.696868	0.699253	0.159439	-0.713439	-0.653135	-0.253810
17248	8.606651	2.211522	-2.751620	0.136387	0.622298	-0.326412	-0.066592	-0.288849	0.955056	-0.698054	0.697419	0.162256	-0.712942	-0.655876	-0.248075
17249	8.660345	2.381595	-2.437193	-0.006378	0.489679	-0.206890	-0.061624	-0.287099	0.955917	-0.698128	0.696869	0.164291	-0.713316	-0.657228	-0.243375
17250	8.702962	2.272668	-2.604820	-0.136307	0.361555	-0.085342	-0.058412	-0.285338	0.956645	-0.697190	0.697525	0.165480	-0.714502	-0.657298	-0.239678
17251	8.746633	2.384673	-2.557861	-0.256578	0.235668	0.028117	-0.056891	-0.283617	0.957249	-0.695326	0.699294	0.165864	-0.716440	-0.656163	-0.236989
17252	9.363020	2.369557	-2.248029	-0.378819	0.103205	0.156530	-0.057201	-0.281864	0.957748	-0.692502	0.702222	0.165304	-0.719145	-0.653786	-0.235360
17253	10.285232	2.496131	-2.400699	-0.399538	0.007713	0.281785	-0.059062	-0.279854	0.958224	-0.689445	0.705624	0.163586	-0.721926	-0.650981	-0.234619
17254	10.555980	1.834753	-2.890251	-0.483199	-0.011700	0.243082	-0.060783	-0.278231	0.958589	-0.685788	0.709444	0.162432	-0.725259	-0.647515	-0.233929
17255	10.894691	1.152977	-2.311842	-0.272252	0.118618	0.144889	-0.060882	-0.276459	0.959095	-0.683709	0.711610	0.161720	-0.727211	-0.645896	-0.232342
17256	10.976129	2.314204	-1.822380	-0.104159	0.219629	0.090129	-0.059865	-0.274420	0.959745	-0.682881	0.712536	0.161140	-0.728073	-0.645745	-0.230052
17257	10.809659	2.627793	-1.474843	0.009550	0.250156	0.056324	-0.058398	-0.272426	0.960403	-0.682903	0.712632	0.160619	-0.728171	-0.646483	-0.227657
17258	10.532272	3.135881	-1.819823	0.241300	0.241257	-0.020192	-0.056470	-0.271028	0.960914	-0.684655	0.711020	0.160310	-0.726677	-0.648841	-0.225712
17259	10.085691	2.884470	-2.446442	0.480718	0.195039	-0.047290	-0.054699	-0.270118	0.961272	-0.688152	0.707768	0.159725	-0.723502	-0.652764	-0.224596
17260	9.673677	3.652778	-2.602512	0.523920	0.166574	0.007442	-0.053513	-0.268995	0.961654	-0.691913	0.704363	0.158522	-0.719995	-0.656898	-0.223814
17261	9.567746	2.969401	-2.857530	0.349865	0.135829	0.069861	-0.052989	-0.267634	0.962062	-0.694377	0.702250	0.157112	-0.717657	-0.659709	-0.223051
17262	9.560944	2.689224	-2.828303	0.241233	0.150234	0.121020	-0.052718	-0.265813	0.962582	-0.696027	0.700985	0.155455	-0.716078	-0.661788	-0.221968
17263	9.680653	2.144587	-2.853007	0.126248	0.191922	0.138798	-0.052278	-0.263594	0.963216	-0.696844	0.700520	0.153884	-0.715315	-0.663166	-0.220305
17264	9.481361	0.809512	-3.203909	0.016818	0.230553	0.127773	-0.051484	-0.261189	0.963914	-0.696882	0.700750	0.152659	-0.715336	-0.663874	-0.218096
17265	8.855760	-0.603619	-3.449421	0.097241	0.284826	0.111785	-0.050193	-0.258539	0.964696	-0.697506	0.700399	0.151415	-0.714818	-0.665282	-0.215488
17266	8.391162	-0.140559	-3.504499	0.265146	0.323163	0.091478	-0.048490	-0.255765	0.965522	-0.699339	0.698873	0.150008	-0.713144	-0.667953	-0.212754
17267	8.994130	1.165252	-3.025067	0.384565	0.352578	0.060067	-0.046367	-0.253010	0.966352	-0.702034	0.696455	0.148660	-0.710633	-0.671519	-0.209914
17268	9.736613	2.290372	-2.112400	0.413916	0.364987	0.037271	-0.044005	-0.250313	0.967164	-0.704937	0.693768	0.147481	-0.707904	-0.675300	-0.206984
17269	10.234710	2.581475	-1.569658	0.379868	0.360392	0.042337	-0.041726	-0.247604	0.967962	-0.707589	0.691306	0.146334	-0.705391	-0.678814	-0.204047
17270	10.320167	2.118012	-1.276260	0.294084	0.334495	0.057696	-0.039743	-0.244950	0.968721	-0.709621	0.689455	0.145222	-0.703462	-0.681653	-0.201223
17271	10.221259	1.270871	-1.404372	0.260652	0.310054	0.065269	-0.037996	-0.242408	0.969430	-0.711413	0.687840	0.144112	-0.701747	-0.684189	-0.198587
17272	9.974987	1.267728	-1.660677	0.312079	0.312157	0.075374	-0.036310	-0.239769	0.970151	-0.713556	0.685889	0.142809	-0.699657	-0.687071	-0.195993
17273	9.496677	2.604103	-1.754318	0.276357	0.296594	0.093619	-0.034874	-0.237110	0.970857	-0.715439	0.684216	0.141405	-0.697805	-0.689657	-0.193499
17274	9.448669	2.589954	-1.587404	0.056264	0.229983	0.111680	-0.034033	-0.234778	0.971453	-0.715777	0.684099	0.140256	-0.697499	-0.690570	-0.191331
17275	10.005403	1.161135	-1.270140	-0.027113	0.191048	0.098818	-0.033375	-0.232806	0.971950	-0.715538	0.684526	0.139391	-0.697776	-0.690816	-0.189427
17276	10.156943	0.544962	-1.076771	0.106317	0.211530	0.079488	-0.032433	-0.230819	0.972456	-0.716238	0.683983	0.138460	-0.697102	-0.692019	-0.187505
17277	9.959344	0.413348	-1.203165	0.149865	0.217831	0.072689	-0.031403	-0.228836	0.972958	-0.717243	0.683118	0.137517	-0.696115	-0.693529	-0.185584
17278	9.729226	0.288952	-1.681474	0.192535	0.230452	0.056032	-0.030167	-0.226873	0.973457	-0.718549	0.681917	0.136660	-0.694822	-0.695354	-0.183591
17279	9.361711	0.719439	-1.847811	0.193908	0.239581	0.042952	-0.028780	-0.224935	0.973949	-0.719867	0.680672	0.135930	-0.693515	-0.697202	-0.181513
17280	9.377027	1.098776	-1.908167	0.131827	0.231198	0.031509	-0.027369	-0.223126	0.974405	-0.720756	0.679831	0.135428	-0.692648	-0.698602	-0.179426
17281	9.486895	1.549475	-1.780576	0.082086	0.224133	0.027188	-0.025980	-0.221397	0.974838	-0.721302	0.679325	0.135059	-0.692133	-0.699644	-0.177343
17282	9.630842	1.595996	-1.508279	-0.018872	0.199941	0.022502	-0.024723	-0.219864	0.975217	-0.721150	0.679515	0.134916	-0.692338	-0.699942	-0.175355
17283	9.807441	1.108729	-1.264002	-0.060967	0.178617	0.016103	-0.023569	-0.218527	0.975546	-0.720708	0.679985	0.134908	-0.692838	-0.699904	-0.173521
17284	9.815159	0.965690	-1.108682	-0.025652	0.170435	0.003382	-0.022376	-0.217330	0.975842	-0.720513	0.680181	0.134962	-0.693080	-0.700087	-0.171810
17285	9.820520	1.151565	-0.848310	-0.000613	0.155758	-0.002509	-0.021246	-0.216279	0.976100	-0.720494	0.680187	0.135030	-0.693135	-0.700406	-0.170279
17286	9.903792	1.125272	-0.817472	-0.020964	0.126338	-0.005992	-0.020291	-0.215454	0.976303	-0.720334	0.680330	0.135167	-0.693331	-0.700521	-0.169004
17287	9.765348	0.859741	-0.903649	-0.025735	0.111827	-0.011886	-0.019397	-0.214773	0.976471	-0.720142	0.680493	0.135368	-0.693555	-0.700572	-0.167867
17288	9.575665	1.124315	-0.925579	-0.001653	0.095703	-0.010434	-0.018622	-0.214193	0.976614	-0.720116	0.680491	0.135516	-0.693604	-0.700752	-0.166916
17289	9.397763	1.704085	-0.792281	-0.012771	0.065568	-0.007969	-0.018077	-0.213809	0.976708	-0.720014	0.680572	0.135657	-0.693725	-0.700791	-0.166248
17290	9.213520	1.902001	-0.360172	-0.049497	0.022513	0.001142	-0.017893	-0.213663	0.976743	-0.719653	0.680930	0.135770	-0.694103	-0.700487	-0.165947
17291	9.436230	1.635148	0.105983	-0.039875	-0.030566	0.012552	-0.018162	-0.213813	0.976706	-0.719358	0.681244	0.135756	-0.694402	-0.700136	-0.166181
17292	9.441372	1.765205	0.354659	0.057525	-0.069834	0.022373	-0.018772	-0.214169	0.976616	-0.719737	0.680898	0.135485	-0.693993	-0.700364	-0.166927
17293	9.354620	2.025897	0.481902	0.087578	-0.120428	0.040203	-0.019863	-0.214760	0.976465	-0.720321	0.680379	0.134988	-0.693356	-0.700687	-0.168210
17294	9.391476	1.466189	0.188629	0.095379	-0.167427	0.052340	-0.021364	-0.215597	0.976249	-0.720955	0.679832	0.134358	-0.692653	-0.700961	-0.169960
17295	9.508229	1.126340	-0.646318	0.156893	-0.186168	0.059326	-0.023046	-0.216520	0.976006	-0.722011	0.678869	0.133554	-0.691497	-0.701610	-0.171975
17296	9.402238	1.365873	-1.391818	0.178481	-0.194728	0.071757	-0.024873	-0.217419	0.975761	-0.723211	0.677780	0.132587	-0.690179	-0.702383	-0.174099
17297	9.525042	1.355000	-1.962722	0.128847	-0.212474	0.068892	-0.026802	-0.218465	0.975477	-0.724066	0.677034	0.131732	-0.689210	-0.702779	-0.176329
17298	9.674750	1.067838	-2.155769	0.083663	-0.215560	0.060494	-0.028689	-0.219590	0.975170	-0.724610	0.676587	0.131037	-0.688562	-0.702858	-0.178528
17299	9.991281	0.639459	-2.186431	0.119389	-0.198911	0.043837	-0.030341	-0.220712	0.974867	-0.725402	0.675853	0.130438	-0.687656	-0.703213	-0.180611
17300	9.858769	1.264320	-2.119040	0.155537	-0.176704	0.033072	-0.031759	-0.221751	0.974586	-0.726445	0.674841	0.129876	-0.686490	-0.703858	-0.182522
17301	9.600527	1.559273	-1.884814	0.088030	-0.180080	0.042780	-0.033270	-0.222750	0.974308	-0.727020	0.674324	0.129341	-0.685810	-0.704038	-0.184379
17302	9.763205	1.524719	-1.422111	0.031233	-0.201241	0.057369	-0.035031	-0.223799	0.974006	-0.727199	0.674241	0.128767	-0.685533	-0.703785	-0.186366
17303	9.739955	2.161136	-0.450381	0.007557	-0.244289	0.097476	-0.037380	-0.224880	0.973669	-0.727200	0.674415	0.127846	-0.685407	-0.703273	-0.188742
17304	9.291042	3.056793	0.968534	-0.096116	-0.331290	0.145418	-0.040672	-0.226245	0.973221	-0.726469	0.675427	0.126657	-0.685995	-0.701863	-0.191831
17305	9.074249	3.109236	2.570470	-0.245372	-0.473189	0.201847	-0.045351	-0.228214	0.972554	-0.724681	0.677613	0.125213	-0.687591	-0.699113	-0.196113
17306	9.398340	2.861867	4.001492	-0.253602	-0.627437	0.275690	-0.051629	-0.230739	0.971645	-0.722786	0.680023	0.123081	-0.689140	-0.695937	-0.201884
17307	9.487976	4.185039	5.201427	-0.126820	-0.790721	0.370564	-0.059718	-0.233727	0.970467	-0.721690	0.681773	0.119788	-0.689635	-0.693223	-0.209393
17308	9.508374	6.076098	6.168626	-0.145288	-1.015703	0.495792	-0.070264	-0.237385	0.968871	-0.720351	0.683953	0.115335	-0.690041	-0.689824	-0.219058
17309	9.480779	6.815457	6.469561	-0.240374	-1.283572	0.639501	-0.083685	-0.241842	0.966700	-0.718183	0.687147	0.109734	-0.690804	-0.685085	-0.231191
17310	9.770626	6.481605	5.680942	-0.232715	-1.531606	0.776575	-0.099801	-0.246964	0.963872	-0.715849	0.690641	0.102837	-0.691086	-0.679724	-0.245716
17311	10.330616	6.772277	4.175959	-0.133510	-1.731126	0.909996	-0.118218	-0.252404	0.960373	-0.713919	0.693827	0.094470	-0.690177	-0.674461	-0.262218
17312	11.534744	7.046680	2.316402	-0.182444	-1.886261	1.051846	-0.138687	-0.257770	0.956201	-0.711297	0.697741	0.084929	-0.689073	-0.668365	-0.280119
17313	13.822797	6.516359	0.528654	-0.316814	-1.982665	1.154785	-0.160486	-0.262878	0.951388	-0.707372	0.702864	0.074885	-0.688382	-0.660967	-0.298753
17314	14.922494	5.549859	-1.463279	-0.333892	-2.002068	1.163229	-0.182427	-0.267849	0.946033	-0.703070	0.708151	0.064922	-0.687323	-0.653284	-0.317502
17315	13.800106	4.105246	-2.403121	-0.286228	-1.986553	1.131242	-0.203944	-0.272731	0.940226	-0.698904	0.713078	0.055244	-0.685521	-0.645861	-0.336041
17316	13.110977	2.136418	-3.639030	-0.210800	-1.917925	1.093682	-0.224655	-0.277252	0.934163	-0.695110	0.717445	0.045767	-0.682900	-0.639064	-0.353899
17317	12.263139	0.058563	-5.338229	0.022293	-1.714536	1.059212	-0.243629	-0.280573	0.928398	-0.692768	0.720268	0.035878	-0.678762	-0.634424	-0.369850
17318	11.228337	-0.657948	-6.389280	0.244647	-1.439324	1.042452	-0.260543	-0.282194	0.923300	-0.691787	0.721656	0.025351	-0.673459	-0.632122	-0.383241
17319	9.983484	-0.788561	-7.242487	0.226213	-1.229265	0.998100	-0.275643	-0.282762	0.918731	-0.690618	0.723057	0.015335	-0.668631	-0.630266	-0.394586
17320	9.262280	-1.053948	-7.516575	0.058752	-1.022781	0.958823	-0.289041	-0.282273	0.914755	-0.688298	0.725400	0.006357	-0.665358	-0.627787	-0.403958
17321	8.778957	-2.002732	-7.225760	-0.171466	-0.739327	0.868105	-0.299868	-0.280608	0.911777	-0.684592	0.728926	-0.000817	-0.664389	-0.624441	-0.410684
17322	8.265609	-3.043991	-6.509114	-0.290249	-0.359165	0.680722	-0.306869	-0.277893	0.910279	-0.680593	0.732639	-0.005775	-0.665301	-0.621301	-0.413956
17323	7.563196	-3.383093	-5.917784	-0.272360	0.047811	0.442522	-0.309509	-0.274367	0.910454	-0.677406	0.735559	-0.008622	-0.667327	-0.619416	-0.413520
17324	7.312506	-2.697765	-5.855018	-0.305873	0.371527	0.190733	-0.308279	-0.270686	0.911972	-0.674766	0.737976	-0.009054	-0.670563	-0.618159	-0.410152
17325	7.536002	-1.702861	-5.166249	-0.455605	0.690612	-0.085175	-0.303013	-0.267071	0.914799	-0.671952	0.740568	-0.006368	-0.675769	-0.616630	-0.403860
17326	7.148089	-1.926715	-4.417033	-0.678402	0.999479	-0.319195	-0.294048	-0.263312	0.918805	-0.668290	0.743901	-0.000687	-0.683319	-0.614230	-0.394711
17327	6.935750	-2.537924	-4.224017	-0.705133	1.302562	-0.481204	-0.281841	-0.258930	0.923862	-0.664818	0.746977	0.006540	-0.691797	-0.612357	-0.382670
17328	6.816634	-2.341894	-4.369543	-0.640494	1.560662	-0.629656	-0.266766	-0.254113	0.929657	-0.662080	0.749286	0.014826	-0.700347	-0.611553	-0.368128
17329	6.745260	-1.933586	-4.537956	-0.637620	1.785652	-0.783382	-0.248961	-0.249093	0.935933	-0.659596	0.751221	0.024479	-0.709190	-0.611244	-0.351326
17330	6.794786	-1.464515	-4.466199	-0.631964	1.966679	-0.902981	-0.228946	-0.243885	0.942392	-0.657236	0.752864	0.035166	-0.718070	-0.611323	-0.332656
17331	6.947708	-1.118781	-4.296440	-0.624544	2.107214	-0.969160	-0.207323	-0.238323	0.948799	-0.654826	0.754354	0.046395	-0.726787	-0.611680	-0.312456
17332	7.272868	-1.364234	-4.514665	-0.560418	2.233555	-1.010568	-0.184359	-0.232301	0.955012	-0.652699	0.755413	0.057751	-0.734844	-0.612689	-0.290890
17333	7.395383	-0.861559	-4.473529	-0.408791	2.346911	-1.038997	-0.160216	-0.225766	0.960917	-0.651458	0.755550	0.068896	-0.741575	-0.614958	-0.268128
17334	7.279062	0.026167	-4.577772	-0.297174	2.406303	-1.048724	-0.135441	-0.218875	0.966307	-0.650783	0.755057	0.079809	-0.747085	-0.618047	-0.244706
17335	7.328556	0.742175	-4.377201	-0.286662	2.379123	-1.009594	-0.111005	-0.211778	0.970993	-0.649864	0.754667	0.090303	-0.751901	-0.620989	-0.221398
17336	7.303975	0.558398	-3.593976	-0.306915	2.309281	-0.997405	-0.087081	-0.204958	0.974889	-0.648522	0.754506	0.100696	-0.756198	-0.623469	-0.198623
17337	7.590991	-0.344672	-2.831969	-0.244216	2.164783	-1.010454	-0.064090	-0.199079	0.977886	-0.647419	0.753998	0.111068	-0.759435	-0.625983	-0.177211
17338	8.025410	-0.895637	-2.051749	-0.005363	1.977985	-1.027267	-0.042370	-0.194417	0.980004	-0.647908	0.752018	0.121176	-0.760539	-0.629818	-0.157827
17339	8.411546	-0.069298	-1.338168	0.283457	1.745721	-1.018608	-0.022452	-0.191037	0.981326	-0.650373	0.748271	0.130787	-0.759283	-0.635292	-0.141046
17340	8.363871	1.724146	-1.099827	0.432519	1.470063	-0.951703	-0.005069	-0.188776	0.982007	-0.653764	0.743711	0.139592	-0.756681	-0.641294	-0.127185
17341	8.376404	2.935976	-0.568316	0.311665	1.124301	-0.810974	0.008777	-0.187579	0.982210	-0.656084	0.740189	0.147221	-0.754637	-0.645704	-0.116571
17342	8.328056	2.884755	-0.359915	0.168538	0.788358	-0.636454	0.018935	-0.187204	0.982139	-0.657247	0.737915	0.153324	-0.753437	-0.648411	-0.109067
17343	8.225607	2.683013	-0.704428	0.109623	0.479793	-0.430991	0.025421	-0.187287	0.981976	-0.657955	0.736406	0.157484	-0.752628	-0.650100	-0.104506
17344	8.117073	2.814451	-1.562649	0.014184	0.200915	-0.203391	0.028306	-0.187500	0.981857	-0.657988	0.735941	0.159508	-0.752497	-0.650565	-0.102541
17345	7.652997	2.860724	-2.154746	-0.146516	-0.051197	-0.001426	0.027969	-0.187864	0.981797	-0.656861	0.736901	0.159717	-0.753492	-0.649372	-0.102790
17346	7.421266	2.031710	-2.508221	-0.343864	-0.294702	0.140510	0.024858	-0.188759	0.981709	-0.654284	0.739402	0.158736	-0.755840	-0.646262	-0.105121
17347	7.402231	0.561087	-3.163535	-0.371567	-0.475279	0.256315	0.019626	-0.189945	0.981599	-0.651505	0.742292	0.156664	-0.758390	-0.642591	-0.109182
17348	7.444612	-0.407007	-3.871947	-0.340203	-0.594540	0.334225	0.012970	-0.191292	0.981448	-0.648956	0.745117	0.153805	-0.760715	-0.638911	-0.114475
17349	7.489875	-1.461016	-4.105132	-0.301112	-0.644839	0.370857	0.005694	-0.192656	0.981250	-0.646676	0.747757	0.150565	-0.762744	-0.635408	-0.120328
17350	7.679627	-3.217501	-4.746133	-0.246990	-0.641394	0.348904	-0.001423	-0.194131	0.980975	-0.644778	0.750006	0.147488	-0.764368	-0.632301	-0.126238
17351	7.597485	-4.078009	-5.387474	0.023303	-0.523924	0.308881	-0.007383	-0.195148	0.980746	-0.644923	0.750468	0.144472	-0.764212	-0.631439	-0.131396
17352	9.365793	-1.413252	-5.077243	0.335603	-0.349267	0.225495	-0.011472	-0.195689	0.980599	-0.647444	0.748795	0.141855	-0.762027	-0.633256	-0.135287
17353	9.536236	-0.530394	-4.558928	0.259146	-0.222396	0.020486	-0.013264	-0.196968	0.980320	-0.649396	0.747200	0.141343	-0.760335	-0.634741	-0.137821
17354	13.723400	2.424091	-1.353432	0.510551	-0.032531	0.006392	-0.013518	-0.197150	0.980280	-0.653250	0.743970	0.140616	-0.757022	-0.638467	-0.138846
17355	17.121484	4.933004	0.303429	0.500272	0.011837	-0.028426	-0.013209	-0.197309	0.980252	-0.657015	0.740719	0.140241	-0.753762	-0.642188	-0.139419
17356	14.836997	5.740459	-0.041990	0.692469	-0.114303	0.020188	-0.014167	-0.197919	0.980116	-0.662198	0.736303	0.139113	-0.749195	-0.647060	-0.141493
17357	11.721769	5.904263	-1.796607	0.835212	-0.220350	0.179399	-0.016971	-0.198057	0.980044	-0.668386	0.731238	0.136202	-0.743621	-0.652736	-0.144788
17358	10.087154	5.054309	-2.381754	0.594784	-0.288036	0.288029	-0.021004	-0.197863	0.980005	-0.672724	0.727923	0.132550	-0.739595	-0.656489	-0.148396
17359	7.833155	6.324659	-3.282798	0.412263	-0.264019	0.401639	-0.025624	-0.196704	0.980128	-0.675655	0.726013	0.128041	-0.736772	-0.658948	-0.151507
17360	7.702154	3.827008	-4.307577	-0.217357	-0.363172	0.472076	-0.031453	-0.195681	0.980163	-0.673901	0.728378	0.123789	-0.738152	-0.656639	-0.154780
17361	8.337916	1.191682	-4.284441	-0.335591	-0.297361	0.480507	-0.036847	-0.194148	0.980280	-0.671237	0.731522	0.119650	-0.740326	-0.653592	-0.157274
17362	9.653922	-0.555567	-3.802072	-0.380995	-0.228775	0.440601	-0.041460	-0.192431	0.980434	-0.668222	0.734866	0.115976	-0.742805	-0.650340	-0.159054
17363	10.432553	-2.589723	-3.433467	-0.357974	-0.127777	0.385297	-0.044944	-0.190450	0.980668	-0.665375	0.737936	0.112816	-0.745155	-0.647441	-0.159887
17364	10.739084	-2.186658	-2.573927	-0.128462	-0.002497	0.380490	-0.047458	-0.187678	0.981083	-0.664224	0.739495	0.109332	-0.746025	-0.646471	-0.159755
17365	10.510718	-0.475293	-2.505101	-0.048837	0.048039	0.386873	-0.049635	-0.184531	0.981573	-0.663655	0.740539	0.105659	-0.746390	-0.646181	-0.159221
17366	9.880243	1.694300	-2.718548	-0.110725	0.067390	0.395498	-0.051720	-0.181186	0.982088	-0.662611	0.741986	0.101994	-0.747176	-0.645467	-0.158431
17367	9.982491	2.086694	-2.740547	-0.397684	0.045941	0.380675	-0.053859	-0.178086	0.982540	-0.659417	0.745240	0.098929	-0.749846	-0.642575	-0.157571
17368	10.170616	-0.033208	-2.603309	-0.496873	0.030876	0.347118	-0.055875	-0.175317	0.982925	-0.655476	0.749046	0.096341	-0.753146	-0.638901	-0.156769
17369	10.019455	-1.371323	-2.112272	-0.258171	0.070314	0.275836	-0.057117	-0.172827	0.983295	-0.653357	0.751182	0.094078	-0.754892	-0.637069	-0.155823
17370	9.820120	-0.705367	-1.489195	0.025853	0.127112	0.230666	-0.057631	-0.170307	0.983704	-0.653403	0.751422	0.091812	-0.754813	-0.637464	-0.154584
17371	9.477152	1.542637	-0.977064	0.138641	0.153346	0.236260	-0.057987	-0.167580	0.984152	-0.654296	0.750945	0.089318	-0.754012	-0.638747	-0.153192
17372	9.030514	3.290966	-0.177962	-0.127182	0.088284	0.294946	-0.059215	-0.164823	0.984544	-0.653147	0.752257	0.086652	-0.754912	-0.637921	-0.152199
17373	9.477054	2.094366	0.452989	-0.510250	-0.031056	0.346164	-0.061671	-0.162437	0.984790	-0.649061	0.756077	0.084065	-0.758232	-0.634004	-0.152060
17374	9.774276	0.687836	0.852697	-0.511775	-0.081224	0.359832	-0.064583	-0.160246	0.984962	-0.644929	0.759901	0.081343	-0.761509	-0.629977	-0.152424
17375	9.690883	0.408961	1.293808	-0.389218	-0.123016	0.359271	-0.067799	-0.158310	0.985059	-0.641706	0.762929	0.078444	-0.763948	-0.626799	-0.153315
17376	9.867485	0.825982	1.471839	-0.216911	-0.164911	0.346024	-0.071244	-0.156723	0.985070	-0.639790	0.764841	0.075413	-0.765240	-0.624865	-0.154760
17377	9.929085	1.784623	1.464399	-0.088671	-0.225924	0.342766	-0.075130	-0.155536	0.984969	-0.638844	0.765939	0.072220	-0.765659	-0.623816	-0.156908
17378	9.539111	1.707111	1.215164	-0.148499	-0.313126	0.366823	-0.079836	-0.154698	0.984731	-0.637406	0.767443	0.068886	-0.766381	-0.622174	-0.159875
17379	9.394610	0.716221	0.523161	-0.103007	-0.371651	0.375779	-0.085043	-0.154147	0.984381	-0.636290	0.768673	0.065398	-0.766748	-0.620790	-0.163453
17380	9.464857	-0.604146	-0.233935	-0.070758	-0.403647	0.354547	-0.090359	-0.153947	0.983939	-0.635421	0.769667	0.062069	-0.766861	-0.619607	-0.167368
17381	9.765003	-2.077019	-1.180227	0.142092	-0.369149	0.286723	-0.094975	-0.154055	0.983487	-0.636227	0.769238	0.059054	-0.765633	-0.620113	-0.171072
17382	9.645690	-1.598952	-1.751488	0.472224	-0.306072	0.238785	-0.098803	-0.154147	0.983095	-0.639589	0.766680	0.055934	-0.762341	-0.623250	-0.174341
17383	9.552746	-0.078707	-2.232715	0.541822	-0.292592	0.215348	-0.102375	-0.154353	0.982698	-0.643477	0.763635	0.052909	-0.758589	-0.626927	-0.177499
17384	9.347746	0.548300	-1.975876	0.430792	-0.298858	0.222331	-0.106038	-0.154559	0.982277	-0.646492	0.761281	0.049996	-0.755516	-0.629732	-0.180645
17385	9.584791	0.813863	-1.708410	0.326942	-0.323377	0.228020	-0.109918	-0.154888	0.981798	-0.648697	0.759582	0.047206	-0.753068	-0.631700	-0.183967
17386	9.610330	0.806586	-1.477406	0.264121	-0.337958	0.238276	-0.113974	-0.155241	0.981280	-0.650402	0.758290	0.044420	-0.750991	-0.633164	-0.187394
17387	9.642195	0.709136	-1.416980	0.257478	-0.360167	0.232116	-0.118151	-0.155789	0.980699	-0.652049	0.757029	0.041701	-0.748915	-0.634536	-0.191025
17388	9.743563	0.687847	-1.687509	0.271685	-0.370002	0.234313	-0.122414	-0.156390	0.980080	-0.653785	0.755679	0.038924	-0.746713	-0.635997	-0.194751
17389	9.496702	1.134217	-1.889336	0.276341	-0.386656	0.251452	-0.126907	-0.156977	0.979415	-0.655517	0.754323	0.035962	-0.744441	-0.637459	-0.198630
17390	9.256424	1.693434	-1.702803	0.160562	-0.428929	0.277213	-0.131881	-0.157645	0.978650	-0.656339	0.753745	0.032970	-0.742850	-0.637978	-0.202873
17391	9.432744	1.009134	-1.221879	0.015611	-0.481419	0.297201	-0.137370	-0.158498	0.977757	-0.656041	0.754126	0.030076	-0.742118	-0.637317	-0.207575
17392	9.580059	0.267788	-1.011337	0.037050	-0.503969	0.296451	-0.143018	-0.159496	0.976784	-0.655887	0.754371	0.027145	-0.741187	-0.636778	-0.212500
17393	9.458715	0.274135	-0.902721	0.105050	-0.527066	0.303780	-0.148877	-0.160584	0.975730	-0.656208	0.754198	0.024000	-0.739748	-0.636709	-0.217660
17394	9.361140	0.506658	-0.936215	0.086073	-0.561058	0.316880	-0.155069	-0.161789	0.974565	-0.656350	0.754170	0.020765	-0.738348	-0.636436	-0.223139
17395	9.644952	-0.210207	-1.667720	0.006023	-0.588393	0.310533	-0.161412	-0.163212	0.973298	-0.655890	0.754647	0.017773	-0.737397	-0.635508	-0.228858
17396	9.889795	-0.875919	-2.678850	0.018061	-0.563490	0.293240	-0.167453	-0.164600	0.972042	-0.655529	0.755022	0.014924	-0.736370	-0.634703	-0.234331
17397	9.881427	-1.013457	-4.020934	0.030646	-0.514427	0.261251	-0.172914	-0.165914	0.970862	-0.655298	0.755270	0.012360	-0.735313	-0.634067	-0.239319
17398	9.630807	-1.043495	-4.972672	0.002884	-0.448298	0.230885	-0.177687	-0.167033	0.969808	-0.654903	0.755645	0.010157	-0.734527	-0.633325	-0.243659
17399	9.284350	-1.222312	-5.260622	-0.067382	-0.390603	0.189302	-0.181759	-0.168097	0.968869	-0.654056	0.756398	0.008533	-0.734285	-0.632143	-0.247427
17400	9.733239	-1.935780	-4.938759	-0.100547	-0.334529	0.132045	-0.185045	-0.169233	0.968049	-0.653064	0.757265	0.007549	-0.734347	-0.630801	-0.250648
17401	10.481432	-1.155300	-4.187324	0.014142	-0.245247	0.078182	-0.187322	-0.170212	0.967439	-0.653012	0.757317	0.006803	-0.733816	-0.630475	-0.253012
17402	10.394776	0.178815	-3.141677	-0.130110	-0.237274	0.069392	-0.189482	-0.171204	0.966843	-0.651915	0.758264	0.006507	-0.734236	-0.629067	-0.255288
17403	10.209862	-0.184989	-2.558222	-0.293649	-0.258047	0.068759	-0.191793	-0.172325	0.966188	-0.649615	0.760234	0.006641	-0.735674	-0.626377	-0.257752
17404	9.876504	0.004784	-1.978466	-0.287941	-0.272841	0.074762	-0.194253	-0.173485	0.965489	-0.647340	0.762172	0.006709	-0.737033	-0.623696	-0.260358
17405	9.505398	0.680932	-1.263349	-0.258263	-0.308960	0.087437	-0.197063	-0.174765	0.964688	-0.645253	0.763941	0.006587	-0.738116	-0.621170	-0.263312
17406	9.312595	1.422734	-0.431726	-0.287851	-0.379691	0.110446	-0.200546	-0.176297	0.963691	-0.642897	0.765927	0.006330	-0.739233	-0.618284	-0.266944
17407	9.519926	1.161158	0.647775	-0.359608	-0.478014	0.127328	-0.204865	-0.178291	0.962415	-0.639967	0.768378	0.006118	-0.740589	-0.614661	-0.271514
17408	9.991900	0.996010	1.441174	-0.229889	-0.549783	0.141539	-0.209809	-0.180598	0.960919	-0.637961	0.770050	0.005432	-0.740936	-0.611889	-0.276778
17409	10.172270	1.591683	1.163140	-0.180225	-0.622005	0.160990	-0.215407	-0.183178	0.959190	-0.636272	0.771452	0.004437	-0.740782	-0.609350	-0.282727
17410	9.826288	1.143119	0.153112	-0.262913	-0.683967	0.193921	-0.221673	-0.185861	0.957244	-0.633890	0.773416	0.003376	-0.740975	-0.606040	-0.289260
17411	9.718819	0.283886	-0.742376	-0.334183	-0.743834	0.237672	-0.228654	-0.188535	0.955077	-0.630867	0.775888	0.002127	-0.741434	-0.602041	-0.296350
17412	9.809225	-0.058704	-1.839543	-0.356740	-0.789340	0.246309	-0.236025	-0.191380	0.952715	-0.627640	0.778503	0.000894	-0.741863	-0.597751	-0.303864
17413	10.158797	-0.159411	-2.940513	-0.353220	-0.806938	0.236253	-0.243454	-0.194365	0.950238	-0.624442	0.781071	-0.000221	-0.742161	-0.593422	-0.311525
17414	10.081141	0.433801	-3.842052	-0.263958	-0.793704	0.201771	-0.250569	-0.197508	0.947737	-0.621976	0.783035	-0.001258	-0.741863	-0.589785	-0.319049
17415	9.702314	0.721731	-4.013861	-0.291378	-0.816550	0.176587	-0.257686	-0.200944	0.945103	-0.619355	0.785108	-0.001943	-0.741618	-0.585855	-0.326767
17416	9.746830	0.084853	-3.884312	-0.291748	-0.836407	0.151208	-0.264789	-0.204664	0.942337	-0.616789	0.787125	-0.002359	-0.741254	-0.581848	-0.334657
17417	9.742079	-0.012703	-3.516425	-0.214351	-0.844962	0.132609	-0.271828	-0.208543	0.939478	-0.614835	0.788651	-0.002833	-0.740329	-0.578394	-0.342597
17418	9.699415	0.255125	-2.816423	-0.177141	-0.868908	0.141862	-0.279094	-0.212460	0.936465	-0.613127	0.789977	-0.003504	-0.739041	-0.575150	-0.350743
17419	9.777372	0.338512	-1.990717	-0.179531	-0.904145	0.157231	-0.286697	-0.216427	0.933255	-0.611349	0.791349	-0.004289	-0.737602	-0.571774	-0.359190
17420	9.729055	0.870603	-1.387019	-0.121296	-0.933183	0.164959	-0.294546	-0.220467	0.929858	-0.609969	0.792407	-0.005339	-0.735649	-0.568758	-0.367879
17421	9.821620	1.294587	-0.804719	-0.119910	-0.991828	0.196084	-0.302992	-0.224559	0.926158	-0.608495	0.793530	-0.006667	-0.733437	-0.565582	-0.377077
17422	10.039840	1.759300	-0.329571	-0.083042	-1.066990	0.240878	-0.312236	-0.228690	0.922068	-0.607140	0.794549	-0.008530	-0.730678	-0.562487	-0.386934
17423	10.114912	2.367902	-0.048566	-0.021247	-1.156773	0.276400	-0.322309	-0.233000	0.917512	-0.606097	0.795315	-0.010945	-0.727161	-0.559629	-0.397558
17424	10.266693	3.195664	0.068823	0.004451	-1.254131	0.329866	-0.333368	-0.237401	0.912418	-0.605043	0.796071	-0.013935	-0.723041	-0.556697	-0.409023
17425	10.570480	2.956160	0.082555	-0.031216	-1.369172	0.388993	-0.345549	-0.241910	0.906684	-0.603482	0.797189	-0.017299	-0.718614	-0.553145	-0.421456
17426	11.190486	2.854672	-0.091792	0.069410	-1.456237	0.444363	-0.358621	-0.246424	0.900370	-0.602411	0.797895	-0.021565	-0.713086	-0.550126	-0.434591
17427	11.352405	3.656807	-0.366436	0.151290	-1.541629	0.510151	-0.372590	-0.250827	0.893455	-0.601607	0.798344	-0.026757	-0.706573	-0.547478	-0.448354
17428	11.226550	4.304968	-0.464884	0.135802	-1.643621	0.583735	-0.387623	-0.255164	0.885799	-0.600340	0.799083	-0.032523	-0.699528	-0.544388	-0.462928
17429	11.155957	4.461576	-0.474486	0.068013	-1.758375	0.653830	-0.403735	-0.259491	0.877304	-0.598220	0.800404	-0.038555	-0.692193	-0.540387	-0.478384
17430	11.205736	4.188991	-0.320245	-0.013086	-1.876014	0.726171	-0.420951	-0.263788	0.867880	-0.595134	0.802377	-0.044782	-0.684554	-0.535356	-0.494751
17431	11.497058	3.492631	-0.340418	-0.056326	-1.966621	0.789705	-0.438974	-0.267937	0.857620	-0.591351	0.804784	-0.051254	-0.676466	-0.529654	-0.511724
17432	11.465885	3.225915	-0.486036	-0.067882	-2.034734	0.839362	-0.457566	-0.271912	0.846580	-0.587133	0.807409	-0.058007	-0.667764	-0.523597	-0.529092
17433	11.391352	2.755865	0.028870	-0.169099	-2.116933	0.891000	-0.476769	-0.275734	0.834663	-0.581846	0.810735	-0.064528	-0.658898	-0.516410	-0.546968
17434	11.426601	1.803276	0.146879	-0.248562	-2.197763	0.954231	-0.496642	-0.279265	0.821801	-0.575578	0.814659	-0.071003	-0.649659	-0.508274	-0.565333
17435	11.758610	0.804184	-0.137478	-0.201776	-2.250229	1.036967	-0.517033	-0.282166	0.808121	-0.569020	0.818594	-0.078235	-0.639447	-0.500287	-0.583798
17436	11.865553	-0.220982	-1.073928	-0.143672	-2.279744	1.074973	-0.537537	-0.284691	0.793729	-0.562446	0.822355	-0.085947	-0.628258	-0.492629	-0.602170
17437	12.107988	-1.764964	-2.513434	-0.034871	-2.250259	1.097582	-0.557630	-0.286676	0.779016	-0.556219	0.825667	-0.094306	-0.616173	-0.485891	-0.619872
17438	11.694182	-2.888208	-4.290264	0.139215	-2.116211	1.085443	-0.576516	-0.287958	0.764663	-0.550920	0.828114	-0.103512	-0.603421	-0.480945	-0.636062
17439	10.781747	-2.824911	-5.362379	0.248492	-1.974060	1.112940	-0.594356	-0.288207	0.750785	-0.545891	0.830135	-0.113486	-0.590545	-0.477298	-0.650725
17440	10.150219	-2.517956	-6.317936	0.153412	-1.859697	1.132853	-0.611350	-0.287654	0.737229	-0.539968	0.832668	-0.122878	-0.578520	-0.473201	-0.664376
17441	9.631682	-3.448758	-7.658596	-0.004748	-1.678718	1.074610	-0.626695	-0.286610	0.724643	-0.533294	0.835781	-0.130644	-0.568199	-0.468322	-0.676627
17442	8.818024	-3.934049	-8.385309	-0.005720	-1.411766	0.941299	-0.639619	-0.285340	0.713771	-0.527313	0.838500	-0.137329	-0.559311	-0.464219	-0.686784
17443	8.261740	-4.534506	-8.024082	0.051368	-1.059889	0.753782	-0.649422	-0.283936	0.705430	-0.522748	0.840411	-0.142978	-0.552255	-0.461615	-0.694209
17444	7.640735	-4.354508	-7.941749	0.241469	-0.615032	0.573553	-0.655767	-0.281983	0.700325	-0.520345	0.840920	-0.148645	-0.547002	-0.461887	-0.698175
17445	5.338183	-3.123925	-8.777898	0.236195	-0.179426	0.409534	-0.658829	-0.279385	0.698490	-0.518952	0.840980	-0.153106	-0.544640	-0.463353	-0.699050
17446	4.840895	-1.138870	-9.268727	-0.359651	-0.111687	0.265577	-0.660785	-0.277693	0.697316	-0.515251	0.843381	-0.152398	-0.545783	-0.459995	-0.700375
17447	6.952587	-0.816804	-7.445799	-0.913734	0.109962	0.073655	-0.660516	-0.276586	0.698011	-0.509762	0.847758	-0.146457	-0.551236	-0.452557	-0.700950
17448	6.244500	-1.572941	-6.183433	-1.066508	0.550208	-0.174888	-0.656545	-0.275632	0.702123	-0.504999	0.852061	-0.137724	-0.560291	-0.444993	-0.698610
17449	6.027545	-2.243238	-5.266660	-0.961106	0.948789	-0.397999	-0.649128	-0.274852	0.709288	-0.502167	0.855219	-0.128174	-0.571368	-0.439382	-0.693168
17450	6.086204	-2.349380	-5.268356	-0.826678	1.338003	-0.598522	-0.638368	-0.274149	0.719255	-0.501255	0.857194	-0.118158	-0.584148	-0.435959	-0.684624
17451	6.737585	-2.295085	-5.944292	-0.728471	1.613361	-0.725157	-0.625151	-0.273369	0.731065	-0.501537	0.858381	-0.107899	-0.598036	-0.434109	-0.673722
17452	6.880594	-1.438560	-6.008440	-0.708498	1.877895	-0.862320	-0.609422	-0.272660	0.744488	-0.502578	0.859099	-0.096764	-0.613205	-0.433134	-0.660587
17453	7.258887	-1.031370	-6.106856	-0.777964	2.094276	-1.015777	-0.591248	-0.272347	0.759113	-0.503846	0.859700	-0.083994	-0.629734	-0.432137	-0.645517
17454	7.724594	-1.214378	-6.159907	-0.763752	2.309323	-1.140349	-0.570722	-0.272205	0.774713	-0.505602	0.859895	-0.070337	-0.647026	-0.431840	-0.628389
17455	7.817684	-1.403741	-6.388854	-0.609136	2.536848	-1.263409	-0.547633	-0.272106	0.791238	-0.508674	0.859095	-0.056622	-0.664341	-0.433490	-0.608882
17456	7.705398	-1.231162	-6.667562	-0.413692	2.757244	-1.359016	-0.522109	-0.271791	0.808413	-0.513165	0.857201	-0.043231	-0.681222	-0.437421	-0.587026
17457	7.437149	-0.638423	-6.863279	-0.290333	2.936776	-1.432029	-0.494424	-0.271139	0.825850	-0.518439	0.854595	-0.029806	-0.697686	-0.442890	-0.563101
17458	7.118870	-0.093432	-6.495772	-0.291668	3.054272	-1.467045	-0.465194	-0.270070	0.843004	-0.523422	0.851925	-0.015911	-0.713879	-0.448649	-0.537671
17459	6.908048	-0.531488	-6.226724	-0.308602	3.151925	-1.502313	-0.434494	-0.268633	0.859681	-0.527946	0.849276	-0.001449	-0.729718	-0.454495	-0.510829
17460	6.730713	-1.367352	-6.408823	-0.172058	3.263376	-1.535647	-0.402263	-0.266728	0.875809	-0.533102	0.845955	0.012780	-0.744303	-0.461755	-0.482489
17461	6.322096	-1.148399	-6.628442	0.064334	3.411678	-1.549336	-0.368287	-0.263901	0.891471	-0.539545	0.841548	0.026224	-0.757137	-0.471331	-0.452317
17462	5.795020	-0.315467	-6.708683	0.142899	3.525535	-1.540610	-0.332993	-0.260056	0.906359	-0.546033	0.836832	0.039497	-0.768742	-0.481749	-0.420658
17463	5.540588	-0.181664	-7.275183	0.047854	3.595375	-1.480752	-0.296976	-0.254941	0.920223	-0.551055	0.832792	0.052882	-0.779836	-0.491388	-0.387806
17464	5.414768	0.253375	-7.148059	-0.113917	3.657732	-1.388434	-0.260547	-0.248386	0.932963	-0.554022	0.829864	0.066217	-0.790680	-0.499630	-0.353830
17465	5.224489	0.027258	-6.470849	-0.451121	3.686368	-1.351150	-0.223650	-0.241095	0.944380	-0.553684	0.828830	0.080471	-0.802131	-0.504890	-0.318859
17466	5.930333	-1.820364	-6.169930	-0.634786	3.655348	-1.341789	-0.186680	-0.233725	0.954213	-0.551297	0.828863	0.095168	-0.813155	-0.508290	-0.283584
17467	6.632210	-3.923752	-5.897577	-0.432605	3.643900	-1.371716	-0.149287	-0.226499	0.962503	-0.550045	0.827923	0.109516	-0.821684	-0.513071	-0.248182
17468	6.922729	-3.137917	-5.021512	0.036694	3.588232	-1.369308	-0.112140	-0.219281	0.969196	-0.552122	0.824685	0.122702	-0.826187	-0.521355	-0.213550
17469	7.220744	-1.383502	-4.313785	0.116188	3.395838	-1.359701	-0.076468	-0.212644	0.974133	-0.554343	0.821146	0.135733	-0.828768	-0.529625	-0.180669
17470	7.680857	-1.602651	-4.065606	-0.026114	3.138543	-1.321904	-0.043059	-0.206785	0.977438	-0.554899	0.818517	0.148719	-0.830803	-0.535975	-0.149989
17471	8.626264	-2.584188	-4.243794	0.063346	2.885454	-1.236284	-0.012167	-0.201347	0.979444	-0.555741	0.815661	0.160775	-0.831266	-0.542362	-0.121821
17472	9.495869	-2.331098	-5.071984	0.225220	2.627952	-1.126729	0.015967	-0.196199	0.980434	-0.557570	0.812198	0.171612	-0.829976	-0.549401	-0.096426
17473	8.668594	-0.060293	-2.394315	0.238320	2.262535	-0.955214	0.040101	-0.191458	0.980681	-0.559252	0.809038	0.180816	-0.828027	-0.555699	-0.074629
17474	7.855413	0.208958	-1.752030	0.073215	1.756506	-0.745452	0.058836	-0.187713	0.980460	-0.559466	0.807223	0.188118	-0.826762	-0.559603	-0.057525
17475	7.794846	-1.585454	-1.765074	0.350289	1.305814	-0.495693	0.072436	-0.184383	0.980182	-0.562005	0.804341	0.192837	-0.823956	-0.564835	-0.045361
17476	7.728643	-0.086457	-0.733928	0.734907	0.937867	-0.220773	0.081419	-0.180846	0.980136	-0.567849	0.799766	0.194736	-0.819096	-0.572424	-0.037577
17477	7.842370	-0.480950	-0.742809	0.847300	0.542070	0.024991	0.085744	-0.177539	0.980371	-0.574761	0.794938	0.194227	-0.813817	-0.580133	-0.033882
17478	4.932791	-4.927628	-3.917668	1.508836	0.127818	0.161987	0.085869	-0.175534	0.980721	-0.587089	0.786386	0.192154	-0.804955	-0.592271	-0.035528
17479	5.565938	-1.988341	-6.622609	2.676010	-0.106635	0.184630	0.083956	-0.174753	0.981026	-0.608549	0.770594	0.189347	-0.789062	-0.612900	-0.041650
17480	7.307933	0.602667	-7.428673	3.219111	-0.220937	-0.052045	0.082590	-0.176553	0.980820	-0.633568	0.750392	0.188424	-0.769266	-0.636978	-0.049883
17481	11.556871	3.741096	-4.626543	3.691694	-0.014771	-0.348557	0.084774	-0.179235	0.980147	-0.661214	0.725763	0.189906	-0.745392	-0.664186	-0.056987
17482	17.016487	7.315265	-5.192939	4.304096	0.131799	-0.317050	0.087918	-0.180614	0.979617	-0.692377	0.695947	0.190452	-0.716159	-0.695008	-0.063867
17483	16.173097	23.717467	-6.830147	5.055974	0.095014	0.101321	0.087902	-0.179263	0.979866	-0.727751	0.660123	0.186052	-0.680185	-0.729453	-0.072433
17484	9.791029	21.509849	-3.359779	1.019241	-0.853216	0.451856	0.078858	-0.182559	0.980027	-0.735006	0.653491	0.180875	-0.673459	-0.734590	-0.082649
17485	11.092036	5.189868	-3.504749	-0.280010	-1.184241	1.026346	0.063374	-0.184528	0.980782	-0.733823	0.657439	0.171109	-0.676379	-0.730564	-0.093746
17486	8.090437	2.320124	-4.102813	-0.240519	-1.083336	1.111998	0.047915	-0.185109	0.981549	-0.732793	0.661258	0.160478	-0.678763	-0.726961	-0.103962
17487	9.500181	-1.678202	-4.691829	-0.928241	-1.169071	1.002871	0.032664	-0.186907	0.981834	-0.726839	0.669845	0.151696	-0.686030	-0.718591	-0.113972
17488	10.665529	-6.491126	-7.187418	-0.739230	-0.922862	0.894978	0.019859	-0.187500	0.982064	-0.721964	0.676819	0.143821	-0.691645	-0.711871	-0.121927
17489	9.712135	-5.159732	-7.822553	-0.418094	-0.636424	0.807193	0.009673	-0.186560	0.982396	-0.719165	0.681308	0.136463	-0.694772	-0.707824	-0.127577
17490	10.571435	-3.662410	-7.071165	-0.284188	-0.457252	0.652490	0.001841	-0.185353	0.982670	-0.717207	0.684539	0.130463	-0.696858	-0.705018	-0.131676
17491	10.694989	-0.476117	-5.078579	-0.272172	-0.342448	0.548358	-0.004439	-0.184025	0.982912	-0.715282	0.687477	0.125482	-0.698821	-0.702502	-0.134681
17492	10.203937	0.559076	-3.258157	-0.284691	-0.258916	0.483623	-0.009669	-0.182529	0.983153	-0.713239	0.690371	0.121157	-0.700854	-0.700051	-0.136862
17493	9.393952	1.212375	-1.904678	-0.157441	-0.198200	0.423597	-0.014042	-0.181011	0.983381	-0.712067	0.692252	0.117255	-0.701971	-0.698586	-0.138613
17494	9.466589	0.672064	-0.680633	-0.080579	-0.194778	0.372029	-0.018022	-0.179813	0.983536	-0.711424	0.693496	0.113751	-0.702532	-0.697661	-0.140421
17495	10.069072	-0.259051	-0.389705	0.015027	-0.196574	0.328317	-0.021703	-0.178931	0.983622	-0.711447	0.693990	0.110546	-0.702404	-0.697396	-0.142362
17496	10.077532	-1.041489	-0.123468	0.113075	-0.175450	0.310587	-0.025110	-0.178019	0.983707	-0.712152	0.693766	0.107371	-0.701576	-0.697853	-0.144197
17497	9.983743	-1.116769	-0.139493	0.203556	-0.153621	0.298946	-0.028282	-0.177043	0.983797	-0.713482	0.692885	0.104180	-0.700102	-0.698975	-0.145913
17498	10.060257	-0.733600	-0.596573	0.197812	-0.140674	0.283655	-0.031255	-0.176083	0.983879	-0.714765	0.692013	0.101142	-0.698666	-0.700081	-0.147487
17499	9.878421	-0.355584	-1.223524	0.161623	-0.131479	0.265366	-0.034036	-0.175190	0.983946	-0.715790	0.691357	0.098335	-0.697485	-0.700952	-0.148931
17500	9.545361	0.571481	-1.888963	0.142488	-0.124041	0.258420	-0.036715	-0.174294	0.984009	-0.716676	0.690820	0.095622	-0.696439	-0.701705	-0.150276
17501	9.531918	1.204005	-2.005153	0.055963	-0.150458	0.242795	-0.039468	-0.173694	0.984008	-0.716958	0.690860	0.093192	-0.695999	-0.701814	-0.151799
17502	9.613620	0.869029	-1.705526	0.043718	-0.167736	0.208952	-0.042098	-0.173448	0.983943	-0.717161	0.690926	0.091112	-0.695635	-0.701810	-0.153476
17503	9.716874	0.406043	-1.005428	0.151700	-0.170949	0.180128	-0.044544	-0.173426	0.983839	-0.718122	0.690184	0.089149	-0.694491	-0.702545	-0.155284
17504	9.826452	0.153960	-0.762295	0.281508	-0.151197	0.159071	-0.046700	-0.173413	0.983741	-0.719986	0.688490	0.087187	-0.692416	-0.704208	-0.157007
17505	9.673992	0.292670	-0.720905	0.387054	-0.130284	0.156123	-0.048691	-0.173280	0.983668	-0.722571	0.686041	0.085084	-0.689580	-0.706627	-0.158611
17506	9.469539	1.003414	-0.833648	0.422896	-0.124969	0.169289	-0.050740	-0.173025	0.983610	-0.725381	0.683351	0.082788	-0.686475	-0.709291	-0.160183
17507	9.138419	2.087660	-0.975762	0.323255	-0.153009	0.210724	-0.053284	-0.172695	0.983533	-0.727472	0.681430	0.080238	-0.684066	-0.711217	-0.161940
17508	9.190135	2.182591	-1.073111	0.140370	-0.210148	0.242392	-0.056448	-0.172558	0.983381	-0.728283	0.680861	0.077668	-0.682947	-0.711795	-0.164105
17509	9.320588	1.856815	-0.972424	0.066577	-0.247737	0.252780	-0.059944	-0.172621	0.983163	-0.728576	0.680834	0.075117	-0.682337	-0.711805	-0.166580
17510	9.569412	1.385065	-0.802543	0.084412	-0.280879	0.258482	-0.063707	-0.172880	0.982880	-0.728977	0.680691	0.072477	-0.681567	-0.711880	-0.169391
17511	9.576384	0.959743	-0.537556	0.160473	-0.291648	0.258598	-0.067543	-0.173219	0.982565	-0.729885	0.680006	0.069707	-0.680224	-0.712451	-0.172360
17512	9.718684	0.720456	-0.553972	0.240796	-0.312458	0.268491	-0.071590	-0.173642	0.982203	-0.731320	0.678766	0.066694	-0.678267	-0.713530	-0.175581
17513	9.611733	0.771447	-0.596929	0.270781	-0.330447	0.287685	-0.075897	-0.174071	0.981804	-0.732927	0.677343	0.063434	-0.676060	-0.714776	-0.178990
17514	9.454867	1.161204	-0.731614	0.227815	-0.368953	0.312666	-0.080645	-0.174613	0.981329	-0.734207	0.676270	0.059996	-0.674119	-0.715660	-0.182740
17515	9.525516	1.285374	-0.868551	0.136819	-0.419620	0.331675	-0.085869	-0.175394	0.980746	-0.734838	0.675882	0.056535	-0.672785	-0.715835	-0.186924
17516	9.601697	0.997377	-1.111309	0.059995	-0.461334	0.332066	-0.091375	-0.176470	0.980056	-0.734934	0.676048	0.053209	-0.671954	-0.715414	-0.191468
17517	9.587897	0.658890	-1.182229	0.061957	-0.492353	0.337054	-0.097119	-0.177732	0.979275	-0.735019	0.676213	0.049834	-0.671056	-0.714945	-0.196310
17518	9.938883	0.733829	-1.550703	0.099784	-0.500339	0.332848	-0.102884	-0.179077	0.978441	-0.735342	0.676105	0.046421	-0.669841	-0.714713	-0.201243
17519	9.883629	0.630552	-1.732770	0.046824	-0.516767	0.326158	-0.108702	-0.180583	0.977534	-0.735297	0.676368	0.043183	-0.668971	-0.714084	-0.206305
17520	9.887372	0.120369	-1.822891	0.037446	-0.523230	0.323155	-0.114540	-0.182151	0.976577	-0.735174	0.676697	0.039991	-0.668131	-0.713374	-0.211421
17521	9.885651	-0.094461	-2.109860	-0.005817	-0.529390	0.311390	-0.120326	-0.183835	0.975565	-0.734757	0.677320	0.037010	-0.667573	-0.712350	-0.216573
17522	10.039148	-0.637276	-2.761581	0.003163	-0.513959	0.287055	-0.125827	-0.185568	0.974542	-0.734413	0.677838	0.034248	-0.666937	-0.711407	-0.221574
17523	10.000618	-0.172989	-3.291676	0.063729	-0.463165	0.262947	-0.130806	-0.187098	0.973593	-0.734487	0.677887	0.031591	-0.665897	-0.710960	-0.226093
17524	9.705666	0.732463	-3.228289	0.012964	-0.447534	0.248591	-0.135574	-0.188612	0.972649	-0.734231	0.678272	0.029186	-0.665225	-0.710192	-0.230441
17525	9.910293	0.763264	-2.480690	-0.107568	-0.477475	0.231518	-0.140411	-0.190446	0.971604	-0.733184	0.679485	0.027232	-0.665377	-0.708541	-0.235039
17526	9.971859	1.196229	-1.350610	-0.169071	-0.510027	0.243769	-0.145555	-0.192416	0.970459	-0.731699	0.681158	0.025311	-0.665906	-0.706400	-0.239936
17527	9.904049	0.464105	-0.261928	-0.260582	-0.571971	0.251889	-0.151169	-0.194749	0.969134	-0.729577	0.683493	0.023547	-0.666982	-0.703499	-0.245407
17528	9.725804	0.438552	0.665089	-0.188764	-0.627178	0.279240	-0.157352	-0.197261	0.967641	-0.727876	0.685376	0.021356	-0.667410	-0.700962	-0.251427
17529	9.480951	0.650615	1.274411	-0.179833	-0.706855	0.306081	-0.164256	-0.200126	0.965904	-0.726173	0.687252	0.018903	-0.667602	-0.698308	-0.258211
17530	9.479727	0.618390	1.423483	-0.181505	-0.799299	0.333573	-0.171976	-0.203420	0.963870	-0.724390	0.689199	0.016204	-0.667595	-0.695431	-0.265881
17531	9.610103	0.550983	1.054176	-0.142699	-0.886460	0.355586	-0.180424	-0.207136	0.961531	-0.722801	0.690930	0.013214	-0.667087	-0.692612	-0.274379
17532	9.940445	0.923785	0.276163	-0.124514	-0.957590	0.378869	-0.189508	-0.211154	0.958906	-0.721261	0.692592	0.009968	-0.666235	-0.689733	-0.283548
17533	10.093033	1.121064	-0.485682	-0.204833	-1.012956	0.409797	-0.199163	-0.215296	0.956024	-0.719090	0.694885	0.006684	-0.665765	-0.686136	-0.293213
17534	10.097098	0.975949	-1.226495	-0.293548	-1.078368	0.438683	-0.209455	-0.219637	0.952832	-0.716231	0.697855	0.003418	-0.665689	-0.681732	-0.303480
17535	10.205607	1.594319	-2.202594	-0.280895	-1.128513	0.433333	-0.220019	-0.224292	0.949360	-0.713422	0.700735	0.000213	-0.665297	-0.677248	-0.314190
17536	9.837826	2.253558	-2.662917	-0.315150	-1.189045	0.418832	-0.230874	-0.229394	0.945556	-0.710374	0.703819	-0.002702	-0.664880	-0.672322	-0.325449
17537	10.077976	1.233730	-2.709178	-0.326095	-1.248323	0.383484	-0.241845	-0.235067	0.941411	-0.707292	0.706903	-0.005189	-0.664266	-0.667107	-0.337222
17538	10.341671	1.091140	-2.650539	-0.107540	-1.270208	0.352178	-0.252720	-0.241045	0.937032	-0.705701	0.708464	-0.008082	-0.661905	-0.663307	-0.349149
17539	10.399747	1.585585	-2.308443	-0.028287	-1.319492	0.346328	-0.263831	-0.247337	0.932318	-0.704612	0.709505	-0.011167	-0.658722	-0.659869	-0.361466
17540	10.576709	1.316477	-1.650833	-0.011561	-1.377129	0.361654	-0.275389	-0.253853	0.927211	-0.703555	0.710494	-0.014442	-0.655111	-0.656321	-0.374262
17541	10.444202	1.248805	-0.830031	0.080375	-1.436702	0.387612	-0.287449	-0.260523	0.921684	-0.702982	0.710973	-0.018278	-0.650530	-0.653181	-0.387511
17542	10.147831	1.724738	0.067820	0.177264	-1.510094	0.423765	-0.300174	-0.267374	0.915645	-0.702881	0.710942	-0.022825	-0.644868	-0.650441	-0.401338
17543	10.109863	2.206631	0.744246	0.281658	-1.598319	0.476883	-0.313732	-0.274379	0.909004	-0.703218	0.710412	-0.028272	-0.638010	-0.648098	-0.415828
17544	10.243769	3.013361	1.088736	0.399534	-1.695653	0.543880	-0.328273	-0.281513	0.901658	-0.704001	0.709343	-0.034842	-0.629777	-0.646206	-0.431044
17545	10.331604	3.968506	1.148700	0.453894	-1.816719	0.634183	-0.344048	-0.288756	0.893449	-0.704702	0.708231	-0.042472	-0.620504	-0.644228	-0.447152
17546	10.841386	4.395225	1.027201	0.400135	-1.962610	0.722393	-0.361187	-0.296277	0.884174	-0.704617	0.707776	-0.050670	-0.610785	-0.641305	-0.464402
17547	11.401348	4.761898	0.645023	0.373036	-2.097635	0.818508	-0.379603	-0.303912	0.873807	-0.703842	0.707855	-0.059572	-0.600423	-0.637636	-0.482610
17548	11.951514	5.550454	0.492735	0.279774	-2.232049	0.926293	-0.399363	-0.311550	0.862233	-0.701899	0.708932	-0.068944	-0.589785	-0.632734	-0.501798
17549	12.599180	6.105877	0.699999	0.016161	-2.376514	1.031607	-0.420428	-0.319184	0.849330	-0.697764	0.712091	-0.077793	-0.579970	-0.625339	-0.522098
17550	13.610527	5.025126	1.235218	-0.330409	-2.532566	1.101969	-0.442627	-0.327031	0.834944	-0.691109	0.717703	-0.085266	-0.571357	-0.614779	-0.543689
17551	14.112387	3.660078	1.204682	-0.375234	-2.594779	1.148746	-0.465174	-0.334571	0.819558	-0.683769	0.723796	-0.092623	-0.562204	-0.603474	-0.565460
17552	13.962184	2.423933	0.275749	-0.309364	-2.631161	1.210441	-0.488029	-0.341528	0.803235	-0.676281	0.729740	-0.100616	-0.551789	-0.592316	-0.587103
17553	13.553902	1.020261	-1.427484	-0.213494	-2.607403	1.286383	-0.510858	-0.347423	0.786334	-0.668693	0.735431	-0.109497	-0.540253	-0.581754	-0.608020
17554	12.952588	-0.251237	-3.211339	-0.148796	-2.558818	1.323285	-0.533291	-0.352435	0.769019	-0.660997	0.740921	-0.118823	-0.527905	-0.571687	-0.628085
17555	11.889523	-1.436894	-4.736558	-0.079059	-2.439694	1.306075	-0.554540	-0.356570	0.751893	-0.653487	0.746005	-0.128185	-0.515209	-0.562436	-0.646703
17556	10.058187	-1.780789	-6.090208	0.071339	-2.248904	1.353290	-0.574743	-0.359032	0.735368	-0.646218	0.750449	-0.138670	-0.502069	-0.554908	-0.663328
17557	9.267318	-2.754357	-8.637188	-0.033832	-2.065023	1.364426	-0.593692	-0.360148	0.719600	-0.638088	0.755546	-0.148304	-0.490280	-0.547214	-0.678367
17558	9.374629	-4.184282	-10.080104	-0.110486	-1.900713	1.328036	-0.611296	-0.360430	0.704562	-0.629562	0.760931	-0.156958	-0.479550	-0.539513	-0.692067
17559	9.748043	-4.180175	-9.458322	-0.049810	-1.633478	1.224595	-0.626655	-0.359855	0.691236	-0.621758	0.765612	-0.165094	-0.469809	-0.533238	-0.703517
17560	9.732419	-4.164360	-7.995908	0.075733	-1.202878	1.006680	-0.638458	-0.358547	0.681040	-0.615756	0.768825	-0.172492	-0.461754	-0.529483	-0.711640
17561	8.770425	-3.881389	-8.563112	0.248303	-0.596933	0.756622	-0.645788	-0.355895	0.675498	-0.612052	0.770216	-0.179334	-0.456455	-0.529251	-0.715222
17562	5.368636	-2.545204	-10.801459	0.188148	-0.061373	0.579993	-0.649580	-0.351774	0.674019	-0.609167	0.771270	-0.184549	-0.454931	-0.530469	-0.715291
17563	6.212806	0.862149	-9.907169	-0.505222	-0.083189	0.430408	-0.652516	-0.348896	0.672678	-0.604075	0.775450	-0.183769	-0.457512	-0.526260	-0.716752
17564	7.719764	0.546412	-7.594532	-1.246717	0.301095	0.169479	-0.652113	-0.346029	0.674546	-0.597221	0.782545	-0.175929	-0.466986	-0.517578	-0.716963
17565	6.059248	-1.866427	-7.073087	-1.473308	0.754612	-0.075896	-0.648032	-0.342766	0.680122	-0.590746	0.789846	-0.164809	-0.480701	-0.508581	-0.714333
17566	5.550487	-3.603171	-7.076694	-1.353667	1.237354	-0.342516	-0.639940	-0.339254	0.689480	-0.586350	0.795518	-0.152791	-0.496659	-0.502054	-0.708005
17567	4.701695	-3.801636	-7.349571	-1.059284	1.753267	-0.557390	-0.627761	-0.334930	0.702665	-0.584541	0.798946	-0.141407	-0.514030	-0.499506	-0.697328
17568	3.783042	-2.573634	-7.345874	-0.901621	2.143699	-0.743006	-0.612171	-0.330193	0.718485	-0.584441	0.800978	-0.129857	-0.532612	-0.499407	-0.683313
17569	3.390690	-2.056993	-7.041830	-0.992352	2.416942	-0.939584	-0.593501	-0.325670	0.736000	-0.584727	0.802856	-0.116264	-0.553038	-0.499361	-0.666924
17570	3.441282	-2.720098	-7.043220	-1.024452	2.727610	-1.133334	-0.571455	-0.321175	0.755173	-0.585559	0.804309	-0.101033	-0.574943	-0.499934	-0.647693
17571	3.200492	-3.100450	-7.154565	-0.867678	3.053393	-1.315086	-0.545786	-0.316459	0.775868	-0.587826	0.804469	-0.085382	-0.597142	-0.502676	-0.625091
17572	3.184014	-2.861392	-7.423404	-0.678526	3.337142	-1.491181	-0.516668	-0.311613	0.797465	-0.591628	0.803214	-0.069449	-0.618894	-0.507685	-0.599354
17573	3.290097	-2.326518	-7.471020	-0.566287	3.561817	-1.668419	-0.484274	-0.306810	0.819357	-0.596414	0.800952	-0.052587	-0.640132	-0.514143	-0.570867
17574	3.591554	-1.966211	-7.117810	-0.528918	3.710617	-1.829762	-0.449145	-0.302256	0.840779	-0.601517	0.798119	-0.034411	-0.660641	-0.521198	-0.540284
17575	4.081038	-2.105083	-7.002304	-0.490037	3.829772	-2.002746	-0.411308	-0.298114	0.861368	-0.606845	0.794684	-0.014737	-0.680122	-0.528778	-0.507769
17576	4.613434	-2.466722	-7.122271	-0.326287	3.957350	-2.156169	-0.370857	-0.294117	0.880886	-0.613029	0.790040	0.005697	-0.697611	-0.537896	-0.473294
17577	5.197503	-2.579311	-7.491629	-0.053270	4.087243	-2.281518	-0.327907	-0.289863	0.899142	-0.620617	0.783673	0.026306	-0.712258	-0.549397	-0.436865
17578	5.961257	-1.984337	-8.245899	0.244368	4.234556	-2.338370	-0.282846	-0.284555	0.915984	-0.629508	0.775598	0.046558	-0.723683	-0.563450	-0.398505
17579	6.419445	-0.102036	-8.811857	0.373611	4.389588	-2.349782	-0.235920	-0.277623	0.931272	-0.638312	0.766865	0.066907	-0.732734	-0.578657	-0.358129
17580	6.518320	2.482549	-8.253970	0.066261	4.420129	-2.265016	-0.188772	-0.269085	0.944435	-0.643601	0.760288	0.087976	-0.741716	-0.591232	-0.316705
17581	6.862390	2.007976	-7.890085	-0.515943	4.302732	-2.202104	-0.142399	-0.260212	0.954993	-0.643376	0.757537	0.110477	-0.752190	-0.598688	-0.275286
17582	7.113292	0.748785	-6.263987	-0.945599	4.158871	-2.086122	-0.097471	-0.251070	0.963049	-0.638698	0.757887	0.132941	-0.763259	-0.602139	-0.234230
17583	7.605241	-0.991414	-5.117210	-1.089574	3.975534	-1.920557	-0.054668	-0.241693	0.968812	-0.631764	0.759733	0.153884	-0.773231	-0.603648	-0.194226
17584	8.068305	-0.939737	-3.863295	-0.874441	3.763021	-1.770711	-0.014272	-0.232419	0.972511	-0.625564	0.760830	0.172650	-0.780042	-0.605904	-0.156252
17585	8.360877	0.530989	-2.942652	-0.740920	3.476806	-1.573399	0.022779	-0.223310	0.974481	-0.619674	0.761751	0.189046	-0.784529	-0.608167	-0.121028
17586	8.595505	1.030111	-2.189704	-0.821520	3.083777	-1.306369	0.055117	-0.214536	0.975160	-0.612683	0.763896	0.202688	-0.788405	-0.608635	-0.089339
17587	8.522214	0.393990	-1.589681	-0.934982	2.631926	-1.035077	0.082270	-0.206484	0.974985	-0.604552	0.767411	0.213536	-0.792306	-0.606997	-0.061695
17588	7.426265	0.290601	0.663618	-0.865283	2.094389	-0.759314	0.103494	-0.199661	0.974384	-0.596953	0.771118	0.221414	-0.795573	-0.604577	-0.039382
17589	7.472699	1.200942	1.989778	-0.658100	1.484879	-0.460839	0.118110	-0.194280	0.973810	-0.591169	0.774192	0.226156	-0.797853	-0.602397	-0.023412
17590	7.334302	-0.259071	2.721039	-0.305321	0.794611	-0.122349	0.125208	-0.190469	0.973676	-0.588558	0.775802	0.227445	-0.798701	-0.601542	-0.014966
17591	4.750587	-4.030639	0.890635	0.608222	0.086458	0.195648	0.124789	-0.188450	0.974122	-0.593617	0.772510	0.225492	-0.795013	-0.606395	-0.015466
17592	5.254146	-3.649080	-2.823028	1.760382	-0.427894	0.385487	0.119126	-0.188137	0.974892	-0.607970	0.762457	0.221431	-0.784972	-0.619083	-0.023554
17593	6.410957	-3.265061	-6.530356	2.778335	-0.755752	0.428909	0.110647	-0.189669	0.975594	-0.630018	0.745807	0.216449	-0.768658	-0.638591	-0.036974
17594	10.473332	2.940364	-7.306301	3.523473	-0.518664	0.238006	0.105220	-0.191320	0.975872	-0.656948	0.723327	0.212641	-0.746557	-0.663471	-0.049579
17595	14.058494	12.353447	-4.609926	3.509753	-0.204553	0.086257	0.103184	-0.192103	0.975935	-0.682808	0.699785	0.209937	-0.723274	-0.688039	-0.058963
17596	17.149102	18.469104	-6.526857	2.690027	-0.407841	0.330829	0.098015	-0.192679	0.976354	-0.702332	0.681683	0.205033	-0.705069	-0.705821	-0.068510
17597	11.506143	17.630168	-4.850742	0.495359	-1.042077	0.826672	0.084907	-0.194435	0.977234	-0.706548	0.679795	0.196643	-0.702553	-0.707159	-0.079658
17598	10.739029	1.104238	-4.624805	-1.086013	-1.662174	1.231705	0.064529	-0.197685	0.978139	-0.699769	0.689842	0.185583	-0.711449	-0.696447	-0.093819
17599	11.848886	-2.981701	-4.834654	-0.405751	-1.483307	1.319144	0.044783	-0.198863	0.979004	-0.697570	0.695283	0.173140	-0.715116	-0.690677	-0.107584
17600	9.582386	-4.526237	-4.390664	-0.234131	-1.310038	1.010843	0.028391	-0.200856	0.979209	-0.696244	0.698925	0.163551	-0.717244	-0.686412	-0.120002
17601	10.356830	-6.461166	-5.877912	0.026987	-1.127654	0.909538	0.014015	-0.202246	0.979234	-0.696607	0.700584	0.154665	-0.717316	-0.684309	-0.131067
17602	9.117749	-5.345542	-6.399925	0.186604	-0.840349	0.836705	0.002193	-0.202151	0.979352	-0.697994	0.701008	0.146260	-0.716100	-0.683903	-0.139563
17603	9.624190	-5.155224	-7.000673	0.210761	-0.614549	0.613911	-0.006452	-0.202076	0.979349	-0.699469	0.700817	0.139997	-0.714634	-0.684121	-0.145868
17604	10.124505	-2.063873	-6.479068	0.424420	-0.423226	0.486820	-0.012847	-0.201589	0.979386	-0.702431	0.698900	0.134642	-0.711636	-0.686222	-0.150581
17605	10.273974	1.098971	-4.733585	0.330103	-0.334797	0.475175	-0.018532	-0.200596	0.979499	-0.704685	0.697597	0.129531	-0.709279	-0.687837	-0.154285
17606	10.176143	0.491018	-3.482433	0.068598	-0.303287	0.397205	-0.023447	-0.199930	0.979530	-0.705071	0.697930	0.125576	-0.708749	-0.687693	-0.157329
17607	10.337244	-0.763256	-2.869864	0.230231	-0.223678	0.314376	-0.027214	-0.199302	0.979560	-0.706604	0.696982	0.122177	-0.707085	-0.688836	-0.159796
17608	9.926540	-0.131337	-2.944805	0.486322	-0.119517	0.254068	-0.029821	-0.198380	0.979671	-0.709946	0.694138	0.118950	-0.703625	-0.691966	-0.161539
17609	9.560072	0.874432	-3.184984	0.415248	-0.077663	0.234025	-0.031998	-0.197321	0.979817	-0.712773	0.691731	0.116028	-0.700665	-0.694674	-0.162779
17610	9.621882	1.458642	-2.687440	0.160870	-0.089754	0.257582	-0.034427	-0.196184	0.979963	-0.713798	0.691129	0.113284	-0.699505	-0.695595	-0.163829
17611	9.864383	1.130632	-1.990752	-0.109973	-0.120964	0.286674	-0.037286	-0.195067	0.980081	-0.712909	0.692463	0.110700	-0.700264	-0.694581	-0.164884
17612	9.985373	0.855559	-1.574723	-0.216623	-0.123757	0.287036	-0.040162	-0.193954	0.980188	-0.711264	0.694534	0.108288	-0.701777	-0.692823	-0.165846
17613	9.857908	1.369730	-1.404862	-0.263140	-0.132442	0.279897	-0.043048	-0.192949	0.980264	-0.709283	0.696905	0.106027	-0.703608	-0.690720	-0.166855
17614	9.792103	1.022817	-1.439006	-0.315727	-0.154918	0.262379	-0.045961	-0.192205	0.980278	-0.706925	0.699596	0.104026	-0.705793	-0.688202	-0.168029
17615	9.524767	0.549965	-1.316039	-0.221695	-0.142310	0.235954	-0.048600	-0.191556	0.980278	-0.705232	0.701582	0.102132	-0.707309	-0.686360	-0.169188
17616	9.775438	0.045756	-1.309928	-0.067227	-0.114671	0.194987	-0.050750	-0.190994	0.980278	-0.704644	0.702425	0.100378	-0.707744	-0.685653	-0.170231
17617	9.748663	0.110045	-1.289343	0.075919	-0.081882	0.173198	-0.052518	-0.190364	0.980308	-0.705077	0.702244	0.098594	-0.707184	-0.686014	-0.171102
17618	9.608249	0.035447	-1.039903	0.148625	-0.070312	0.150552	-0.054041	-0.189810	0.980332	-0.706031	0.701519	0.096907	-0.706116	-0.686908	-0.171923
17619	9.667167	0.017960	-1.051371	0.224941	-0.060749	0.140011	-0.055427	-0.189271	0.980359	-0.707526	0.700247	0.095190	-0.704510	-0.688354	-0.172727
17620	9.616502	0.310232	-1.273682	0.278138	-0.042144	0.138459	-0.056668	-0.188613	0.980415	-0.709390	0.698601	0.093395	-0.702534	-0.690204	-0.173389
17621	9.353386	1.311993	-1.430524	0.302932	-0.042388	0.149964	-0.057999	-0.187883	0.980477	-0.711414	0.696798	0.091441	-0.700375	-0.692222	-0.174076
17622	9.627002	1.883924	-1.856868	0.215371	-0.060290	0.147322	-0.059434	-0.187296	0.980504	-0.712819	0.695592	0.089664	-0.698825	-0.693593	-0.174850
17623	9.438695	2.028420	-2.039211	0.114147	-0.071184	0.162030	-0.061054	-0.186687	0.980521	-0.713505	0.695113	0.087919	-0.697985	-0.694238	-0.175641
17624	9.367493	1.456466	-1.862391	0.065863	-0.096738	0.182199	-0.062993	-0.186112	0.980507	-0.713836	0.695005	0.086060	-0.697474	-0.694500	-0.176634
17625	9.525390	1.410350	-1.560995	0.058272	-0.110135	0.189542	-0.065081	-0.185584	0.980471	-0.714107	0.694962	0.084142	-0.697005	-0.694685	-0.177755
17626	9.604648	0.950107	-1.292334	0.004303	-0.129370	0.198685	-0.067365	-0.185121	0.980404	-0.713990	0.695310	0.082230	-0.696907	-0.694460	-0.179014
17627	9.580602	0.587531	-0.981232	0.066288	-0.130893	0.206938	-0.069721	-0.184616	0.980335	-0.714296	0.695242	0.080127	-0.696362	-0.694662	-0.180344
17628	9.556431	0.830527	-0.624491	0.073112	-0.157938	0.222059	-0.072371	-0.184190	0.980223	-0.714632	0.695153	0.077861	-0.695746	-0.694864	-0.181937
17629	9.504427	1.046328	-0.363631	0.058311	-0.198504	0.239907	-0.075433	-0.183925	0.980042	-0.714847	0.695199	0.075448	-0.695201	-0.694888	-0.183919
17630	9.533030	1.174346	-0.082266	0.015999	-0.251924	0.254944	-0.078970	-0.183922	0.979763	-0.714747	0.695567	0.072963	-0.694911	-0.694521	-0.186387
17631	9.817078	1.023492	-0.140911	-0.021063	-0.307477	0.270263	-0.083003	-0.184199	0.979378	-0.714367	0.696221	0.070401	-0.694831	-0.693792	-0.189374
17632	10.120608	1.032509	-0.671355	-0.005342	-0.325702	0.269207	-0.087152	-0.184603	0.978941	-0.714087	0.696764	0.067818	-0.694611	-0.693139	-0.192547
17633	10.029542	1.033636	-1.199241	-0.022365	-0.332705	0.269002	-0.091347	-0.185055	0.978473	-0.713678	0.697426	0.065275	-0.694492	-0.692352	-0.195778
17634	9.826171	0.743605	-1.647260	-0.040464	-0.358619	0.267243	-0.095708	-0.185691	0.977936	-0.713133	0.698211	0.062784	-0.694464	-0.691390	-0.199247
17635	9.671954	0.486413	-1.903521	-0.041360	-0.383600	0.267950	-0.100246	-0.186492	0.977329	-0.712570	0.699006	0.060294	-0.694403	-0.690371	-0.202961
17636	9.735520	0.318715	-1.529307	-0.007744	-0.385938	0.264487	-0.104774	-0.187326	0.976694	-0.712232	0.699563	0.057769	-0.694081	-0.689580	-0.206715
17637	9.705397	0.996742	-0.265195	0.054918	-0.408062	0.277259	-0.109543	-0.188221	0.975998	-0.712302	0.699715	0.054993	-0.693272	-0.689182	-0.210719
17638	9.622954	1.233828	0.866710	-0.016151	-0.499243	0.287885	-0.115017	-0.189664	0.975089	-0.711854	0.700380	0.052263	-0.692845	-0.688110	-0.215569
17639	9.550064	1.062757	1.498278	-0.027953	-0.593359	0.291553	-0.121164	-0.191721	0.973942	-0.711303	0.701138	0.049530	-0.692363	-0.686767	-0.221325
17640	9.748410	0.827531	1.581164	-0.018209	-0.676024	0.301934	-0.127953	-0.194261	0.972569	-0.710789	0.701855	0.046676	-0.691670	-0.685319	-0.227883
17641	9.821875	1.076407	1.285751	0.008940	-0.762956	0.320075	-0.135461	-0.197257	0.970948	-0.710416	0.702430	0.043592	-0.690622	-0.683872	-0.235286
17642	9.668390	1.167782	0.975502	-0.057826	-0.862824	0.343284	-0.143818	-0.200756	0.969027	-0.709526	0.703517	0.040445	-0.689847	-0.681734	-0.243620
17643	9.636332	0.544829	0.493712	-0.106158	-0.947074	0.357154	-0.152838	-0.204702	0.966818	-0.708252	0.704973	0.037300	-0.689217	-0.679050	-0.252728
17644	9.712109	0.174793	0.097691	-0.025476	-0.990196	0.371229	-0.162248	-0.208817	0.964402	-0.707481	0.705922	0.033825	-0.687856	-0.676808	-0.262268
17645	9.836646	0.924318	-0.282179	0.030189	-1.025277	0.399576	-0.172073	-0.212941	0.961794	-0.707009	0.706571	0.029945	-0.685951	-0.674844	-0.272133
17646	9.650035	1.430631	-0.624936	-0.071800	-1.098113	0.440243	-0.182672	-0.217243	0.958873	-0.705726	0.708009	0.025961	-0.684530	-0.671959	-0.282647
17647	9.735587	1.221452	-1.266408	-0.139372	-1.164451	0.466685	-0.193881	-0.221754	0.955634	-0.703883	0.709977	0.021944	-0.683344	-0.668400	-0.293740
17648	9.748864	1.725076	-2.052853	-0.079531	-1.213314	0.457785	-0.205344	-0.226611	0.952093	-0.702417	0.711541	0.017861	-0.681501	-0.665099	-0.305286
17649	9.669466	1.930439	-2.684058	-0.101460	-1.268277	0.455956	-0.217129	-0.231791	0.948224	-0.700754	0.713268	0.013895	-0.679558	-0.661454	-0.317299
17650	9.712198	1.494299	-3.257539	-0.087322	-1.300828	0.441311	-0.229008	-0.237242	0.944072	-0.699169	0.714886	0.010048	-0.677288	-0.657765	-0.329586
17651	9.578789	1.109867	-3.551786	-0.040874	-1.326931	0.424208	-0.240893	-0.242928	0.939658	-0.697887	0.716181	0.006241	-0.674481	-0.654271	-0.342059
17652	9.901228	0.942790	-3.688583	-0.066846	-1.367065	0.394688	-0.252810	-0.249038	0.934915	-0.696456	0.717594	0.002821	-0.671593	-0.650414	-0.354859
17653	10.370966	0.708173	-3.214258	-0.067178	-1.388404	0.360434	-0.264530	-0.255516	0.929912	-0.695190	0.718826	-0.000244	-0.668382	-0.646530	-0.367783
17654	10.826374	0.642497	-1.926184	0.019469	-1.421119	0.345904	-0.276369	-0.262213	0.924589	-0.694379	0.719601	-0.003478	-0.664423	-0.642976	-0.380950
17655	11.030024	1.217488	-0.422990	0.148850	-1.485615	0.338502	-0.288457	-0.269376	0.918820	-0.694526	0.719432	-0.007122	-0.659110	-0.640199	-0.394614
17656	11.444730	1.853200	0.665030	0.291171	-1.554426	0.360566	-0.301123	-0.276739	0.912546	-0.695368	0.718561	-0.011547	-0.652524	-0.638033	-0.408811
17657	11.928272	2.995312	0.989501	0.464065	-1.622430	0.410648	-0.314402	-0.284205	0.905748	-0.697233	0.716639	-0.017156	-0.644219	-0.636911	-0.423470
17658	12.236094	3.996105	1.251096	0.452084	-1.741550	0.505874	-0.329041	-0.291681	0.898139	-0.698495	0.715225	-0.023622	-0.635481	-0.635118	-0.439076
17659	12.782062	4.354180	0.931397	0.456695	-1.846009	0.603308	-0.344796	-0.299148	0.889734	-0.699463	0.713996	-0.031000	-0.625993	-0.633025	-0.455426
17660	12.313451	5.810074	0.630785	0.426148	-1.951017	0.723708	-0.361941	-0.306327	0.880433	-0.699551	0.713499	-0.039336	-0.616139	-0.630145	-0.472536
17661	11.594218	6.360738	1.115584	0.106088	-2.128448	0.839371	-0.380711	-0.313760	0.869836	-0.697205	0.715321	-0.047130	-0.607424	-0.624396	-0.491085
17662	11.356098	5.139044	1.465608	-0.166167	-2.308561	0.935313	-0.401109	-0.321388	0.857800	-0.692546	0.719325	-0.054330	-0.599576	-0.615858	-0.511104
17663	11.429745	3.755992	1.245411	-0.186226	-2.408304	1.006082	-0.422323	-0.328864	0.844685	-0.687294	0.723741	-0.061855	-0.590991	-0.606670	-0.531678
17664	11.400589	3.023502	0.899614	-0.123354	-2.440557	1.060633	-0.443857	-0.335883	0.830767	-0.681980	0.728011	-0.070026	-0.581287	-0.597648	-0.552198
17665	11.358173	1.911296	0.432607	-0.071039	-2.480540	1.132522	-0.465768	-0.342340	0.816005	-0.676421	0.732279	-0.078881	-0.570539	-0.588703	-0.572638
17666	11.445410	0.339176	-1.445344	0.009973	-2.478983	1.190477	-0.487752	-0.348110	0.800573	-0.670806	0.736331	-0.088515	-0.558674	-0.580203	-0.592662
17667	11.389163	-0.832448	-3.566917	0.206628	-2.387514	1.212626	-0.508969	-0.352943	0.785100	-0.665908	0.739395	-0.099302	-0.545451	-0.573346	-0.611357
17668	11.157693	-1.204509	-5.017895	0.301996	-2.271244	1.245505	-0.529434	-0.356696	0.769719	-0.661075	0.742092	-0.110812	-0.531677	-0.567510	-0.628691
17669	10.368455	-2.207584	-5.930893	0.300574	-2.169940	1.260658	-0.549056	-0.359586	0.754477	-0.655862	0.744914	-0.122263	-0.518056	-0.561962	-0.644838
17670	10.404420	-3.013947	-7.270403	0.307460	-2.046260	1.290716	-0.567917	-0.361423	0.739488	-0.650235	0.747847	-0.133864	-0.504642	-0.556865	-0.659725
17671	10.387504	-4.033769	-8.562858	0.218174	-1.882678	1.226531	-0.584685	-0.363515	0.725259	-0.645290	0.750205	-0.144198	-0.491675	-0.552313	-0.673206
17672	9.947694	-3.588350	-8.159684	0.264237	-1.635321	1.104055	-0.599697	-0.364241	0.712525	-0.640047	0.752768	-0.153883	-0.480315	-0.548333	-0.684565
17673	9.222730	-3.831910	-8.302321	0.280070	-1.242022	0.888196	-0.610715	-0.365225	0.702594	-0.637047	0.753610	-0.161996	-0.470317	-0.546519	-0.692906
17674	8.165472	-4.267390	-9.270024	0.412471	-0.696074	0.646571	-0.618047	-0.364182	0.696699	-0.635013	0.753712	-0.169341	-0.463440	-0.547074	-0.697089
17675	5.291515	-2.905453	-9.978351	0.427249	-0.160213	0.434935	-0.621021	-0.362628	0.694863	-0.635278	0.752137	-0.175250	-0.459081	-0.550265	-0.697462
17676	5.018493	-0.581181	-9.626093	-0.221816	-0.094435	0.232565	-0.622899	-0.361419	0.693811	-0.632825	0.754196	-0.175272	-0.459923	-0.548237	-0.698503
17677	7.009938	-0.442675	-7.631299	-0.928524	0.173916	-0.005390	-0.621613	-0.361219	0.695067	-0.629388	0.758568	-0.168655	-0.466334	-0.542305	-0.698883
17678	5.842521	-2.054262	-6.665464	-1.186796	0.641508	-0.263558	-0.616901	-0.359792	0.699988	-0.625431	0.764013	-0.158492	-0.477776	-0.535568	-0.696346
17679	5.536200	-3.320149	-6.388188	-1.141820	1.087357	-0.520992	-0.608315	-0.357996	0.708373	-0.623103	0.768231	-0.146842	-0.491625	-0.530716	-0.690395
17680	5.083744	-3.600126	-6.317741	-0.949799	1.570072	-0.769591	-0.595649	-0.355623	0.720232	-0.623005	0.770517	-0.134789	-0.507017	-0.528995	-0.680513
17681	4.863933	-3.344174	-6.397423	-0.805483	1.906458	-0.939687	-0.579903	-0.352786	0.734339	-0.624391	0.771452	-0.122462	-0.523304	-0.529531	-0.667644
17682	4.628307	-2.500262	-6.481169	-0.728157	2.218987	-1.090628	-0.561245	-0.349451	0.750258	-0.626751	0.771486	-0.109515	-0.540543	-0.531690	-0.652011
17683	4.514495	-1.877171	-6.570100	-0.824430	2.484926	-1.242471	-0.539409	-0.346310	0.767533	-0.629747	0.771006	-0.094699	-0.558978	-0.534434	-0.633975
17684	4.768927	-1.529347	-6.504577	-0.936473	2.714749	-1.352265	-0.515398	-0.342225	0.785650	-0.631557	0.771365	-0.078308	-0.579224	-0.536543	-0.613695
17685	4.963094	-1.523169	-6.196272	-1.016491	2.914439	-1.443288	-0.488762	-0.338104	0.804237	-0.633408	0.771439	-0.060627	-0.599922	-0.539042	-0.591208
17686	5.433316	-2.268371	-6.732260	-0.949295	3.128952	-1.536540	-0.459884	-0.333066	0.823148	-0.634906	0.771415	-0.042582	-0.620807	-0.542204	-0.566227
17687	5.682717	-1.803459	-7.055634	-0.730172	3.361943	-1.596123	-0.428230	-0.327388	0.842280	-0.637943	0.769672	-0.025175	-0.640037	-0.548108	-0.538451
17688	5.553936	-0.431594	-6.394870	-0.653132	3.531775	-1.618721	-0.394911	-0.320386	0.861045	-0.640364	0.768030	-0.007921	-0.658771	-0.554510	-0.508468
17689	5.791932	-0.901895	-6.650560	-0.687911	3.637983	-1.649129	-0.359772	-0.313019	0.878967	-0.642486	0.766234	0.009895	-0.676592	-0.561164	-0.476779
17690	5.908858	-1.644226	-7.243819	-0.484120	3.779492	-1.650844	-0.323233	-0.304312	0.896055	-0.644806	0.763876	0.026823	-0.692637	-0.569112	-0.443132
17691	6.270062	-1.211103	-7.954200	-0.207988	3.916387	-1.616246	-0.285140	-0.294360	0.912167	-0.648752	0.759818	0.042399	-0.705561	-0.579680	-0.407621
17692	6.283960	-0.466878	-7.833009	-0.054790	4.041625	-1.573002	-0.246124	-0.282645	0.927111	-0.652534	0.755603	0.057127	-0.716674	-0.590911	-0.370408
17693	6.281062	-0.174010	-7.335191	-0.000924	4.122060	-1.551428	-0.206023	-0.269888	0.940593	-0.656441	0.750963	0.071693	-0.725699	-0.602674	-0.331881
17694	6.578996	0.033944	-6.889316	-0.116157	4.125528	-1.544285	-0.165716	-0.256411	0.952256	-0.658453	0.747609	0.086719	-0.734151	-0.612646	-0.292725
17695	7.128261	-0.717230	-5.695910	-0.285897	4.022263	-1.531350	-0.125744	-0.243149	0.961804	-0.658984	0.745177	0.102230	-0.741572	-0.620959	-0.253933
17696	7.530232	-2.105033	-4.879702	-0.196989	3.860149	-1.542207	-0.086809	-0.230525	0.969186	-0.659143	0.742761	0.117630	-0.746991	-0.628621	-0.216428
17697	7.962338	-1.964012	-4.100289	0.121677	3.651899	-1.570595	-0.048956	-0.219095	0.974475	-0.661491	0.738115	0.132721	-0.748353	-0.638109	-0.181064
17698	8.676923	-0.671356	-4.429022	0.171331	3.352909	-1.559892	-0.013494	-0.209059	0.977810	-0.663243	0.733682	0.147710	-0.748282	-0.646533	-0.148557
17699	8.594251	0.122285	-4.018978	-0.132498	2.968728	-1.445554	0.018371	-0.200391	0.979544	-0.662193	0.731593	0.162085	-0.749108	-0.651625	-0.119257
17700	7.328605	-1.036563	-3.828314	-0.324614	2.568848	-1.301579	0.046269	-0.193158	0.980076	-0.659319	0.731160	0.175226	-0.750439	-0.654290	-0.093523
17701	7.221686	-1.907755	-3.052317	-0.061750	2.215932	-1.144713	0.070483	-0.186989	0.979830	-0.658162	0.729400	0.186542	-0.749570	-0.658035	-0.071659
17702	8.249460	1.716828	-0.903186	0.344446	1.843750	-0.864542	0.090002	-0.181113	0.979335	-0.660022	0.725541	0.194835	-0.745835	-0.663919	-0.054238
17703	6.736133	2.099186	-0.018963	0.317143	1.225266	-0.602143	0.103151	-0.177321	0.978732	-0.661775	0.722361	0.200620	-0.742572	-0.668395	-0.042834
17704	4.171835	-0.926954	-0.428565	1.004410	0.496819	-0.220606	0.108325	-0.175587	0.978486	-0.668942	0.715227	0.202403	-0.735379	-0.676475	-0.039980
17705	5.052172	-0.421507	-0.830461	1.553378	-0.255051	0.107240	0.105790	-0.176575	0.978586	-0.680375	0.704838	0.200733	-0.725189	-0.687040	-0.045572
17706	8.181621	-1.942789	-2.464841	2.387853	-0.838967	0.333944	0.097506	-0.180096	0.978804	-0.697824	0.688857	0.196262	-0.709602	-0.702170	-0.058508
17707	15.808679	0.766854	-3.564502	3.161229	-0.909482	0.460446	0.087934	-0.183458	0.979087	-0.720320	0.667195	0.189710	-0.688045	-0.721938	-0.073480
17708	18.687866	12.053850	-6.316638	4.083942	-0.606003	0.589010	0.079564	-0.184084	0.979685	-0.748295	0.638279	0.180705	-0.658577	-0.747471	-0.086965
17709	12.011088	15.288971	-4.693040	1.981682	-0.883076	0.263543	0.071872	-0.189079	0.979328	-0.761383	0.623863	0.176327	-0.644306	-0.758317	-0.099123
17710	9.016238	2.866540	-5.533509	1.058597	-1.114371	0.642973	0.059852	-0.193581	0.979257	-0.768570	0.617053	0.168955	-0.636960	-0.762740	-0.111849
17711	8.253801	-1.758094	-7.530176	0.694291	-1.172584	0.857720	0.045851	-0.197276	0.979275	-0.773407	0.613440	0.159790	-0.632249	-0.764705	-0.124448
17712	8.234727	-2.561042	-9.133059	0.848352	-0.928048	0.840776	0.033524	-0.199266	0.979372	-0.779061	0.608616	0.150498	-0.626051	-0.768036	-0.134838
17713	10.541964	-1.909771	-9.097948	0.474549	-0.772962	0.727229	0.023068	-0.200809	0.979359	-0.782211	0.606435	0.142769	-0.622586	-0.769358	-0.143086
17714	10.621924	-0.194272	-8.631361	0.431811	-0.542621	0.733523	0.013989	-0.200562	0.979581	-0.785012	0.604592	0.134996	-0.619322	-0.770871	-0.148986
17715	10.319841	1.830421	-7.307034	-0.034125	-0.438286	0.760010	0.005349	-0.199359	0.979912	-0.784857	0.606386	0.127651	-0.619654	-0.769774	-0.153225
17716	9.604044	2.419684	-6.215882	-0.399381	-0.376179	0.735597	-0.002714	-0.197787	0.980241	-0.782370	0.610926	0.121103	-0.622808	-0.766583	-0.156401
17717	9.740747	1.900141	-5.042016	-0.655424	-0.342172	0.683116	-0.010146	-0.196235	0.980504	-0.778211	0.617292	0.115490	-0.627921	-0.761868	-0.158975
17718	9.581011	1.049239	-3.507010	-0.738912	-0.308613	0.653416	-0.017124	-0.194538	0.980745	-0.773446	0.624190	0.110308	-0.633631	-0.756665	-0.161153
17719	9.682145	0.044554	-1.775838	-0.730840	-0.306789	0.599374	-0.023661	-0.193121	0.980890	-0.768656	0.630874	0.105667	-0.639224	-0.751467	-0.163371
17720	10.350112	-1.606810	-0.933285	-0.621906	-0.294027	0.518261	-0.029483	-0.192056	0.980941	-0.764514	0.636542	0.101649	-0.643933	-0.746946	-0.165597
17721	10.434202	-2.529422	-0.786774	-0.379045	-0.214312	0.444123	-0.034220	-0.190848	0.981023	-0.761910	0.640229	0.097973	-0.646778	-0.744099	-0.167318
17722	10.148108	-2.912704	-0.752923	-0.186484	-0.153099	0.380528	-0.038071	-0.189563	0.981130	-0.760551	0.642350	0.094596	-0.648161	-0.742598	-0.168627
17723	9.915229	-1.846026	-0.808270	-0.004139	-0.111549	0.351343	-0.041432	-0.188160	0.981264	-0.760370	0.643055	0.091202	-0.648168	-0.742345	-0.169714
17724	9.899299	-0.763979	-0.750392	-0.016406	-0.121594	0.309638	-0.044537	-0.187088	0.981333	-0.760116	0.643769	0.088235	-0.648259	-0.741997	-0.170880
17725	10.054939	-0.594219	-0.867661	0.002623	-0.125496	0.245608	-0.047185	-0.186462	0.981329	-0.760006	0.644219	0.085865	-0.648201	-0.741764	-0.172109
17726	10.041991	-0.715256	-0.966341	0.105920	-0.122025	0.195483	-0.049424	-0.186125	0.981282	-0.760584	0.643808	0.083807	-0.647356	-0.742205	-0.173383
17727	10.083011	-0.235566	-1.426258	0.318219	-0.090211	0.149796	-0.051115	-0.185856	0.981246	-0.762551	0.641732	0.081826	-0.644906	-0.744068	-0.174527
17728	9.695362	0.858633	-1.694847	0.383571	-0.089617	0.139285	-0.052718	-0.185649	0.981201	-0.764933	0.639144	0.079831	-0.641949	-0.746344	-0.175704
17729	9.379070	1.375635	-1.563670	0.280738	-0.125561	0.145503	-0.054605	-0.185681	0.981092	-0.766641	0.637327	0.077951	-0.639750	-0.747888	-0.177152
17730	9.454085	1.450822	-1.329030	0.122940	-0.170348	0.172048	-0.056976	-0.185877	0.980920	-0.767317	0.636738	0.076088	-0.638732	-0.748341	-0.178905
17731	9.787883	0.867122	-1.237778	0.001163	-0.198957	0.179171	-0.059589	-0.186247	0.980694	-0.767207	0.637074	0.074371	-0.638626	-0.747963	-0.180852
17732	9.769094	0.538186	-1.520444	0.037106	-0.185605	0.171845	-0.062055	-0.186557	0.980482	-0.767326	0.637128	0.072662	-0.638248	-0.747840	-0.182687
17733	9.506373	0.764942	-1.903013	0.099811	-0.172567	0.154660	-0.064310	-0.186885	0.980275	-0.767851	0.636681	0.071006	-0.637392	-0.748139	-0.184445
17734	9.479779	0.534810	-2.289425	0.091666	-0.169342	0.140923	-0.066434	-0.187272	0.980059	-0.768330	0.636269	0.069499	-0.636597	-0.748392	-0.186156
17735	9.508382	0.494562	-2.491794	0.124747	-0.155247	0.135173	-0.068428	-0.187597	0.979860	-0.769020	0.635600	0.067984	-0.635552	-0.748879	-0.187759
17736	9.605665	0.486420	-2.509754	0.099924	-0.141171	0.131627	-0.070299	-0.187835	0.979682	-0.769550	0.635109	0.066550	-0.634705	-0.749236	-0.189196
17737	9.606288	0.305653	-2.602002	0.063873	-0.119499	0.125876	-0.071994	-0.187954	0.979536	-0.769853	0.634878	0.065238	-0.634148	-0.749402	-0.190405
17738	9.531633	0.374564	-2.472969	0.054277	-0.103734	0.125338	-0.073579	-0.187953	0.979418	-0.770093	0.634718	0.063951	-0.633674	-0.749538	-0.191443
17739	9.472942	1.139609	-2.396323	0.052483	-0.088852	0.124235	-0.075067	-0.187854	0.979324	-0.770321	0.634569	0.062676	-0.633222	-0.749689	-0.192343
17740	9.455928	1.879280	-2.105147	-0.058157	-0.111481	0.138997	-0.076806	-0.187824	0.979195	-0.769834	0.635277	0.061471	-0.633606	-0.749097	-0.193386
17741	9.561370	1.553719	-1.467685	-0.188794	-0.146986	0.144746	-0.078820	-0.188027	0.978996	-0.768512	0.636972	0.060464	-0.634962	-0.747604	-0.194707
17742	9.684979	0.841859	-1.018895	-0.207415	-0.177807	0.152769	-0.081086	-0.188397	0.978740	-0.767058	0.638820	0.059418	-0.636433	-0.745933	-0.196311
17743	9.846374	0.646200	-0.425393	-0.129639	-0.214007	0.168458	-0.083708	-0.188939	0.978415	-0.766082	0.640115	0.058069	-0.637269	-0.744685	-0.198325
17744	9.759954	1.185351	0.384173	-0.082616	-0.259085	0.193289	-0.086802	-0.189646	0.978008	-0.765378	0.641106	0.056387	-0.637701	-0.743651	-0.200800
17745	9.756978	0.820134	0.786180	-0.142214	-0.333462	0.219616	-0.090575	-0.190737	0.977454	-0.764263	0.642591	0.054573	-0.638512	-0.742089	-0.203976
17746	10.098773	0.553230	0.684024	-0.076089	-0.375153	0.222534	-0.094634	-0.192105	0.976801	-0.763559	0.643592	0.052599	-0.638766	-0.740868	-0.207589
17747	10.080640	0.819936	0.536831	-0.005671	-0.416311	0.227672	-0.098994	-0.193742	0.976045	-0.763290	0.644084	0.050433	-0.638426	-0.740013	-0.211642
17748	9.932197	1.652118	0.286082	0.021033	-0.484797	0.258369	-0.104022	-0.195681	0.975135	-0.763151	0.644442	0.047912	-0.637794	-0.739191	-0.216370
17749	9.790892	1.764899	0.180455	-0.188831	-0.594588	0.285373	-0.109955	-0.198246	0.973965	-0.761628	0.646408	0.045591	-0.638618	-0.736787	-0.222066
17750	9.908986	0.316918	-0.007058	-0.247313	-0.668797	0.292784	-0.116419	-0.201286	0.972590	-0.759705	0.648822	0.043342	-0.639762	-0.733835	-0.228453
17751	9.579861	0.648006	0.098978	-0.116403	-0.689441	0.309497	-0.123140	-0.204346	0.971123	-0.758578	0.650313	0.040651	-0.639841	-0.731666	-0.235092
17752	9.236183	1.257442	0.191493	-0.153082	-0.760460	0.328706	-0.130460	-0.207777	0.969437	-0.757171	0.652118	0.037872	-0.640057	-0.729089	-0.242398
17753	9.228032	0.827170	-0.000266	-0.225998	-0.838736	0.352591	-0.138456	-0.211592	0.967501	-0.755238	0.654512	0.035062	-0.640660	-0.725840	-0.250424
17754	9.474583	0.579373	-0.506666	-0.188877	-0.876615	0.362242	-0.146768	-0.215585	0.965392	-0.753501	0.656663	0.032087	-0.640855	-0.722715	-0.258821
17755	9.588417	0.716203	-0.888239	-0.163597	-0.905255	0.378266	-0.155373	-0.219642	0.963129	-0.751871	0.658675	0.028918	-0.640741	-0.719656	-0.267483
17756	9.636886	0.904566	-0.967140	-0.166840	-0.956818	0.389064	-0.164388	-0.223963	0.960634	-0.750171	0.660745	0.025675	-0.640484	-0.716419	-0.276629
17757	9.641608	1.106018	-1.389699	-0.148564	-1.001387	0.388752	-0.173667	-0.228564	0.957913	-0.748553	0.662696	0.022413	-0.639928	-0.713157	-0.286181
17758	9.770907	0.948662	-1.787514	-0.159853	-1.063196	0.382833	-0.183293	-0.233605	0.954899	-0.746839	0.664726	0.019262	-0.639246	-0.709625	-0.296305
17759	10.013569	0.936163	-2.315321	-0.040330	-1.097340	0.351482	-0.192875	-0.239053	0.951658	-0.745911	0.665851	0.016083	-0.637507	-0.706750	-0.306739
17760	10.039759	1.227678	-2.463105	0.011952	-1.146943	0.334215	-0.202629	-0.244936	0.948129	-0.745319	0.666583	0.012917	-0.635171	-0.704041	-0.317624
17761	10.236274	0.677077	-2.476718	-0.000667	-1.192935	0.324053	-0.212559	-0.251171	0.944316	-0.744634	0.667400	0.009904	-0.632724	-0.701064	-0.328892
17762	10.357018	0.398145	-2.263013	0.066636	-1.217662	0.317221	-0.222570	-0.257592	0.940271	-0.744357	0.667748	0.006738	-0.629599	-0.698398	-0.340361
17763	10.666185	0.733447	-1.967727	0.080649	-1.255319	0.324670	-0.232820	-0.264189	0.935948	-0.744117	0.668040	0.003465	-0.626166	-0.695649	-0.352120
17764	10.836000	1.428605	-1.422693	0.092381	-1.302404	0.357926	-0.243577	-0.270857	0.931293	-0.743835	0.668363	-0.000162	-0.622398	-0.692768	-0.364271
17765	10.481627	2.482570	-0.595586	0.078051	-1.375871	0.408461	-0.255101	-0.277649	0.926194	-0.743295	0.668950	-0.004191	-0.618414	-0.689504	-0.377025
17766	9.967870	3.186471	0.271623	0.027542	-1.488544	0.462570	-0.267675	-0.284805	0.920454	-0.742251	0.670068	-0.008521	-0.614340	-0.685489	-0.390757
17767	10.286154	3.042387	0.971953	-0.007390	-1.616851	0.517913	-0.281360	-0.292389	0.913972	-0.740779	0.671619	-0.013186	-0.609986	-0.680762	-0.405562
17768	11.153876	3.163221	1.253567	0.108727	-1.730665	0.594966	-0.296235	-0.300153	0.906727	-0.739718	0.672649	-0.019005	-0.604204	-0.676351	-0.421291
17769	11.851274	4.281568	1.119380	0.203041	-1.839530	0.689807	-0.312325	-0.307925	0.898685	-0.738835	0.673383	-0.026044	-0.597140	-0.672114	-0.437820
17770	12.264077	5.469400	0.677174	0.095212	-1.971477	0.804112	-0.329926	-0.315719	0.889646	-0.736816	0.675257	-0.033613	-0.590128	-0.666595	-0.455412
17771	12.795404	5.568769	-0.101072	-0.154987	-2.120579	0.901422	-0.348935	-0.323678	0.879475	-0.732845	0.679171	-0.040800	-0.584108	-0.658756	-0.474192
17772	12.624910	6.253920	0.444276	-0.387929	-2.269857	1.000270	-0.369400	-0.331713	0.868049	-0.726996	0.684989	-0.047616	-0.578809	-0.648658	-0.494189
17773	12.191014	6.123508	0.839818	-0.674942	-2.442368	1.064651	-0.391110	-0.340075	0.855209	-0.719056	0.692904	-0.053309	-0.574448	-0.635793	-0.515535
17774	11.919022	4.253932	0.933959	-0.750590	-2.540800	1.114521	-0.413576	-0.348303	0.841213	-0.710280	0.701462	-0.058764	-0.569612	-0.621800	-0.537500
17775	11.856851	2.363449	0.731481	-0.584543	-2.544824	1.141255	-0.435970	-0.355922	0.826589	-0.702125	0.709081	-0.064999	-0.562984	-0.608706	-0.559040
17776	11.671117	0.719029	-0.255153	-0.324159	-2.503134	1.187808	-0.458216	-0.362580	0.811526	-0.695007	0.715304	-0.072836	-0.554079	-0.597391	-0.579759
17777	11.259816	-0.164254	-1.824028	-0.055968	-2.433226	1.247536	-0.480116	-0.368057	0.796255	-0.688854	0.720196	-0.082457	-0.543111	-0.588092	-0.599315
17778	10.889026	-1.479339	-4.375649	0.131219	-2.322562	1.264855	-0.501234	-0.372515	0.781023	-0.683358	0.724112	-0.093184	-0.530836	-0.580426	-0.617511
17779	10.296300	-2.539700	-6.559500	0.322197	-2.129722	1.250233	-0.520834	-0.375753	0.766513	-0.678669	0.726929	-0.104797	-0.517823	-0.574790	-0.633621
17780	9.430995	-2.185679	-7.617667	0.449473	-1.917659	1.297112	-0.539379	-0.377316	0.752797	-0.674099	0.729238	-0.117484	-0.504639	-0.570828	-0.647684
17781	9.552733	-2.696858	-9.507203	0.121366	-1.778290	1.290523	-0.556839	-0.377983	0.739634	-0.667646	0.733422	-0.127833	-0.494145	-0.564996	-0.660757
17782	9.444707	-3.556486	-9.708621	-0.144132	-1.683209	1.243884	-0.573310	-0.378297	0.726779	-0.659921	0.738934	-0.135947	-0.485613	-0.557556	-0.673284
17783	9.503428	-4.093624	-8.533281	-0.246465	-1.447153	1.098349	-0.587421	-0.378173	0.715487	-0.652375	0.744451	-0.142123	-0.478899	-0.550252	-0.684017
17784	8.713580	-5.010363	-9.068528	-0.083687	-0.997623	0.886829	-0.597901	-0.377045	0.707355	-0.646732	0.748257	-0.147811	-0.473552	-0.545846	-0.691231
17785	6.788933	-4.543403	-9.697498	0.073272	-0.476213	0.662019	-0.604345	-0.374688	0.703119	-0.643118	0.750343	-0.152919	-0.470284	-0.544604	-0.694435
17786	4.713916	-2.693393	-10.287295	-0.197944	-0.156183	0.441664	-0.607881	-0.372241	0.701368	-0.639522	0.753067	-0.154600	-0.470629	-0.542519	-0.695832
17787	5.936643	-1.786144	-9.411806	-0.860545	-0.131759	0.262233	-0.610105	-0.370976	0.700106	-0.633874	0.758677	-0.150374	-0.475369	-0.535523	-0.698025
17788	6.435664	-2.288352	-7.801093	-1.198463	0.222368	0.069660	-0.609447	-0.369288	0.701570	-0.627711	0.765302	-0.142451	-0.484308	-0.527199	-0.698217
17789	5.461506	-3.259895	-6.803567	-1.253486	0.538586	-0.122880	-0.605972	-0.367423	0.705549	-0.622334	0.771407	-0.132783	-0.495478	-0.519550	-0.696111
17790	5.403446	-3.782200	-6.644499	-1.076278	0.987797	-0.350253	-0.598811	-0.365048	0.712857	-0.619055	0.775689	-0.122792	-0.508131	-0.514827	-0.690476
17791	4.544354	-3.032950	-6.522892	-0.907698	1.404590	-0.536414	-0.588191	-0.362007	0.723175	-0.617578	0.778400	-0.112652	-0.522139	-0.512878	-0.681415
17792	4.157026	-2.387526	-6.068650	-0.908659	1.596874	-0.624627	-0.575849	-0.358723	0.734654	-0.616411	0.780802	-0.101910	-0.537062	-0.511534	-0.670744
17793	4.315382	-2.236902	-6.343879	-0.864603	1.798498	-0.699016	-0.561676	-0.354998	0.747326	-0.615689	0.782726	-0.090925	-0.552673	-0.511191	-0.658207
17794	4.462170	-2.220059	-6.459288	-0.760460	1.968398	-0.747224	-0.546012	-0.350805	0.760794	-0.615573	0.783979	-0.080293	-0.568279	-0.512165	-0.644008
17795	4.967644	-2.037622	-6.781808	-0.584013	2.191246	-0.804549	-0.528367	-0.345865	0.775375	-0.616541	0.784174	-0.070342	-0.583700	-0.515217	-0.627571
17796	5.246954	-1.371045	-6.792416	-0.396760	2.427706	-0.868217	-0.508618	-0.340123	0.790964	-0.618703	0.783250	-0.061043	-0.598760	-0.520419	-0.608810
17797	5.433924	-0.658875	-7.021339	-0.337118	2.624406	-0.950154	-0.486746	-0.333826	0.807241	-0.621394	0.781812	-0.051375	-0.613961	-0.526621	-0.587981
17798	5.398932	-0.162230	-6.816503	-0.373885	2.762487	-1.005262	-0.463279	-0.327070	0.823649	-0.623848	0.780471	-0.040973	-0.629433	-0.532814	-0.565618
17799	5.254300	-0.323211	-6.672019	-0.448088	2.865230	-1.056554	-0.438349	-0.319969	0.839923	-0.625759	0.779453	-0.029645	-0.645195	-0.538584	-0.541895
17800	5.303128	-1.349943	-6.893537	-0.393192	2.970853	-1.098776	-0.412034	-0.312456	0.855920	-0.627865	0.778110	-0.018199	-0.660313	-0.544901	-0.516788
17801	5.329365	-1.687197	-7.006437	-0.172719	3.118879	-1.132741	-0.384029	-0.304139	0.871792	-0.631221	0.775567	-0.007487	-0.673856	-0.553168	-0.489820
17802	5.398570	-1.297504	-7.004846	-0.018852	3.257711	-1.157631	-0.354512	-0.294945	0.887316	-0.635366	0.772206	0.002833	-0.686026	-0.562765	-0.461154
17803	5.546045	-0.980363	-6.826368	-0.008540	3.357270	-1.168639	-0.323772	-0.284902	0.902221	-0.639266	0.768870	0.013384	-0.697503	-0.572425	-0.431066
17804	5.970088	-0.981420	-6.716407	-0.080978	3.394894	-1.137977	-0.292578	-0.274075	0.916123	-0.642198	0.766159	0.024115	-0.708505	-0.581277	-0.400172
17805	6.477780	-1.437629	-6.684286	-0.189481	3.456579	-1.151778	-0.260429	-0.262669	0.929076	-0.644022	0.764181	0.035525	-0.719314	-0.589094	-0.368179
17806	6.685599	-1.781022	-6.153335	-0.128203	3.540307	-1.198753	-0.227025	-0.250839	0.941031	-0.646008	0.761868	0.047232	-0.728789	-0.597191	-0.335007
17807	6.770759	-1.985020	-5.752689	-0.085814	3.539653	-1.269884	-0.192808	-0.239226	0.951628	-0.648033	0.759278	0.059575	-0.736802	-0.605200	-0.301421
17808	6.884445	-1.932071	-4.879893	-0.016152	3.481347	-1.326098	-0.158402	-0.228089	0.960669	-0.650232	0.756284	0.072347	-0.743039	-0.613197	-0.268107
17809	7.325492	-2.334240	-4.643869	0.050839	3.340457	-1.341399	-0.124711	-0.217606	0.968037	-0.652495	0.752988	0.085204	-0.747461	-0.621013	-0.235893
17810	7.840895	-2.055778	-4.162992	0.169630	3.173508	-1.366451	-0.091981	-0.208055	0.973783	-0.655231	0.749026	0.098142	-0.749807	-0.629026	-0.205220
17811	8.401236	-1.255529	-3.553323	0.197664	2.980845	-1.358725	-0.060642	-0.199349	0.978050	-0.657735	0.745016	0.111070	-0.750805	-0.636562	-0.176298
17812	8.694639	-0.934440	-3.593954	0.188727	2.763254	-1.317412	-0.031179	-0.191478	0.981002	-0.659740	0.741241	0.123711	-0.750847	-0.643349	-0.149437
17813	8.781265	-0.769889	-4.574438	0.212717	2.547087	-1.245428	-0.003789	-0.184226	0.982877	-0.661535	0.737536	0.135690	-0.749905	-0.649693	-0.124666
17814	8.536226	0.314687	-3.067061	0.155220	2.285097	-1.112151	0.020733	-0.177527	0.983898	-0.662585	0.734521	0.146493	-0.748700	-0.654953	-0.102398
17815	8.319703	1.382617	-2.524945	0.046183	1.985176	-0.969656	0.042057	-0.171608	0.984267	-0.662605	0.732536	0.156031	-0.747787	-0.658743	-0.082900
17816	8.223843	0.495170	-2.166800	0.040107	1.647606	-0.798603	0.059695	-0.166594	0.984217	-0.662478	0.730930	0.163902	-0.746699	-0.661807	-0.066732
17817	7.793212	1.076912	-1.769311	0.275852	1.355549	-0.586846	0.073734	-0.161884	0.984051	-0.664121	0.728146	0.169548	-0.743980	-0.666031	-0.053821
17818	7.794765	2.798445	-1.088118	0.307701	1.017629	-0.317136	0.083435	-0.157413	0.984002	-0.666135	0.725595	0.172558	-0.741149	-0.669876	-0.044318
17819	8.745612	1.988686	-0.446517	0.083999	0.646992	-0.072853	0.088755	-0.153612	0.984137	-0.666672	0.724930	0.173277	-0.740048	-0.671476	-0.038068
17820	5.876434	-1.273377	-2.305394	0.631863	0.231054	0.055890	0.090121	-0.151672	0.984314	-0.671363	0.720767	0.172530	-0.735629	-0.676380	-0.036871
17821	7.269670	2.197480	-1.856678	1.462969	-0.210738	0.135508	0.087705	-0.152147	0.984459	-0.682152	0.711016	0.170659	-0.725931	-0.686518	-0.041428
17822	12.379161	0.382606	-3.777712	1.810836	-0.679062	0.265616	0.081021	-0.154997	0.984587	-0.695393	0.698897	0.167246	-0.714047	-0.698226	-0.051158
17823	14.212350	8.077539	-6.233405	3.358432	-0.568555	0.339454	0.074666	-0.156706	0.984819	-0.719229	0.675614	0.162035	-0.690749	-0.720409	-0.062262
17824	14.588098	17.216477	-2.857671	2.253726	-0.754531	0.120902	0.068671	-0.161406	0.984496	-0.734686	0.659425	0.159357	-0.674923	-0.734239	-0.073299
17825	13.947482	7.588718	-1.570497	0.936696	-0.886632	0.278175	0.060708	-0.166131	0.984233	-0.741137	0.652993	0.155934	-0.668603	-0.738918	-0.083483
17826	10.215970	0.316235	-2.695513	0.815873	-0.878231	0.464365	0.051443	-0.169634	0.984164	-0.746811	0.647740	0.150684	-0.663043	-0.742736	-0.093363
17827	6.980582	-0.030025	-4.177046	1.255580	-0.765860	0.615330	0.041825	-0.171410	0.984312	-0.755346	0.639433	0.143448	-0.653990	-0.749496	-0.102729
17828	8.575720	-0.104276	-4.645930	0.742702	-0.805230	0.618612	0.031930	-0.173534	0.984310	-0.760394	0.634933	0.136605	-0.648677	-0.752825	-0.111681
17829	9.823660	-1.787620	-4.836393	0.329335	-0.744038	0.603592	0.022559	-0.175333	0.984251	-0.762672	0.633517	0.130334	-0.646392	-0.753601	-0.119430
17830	10.954043	-2.638554	-4.677425	0.211596	-0.609164	0.584336	0.014203	-0.176241	0.984245	-0.764129	0.632961	0.124366	-0.644907	-0.753856	-0.125681
17831	10.757355	-0.842148	-4.319024	0.474590	-0.437032	0.508656	0.007535	-0.176351	0.984298	-0.767220	0.630286	0.118798	-0.641340	-0.756068	-0.130551
17832	10.164228	1.688491	-4.287415	0.521742	-0.353394	0.448078	0.001868	-0.176227	0.984348	-0.770560	0.627136	0.113738	-0.637364	-0.758712	-0.134622
17833	9.524903	2.966755	-3.887797	0.285150	-0.351454	0.428218	-0.003637	-0.176239	0.984341	-0.772355	0.625737	0.109180	-0.635181	-0.759864	-0.138394
17834	9.347786	1.560493	-3.297863	0.028495	-0.361958	0.408074	-0.009050	-0.176450	0.984268	-0.772495	0.626252	0.105166	-0.634957	-0.759390	-0.141974
17835	9.472238	0.866894	-2.839894	0.094235	-0.303623	0.390856	-0.013963	-0.176336	0.984231	-0.773032	0.626238	0.101231	-0.634213	-0.759429	-0.145058
17836	9.708892	0.485634	-2.656453	0.022682	-0.272014	0.367115	-0.018487	-0.176118	0.984195	-0.773101	0.626724	0.097628	-0.634013	-0.759078	-0.147744
17837	9.946230	-0.265352	-2.607089	-0.092183	-0.245013	0.347823	-0.022697	-0.175824	0.984160	-0.772430	0.628047	0.094389	-0.634695	-0.758052	-0.150066
17838	9.888514	-0.281322	-2.124623	-0.161011	-0.217662	0.363907	-0.026851	-0.175200	0.984167	-0.771302	0.629917	0.091094	-0.635903	-0.756644	-0.152046
17839	9.980766	-0.412826	-1.778693	-0.294013	-0.222712	0.345556	-0.030900	-0.174731	0.984131	-0.769315	0.632754	0.088189	-0.638122	-0.754381	-0.153975
17840	10.173214	-1.268202	-1.630678	-0.299925	-0.212282	0.294190	-0.034480	-0.174481	0.984057	-0.767287	0.635539	0.085802	-0.640377	-0.752095	-0.155790
17841	10.268212	-1.501637	-1.489546	-0.126281	-0.167429	0.233688	-0.037315	-0.174281	0.983989	-0.766379	0.636906	0.083744	-0.641304	-0.750984	-0.157332
17842	10.168040	-0.875877	-1.401836	0.073210	-0.127994	0.176158	-0.039448	-0.174138	0.983931	-0.766767	0.636675	0.081938	-0.640713	-0.751213	-0.158639
17843	10.005216	-0.034491	-1.549636	0.231530	-0.097115	0.137390	-0.041097	-0.174021	0.983884	-0.768179	0.635185	0.080259	-0.638915	-0.752501	-0.159783
17844	9.757876	0.845388	-1.829724	0.296422	-0.083110	0.118030	-0.042497	-0.173915	0.983843	-0.770006	0.633169	0.078666	-0.636620	-0.754222	-0.160823
17845	9.479785	1.248209	-1.955178	0.254403	-0.087183	0.112096	-0.043888	-0.173891	0.983786	-0.771561	0.631454	0.077193	-0.634639	-0.755664	-0.161881
17846	9.559364	0.917220	-1.736829	0.184599	-0.099773	0.112811	-0.045354	-0.173950	0.983710	-0.772667	0.630266	0.075827	-0.633189	-0.756641	-0.162990
17847	9.774089	0.489214	-1.798544	0.161674	-0.095505	0.098646	-0.046693	-0.174079	0.983624	-0.773631	0.629225	0.074634	-0.631913	-0.757478	-0.164053
17848	9.587838	0.409530	-1.830458	0.159745	-0.075524	0.095462	-0.047871	-0.174067	0.983569	-0.774581	0.628193	0.073475	-0.630661	-0.758337	-0.164901
17849	9.533087	0.452288	-1.506352	0.149222	-0.081453	0.087342	-0.049034	-0.174164	0.983495	-0.775466	0.627224	0.072410	-0.629483	-0.759116	-0.165813
17850	9.678757	0.377396	-1.095343	0.129253	-0.093403	0.081326	-0.050215	-0.174380	0.983397	-0.776225	0.626396	0.071439	-0.628453	-0.759750	-0.166812
17851	9.713156	0.100623	-0.831053	0.154941	-0.107879	0.068878	-0.051400	-0.174795	0.983262	-0.777150	0.625350	0.070543	-0.627213	-0.760516	-0.167985
17852	9.654312	0.459737	-0.955944	0.235561	-0.107208	0.067912	-0.052562	-0.175203	0.983128	-0.778576	0.623687	0.069521	-0.625345	-0.761786	-0.169191
17853	9.490638	1.857982	-1.136317	0.243249	-0.121913	0.099426	-0.054071	-0.175538	0.982987	-0.780029	0.622019	0.068171	-0.623403	-0.763072	-0.170557
17854	9.304959	2.487933	-1.061761	0.027815	-0.183196	0.134932	-0.056227	-0.176112	0.982763	-0.780115	0.622056	0.066840	-0.623105	-0.762910	-0.172364
17855	9.391562	1.375287	-1.203578	-0.130942	-0.232987	0.148409	-0.058808	-0.176990	0.982454	-0.779200	0.623327	0.065651	-0.624010	-0.761668	-0.174567
17856	9.316818	0.790559	-1.214368	-0.088415	-0.237243	0.165219	-0.061537	-0.177781	0.982144	-0.778536	0.624305	0.064227	-0.624576	-0.760682	-0.176827
17857	9.303898	1.292278	-1.037970	-0.029201	-0.244747	0.182200	-0.064455	-0.178529	0.981821	-0.778226	0.624863	0.062533	-0.624668	-0.760048	-0.179211
17858	9.503078	1.369576	-1.143728	-0.077973	-0.275984	0.192754	-0.067641	-0.179437	0.981441	-0.777598	0.625812	0.060825	-0.625112	-0.759053	-0.181860
17859	9.582595	0.883617	-1.046550	-0.080424	-0.295018	0.200657	-0.071014	-0.180443	0.981019	-0.776944	0.626795	0.059048	-0.625552	-0.758003	-0.184705
17860	9.669835	0.650701	-0.932304	-0.048466	-0.327143	0.196984	-0.074553	-0.181702	0.980523	-0.776485	0.627530	0.057250	-0.625710	-0.757093	-0.187873
17861	10.032239	0.234065	-1.378174	0.021928	-0.315749	0.192131	-0.077988	-0.182911	0.980031	-0.776463	0.627726	0.055369	-0.625319	-0.756640	-0.190979
17862	10.058476	0.043072	-1.794567	0.114189	-0.303654	0.169950	-0.081167	-0.184159	0.979539	-0.777029	0.627185	0.053528	-0.624210	-0.756786	-0.194004
17863	10.086297	-0.019430	-2.359874	0.150450	-0.289215	0.165557	-0.084225	-0.185335	0.979059	-0.777818	0.626363	0.051657	-0.622821	-0.757179	-0.196912
17864	9.817335	0.160949	-2.831589	0.073003	-0.292086	0.150099	-0.087173	-0.186623	0.978557	-0.778132	0.626101	0.050086	-0.622023	-0.757079	-0.199796
17865	9.862764	-0.097337	-2.747355	-0.059812	-0.296877	0.141773	-0.090092	-0.188005	0.978027	-0.777622	0.626830	0.048863	-0.622244	-0.756133	-0.202669
17866	9.974824	-0.432449	-2.364002	-0.157437	-0.306228	0.124601	-0.092929	-0.189552	0.977463	-0.776516	0.628266	0.048010	-0.623207	-0.754554	-0.205575
17867	10.162658	-0.268488	-1.587996	-0.120362	-0.299927	0.104814	-0.095583	-0.191179	0.976890	-0.775655	0.629384	0.047278	-0.623877	-0.753211	-0.208447
17868	9.899462	1.050209	0.174530	-0.098652	-0.338654	0.110503	-0.098516	-0.193048	0.976231	-0.774921	0.630350	0.046450	-0.624334	-0.751925	-0.211696
17869	9.541200	1.783580	1.904870	-0.242718	-0.466288	0.139296	-0.102478	-0.195692	0.975296	-0.773252	0.632453	0.045653	-0.625763	-0.749472	-0.216131
17870	9.252535	1.749364	3.388853	-0.328492	-0.606726	0.179674	-0.107630	-0.199107	0.974049	-0.770993	0.635275	0.044665	-0.627682	-0.746178	-0.221884
17871	9.113465	1.889835	4.173689	-0.308291	-0.762324	0.226348	-0.114127	-0.203360	0.972430	-0.768794	0.638036	0.043202	-0.629231	-0.742667	-0.229160
17872	9.168920	2.101009	4.275736	-0.289154	-0.922733	0.281547	-0.122063	-0.208413	0.970394	-0.766629	0.640768	0.041187	-0.630381	-0.738905	-0.237989
17873	9.233543	1.913120	3.519991	-0.255253	-1.079243	0.332340	-0.131371	-0.214247	0.967905	-0.764587	0.643361	0.038634	-0.630989	-0.734972	-0.248330
17874	8.955676	2.238197	2.476690	-0.150942	-1.200344	0.386627	-0.141858	-0.220574	0.964999	-0.763097	0.645318	0.035325	-0.630523	-0.731377	-0.259863
17875	8.868499	1.871302	1.489054	-0.160179	-1.343805	0.430282	-0.153558	-0.227606	0.961569	-0.761442	0.647460	0.031657	-0.629783	-0.727318	-0.272731
17876	9.342062	1.661590	0.117168	-0.017131	-1.417961	0.460423	-0.165940	-0.234929	0.957743	-0.760589	0.648658	0.027331	-0.627669	-0.723914	-0.286322
17877	9.584781	2.102394	-0.767623	0.014433	-1.486158	0.511944	-0.179088	-0.242348	0.953517	-0.759787	0.649784	0.022448	-0.625020	-0.720450	-0.300501
17878	10.006433	2.158606	-1.554518	-0.029931	-1.555045	0.556591	-0.192975	-0.249917	0.948843	-0.758557	0.651377	0.017292	-0.622376	-0.716415	-0.315276
17879	10.071092	2.478192	-2.301212	-0.077784	-1.623326	0.599678	-0.207546	-0.257607	0.943697	-0.756865	0.653462	0.011923	-0.619741	-0.711777	-0.330597
17880	10.761329	2.965139	-3.213949	-0.112359	-1.680657	0.620335	-0.222591	-0.265483	0.938068	-0.754830	0.655889	0.006512	-0.616997	-0.706632	-0.346389
17881	10.453729	3.139983	-3.236532	-0.141218	-1.726144	0.610771	-0.237762	-0.273630	0.931985	-0.752548	0.658536	0.001360	-0.614118	-0.701040	-0.362495
17882	10.780943	1.769545	-2.627890	-0.174354	-1.822834	0.587146	-0.253303	-0.282496	0.925221	-0.750033	0.661392	-0.003399	-0.610974	-0.694807	-0.379413
17883	11.834603	0.320086	-2.336959	0.038891	-1.861842	0.533241	-0.268567	-0.291867	0.917979	-0.748873	0.662661	-0.008403	-0.605856	-0.689706	-0.396540
17884	12.586513	1.237758	-2.215939	0.372505	-1.848538	0.515357	-0.283519	-0.301195	0.910439	-0.749688	0.661631	-0.014576	-0.597984	-0.686678	-0.413387
17885	12.572607	3.386815	-1.855801	0.419850	-1.876796	0.548883	-0.298716	-0.310438	0.902439	-0.750580	0.660438	-0.021260	-0.589405	-0.683703	-0.430292
17886	12.443182	4.399052	-1.230560	0.155160	-1.952199	0.597128	-0.314596	-0.319808	0.893729	-0.749655	0.661267	-0.027257	-0.582277	-0.678564	-0.447778
17887	12.022028	4.214003	-0.294958	-0.059636	-2.056384	0.661195	-0.331387	-0.329320	0.884156	-0.747173	0.663820	-0.032793	-0.576121	-0.671484	-0.466040
17888	12.010487	3.877331	0.105135	-0.162240	-2.170906	0.726428	-0.349207	-0.338991	0.873579	-0.743770	0.667334	-0.038360	-0.569965	-0.663137	-0.485169
17889	12.128158	3.738249	0.402879	-0.181101	-2.259756	0.771884	-0.367663	-0.348719	0.862102	-0.739978	0.671184	-0.044087	-0.563255	-0.654146	-0.504814
17890	11.833884	3.480415	0.538027	-0.130936	-2.337737	0.811494	-0.386693	-0.358462	0.849690	-0.736186	0.674907	-0.050312	-0.555426	-0.644985	-0.524877
17891	11.854483	2.890784	0.164361	-0.085873	-2.383086	0.865302	-0.406097	-0.367875	0.836512	-0.732286	0.678602	-0.057069	-0.546664	-0.635742	-0.544968
17892	11.830674	1.541845	-1.450954	-0.005471	-2.350866	0.920784	-0.425525	-0.376473	0.822919	-0.728431	0.682064	-0.064632	-0.536951	-0.626942	-0.564470
17893	12.022013	0.478065	-3.643564	0.149211	-2.252061	0.964523	-0.444419	-0.383922	0.809380	-0.725035	0.684802	-0.073277	-0.526132	-0.619395	-0.582696
17894	11.508431	0.257599	-5.481610	0.244873	-2.139539	1.017520	-0.462880	-0.390144	0.795946	-0.721699	0.687232	-0.082846	-0.514677	-0.612781	-0.599672
17895	10.692193	0.083749	-6.495365	0.188489	-2.072220	1.064503	-0.481005	-0.395444	0.782469	-0.717645	0.690264	-0.092310	-0.503607	-0.605936	-0.615809
17896	9.935235	-0.533940	-7.134879	0.008926	-1.997765	1.103835	-0.498826	-0.399848	0.768956	-0.712289	0.694599	-0.100882	-0.493779	-0.598041	-0.631292
17897	9.184405	-1.886634	-8.260711	-0.093310	-1.861503	1.097251	-0.515633	-0.403263	0.755977	-0.706280	0.699558	-0.108569	-0.485068	-0.589913	-0.645532
17898	8.391574	-2.093259	-9.053426	-0.083256	-1.639874	1.040843	-0.530810	-0.405593	0.744134	-0.700442	0.704254	-0.115787	-0.477097	-0.582684	-0.657920
17899	7.567617	-1.987072	-9.130352	-0.120324	-1.374277	0.942065	-0.543811	-0.406908	0.733959	-0.694826	0.708776	-0.121871	-0.470623	-0.576248	-0.668171
17900	6.695330	-2.550168	-8.913144	-0.158810	-1.078708	0.808599	-0.554427	-0.407367	0.725715	-0.689653	0.712977	-0.126659	-0.465822	-0.570714	-0.676236
17901	5.794629	-3.836284	-8.951354	-0.053151	-0.731243	0.661273	-0.562288	-0.406812	0.719956	-0.685731	0.715969	-0.130999	-0.462174	-0.567355	-0.681545
17902	5.218608	-3.227523	-9.021253	0.140641	-0.334118	0.516691	-0.567332	-0.405027	0.716999	-0.683472	0.717267	-0.135626	-0.459347	-0.566994	-0.683753
17903	4.096711	-1.300487	-8.950152	-0.113384	-0.051543	0.363354	-0.569972	-0.402718	0.716205	-0.680903	0.719373	-0.137378	-0.459894	-0.565968	-0.684235
17904	5.131313	-0.242233	-8.649301	-0.838094	0.060106	0.217751	-0.571139	-0.400829	0.716335	-0.675792	0.724965	-0.133155	-0.465946	-0.560144	-0.684933
17905	6.117006	-0.982894	-7.449852	-1.389693	0.324147	0.075394	-0.570044	-0.398491	0.718509	-0.668825	0.732987	-0.124106	-0.477203	-0.551303	-0.684356
17906	5.990464	-2.477332	-6.678943	-1.476703	0.650217	-0.127763	-0.566014	-0.395898	0.723113	-0.662415	0.740557	-0.113055	-0.490749	-0.542992	-0.681415
17907	5.871696	-3.243336	-6.532430	-1.273617	1.083969	-0.398220	-0.557914	-0.393013	0.730940	-0.658324	0.745867	-0.101449	-0.505314	-0.537795	-0.674859
17908	5.377510	-2.989874	-6.245614	-1.100603	1.457149	-0.646208	-0.546159	-0.390049	0.741331	-0.656255	0.749240	-0.089271	-0.520615	-0.535258	-0.665176
17909	5.487658	-2.924392	-6.374935	-0.942293	1.746776	-0.845447	-0.531310	-0.387056	0.753590	-0.655842	0.750995	-0.076670	-0.536266	-0.534971	-0.652858
17910	5.145901	-1.802639	-6.661667	-0.788181	2.035207	-0.987722	-0.513719	-0.383592	0.767431	-0.656721	0.751411	-0.064025	-0.552096	-0.536879	-0.637927
17911	4.857733	-0.981127	-6.622584	-0.901618	2.225075	-1.111389	-0.493869	-0.379993	0.782111	-0.657273	0.752014	-0.049669	-0.569285	-0.538590	-0.621156
17912	4.931228	-1.191449	-6.741046	-1.053144	2.406088	-1.203516	-0.472005	-0.376102	0.797345	-0.656997	0.753141	-0.033672	-0.587849	-0.539746	-0.602584
17913	4.972963	-1.459715	-6.720259	-1.103150	2.596044	-1.250616	-0.448211	-0.371511	0.813072	-0.656164	0.754427	-0.017000	-0.607088	-0.541128	-0.581915
17914	5.180144	-1.331114	-6.657625	-1.124457	2.774219	-1.278500	-0.422683	-0.366152	0.829018	-0.654797	0.755805	-0.000038	-0.626562	-0.542855	-0.559222
17915	5.218524	-1.123424	-6.216624	-1.119195	2.923282	-1.288250	-0.395590	-0.360011	0.844927	-0.652946	0.757215	0.016933	-0.645887	-0.544993	-0.534614
17916	5.434670	-1.178367	-5.809253	-1.022682	3.063022	-1.307781	-0.366960	-0.353201	0.860575	-0.651232	0.758141	0.033466	-0.664257	-0.548153	-0.508223
17917	5.565038	-1.584697	-5.814665	-0.833492	3.212633	-1.324540	-0.336660	-0.345567	0.875924	-0.650280	0.758103	0.049150	-0.681026	-0.553049	-0.479938
17918	5.626273	-1.308676	-6.358226	-0.478525	3.389494	-1.309399	-0.304782	-0.336625	0.890950	-0.651183	0.756302	0.062990	-0.695032	-0.560973	-0.449711
17919	5.478197	-0.382448	-7.045920	-0.239205	3.548197	-1.273612	-0.271536	-0.326170	0.905473	-0.653167	0.753437	0.075530	-0.706853	-0.570916	-0.417629
17920	5.708725	0.231558	-7.397627	-0.155613	3.675640	-1.239694	-0.237215	-0.314334	0.919197	-0.655206	0.750365	0.087512	-0.717241	-0.581504	-0.383951
17921	6.136335	0.942065	-6.777089	-0.206377	3.752181	-1.218121	-0.202068	-0.301467	0.931819	-0.656378	0.747828	0.099604	-0.726867	-0.591499	-0.348988
17922	6.795104	1.200554	-6.010032	-0.468085	3.759409	-1.191539	-0.166701	-0.288015	0.943005	-0.655139	0.747105	0.112370	-0.736888	-0.599067	-0.313233
17923	7.847045	0.113465	-5.408460	-0.777534	3.708826	-1.168186	-0.131480	-0.274465	0.952566	-0.651093	0.748501	0.125798	-0.747523	-0.603669	-0.277115
17924	8.855421	-1.417693	-5.148305	-0.799402	3.666410	-1.147321	-0.096419	-0.260881	0.960544	-0.646372	0.750275	0.138890	-0.756906	-0.607477	-0.240967
17925	9.587903	-1.300887	-4.889456	-0.601343	3.595352	-1.119090	-0.061813	-0.247377	0.966946	-0.642666	0.751104	0.151074	-0.763649	-0.612084	-0.205409
17926	9.884651	1.113988	-3.051637	-0.523750	3.421118	-1.061584	-0.028762	-0.234362	0.971724	-0.639116	0.751770	0.162396	-0.768572	-0.616374	-0.171407
17927	9.701954	2.869396	-1.566654	-0.923198	3.079327	-1.027294	0.001585	-0.223140	0.974785	-0.632109	0.755118	0.173883	-0.774878	-0.616446	-0.139851
17928	9.444926	0.207878	-1.959809	-1.456998	2.639421	-0.966415	0.028242	-0.214292	0.976361	-0.620590	0.761954	0.185185	-0.783626	-0.611150	-0.111468
17929	9.088969	-1.419215	-0.781832	-1.369895	2.307858	-0.841436	0.051640	-0.206712	0.977038	-0.609442	0.768525	0.194808	-0.791147	-0.605508	-0.086292
17930	8.441320	0.025358	0.590883	-1.066179	1.991767	-0.697867	0.071706	-0.200098	0.977148	-0.600526	0.773546	0.202473	-0.796383	-0.601322	-0.064696
17931	8.119771	1.062010	1.216875	-0.894192	1.602500	-0.482375	0.087428	-0.194252	0.977048	-0.592976	0.777963	0.207731	-0.800459	-0.597528	-0.047171
17932	7.643090	1.289982	0.968111	-0.628824	1.197629	-0.165785	0.098042	-0.188428	0.977181	-0.587757	0.781402	0.209647	-0.803075	-0.594899	-0.034140
17933	7.728695	2.809616	1.449105	-0.435759	0.768522	0.189999	0.103156	-0.182393	0.977799	-0.584417	0.784352	0.207963	-0.804870	-0.592896	-0.025683
17934	6.918506	1.182531	0.753594	-0.344345	0.284776	0.453205	0.102840	-0.177171	0.978792	-0.582086	0.787212	0.203651	-0.806598	-0.590684	-0.022172
17935	6.073827	-1.153192	-0.887556	0.279202	-0.160302	0.565783	0.098297	-0.173683	0.979884	-0.584877	0.786562	0.198089	-0.805144	-0.592583	-0.024267
17936	7.250874	-0.747638	-3.083003	1.088246	-0.498242	0.525687	0.091234	-0.172559	0.980765	-0.594081	0.780989	0.192673	-0.799215	-0.600232	-0.031261
17937	8.096795	-0.348231	-5.447254	1.985898	-0.636639	0.327433	0.084258	-0.173902	0.981152	-0.610102	0.769504	0.188782	-0.787830	-0.614509	-0.041261
17938	9.321819	3.195007	-6.227186	2.643495	-0.498267	0.060186	0.080032	-0.176577	0.981028	-0.630745	0.753119	0.187011	-0.771852	-0.633745	-0.051101
17939	11.997106	5.494309	-6.568605	2.573128	-0.358230	-0.072591	0.077803	-0.179439	0.980688	-0.650318	0.736453	0.186343	-0.755668	-0.652257	-0.059394
17940	12.526183	8.626687	-9.004336	2.566249	-0.259550	0.098855	0.075245	-0.180457	0.980700	-0.669551	0.719667	0.183797	-0.738945	-0.670459	-0.066673
17941	10.902727	14.984998	-6.488222	1.395267	-0.475678	0.281099	0.069895	-0.181685	0.980870	-0.679979	0.710767	0.180108	-0.729892	-0.679560	-0.073863
17942	12.021219	7.584902	-5.213108	-0.460872	-0.916675	0.653635	0.058787	-0.183252	0.981307	-0.677007	0.715089	0.174096	-0.733625	-0.674586	-0.082025
17943	12.169501	0.952775	-3.998211	-1.062518	-1.064890	0.850795	0.045248	-0.184306	0.981827	-0.669590	0.723777	0.166724	-0.741352	-0.664965	-0.090660
17944	10.582062	-4.185526	-2.056350	-0.629655	-0.939800	0.708878	0.033563	-0.185397	0.982090	-0.665166	0.729263	0.160401	-0.745940	-0.658637	-0.098843
17945	11.303631	-3.209201	-0.350478	0.133247	-0.784352	0.656655	0.023381	-0.185812	0.982307	-0.666325	0.729612	0.153873	-0.745294	-0.658134	-0.106753
17946	10.433942	-1.048882	-0.728579	0.480667	-0.630476	0.572281	0.014903	-0.185821	0.982471	-0.669991	0.727515	0.147763	-0.742220	-0.660448	-0.113656
17947	10.097944	0.542390	-1.982480	0.379710	-0.608707	0.534117	0.006841	-0.186000	0.982526	-0.672843	0.726005	0.142124	-0.739754	-0.662058	-0.120183
17948	9.679988	0.748562	-3.048898	0.238470	-0.591602	0.511314	-0.000941	-0.186230	0.982506	-0.674602	0.725386	0.136848	-0.738181	-0.662671	-0.126313
17949	9.620575	0.631757	-3.187221	0.055248	-0.584287	0.497176	-0.008575	-0.186528	0.982412	-0.674967	0.725955	0.131944	-0.737798	-0.661964	-0.132125
17950	9.582160	-0.105572	-2.823418	-0.072869	-0.530917	0.483883	-0.015723	-0.186544	0.982321	-0.674352	0.727348	0.127331	-0.738242	-0.660429	-0.137232
17951	9.448352	-0.945164	-2.643412	-0.076855	-0.473454	0.433064	-0.022108	-0.186552	0.982196	-0.673685	0.728671	0.123235	-0.738688	-0.658967	-0.141787
17952	9.516559	-1.314323	-2.390026	0.078608	-0.396722	0.355605	-0.027399	-0.186596	0.982055	-0.674160	0.728825	0.119672	-0.738077	-0.658783	-0.145764
17953	9.901658	-0.965853	-2.174444	0.279423	-0.317113	0.276696	-0.031578	-0.186708	0.981908	-0.676122	0.727507	0.116590	-0.736113	-0.660208	-0.149211
17954	10.047651	-0.406808	-2.093028	0.392045	-0.249033	0.230417	-0.034934	-0.186702	0.981795	-0.678909	0.725353	0.113780	-0.733391	-0.662575	-0.152093
17955	9.960901	-0.191107	-2.095219	0.424800	-0.204475	0.198014	-0.037754	-0.186660	0.981699	-0.681930	0.722910	0.111229	-0.730442	-0.665251	-0.154582
17956	9.865343	0.019987	-1.976368	0.426450	-0.175075	0.177169	-0.040205	-0.186570	0.981619	-0.684953	0.720407	0.108869	-0.727477	-0.667986	-0.156756
17957	9.870327	0.305746	-2.144414	0.417738	-0.151791	0.162963	-0.042404	-0.186447	0.981550	-0.687904	0.717923	0.106653	-0.724562	-0.670689	-0.158700
17958	9.754639	1.044467	-2.409293	0.408176	-0.126030	0.156672	-0.044359	-0.186192	0.981512	-0.690771	0.715481	0.104507	-0.721712	-0.673364	-0.160354
17959	9.658033	1.388339	-2.415326	0.321199	-0.123781	0.147981	-0.046254	-0.186002	0.981460	-0.693004	0.713599	0.102579	-0.719449	-0.675411	-0.161907
17960	9.733424	0.853074	-2.468064	0.292674	-0.110842	0.130422	-0.047919	-0.185843	0.981410	-0.695029	0.711871	0.100866	-0.717383	-0.677275	-0.163279
17961	9.844505	0.039584	-2.304285	0.340157	-0.079987	0.091777	-0.049111	-0.185767	0.981366	-0.697406	0.709743	0.099450	-0.714992	-0.679526	-0.164411
17962	9.818059	-0.021666	-2.233385	0.472106	-0.027556	0.080421	-0.049833	-0.185405	0.981398	-0.700718	0.706686	0.097926	-0.711696	-0.682803	-0.165134
17963	9.695778	0.656527	-2.031280	0.488312	-0.002656	0.080415	-0.050398	-0.184890	0.981466	-0.704131	0.703500	0.096369	-0.708280	-0.686224	-0.165641
17964	9.442837	1.319837	-1.616094	0.401929	-0.018575	0.085565	-0.051097	-0.184437	0.981515	-0.706913	0.700904	0.094906	-0.705453	-0.688996	-0.166194
17965	9.450503	1.608217	-1.245395	0.245464	-0.056205	0.103834	-0.052208	-0.184130	0.981514	-0.708575	0.699411	0.093518	-0.703702	-0.690594	-0.166985
17966	9.624772	1.229681	-1.020241	0.121606	-0.099141	0.100854	-0.053584	-0.184130	0.981440	-0.709361	0.698767	0.092368	-0.702805	-0.691246	-0.168058
17967	9.658280	0.870755	-0.917438	0.123287	-0.120683	0.103465	-0.055146	-0.184275	0.981327	-0.710157	0.698114	0.091185	-0.701880	-0.691867	-0.169362
17968	9.498840	0.926080	-0.622335	0.167439	-0.138163	0.104331	-0.056820	-0.184524	0.981184	-0.711257	0.697156	0.089920	-0.700631	-0.692765	-0.170856
17969	9.512136	1.078322	-0.584811	0.189812	-0.176886	0.106614	-0.058795	-0.185039	0.980971	-0.712510	0.696047	0.088589	-0.699194	-0.693743	-0.172766
17970	9.501568	1.223462	-0.593222	0.204500	-0.204955	0.126789	-0.061095	-0.185600	0.980724	-0.713848	0.694872	0.087033	-0.697631	-0.694771	-0.174943
17971	9.357792	1.529429	-0.522766	0.188455	-0.244319	0.152811	-0.063866	-0.186268	0.980421	-0.715052	0.693855	0.085244	-0.696148	-0.695607	-0.177505
17972	9.293773	1.816429	-0.670733	0.141141	-0.288873	0.180543	-0.067131	-0.187046	0.980055	-0.715901	0.693219	0.083266	-0.694968	-0.696032	-0.180442
17973	9.394413	1.484165	-0.828751	0.066153	-0.339460	0.197660	-0.070879	-0.188068	0.979595	-0.716210	0.693139	0.081251	-0.694276	-0.695837	-0.183825
17974	9.462107	1.231654	-1.040762	0.079226	-0.360700	0.203475	-0.074803	-0.189188	0.979088	-0.716597	0.692981	0.079155	-0.693465	-0.695690	-0.187408
17975	9.648395	1.095148	-1.316422	0.093426	-0.380682	0.207675	-0.078903	-0.190427	0.978525	-0.717071	0.692735	0.076990	-0.692520	-0.695598	-0.191208
17976	9.622952	1.314909	-1.693306	0.101870	-0.392688	0.216876	-0.083139	-0.191676	0.977931	-0.717586	0.692450	0.074715	-0.691489	-0.695538	-0.195114
17977	9.499117	1.140285	-1.810532	0.053294	-0.415176	0.220322	-0.087562	-0.193067	0.977271	-0.717753	0.692513	0.072501	-0.690770	-0.695091	-0.199213
17978	9.602284	0.576765	-1.810232	0.039241	-0.431656	0.219777	-0.092084	-0.194564	0.976558	-0.717813	0.692675	0.070319	-0.690119	-0.694511	-0.203445
17979	9.961083	0.443112	-2.005978	0.051376	-0.424055	0.216928	-0.096538	-0.196035	0.975833	-0.717950	0.692752	0.068141	-0.689368	-0.694021	-0.207620
17980	9.970801	0.371568	-2.197244	0.019267	-0.416496	0.210677	-0.100884	-0.197484	0.975101	-0.717862	0.693042	0.066090	-0.688837	-0.693320	-0.211683
17981	9.913333	0.994873	-1.688644	-0.043252	-0.436333	0.216834	-0.105418	-0.199033	0.974306	-0.717327	0.693780	0.064114	-0.688715	-0.692138	-0.215909
17982	9.814390	1.025010	-0.978009	-0.221783	-0.493466	0.215959	-0.110330	-0.200962	0.973366	-0.715553	0.695754	0.062539	-0.689791	-0.689595	-0.220561
17983	9.888408	-0.038073	-0.755804	-0.275130	-0.540796	0.207813	-0.115520	-0.203264	0.972285	-0.713406	0.698075	0.061177	-0.691164	-0.686567	-0.225651
17984	9.770906	0.163510	-0.470574	-0.132995	-0.553258	0.198664	-0.120724	-0.205689	0.971143	-0.712240	0.699402	0.059594	-0.691477	-0.684492	-0.230935
17985	9.780953	0.675676	-0.339973	-0.157654	-0.603246	0.191329	-0.126228	-0.208498	0.969843	-0.710901	0.700884	0.058151	-0.691872	-0.682122	-0.236693
17986	10.040851	0.449017	-0.431016	-0.177455	-0.647145	0.186560	-0.131996	-0.211615	0.968399	-0.709420	0.702493	0.056813	-0.692316	-0.679502	-0.242850
17987	9.829841	1.213339	-0.394861	-0.156071	-0.693897	0.212818	-0.138277	-0.214850	0.966809	-0.708040	0.704013	0.055183	-0.692502	-0.676908	-0.249471
17988	9.716766	1.182236	-0.235292	-0.268795	-0.786315	0.225407	-0.145283	-0.218589	0.964941	-0.705846	0.706324	0.053732	-0.693307	-0.673294	-0.256907
17989	9.539434	0.910613	-0.215265	-0.191192	-0.850401	0.222263	-0.152711	-0.222753	0.962840	-0.704178	0.708107	0.052135	-0.693407	-0.670049	-0.264994
17990	9.756609	1.190387	-0.007162	-0.177108	-0.926609	0.219960	-0.160647	-0.227408	0.960457	-0.702594	0.709793	0.050542	-0.693220	-0.666693	-0.273801
17991	9.919448	1.008143	-0.138269	-0.182739	-1.000641	0.231897	-0.169171	-0.232435	0.957787	-0.700935	0.711549	0.048874	-0.692872	-0.663078	-0.283295
17992	9.893180	1.261053	-0.249572	-0.204000	-1.054949	0.257979	-0.178248	-0.237592	0.954870	-0.699063	0.713511	0.047040	-0.692487	-0.659130	-0.293274
17993	10.060385	1.140168	-0.256436	-0.247447	-1.123360	0.286626	-0.187985	-0.242943	0.951651	-0.696815	0.715832	0.045096	-0.692178	-0.654648	-0.303852
17994	9.814954	1.359805	-0.296217	-0.191898	-1.186152	0.309753	-0.198310	-0.248483	0.948119	-0.694880	0.717852	0.042793	-0.691242	-0.650342	-0.315023
17995	9.795099	2.218222	-0.332669	-0.131149	-1.265449	0.326409	-0.209267	-0.254359	0.944197	-0.693300	0.719529	0.040176	-0.689596	-0.646204	-0.326921
17996	9.466395	2.478139	-0.148941	-0.092183	-1.376615	0.344696	-0.221097	-0.260765	0.939744	-0.691915	0.721016	0.037282	-0.687292	-0.641979	-0.339841
17997	9.605262	2.440981	-0.106800	0.020323	-1.478778	0.368411	-0.233733	-0.267590	0.934754	-0.691208	0.721865	0.033812	-0.683814	-0.638206	-0.353684
17998	9.695728	2.696189	-0.194893	0.116554	-1.582923	0.393393	-0.247204	-0.274847	0.929166	-0.691049	0.722195	0.029771	-0.679221	-0.634739	-0.368462
17999	10.041751	2.729328	-0.642104	0.148728	-1.681245	0.437712	-0.261549	-0.282343	0.922970	-0.690934	0.722478	0.025216	-0.673945	-0.631116	-0.384044
18000	10.655102	2.658108	-1.096141	0.165918	-1.760723	0.482958	-0.276666	-0.289953	0.916179	-0.690742	0.722820	0.020170	-0.668081	-0.627262	-0.400262
18001	11.093905	2.858461	-1.482486	0.214813	-1.833961	0.527720	-0.292442	-0.297623	0.908790	-0.690662	0.723032	0.014539	-0.661411	-0.623415	-0.417001
18002	11.597968	3.628302	-1.777423	0.195818	-1.898274	0.580430	-0.308903	-0.305240	0.900782	-0.690201	0.723568	0.008500	-0.654371	-0.619094	-0.434189
18003	11.794274	4.095393	-1.494499	0.084932	-1.984511	0.625713	-0.326070	-0.312956	0.892041	-0.688762	0.724982	0.002581	-0.647522	-0.613563	-0.451947
18004	12.486086	3.326849	-1.429764	-0.044974	-2.084975	0.636823	-0.343846	-0.321074	0.882429	-0.686337	0.727278	-0.002815	-0.640868	-0.606612	-0.470437
18005	12.711426	3.310191	-1.411392	0.016303	-2.138557	0.647177	-0.361833	-0.329277	0.872155	-0.684155	0.729287	-0.008498	-0.633253	-0.599764	-0.489157
18006	12.408518	4.385581	0.152297	-0.021528	-2.257691	0.685863	-0.380687	-0.337744	0.860818	-0.681472	0.731705	-0.014287	-0.625039	-0.592062	-0.508713
18007	11.855417	4.671312	1.257105	-0.066877	-2.371955	0.727857	-0.400277	-0.346365	0.848416	-0.678215	0.734589	-0.020083	-0.616281	-0.583447	-0.528949
18008	12.167813	3.783748	1.254526	-0.024764	-2.451224	0.788795	-0.420566	-0.354776	0.835020	-0.674827	0.737498	-0.026542	-0.606409	-0.574657	-0.549579
18009	12.450515	3.629016	1.019745	0.110926	-2.449679	0.862033	-0.441000	-0.362401	0.821087	-0.671783	0.739958	-0.034216	-0.595170	-0.566682	-0.569776
18010	12.606250	2.826012	0.538754	0.055310	-2.497300	0.949441	-0.462045	-0.369427	0.806249	-0.667825	0.743120	-0.042216	-0.583544	-0.557939	-0.590068
18011	12.848236	1.005437	-0.742362	0.023576	-2.523362	1.021971	-0.483324	-0.375787	0.790684	-0.663137	0.746797	-0.050429	-0.571531	-0.548705	-0.610144
18012	12.667326	-0.832824	-3.038358	0.214667	-2.444708	1.038590	-0.503967	-0.381361	0.774971	-0.659228	0.749558	-0.059843	-0.558064	-0.541042	-0.629157
18013	11.693718	-1.318327	-4.533563	0.516413	-2.257394	1.054648	-0.523237	-0.385616	0.759950	-0.656666	0.750819	-0.071141	-0.543151	-0.536257	-0.646077
18014	10.689548	-1.235885	-6.459951	0.683363	-2.045460	1.097260	-0.541352	-0.388339	0.745742	-0.654492	0.751408	-0.083822	-0.527805	-0.533460	-0.660941
18015	10.463728	-1.856461	-8.315646	0.608747	-1.835749	1.109505	-0.558060	-0.389771	0.732563	-0.651580	0.752481	-0.095999	-0.513822	-0.530896	-0.673896
18016	9.789974	-2.109420	-8.991516	0.542508	-1.532400	1.055923	-0.572672	-0.389963	0.721093	-0.648374	0.753721	-0.107313	-0.501655	-0.528993	-0.684477
18017	8.904282	-2.173506	-8.583672	0.417313	-1.198238	0.970929	-0.584808	-0.388972	0.711829	-0.644848	0.755293	-0.117057	-0.492108	-0.527478	-0.692530
18018	7.793163	-2.462237	-9.240641	0.256153	-0.786959	0.862689	-0.594172	-0.386618	0.705327	-0.641027	0.757287	-0.124905	-0.485844	-0.526349	-0.697791
18019	5.576381	-2.397395	-10.745341	0.094159	-0.367014	0.748571	-0.600640	-0.382876	0.701881	-0.637033	0.759667	-0.130748	-0.483136	-0.525654	-0.700191
18020	4.888746	-0.454599	-11.192995	-0.413967	-0.255984	0.557542	-0.605384	-0.379994	0.699367	-0.631681	0.763959	-0.131705	-0.484241	-0.521509	-0.702523
18021	7.148812	0.428934	-8.905658	-1.084133	-0.098190	0.279893	-0.607532	-0.378363	0.698388	-0.624721	0.770623	-0.125952	-0.490538	-0.512818	-0.704550
18022	5.849078	-1.205830	-6.985381	-1.494253	0.390778	0.049358	-0.605869	-0.376021	0.701093	-0.617017	0.778394	-0.115731	-0.502209	-0.502704	-0.703616
18023	4.834266	-3.239639	-5.688620	-1.561554	0.738261	-0.035496	-0.601803	-0.372634	0.706383	-0.609298	0.786033	-0.104440	-0.516323	-0.493250	-0.700082
18024	4.436368	-3.602425	-5.942014	-1.194972	1.265677	-0.070941	-0.594713	-0.367006	0.715278	-0.603474	0.791634	-0.095571	-0.531164	-0.488489	-0.692274
18025	4.287856	-1.655442	-6.431418	-1.084507	1.605729	-0.124814	-0.585218	-0.360185	0.726489	-0.598379	0.796460	-0.087144	-0.547231	-0.485714	-0.681630
18026	4.744571	-0.317913	-6.446580	-1.331051	1.790697	-0.216113	-0.573938	-0.353279	0.738775	-0.592235	0.802123	-0.076522	-0.565556	-0.481447	-0.669593
18027	4.833998	-0.455105	-6.607185	-1.590149	1.965473	-0.293136	-0.560807	-0.346246	0.752070	-0.584754	0.808704	-0.063722	-0.586139	-0.475511	-0.655996
18028	5.336640	-1.230035	-6.739041	-1.655267	2.125974	-0.335658	-0.546138	-0.338955	0.766056	-0.576739	0.815373	-0.050394	-0.607540	-0.469337	-0.640795
18029	5.718469	-1.946503	-6.846269	-1.491549	2.374837	-0.394627	-0.529106	-0.331100	0.781293	-0.569647	0.821018	-0.037842	-0.628926	-0.465084	-0.623016
18030	5.742123	-2.288959	-7.079210	-1.217927	2.621536	-0.479354	-0.509600	-0.322899	0.797523	-0.564356	0.825104	-0.026546	-0.649468	-0.463615	-0.602704
18031	5.692404	-2.059401	-7.386967	-0.968685	2.834011	-0.567495	-0.487636	-0.314446	0.814454	-0.560804	0.827791	-0.016173	-0.669112	-0.464635	-0.580003
18032	5.543526	-1.272455	-7.177509	-0.850288	2.984481	-0.644252	-0.463747	-0.305913	0.831478	-0.558100	0.829752	-0.005996	-0.688086	-0.466829	-0.555525
18033	5.451487	-1.256216	-6.769436	-0.852153	3.067835	-0.734760	-0.438175	-0.297672	0.848171	-0.555471	0.831522	0.004866	-0.706722	-0.469002	-0.529700
18034	5.528194	-2.392187	-6.824420	-0.748761	3.169301	-0.851009	-0.410745	-0.289867	0.864445	-0.553724	0.832545	0.016066	-0.724347	-0.472065	-0.502470
18035	5.475961	-3.103534	-6.884084	-0.389373	3.328722	-0.967966	-0.380928	-0.282113	0.880514	-0.554701	0.831628	0.026475	-0.739730	-0.478337	-0.473279
18036	5.198248	-2.767728	-7.049073	0.028735	3.515926	-1.095858	-0.348561	-0.274242	0.896268	-0.558909	0.828441	0.036127	-0.752413	-0.488340	-0.442039
18037	5.056523	-2.293645	-7.035611	0.298688	3.660615	-1.223591	-0.313868	-0.266256	0.911370	-0.565218	0.823659	0.045975	-0.762899	-0.500693	-0.409013
18038	5.250410	-1.351050	-6.693431	0.435514	3.751595	-1.350251	-0.277367	-0.258329	0.925383	-0.572545	0.817909	0.056716	-0.771531	-0.514092	-0.374766
