// General information: 
//  MT Manager version: 2022.2.0 
//  XDA version: 2022.2.0 build 7381 rev 124627 built on 2023-07-19
// Device information: 
//  DeviceId: 00B4CBA7
//  ProductCode: MTW2-3A7G6
//  Firmware Version: 4.6.0
//  Hardware Version: 2.0.0
// Device settings: 
//  Filter Profile: human(46.1)
//  Option Flags: Orientation Smoother Disabled, Position/Velocity Smoother Disabled, Continuous Zero Rotation Update Disabled, AHS Disabled, ICC Disabled
// Coordinate system: ENU
PacketCounter	Acc_X	Acc_Y	Acc_Z	Gyr_X	Gyr_Y	Gyr_Z	Mat[1][1]	Mat[2][1]	Mat[3][1]	Mat[1][2]	Mat[2][2]	Mat[3][2]	Mat[1][3]	Mat[2][3]	Mat[3][3]
43076	9.673453	0.155141	-1.151262	-0.001030	-0.075596	-0.017869	-0.025921	-0.125539	0.991750	-0.934180	0.356202	0.020673	-0.355859	-0.925937	-0.126509
43077	9.689853	0.131426	-1.203813	0.010714	-0.077475	-0.017225	-0.025991	-0.126322	0.991649	-0.934216	0.356096	0.020876	-0.355759	-0.925872	-0.127267
43078	9.694686	0.154426	-1.221210	0.035408	-0.076752	-0.018347	-0.026054	-0.127119	0.991545	-0.934338	0.355766	0.021059	-0.355435	-0.925890	-0.128041
43079	9.716387	0.166754	-1.252683	0.036553	-0.082033	-0.025018	-0.026067	-0.127971	0.991435	-0.934467	0.355411	0.021306	-0.355093	-0.925909	-0.128850
43080	9.726176	0.150702	-1.233323	0.030218	-0.082866	-0.022471	-0.026114	-0.128838	0.991322	-0.934566	0.355139	0.021537	-0.354831	-0.925893	-0.129681
43081	9.719985	0.191985	-1.278700	0.052220	-0.080757	-0.025209	-0.026120	-0.129679	0.991212	-0.934751	0.354637	0.021765	-0.354343	-0.925967	-0.130481
43082	9.680152	0.240378	-1.327728	0.054931	-0.082101	-0.023621	-0.026150	-0.130543	0.991098	-0.934942	0.354120	0.021975	-0.353837	-0.926044	-0.131311
43083	9.679232	0.227387	-1.367118	0.054946	-0.082078	-0.023620	-0.026175	-0.131391	0.990985	-0.935135	0.353596	0.022182	-0.353322	-0.926124	-0.132124
43084	9.700444	0.254156	-1.367701	0.047962	-0.081803	-0.023381	-0.026205	-0.132251	0.990870	-0.935300	0.353146	0.022399	-0.352884	-0.926174	-0.132949
43085	9.710640	0.208868	-1.410847	0.041775	-0.080293	-0.024844	-0.026212	-0.133087	0.990758	-0.935447	0.352741	0.022635	-0.352493	-0.926208	-0.133742
43086	9.715172	0.232027	-1.428519	0.041853	-0.075746	-0.020879	-0.026245	-0.133881	0.990650	-0.935588	0.352355	0.022833	-0.352118	-0.926240	-0.134505
43087	9.702677	0.280642	-1.400973	0.046949	-0.078628	-0.024703	-0.026246	-0.134701	0.990539	-0.935753	0.351902	0.023060	-0.351679	-0.926294	-0.135283
43088	9.701969	0.238252	-1.501984	0.044589	-0.066571	-0.018714	-0.026268	-0.135402	0.990443	-0.935899	0.351503	0.023232	-0.351289	-0.926344	-0.135955
43089	9.667547	0.307499	-1.559453	0.054638	-0.064197	-0.021763	-0.026245	-0.136077	0.990351	-0.936089	0.350982	0.023419	-0.350782	-0.926442	-0.136592
43090	9.649889	0.290102	-1.614056	0.055972	-0.055894	-0.016548	-0.026246	-0.136673	0.990269	-0.936280	0.350464	0.023554	-0.350273	-0.926550	-0.137162
43091	9.738744	0.272365	-1.667528	0.054332	-0.047139	-0.016233	-0.026215	-0.137170	0.990201	-0.936468	0.349953	0.023686	-0.349773	-0.926670	-0.137630
43092	9.698791	0.334205	-1.681582	0.053285	-0.038772	-0.017272	-0.026151	-0.137610	0.990141	-0.936646	0.349466	0.023831	-0.349300	-0.926789	-0.138030
43093	9.658892	0.335369	-1.647110	0.037044	-0.029159	-0.015095	-0.026066	-0.137937	0.990098	-0.936773	0.349117	0.023975	-0.348967	-0.926872	-0.138315
43094	9.703244	0.296701	-1.650051	0.026744	-0.021930	-0.014783	-0.025967	-0.138211	0.990062	-0.936856	0.348882	0.024132	-0.348750	-0.926919	-0.138543
43095	9.714055	0.294492	-1.593077	0.021265	-0.011780	-0.009678	-0.025873	-0.138358	0.990044	-0.936926	0.348686	0.024244	-0.348569	-0.926971	-0.138653
43096	9.685782	0.277949	-1.528756	0.015847	-0.009073	-0.012838	-0.025748	-0.138505	0.990027	-0.936965	0.348570	0.024397	-0.348473	-0.926992	-0.138750
43097	9.640772	0.272233	-1.450056	0.018426	-0.002268	-0.006668	-0.025649	-0.138554	0.990023	-0.937024	0.348405	0.024483	-0.348321	-0.927047	-0.138764
43098	9.679933	0.226469	-1.409180	0.013007	0.000437	-0.009828	-0.025519	-0.138603	0.990019	-0.937056	0.348312	0.024610	-0.348246	-0.927075	-0.138767
43099	9.674337	0.205621	-1.398948	0.021067	0.002343	-0.008481	-0.025387	-0.138615	0.990021	-0.937125	0.348119	0.024710	-0.348070	-0.927146	-0.138737
43100	9.679893	0.242393	-1.377691	0.041412	0.002741	-0.011579	-0.025231	-0.138650	0.990020	-0.937261	0.347744	0.024815	-0.347714	-0.927281	-0.138725
43101	9.668600	0.290056	-1.342631	0.040624	0.001511	-0.009869	-0.025088	-0.138674	0.990020	-0.937398	0.347368	0.024902	-0.347355	-0.927418	-0.138708
43102	9.657468	0.293228	-1.401249	0.039438	0.002287	-0.007165	-0.024976	-0.138697	0.990020	-0.937522	0.347030	0.024966	-0.347029	-0.927542	-0.138699
43103	9.629589	0.231924	-1.429286	0.040826	0.003138	-0.010227	-0.024825	-0.138707	0.990022	-0.937659	0.346652	0.025056	-0.346668	-0.927681	-0.138666
43104	9.652024	0.242535	-1.453232	0.045061	0.001218	-0.004361	-0.024743	-0.138730	0.990021	-0.937801	0.346267	0.025084	-0.346291	-0.927822	-0.138669
43105	9.646580	0.251692	-1.553090	0.061119	0.005759	-0.005344	-0.024628	-0.138699	0.990028	-0.938007	0.345707	0.025098	-0.345741	-0.928035	-0.138615
43106	9.668969	0.352005	-1.562056	0.056164	0.010991	-0.005554	-0.024500	-0.138637	0.990040	-0.938192	0.345202	0.025123	-0.345247	-0.928232	-0.138525
43107	9.686034	0.340753	-1.574586	0.044003	0.020077	-0.004878	-0.024340	-0.138471	0.990067	-0.938338	0.344802	0.025156	-0.344860	-0.928406	-0.138325
43108	9.658425	0.293634	-1.569500	0.031910	0.023205	-0.000800	-0.024216	-0.138277	0.990098	-0.938430	0.344551	0.025167	-0.344619	-0.928528	-0.138107
43109	9.658878	0.293105	-1.566811	0.029262	0.034342	0.001827	-0.024070	-0.137955	0.990146	-0.938524	0.344296	0.025155	-0.344374	-0.928670	-0.137762
43110	9.665043	0.313955	-1.573624	0.024108	0.037950	0.001971	-0.023922	-0.137615	0.990197	-0.938586	0.344126	0.025151	-0.344214	-0.928784	-0.137395
43111	9.693471	0.314622	-1.493763	0.011351	0.042173	0.003718	-0.023767	-0.137214	0.990256	-0.938618	0.344041	0.025144	-0.344138	-0.928875	-0.136968
43112	9.722129	0.285580	-1.475843	0.002495	0.044275	0.004347	-0.023619	-0.136807	0.990316	-0.938609	0.344065	0.025145	-0.344173	-0.928926	-0.136535
43113	9.671990	0.272425	-1.350742	-0.000347	0.048547	0.007063	-0.023473	-0.136335	0.990385	-0.938599	0.344093	0.025122	-0.344209	-0.928985	-0.136041
43114	9.706277	0.264620	-1.342406	0.001308	0.050311	0.007315	-0.023329	-0.135863	0.990453	-0.938590	0.344122	0.025096	-0.344246	-0.929043	-0.135548
43115	9.678645	0.246839	-1.272405	0.006269	0.045090	0.007539	-0.023200	-0.135422	0.990516	-0.938603	0.344088	0.025059	-0.344219	-0.929120	-0.135091
43116	9.656683	0.235640	-1.244338	0.010372	0.039341	0.005800	-0.023082	-0.135056	0.990569	-0.938622	0.344038	0.025035	-0.344175	-0.929192	-0.134708
43117	9.673866	0.238873	-1.223364	0.010574	0.035714	0.005173	-0.022963	-0.134710	0.990619	-0.938650	0.343962	0.025015	-0.344105	-0.929270	-0.134344
43118	9.635047	0.223985	-1.213600	0.011172	0.030076	0.003557	-0.022856	-0.134438	0.990658	-0.938673	0.343901	0.025012	-0.344051	-0.929333	-0.134053
43119	9.601797	0.230646	-1.214593	0.007668	0.024940	0.003413	-0.022758	-0.134198	0.990693	-0.938692	0.343849	0.025014	-0.344005	-0.929386	-0.133796
43120	9.607698	0.251492	-1.222893	0.009379	0.015490	0.006810	-0.022730	-0.134050	0.990714	-0.938712	0.343797	0.024981	-0.343953	-0.929427	-0.133649
43121	9.596633	0.283364	-1.217988	-0.001590	0.013294	0.004217	-0.022680	-0.133916	0.990733	-0.938699	0.343832	0.024987	-0.343992	-0.929433	-0.133505
43122	9.591535	0.231668	-1.269221	-0.009796	0.003795	0.006625	-0.022692	-0.133876	0.990738	-0.938645	0.343978	0.024982	-0.344137	-0.929385	-0.133468
43123	9.619964	0.172626	-1.317326	-0.004183	0.002725	0.009446	-0.022727	-0.133822	0.990745	-0.938622	0.344045	0.024940	-0.344198	-0.929368	-0.133427
43124	9.653867	0.225068	-1.361540	-0.004383	0.001104	0.009807	-0.022777	-0.133797	0.990747	-0.938593	0.344128	0.024896	-0.344275	-0.929341	-0.133419
43125	9.659638	0.321066	-1.388426	-0.016147	0.002931	0.009190	-0.022808	-0.133742	0.990754	-0.938528	0.344305	0.024872	-0.344448	-0.929283	-0.133373
43126	9.659922	0.305412	-1.419258	-0.024548	0.002319	0.012489	-0.022878	-0.133696	0.990758	-0.938425	0.344588	0.024830	-0.344723	-0.929185	-0.133347
43127	9.665395	0.265544	-1.380890	-0.028048	0.007689	0.012876	-0.022928	-0.133584	0.990772	-0.938319	0.344881	0.024786	-0.345010	-0.929092	-0.133252
43128	9.665738	0.249898	-1.411290	-0.019845	0.006682	0.009938	-0.022961	-0.133506	0.990782	-0.938230	0.345126	0.024762	-0.345250	-0.929013	-0.133183
43129	9.665861	0.249079	-1.410590	-0.011982	0.006977	0.011664	-0.023002	-0.133404	0.990795	-0.938179	0.345268	0.024708	-0.345386	-0.928974	-0.133099
43130	9.654582	0.295347	-1.374934	-0.018329	0.011368	0.014496	-0.023057	-0.133269	0.990812	-0.938103	0.345479	0.024638	-0.345588	-0.928915	-0.132986
43131	9.665108	0.321115	-1.252942	-0.033740	0.005740	0.017763	-0.023159	-0.133158	0.990824	-0.937976	0.345831	0.024553	-0.345927	-0.928800	-0.132908
43132	9.620062	0.298846	-1.204586	-0.041943	0.001503	0.020430	-0.023308	-0.133092	0.990830	-0.937811	0.346284	0.024454	-0.346363	-0.928641	-0.132886
43133	9.541192	0.208171	-1.143819	-0.039642	-0.008338	0.022469	-0.023503	-0.133095	0.990825	-0.937662	0.346697	0.024329	-0.346754	-0.928486	-0.132947
43134	9.551661	0.218448	-1.055271	-0.033048	-0.022319	0.022405	-0.023751	-0.133244	0.990799	-0.937527	0.347069	0.024200	-0.347100	-0.928326	-0.133163
43135	9.568333	0.205798	-1.071304	-0.037209	-0.026350	0.019928	-0.023985	-0.133423	0.990769	-0.937387	0.347456	0.024098	-0.347463	-0.928156	-0.133402
43136	9.624339	0.192679	-1.125929	-0.034715	-0.039822	0.021329	-0.024286	-0.133736	0.990719	-0.937247	0.347841	0.023980	-0.347820	-0.927966	-0.133792
43137	9.657518	0.273888	-1.111841	-0.034061	-0.046165	0.023378	-0.024621	-0.134087	0.990664	-0.937116	0.348204	0.023840	-0.348149	-0.927780	-0.134228
43138	9.702175	0.188127	-1.210404	-0.049529	-0.056306	0.022700	-0.024990	-0.134549	0.990592	-0.936926	0.348721	0.023730	-0.348633	-0.927518	-0.134777
43139	9.808320	0.142158	-1.308836	-0.031875	-0.054571	0.018055	-0.025305	-0.134996	0.990523	-0.936804	0.349056	0.023640	-0.348939	-0.927328	-0.135298
43140	9.786006	0.222121	-1.447791	-0.028160	-0.047814	0.017852	-0.025600	-0.135395	0.990461	-0.936688	0.349371	0.023549	-0.349227	-0.927150	-0.135767
43141	9.797029	0.324526	-1.520469	-0.021418	-0.048962	0.014287	-0.025860	-0.135803	0.990398	-0.936603	0.349604	0.023482	-0.349436	-0.927003	-0.136234
43142	9.818758	0.363557	-1.486346	-0.040162	-0.041602	0.014224	-0.026102	-0.136156	0.990344	-0.936441	0.350041	0.023444	-0.349853	-0.926786	-0.136638
43143	9.779184	0.289614	-1.608307	-0.056993	-0.036826	0.017457	-0.026349	-0.136440	0.990298	-0.936230	0.350608	0.023395	-0.350398	-0.926530	-0.136977
43144	9.784150	0.235008	-1.604980	-0.051689	-0.027608	0.013837	-0.026536	-0.136666	0.990262	-0.936035	0.351131	0.023377	-0.350906	-0.926299	-0.137241
43145	9.784139	0.280416	-1.685955	-0.039714	-0.017351	0.014633	-0.026689	-0.136779	0.990242	-0.935885	0.351533	0.023332	-0.351294	-0.926130	-0.137392
43146	9.722514	0.315706	-1.703977	-0.046692	-0.006601	0.015456	-0.026816	-0.136806	0.990235	-0.935712	0.351996	0.023291	-0.351745	-0.925950	-0.137450
43147	9.666476	0.311985	-1.683354	-0.072027	0.004268	0.014958	-0.026896	-0.136718	0.990245	-0.935447	0.352698	0.023288	-0.352441	-0.925696	-0.137379
43148	9.632506	0.182666	-1.621896	-0.079791	0.013796	0.017496	-0.026972	-0.136548	0.990266	-0.935154	0.353478	0.023270	-0.353214	-0.925423	-0.137228
43149	9.615625	0.176305	-1.464703	-0.080028	0.023403	0.014758	-0.026983	-0.136284	0.990302	-0.934860	0.354253	0.023279	-0.353990	-0.925166	-0.136965
43150	9.632007	0.086682	-1.287443	-0.066943	0.024576	0.020271	-0.027047	-0.136004	0.990339	-0.934606	0.354926	0.023217	-0.354654	-0.924949	-0.136710
43151	9.648938	0.147258	-1.142611	-0.045491	0.021082	0.022181	-0.027135	-0.135734	0.990374	-0.934432	0.355391	0.023105	-0.355106	-0.924810	-0.136478
43152	9.644159	0.275159	-1.163048	-0.047355	0.012472	0.021980	-0.027257	-0.135560	0.990394	-0.934245	0.355889	0.023000	-0.355588	-0.924644	-0.136347
43153	9.683596	0.302208	-1.137129	-0.054092	0.008392	0.025257	-0.027419	-0.135397	0.990412	-0.934039	0.356438	0.022869	-0.356117	-0.924456	-0.136239
43154	9.672646	0.332681	-1.132701	-0.059591	-0.002426	0.029202	-0.027662	-0.135333	0.990414	-0.933806	0.357059	0.022708	-0.356709	-0.924226	-0.136252
43155	9.790194	0.282885	-1.167969	-0.068573	-0.007861	0.033568	-0.027959	-0.135290	0.990411	-0.933545	0.357752	0.022515	-0.357368	-0.923964	-0.136302
43156	9.700040	0.223462	-1.104615	-0.066738	-0.014976	0.032880	-0.028280	-0.135331	0.990397	-0.933291	0.358427	0.022327	-0.358006	-0.923697	-0.136439
43157	9.661043	0.282445	-1.115793	-0.073957	-0.026806	0.032882	-0.028638	-0.135465	0.990368	-0.933010	0.359169	0.022149	-0.358710	-0.923389	-0.136676
43158	9.616208	0.247669	-1.274626	-0.075349	-0.032887	0.035637	-0.029051	-0.135657	0.990330	-0.932712	0.359954	0.021946	-0.359450	-0.923055	-0.136986
43159	9.655071	0.187651	-1.441058	-0.084912	-0.034118	0.029996	-0.029409	-0.135868	0.990290	-0.932391	0.360793	0.021811	-0.360253	-0.922696	-0.137293
43160	9.671809	0.207463	-1.568055	-0.091231	-0.034932	0.032571	-0.029798	-0.136091	0.990248	-0.932042	0.361703	0.021663	-0.361124	-0.922307	-0.137621
43161	9.744581	0.216570	-1.746441	-0.103182	-0.023390	0.029301	-0.030111	-0.136206	0.990223	-0.931653	0.362709	0.021561	-0.362100	-0.921895	-0.137818
43162	9.788803	0.147101	-1.811302	-0.105016	-0.005015	0.026968	-0.030341	-0.136173	0.990220	-0.931253	0.363738	0.021487	-0.363107	-0.921494	-0.137847
43163	9.788916	0.160908	-1.779624	-0.100153	0.006944	0.020746	-0.030464	-0.136038	0.990235	-0.930876	0.364704	0.021465	-0.364062	-0.921132	-0.137745
43164	9.811400	0.167139	-1.629474	-0.090935	0.019262	0.016366	-0.030508	-0.135819	0.990264	-0.930526	0.365596	0.021475	-0.364953	-0.920811	-0.137537
43165	9.766461	0.155239	-1.375269	-0.077183	0.028308	0.013165	-0.030483	-0.135515	0.990306	-0.930233	0.366339	0.021497	-0.365701	-0.920560	-0.137228
43166	9.749654	0.146708	-1.217479	-0.054520	0.023208	0.015998	-0.030508	-0.135262	0.990340	-0.930016	0.366891	0.021460	-0.366250	-0.920378	-0.136989
43167	9.699842	0.235156	-1.047404	-0.045127	0.015412	0.013661	-0.030534	-0.135075	0.990365	-0.929840	0.367339	0.021433	-0.366695	-0.920226	-0.136814
43168	9.626625	0.208682	-0.902094	-0.056234	0.005748	0.014754	-0.030612	-0.134986	0.990375	-0.929617	0.367905	0.021411	-0.367253	-0.920014	-0.136748
43169	9.609331	0.185390	-0.778878	-0.069246	-0.017760	0.015264	-0.030774	-0.135098	0.990354	-0.929351	0.368577	0.021400	-0.367913	-0.919728	-0.136896
43170	9.680902	0.096232	-0.628452	-0.069332	-0.038726	0.013950	-0.031007	-0.135421	0.990303	-0.929078	0.369263	0.021406	-0.368581	-0.919405	-0.137266
43171	9.697096	0.093510	-0.443518	-0.073135	-0.066401	0.012772	-0.031326	-0.135989	0.990215	-0.928798	0.369967	0.021426	-0.369261	-0.919038	-0.137896
43172	9.606102	-0.012196	-0.310103	-0.062043	-0.107526	0.008022	-0.031759	-0.136963	0.990067	-0.928550	0.370585	0.021480	-0.369846	-0.918645	-0.138947
43173	9.515841	-0.061166	-0.054523	-0.037256	-0.150099	-0.000605	-0.032265	-0.138349	0.989858	-0.928406	0.370941	0.021584	-0.370165	-0.918293	-0.140412
43174	9.465466	-0.109847	0.158714	-0.019710	-0.202302	-0.001304	-0.032962	-0.140227	0.989571	-0.928320	0.371150	0.021672	-0.370318	-0.917924	-0.142409
43175	9.460347	-0.116935	0.177969	0.019687	-0.262202	-0.009237	-0.033802	-0.142672	0.989193	-0.928389	0.370970	0.021781	-0.370068	-0.917620	-0.144995
43176	9.667375	0.003236	-0.074772	0.072739	-0.308004	-0.008094	-0.034823	-0.145542	0.988739	-0.928651	0.370314	0.021803	-0.369317	-0.917434	-0.148053
43177	9.856812	0.271264	-0.380392	0.106487	-0.350326	-0.009512	-0.035982	-0.148796	0.988213	-0.929040	0.369337	0.021784	-0.368225	-0.917306	-0.151527
43178	10.002243	0.330742	-0.748615	0.100096	-0.378592	-0.008174	-0.037258	-0.152311	0.987630	-0.929401	0.368429	0.021757	-0.367186	-0.917094	-0.155285
43179	10.055946	0.469270	-1.116691	0.123538	-0.399397	-0.007868	-0.038604	-0.156007	0.987001	-0.929850	0.367298	0.021687	-0.365907	-0.916926	-0.159242
43180	10.228320	0.720210	-1.352119	0.094087	-0.412369	-0.003371	-0.040041	-0.159811	0.986335	-0.930185	0.366453	0.021613	-0.364900	-0.916609	-0.163327
43181	10.455047	0.912772	-1.565184	0.062017	-0.411188	-0.003717	-0.041461	-0.163597	0.985656	-0.930407	0.365892	0.021593	-0.364176	-0.916165	-0.167382
43182	10.439638	0.772006	-1.677500	0.035335	-0.409903	0.003393	-0.042943	-0.167349	0.984962	-0.930521	0.365605	0.021548	-0.363713	-0.915602	-0.171422
43183	10.433418	0.896640	-1.568783	0.015561	-0.411050	0.002178	-0.044414	-0.171108	0.984251	-0.930570	0.365479	0.021546	-0.363410	-0.914957	-0.175460
43184	10.367423	0.880990	-1.261953	-0.019871	-0.436467	0.004314	-0.045997	-0.175096	0.983476	-0.930491	0.365679	0.021586	-0.363417	-0.914122	-0.179745
43185	10.448213	0.880176	-0.610277	-0.071307	-0.465638	0.016169	-0.047796	-0.179296	0.982633	-0.930218	0.366372	0.021603	-0.363883	-0.913030	-0.184295
43186	10.264097	0.911718	0.678378	-0.049295	-0.546423	0.045183	-0.050162	-0.184126	0.981622	-0.930009	0.366920	0.021300	-0.364098	-0.911848	-0.189645
43187	10.113952	0.722020	1.620999	0.036671	-0.634246	0.071746	-0.053092	-0.189648	0.980416	-0.930099	0.366732	0.020572	-0.363451	-0.910792	-0.195862
43188	9.908072	0.562365	2.698995	0.132138	-0.732602	0.070771	-0.056366	-0.196062	0.978970	-0.930526	0.365698	0.019663	-0.361863	-0.909849	-0.203054
43189	10.059586	0.463184	3.527208	0.282848	-0.884919	0.085932	-0.060310	-0.203802	0.977153	-0.931489	0.363309	0.018283	-0.358734	-0.909105	-0.211751
43190	10.674683	0.642468	3.849159	0.403403	-1.067276	0.108555	-0.065083	-0.213105	0.974859	-0.932844	0.359906	0.016398	-0.354352	-0.908325	-0.222218
43191	11.206668	0.836930	3.603871	0.539006	-1.265707	0.154740	-0.070931	-0.224048	0.971993	-0.934628	0.355362	0.013708	-0.348480	-0.907480	-0.234608
43192	11.814877	1.506379	2.698352	0.619766	-1.490095	0.218607	-0.078073	-0.236779	0.968421	-0.936592	0.350275	0.010135	-0.341613	-0.906225	-0.249113
43193	12.002134	2.295432	2.059150	0.582281	-1.641808	0.281896	-0.086225	-0.250665	0.964226	-0.938326	0.345700	0.005961	-0.334827	-0.904245	-0.265013
43194	12.132537	3.012605	1.426259	0.396450	-1.768573	0.333077	-0.095177	-0.265464	0.959411	-0.939330	0.343011	0.001725	-0.329546	-0.901040	-0.282005
43195	11.888358	2.869090	1.099916	0.228362	-1.870432	0.382190	-0.104850	-0.280972	0.953971	-0.939693	0.342011	-0.002548	-0.325552	-0.896707	-0.299887
43196	11.432875	1.862528	-0.164038	0.082979	-1.934314	0.405111	-0.114878	-0.296850	0.947989	-0.939496	0.342497	-0.006601	-0.322724	-0.891390	-0.318235
43197	10.910946	0.763808	-2.109191	0.023946	-1.989071	0.397614	-0.124962	-0.313162	0.941442	-0.939094	0.343503	-0.010387	-0.320136	-0.885401	-0.337014
43198	10.110916	0.098301	-3.885503	0.040526	-1.956396	0.390640	-0.134816	-0.329057	0.934637	-0.938700	0.344445	-0.014133	-0.317281	-0.879249	-0.355323
43199	9.453929	-0.020743	-5.080586	0.085650	-1.892707	0.408479	-0.144578	-0.344238	0.927684	-0.938399	0.345075	-0.018200	-0.313855	-0.873169	-0.372923
43200	9.109005	0.390344	-5.433401	0.046151	-1.796117	0.443714	-0.154303	-0.358310	0.920763	-0.937864	0.346278	-0.022416	-0.310808	-0.867009	-0.389478
43201	8.713411	-0.050552	-6.099163	-0.090908	-1.694286	0.468963	-0.163905	-0.371320	0.913924	-0.936836	0.348777	-0.026309	-0.308987	-0.860509	-0.405033
43202	8.395348	-0.653644	-6.466890	-0.178078	-1.587541	0.475170	-0.173217	-0.383238	0.907262	-0.935461	0.352168	-0.029840	-0.308073	-0.853877	-0.419505
43203	8.150058	-1.047558	-6.338502	-0.277638	-1.426644	0.455314	-0.181824	-0.393765	0.901049	-0.933798	0.356301	-0.032726	-0.308158	-0.847348	-0.432481
43204	7.694890	-0.687950	-5.836181	-0.368250	-1.208988	0.426119	-0.189496	-0.402423	0.895627	-0.931849	0.361165	-0.034881	-0.309433	-0.841199	-0.443437
43205	7.265119	-0.232669	-5.199546	-0.532394	-0.889004	0.373328	-0.195692	-0.408523	0.891523	-0.929475	0.367144	-0.035786	-0.312698	-0.835652	-0.451559
43206	6.764847	0.090645	-4.558677	-0.785524	-0.492237	0.320944	-0.200198	-0.411409	0.889192	-0.926330	0.375081	-0.035018	-0.319112	-0.830697	-0.456191
43207	6.418059	0.281887	-4.103593	-1.083773	-0.054957	0.259982	-0.202736	-0.410883	0.888861	-0.922296	0.385130	-0.032333	-0.329042	-0.826348	-0.457035
43208	6.326308	0.227129	-3.707785	-1.398325	0.404090	0.190164	-0.203100	-0.406785	0.890661	-0.917183	0.397508	-0.027596	-0.342819	-0.822504	-0.453831
43209	6.604651	-0.180981	-3.439983	-1.646249	0.839218	0.105362	-0.201072	-0.399478	0.894420	-0.911190	0.411448	-0.021075	-0.359588	-0.819224	-0.446731
43210	7.122101	-1.115483	-3.722942	-1.793756	1.260657	0.008431	-0.196467	-0.389111	0.899996	-0.904521	0.426226	-0.013177	-0.378475	-0.816654	-0.435698
43211	7.769651	-2.496288	-4.085760	-1.737018	1.611140	-0.077015	-0.189480	-0.376307	0.906913	-0.897931	0.440107	-0.004989	-0.397262	-0.815291	-0.421289
43212	8.837919	-3.257439	-3.564665	-1.452372	1.933993	-0.161308	-0.180157	-0.361236	0.914905	-0.892309	0.451419	0.002528	-0.413919	-0.815922	-0.403660
43213	9.818762	-3.393410	-2.906677	-1.046316	2.236960	-0.268784	-0.168313	-0.344182	0.923694	-0.888375	0.459028	0.009163	-0.427155	-0.819044	-0.383023
43214	10.209027	-3.374897	-2.508164	-0.566668	2.462535	-0.388625	-0.154191	-0.325721	0.932808	-0.886533	0.462424	0.014929	-0.436215	-0.824663	-0.360065
43215	10.205954	-3.022154	-2.211954	-0.049805	2.618193	-0.493358	-0.138295	-0.306312	0.941832	-0.887033	0.461282	0.019775	-0.440507	-0.832701	-0.335502
43216	10.269990	-2.338138	-1.815487	0.444218	2.702602	-0.578050	-0.121217	-0.286308	0.950439	-0.889717	0.455888	0.023858	-0.440125	-0.842730	-0.309995
43217	10.227245	-1.156642	-1.343861	0.827046	2.724831	-0.623593	-0.103676	-0.266015	0.958377	-0.894036	0.447156	0.027401	-0.435834	-0.853983	-0.284187
43218	10.211135	0.009004	-1.041129	1.008548	2.709504	-0.611670	-0.086423	-0.245411	0.965559	-0.898965	0.436950	0.030595	-0.429409	-0.865360	-0.258378
43219	9.984878	0.958335	-0.665239	1.039783	2.651241	-0.544150	-0.070185	-0.224682	0.971901	-0.903813	0.426626	0.033359	-0.422133	-0.876075	-0.233013
43220	9.776204	1.607508	-0.700727	0.982842	2.579484	-0.437645	-0.055372	-0.203789	0.977448	-0.908191	0.417048	0.035503	-0.414878	-0.885743	-0.208172
43221	9.541774	2.088843	-0.890533	0.877727	2.483167	-0.302441	-0.042356	-0.182944	0.982210	-0.911943	0.408663	0.036791	-0.408124	-0.894162	-0.184144
43222	9.265154	2.566754	-1.296685	0.696629	2.390902	-0.133907	-0.031382	-0.162009	0.986290	-0.914814	0.402182	0.036955	-0.402655	-0.901112	-0.160830
43223	8.742783	2.960087	-1.584095	0.434695	2.295570	0.050854	-0.022598	-0.141066	0.989742	-0.916535	0.398344	0.035848	-0.399315	-0.906324	-0.138294
43224	8.254794	2.745056	-2.082668	0.097686	2.217258	0.234096	-0.015836	-0.119986	0.992649	-0.916875	0.397771	0.033453	-0.398861	-0.909605	-0.116312
43225	7.549200	2.045861	-2.336385	-0.232797	2.140051	0.393317	-0.010834	-0.098941	0.995034	-0.915882	0.400336	0.029835	-0.401300	-0.911011	-0.094956
43226	7.020042	1.073617	-2.725668	-0.531610	2.089652	0.494109	-0.006855	-0.077903	0.996937	-0.913682	0.405635	0.025414	-0.406373	-0.910709	-0.073959
43227	6.825708	0.397668	-3.073318	-0.746336	2.029203	0.543225	-0.003449	-0.057223	0.998355	-0.910586	0.412810	0.020515	-0.413305	-0.909018	-0.053530
43228	6.812270	-0.069992	-3.132786	-0.948235	1.972758	0.548811	-0.000137	-0.037021	0.999314	-0.906619	0.421666	0.015497	-0.421950	-0.905995	-0.033622
43229	6.558508	-0.736593	-3.096972	-1.120235	1.880119	0.515170	0.003278	-0.017836	0.999836	-0.901834	0.431952	0.010662	-0.432071	-0.901720	-0.014669
43230	6.363207	-1.197458	-3.251050	-1.143422	1.751232	0.446594	0.006974	-0.000130	0.999976	-0.896860	0.442269	0.006312	-0.442259	-0.896883	0.002968
43231	6.393341	-1.422165	-3.666398	-1.006992	1.620527	0.349224	0.011133	0.015919	0.999811	-0.892383	0.451270	0.002752	-0.451141	-0.892246	0.019229
43232	8.882592	-1.728887	-1.259949	-0.963490	1.555805	0.243917	0.016099	0.030875	0.999394	-0.888023	0.459800	0.000100	-0.459518	-0.887486	0.034820
43233	7.781351	-3.057839	-2.276896	-0.491045	1.310152	0.145462	0.020900	0.043148	0.998850	-0.885772	0.464119	-0.001515	-0.463650	-0.884722	0.047919
43234	8.233239	-4.112156	-2.989541	0.366437	0.678519	0.089279	0.023292	0.049568	0.998499	-0.887477	0.460848	-0.002175	-0.460264	-0.886094	0.054724
43235	10.593701	-1.741182	-1.275816	1.087889	-0.229813	0.023427	0.022081	0.047623	0.998621	-0.892426	0.451191	-0.001784	-0.450654	-0.891156	0.052463
43236	17.555858	-0.266063	6.814318	0.751780	-0.992779	0.016072	0.017541	0.038828	0.999092	-0.895785	0.444485	-0.001547	-0.444142	-0.894944	0.042578
43237	16.140141	1.852289	4.749050	1.102469	-1.460319	0.073368	0.010510	0.026034	0.999606	-0.900628	0.434587	-0.001849	-0.434464	-0.900254	0.028015
43238	13.813304	5.460304	0.436724	1.832343	-2.059914	0.166891	0.000269	0.008121	0.999967	-0.908443	0.417998	-0.003150	-0.418009	-0.908412	0.007490
43239	11.322864	6.964455	-1.023740	1.494275	-2.129934	0.295297	-0.011136	-0.010087	0.999887	-0.914562	0.404400	-0.006106	-0.404293	-0.914527	-0.013728
43240	7.180500	5.140986	-2.918599	0.649535	-1.908406	0.427968	-0.022656	-0.025842	0.999409	-0.917099	0.398523	-0.010485	-0.398016	-0.916794	-0.032729
43241	6.007232	0.815251	-6.213339	-0.215560	-1.776026	0.560813	-0.034834	-0.039878	0.998597	-0.916070	0.400701	-0.015954	-0.399502	-0.915341	-0.050489
43242	7.340041	-1.807579	-8.647992	-0.459306	-1.548830	0.601440	-0.046496	-0.051616	0.997584	-0.913979	0.405184	-0.021635	-0.403088	-0.912777	-0.066016
43243	10.045468	-2.119231	-9.217500	-0.102060	-1.294264	0.615218	-0.057292	-0.060933	0.996496	-0.913242	0.406479	-0.027650	-0.403370	-0.911626	-0.078934
43244	11.551697	1.399559	-6.800776	-0.005717	-0.976223	0.569982	-0.066380	-0.067524	0.995507	-0.912862	0.406911	-0.033269	-0.402836	-0.910969	-0.088651
43245	11.349672	1.121169	-4.721314	-0.571936	-0.853392	0.548354	-0.074792	-0.073046	0.994520	-0.910152	0.412515	-0.038149	-0.407468	-0.908017	-0.097335
43246	10.833657	-1.809411	-4.409208	-0.926609	-0.756578	0.479380	-0.082208	-0.077918	0.993565	-0.905955	0.421293	-0.041920	-0.415315	-0.903571	-0.105224
43247	10.428294	-3.609023	-4.244668	-0.617233	-0.623946	0.394956	-0.088343	-0.081878	0.992719	-0.903034	0.427193	-0.045128	-0.420387	-0.900446	-0.111679
43248	10.086371	-2.628783	-3.292362	-0.032749	-0.497156	0.349077	-0.093539	-0.084881	0.991991	-0.902568	0.427806	-0.048501	-0.420263	-0.899876	-0.116628
43249	9.770575	-1.048373	-2.586305	0.207252	-0.417101	0.324545	-0.098174	-0.087258	0.991336	-0.903121	0.426236	-0.051920	-0.418013	-0.900394	-0.120649
43250	9.773885	-0.359368	-2.108521	0.137549	-0.372795	0.316945	-0.102549	-0.089285	0.990713	-0.903364	0.425309	-0.055178	-0.416433	-0.900633	-0.124273
43251	9.803364	-0.382945	-1.944601	0.077939	-0.351162	0.324889	-0.106901	-0.091075	0.990090	-0.903344	0.424917	-0.058448	-0.415382	-0.900639	-0.127696
43252	9.901087	-0.317731	-1.982706	0.045321	-0.333935	0.325197	-0.111182	-0.092721	0.989465	-0.903166	0.424839	-0.061674	-0.414644	-0.900508	-0.130977
43253	9.783283	0.058443	-1.725368	-0.062706	-0.321101	0.328457	-0.115435	-0.094223	0.988836	-0.902529	0.425726	-0.064794	-0.414868	-0.899933	-0.134182
43254	9.804065	0.115391	-1.310621	-0.191786	-0.336801	0.338990	-0.119850	-0.095826	0.988157	-0.901321	0.427808	-0.067832	-0.416241	-0.898776	-0.137643
43255	9.867724	-0.119809	-1.231685	-0.239254	-0.347559	0.376509	-0.124647	-0.097340	0.987415	-0.899858	0.430336	-0.071171	-0.417993	-0.897405	-0.141232
43256	9.820799	-0.340578	-1.766214	-0.269929	-0.336048	0.399997	-0.129608	-0.098648	0.986646	-0.898208	0.433181	-0.074680	-0.420029	-0.895892	-0.144750
43257	9.706190	-0.485390	-1.622146	-0.315130	-0.327704	0.392613	-0.134467	-0.099882	0.985871	-0.896358	0.436407	-0.078045	-0.422445	-0.894188	-0.148212
43258	9.599446	-0.898109	-1.376764	-0.406006	-0.314584	0.385493	-0.139209	-0.101024	0.985096	-0.894100	0.440449	-0.081181	-0.425683	-0.892076	-0.151640
43259	9.600407	-1.616036	-1.378459	-0.444751	-0.321925	0.371499	-0.143859	-0.102256	0.984301	-0.891669	0.444804	-0.084111	-0.429220	-0.889771	-0.155168
43260	9.642231	-1.852983	-1.398785	-0.384248	-0.321365	0.342012	-0.148247	-0.103605	0.983508	-0.889499	0.448612	-0.086820	-0.432219	-0.887701	-0.158662
43261	9.627167	-1.583897	-1.395488	-0.278888	-0.320785	0.318874	-0.152427	-0.105023	0.982719	-0.887809	0.451434	-0.089461	-0.434237	-0.886103	-0.162052
43262	9.675841	-1.570882	-1.559392	-0.240233	-0.323013	0.291117	-0.156373	-0.106588	0.981930	-0.886306	0.453896	-0.091875	-0.435901	-0.884657	-0.165446
43263	9.748079	-1.589262	-1.712672	-0.163072	-0.320456	0.265775	-0.160082	-0.108221	0.981153	-0.885171	0.455638	-0.094165	-0.436860	-0.883562	-0.168734
43264	9.640875	-1.348939	-1.885117	-0.107011	-0.303094	0.250071	-0.163578	-0.109780	0.980403	-0.884292	0.456879	-0.096383	-0.437344	-0.882729	-0.171813
43265	9.614699	-1.242169	-2.105964	-0.109648	-0.292846	0.234598	-0.166889	-0.111300	0.979674	-0.883422	0.458120	-0.098446	-0.437851	-0.881895	-0.174780
43266	9.591888	-1.292582	-2.086148	-0.139333	-0.283102	0.218649	-0.170021	-0.112811	0.978962	-0.882428	0.459633	-0.100290	-0.438649	-0.880915	-0.177695
43267	9.696096	-1.472178	-2.343780	-0.105390	-0.264638	0.198663	-0.172892	-0.114236	0.978294	-0.881623	0.460801	-0.101999	-0.439147	-0.880121	-0.180382
43268	9.697861	-1.439235	-2.662665	-0.069771	-0.227575	0.179623	-0.175435	-0.115431	0.977700	-0.880994	0.461650	-0.103578	-0.439399	-0.879520	-0.182684
43269	9.617934	-1.408152	-2.784519	-0.075093	-0.196367	0.159452	-0.177659	-0.116430	0.977180	-0.880381	0.462509	-0.104952	-0.439735	-0.878936	-0.184672
43270	9.614590	-1.225532	-2.871647	-0.069075	-0.173686	0.150989	-0.179713	-0.117280	0.976703	-0.879798	0.463321	-0.106248	-0.440067	-0.878395	-0.186448
43271	9.580233	-1.114465	-2.816893	-0.095050	-0.137363	0.141764	-0.181522	-0.117838	0.976301	-0.879121	0.464337	-0.107408	-0.440676	-0.877784	-0.187881
43272	9.611484	-1.112842	-2.617928	-0.115577	-0.114247	0.136363	-0.183186	-0.118229	0.975943	-0.878353	0.465543	-0.108471	-0.441519	-0.877093	-0.189128
43273	9.702010	-0.974524	-2.579752	-0.104797	-0.076182	0.137670	-0.184688	-0.118265	0.975656	-0.877635	0.466639	-0.109569	-0.442321	-0.876505	-0.189976
43274	9.625392	-1.023185	-2.474358	-0.111350	-0.061286	0.133053	-0.186090	-0.118202	0.975397	-0.876882	0.467809	-0.110604	-0.443226	-0.875890	-0.190704
43275	9.585955	-0.187628	-2.433974	-0.113633	-0.040165	0.114987	-0.187233	-0.118025	0.975199	-0.876161	0.468954	-0.111462	-0.444168	-0.875301	-0.191212
43276	10.143276	-2.208916	-2.642673	-0.222030	-0.007490	0.125636	-0.188329	-0.117522	0.975049	-0.874922	0.471083	-0.112211	-0.446142	-0.874225	-0.191541
43277	9.356854	-0.885887	-1.903770	-0.015735	0.047151	0.112214	-0.189058	-0.116591	0.975020	-0.874639	0.471367	-0.113228	-0.446390	-0.874197	-0.191090
43278	9.474033	-0.924089	-1.850578	-0.114454	0.008535	0.119284	-0.190025	-0.115977	0.974905	-0.873891	0.472537	-0.114122	-0.447443	-0.873647	-0.191146
43279	9.515279	-0.956142	-1.646896	-0.146505	0.001804	0.117057	-0.190996	-0.115418	0.974782	-0.873010	0.473966	-0.114936	-0.448748	-0.872946	-0.191287
43280	9.436292	-1.350147	-0.908693	-0.189855	-0.034425	0.112825	-0.192099	-0.115204	0.974590	-0.871926	0.475791	-0.115621	-0.450382	-0.871981	-0.191849
43281	9.437695	-1.479173	-0.711963	-0.159634	-0.068917	0.111199	-0.193336	-0.115285	0.974336	-0.870990	0.477325	-0.116351	-0.451662	-0.871131	-0.192696
43282	9.293089	-1.500285	-0.318488	-0.201954	-0.111426	0.102184	-0.194692	-0.115790	0.974006	-0.869868	0.479231	-0.116905	-0.453237	-0.870017	-0.194024
43283	9.081718	-1.746585	-0.305541	-0.196395	-0.178619	0.092410	-0.196263	-0.116909	0.973557	-0.868795	0.481060	-0.117376	-0.454617	-0.868857	-0.195985
43284	9.066026	-1.644277	-0.125575	-0.194008	-0.265123	0.084502	-0.198166	-0.118826	0.972939	-0.867736	0.482873	-0.117765	-0.455812	-0.867591	-0.198798
43285	8.931008	-1.610218	-0.043943	-0.185355	-0.354467	0.081349	-0.200446	-0.121516	0.972140	-0.866726	0.484591	-0.118137	-0.456735	-0.866259	-0.202455
43286	8.781105	-2.111831	0.221759	-0.245369	-0.456991	0.063847	-0.203051	-0.125178	0.971134	-0.865462	0.486829	-0.118205	-0.457979	-0.864481	-0.207188
43287	9.018074	-1.904598	0.256806	-0.146404	-0.545483	0.053973	-0.205974	-0.129637	0.969932	-0.864680	0.488176	-0.118375	-0.458152	-0.863063	-0.212646
43288	9.011193	-1.701333	0.227197	-0.153358	-0.634461	0.048224	-0.209260	-0.134888	0.968512	-0.863866	0.489594	-0.118463	-0.458199	-0.861454	-0.218977
43289	9.370915	-1.237587	0.017632	-0.146224	-0.726016	0.058460	-0.213048	-0.140860	0.966835	-0.863072	0.490946	-0.118656	-0.457950	-0.859727	-0.226167
43290	9.492700	-0.614453	-0.327241	-0.194074	-0.802434	0.073491	-0.217317	-0.147405	0.964907	-0.862019	0.492740	-0.118871	-0.457926	-0.857601	-0.234146
43291	9.344239	-0.758951	-0.780745	-0.238003	-0.876177	0.079471	-0.221972	-0.154527	0.962731	-0.860754	0.494910	-0.119022	-0.458073	-0.855094	-0.242865
43292	9.213187	-1.080262	-1.096888	-0.225300	-0.953322	0.071490	-0.226913	-0.162325	0.960292	-0.859555	0.496971	-0.119102	-0.457904	-0.852450	-0.252296
43293	9.515592	-1.432839	-1.341484	-0.150598	-1.014494	0.049559	-0.231936	-0.170725	0.957632	-0.858752	0.498347	-0.119143	-0.456892	-0.850002	-0.262195
43294	9.981746	-1.555639	-1.625924	-0.071851	-1.041957	0.037222	-0.236968	-0.179396	0.954811	-0.858328	0.499049	-0.119258	-0.455103	-0.847801	-0.272239
43295	10.152687	-1.196239	-1.972597	-0.046914	-1.041724	0.036259	-0.241966	-0.188047	0.951888	-0.858029	0.499524	-0.119426	-0.453033	-0.845644	-0.282218
43296	9.951332	-0.878763	-2.010868	-0.191362	-1.069507	0.040614	-0.247117	-0.196879	0.948774	-0.857051	0.501251	-0.119213	-0.452103	-0.842607	-0.292603
43297	9.736065	-1.257405	-2.073679	-0.366998	-1.121899	0.036650	-0.252463	-0.206137	0.945394	-0.855300	0.504420	-0.118418	-0.452465	-0.838492	-0.303656
43298	9.926513	-1.319376	-1.869745	-0.412611	-1.163743	0.029682	-0.257948	-0.215724	0.941767	-0.853343	0.507965	-0.117372	-0.453065	-0.833927	-0.315115
43299	9.924959	-1.236550	-1.632512	-0.441535	-1.212879	0.020065	-0.263575	-0.225719	0.937859	-0.851290	0.511690	-0.116095	-0.453688	-0.828990	-0.327021
43300	9.782461	-1.016645	-1.253020	-0.396671	-1.267286	0.009682	-0.269372	-0.236146	0.933635	-0.849448	0.515029	-0.114815	-0.453736	-0.824002	-0.339328
43301	9.664956	-1.213161	-1.001006	-0.370846	-1.350877	-0.003096	-0.275430	-0.247271	0.928976	-0.847777	0.518076	-0.113456	-0.453225	-0.818813	-0.352324
43302	9.909804	-1.610223	-0.522913	-0.292627	-1.459817	-0.030964	-0.281737	-0.259346	0.923777	-0.846521	0.520426	-0.112068	-0.451693	-0.813570	-0.366165
43303	10.203322	-1.365767	-0.014024	-0.103103	-1.576944	-0.057102	-0.288307	-0.272449	0.917960	-0.846222	0.521117	-0.111109	-0.448093	-0.808832	-0.380793
43304	10.495767	-0.732715	0.049548	0.047291	-1.716464	-0.062292	-0.295388	-0.286615	0.911371	-0.846601	0.520595	-0.110674	-0.442734	-0.804259	-0.396426
43305	10.655432	0.017203	-0.143079	0.094293	-1.842760	-0.056443	-0.302969	-0.301697	0.903985	-0.847187	0.519678	-0.110495	-0.436445	-0.799321	-0.413040
43306	10.777941	0.565116	-0.533605	0.051852	-1.973046	-0.035161	-0.311186	-0.317581	0.895715	-0.847498	0.519202	-0.110348	-0.430012	-0.793456	-0.430717
43307	10.851182	0.660795	-0.794093	-0.066449	-2.082021	-0.013944	-0.319917	-0.334113	0.886579	-0.847262	0.519685	-0.109883	-0.424028	-0.786318	-0.449337
43308	10.906435	0.321919	-0.799963	-0.202828	-2.195681	0.005600	-0.329186	-0.351235	0.876511	-0.846362	0.521345	-0.108950	-0.418697	-0.777710	-0.468891
43309	11.372500	0.056332	-0.751046	-0.230465	-2.312953	0.025930	-0.338982	-0.368991	0.865411	-0.845322	0.523222	-0.108024	-0.412942	-0.768170	-0.489279
43310	12.059436	0.713653	-0.484256	-0.207869	-2.432875	0.094726	-0.349719	-0.387034	0.853171	-0.844118	0.525220	-0.107747	-0.406401	-0.757858	-0.510382
43311	12.395469	1.226023	-0.356148	-0.255805	-2.534315	0.206033	-0.361629	-0.405026	0.839749	-0.842360	0.527960	-0.108109	-0.399566	-0.746467	-0.532103
43312	12.399069	1.548915	-0.483428	-0.250022	-2.645139	0.337829	-0.374922	-0.422779	0.825040	-0.840085	0.531286	-0.109510	-0.392034	-0.734161	-0.554361
43313	12.429563	1.451935	-1.456081	-0.422948	-2.719307	0.440591	-0.389144	-0.440216	0.809182	-0.836766	0.536261	-0.110669	-0.385214	-0.720162	-0.577041
43314	12.194900	0.355089	-2.404986	-0.632672	-2.782895	0.485292	-0.403831	-0.457360	0.792302	-0.832366	0.543043	-0.110778	-0.379589	-0.704220	-0.599988
43315	11.914063	-1.955656	-3.772444	-0.681816	-2.805320	0.460351	-0.418180	-0.474381	0.774654	-0.827915	0.549927	-0.110168	-0.373742	-0.687418	-0.622715
43316	11.182440	-3.463423	-4.866703	-0.340049	-2.821011	0.394200	-0.431869	-0.491299	0.756383	-0.824908	0.554265	-0.110979	-0.364713	-0.671875	-0.644646
43317	10.941496	-3.269159	-5.888120	-0.038517	-2.809435	0.280991	-0.444224	-0.508432	0.737674	-0.823550	0.555919	-0.112779	-0.352747	-0.657610	-0.665672
43318	10.068782	-2.716545	-6.632312	0.081401	-2.868550	0.171814	-0.455607	-0.526030	0.718132	-0.822963	0.556430	-0.114531	-0.339344	-0.643177	-0.686417
43319	9.950587	-2.329530	-6.942190	0.184634	-2.874091	0.093322	-0.465878	-0.543808	0.698019	-0.823158	0.555746	-0.116432	-0.324605	-0.628823	-0.706550
43320	9.959349	-1.522909	-6.596198	0.304868	-2.799118	0.024321	-0.475009	-0.560964	0.678001	-0.823904	0.554151	-0.118737	-0.309108	-0.615009	-0.725408
43321	8.942783	-1.317527	-5.846310	0.364166	-2.636713	-0.051208	-0.482493	-0.577310	0.658722	-0.825261	0.551632	-0.121022	-0.293505	-0.602010	-0.742590
43322	7.954890	-1.338259	-6.637140	0.425251	-2.462008	-0.131169	-0.488554	-0.592551	0.640468	-0.826976	0.548546	-0.123318	-0.278254	-0.589899	-0.758020
43323	7.102430	-1.064104	-6.557504	0.417175	-2.188180	-0.175139	-0.492998	-0.606315	0.623967	-0.828982	0.545045	-0.125356	-0.264084	-0.579058	-0.771331
43324	6.575074	-0.613680	-6.599922	0.387022	-1.893181	-0.206822	-0.496085	-0.618322	0.609572	-0.831040	0.541511	-0.127038	-0.251540	-0.569600	-0.782486
43325	6.300468	-0.545744	-7.568631	0.282117	-1.568525	-0.237592	-0.497936	-0.628491	0.597544	-0.832932	0.538420	-0.127780	-0.241421	-0.561340	-0.791589
43326	6.113307	-1.851991	-8.466621	0.296574	-1.286709	-0.239424	-0.498911	-0.636968	0.587673	-0.834865	0.535205	-0.128669	-0.232567	-0.554822	-0.798802
43327	7.505947	-1.192204	-6.138360	0.477680	-0.860137	-0.267831	-0.498598	-0.643171	0.581146	-0.837309	0.530832	-0.130887	-0.224308	-0.551859	-0.803205
43328	8.903461	-0.408340	-4.875402	0.679155	-0.328030	-0.376576	-0.496084	-0.646982	0.579064	-0.840718	0.524602	-0.134111	-0.217011	-0.553360	-0.804176
43329	8.621014	-0.767136	-5.281983	0.907563	0.169275	-0.494808	-0.491512	-0.648631	0.581114	-0.845117	0.516332	-0.138486	-0.210221	-0.559176	-0.801953
43330	7.868374	-0.740175	-5.922742	1.157285	0.585769	-0.630653	-0.484872	-0.648559	0.586746	-0.850628	0.505663	-0.144003	-0.203302	-0.568926	-0.796864
43331	7.616679	-0.607557	-6.038977	1.262880	0.968265	-0.784781	-0.476193	-0.646924	0.595592	-0.856944	0.493300	-0.149336	-0.197197	-0.581502	-0.789284
43332	7.748850	-0.071620	-5.583969	1.255370	1.365773	-0.919286	-0.465534	-0.643358	0.607756	-0.863761	0.479923	-0.153595	-0.192860	-0.596460	-0.779128
43333	7.797660	0.343061	-5.078350	1.132458	1.774764	-1.006458	-0.453358	-0.637400	0.623047	-0.870576	0.466613	-0.156109	-0.191218	-0.613183	-0.766448
43334	7.686662	0.614908	-4.939975	0.918901	2.160930	-1.052627	-0.439920	-0.628803	0.641153	-0.877081	0.454178	-0.156370	-0.192872	-0.631133	-0.751313
43335	7.544316	1.168199	-5.010353	0.564864	2.512020	-1.079799	-0.425458	-0.617580	0.661499	-0.882874	0.443819	-0.153487	-0.198795	-0.649323	-0.734071
43336	7.311523	1.249247	-5.172819	0.093602	2.822890	-1.085683	-0.409985	-0.603775	0.683643	-0.887637	0.436520	-0.146800	-0.209790	-0.667013	-0.714900
43337	7.487822	0.744061	-5.154945	-0.293439	3.117005	-1.098268	-0.393398	-0.587493	0.707171	-0.891424	0.431950	-0.137049	-0.224947	-0.684304	-0.693633
43338	7.789951	0.420451	-5.340811	-0.525971	3.401467	-1.065096	-0.375835	-0.568497	0.731819	-0.894325	0.429389	-0.125731	-0.242757	-0.701738	-0.669800
43339	7.569318	0.389382	-5.637070	-0.761298	3.686221	-1.016065	-0.357371	-0.546680	0.757250	-0.896135	0.429123	-0.113120	-0.263113	-0.719024	-0.643255
43340	7.362499	0.282706	-5.598737	-0.980925	3.948575	-0.969762	-0.337741	-0.522109	0.783156	-0.896844	0.431031	-0.099413	-0.285660	-0.735944	-0.613828
43341	7.482972	-0.220554	-5.796413	-1.112886	4.171998	-0.909704	-0.317127	-0.495007	0.808949	-0.896520	0.434681	-0.085469	-0.309327	-0.752343	-0.581632
43342	7.689779	-0.599001	-6.016106	-1.077452	4.394870	-0.842732	-0.295368	-0.465241	0.834451	-0.895669	0.438789	-0.072394	-0.332468	-0.768775	-0.546306
43343	7.895090	-0.545302	-6.104196	-1.002527	4.593157	-0.792761	-0.272448	-0.433056	0.859206	-0.894481	0.443016	-0.060345	-0.354509	-0.784984	-0.508059
43344	8.081897	-0.535401	-6.109017	-0.941218	4.775812	-0.753822	-0.248177	-0.398522	0.882943	-0.893030	0.447309	-0.049117	-0.375375	-0.800684	-0.466904
43345	8.304055	-0.662331	-6.263145	-0.879632	4.916675	-0.713852	-0.222826	-0.362003	0.905153	-0.891324	0.451705	-0.038768	-0.394828	-0.815424	-0.423314
43346	8.508939	-0.814491	-6.486865	-0.770617	5.038020	-0.684315	-0.196414	-0.323551	0.925600	-0.889499	0.455993	-0.029357	-0.412569	-0.829087	-0.377362
43347	8.767125	-0.751813	-7.019173	-0.655630	5.163136	-0.672300	-0.168694	-0.283495	0.944019	-0.887970	0.459436	-0.020706	-0.427846	-0.841754	-0.329239
43348	8.916866	-0.471765	-7.191195	-0.622126	5.270023	-0.655707	-0.139938	-0.241773	0.960189	-0.886152	0.463225	-0.012509	-0.441759	-0.852625	-0.279070
43349	8.897744	-0.208090	-7.205347	-0.672995	5.348736	-0.637728	-0.110276	-0.198904	0.973795	-0.883930	0.467598	-0.004589	-0.454431	-0.861272	-0.227382
43350	8.508256	-0.323212	-6.449847	-0.843456	5.365978	-0.620653	-0.080011	-0.155396	0.984607	-0.880546	0.473950	0.003247	-0.467159	-0.866731	-0.174755
43351	8.425303	-0.738809	-5.933872	-1.045177	5.310450	-0.592176	-0.049615	-0.112144	0.992453	-0.875972	0.482244	0.010700	-0.479804	-0.868830	-0.122161
43352	8.514407	-1.102034	-5.347955	-1.160901	5.215644	-0.572183	-0.019199	-0.069595	0.997391	-0.870462	0.491922	0.017569	-0.491861	-0.867853	-0.070024
43353	10.050391	-1.131072	-2.239246	-1.288526	4.993833	-0.523066	0.010235	-0.028958	0.999528	-0.864062	0.502841	0.023416	-0.503282	-0.863894	-0.019875
43354	10.903440	-1.408949	-0.080004	-1.369169	4.553979	-0.435347	0.037229	0.008045	0.999274	-0.856991	0.514582	0.027785	-0.513985	-0.857404	0.026051
43355	9.686067	-4.373919	-4.688786	-0.929659	3.662920	-0.378632	0.059450	0.037375	0.997531	-0.851987	0.522633	0.031195	-0.520177	-0.851738	0.062913
43356	7.461359	-2.707450	-4.103915	-0.009485	2.652905	-0.323082	0.076053	0.058281	0.995399	-0.851715	0.522872	0.034461	-0.518457	-0.850417	0.089405
43357	5.377296	-3.071662	-3.187562	0.432391	1.637248	-0.192462	0.086185	0.071200	0.993732	-0.853775	0.519338	0.036837	-0.513460	-0.851598	0.105548
43358	4.742691	-4.403216	-3.854379	0.910423	0.682111	-0.003671	0.089758	0.077018	0.992981	-0.858402	0.511574	0.037914	-0.505064	-0.855780	0.112031
43359	5.387275	-5.003607	-4.784470	1.540826	-0.132003	0.127617	0.088043	0.076516	0.993174	-0.866182	0.498252	0.038399	-0.491912	-0.863649	0.110145
43360	5.449722	-4.450787	-6.104257	1.976111	-0.878543	0.293912	0.081293	0.070336	0.994205	-0.875983	0.480873	0.037607	-0.475442	-0.873964	0.100705
43361	6.224412	-4.631317	-8.369939	2.108163	-1.781269	0.528165	0.068367	0.057149	0.996022	-0.886207	0.462017	0.034320	-0.458217	-0.885028	0.082233
43362	13.257018	-1.808249	-5.107289	1.981026	-2.265962	0.679929	0.052163	0.040070	0.997834	-0.895528	0.444061	0.028983	-0.441938	-0.895100	0.059047
43363	14.937895	4.585692	-2.966241	1.283908	-2.189953	0.667422	0.036647	0.023314	0.999056	-0.901419	0.432338	0.022976	-0.431394	-0.901410	0.036859
43364	13.130238	4.215532	-8.239701	0.585338	-2.348457	0.619417	0.021030	0.004781	0.999767	-0.904079	0.427028	0.016975	-0.426848	-0.904226	0.013303
43365	10.659743	1.877666	-7.763446	0.094239	-2.079874	0.595569	0.006816	-0.011497	0.999911	-0.904554	0.426216	0.011066	-0.426305	-0.904548	-0.007494
43366	8.354341	0.343038	-8.071538	-0.285581	-1.942662	0.646425	-0.007285	-0.026287	0.999628	-0.903292	0.429001	0.004699	-0.428964	-0.902922	-0.026870
43367	9.498335	-0.268075	-9.328251	-0.373711	-1.871762	0.651217	-0.021176	-0.040370	0.998960	-0.901581	0.432607	-0.001630	-0.432091	-0.900679	-0.045558
43368	11.475049	0.686568	-8.520349	-0.228131	-1.691354	0.565869	-0.033553	-0.053138	0.998023	-0.900394	0.435016	-0.007109	-0.433779	-0.898853	-0.062441
43369	12.145151	-0.160844	-7.067756	-0.151062	-1.377932	0.554228	-0.044480	-0.063106	0.997015	-0.899514	0.436713	-0.012489	-0.434621	-0.897385	-0.076189
43370	10.990779	-1.962901	-6.816749	0.260902	-1.088960	0.586192	-0.054433	-0.070336	0.996037	-0.900314	0.434849	-0.018495	-0.431825	-0.897752	-0.086995
43371	10.358540	-1.383349	-5.848356	0.697467	-0.839462	0.537300	-0.062830	-0.075570	0.995159	-0.902980	0.428988	-0.024434	-0.425064	-0.900144	-0.095191
43372	10.236021	0.121886	-4.689779	0.785693	-0.690987	0.498901	-0.070220	-0.079687	0.994344	-0.905912	0.422392	-0.030125	-0.417602	-0.902904	-0.101850
43373	9.905949	1.799497	-3.390495	0.272083	-0.609288	0.511979	-0.077352	-0.083040	0.993540	-0.906661	0.420368	-0.035453	-0.414708	-0.903546	-0.107805
43374	9.801479	0.901721	-2.535832	-0.404711	-0.579861	0.537921	-0.084605	-0.086012	0.992695	-0.904490	0.424587	-0.040299	-0.418020	-0.901292	-0.113719
43375	9.814975	-0.744511	-1.943125	-0.633305	-0.579193	0.524662	-0.091735	-0.088986	0.991799	-0.901358	0.430760	-0.044721	-0.423248	-0.898068	-0.119724
43376	10.157396	-1.578864	-1.024706	-0.501111	-0.590893	0.489840	-0.098625	-0.092174	0.990847	-0.898708	0.435811	-0.048913	-0.427313	-0.895306	-0.125820
43377	9.963490	-1.810059	-1.378829	-0.346856	-0.486615	0.470234	-0.104889	-0.094477	0.989986	-0.896738	0.439368	-0.053079	-0.429953	-0.893325	-0.130805
43378	9.686443	-1.020661	-1.106458	-0.201945	-0.480299	0.462657	-0.111073	-0.096735	0.989093	-0.895316	0.441726	-0.057341	-0.431361	-0.891920	-0.135673
43379	9.529451	-0.314533	-0.726675	-0.237791	-0.485756	0.450719	-0.117161	-0.099076	0.988159	-0.893769	0.444302	-0.061422	-0.432955	-0.890382	-0.140606
43380	9.497759	-0.654445	-0.571577	-0.343412	-0.518407	0.452279	-0.123422	-0.101674	0.987132	-0.891675	0.447935	-0.065350	-0.435527	-0.888266	-0.145945
43381	9.723121	-1.202803	-0.711052	-0.380205	-0.557094	0.435100	-0.129687	-0.104667	0.986015	-0.889459	0.451772	-0.069031	-0.438229	-0.885972	-0.151686
43382	9.456182	-1.523631	-0.890738	-0.346683	-0.577389	0.416992	-0.135903	-0.107886	0.984830	-0.887318	0.455414	-0.072557	-0.440678	-0.883719	-0.157621
43383	9.229147	-1.419837	-0.802698	-0.302224	-0.628157	0.397371	-0.142156	-0.111624	0.983530	-0.885427	0.458533	-0.075936	-0.442505	-0.881639	-0.164018
43384	9.275194	-1.290007	-0.818417	-0.264958	-0.660947	0.378641	-0.148408	-0.115707	0.982134	-0.883650	0.461407	-0.079167	-0.444003	-0.879611	-0.170720
43385	9.248802	-1.421183	-0.940923	-0.259633	-0.705114	0.368503	-0.154752	-0.120206	0.980613	-0.881933	0.464137	-0.082284	-0.445248	-0.877569	-0.177840
43386	9.381908	-1.666148	-1.134687	-0.242669	-0.739300	0.348633	-0.161095	-0.125063	0.978983	-0.880244	0.466807	-0.085214	-0.446339	-0.875471	-0.185286
43387	9.400136	-1.721521	-1.459544	-0.162522	-0.754613	0.323389	-0.167265	-0.130160	0.977282	-0.878985	0.468655	-0.088023	-0.446551	-0.873739	-0.192799
43388	9.419625	-1.412834	-1.634625	-0.118785	-0.764108	0.305929	-0.173341	-0.135392	0.975511	-0.877877	0.470213	-0.090731	-0.446414	-0.872106	-0.200365
43389	9.412419	-1.561712	-1.943274	-0.134625	-0.769310	0.286384	-0.179244	-0.140755	0.973683	-0.876769	0.471795	-0.093201	-0.446260	-0.870401	-0.207976
43390	9.491847	-1.471693	-2.197746	-0.082375	-0.763278	0.267928	-0.184977	-0.146119	0.971819	-0.875850	0.473022	-0.095589	-0.445725	-0.868849	-0.215477
43391	9.484414	-0.981957	-2.300264	-0.070041	-0.761464	0.255622	-0.190563	-0.151529	0.969910	-0.875056	0.474023	-0.097870	-0.444930	-0.867376	-0.222928
43392	9.379443	-0.987420	-2.274350	-0.145876	-0.765972	0.252718	-0.196163	-0.156957	0.967928	-0.873856	0.475801	-0.099944	-0.444854	-0.865435	-0.230492
43393	9.391880	-1.171879	-2.169065	-0.124987	-0.782884	0.243127	-0.201724	-0.162576	0.965855	-0.872816	0.477282	-0.101955	-0.444410	-0.863580	-0.238179
43394	9.545288	-1.344538	-2.460312	-0.134084	-0.760213	0.231215	-0.207101	-0.168021	0.963783	-0.871690	0.478936	-0.103816	-0.444147	-0.861620	-0.245650
43395	9.574130	-1.541931	-2.722619	-0.100657	-0.745279	0.214581	-0.212235	-0.173417	0.961708	-0.870792	0.480180	-0.105584	-0.443483	-0.859857	-0.252922
43396	9.681907	-1.403820	-2.907429	-0.063829	-0.727422	0.198265	-0.217170	-0.178701	0.959637	-0.870021	0.481200	-0.107281	-0.442606	-0.858203	-0.259976
43397	9.694856	-1.083949	-3.078606	-0.063515	-0.712724	0.180000	-0.221843	-0.183956	0.957573	-0.869345	0.482082	-0.108792	-0.441616	-0.856596	-0.266868
43398	9.758590	-0.841497	-3.120914	-0.099234	-0.692077	0.176285	-0.226417	-0.189013	0.955515	-0.868449	0.483384	-0.110167	-0.441057	-0.854760	-0.273595
43399	9.708469	-0.656192	-3.137153	-0.118434	-0.667997	0.174061	-0.230830	-0.193885	0.953481	-0.867529	0.484739	-0.111453	-0.440580	-0.852899	-0.280093
43400	9.495387	-0.567686	-3.064779	-0.173557	-0.660940	0.174184	-0.235244	-0.198651	0.951419	-0.866289	0.486693	-0.112576	-0.440685	-0.850687	-0.286581
43401	9.427121	-0.869786	-2.929715	-0.226990	-0.661278	0.171939	-0.239605	-0.203441	0.949316	-0.864880	0.488977	-0.113505	-0.441102	-0.848241	-0.293113
43402	9.450339	-1.188029	-2.755898	-0.248393	-0.680411	0.161770	-0.243998	-0.208392	0.947121	-0.863325	0.491544	-0.114258	-0.441741	-0.845551	-0.299846
43403	9.461919	-1.527019	-2.445641	-0.266537	-0.692147	0.149254	-0.248303	-0.213511	0.944859	-0.861780	0.494119	-0.114814	-0.442358	-0.842769	-0.306690
43404	9.512454	-1.584911	-2.033829	-0.279900	-0.724971	0.140247	-0.252713	-0.218897	0.942454	-0.860122	0.496904	-0.115224	-0.443087	-0.839745	-0.313852
43405	9.438839	-1.493354	-1.511766	-0.308492	-0.768823	0.139186	-0.257276	-0.224658	0.939861	-0.858400	0.499807	-0.115507	-0.443799	-0.836494	-0.321435
43406	9.457108	-1.542518	-0.917382	-0.378447	-0.848983	0.131163	-0.262171	-0.231060	0.936951	-0.856304	0.503401	-0.115462	-0.444983	-0.832586	-0.329834
43407	9.634705	-0.915843	-0.509970	-0.309067	-0.965642	0.144781	-0.267664	-0.238362	0.933563	-0.854546	0.506316	-0.115734	-0.445091	-0.828751	-0.339214
43408	9.638564	-0.267357	-0.275246	-0.343039	-1.080979	0.181330	-0.274021	-0.246348	0.929637	-0.852456	0.509722	-0.116198	-0.445231	-0.824316	-0.349676
43409	9.485656	-0.443755	0.043031	-0.440455	-1.213458	0.189073	-0.280994	-0.255364	0.925112	-0.849972	0.513822	-0.116338	-0.445635	-0.819009	-0.361433
43410	9.707885	-0.658071	0.039007	-0.376988	-1.383435	0.188103	-0.288748	-0.265655	0.919811	-0.847687	0.517515	-0.116641	-0.445030	-0.813391	-0.374624
43411	9.945383	-0.237833	-0.047922	-0.264760	-1.517840	0.191678	-0.297068	-0.276978	0.913802	-0.845953	0.520188	-0.117339	-0.442848	-0.807891	-0.388841
43412	9.678713	0.022479	0.048943	-0.240932	-1.649349	0.217550	-0.306186	-0.289082	0.907018	-0.844162	0.522869	-0.118320	-0.440047	-0.801898	-0.404127
43413	9.413816	-0.021411	-0.052941	-0.231649	-1.790279	0.248388	-0.316085	-0.302092	0.899350	-0.842377	0.525458	-0.119560	-0.436453	-0.795383	-0.420565
43414	9.369289	0.078221	-0.229011	-0.243217	-1.928805	0.289861	-0.326901	-0.315797	0.890735	-0.840322	0.528396	-0.121064	-0.432429	-0.788080	-0.438104
43415	9.317427	-0.213167	-0.224636	-0.341172	-2.073546	0.315989	-0.338436	-0.330388	0.881082	-0.837807	0.532095	-0.122288	-0.428417	-0.779563	-0.456882
43416	9.561786	-0.735151	-0.219196	-0.377412	-2.225580	0.342887	-0.350795	-0.345748	0.870288	-0.834941	0.536307	-0.123483	-0.424048	-0.769956	-0.476813
43417	10.081633	-0.392800	-0.146639	-0.313690	-2.396828	0.357574	-0.363828	-0.362172	0.858173	-0.832348	0.539974	-0.124996	-0.418121	-0.759776	-0.497911
43418	10.597757	-0.321908	-0.031655	-0.382046	-2.552694	0.380458	-0.377590	-0.379300	0.844723	-0.829279	0.544388	-0.126245	-0.411972	-0.748180	-0.520101
43419	11.440874	-1.453339	-0.135808	-0.485251	-2.741538	0.365848	-0.391783	-0.397644	0.829690	-0.825896	0.549407	-0.126679	-0.405465	-0.734868	-0.543661
43420	13.369336	-1.204290	-0.580604	-0.228334	-2.875845	0.347559	-0.406120	-0.416687	0.813289	-0.823608	0.552478	-0.128211	-0.395900	-0.721900	-0.567559
43421	14.320722	0.681257	-1.645992	0.021832	-2.930486	0.393850	-0.420743	-0.435499	0.795811	-0.822074	0.553997	-0.131459	-0.383627	-0.709526	-0.591103
43422	14.474416	1.565363	-1.643468	-0.164340	-3.000402	0.442654	-0.435656	-0.454124	0.777158	-0.819576	0.557106	-0.133895	-0.372154	-0.695273	-0.614896
43423	14.234016	1.554684	-1.724185	-0.407184	-3.095092	0.471140	-0.450828	-0.472767	0.757129	-0.816004	0.562082	-0.134909	-0.361788	-0.678642	-0.639183
43424	13.900480	0.561564	-4.021497	-0.636947	-3.105503	0.441231	-0.465449	-0.491070	0.736347	-0.811731	0.568452	-0.133999	-0.352775	-0.660085	-0.663202
43425	12.336755	-0.729248	-6.489413	-0.903483	-2.977859	0.389396	-0.478967	-0.508217	0.715755	-0.806747	0.576264	-0.130685	-0.346048	-0.640027	-0.686015
43426	11.105626	-2.640054	-7.273556	-1.047476	-2.923694	0.363183	-0.491852	-0.524522	0.694952	-0.801416	0.584709	-0.125888	-0.340313	-0.618864	-0.707951
43427	10.843847	-3.190633	-8.018939	-0.960818	-2.842429	0.350004	-0.504192	-0.539777	0.674115	-0.796448	0.592409	-0.121336	-0.333857	-0.598074	-0.728592
43428	10.425812	-3.485278	-8.392867	-0.844667	-2.854328	0.264623	-0.515643	-0.554989	0.652763	-0.792342	0.598793	-0.116799	-0.326048	-0.577438	-0.748504
43429	10.247278	-4.462123	-8.655738	-0.650679	-2.899257	0.089618	-0.525624	-0.570919	0.630691	-0.789801	0.602977	-0.112396	-0.316124	-0.557198	-0.767852
43430	10.011747	-4.219555	-7.610984	-0.321167	-2.798217	-0.116216	-0.533311	-0.586972	0.609133	-0.789454	0.604031	-0.109130	-0.303879	-0.539083	-0.785524
43431	9.868869	-3.908233	-7.234104	0.066800	-2.545715	-0.259228	-0.538781	-0.602092	0.589237	-0.791058	0.602121	-0.108063	-0.289728	-0.524343	-0.800701
43432	8.979344	-3.500720	-7.018158	0.481883	-2.189143	-0.327464	-0.542285	-0.615435	0.571985	-0.794223	0.597586	-0.110003	-0.274110	-0.513937	-0.812854
43433	7.355299	-2.569512	-6.500107	0.834528	-1.815670	-0.375895	-0.544082	-0.626962	0.557578	-0.798501	0.590973	-0.114660	-0.257626	-0.507611	-0.822168
43434	6.233139	-1.070415	-7.339152	0.982114	-1.428588	-0.416867	-0.544239	-0.636652	0.546331	-0.803262	0.583325	-0.120423	-0.242021	-0.504386	-0.828867
43435	4.744052	-0.065244	-9.028262	0.847202	-1.122608	-0.402406	-0.543605	-0.644655	0.537507	-0.807465	0.576467	-0.125244	-0.229116	-0.502102	-0.833906
43436	4.285000	0.500144	-9.304382	0.651887	-0.916954	-0.344184	-0.542801	-0.651237	0.530337	-0.810834	0.570926	-0.128811	-0.218897	-0.499934	-0.837944
43437	5.572677	2.904704	-5.756638	0.212423	-0.557854	-0.375843	-0.540919	-0.656177	0.526155	-0.813349	0.567393	-0.128566	-0.214174	-0.497491	-0.840614
43438	6.355311	2.473439	-4.829112	-0.267998	-0.041132	-0.479056	-0.537033	-0.659108	0.526471	-0.815392	0.565529	-0.123743	-0.216175	-0.495735	-0.841139
43439	6.145646	-0.639910	-5.379181	-0.184509	0.582263	-0.613844	-0.530708	-0.659694	0.532121	-0.818284	0.562381	-0.118903	-0.220815	-0.498529	-0.838278
43440	5.317359	-1.950289	-6.120325	0.662876	1.085327	-0.665039	-0.522775	-0.657951	0.542040	-0.823290	0.554615	-0.120814	-0.221134	-0.509415	-0.831623
43441	5.047843	-1.921022	-7.262774	1.457468	1.475977	-0.756766	-0.513247	-0.654468	0.555201	-0.830419	0.542078	-0.128669	-0.216753	-0.527089	-0.821703
43442	5.159627	-1.325402	-7.228560	2.087862	1.838980	-0.885431	-0.501864	-0.649295	0.571444	-0.839392	0.525013	-0.140648	-0.208694	-0.550252	-0.808499
43443	5.393298	-0.218749	-6.772508	2.395335	2.225469	-0.991387	-0.488912	-0.641873	0.590732	-0.849210	0.505096	-0.154014	-0.199519	-0.576955	-0.792032
43444	5.526204	0.227671	-6.337639	2.430554	2.587353	-1.032304	-0.474958	-0.631685	0.612690	-0.858972	0.484106	-0.166762	-0.191266	-0.605488	-0.772529
43445	5.407309	0.629954	-6.009787	2.355025	2.922167	-1.065263	-0.460224	-0.618617	0.636794	-0.868396	0.462824	-0.177995	-0.184614	-0.634907	-0.750207
43446	5.771600	1.527705	-6.133782	2.033003	3.193091	-1.151257	-0.444248	-0.603093	0.662512	-0.877358	0.442547	-0.185458	-0.181344	-0.663649	-0.725730
43447	6.274250	3.088094	-5.869592	1.223309	3.382277	-1.206023	-0.427379	-0.585470	0.688892	-0.884873	0.427093	-0.185988	-0.185331	-0.689069	-0.700597
43448	6.892062	3.928679	-5.835788	0.019392	3.530298	-1.246568	-0.409426	-0.566053	0.715509	-0.890159	0.419741	-0.177298	-0.199969	-0.709507	-0.675731
43449	7.389287	3.144379	-6.044929	-1.243578	3.661782	-1.249236	-0.390453	-0.545059	0.741928	-0.892521	0.421711	-0.159895	-0.225727	-0.724618	-0.651135
43450	7.337343	0.354552	-8.015705	-2.197727	3.670177	-1.134362	-0.371339	-0.523105	0.767117	-0.891539	0.431659	-0.137215	-0.259355	-0.734868	-0.626661
43451	9.927993	-1.733605	-6.045861	-2.366022	3.676942	-0.974660	-0.352451	-0.500203	0.790933	-0.888532	0.444156	-0.115048	-0.293750	-0.743318	-0.600990
43452	11.001911	-0.275782	-5.454840	-2.392426	3.872506	-0.926497	-0.332098	-0.475424	0.814667	-0.884285	0.457492	-0.093494	-0.328254	-0.751447	-0.572343
43453	9.476431	-2.535087	-7.607319	-2.302860	3.964511	-0.881120	-0.310613	-0.449578	0.837496	-0.879182	0.470809	-0.073338	-0.361329	-0.759091	-0.541500
43454	8.771433	-2.672589	-6.640199	-1.743441	4.038708	-0.777972	-0.288545	-0.422417	0.859247	-0.874992	0.480710	-0.057508	-0.388756	-0.768428	-0.508318
43455	9.274973	-1.172295	-6.348100	-1.391178	4.110295	-0.761369	-0.265386	-0.394323	0.879818	-0.871531	0.488362	-0.044010	-0.412315	-0.778468	-0.473269
43456	8.528544	-0.691203	-6.619825	-1.179094	4.171156	-0.718938	-0.241401	-0.365159	0.899102	-0.868382	0.494851	-0.032176	-0.433172	-0.788531	-0.436555
43457	8.301766	-0.750716	-6.224186	-1.051576	4.171751	-0.620635	-0.217514	-0.335165	0.916707	-0.865152	0.501023	-0.022098	-0.451885	-0.797898	-0.398948
43458	8.647372	-0.738793	-5.649179	-0.896955	4.205426	-0.528601	-0.193504	-0.304067	0.932791	-0.862121	0.506516	-0.013732	-0.468298	-0.806836	-0.360156
43459	8.862866	-1.138328	-5.616165	-0.723650	4.247279	-0.465980	-0.169260	-0.271995	0.947296	-0.859524	0.511050	-0.006840	-0.482255	-0.815381	-0.320287
43460	8.806707	-1.078039	-6.201259	-0.469047	4.306144	-0.410955	-0.144638	-0.238786	0.960240	-0.857887	0.513836	-0.001444	-0.493061	-0.823987	-0.279171
43461	8.798931	-0.435367	-7.027997	-0.340744	4.382565	-0.366009	-0.119653	-0.204391	0.971549	-0.856670	0.515855	0.003019	-0.501796	-0.831936	-0.236819
43462	8.397366	0.461220	-6.448909	-0.486302	4.441296	-0.308586	-0.094438	-0.168893	0.981100	-0.854540	0.519336	0.007146	-0.510727	-0.837714	-0.193371
43463	7.547889	0.132251	-5.747698	-0.940120	4.424012	-0.252676	-0.069385	-0.133122	0.988668	-0.849882	0.526852	0.011294	-0.522385	-0.839468	-0.149694
43464	7.056062	-1.338157	-5.961538	-1.351272	4.374261	-0.205458	-0.044404	-0.097528	0.994242	-0.842842	0.537948	0.015127	-0.536326	-0.837317	-0.106088
43465	7.032150	-2.313355	-6.145801	-1.481076	4.309168	-0.193010	-0.019329	-0.062604	0.997851	-0.834846	0.550178	0.018346	-0.550144	-0.832697	-0.062899
43466	7.072993	-2.577125	-5.843631	-1.518937	4.177935	-0.197762	0.005648	-0.029043	0.999562	-0.826397	0.562696	0.021019	-0.563060	-0.826154	-0.020823
43467	7.770293	-2.316271	-3.550880	-1.618321	3.924864	-0.216259	0.029818	0.001971	0.999553	-0.817129	0.575986	0.023240	-0.575683	-0.817457	0.018785
43468	8.307550	-3.922434	-3.641749	-1.715462	3.512550	-0.250699	0.052366	0.029041	0.998206	-0.807032	0.589971	0.025173	-0.588181	-0.806902	0.054331
43469	7.491811	-6.517511	-5.988081	-1.039076	2.925573	-0.257003	0.071779	0.050998	0.996116	-0.800710	0.598440	0.027060	-0.594736	-0.799543	0.083790
43470	6.187327	-5.242503	-5.539420	0.096997	2.256904	-0.263956	0.087346	0.067455	0.993892	-0.801064	0.597835	0.029826	-0.592171	-0.798776	0.106254
43471	5.426010	-4.720296	-4.702666	0.941938	1.525259	-0.198045	0.097944	0.078480	0.992093	-0.806399	0.590455	0.032903	-0.583204	-0.803246	0.121117
43472	5.490498	-4.809487	-4.189378	1.722626	0.765703	-0.048884	0.102800	0.084378	0.991117	-0.816257	0.576592	0.035576	-0.568468	-0.812664	0.128148
43473	6.411679	-5.135846	-3.102065	2.396933	-0.005220	0.101341	0.101979	0.084895	0.991157	-0.829734	0.556886	0.037672	-0.548763	-0.826239	0.127231
43474	7.779056	-5.344186	-2.515255	2.890356	-0.837367	0.284584	0.095140	0.079456	0.992288	-0.845528	0.532547	0.038426	-0.525387	-0.842663	0.117849
43475	13.672654	-1.884662	-1.368263	3.379808	-1.550195	0.457767	0.083339	0.068606	0.994157	-0.863216	0.503432	0.037621	-0.497909	-0.861307	0.101177
43476	16.513110	6.343939	1.358428	3.019286	-1.556480	0.448197	0.071918	0.057273	0.995765	-0.878210	0.476919	0.035997	-0.472837	-0.877079	0.084597
43477	13.570307	8.205778	-5.209310	2.399543	-2.108752	0.593024	0.056957	0.041403	0.997518	-0.889688	0.455454	0.031896	-0.453003	-0.889296	0.062777
43478	11.263431	8.961119	-4.183121	1.411317	-2.374999	0.644611	0.040620	0.023086	0.998908	-0.896304	0.442664	0.026217	-0.441575	-0.896390	0.038673
43479	8.507588	4.673769	-4.648058	-0.239247	-2.232784	0.621596	0.025203	0.005828	0.999665	-0.895438	0.444738	0.019982	-0.444473	-0.895642	0.016428
43480	7.067436	0.330494	-7.181431	-0.932397	-2.132612	0.772625	0.008776	-0.009774	0.999914	-0.891371	0.453109	0.012253	-0.453190	-0.891402	-0.004736
43481	8.488771	-1.417380	-7.761543	-0.803966	-1.978728	0.844810	-0.007734	-0.023524	0.999693	-0.887693	0.460420	0.003967	-0.460372	-0.887390	-0.024443
43482	10.222132	-2.074688	-7.089158	-0.213837	-1.819964	0.837625	-0.023516	-0.035817	0.999082	-0.886561	0.462591	-0.004283	-0.462013	-0.885848	-0.042632
43483	11.968422	0.041965	-4.513031	0.104661	-1.590529	0.722717	-0.037218	-0.046574	0.998221	-0.886816	0.461980	-0.011509	-0.460622	-0.885667	-0.058497
43484	10.801252	-1.039606	-3.476888	-0.083686	-1.461367	0.647683	-0.049653	-0.056541	0.997165	-0.886134	0.463084	-0.017867	-0.460761	-0.884509	-0.073097
43485	10.137079	-3.212821	-3.259310	0.038535	-1.356466	0.604768	-0.061211	-0.065743	0.995957	-0.885968	0.463131	-0.023880	-0.459688	-0.883848	-0.086595
43486	9.931684	-3.461655	-2.952049	0.489335	-1.208059	0.546767	-0.071548	-0.073937	0.994693	-0.887828	0.459214	-0.029727	-0.454579	-0.885243	-0.098499
43487	9.746812	-1.121673	-2.640025	0.669664	-1.110725	0.503586	-0.080993	-0.081492	0.993378	-0.890459	0.453686	-0.035384	-0.447798	-0.887428	-0.109311
43488	9.617272	-0.009637	-2.557558	0.327961	-1.077591	0.465454	-0.089914	-0.088982	0.991967	-0.891510	0.451201	-0.040335	-0.443988	-0.887975	-0.119897
43489	9.704975	-0.536924	-2.653882	-0.002339	-1.048697	0.431709	-0.098369	-0.096349	0.990475	-0.891088	0.451638	-0.044565	-0.443042	-0.886984	-0.130282
43490	9.968728	-1.051483	-2.923613	-0.028235	-0.991323	0.408562	-0.106367	-0.103320	0.988944	-0.890531	0.452327	-0.048525	-0.442312	-0.885847	-0.140122
43491	9.991156	-1.185197	-3.207761	0.119337	-0.912946	0.386874	-0.113797	-0.109665	0.987433	-0.890627	0.451697	-0.052475	-0.440266	-0.885406	-0.149073
43492	9.932879	-0.757388	-3.242698	0.247237	-0.834651	0.366331	-0.120694	-0.115436	0.985955	-0.891269	0.449951	-0.056423	-0.437118	-0.885561	-0.157191
43493	9.882154	-0.579057	-3.198374	0.254564	-0.777312	0.360278	-0.127248	-0.120711	0.984498	-0.891927	0.448136	-0.060336	-0.433906	-0.885778	-0.164690
43494	9.954450	-0.752700	-3.230810	0.209878	-0.731802	0.349496	-0.133504	-0.125662	0.983049	-0.892366	0.446739	-0.064082	-0.431114	-0.885795	-0.171778
43495	9.903786	-0.688329	-3.132975	0.151489	-0.678572	0.344839	-0.139455	-0.130142	0.981639	-0.892543	0.445853	-0.067688	-0.428857	-0.885595	-0.178334
43496	9.710075	-0.652625	-2.837418	-0.004439	-0.639060	0.330446	-0.145115	-0.134358	0.980250	-0.892042	0.446361	-0.070877	-0.428023	-0.884709	-0.184627
43497	9.791407	-0.896410	-2.718155	-0.146175	-0.611729	0.320253	-0.150546	-0.138342	0.978876	-0.890939	0.448104	-0.073693	-0.428443	-0.883213	-0.190715
43498	9.685240	-1.251349	-2.571452	-0.198090	-0.572054	0.300074	-0.155646	-0.142076	0.977542	-0.889617	0.450305	-0.076199	-0.429366	-0.881499	-0.196481
43499	9.560135	-1.153872	-2.363431	-0.165986	-0.544044	0.286821	-0.160490	-0.145582	0.976242	-0.888448	0.452193	-0.078624	-0.430004	-0.879959	-0.201915
43500	9.501198	-0.933191	-2.000743	-0.162727	-0.527474	0.283968	-0.165257	-0.148967	0.974935	-0.887273	0.454074	-0.081016	-0.430624	-0.878422	-0.207214
43501	9.574382	-1.019026	-1.855562	-0.163393	-0.524057	0.274591	-0.169906	-0.152327	0.973616	-0.886106	0.455935	-0.083302	-0.431217	-0.876881	-0.212444
43502	9.573916	-1.059748	-1.736241	-0.123259	-0.531990	0.270011	-0.174568	-0.155789	0.972243	-0.885097	0.457463	-0.085618	-0.431426	-0.875476	-0.217747
43503	9.431232	-0.751750	-1.446039	-0.100889	-0.555989	0.267913	-0.179293	-0.159435	0.970791	-0.884186	0.458780	-0.087952	-0.431357	-0.874129	-0.223226
43504	9.329557	-0.830087	-1.244771	-0.095213	-0.590856	0.262428	-0.184136	-0.163423	0.969220	-0.883287	0.460066	-0.090237	-0.431159	-0.872715	-0.229064
43505	9.425284	-1.108390	-1.282943	-0.109777	-0.628190	0.251896	-0.189024	-0.167749	0.967538	-0.882342	0.461453	-0.092374	-0.430978	-0.871161	-0.235238
43506	9.401019	-1.260447	-1.332876	-0.109649	-0.655361	0.240776	-0.193946	-0.172373	0.965750	-0.881398	0.462846	-0.094395	-0.430723	-0.869518	-0.241697
43507	9.311254	-1.102161	-1.373520	-0.095979	-0.686911	0.237332	-0.198951	-0.177250	0.963847	-0.880518	0.464107	-0.096402	-0.430241	-0.867864	-0.248406
43508	9.114634	-0.980581	-1.401883	-0.159178	-0.727759	0.230934	-0.204089	-0.182516	0.961788	-0.879358	0.465930	-0.098179	-0.430207	-0.865793	-0.255588
43509	9.043451	-1.299142	-1.373148	-0.200860	-0.775076	0.213949	-0.209261	-0.188228	0.959573	-0.878050	0.468075	-0.099666	-0.430392	-0.863410	-0.263223
43510	9.161840	-1.639210	-1.434641	-0.177487	-0.824153	0.196624	-0.214507	-0.194441	0.957173	-0.876861	0.470008	-0.101031	-0.430234	-0.860979	-0.271318
43511	9.209499	-1.846845	-1.645695	-0.084555	-0.851410	0.182166	-0.219719	-0.200916	0.954650	-0.876102	0.471106	-0.102492	-0.429149	-0.858890	-0.279534
43512	9.109762	-1.732012	-2.015409	0.003757	-0.882130	0.165019	-0.224916	-0.207735	0.951976	-0.875743	0.471436	-0.104031	-0.427185	-0.857085	-0.287956
43513	9.106236	-1.658232	-2.524367	0.029873	-0.902907	0.147811	-0.230015	-0.214779	0.949191	-0.875534	0.471502	-0.105476	-0.424892	-0.855310	-0.296499
43514	8.998320	-1.415120	-2.601968	0.020268	-0.908009	0.138170	-0.235047	-0.221913	0.946313	-0.875292	0.471654	-0.106803	-0.422631	-0.853403	-0.305099
43515	9.042175	-1.633504	-2.460294	-0.080222	-0.930460	0.127382	-0.240044	-0.229251	0.943304	-0.874652	0.472634	-0.107710	-0.421145	-0.850918	-0.313968
43516	9.321165	-1.777928	-2.351817	-0.057554	-0.956459	0.113534	-0.245032	-0.236867	0.940135	-0.874128	0.473410	-0.108553	-0.419357	-0.848397	-0.323053
43517	9.192982	-1.610379	-2.193677	-0.058341	-0.974044	0.103455	-0.249969	-0.244638	0.936839	-0.873629	0.474162	-0.109285	-0.417478	-0.845767	-0.332249
43518	9.085783	-1.584748	-2.028494	-0.084347	-1.019195	0.091293	-0.254988	-0.252836	0.933303	-0.873041	0.475121	-0.109811	-0.415668	-0.842813	-0.341886
43519	9.237965	-1.886516	-2.148981	-0.124252	-1.092410	0.072608	-0.260110	-0.261689	0.929441	-0.872341	0.476361	-0.110008	-0.413961	-0.839404	-0.352189
43520	9.866072	-1.447631	-2.512465	-0.009633	-1.129839	0.066785	-0.265329	-0.270862	0.925329	-0.872121	0.476637	-0.110552	-0.411102	-0.836332	-0.362690
43521	9.900638	-0.182667	-2.807334	-0.046226	-1.154918	0.094700	-0.270845	-0.280060	0.920983	-0.871680	0.477291	-0.111208	-0.408432	-0.832923	-0.373395
43522	9.381306	-0.429485	-2.947447	-0.235608	-1.207165	0.092412	-0.276548	-0.289668	0.916304	-0.870463	0.479527	-0.111121	-0.407205	-0.828339	-0.384758
43523	9.531503	-1.200695	-3.263960	-0.224797	-1.296204	0.040509	-0.282125	-0.300190	0.911203	-0.869439	0.481509	-0.110564	-0.405562	-0.823429	-0.396843
43524	9.859477	-1.234590	-3.453396	-0.064815	-1.336472	-0.009038	-0.287419	-0.311231	0.905829	-0.869200	0.482028	-0.110178	-0.402344	-0.819014	-0.409067
43525	9.690974	-0.823072	-3.277033	-0.019491	-1.357240	-0.025479	-0.292591	-0.322451	0.900231	-0.869200	0.482111	-0.109819	-0.398600	-0.814613	-0.421336
43526	9.535785	-0.822763	-2.898992	-0.106294	-1.405151	-0.024195	-0.297932	-0.334000	0.894248	-0.868848	0.482908	-0.109104	-0.395399	-0.809471	-0.434069
43527	9.835332	-0.922471	-2.805415	-0.152534	-1.474107	-0.015184	-0.303564	-0.345975	0.887778	-0.868297	0.484090	-0.108248	-0.392313	-0.803715	-0.447361
43528	10.242402	-0.905211	-2.596928	-0.232547	-1.532369	-0.014776	-0.309398	-0.358333	0.880835	-0.867433	0.485910	-0.107017	-0.389658	-0.797176	-0.461170
43529	10.603225	-0.582165	-2.037689	-0.310884	-1.612750	-0.006085	-0.315569	-0.371172	0.873297	-0.866249	0.488356	-0.105459	-0.387337	-0.789772	-0.475637
43530	10.928165	-0.570329	-1.187026	-0.453282	-1.734512	-0.011422	-0.322144	-0.384869	0.864927	-0.864534	0.491880	-0.103125	-0.385751	-0.780980	-0.491188
43531	11.709533	-1.367868	-0.469955	-0.521208	-1.899962	-0.053465	-0.328954	-0.399888	0.855499	-0.862707	0.495715	-0.100012	-0.384090	-0.770945	-0.508054
43532	12.851868	-1.196440	-0.272109	-0.284229	-2.049759	-0.093229	-0.335944	-0.416069	0.845002	-0.861936	0.497514	-0.097706	-0.379748	-0.761161	-0.525761
43533	13.195033	0.426590	-0.190346	-0.112800	-2.160363	-0.083550	-0.343317	-0.432837	0.833538	-0.861801	0.498011	-0.096353	-0.373406	-0.751424	-0.543995
43534	13.008860	1.610596	0.196055	-0.189364	-2.284477	-0.037453	-0.351412	-0.450075	0.820940	-0.861238	0.499253	-0.094950	-0.367122	-0.740391	-0.563065
43535	12.957941	2.251198	0.157530	-0.275394	-2.437534	0.016709	-0.360387	-0.467899	0.806964	-0.860183	0.501348	-0.093460	-0.360841	-0.727819	-0.583159
43536	13.094594	1.993728	-0.730541	-0.393391	-2.596996	0.073444	-0.370262	-0.486253	0.791495	-0.858519	0.504523	-0.091663	-0.354757	-0.713452	-0.604263
43537	12.942850	1.741546	-1.564295	-0.570065	-2.704056	0.114024	-0.380720	-0.504761	0.774770	-0.856091	0.509104	-0.089001	-0.349514	-0.697158	-0.625948
43538	12.571287	1.572165	-2.256019	-0.804242	-2.774416	0.155242	-0.391635	-0.523060	0.756988	-0.852711	0.515419	-0.085016	-0.345698	-0.678787	-0.647874
43539	11.707526	0.670757	-3.222265	-1.078611	-2.795774	0.175762	-0.402728	-0.540853	0.738436	-0.848303	0.523558	-0.079177	-0.343791	-0.658305	-0.669659
43540	11.317232	-0.884238	-4.785922	-1.260018	-2.747038	0.186343	-0.413679	-0.557660	0.719642	-0.843231	0.532719	-0.071912	-0.343264	-0.636574	-0.690611
43541	10.977815	-2.549485	-6.164379	-1.157263	-2.672487	0.178601	-0.424295	-0.573445	0.700809	-0.838529	0.540962	-0.065027	-0.341822	-0.615240	-0.710379
43542	10.580103	-3.369743	-7.693380	-0.869822	-2.638329	0.143444	-0.434397	-0.588638	0.681766	-0.834978	0.547035	-0.059707	-0.337804	-0.595196	-0.729130
43543	9.741711	-3.392306	-8.382931	-0.500572	-2.636221	0.030938	-0.443424	-0.603933	0.662299	-0.833181	0.550140	-0.056175	-0.330432	-0.576724	-0.747131
43544	9.473384	-3.090569	-8.421849	-0.206314	-2.619201	-0.127002	-0.450826	-0.619519	0.642613	-0.833100	0.550506	-0.053741	-0.320469	-0.559589	-0.764304
43545	8.754774	-2.693014	-7.822491	0.066243	-2.462056	-0.272456	-0.456261	-0.634625	0.623760	-0.834556	0.548417	-0.052482	-0.308774	-0.544508	-0.779852
43546	7.861908	-2.144446	-7.322529	0.348800	-2.185278	-0.340880	-0.459954	-0.648261	0.606795	-0.837197	0.544318	-0.053086	-0.295876	-0.532424	-0.793084
43547	6.689192	-1.718486	-6.760540	0.526849	-1.866579	-0.381930	-0.462112	-0.660198	0.592108	-0.840496	0.539023	-0.054960	-0.282875	-0.523062	-0.803983
43548	5.527070	-1.378329	-6.990659	0.750500	-1.517615	-0.387376	-0.462976	-0.670170	0.580108	-0.844387	0.532506	-0.058715	-0.269562	-0.517019	-0.812421
43549	4.316627	-1.054465	-8.011014	0.921134	-1.211192	-0.377942	-0.462921	-0.678428	0.570473	-0.848573	0.525193	-0.064011	-0.256182	-0.513720	-0.818818
43550	3.027983	-1.345061	-9.416018	0.882177	-1.025711	-0.358234	-0.462375	-0.685560	0.562332	-0.852462	0.518190	-0.069189	-0.243962	-0.511358	-0.824012
43551	3.386963	-1.058307	-8.628123	0.864266	-0.829976	-0.346855	-0.461350	-0.691600	0.555738	-0.856139	0.511369	-0.074346	-0.232769	-0.510089	-0.828026
43552	4.999823	0.635146	-5.118071	0.692479	-0.433332	-0.403589	-0.458817	-0.695869	0.552498	-0.859606	0.504997	-0.077812	-0.224863	-0.510632	-0.829875
43553	6.080998	0.461126	-4.020291	0.390197	0.044221	-0.453854	-0.454771	-0.697938	0.553232	-0.862566	0.499819	-0.078497	-0.221730	-0.512897	-0.829320
43554	5.909821	-1.048600	-4.966356	0.562298	0.522360	-0.471588	-0.449479	-0.697589	0.557977	-0.865964	0.493587	-0.080490	-0.219262	-0.519367	-0.825944
43555	5.369102	-1.378275	-5.847569	1.049175	0.945367	-0.528233	-0.442802	-0.695221	0.566210	-0.870610	0.484379	-0.086111	-0.214394	-0.531078	-0.819751
43556	5.304413	-0.731036	-6.447588	1.469066	1.315121	-0.640479	-0.434368	-0.691195	0.577559	-0.876543	0.471979	-0.094385	-0.207357	-0.547253	-0.810874
43557	5.826007	0.382884	-6.641191	1.644947	1.673246	-0.744894	-0.424364	-0.685353	0.591782	-0.883107	0.457674	-0.103232	-0.200093	-0.566415	-0.799461
43558	6.474450	1.241678	-6.399087	1.544260	2.035886	-0.799154	-0.413192	-0.677207	0.608821	-0.889530	0.443281	-0.110629	-0.194960	-0.587275	-0.785556
43559	6.942133	1.401530	-6.069107	1.322624	2.387219	-0.798366	-0.401396	-0.666424	0.628300	-0.895360	0.429989	-0.115929	-0.192904	-0.609088	-0.769285
43560	6.993709	1.010796	-6.052230	1.058610	2.710296	-0.790880	-0.388978	-0.652960	0.649877	-0.900559	0.418167	-0.118871	-0.194139	-0.631490	-0.750686
43561	7.248616	0.709654	-6.326241	0.787432	3.013969	-0.778733	-0.375986	-0.636811	0.673132	-0.905096	0.408069	-0.119503	-0.198583	-0.654180	-0.729803
43562	7.481854	0.979259	-6.289261	0.528419	3.264170	-0.769963	-0.362327	-0.618186	0.697542	-0.909031	0.399684	-0.117967	-0.205870	-0.676830	-0.706766
43563	7.336009	1.017449	-7.160125	0.173813	3.459349	-0.774170	-0.347927	-0.597474	0.722476	-0.912158	0.393771	-0.113631	-0.216599	-0.698547	-0.681995
43564	7.282522	-1.576271	-9.166937	-0.169534	3.379161	-0.673238	-0.334161	-0.576172	0.745897	-0.914097	0.390989	-0.107493	-0.229703	-0.717742	-0.657330
43565	10.218271	1.308437	-4.536183	-0.237026	3.473119	-0.565088	-0.320735	-0.553130	0.768880	-0.915396	0.389513	-0.101639	-0.243269	-0.736428	-0.631263
43566	9.671532	2.874281	-5.221798	-0.989669	3.544991	-0.559767	-0.306551	-0.528926	0.791368	-0.914663	0.393820	-0.091094	-0.263475	-0.751760	-0.604515
43567	8.092192	0.079636	-7.034719	-1.512268	3.490139	-0.515307	-0.292180	-0.504536	0.812449	-0.912044	0.402612	-0.077973	-0.287762	-0.763771	-0.577794
43568	8.467244	0.067206	-6.294887	-1.599750	3.450428	-0.438011	-0.277760	-0.479767	0.832270	-0.908508	0.412736	-0.065279	-0.312189	-0.774256	-0.550514
43569	8.933303	-0.214018	-6.484743	-1.765004	3.430241	-0.400871	-0.262940	-0.454744	0.850923	-0.903863	0.424603	-0.052385	-0.337483	-0.782892	-0.522671
43570	8.537338	-0.658502	-6.556331	-1.686113	3.408962	-0.338756	-0.247890	-0.429360	0.868447	-0.898848	0.436354	-0.040835	-0.361418	-0.790725	-0.494097
43571	8.101154	-0.820506	-6.051259	-1.532171	3.405444	-0.252252	-0.232903	-0.403427	0.884874	-0.893750	0.447477	-0.031228	-0.383363	-0.798130	-0.464782
43572	7.934016	-1.009493	-5.624239	-1.273856	3.438076	-0.168328	-0.217811	-0.376596	0.900408	-0.889134	0.457021	-0.023934	-0.402492	-0.805796	-0.434388
43573	7.741794	-0.890316	-5.317919	-0.961895	3.512954	-0.122829	-0.202257	-0.348716	0.915145	-0.885443	0.464370	-0.018744	-0.418429	-0.814099	-0.402690
43574	7.389791	-0.908161	-5.622808	-0.633239	3.567950	-0.100772	-0.186132	-0.319959	0.928968	-0.882956	0.469206	-0.015307	-0.430979	-0.823087	-0.369844
43575	7.133144	-1.310823	-5.764766	-0.346323	3.604136	-0.070143	-0.169764	-0.290462	0.941707	-0.881570	0.471864	-0.013380	-0.440471	-0.832452	-0.336168
43576	7.383004	-1.369232	-5.395712	-0.106267	3.655789	-0.056627	-0.152960	-0.260102	0.953389	-0.881194	0.472591	-0.012445	-0.447326	-0.842024	-0.301488
43577	7.547233	-1.157129	-5.165055	0.087282	3.746940	-0.068981	-0.135458	-0.228705	0.964025	-0.881682	0.471691	-0.011984	-0.451982	-0.851587	-0.265540
43578	7.547566	-0.933642	-5.419250	0.215184	3.829834	-0.096506	-0.117166	-0.196350	0.973508	-0.882782	0.469641	-0.011523	-0.454937	-0.860746	-0.228360
43579	7.620878	-0.583342	-6.016129	0.279684	3.914264	-0.135030	-0.098085	-0.163133	0.981716	-0.884197	0.466991	-0.010741	-0.456700	-0.869084	-0.190047
43580	7.569513	-0.190800	-6.062345	0.170686	3.995070	-0.180563	-0.078132	-0.129105	0.988548	-0.885137	0.465240	-0.009198	-0.458725	-0.875719	-0.150625
43581	7.828535	-0.664740	-5.351029	-0.172133	4.002216	-0.186391	-0.057991	-0.094856	0.993800	-0.884463	0.466557	-0.007079	-0.462993	-0.879390	-0.110953
43582	9.631806	-2.202784	-3.261497	-0.517282	4.021549	-0.089782	-0.038382	-0.059886	0.997467	-0.882090	0.471047	-0.005662	-0.469515	-0.880073	-0.070904
43583	11.005454	0.465475	-0.041149	-0.509302	3.897802	-0.065889	-0.019345	-0.025914	0.999477	-0.879694	0.475518	-0.004697	-0.475147	-0.879324	-0.031995
43584	11.922994	-0.730303	-2.824360	-0.828429	3.039531	-0.220485	-0.002789	-0.000289	0.999996	-0.875744	0.482771	-0.002303	-0.482768	-0.875747	-0.001599
43585	10.978739	-7.058584	-6.010772	-0.547344	1.867730	-0.195827	0.008028	0.015082	0.999854	-0.873072	0.487591	-0.000344	-0.487525	-0.872942	0.017082
43586	5.989710	-8.619437	-5.987728	0.635609	0.787188	-0.013768	0.012017	0.021902	0.999688	-0.876144	0.482050	-0.000029	-0.481900	-0.875870	0.024983
43587	4.480637	-5.620559	-6.894415	1.547955	-0.253521	0.075393	0.010193	0.020021	0.999748	-0.883496	0.468439	-0.000373	-0.468328	-0.883269	0.022463
43588	5.628830	-5.581872	-8.316684	2.308615	-1.209033	0.214351	0.002788	0.010260	0.999943	-0.894079	0.447905	-0.002103	-0.447901	-0.894023	0.010422
43589	6.612406	-4.339606	-10.208498	3.010044	-2.084856	0.382642	-0.009670	-0.006863	0.999930	-0.907131	0.420807	-0.005885	-0.420738	-0.907124	-0.010295
43590	8.740675	0.108212	-9.369191	3.308401	-2.598494	0.466452	-0.024442	-0.028718	0.999289	-0.920458	0.390678	-0.011286	-0.390076	-0.920079	-0.035982
43591	10.794969	11.072949	-3.644987	2.444465	-2.226039	0.370386	-0.036249	-0.047895	0.998194	-0.929590	0.368243	-0.016089	-0.366807	-0.928495	-0.057871
43592	9.501528	8.968036	-4.408836	-0.297987	-2.021222	0.472629	-0.048041	-0.064906	0.996734	-0.928287	0.371295	-0.020564	-0.368748	-0.926244	-0.078089
43593	8.287059	-0.203943	-7.482341	-0.728897	-1.801958	0.878733	-0.062837	-0.078270	0.994950	-0.925085	0.378679	-0.028635	-0.374525	-0.922213	-0.096202
43594	9.241078	2.783355	-7.423792	-0.638861	-1.719828	0.772611	-0.076421	-0.091170	0.992899	-0.922130	0.385239	-0.035601	-0.379257	-0.918302	-0.113511
43595	11.239426	2.936148	-7.005986	-1.016311	-1.595722	0.780137	-0.089669	-0.102741	0.990658	-0.917582	0.395317	-0.042056	-0.387303	-0.912781	-0.129721
43596	10.578599	0.345599	-6.107880	-0.849205	-1.414681	0.840838	-0.102858	-0.112293	0.988337	-0.913445	0.403982	-0.049164	-0.393749	-0.907849	-0.144126
43597	10.522365	-2.097294	-5.008810	-0.284351	-1.238867	0.858592	-0.115534	-0.120046	0.986023	-0.911382	0.407572	-0.057167	-0.395013	-0.905248	-0.156496
43598	10.154674	-2.554271	-3.991463	0.382063	-1.075698	0.826588	-0.127262	-0.126464	0.983774	-0.911867	0.405165	-0.065876	-0.390259	-0.905455	-0.166881
43599	9.763467	-2.313011	-3.615636	0.532226	-0.993051	0.788345	-0.138255	-0.132288	0.981522	-0.912879	0.401378	-0.074489	-0.384107	-0.906309	-0.176255
43600	9.777363	-2.465321	-3.660365	0.273781	-0.932449	0.724350	-0.148404	-0.137875	0.979268	-0.912876	0.399909	-0.082038	-0.380307	-0.906126	-0.185211
43601	9.706523	-2.679001	-3.644543	-0.100626	-0.893482	0.645877	-0.157648	-0.143381	0.977031	-0.911503	0.401742	-0.088119	-0.379880	-0.904459	-0.194026
43602	9.838632	-3.173065	-3.624296	-0.447095	-0.851856	0.548939	-0.165868	-0.148894	0.974843	-0.908901	0.406615	-0.092544	-0.382606	-0.901385	-0.202774
43603	9.999338	-3.738631	-3.823950	-0.432256	-0.790223	0.454081	-0.172980	-0.154155	0.972787	-0.906470	0.411206	-0.096025	-0.385213	-0.898413	-0.210867
43604	9.941937	-3.129699	-4.026123	-0.205375	-0.698250	0.377993	-0.179076	-0.158903	0.970918	-0.905003	0.413674	-0.099216	-0.385878	-0.896451	-0.217887
43605	9.796579	-1.906275	-3.962250	0.009025	-0.625990	0.332443	-0.184452	-0.163142	0.969207	-0.904432	0.414142	-0.102414	-0.384681	-0.895473	-0.223941
43606	9.889804	-0.724184	-3.549025	0.126410	-0.589216	0.314624	-0.189541	-0.167157	0.967540	-0.904318	0.413563	-0.105707	-0.382469	-0.895000	-0.229550
43607	10.030730	-0.025007	-2.975183	0.081274	-0.550105	0.320835	-0.194498	-0.170759	0.965925	-0.904012	0.413391	-0.108950	-0.380700	-0.894399	-0.234772
43608	9.895078	-0.180416	-2.727486	-0.030760	-0.514029	0.329135	-0.199410	-0.174034	0.964338	-0.903236	0.414267	-0.112013	-0.380000	-0.893361	-0.239803
43609	10.004422	-0.700203	-2.501152	-0.126266	-0.527620	0.334497	-0.204391	-0.177363	0.962687	-0.902081	0.415995	-0.114882	-0.380097	-0.891903	-0.245021
43610	10.060499	-1.281431	-2.677019	-0.161273	-0.482365	0.319218	-0.209086	-0.180373	0.961118	-0.900798	0.418037	-0.117511	-0.380587	-0.890343	-0.249885
43611	9.627831	-1.512052	-2.596287	-0.211179	-0.450485	0.299323	-0.213454	-0.183132	0.959635	-0.899361	0.420471	-0.119806	-0.381559	-0.888632	-0.254453
43612	9.238693	-1.614936	-2.172377	-0.267765	-0.458924	0.277189	-0.217682	-0.186079	0.958118	-0.897730	0.423394	-0.121733	-0.383009	-0.886630	-0.259214
43613	9.207406	-1.933600	-1.846887	-0.273439	-0.494257	0.255384	-0.221826	-0.189379	0.956519	-0.896120	0.426307	-0.123415	-0.384398	-0.884533	-0.264272
43614	9.304838	-2.034158	-1.566166	-0.212281	-0.531684	0.238583	-0.225991	-0.193098	0.954799	-0.894759	0.428671	-0.125086	-0.385141	-0.882584	-0.269653
43615	9.373706	-1.938316	-1.324429	-0.161574	-0.571074	0.216953	-0.230088	-0.197209	0.952978	-0.893643	0.430531	-0.126668	-0.385306	-0.880768	-0.275295
43616	9.298256	-1.620577	-1.047446	-0.135472	-0.623910	0.209248	-0.234344	-0.201836	0.950971	-0.892627	0.432171	-0.128242	-0.385098	-0.878914	-0.281441
43617	9.045011	-1.559413	-1.027037	-0.131575	-0.677500	0.207750	-0.238762	-0.206893	0.948782	-0.891630	0.433762	-0.129793	-0.384692	-0.876953	-0.288038
43618	8.752714	-1.743491	-1.129289	-0.131845	-0.756902	0.195606	-0.243398	-0.212710	0.946315	-0.890644	0.435356	-0.131221	-0.384072	-0.874768	-0.295413
43619	8.786770	-1.962648	-1.398197	-0.097852	-0.822374	0.185581	-0.248161	-0.219094	0.943618	-0.889814	0.436622	-0.132634	-0.382945	-0.872559	-0.303305
43620	8.775859	-2.180111	-1.700065	-0.019220	-0.866287	0.173471	-0.252995	-0.225921	0.940719	-0.889299	0.437202	-0.134169	-0.380973	-0.870525	-0.311522
43621	8.836638	-2.063457	-2.312080	0.081840	-0.895076	0.163747	-0.257805	-0.232999	0.937682	-0.889194	0.436876	-0.135918	-0.377982	-0.868822	-0.319810
43622	8.737050	-1.755005	-2.999246	0.125448	-0.903215	0.158305	-0.262595	-0.240181	0.934536	-0.889248	0.436187	-0.137767	-0.374543	-0.867211	-0.328121
43623	8.679183	-1.452797	-3.544178	0.109892	-0.894220	0.156435	-0.267277	-0.247255	0.931358	-0.889246	0.435625	-0.139544	-0.371220	-0.865503	-0.336303
43624	8.730944	-1.131464	-4.132221	0.091551	-0.880168	0.165597	-0.271987	-0.254177	0.928126	-0.889132	0.435273	-0.141356	-0.368059	-0.863673	-0.344386
43625	8.425611	-1.156768	-4.468373	0.030844	-0.845602	0.168063	-0.276540	-0.260748	0.924952	-0.888788	0.435448	-0.142973	-0.365488	-0.861624	-0.352169
43626	8.364388	-1.494222	-4.341151	-0.032424	-0.828362	0.161790	-0.280981	-0.267205	0.921765	-0.888213	0.436179	-0.144312	-0.363493	-0.859273	-0.359893
43627	8.537054	-1.941970	-3.990355	-0.040171	-0.813103	0.145598	-0.285179	-0.273555	0.918608	-0.887659	0.436925	-0.145458	-0.361572	-0.856892	-0.367426
43628	8.880788	-2.326155	-3.626907	0.011753	-0.808672	0.124409	-0.289183	-0.279967	0.915419	-0.887339	0.437193	-0.146604	-0.359171	-0.854682	-0.374854
43629	9.302554	-2.178342	-3.256782	0.097567	-0.816519	0.101016	-0.292956	-0.286505	0.912190	-0.887398	0.436653	-0.147848	-0.355951	-0.852789	-0.382164
43630	9.135072	-1.476101	-2.807221	0.120879	-0.846746	0.086786	-0.296712	-0.293373	0.908787	-0.887565	0.435898	-0.149067	-0.352407	-0.850838	-0.389724
43631	9.719384	-1.720358	-2.544385	0.039091	-0.925942	0.072218	-0.300559	-0.300933	0.905043	-0.887492	0.435787	-0.149828	-0.349318	-0.848251	-0.398055
43632	10.083177	-0.568200	-2.396691	0.150434	-0.977436	0.091991	-0.304754	-0.308844	0.900966	-0.887731	0.434814	-0.151227	-0.345048	-0.845903	-0.406682
43633	10.187160	0.206014	-2.420999	0.047651	-1.048429	0.120073	-0.309376	-0.317183	0.896483	-0.887532	0.434793	-0.152454	-0.341429	-0.842822	-0.416025
43634	10.100684	0.432782	-2.247437	-0.113480	-1.139085	0.140086	-0.314476	-0.326180	0.891466	-0.886706	0.436218	-0.153189	-0.338906	-0.838642	-0.426406
43635	10.366941	-0.066687	-2.127039	-0.204521	-1.267698	0.130315	-0.319871	-0.336218	0.885799	-0.885608	0.438364	-0.153415	-0.336721	-0.833543	-0.437978
43636	10.538419	-0.325391	-1.762991	-0.220973	-1.379902	0.125837	-0.325593	-0.347156	0.879472	-0.884459	0.440647	-0.153501	-0.334248	-0.827836	-0.450517
43637	10.415306	-0.706784	-1.084019	-0.263057	-1.482741	0.132599	-0.331660	-0.358807	0.872502	-0.883154	0.443287	-0.153412	-0.331724	-0.821434	-0.463903
43638	10.365030	-0.803688	-0.440358	-0.246443	-1.621343	0.172876	-0.338512	-0.371325	0.864597	-0.881762	0.445948	-0.153708	-0.328489	-0.814401	-0.478379
43639	10.641970	-0.853273	-0.007095	-0.286608	-1.763004	0.216641	-0.346139	-0.384653	0.855704	-0.880091	0.449092	-0.154130	-0.325003	-0.806448	-0.493978
43640	10.892516	-1.736583	0.203854	-0.460286	-1.927930	0.244013	-0.354494	-0.399027	0.845642	-0.877750	0.453746	-0.153848	-0.322318	-0.796801	-0.511097
43641	11.767379	-2.093510	0.301102	-0.404564	-2.109530	0.234201	-0.363263	-0.414669	0.834320	-0.875622	0.457902	-0.153662	-0.318318	-0.786368	-0.529432
43642	12.604557	-1.519200	-0.423649	-0.364938	-2.271171	0.229835	-0.372410	-0.431359	0.821730	-0.873631	0.461726	-0.153553	-0.313177	-0.775073	-0.548800
43643	13.460852	-0.796141	-1.221267	-0.315014	-2.370920	0.228525	-0.381716	-0.448547	0.808145	-0.871802	0.465152	-0.153608	-0.307010	-0.763177	-0.568600
43644	13.431558	0.737936	-1.545267	-0.298297	-2.436765	0.234439	-0.391116	-0.465907	0.793700	-0.870000	0.468478	-0.153715	-0.300214	-0.750639	-0.588569
43645	12.939889	1.370162	-2.174839	-0.395553	-2.541277	0.247904	-0.400774	-0.483652	0.778113	-0.867854	0.472593	-0.153247	-0.293613	-0.736707	-0.609143
43646	12.500907	1.251189	-2.525994	-0.581211	-2.661511	0.267083	-0.410779	-0.501786	0.761230	-0.865095	0.478135	-0.151651	-0.287875	-0.720831	-0.630500
43647	12.072706	0.620579	-3.552276	-0.836963	-2.650130	0.271247	-0.420660	-0.519363	0.743846	-0.861585	0.485474	-0.148279	-0.284107	-0.703262	-0.651695
43648	11.009481	0.089392	-4.241768	-0.999321	-2.626226	0.267301	-0.430331	-0.536283	0.726096	-0.857638	0.493805	-0.143575	-0.281553	-0.684513	-0.672436
43649	10.134008	-1.113738	-5.586422	-1.138207	-2.550944	0.274424	-0.439804	-0.552141	0.708316	-0.853259	0.502970	-0.137730	-0.280216	-0.664952	-0.692328
43650	9.644168	-2.416078	-7.151696	-1.074013	-2.437523	0.265764	-0.448819	-0.566774	0.690889	-0.849097	0.511479	-0.132001	-0.278560	-0.645876	-0.710808
43651	9.282463	-2.856342	-8.099628	-0.904709	-2.396442	0.221347	-0.457293	-0.580907	0.673372	-0.845601	0.518499	-0.126955	-0.275393	-0.627460	-0.728322
43652	8.946155	-3.215957	-8.879247	-0.654328	-2.445686	0.110047	-0.464831	-0.595468	0.655248	-0.843331	0.523172	-0.122815	-0.269676	-0.609679	-0.745363
43653	9.150712	-3.565024	-8.474896	-0.287457	-2.492232	-0.045501	-0.471014	-0.610711	0.636536	-0.842796	0.524614	-0.120310	-0.260461	-0.593138	-0.761805
43654	9.043322	-2.861618	-7.045733	0.085539	-2.436165	-0.171555	-0.475707	-0.625887	0.618036	-0.843848	0.523027	-0.119845	-0.248240	-0.578539	-0.776962
43655	8.892231	-2.313746	-6.655143	0.368049	-2.220122	-0.242783	-0.478976	-0.639878	0.600947	-0.845911	0.519369	-0.121205	-0.234556	-0.566402	-0.790045
43656	7.983148	-1.907636	-6.412225	0.654478	-1.939685	-0.255535	-0.481159	-0.652101	0.585876	-0.848648	0.514012	-0.124851	-0.219731	-0.557276	-0.800726
43657	6.762961	-1.473280	-6.342740	0.814953	-1.645570	-0.266514	-0.482348	-0.662594	0.572983	-0.851679	0.507729	-0.129824	-0.204899	-0.550618	-0.809219
43658	5.981483	-0.419329	-6.496816	0.832796	-1.349970	-0.285887	-0.482524	-0.671440	0.562440	-0.854734	0.501224	-0.134925	-0.191314	-0.545841	-0.815755
43659	5.236316	0.868103	-7.194522	0.679155	-1.070023	-0.284170	-0.482041	-0.678692	0.554088	-0.857383	0.495595	-0.138854	-0.180364	-0.541999	-0.820796
43660	3.779380	0.366510	-8.861187	0.305712	-0.938694	-0.235720	-0.481617	-0.684925	0.546739	-0.859086	0.492305	-0.140028	-0.173253	-0.537135	-0.825511
43661	4.756941	0.865452	-6.816449	-0.009682	-0.716992	-0.217569	-0.480938	-0.689842	0.541125	-0.860133	0.490843	-0.138723	-0.169911	-0.532156	-0.829421
43662	6.449145	1.772172	-4.317514	-0.431119	-0.287736	-0.267408	-0.479070	-0.692685	0.539147	-0.860705	0.491248	-0.133650	-0.172277	-0.528074	-0.831540
43663	7.022212	0.466084	-4.830415	-0.673584	0.182787	-0.334058	-0.475833	-0.693380	0.541116	-0.861134	0.492465	-0.126203	-0.178974	-0.526025	-0.831424
43664	6.678360	-1.343653	-5.897433	-0.474502	0.622848	-0.410865	-0.471092	-0.692123	0.546843	-0.862239	0.492087	-0.119979	-0.186054	-0.528031	-0.828594
43665	6.205541	-2.159567	-6.494879	0.056175	0.993994	-0.533975	-0.464571	-0.689471	0.555701	-0.864859	0.488081	-0.117457	-0.190244	-0.535170	-0.823043
43666	6.147698	-2.473182	-7.287465	0.611630	1.333151	-0.693591	-0.455950	-0.685613	0.567490	-0.869243	0.479968	-0.118520	-0.191119	-0.547326	-0.814806
43667	6.282121	-2.373367	-7.126581	1.059859	1.671572	-0.844291	-0.445365	-0.680343	0.582051	-0.875080	0.468296	-0.122202	-0.189433	-0.563765	-0.803918
43668	6.552913	-2.460372	-7.063449	1.419709	2.005551	-0.928461	-0.433379	-0.673112	0.599252	-0.881849	0.453832	-0.127984	-0.185812	-0.583915	-0.790264
43669	6.507123	-2.469129	-6.789605	1.772903	2.327444	-0.997817	-0.420243	-0.663703	0.618785	-0.889366	0.436585	-0.135728	-0.180069	-0.607365	-0.773746
43670	6.565584	-1.920594	-6.601545	2.003207	2.587084	-1.086934	-0.405897	-0.652288	0.640131	-0.897416	0.416974	-0.144144	-0.172894	-0.632971	-0.754622
43671	6.868018	-0.462014	-6.281855	1.897401	2.798514	-1.175218	-0.390506	-0.639006	0.662704	-0.905334	0.397116	-0.150563	-0.166959	-0.658765	-0.733590
43672	7.331628	1.279212	-5.752946	1.327422	2.982493	-1.274884	-0.373876	-0.623940	0.686233	-0.912443	0.380126	-0.151501	-0.166328	-0.682791	-0.711430
43673	7.143839	1.141294	-6.975664	0.477707	3.094319	-1.295023	-0.356726	-0.607346	0.709843	-0.917997	0.368830	-0.145760	-0.173285	-0.703630	-0.689113
43674	7.768420	-1.934691	-8.019300	-0.117955	2.979296	-1.184148	-0.340423	-0.590435	0.731778	-0.921935	0.362548	-0.136362	-0.184792	-0.721073	-0.667762
43675	10.563549	0.986574	-4.701334	-0.332154	3.105914	-1.124170	-0.324050	-0.571835	0.753656	-0.925044	0.358429	-0.125785	-0.198204	-0.737925	-0.645121
43676	9.332964	0.570359	-6.044733	-1.026757	3.171380	-1.094673	-0.307241	-0.552117	0.775094	-0.926383	0.359899	-0.110846	-0.217756	-0.752090	-0.622047
43677	8.126546	-1.048229	-7.066960	-1.241784	3.179450	-0.989413	-0.290772	-0.531587	0.795529	-0.926515	0.363950	-0.095450	-0.238793	-0.764823	-0.598350
43678	8.328346	-0.089369	-6.044901	-1.357891	3.230306	-0.874814	-0.274524	-0.509874	0.815270	-0.925613	0.369838	-0.080380	-0.260534	-0.776690	-0.573475
43679	8.394823	-0.310182	-6.309344	-1.490122	3.297015	-0.759396	-0.258495	-0.486930	0.834314	-0.923591	0.377705	-0.065716	-0.283125	-0.787552	-0.547359
43680	7.981232	-0.591371	-6.384264	-1.454743	3.338838	-0.612260	-0.242948	-0.462775	0.852535	-0.920861	0.386311	-0.052720	-0.304946	-0.797874	-0.520005
43681	7.754007	-0.509733	-6.136339	-1.379196	3.387035	-0.462345	-0.227974	-0.437395	0.869893	-0.917604	0.395302	-0.041713	-0.325625	-0.807726	-0.491474
43682	7.588428	-0.435935	-5.753830	-1.308427	3.516294	-0.330332	-0.213068	-0.410117	0.886795	-0.913951	0.404521	-0.032514	-0.345393	-0.817415	-0.461017
43683	7.393729	-0.258960	-5.468566	-1.230390	3.651967	-0.219716	-0.198063	-0.380997	0.903113	-0.910038	0.413769	-0.025024	-0.364146	-0.826823	-0.428673
43684	7.060900	-0.440420	-5.768155	-1.188113	3.762672	-0.115043	-0.182896	-0.350175	0.918655	-0.905829	0.423216	-0.019020	-0.382129	-0.835623	-0.394603
43685	7.182819	-0.927508	-5.902047	-1.116718	3.856415	-0.015078	-0.167652	-0.317862	0.933197	-0.901492	0.432548	-0.014623	-0.399004	-0.843721	-0.359068
43686	7.697717	-1.022551	-5.694367	-1.053095	3.987461	0.048411	-0.151781	-0.283835	0.946784	-0.897132	0.441614	-0.011431	-0.414869	-0.851126	-0.321666
43687	7.953129	-1.039551	-5.594652	-1.029112	4.105944	0.080865	-0.135114	-0.248401	0.959188	-0.892665	0.450630	-0.009044	-0.429992	-0.857455	-0.282625
43688	8.100771	-1.299371	-5.945014	-1.011810	4.194203	0.095764	-0.117555	-0.211872	0.970201	-0.888121	0.459553	-0.007252	-0.444322	-0.862509	-0.242191
43689	8.372006	-1.452385	-6.755227	-0.987465	4.299652	0.064429	-0.098686	-0.174412	0.979715	-0.883591	0.468225	-0.005649	-0.457742	-0.866225	-0.200317
43690	8.750423	-1.343174	-6.715198	-1.012052	4.377199	0.015907	-0.078438	-0.136357	0.987550	-0.878877	0.477033	-0.003940	-0.470556	-0.868243	-0.157259
43691	8.939306	-1.677159	-6.439993	-1.146069	4.413609	-0.050711	-0.056890	-0.098292	0.993530	-0.873435	0.486938	-0.001839	-0.483607	-0.867888	-0.113554
43692	9.051540	-2.085223	-5.909995	-1.212156	4.390594	-0.109292	-0.034364	-0.060766	0.997560	-0.867539	0.497369	0.000412	-0.496180	-0.865409	-0.069809
43693	11.030932	-2.333656	-0.420679	-1.275204	4.344830	-0.068549	-0.011905	-0.023615	0.999650	-0.861140	0.508365	0.001754	-0.508229	-0.860818	-0.026388
43694	10.287238	-3.419642	-1.741505	-1.133791	3.795790	-0.138081	0.008816	0.008254	0.999927	-0.855315	0.518098	0.003264	-0.518034	-0.855281	0.011627
43695	10.369249	-4.678353	-5.150101	-0.267396	3.041724	-0.314642	0.027333	0.032594	0.999095	-0.853858	0.520467	0.006380	-0.519788	-0.853259	0.042057
43696	8.183291	-3.076356	-3.072876	0.264813	2.115381	-0.486535	0.042500	0.048125	0.997937	-0.855050	0.518419	0.011415	-0.516800	-0.853771	0.063183
43697	5.383782	-4.660488	-3.571025	0.792747	1.213844	-0.350423	0.051775	0.056693	0.997048	-0.858940	0.511842	0.015500	-0.509453	-0.857207	0.075196
43698	5.091965	-3.661656	-4.478699	1.667924	0.340024	-0.124102	0.054591	0.058996	0.996764	-0.867239	0.497565	0.018048	-0.494891	-0.865418	0.078326
43699	6.185090	-2.898685	-3.903194	2.341174	-0.422339	0.087857	0.051820	0.055734	0.997100	-0.878623	0.477139	0.018993	-0.474696	-0.877059	0.073695
43700	5.576858	-3.601547	-5.110221	2.702281	-1.236719	0.226884	0.044114	0.045859	0.997973	-0.891235	0.453161	0.018572	-0.451391	-0.890248	0.060862
43701	6.591680	-3.014353	-7.270265	2.968060	-2.014688	0.343191	0.032242	0.029284	0.999051	-0.904370	0.426423	0.016687	-0.425530	-0.904050	0.040232
43702	11.916211	1.189009	-5.539219	2.931638	-2.144071	0.467108	0.019164	0.011688	0.999748	-0.916574	0.399657	0.012897	-0.399405	-0.916590	0.018372
43703	11.449560	8.970922	-3.930205	2.337047	-1.879056	0.448335	0.007772	-0.003885	0.999962	-0.925712	0.378130	0.008664	-0.378149	-0.925744	-0.000657
43704	9.864206	10.837952	-4.780398	0.837214	-1.831370	0.409874	-0.002860	-0.019347	0.999809	-0.928846	0.370437	0.004511	-0.370454	-0.928656	-0.019029
43705	9.869878	3.527461	-5.116208	-0.744757	-1.723629	0.539538	-0.014263	-0.033313	0.999343	-0.926008	0.377503	-0.000632	-0.377234	-0.925409	-0.036233
43706	9.699295	-1.652878	-7.314464	-0.900422	-1.658644	0.756939	-0.027551	-0.045766	0.998572	-0.922406	0.386143	-0.007752	-0.385237	-0.921303	-0.052853
43707	10.266508	-0.125828	-9.074833	-0.357990	-1.713260	0.801251	-0.041514	-0.058428	0.997428	-0.920738	0.389873	-0.015484	-0.387966	-0.919013	-0.069982
43708	11.207136	2.735054	-6.391027	-0.308844	-1.631249	0.753907	-0.054771	-0.070488	0.996008	-0.919162	0.393223	-0.022716	-0.390052	-0.916737	-0.086327
43709	10.999269	1.621501	-4.507368	-0.632931	-1.416335	0.729822	-0.066984	-0.080560	0.994497	-0.916227	0.399583	-0.029344	-0.395020	-0.913150	-0.100576
43710	10.077803	-2.333550	-4.017644	-0.457731	-1.276183	0.727524	-0.078678	-0.089317	0.992891	-0.913869	0.404406	-0.036037	-0.398312	-0.910208	-0.113442
43711	10.222781	-3.856646	-3.379338	0.110371	-1.164750	0.660117	-0.089294	-0.097253	0.991246	-0.913748	0.404034	-0.042672	-0.396347	-0.909560	-0.124943
43712	9.778256	-2.529107	-2.881652	0.263823	-1.043556	0.597135	-0.098851	-0.104386	0.989612	-0.914216	0.402268	-0.048887	-0.392986	-0.909551	-0.135196
43713	9.011270	-1.941968	-2.276098	-0.156256	-1.031382	0.545530	-0.107846	-0.111565	0.987888	-0.913033	0.404293	-0.054016	-0.393370	-0.907800	-0.145464
43714	9.400087	-2.504379	-1.861586	-0.351474	-1.031186	0.476051	-0.116239	-0.119028	0.986063	-0.911102	0.408059	-0.058146	-0.395451	-0.905163	-0.155879
43715	9.771674	-2.737287	-1.875721	-0.193167	-0.993713	0.411742	-0.123877	-0.126335	0.984223	-0.909839	0.410326	-0.061845	-0.396039	-0.903146	-0.165774
43716	9.915883	-2.004304	-1.879584	0.149402	-0.948628	0.368182	-0.130960	-0.133438	0.982366	-0.909949	0.409486	-0.065684	-0.393501	-0.902505	-0.175048
43717	9.748782	-0.737901	-1.960626	0.362860	-0.913863	0.357485	-0.137746	-0.140235	0.980490	-0.910885	0.406714	-0.069797	-0.388991	-0.902728	-0.183761
43718	9.619208	0.218569	-2.311625	0.358297	-0.905112	0.379214	-0.144691	-0.146916	0.978509	-0.911725	0.404054	-0.074150	-0.384477	-0.902860	-0.192410
43719	9.688300	0.499809	-2.663598	0.194954	-0.885955	0.400580	-0.151692	-0.153303	0.976467	-0.911875	0.402910	-0.078403	-0.381409	-0.902309	-0.200911
43720	9.644124	0.030033	-2.997008	0.009984	-0.869139	0.425198	-0.158865	-0.159473	0.974336	-0.911243	0.403515	-0.082533	-0.379998	-0.900968	-0.209423
43721	9.718554	-0.688680	-3.274514	-0.098352	-0.833750	0.431931	-0.165921	-0.165237	0.972197	-0.910167	0.405115	-0.086480	-0.379562	-0.899210	-0.217611
43722	9.702530	-1.231629	-3.612790	-0.156258	-0.782618	0.421234	-0.172711	-0.170606	0.970085	-0.908850	0.407257	-0.090186	-0.379687	-0.897238	-0.225393
43723	9.694860	-1.683380	-3.816740	-0.172664	-0.724853	0.400467	-0.179058	-0.175474	0.968064	-0.907489	0.409510	-0.093625	-0.380003	-0.895271	-0.232566
43724	9.485405	-1.741658	-3.787188	-0.174173	-0.662514	0.372018	-0.184940	-0.179922	0.966139	-0.906139	0.411760	-0.096774	-0.380406	-0.893354	-0.239185
43725	9.444114	-1.531331	-3.379507	-0.217909	-0.619195	0.352452	-0.190446	-0.183999	0.964300	-0.904648	0.414358	-0.099601	-0.381239	-0.891320	-0.245367
43726	9.544161	-1.450558	-3.014142	-0.263814	-0.593911	0.334141	-0.195726	-0.187948	0.962480	-0.902985	0.417360	-0.102127	-0.382505	-0.889093	-0.251402
43727	9.648379	-1.628202	-2.996651	-0.245463	-0.585407	0.319878	-0.200810	-0.191815	0.960668	-0.901410	0.420158	-0.104531	-0.383582	-0.886947	-0.257276
43728	9.675060	-1.402451	-2.921803	-0.174260	-0.567841	0.291060	-0.205604	-0.195672	0.958874	-0.900139	0.422298	-0.106835	-0.384026	-0.885086	-0.262958
43729	9.692700	-1.259026	-2.788637	-0.164609	-0.556495	0.272862	-0.210154	-0.199445	0.957109	-0.898940	0.424303	-0.108964	-0.384372	-0.883283	-0.268458
43730	9.572144	-1.215450	-2.791884	-0.152870	-0.555609	0.260032	-0.214619	-0.203294	0.955306	-0.897790	0.426207	-0.110999	-0.384593	-0.881487	-0.273988
43731	9.556488	-1.062798	-2.727726	-0.167005	-0.550032	0.260576	-0.219030	-0.207032	0.953501	-0.896583	0.428223	-0.112976	-0.384921	-0.879638	-0.279415
43732	9.587188	-1.142061	-2.806967	-0.207567	-0.543445	0.255427	-0.223406	-0.210762	0.951667	-0.895209	0.430611	-0.114786	-0.385605	-0.877584	-0.284877
43733	9.616771	-1.037361	-2.636554	-0.230622	-0.548369	0.239413	-0.227621	-0.214543	0.949821	-0.893780	0.433152	-0.116352	-0.386454	-0.875415	-0.290348
43734	9.692765	-1.062532	-2.405993	-0.249463	-0.555035	0.230373	-0.231819	-0.218446	0.947914	-0.892275	0.435861	-0.117768	-0.387433	-0.873102	-0.295955
43735	9.628964	-1.139459	-2.274313	-0.221967	-0.577486	0.217466	-0.235954	-0.222539	0.945940	-0.890908	0.438286	-0.119117	-0.388084	-0.870851	-0.301677
43736	9.414601	-1.342120	-2.398938	-0.196158	-0.603438	0.203266	-0.240099	-0.226945	0.943848	-0.889653	0.440478	-0.120401	-0.388420	-0.868605	-0.307660
43737	9.246067	-1.531523	-2.464779	-0.176297	-0.631271	0.185989	-0.244161	-0.231609	0.941670	-0.888520	0.442444	-0.121559	-0.388482	-0.866372	-0.313817
43738	9.276686	-1.357763	-2.460034	-0.114520	-0.649763	0.175740	-0.248237	-0.236502	0.939386	-0.887634	0.443874	-0.122810	-0.387924	-0.864316	-0.320113
43739	9.177717	-1.184051	-2.439354	-0.126064	-0.669034	0.171222	-0.252307	-0.241525	0.937020	-0.886719	0.445380	-0.123962	-0.387391	-0.862150	-0.326537
43740	9.067929	-1.180966	-2.368443	-0.158407	-0.701520	0.170815	-0.256528	-0.246850	0.934483	-0.885662	0.447188	-0.124999	-0.387034	-0.859702	-0.333342
43741	9.034729	-1.443215	-2.430028	-0.154418	-0.743175	0.162452	-0.260798	-0.252511	0.931785	-0.884648	0.448928	-0.125946	-0.386501	-0.857148	-0.340463
43742	8.992385	-1.524973	-2.428508	-0.138351	-0.782975	0.158797	-0.265216	-0.258544	0.928878	-0.883688	0.450543	-0.126909	-0.385688	-0.854497	-0.347964
43743	8.873618	-1.742048	-2.411162	-0.122191	-0.813491	0.152532	-0.269654	-0.264806	0.925832	-0.882813	0.451993	-0.127846	-0.384615	-0.851810	-0.355655
43744	8.866096	-1.783034	-2.422332	-0.093433	-0.857466	0.143683	-0.274204	-0.271493	0.922553	-0.882056	0.453197	-0.128799	-0.383130	-0.849061	-0.363740
43745	8.888627	-1.763923	-2.296353	-0.081000	-0.903243	0.145518	-0.278897	-0.278498	0.919051	-0.881348	0.454291	-0.129793	-0.381369	-0.846203	-0.372154
43746	9.004236	-1.703576	-2.087330	-0.110706	-0.966648	0.139027	-0.283791	-0.286072	0.915219	-0.880529	0.455641	-0.130614	-0.379646	-0.842944	-0.381202
43747	9.563256	-1.745945	-2.062775	-0.035494	-1.042881	0.123547	-0.288782	-0.294293	0.911042	-0.880045	0.456304	-0.131557	-0.376996	-0.839749	-0.390763
43748	9.817631	-0.285090	-2.075300	0.093084	-1.108564	0.140274	-0.294163	-0.302986	0.906459	-0.879980	0.455963	-0.133163	-0.372965	-0.836838	-0.400749
43749	9.809498	0.208047	-1.919023	-0.057696	-1.174832	0.166479	-0.299949	-0.312045	0.901476	-0.879276	0.456962	-0.134386	-0.370006	-0.832955	-0.411439
43750	9.708395	-0.102913	-1.775076	-0.157422	-1.284223	0.184228	-0.306290	-0.321905	0.895859	-0.878133	0.458872	-0.135345	-0.367516	-0.828139	-0.423223
43751	10.038362	-0.243023	-1.805980	-0.113792	-1.405799	0.188893	-0.313049	-0.332652	0.889575	-0.877137	0.460434	-0.136495	-0.364185	-0.823009	-0.435920
43752	10.063947	0.273771	-1.563610	-0.095409	-1.500632	0.202806	-0.320245	-0.344061	0.882647	-0.876148	0.461919	-0.137828	-0.360290	-0.817468	-0.449375
43753	9.837140	0.498964	-1.221415	-0.131686	-1.605579	0.247794	-0.328124	-0.355999	0.874985	-0.874879	0.463861	-0.139356	-0.356261	-0.811232	-0.463660
43754	9.488611	0.271371	-0.886569	-0.249108	-1.718371	0.293862	-0.336762	-0.368539	0.866470	-0.873019	0.466951	-0.140696	-0.352747	-0.803826	-0.478993
43755	9.207746	-0.409102	-0.447474	-0.365496	-1.860811	0.336617	-0.346189	-0.381848	0.856939	-0.870592	0.471138	-0.141768	-0.349602	-0.795123	-0.495537
43756	9.532147	-1.434034	-0.154002	-0.446548	-2.035977	0.357919	-0.356357	-0.396267	0.846157	-0.867784	0.476068	-0.142516	-0.346354	-0.785068	-0.513524
43757	10.944569	-2.780643	0.105636	-0.450327	-2.220451	0.332735	-0.366844	-0.411995	0.834077	-0.865038	0.480923	-0.142908	-0.342250	-0.773933	-0.532815
43758	12.887426	-1.785347	0.443729	-0.205875	-2.374901	0.307753	-0.377517	-0.428782	0.820748	-0.863200	0.483803	-0.144291	-0.335211	-0.762942	-0.552768
43759	14.149933	-0.354849	0.515157	-0.093527	-2.502913	0.339666	-0.388686	-0.446101	0.806175	-0.861599	0.485995	-0.146480	-0.326452	-0.751534	-0.573259
43760	14.153669	0.622540	0.449350	-0.123894	-2.635631	0.377588	-0.400378	-0.463915	0.790240	-0.859720	0.488634	-0.148725	-0.317142	-0.738931	-0.594476
43761	14.737107	1.531346	0.153054	-0.157186	-2.800223	0.419791	-0.412683	-0.482367	0.772667	-0.857533	0.491767	-0.151007	-0.307132	-0.724906	-0.616589
43762	14.364067	2.644380	-0.224492	-0.272822	-2.941196	0.463975	-0.425493	-0.501170	0.753514	-0.854778	0.495995	-0.152784	-0.297169	-0.709096	-0.639432
43763	13.803767	2.106523	-0.942110	-0.556788	-3.086554	0.506479	-0.438814	-0.520257	0.732650	-0.850971	0.502472	-0.152874	-0.288602	-0.690547	-0.663215
43764	12.917293	1.444277	-2.279492	-0.887204	-3.097095	0.558997	-0.452339	-0.538489	0.710929	-0.845966	0.511450	-0.150863	-0.282367	-0.669663	-0.686892
43765	12.162241	-0.601255	-4.792307	-1.191616	-3.051725	0.583196	-0.465773	-0.555577	0.688759	-0.839961	0.522476	-0.146576	-0.278426	-0.646802	-0.710019
43766	11.235769	-1.869249	-6.942889	-1.216429	-3.027419	0.554336	-0.478715	-0.571878	0.666174	-0.834004	0.533306	-0.141500	-0.274354	-0.623330	-0.732250
43767	10.876028	-2.456720	-8.837929	-1.106052	-3.101891	0.455525	-0.490884	-0.588408	0.642502	-0.828807	0.542700	-0.136216	-0.268536	-0.599377	-0.754080
43768	10.880786	-2.849776	-8.935869	-0.885347	-3.138649	0.327008	-0.501821	-0.605066	0.618119	-0.824868	0.549830	-0.131452	-0.260324	-0.575832	-0.775016
43769	10.712258	-2.869677	-8.595294	-0.740296	-3.000193	0.164530	-0.510812	-0.621114	0.594381	-0.822157	0.555005	-0.126597	-0.251253	-0.553342	-0.794157
43770	10.163740	-2.988448	-7.931317	-0.484602	-2.767104	0.033539	-0.517833	-0.635963	0.572190	-0.820819	0.557820	-0.122851	-0.241050	-0.533281	-0.810868
43771	9.206077	-3.165414	-7.553105	-0.220143	-2.368349	-0.038330	-0.523065	-0.648630	0.552886	-0.820517	0.558714	-0.120793	-0.230555	-0.516834	-0.824455
43772	7.588386	-2.721562	-7.443631	0.086148	-1.904462	-0.068429	-0.526725	-0.658741	0.537234	-0.821099	0.557794	-0.121086	-0.219901	-0.504902	-0.834696
43773	6.009030	-1.942542	-8.443464	0.331053	-1.445983	-0.082642	-0.529113	-0.666464	0.525228	-0.822265	0.555570	-0.123381	-0.209572	-0.497159	-0.841969
43774	4.212583	-1.513160	-10.753423	0.335506	-1.070269	-0.065289	-0.530707	-0.672119	0.516339	-0.823330	0.553439	-0.125829	-0.201190	-0.491896	-0.847090
43775	2.844345	-1.119579	-10.621134	0.299319	-0.892472	-0.042757	-0.532080	-0.676744	0.508830	-0.824167	0.551666	-0.128111	-0.194006	-0.487526	-0.851281
43776	4.254107	0.802208	-7.023285	0.020579	-0.548636	-0.148511	-0.531847	-0.680229	0.504407	-0.825027	0.550524	-0.127488	-0.190967	-0.483954	-0.854003
43777	5.439857	1.470020	-5.115581	-0.462587	-0.020250	-0.378860	-0.528721	-0.682430	0.504721	-0.826163	0.550157	-0.121584	-0.194704	-0.481266	-0.854678
43778	5.724398	-1.075644	-5.500536	-0.604943	0.557384	-0.596275	-0.522615	-0.683025	0.510246	-0.828125	0.548965	-0.113344	-0.202690	-0.481783	-0.852527
43779	5.126255	-3.001875	-5.993610	-0.056629	1.099429	-0.759878	-0.514006	-0.681859	0.520448	-0.831964	0.544036	-0.108906	-0.208884	-0.488972	-0.846920
43780	3.939349	-4.511745	-7.495351	0.825561	1.560363	-0.936285	-0.502850	-0.679155	0.534688	-0.838483	0.533530	-0.110871	-0.209973	-0.504078	-0.837745
43781	3.547198	-4.170364	-8.189614	1.792071	1.929086	-1.149559	-0.489120	-0.675265	0.552068	-0.847915	0.516492	-0.119484	-0.204455	-0.526548	-0.825194
43782	3.662330	-3.025062	-8.034788	2.439693	2.296329	-1.351305	-0.472933	-0.669677	0.572597	-0.859313	0.494182	-0.131777	-0.194719	-0.554362	-0.809177
43783	3.963317	-1.401653	-7.195824	2.737949	2.650233	-1.515715	-0.454764	-0.661885	0.595901	-0.871537	0.468471	-0.144771	-0.183340	-0.585187	-0.789901
43784	4.001635	-0.226906	-6.484737	2.665190	2.948352	-1.613775	-0.435278	-0.651499	0.621355	-0.883496	0.441819	-0.155662	-0.173112	-0.616721	-0.767911
43785	3.895756	0.996335	-6.455076	2.235666	3.200547	-1.671938	-0.414931	-0.638464	0.648225	-0.894420	0.416892	-0.161907	-0.166868	-0.646966	-0.744037
43786	3.631784	1.405475	-6.550726	1.476402	3.456217	-1.718174	-0.393629	-0.622591	0.676340	-0.903861	0.396267	-0.161271	-0.167606	-0.674798	-0.718718
43787	4.461509	0.910940	-6.698202	0.697002	3.647827	-1.733650	-0.371594	-0.604260	0.704832	-0.911703	0.380828	-0.154169	-0.175261	-0.699885	-0.692419
43788	4.637940	-0.426709	-8.915864	0.099197	3.776574	-1.742222	-0.348718	-0.583916	0.733102	-0.918179	0.369746	-0.142252	-0.187998	-0.722725	-0.665076
43789	5.719363	-3.447284	-9.493576	-0.256547	3.600771	-1.618242	-0.326743	-0.563465	0.758780	-0.923154	0.362332	-0.128461	-0.202547	-0.742444	-0.638554
43790	9.481395	0.679823	-4.863860	-0.336166	3.717856	-1.542853	-0.304587	-0.541025	0.783912	-0.927335	0.356320	-0.114395	-0.217432	-0.761792	-0.610242
43791	8.784570	0.560556	-6.777045	-1.193082	3.749781	-1.524640	-0.281821	-0.517611	0.807871	-0.929087	0.357426	-0.095100	-0.239529	-0.777384	-0.581636
43792	7.377188	-2.664507	-8.379135	-1.413260	3.669195	-1.428276	-0.259257	-0.493949	0.829940	-0.929415	0.361269	-0.075317	-0.262628	-0.790885	-0.552745
43793	8.066336	-2.598744	-7.226520	-1.237110	3.578410	-1.337193	-0.237020	-0.470276	0.850095	-0.929362	0.364682	-0.057377	-0.283032	-0.803646	-0.523494
43794	8.967622	-2.495273	-6.899491	-1.062596	3.508733	-1.288741	-0.214724	-0.446559	0.868607	-0.929179	0.367369	-0.040831	-0.300866	-0.815859	-0.493816
43795	8.395283	-2.782741	-6.796675	-0.728051	3.407974	-1.193240	-0.193102	-0.422939	0.885344	-0.929373	0.368165	-0.026829	-0.314605	-0.827996	-0.464162
43796	8.045923	-2.070176	-5.989478	-0.349924	3.318627	-1.074910	-0.172440	-0.399183	0.900510	-0.930225	0.366658	-0.015597	-0.323953	-0.840366	-0.434556
43797	8.050657	-1.470025	-5.399208	-0.083037	3.290455	-0.974428	-0.152563	-0.374888	0.914431	-0.931537	0.363591	-0.006356	-0.330096	-0.852796	-0.404692
43798	7.825666	-1.157663	-5.605256	0.138516	3.271084	-0.880598	-0.133431	-0.349950	0.927217	-0.933257	0.359206	0.001271	-0.333507	-0.865163	-0.374522
43799	7.863478	-0.654077	-5.351333	0.314867	3.243931	-0.777124	-0.115287	-0.324462	0.938847	-0.935274	0.353847	0.007439	-0.334622	-0.877221	-0.344255
43800	7.769236	0.029778	-5.155214	0.331797	3.253812	-0.669418	-0.098061	-0.298066	0.949495	-0.937098	0.348834	0.012725	-0.335009	-0.888522	-0.313524
43801	7.342763	0.341106	-5.198922	0.216799	3.303478	-0.549528	-0.081780	-0.270455	0.959253	-0.938316	0.345342	0.017372	-0.335968	-0.898662	-0.282014
43802	7.118522	0.350162	-5.369867	0.052113	3.336684	-0.425189	-0.066482	-0.241771	0.968053	-0.938804	0.343787	0.021387	-0.337974	-0.907391	-0.249831
43803	7.699673	0.000463	-5.492381	-0.107827	3.359443	-0.313167	-0.052092	-0.212244	0.975827	-0.938619	0.344068	0.024730	-0.341000	-0.914642	-0.217139
43804	8.440945	-0.324949	-4.925075	-0.289456	3.396442	-0.195212	-0.038546	-0.181743	0.982590	-0.937709	0.346349	0.027276	-0.345276	-0.920333	-0.183772
43805	8.508983	-0.707654	-4.447719	-0.532631	3.418905	-0.076511	-0.025874	-0.150480	0.988274	-0.935872	0.351148	0.028966	-0.351389	-0.924149	-0.149916
43806	8.420584	-0.476845	-4.176637	-0.777129	3.397064	0.034187	-0.014065	-0.118926	0.992804	-0.933097	0.358396	0.029712	-0.359351	-0.925964	-0.116010
43807	10.134007	1.952734	-1.536416	-1.086656	3.354318	0.083787	-0.002571	-0.087571	0.996155	-0.929120	0.368560	0.030002	-0.369770	-0.925470	-0.082311
43808	12.513864	1.738988	1.933974	-1.960135	2.941945	0.154983	0.007195	-0.059832	0.998183	-0.921689	0.386781	0.029828	-0.387863	-0.920228	-0.052364
43809	10.763596	-6.270905	-5.297477	-1.871302	1.784154	0.391111	0.010721	-0.041930	0.999063	-0.914297	0.404159	0.026774	-0.404903	-0.913727	-0.034004
43810	9.175591	-8.319419	-9.427010	-0.468636	0.651495	0.421911	0.009568	-0.034268	0.999367	-0.912423	0.408615	0.022747	-0.409136	-0.912063	-0.027358
43811	7.261400	-3.733703	-8.333980	0.501639	0.042670	0.323477	0.006831	-0.032571	0.999446	-0.914481	0.404162	0.019422	-0.404571	-0.914107	-0.027024
43812	5.795020	-1.851973	-7.672301	0.503751	-0.377626	0.337871	0.002250	-0.034679	0.999396	-0.916514	0.399685	0.015932	-0.399996	-0.915996	-0.030884
43813	4.902590	-2.239581	-7.863818	0.483175	-0.786808	0.481835	-0.005256	-0.039983	0.999187	-0.918420	0.395454	0.010993	-0.395572	-0.917615	-0.038800
43814	5.541319	-3.504373	-8.541847	0.704147	-1.286364	0.557183	-0.015406	-0.049636	0.998649	-0.921115	0.389256	0.005138	-0.388985	-0.919791	-0.051718
43815	6.744089	-3.360855	-9.836552	0.962826	-1.761815	0.495081	-0.026703	-0.063965	0.997595	-0.924704	0.380686	-0.000342	-0.379749	-0.922489	-0.069314
43816	9.157769	0.603462	-9.098048	1.030866	-1.930455	0.370592	-0.037361	-0.080438	0.996059	-0.928439	0.371455	-0.004827	-0.369603	-0.924960	-0.088560
43817	11.769353	6.428873	-5.583993	-0.119786	-1.540130	0.236715	-0.045210	-0.093794	0.994565	-0.927891	0.372785	-0.007023	-0.370100	-0.923165	-0.103885
43818	11.052081	2.473044	-5.029027	-0.652734	-1.236329	0.517323	-0.054603	-0.103287	0.993152	-0.925189	0.379335	-0.011416	-0.375558	-0.919477	-0.116272
43819	10.348133	-0.206951	-5.430633	-0.230868	-1.093346	0.645516	-0.064641	-0.110876	0.991730	-0.923930	0.382162	-0.017495	-0.377062	-0.917419	-0.127145
43820	11.210350	0.603380	-6.136018	0.079997	-0.967172	0.569867	-0.073537	-0.117623	0.990332	-0.923826	0.382108	-0.023215	-0.375683	-0.916602	-0.136762
43821	10.589022	0.876591	-5.987345	0.215970	-0.832480	0.571191	-0.081887	-0.123079	0.989013	-0.924186	0.380831	-0.029126	-0.373062	-0.916417	-0.144933
43822	9.681548	0.500710	-4.665711	0.277806	-0.712138	0.602545	-0.090095	-0.127379	0.987754	-0.924688	0.379070	-0.035458	-0.369911	-0.916559	-0.151938
43823	9.698859	-0.219098	-3.331334	0.279280	-0.624396	0.608789	-0.097981	-0.130806	0.986554	-0.925140	0.377311	-0.041855	-0.366763	-0.916802	-0.157983
43824	9.833921	-0.987136	-2.198003	0.192949	-0.568264	0.597825	-0.105583	-0.133829	0.985364	-0.925226	0.376365	-0.048023	-0.364430	-0.916755	-0.163560
43825	9.582287	-1.856751	-1.456096	-0.051505	-0.568949	0.581616	-0.112991	-0.136855	0.984126	-0.924399	0.377639	-0.053618	-0.364306	-0.915784	-0.169179
43826	9.455897	-2.455839	-1.308501	-0.219627	-0.595699	0.541834	-0.120165	-0.140318	0.982788	-0.922955	0.380431	-0.058533	-0.365670	-0.914102	-0.175221
43827	9.615330	-2.402084	-1.035932	-0.243054	-0.627977	0.502905	-0.127060	-0.144137	0.981367	-0.921440	0.383380	-0.062992	-0.367157	-0.912274	-0.181526
43828	9.707383	-2.187197	-1.137488	-0.228769	-0.646832	0.444428	-0.133529	-0.148385	0.979873	-0.920009	0.386147	-0.066896	-0.368449	-0.910424	-0.188078
43829	9.792255	-1.971545	-1.484194	-0.131920	-0.646607	0.387264	-0.139429	-0.152774	0.978376	-0.918991	0.387944	-0.070388	-0.368801	-0.908933	-0.194489
43830	9.590958	-1.205503	-1.697243	-0.030073	-0.639951	0.365600	-0.145146	-0.157229	0.976838	-0.918350	0.388814	-0.073873	-0.368193	-0.907801	-0.200826
43831	9.493931	-0.184812	-1.557809	-0.012395	-0.657464	0.371048	-0.150926	-0.161755	0.975221	-0.917753	0.389532	-0.077423	-0.367356	-0.906698	-0.207242
43832	9.546124	0.313638	-1.432236	-0.075383	-0.679024	0.391091	-0.157006	-0.166441	0.973471	-0.916864	0.390886	-0.081044	-0.367027	-0.905265	-0.213976
43833	9.525685	-0.346220	-1.483348	-0.210942	-0.713477	0.403177	-0.163278	-0.171318	0.971592	-0.915442	0.393488	-0.084459	-0.367840	-0.903226	-0.221079
43834	9.751156	-1.414953	-1.588567	-0.173031	-0.743952	0.392760	-0.169606	-0.176539	0.969571	-0.914142	0.395761	-0.087850	-0.368210	-0.901225	-0.228505
43835	9.700663	-1.777482	-1.874792	-0.057562	-0.748945	0.365860	-0.175660	-0.181839	0.967511	-0.913298	0.396948	-0.091213	-0.367465	-0.899648	-0.235801
43836	9.505966	-1.492437	-2.020389	-0.019289	-0.753635	0.345929	-0.181581	-0.187296	0.965375	-0.912600	0.397788	-0.094478	-0.366319	-0.898156	-0.243157
43837	9.416542	-1.363009	-2.170569	-0.098538	-0.762681	0.327342	-0.187315	-0.192841	0.963185	-0.911635	0.399306	-0.097344	-0.365834	-0.896307	-0.250597
43838	9.323680	-1.555857	-2.502133	-0.115593	-0.768655	0.314987	-0.192994	-0.198519	0.960908	-0.910605	0.400986	-0.100050	-0.365448	-0.894316	-0.258160
43839	9.164257	-1.625551	-2.757876	-0.082639	-0.765291	0.287031	-0.198357	-0.204209	0.958620	-0.909741	0.402313	-0.102541	-0.364726	-0.892436	-0.265580
43840	9.190953	-1.789656	-2.893778	-0.061440	-0.764955	0.262555	-0.203531	-0.210027	0.956276	-0.908981	0.403432	-0.104859	-0.363769	-0.890579	-0.273021
43841	9.320128	-1.836154	-3.007743	0.034230	-0.749022	0.240098	-0.208387	-0.215730	0.953958	-0.908612	0.403649	-0.107199	-0.361938	-0.889116	-0.280130
43842	9.447689	-1.552168	-3.209717	0.111470	-0.737301	0.220737	-0.213053	-0.221445	0.951615	-0.908540	0.403168	-0.109590	-0.359392	-0.887929	-0.287088
43843	9.383218	-0.987921	-3.238682	0.120633	-0.720263	0.215569	-0.217547	-0.226975	0.949292	-0.908510	0.402591	-0.111942	-0.356769	-0.886794	-0.293791
43844	9.379298	-0.820392	-3.046317	0.021870	-0.716025	0.219229	-0.222088	-0.232491	0.946903	-0.908097	0.402927	-0.114056	-0.355016	-0.885210	-0.300610
43845	9.631799	-0.973135	-2.952304	-0.027927	-0.717096	0.225546	-0.226633	-0.237929	0.944472	-0.907494	0.403714	-0.116057	-0.353684	-0.883405	-0.307415
43846	9.602114	-1.027805	-2.927099	-0.023337	-0.720626	0.223308	-0.231203	-0.243441	0.941956	-0.906893	0.404484	-0.118061	-0.352265	-0.881549	-0.314293
43847	9.437929	-0.961887	-2.879028	0.003494	-0.726985	0.223864	-0.235744	-0.248944	0.939389	-0.906385	0.405013	-0.120130	-0.350559	-0.879768	-0.321119
43848	9.339179	-1.111743	-2.966674	-0.014285	-0.740349	0.221010	-0.240336	-0.254608	0.936703	-0.905801	0.405721	-0.122127	-0.348946	-0.877818	-0.328134
43849	9.316231	-1.226513	-2.994670	0.001567	-0.753635	0.211796	-0.244834	-0.260364	0.933953	-0.905295	0.406261	-0.124065	-0.347126	-0.875878	-0.335172
43850	9.222164	-1.334201	-3.004809	-0.004738	-0.762323	0.211148	-0.249383	-0.266227	0.931091	-0.904750	0.406883	-0.125988	-0.345304	-0.873824	-0.342339
43851	9.097506	-1.542649	-3.058322	-0.017512	-0.776011	0.208482	-0.253898	-0.272158	0.928152	-0.904169	0.407605	-0.127817	-0.343533	-0.871658	-0.349567
43852	9.095134	-1.621939	-3.169858	-0.002439	-0.793829	0.200295	-0.258427	-0.278303	0.925074	-0.903641	0.408202	-0.129635	-0.341539	-0.869436	-0.356977
43853	9.131141	-1.545480	-3.345620	0.014117	-0.797048	0.191381	-0.262827	-0.284450	0.921960	-0.903194	0.408625	-0.131405	-0.339358	-0.867245	-0.364311
43854	8.896038	-1.344418	-3.267057	-0.018909	-0.804641	0.186341	-0.267231	-0.290707	0.918737	-0.902630	0.409347	-0.133020	-0.337412	-0.864826	-0.371791
43855	8.852080	-1.461310	-3.268762	-0.043199	-0.815251	0.184797	-0.271599	-0.296997	0.915438	-0.901990	0.410270	-0.134505	-0.335629	-0.862248	-0.379318
43856	8.816253	-1.563783	-3.141462	-0.052411	-0.842121	0.177549	-0.276018	-0.303567	0.911955	-0.901323	0.411277	-0.135896	-0.333812	-0.859476	-0.387132
43857	8.885570	-1.781595	-3.003230	-0.079774	-0.868937	0.170459	-0.280404	-0.310328	0.908334	-0.900588	0.412490	-0.137088	-0.332137	-0.856475	-0.395141
43858	8.890038	-2.173098	-2.906846	-0.093519	-0.919671	0.147990	-0.284782	-0.317626	0.904441	-0.899855	0.413775	-0.138026	-0.330394	-0.853173	-0.403653
43859	9.422590	-1.936335	-3.146294	0.060259	-0.970554	0.134236	-0.289137	-0.325345	0.900306	-0.899673	0.413699	-0.139435	-0.327091	-0.850297	-0.412320
43860	9.563004	-0.519967	-3.309206	0.120434	-0.998252	0.153329	-0.293761	-0.333230	0.895914	-0.899613	0.413200	-0.141286	-0.323111	-0.847480	-0.421160
43861	9.672262	0.103351	-3.291138	-0.018852	-1.045935	0.175076	-0.298657	-0.341359	0.891223	-0.899039	0.413955	-0.142722	-0.320206	-0.843869	-0.430526
43862	9.878452	0.233002	-3.220192	-0.117268	-1.123497	0.168990	-0.303756	-0.350159	0.886071	-0.898153	0.415544	-0.143682	-0.317890	-0.839471	-0.440720
43863	10.081708	0.160813	-3.108151	-0.134898	-1.193628	0.165503	-0.308979	-0.359469	0.880519	-0.897225	0.417264	-0.144494	-0.315468	-0.834669	-0.451450
43864	9.994261	0.324194	-2.670008	-0.169541	-1.254373	0.176740	-0.314497	-0.369209	0.874515	-0.896139	0.419335	-0.145236	-0.313093	-0.829363	-0.462742
43865	9.880425	0.241666	-2.170205	-0.226147	-1.337647	0.214772	-0.320551	-0.379368	0.867944	-0.894758	0.422010	-0.145999	-0.310894	-0.823400	-0.474718
