// General information: 
//  MT Manager version: 2022.2.0 
//  XDA version: 2022.2.0 build 7381 rev 124627 built on 2023-07-19
// Device information: 
//  DeviceId: 00B4CB9F
//  ProductCode: MTW2-3A7G6
//  Firmware Version: 4.6.0
//  Hardware Version: 2.0.0
// Device settings: 
//  Filter Profile: human(46.1)
//  Option Flags: Orientation Smoother Disabled, Position/Velocity Smoother Disabled, Continuous Zero Rotation Update Disabled, AHS Disabled, ICC Disabled
// Coordinate system: ENU
PacketCounter	Acc_X	Acc_Y	Acc_Z	Gyr_X	Gyr_Y	Gyr_Z	Mat[1][1]	Mat[2][1]	Mat[3][1]	Mat[1][2]	Mat[2][2]	Mat[3][2]	Mat[1][3]	Mat[2][3]	Mat[3][3]
22489	9.859093	0.519936	0.354674	-0.015908	0.002015	0.001721	-0.062613	0.007712	0.998008	0.521998	-0.852039	0.039333	0.850645	0.523421	0.049323
22490	9.859067	0.519966	0.355332	-0.028747	0.008972	-0.003949	-0.062641	0.007720	0.998006	0.521801	-0.852160	0.039343	0.850764	0.523225	0.049352
22491	9.818235	0.447180	0.448800	-0.038695	0.016435	-0.007769	-0.062750	0.007691	0.998000	0.521512	-0.852335	0.039359	0.850933	0.522939	0.049473
22492	9.758429	0.412090	0.473286	-0.035528	0.015241	-0.010418	-0.062865	0.007721	0.997992	0.521251	-0.852492	0.039430	0.851085	0.522683	0.049567
22493	9.741208	0.384722	0.464355	-0.022178	0.015003	-0.006953	-0.062958	0.007693	0.997987	0.521104	-0.852581	0.039446	0.851168	0.522538	0.049668
22494	9.806400	0.388747	0.406731	-0.024302	0.010419	-0.004609	-0.063001	0.007699	0.997984	0.520937	-0.852682	0.039464	0.851267	0.522373	0.049709
22495	9.797973	0.437577	0.461958	-0.009060	0.006343	-0.005784	-0.063014	0.007706	0.997983	0.520902	-0.852703	0.039475	0.851287	0.522339	0.049718
22496	9.738659	0.460291	0.499702	-0.007106	0.011038	-0.004337	-0.063061	0.007707	0.997980	0.520883	-0.852714	0.039499	0.851296	0.522321	0.049759
22497	9.724296	0.416444	0.471804	-0.003053	0.004163	-0.003506	-0.063043	0.007705	0.997981	0.520900	-0.852704	0.039489	0.851286	0.522338	0.049744
22498	9.783398	0.461158	0.540585	0.005687	0.007146	-0.001037	-0.063040	0.007699	0.997981	0.520985	-0.852652	0.039487	0.851235	0.522423	0.049740
22499	9.842472	0.505645	0.609878	0.014878	0.015370	0.002310	-0.063087	0.007590	0.997979	0.521159	-0.852548	0.039429	0.851125	0.522593	0.049830
22500	9.785901	0.511666	0.630379	0.018280	0.022595	0.001958	-0.063201	0.007477	0.997973	0.521358	-0.852428	0.039404	0.850995	0.522791	0.049976
22501	9.751994	0.513628	0.625654	0.012273	0.024777	-0.000320	-0.063342	0.007341	0.997965	0.521508	-0.852338	0.039370	0.850892	0.522940	0.050161
22502	9.701002	0.487519	0.610263	-0.002483	0.019418	0.000375	-0.063437	0.007256	0.997959	0.521532	-0.852324	0.039349	0.850870	0.522964	0.050284
22503	9.741363	0.502615	0.505782	-0.000712	0.012619	0.001894	-0.063463	0.007165	0.997958	0.521573	-0.852302	0.039288	0.850843	0.523001	0.050353
22504	9.812694	0.532108	0.426292	-0.008158	0.016827	-0.004036	-0.063560	0.007132	0.997953	0.521548	-0.852316	0.039309	0.850851	0.522979	0.050453
22505	9.820796	0.550970	0.478891	-0.023123	0.019206	-0.007370	-0.063690	0.007085	0.997945	0.521393	-0.852410	0.039328	0.850937	0.522826	0.050596
22506	9.760908	0.516015	0.503774	-0.024616	0.024312	-0.013385	-0.063899	0.007092	0.997931	0.521227	-0.852507	0.039434	0.851023	0.522668	0.050778
22507	9.738722	0.512375	0.440744	-0.020237	0.019712	-0.005517	-0.064025	0.007027	0.997924	0.521097	-0.852586	0.039436	0.851093	0.522540	0.050925
22508	9.741473	0.496365	0.424339	-0.015745	0.013517	0.001640	-0.064064	0.006961	0.997922	0.521027	-0.852630	0.039396	0.851133	0.522468	0.050996
22509	9.794689	0.447939	0.411140	-0.012965	0.015609	0.004203	-0.064104	0.006834	0.997920	0.520965	-0.852672	0.039305	0.851167	0.522401	0.051099
22510	9.794645	0.447591	0.412561	-0.017919	0.012005	0.001612	-0.064130	0.006778	0.997919	0.520859	-0.852740	0.039265	0.851231	0.522292	0.051155
22511	9.766916	0.475435	0.384837	-0.022252	0.013539	-0.003888	-0.064194	0.006732	0.997915	0.520712	-0.852829	0.039249	0.851315	0.522146	0.051242
22512	9.730259	0.493704	0.397316	-0.028993	0.012180	-0.002551	-0.064243	0.006711	0.997912	0.520504	-0.852957	0.039245	0.851439	0.521939	0.051303
22513	9.785553	0.437945	0.456457	-0.028896	0.006028	0.002180	-0.064212	0.006652	0.997914	0.520305	-0.853082	0.039166	0.851563	0.521735	0.051317
22514	9.846923	0.407848	0.493668	-0.038246	0.014084	0.000895	-0.064259	0.006591	0.997912	0.520029	-0.853252	0.039122	0.851728	0.521456	0.051401
22515	9.786712	0.313689	0.503412	-0.035183	0.014481	-0.001039	-0.064316	0.006515	0.997908	0.519774	-0.853410	0.039071	0.851879	0.521200	0.051502
22516	9.767087	0.359865	0.526927	-0.030779	0.019001	-0.004054	-0.064431	0.006468	0.997901	0.519567	-0.853535	0.039079	0.851997	0.520995	0.051633
22517	9.747061	0.348207	0.536174	-0.026770	0.015198	-0.005591	-0.064518	0.006427	0.997896	0.519381	-0.853649	0.039079	0.852103	0.520810	0.051738
22518	9.772983	0.386384	0.508222	-0.009625	0.014318	-0.002219	-0.064584	0.006390	0.997892	0.519351	-0.853667	0.039079	0.852117	0.520780	0.051814
22519	9.782221	0.454939	0.483673	-0.006766	0.010857	-0.011905	-0.064667	0.006426	0.997886	0.519332	-0.853675	0.039152	0.852122	0.520766	0.051867
22520	9.737076	0.397602	0.430477	-0.004494	0.006212	-0.007149	-0.064688	0.006474	0.997885	0.519332	-0.853673	0.039205	0.852121	0.520769	0.051860
22521	9.749239	0.450263	0.386300	0.009209	-0.010423	-0.009544	-0.064578	0.006601	0.997891	0.519450	-0.853599	0.039262	0.852057	0.520890	0.051695
22522	9.823176	0.531319	0.391369	0.004306	-0.017103	-0.009780	-0.064415	0.006791	0.997900	0.519538	-0.853541	0.039345	0.852016	0.520981	0.051453
22523	9.884573	0.502514	0.426314	-0.010450	-0.006284	-0.010808	-0.064347	0.006907	0.997904	0.519487	-0.853569	0.039405	0.852052	0.520934	0.051336
22524	9.783300	0.509442	0.404775	-0.020249	-0.003470	-0.012976	-0.064316	0.007055	0.997905	0.519351	-0.853647	0.039508	0.852137	0.520804	0.051239
22525	9.757294	0.472292	0.433752	-0.018151	-0.008015	-0.004432	-0.064199	0.007125	0.997912	0.519239	-0.853716	0.039500	0.852214	0.520691	0.051108
22526	9.748036	0.404211	0.459156	-0.018951	-0.001452	0.006000	-0.064087	0.007102	0.997919	0.519125	-0.853789	0.039415	0.852292	0.520571	0.051030
22527	9.752976	0.379734	0.513444	-0.010430	-0.006899	0.006170	-0.063925	0.007076	0.997930	0.519086	-0.853818	0.039305	0.852328	0.520524	0.050908
22528	9.767211	0.423238	0.541811	-0.011263	-0.004289	0.005061	-0.063793	0.007076	0.997938	0.519022	-0.853860	0.039233	0.852377	0.520454	0.050798
22529	9.756126	0.545372	0.628686	-0.017040	-0.000706	-0.004081	-0.063737	0.007105	0.997941	0.518920	-0.853923	0.039223	0.852443	0.520352	0.050740
22530	9.777849	0.674499	0.814463	-0.041316	0.011244	-0.011767	-0.063826	0.007165	0.997935	0.518613	-0.854105	0.039302	0.852624	0.520051	0.050798
22531	9.794989	0.761725	0.841458	-0.075016	0.018173	-0.021395	-0.064021	0.007244	0.997922	0.518005	-0.854468	0.039435	0.852978	0.519454	0.050951
22532	9.788539	0.737451	0.866227	-0.094695	0.026918	-0.028075	-0.064328	0.007365	0.997902	0.517216	-0.854936	0.039651	0.853434	0.518681	0.051188
22533	9.832441	0.681593	0.895252	-0.117462	0.035286	-0.032812	-0.064728	0.007453	0.997875	0.516238	-0.855516	0.039876	0.853996	0.517722	0.051529
22534	9.710871	0.495690	0.751271	-0.115609	0.043109	-0.033685	-0.065204	0.007537	0.997843	0.515273	-0.856086	0.040137	0.854542	0.516779	0.051937
22535	9.699758	0.313786	0.587894	-0.082873	0.035800	-0.019009	-0.065537	0.007505	0.997822	0.514599	-0.856486	0.040241	0.854923	0.516115	0.052269
22536	9.652284	0.148960	0.434126	-0.036766	0.019670	-0.006984	-0.065675	0.007481	0.997813	0.514328	-0.856647	0.040275	0.855075	0.515848	0.052413
22537	9.698904	0.133129	0.293077	0.014971	0.004582	0.012536	-0.065579	0.007340	0.997820	0.514510	-0.856545	0.040116	0.854973	0.516020	0.052395
22538	9.821540	0.246223	0.245152	0.060489	-0.007533	0.016601	-0.065362	0.007254	0.997835	0.515084	-0.856207	0.039964	0.854644	0.516581	0.052227
22539	9.879918	0.405255	0.178378	0.066298	-0.013555	0.011118	-0.065118	0.007219	0.997851	0.515704	-0.855840	0.039846	0.854289	0.517191	0.052008
22540	9.911055	0.476631	0.216884	0.047677	-0.010592	0.004108	-0.064939	0.007254	0.997863	0.516170	-0.855560	0.039811	0.854021	0.517653	0.051815
22541	9.847714	0.522389	0.362100	0.031677	-0.000882	-0.001969	-0.064871	0.007266	0.997867	0.516486	-0.855370	0.039805	0.853835	0.517966	0.051736
22542	9.782403	0.576459	0.435529	0.004179	0.007703	-0.001568	-0.064877	0.007257	0.997867	0.516565	-0.855322	0.039805	0.853786	0.518046	0.051742
22543	9.744473	0.544313	0.523790	-0.009433	0.006570	0.001806	-0.064853	0.007198	0.997869	0.516532	-0.855345	0.039740	0.853808	0.518008	0.051753
22544	9.752423	0.562227	0.575663	-0.031228	0.010711	-0.002560	-0.064890	0.007180	0.997867	0.516322	-0.855472	0.039731	0.853933	0.517799	0.051804
22545	9.741417	0.560530	0.544356	-0.043154	0.013527	-0.007831	-0.064975	0.007167	0.997861	0.515994	-0.855669	0.039745	0.854124	0.517473	0.051899
22546	9.757005	0.539113	0.633228	-0.058042	0.014363	-0.011885	-0.065092	0.007212	0.997853	0.515537	-0.855942	0.039816	0.854391	0.517022	0.051996
22547	9.714920	0.465866	0.562093	-0.059504	0.011835	-0.010098	-0.065174	0.007228	0.997848	0.515068	-0.856223	0.039843	0.854668	0.516556	0.052080
22548	9.857708	0.476543	0.642882	-0.062586	0.011447	-0.008163	-0.065246	0.007258	0.997843	0.514559	-0.856527	0.039876	0.854969	0.516051	0.052150
22549	9.883322	0.457410	0.601026	-0.061481	0.023358	-0.013203	-0.065443	0.007241	0.997830	0.514071	-0.856818	0.039933	0.855248	0.515569	0.052350
22550	9.764932	0.436655	0.571427	-0.057394	0.025664	-0.023238	-0.065715	0.007326	0.997812	0.513607	-0.857087	0.040118	0.855505	0.515120	0.052561
22551	9.718458	0.504824	0.476079	-0.040658	0.019514	-0.020769	-0.065918	0.007393	0.997798	0.513292	-0.857269	0.040262	0.855679	0.514815	0.052714
22552	9.710230	0.430312	0.411702	-0.036828	0.006598	-0.007700	-0.065947	0.007442	0.997795	0.513020	-0.857430	0.040302	0.855840	0.514547	0.052727
22553	9.758704	0.349240	0.327624	-0.017014	-0.003762	-0.001750	-0.065853	0.007466	0.997801	0.512919	-0.857492	0.040268	0.855907	0.514443	0.052639
22554	9.784363	0.271460	0.268316	0.001731	-0.008330	0.004541	-0.065692	0.007486	0.997812	0.512990	-0.857453	0.040206	0.855877	0.514509	0.052487
22555	9.831957	0.254791	0.289000	0.019521	-0.008693	0.010456	-0.065493	0.007431	0.997825	0.513210	-0.857327	0.040070	0.855761	0.514718	0.052335
22556	9.809518	0.373562	0.343851	0.022076	0.001157	0.009061	-0.065388	0.007366	0.997833	0.513439	-0.857195	0.039973	0.855632	0.514940	0.052268
22557	9.814911	0.522407	0.442875	0.013876	0.001856	0.006748	-0.065298	0.007289	0.997839	0.513608	-0.857098	0.039871	0.855537	0.515101	0.052223
22558	9.830942	0.615716	0.560202	-0.008601	0.008558	-0.002500	-0.065316	0.007284	0.997838	0.513571	-0.857120	0.039874	0.855557	0.515065	0.052243
22559	9.877071	0.549697	0.659340	-0.041143	0.016679	-0.007053	-0.065424	0.007249	0.997831	0.513261	-0.857306	0.039880	0.855735	0.514757	0.052368
22560	9.875492	0.499955	0.738613	-0.067630	0.040304	-0.014016	-0.065773	0.007178	0.997809	0.512715	-0.857628	0.039967	0.856036	0.514220	0.052729
22561	9.730982	0.440493	0.739559	-0.058713	0.043192	-0.015291	-0.066151	0.007077	0.997785	0.512248	-0.857903	0.040046	0.856286	0.513762	0.053125
22562	9.689043	0.425836	0.685493	-0.038891	0.037434	-0.014751	-0.066480	0.007027	0.997763	0.511958	-0.858071	0.040154	0.856434	0.513483	0.053447
22563	9.728568	0.451303	0.674490	-0.020569	0.032224	-0.014779	-0.066760	0.006978	0.997745	0.511819	-0.858150	0.040248	0.856496	0.513351	0.053719
22564	9.746404	0.415197	0.582355	-0.006773	0.024063	-0.011104	-0.066957	0.006965	0.997732	0.511805	-0.858154	0.040338	0.856488	0.513345	0.053895
22565	9.724515	0.354570	0.504101	0.017230	0.021396	-0.006687	-0.067104	0.006902	0.997722	0.511995	-0.858039	0.040371	0.856364	0.513537	0.054044
22566	9.745674	0.359495	0.407261	0.035302	0.010142	0.005553	-0.067095	0.006820	0.997723	0.512336	-0.857838	0.040318	0.856160	0.513874	0.054063
22567	9.717971	0.328741	0.364082	0.049280	0.005799	0.017007	-0.066987	0.006634	0.997732	0.512815	-0.857560	0.040132	0.855882	0.514340	0.054043
22568	9.713478	0.409600	0.324556	0.062529	-0.001400	0.015087	-0.066830	0.006527	0.997743	0.513410	-0.857211	0.039996	0.855537	0.514925	0.053937
22569	9.827218	0.570620	0.332128	0.052632	-0.000056	0.015987	-0.066677	0.006380	0.997754	0.513917	-0.856915	0.039823	0.855244	0.515419	0.053857
22570	9.852148	0.673517	0.408658	0.032251	-0.001845	0.003683	-0.066574	0.006374	0.997761	0.514237	-0.856725	0.039785	0.855061	0.515734	0.053758
22571	9.856959	0.707305	0.477703	0.003980	-0.000712	-0.003896	-0.066517	0.006401	0.997765	0.514314	-0.856679	0.039783	0.855018	0.515811	0.053692
22572	9.839843	0.621769	0.452273	-0.026452	0.007414	-0.005377	-0.066541	0.006424	0.997763	0.514140	-0.856782	0.039804	0.855121	0.515639	0.053709
22573	9.784650	0.561439	0.529917	-0.043624	0.016843	-0.002630	-0.066628	0.006349	0.997758	0.513812	-0.856981	0.039765	0.855312	0.515309	0.053836
22574	9.801325	0.531736	0.527982	-0.058403	0.016108	-0.007424	-0.066737	0.006347	0.997750	0.513345	-0.857259	0.039790	0.855583	0.514846	0.053952
22575	9.799681	0.481555	0.606454	-0.076978	0.024516	-0.005961	-0.066906	0.006262	0.997740	0.512728	-0.857629	0.039765	0.855940	0.514230	0.054170
22576	9.779452	0.411819	0.601523	-0.080610	0.025086	-0.009635	-0.067103	0.006234	0.997727	0.512064	-0.858025	0.039801	0.856322	0.513570	0.054384
22577	9.739509	0.446150	0.633677	-0.074349	0.024320	-0.014203	-0.067313	0.006221	0.997712	0.511463	-0.858380	0.039860	0.856664	0.512977	0.054598
22578	9.733144	0.420893	0.657990	-0.064587	0.024585	-0.014370	-0.067531	0.006235	0.997698	0.510947	-0.858683	0.039950	0.856956	0.512468	0.054802
22579	9.739011	0.390191	0.623627	-0.045534	0.018334	-0.012569	-0.067681	0.006238	0.997687	0.510594	-0.858890	0.040008	0.857154	0.512121	0.054946
22580	9.717327	0.329533	0.544559	-0.023643	0.011036	-0.005844	-0.067740	0.006249	0.997683	0.510422	-0.858991	0.040037	0.857252	0.511952	0.054998
22581	9.680475	0.289678	0.541124	0.002295	-0.000076	-0.000678	-0.067672	0.006246	0.997688	0.510488	-0.858954	0.040003	0.857218	0.512015	0.054938
22582	9.729606	0.382032	0.501674	0.018760	-0.004603	0.006309	-0.067533	0.006229	0.997698	0.510700	-0.858831	0.039931	0.857102	0.512221	0.054818
22583	9.817070	0.447838	0.523233	0.021533	-0.011032	0.002735	-0.067353	0.006252	0.997710	0.510933	-0.858695	0.039873	0.856978	0.512448	0.054642
22584	9.849326	0.512360	0.472213	0.003802	-0.000632	-0.000108	-0.067282	0.006271	0.997714	0.511007	-0.858652	0.039858	0.856939	0.512521	0.054567
22585	9.797220	0.493745	0.545377	-0.004871	0.011050	-0.004940	-0.067331	0.006247	0.997711	0.511008	-0.858651	0.039862	0.856935	0.512523	0.054621
22586	9.788005	0.541616	0.601817	-0.023216	0.016279	-0.004921	-0.067429	0.006220	0.997705	0.510858	-0.858740	0.039879	0.857016	0.512375	0.054727
22587	9.804696	0.512102	0.599606	-0.028408	0.015882	-0.006106	-0.067525	0.006181	0.997698	0.510657	-0.858859	0.039882	0.857129	0.512175	0.054839
22588	9.770816	0.456576	0.578832	-0.029077	0.013816	-0.005582	-0.067606	0.006175	0.997693	0.510434	-0.858990	0.039905	0.857255	0.511955	0.054921
22589	9.787532	0.427059	0.576378	-0.029080	0.013819	-0.005581	-0.067682	0.006142	0.997688	0.510228	-0.859113	0.039902	0.857372	0.511749	0.055013
22590	9.773603	0.383622	0.548403	-0.025520	0.016366	-0.004238	-0.067778	0.006108	0.997682	0.510058	-0.859214	0.039911	0.857466	0.511580	0.055120
22591	9.747436	0.403270	0.594333	-0.026727	0.023759	-0.003152	-0.067927	0.006003	0.997672	0.509873	-0.859325	0.039886	0.857564	0.511395	0.055310
22592	9.739682	0.444200	0.560419	-0.017664	0.016552	-0.011303	-0.068060	0.006030	0.997663	0.509762	-0.859386	0.039970	0.857619	0.511291	0.055416
22593	9.705917	0.504727	0.569503	-0.009105	0.006448	-0.005754	-0.068074	0.006036	0.997662	0.509727	-0.859407	0.039980	0.857639	0.511256	0.055426
22594	9.765615	0.483992	0.533399	-0.012546	0.002317	-0.007823	-0.068067	0.006106	0.997662	0.509652	-0.859449	0.040032	0.857684	0.511186	0.055388
22595	9.790014	0.414449	0.565574	-0.010917	0.000173	-0.007979	-0.068039	0.006164	0.997664	0.509600	-0.859478	0.040064	0.857717	0.511135	0.055337
22596	9.776204	0.371059	0.536097	-0.001630	0.002145	0.000156	-0.067990	0.006165	0.997667	0.509630	-0.859462	0.040042	0.857703	0.511163	0.055292
22597	9.745599	0.414856	0.525787	0.013279	0.001270	0.004241	-0.067908	0.006112	0.997673	0.509793	-0.859369	0.039964	0.857613	0.511320	0.055242
22598	9.762472	0.442168	0.537263	0.018040	0.004915	0.010669	-0.067830	0.006010	0.997679	0.509998	-0.859252	0.039849	0.857497	0.511517	0.055218
22599	9.823725	0.469201	0.589060	0.013701	0.006517	0.005172	-0.067789	0.005922	0.997682	0.510165	-0.859157	0.039763	0.857401	0.511678	0.055220
22600	9.851219	0.498675	0.634174	0.005141	0.016623	-0.000378	-0.067867	0.005853	0.997677	0.510256	-0.859103	0.039750	0.857340	0.511769	0.055318
22601	9.852525	0.490001	0.708838	0.001039	0.023541	-0.001157	-0.068004	0.005732	0.997669	0.510311	-0.859072	0.039720	0.857297	0.511822	0.055495
22602	9.731332	0.483938	0.696482	0.005574	0.026498	-0.004845	-0.068190	0.005653	0.997656	0.510390	-0.859024	0.039753	0.857235	0.511905	0.055691
22603	9.662374	0.439135	0.595984	0.015829	0.015766	-0.002508	-0.068267	0.005584	0.997651	0.510570	-0.858917	0.039744	0.857122	0.512084	0.055785
22604	9.725188	0.460214	0.557232	0.020174	0.005672	-0.003178	-0.068266	0.005593	0.997651	0.510802	-0.858778	0.039767	0.856984	0.512317	0.055769
22605	9.804878	0.393337	0.498906	0.019196	0.005263	0.001856	-0.068231	0.005540	0.997654	0.511014	-0.858654	0.039717	0.856860	0.512525	0.055756
22606	9.780438	0.347576	0.437118	0.023353	0.008362	0.005744	-0.068208	0.005460	0.997656	0.511265	-0.858508	0.039653	0.856712	0.512771	0.055765
22607	9.716156	0.335183	0.404429	0.037354	0.000108	0.005645	-0.068109	0.005401	0.997663	0.511635	-0.858291	0.039575	0.856499	0.513135	0.055694
22608	9.776024	0.428961	0.397705	0.042049	-0.006251	0.008973	-0.067943	0.005369	0.997675	0.512046	-0.858050	0.039489	0.856267	0.513538	0.055549
22609	9.860297	0.510830	0.438071	0.030365	-0.001947	-0.003170	-0.067872	0.005396	0.997679	0.512350	-0.857868	0.039495	0.856090	0.513842	0.055460
22610	9.824902	0.578380	0.536816	0.009913	0.003282	-0.006286	-0.067866	0.005448	0.997680	0.512468	-0.857795	0.039544	0.856020	0.513963	0.055423
22611	9.737506	0.571015	0.529876	-0.017832	0.008109	-0.013706	-0.067934	0.005514	0.997675	0.512352	-0.857861	0.039628	0.856084	0.513853	0.055453
22612	9.751153	0.557942	0.545149	-0.028466	0.005863	-0.009238	-0.067966	0.005577	0.997672	0.512142	-0.857983	0.039686	0.856207	0.513647	0.055458
22613	9.781681	0.456580	0.541357	-0.039225	0.005208	-0.004046	-0.067961	0.005575	0.997672	0.511850	-0.858159	0.039662	0.856383	0.513354	0.055467
22614	9.819784	0.372436	0.588814	-0.040982	0.008947	-0.003166	-0.067987	0.005572	0.997671	0.511528	-0.858351	0.039652	0.856572	0.513033	0.055507
22615	9.756800	0.352057	0.629622	-0.030350	0.011199	-0.007631	-0.068051	0.005570	0.997666	0.511310	-0.858481	0.039669	0.856698	0.512816	0.055573
22616	9.781095	0.340362	0.678047	-0.015979	0.011300	-0.009137	-0.068129	0.005606	0.997661	0.511195	-0.858546	0.039733	0.856760	0.512706	0.055627
22617	9.780951	0.399186	0.694436	-0.006131	0.013069	-0.012356	-0.068233	0.005635	0.997653	0.511180	-0.858551	0.039810	0.856761	0.512697	0.055702
22618	9.730335	0.374218	0.676734	0.008476	0.005363	-0.009913	-0.068264	0.005705	0.997651	0.511291	-0.858481	0.039894	0.856692	0.512813	0.055687
22619	9.739568	0.385647	0.637192	0.016804	0.003063	-0.008304	-0.068262	0.005750	0.997651	0.511475	-0.858369	0.039944	0.856582	0.513001	0.055653
22620	9.739464	0.444483	0.652657	0.027248	0.005386	-0.008979	-0.068288	0.005813	0.997649	0.511735	-0.858210	0.040029	0.856425	0.513266	0.055631
22621	9.777926	0.478713	0.565862	0.031418	-0.000010	-0.011256	-0.068275	0.005900	0.997649	0.512043	-0.858023	0.040116	0.856242	0.513578	0.055561
22622	9.767210	0.535818	0.547755	0.032913	-0.005188	-0.005283	-0.068192	0.005982	0.997654	0.512373	-0.857823	0.040166	0.856051	0.513910	0.055432
22623	9.768982	0.529548	0.455776	0.022904	-0.010761	-0.009842	-0.068080	0.006112	0.997661	0.512609	-0.857679	0.040235	0.855919	0.514149	0.055257
22624	9.776556	0.490323	0.490881	0.004675	-0.007131	-0.010574	-0.068007	0.006249	0.997665	0.512697	-0.857622	0.040321	0.855872	0.514242	0.055120
22625	9.759690	0.520903	0.493865	-0.011212	-0.011308	-0.004239	-0.067861	0.006334	0.997675	0.512645	-0.857654	0.040315	0.855915	0.514188	0.054954
22626	9.813335	0.531549	0.493008	-0.017188	-0.012193	-0.004185	-0.067713	0.006445	0.997684	0.512536	-0.857718	0.040326	0.855992	0.514079	0.054775
22627	9.804056	0.521897	0.532225	-0.023934	-0.004309	-0.013688	-0.067675	0.006574	0.997686	0.512368	-0.857815	0.040407	0.856095	0.513917	0.054684
22628	9.754892	0.488288	0.586193	-0.033052	-0.002492	-0.014050	-0.067660	0.006719	0.997686	0.512124	-0.857956	0.040509	0.856242	0.513680	0.054608
22629	9.738034	0.461377	0.575003	-0.031793	0.000133	-0.012029	-0.067652	0.006812	0.997686	0.511890	-0.858093	0.040569	0.856383	0.513450	0.054565
22630	9.759288	0.465695	0.640712	-0.025884	-0.000498	-0.009020	-0.067629	0.006901	0.997687	0.511727	-0.858187	0.040624	0.856482	0.513291	0.054507
22631	9.785436	0.446919	0.596561	-0.021054	-0.008449	-0.006421	-0.067519	0.006989	0.997694	0.511589	-0.858269	0.040634	0.856574	0.513152	0.054374
22632	9.748753	0.407611	0.591324	-0.006788	-0.015244	-0.013373	-0.067391	0.007195	0.997701	0.511560	-0.858281	0.040743	0.856601	0.513129	0.054160
22633	9.730496	0.447279	0.520997	-0.000154	-0.016916	-0.008550	-0.067219	0.007345	0.997711	0.511599	-0.858256	0.040786	0.856591	0.513169	0.053933
22634	9.750476	0.460245	0.511896	0.009145	-0.023425	-0.006579	-0.066986	0.007534	0.997725	0.511707	-0.858189	0.040836	0.856545	0.513279	0.053632
22635	9.739906	0.459011	0.476646	0.012098	-0.026054	-0.002377	-0.066705	0.007678	0.997743	0.511855	-0.858101	0.040824	0.856478	0.513423	0.053309
22636	9.749253	0.469832	0.433773	0.013309	-0.033441	-0.003461	-0.066371	0.007892	0.997764	0.512008	-0.858009	0.040845	0.856413	0.513574	0.052906
22637	9.850598	0.406623	0.436804	0.002256	-0.040943	0.000083	-0.065949	0.008091	0.997790	0.512073	-0.857972	0.040803	0.856406	0.513633	0.052439
22638	9.887545	0.388903	0.422328	-0.000049	-0.027750	0.001528	-0.065638	0.008231	0.997810	0.512128	-0.857941	0.040766	0.856398	0.513682	0.052098
22639	9.797156	0.454065	0.446328	-0.003554	-0.015662	-0.002109	-0.065444	0.008320	0.997822	0.512142	-0.857934	0.040743	0.856404	0.513693	0.051886
22640	9.734275	0.549343	0.514618	0.001522	-0.022157	-0.006363	-0.065222	0.008499	0.997835	0.512196	-0.857900	0.040786	0.856389	0.513747	0.051600
22641	9.768056	0.548290	0.519609	-0.013932	-0.024955	-0.010644	-0.064991	0.008709	0.997848	0.512115	-0.857945	0.040843	0.856454	0.513668	0.051299
22642	9.857020	0.548983	0.597283	-0.023716	-0.025210	-0.010472	-0.064764	0.008941	0.997861	0.511937	-0.858048	0.040914	0.856578	0.513492	0.050993
22643	9.913839	0.542673	0.741475	-0.048122	-0.004664	-0.011949	-0.064714	0.009058	0.997863	0.511563	-0.858268	0.040967	0.856805	0.513121	0.050908
22644	9.791222	0.543977	0.818752	-0.068428	0.013609	-0.018040	-0.064858	0.009150	0.997853	0.511032	-0.858579	0.041089	0.857111	0.512599	0.051009
22645	9.676407	0.391606	0.738437	-0.069526	0.010942	-0.023843	-0.065002	0.009289	0.997842	0.510466	-0.858908	0.041249	0.857437	0.512046	0.051089
22646	9.683853	0.412661	0.626543	-0.050319	-0.001519	-0.017391	-0.065014	0.009456	0.997840	0.510078	-0.859133	0.041375	0.857668	0.511666	0.051032
22647	9.775856	0.342404	0.508546	-0.036057	-0.012928	-0.018976	-0.064929	0.009675	0.997843	0.509802	-0.859290	0.041504	0.857838	0.511397	0.050861
22648	9.751443	0.298640	0.444679	-0.009592	-0.017266	-0.015968	-0.064798	0.009911	0.997849	0.509750	-0.859315	0.041637	0.857879	0.511351	0.050629
22649	9.726902	0.312323	0.395719	0.018869	-0.020030	-0.009127	-0.064602	0.010082	0.997860	0.509952	-0.859192	0.041695	0.857774	0.511554	0.050364
22650	9.763478	0.411177	0.412673	0.038027	-0.029388	-0.005021	-0.064311	0.010285	0.997877	0.510326	-0.858968	0.041742	0.857573	0.511927	0.049992
22651	9.789310	0.508234	0.396378	0.046175	-0.026981	-0.005036	-0.064034	0.010456	0.997893	0.510764	-0.858705	0.041773	0.857333	0.512363	0.049646
22652	9.810781	0.570006	0.474535	0.030823	-0.022881	-0.003858	-0.063793	0.010615	0.997907	0.511077	-0.858518	0.041804	0.857165	0.512674	0.049342
22653	9.798693	0.575754	0.530655	0.014870	-0.019331	-0.005220	-0.063583	0.010749	0.997919	0.511247	-0.858416	0.041821	0.857079	0.512842	0.049085
22654	9.781971	0.548374	0.517564	0.000551	-0.017926	-0.006740	-0.063399	0.010910	0.997929	0.511288	-0.858389	0.041867	0.857068	0.512883	0.048843
22655	9.815727	0.547145	0.523505	-0.006100	-0.007777	-0.005377	-0.063289	0.010986	0.997935	0.511278	-0.858394	0.041875	0.857082	0.512873	0.048710
22656	9.918604	0.533505	0.617333	-0.025800	-0.002083	-0.009683	-0.063256	0.011093	0.997936	0.511072	-0.858514	0.041939	0.857207	0.512669	0.048637
22657	9.895560	0.538105	0.643704	-0.036211	0.014849	-0.016658	-0.063397	0.011150	0.997926	0.510797	-0.858673	0.042045	0.857361	0.512403	0.048742
22658	9.720905	0.464754	0.616016	-0.028798	0.022928	-0.023884	-0.063652	0.011247	0.997909	0.510585	-0.858789	0.042247	0.857468	0.512206	0.048921
22659	9.673315	0.424595	0.580859	-0.012650	0.010057	-0.015525	-0.063746	0.011319	0.997902	0.510512	-0.858827	0.042353	0.857504	0.512141	0.048969
22660	9.682506	0.378622	0.526208	0.007905	0.001737	-0.010132	-0.063750	0.011406	0.997901	0.510624	-0.858756	0.042436	0.857438	0.512257	0.048921
22661	9.695076	0.258413	0.436992	0.031182	-0.006046	0.000908	-0.063622	0.011419	0.997909	0.510938	-0.858571	0.042400	0.857260	0.512567	0.048790
22662	9.757783	0.279473	0.395797	0.060372	-0.018293	0.003378	-0.063384	0.011492	0.997923	0.511513	-0.858230	0.042372	0.856935	0.513136	0.048520
22663	9.800255	0.404002	0.391686	0.076179	-0.015601	0.000075	-0.063179	0.011561	0.997935	0.512211	-0.857814	0.042366	0.856532	0.513831	0.048274
22664	9.780083	0.507856	0.427186	0.078823	-0.020410	-0.002776	-0.062954	0.011698	0.997948	0.512938	-0.857378	0.042408	0.856114	0.514555	0.047975
22665	9.824287	0.624207	0.495132	0.057010	-0.019343	-0.004791	-0.062742	0.011829	0.997960	0.513469	-0.857058	0.042441	0.855811	0.515084	0.047700
22666	9.833383	0.635581	0.452981	0.036110	-0.019391	-0.008781	-0.062557	0.012014	0.997969	0.513809	-0.856850	0.042523	0.855621	0.515426	0.047429
22667	9.821493	0.584087	0.494182	0.012018	-0.018274	-0.010118	-0.062381	0.012185	0.997978	0.513952	-0.856761	0.042587	0.855548	0.515569	0.047183
22668	9.810899	0.525398	0.444778	-0.001147	-0.012684	-0.008898	-0.062254	0.012335	0.997984	0.513991	-0.856734	0.042652	0.855533	0.515610	0.046995
22669	9.852579	0.484139	0.486919	-0.008997	-0.008268	-0.007223	-0.062150	0.012430	0.997989	0.513956	-0.856754	0.042677	0.855562	0.515575	0.046859
22670	9.799202	0.416660	0.471264	-0.013475	-0.005091	-0.011986	-0.062103	0.012568	0.997991	0.513874	-0.856799	0.042768	0.855615	0.515497	0.046751
22671	9.799356	0.360280	0.456110	-0.017362	0.003262	-0.019610	-0.062161	0.012710	0.997985	0.513759	-0.856861	0.042913	0.855680	0.515392	0.046733
22672	9.796426	0.319913	0.459613	-0.006126	0.001465	-0.016165	-0.062191	0.012852	0.997981	0.513728	-0.856873	0.043049	0.855696	0.515368	0.046688
22673	9.759550	0.339015	0.470989	0.011139	0.002084	-0.015852	-0.062220	0.012967	0.997978	0.513859	-0.856788	0.043169	0.855615	0.515506	0.046646
22674	9.736331	0.402003	0.511726	0.031546	0.000017	-0.015128	-0.062233	0.013102	0.997976	0.514188	-0.856583	0.043310	0.855417	0.515842	0.046571
22675	9.781588	0.512566	0.490547	0.049102	-0.001005	-0.019323	-0.062253	0.013262	0.997972	0.514642	-0.856302	0.043483	0.855142	0.516305	0.046482
22676	9.767329	0.586648	0.490571	0.054774	-0.006923	-0.021037	-0.062238	0.013485	0.997970	0.515155	-0.855983	0.043694	0.854834	0.516829	0.046328
22677	9.809989	0.597487	0.456768	0.044817	-0.007131	-0.017065	-0.062194	0.013658	0.997971	0.515573	-0.855723	0.043842	0.854585	0.517254	0.046179
22678	9.770278	0.574564	0.470644	0.029966	-0.000934	-0.012629	-0.062187	0.013780	0.997969	0.515866	-0.855540	0.043959	0.854409	0.517552	0.046095
22679	9.763002	0.556837	0.583755	0.023068	0.012370	-0.009842	-0.062272	0.013790	0.997964	0.516103	-0.855394	0.044025	0.854260	0.517794	0.046150
22680	9.773683	0.559739	0.617733	0.007858	0.014837	-0.009392	-0.062383	0.013801	0.997957	0.516224	-0.855318	0.044098	0.854179	0.517920	0.046233
22681	9.809321	0.492509	0.684907	0.002276	0.032280	-0.007659	-0.062628	0.013689	0.997943	0.516284	-0.855279	0.044133	0.854124	0.517986	0.046497
22682	9.766260	0.484733	0.721351	0.015337	0.042923	-0.010465	-0.062984	0.013568	0.997922	0.516431	-0.855186	0.044222	0.854009	0.518144	0.046856
22683	9.699510	0.539785	0.634898	0.024446	0.041148	-0.010115	-0.063317	0.013432	0.997903	0.516680	-0.855032	0.044292	0.853834	0.518401	0.047198
22684	9.600916	0.531405	0.433917	0.049161	0.019047	-0.013109	-0.063483	0.013451	0.997892	0.517150	-0.854741	0.044421	0.853537	0.518880	0.047306
22685	9.743061	0.544706	0.351029	0.052511	0.007058	-0.005663	-0.063502	0.013453	0.997891	0.517641	-0.854442	0.044460	0.853238	0.519372	0.047295
22686	9.709036	0.547915	0.179842	0.050850	-0.005424	-0.003181	-0.063408	0.013517	0.997896	0.518115	-0.854153	0.044492	0.852957	0.519846	0.047157
22687	9.758099	0.524987	0.109524	0.053029	-0.008512	0.002273	-0.063253	0.013533	0.997906	0.518614	-0.853852	0.044452	0.852665	0.520340	0.046990
22688	9.848169	0.576126	0.111586	0.046410	-0.019977	-0.003271	-0.063035	0.013671	0.997918	0.519068	-0.853575	0.044482	0.852405	0.520791	0.046709
22689	9.886773	0.550467	0.171311	0.021923	-0.015677	0.000594	-0.062828	0.013738	0.997930	0.519301	-0.853435	0.044443	0.852279	0.521018	0.046485
22690	9.938946	0.568805	0.261154	-0.003307	-0.005737	-0.002771	-0.062729	0.013802	0.997935	0.519310	-0.853429	0.044447	0.852280	0.521026	0.046367
22691	9.812371	0.535046	0.432108	-0.020691	-0.000196	-0.007790	-0.062697	0.013860	0.997936	0.519175	-0.853510	0.044472	0.852365	0.520892	0.046316
22692	9.800159	0.541098	0.490820	-0.040719	0.005559	-0.004560	-0.062703	0.013879	0.997936	0.518873	-0.853694	0.044476	0.852549	0.520590	0.046328
22693	9.802183	0.475287	0.549637	-0.052679	0.008362	-0.009834	-0.062754	0.013910	0.997932	0.518463	-0.853941	0.044507	0.852794	0.520184	0.046377
22694	9.788173	0.490236	0.536041	-0.051360	0.004022	-0.017026	-0.062813	0.014045	0.997927	0.518056	-0.854181	0.044630	0.853037	0.519785	0.046377
22695	9.800948	0.427210	0.627318	-0.041720	0.005912	-0.016478	-0.062877	0.014145	0.997921	0.517736	-0.854370	0.044732	0.853227	0.519472	0.046397
22696	9.808824	0.388569	0.664587	-0.029326	0.014496	-0.018756	-0.063033	0.014241	0.997910	0.517501	-0.854505	0.044883	0.853358	0.519248	0.046492
22697	9.701604	0.368627	0.665914	-0.003065	0.010343	-0.011949	-0.063112	0.014280	0.997904	0.517513	-0.854494	0.044958	0.853345	0.519266	0.046539
22698	9.679994	0.365959	0.600984	0.027423	0.002337	-0.010478	-0.063122	0.014365	0.997902	0.517789	-0.854321	0.045051	0.853176	0.519547	0.046488
22699	9.725477	0.417703	0.564771	0.048368	-0.000647	-0.004128	-0.063067	0.014394	0.997905	0.518245	-0.854044	0.045072	0.852904	0.520002	0.046402
22700	9.754334	0.440840	0.517170	0.057299	-0.002342	0.000012	-0.062983	0.014414	0.997910	0.518783	-0.853717	0.045074	0.852583	0.520538	0.046292
22701	9.782780	0.521873	0.484254	0.061266	-0.003014	-0.003878	-0.062906	0.014454	0.997915	0.519348	-0.853372	0.045099	0.852244	0.521102	0.046176
22702	9.720780	0.609945	0.462533	0.061059	0.001686	-0.005499	-0.062886	0.014500	0.997915	0.519909	-0.853027	0.045158	0.851904	0.521665	0.046104
22703	9.712742	0.650728	0.425494	0.054220	-0.011224	-0.004188	-0.062741	0.014585	0.997923	0.520414	-0.852718	0.045182	0.851606	0.522168	0.045910
22704	9.764610	0.669921	0.350680	0.046304	-0.022959	0.002878	-0.062466	0.014687	0.997939	0.520865	-0.852444	0.045149	0.851350	0.522612	0.045599
22705	9.833969	0.600996	0.256868	0.026044	-0.022539	0.001409	-0.062196	0.014783	0.997954	0.521134	-0.852282	0.045104	0.851206	0.522873	0.045304
22706	9.855992	0.547276	0.305564	0.008660	-0.017015	-0.003615	-0.062006	0.014911	0.997964	0.521254	-0.852208	0.045120	0.851146	0.522990	0.045069
22707	9.830340	0.509236	0.333242	-0.011185	-0.011356	-0.004175	-0.061860	0.014997	0.997972	0.521202	-0.852240	0.045114	0.851189	0.522935	0.044903
22708	9.848762	0.529950	0.416473	-0.027988	-0.000664	-0.012075	-0.061853	0.015113	0.997971	0.520992	-0.852364	0.045198	0.851318	0.522730	0.044847
22709	9.779859	0.541951	0.493432	-0.035663	0.003656	-0.014204	-0.061887	0.015206	0.997967	0.520725	-0.852523	0.045281	0.851478	0.522469	0.044842
22710	9.801298	0.547490	0.559960	-0.041980	0.013634	-0.020456	-0.062045	0.015317	0.997956	0.520406	-0.852709	0.045443	0.851662	0.522162	0.044936
22711	9.697229	0.511827	0.543090	-0.034966	0.007250	-0.017797	-0.062129	0.015421	0.997949	0.520143	-0.852863	0.045562	0.851816	0.521907	0.044966
22712	9.737172	0.479871	0.514225	-0.017453	0.000140	-0.013498	-0.062136	0.015545	0.997947	0.520027	-0.852928	0.045665	0.851887	0.521796	0.044914
22713	9.824832	0.432084	0.506734	-0.014075	0.002777	-0.008382	-0.062133	0.015593	0.997946	0.519947	-0.852975	0.045700	0.851936	0.521719	0.044890
22714	9.787893	0.450184	0.518174	0.003773	0.004010	-0.005518	-0.062132	0.015626	0.997946	0.520028	-0.852924	0.045732	0.851887	0.521801	0.044868
22715	9.838207	0.477417	0.536778	0.012028	0.004865	-0.006263	-0.062135	0.015645	0.997945	0.520172	-0.852835	0.045757	0.851798	0.521946	0.044853
22716	9.773851	0.465178	0.504672	0.008709	0.007616	-0.002898	-0.062150	0.015639	0.997944	0.520275	-0.852772	0.045766	0.851734	0.522050	0.044863
22717	9.735154	0.491429	0.443341	0.022772	0.000971	-0.006059	-0.062119	0.015677	0.997946	0.520511	-0.852626	0.045794	0.851593	0.522286	0.044804
22718	9.744154	0.502083	0.403272	0.035988	0.000819	0.001228	-0.062055	0.015672	0.997950	0.520849	-0.852421	0.045774	0.851390	0.522622	0.044734
22719	9.767125	0.498384	0.377519	0.039736	-0.001299	0.004187	-0.061951	0.015634	0.997957	0.521236	-0.852188	0.045707	0.851161	0.523002	0.044645
22720	9.755894	0.554087	0.359333	0.038877	0.001322	0.003089	-0.061883	0.015606	0.997961	0.521631	-0.851948	0.045668	0.850924	0.523393	0.044581
22721	9.775716	0.566235	0.351469	0.033484	-0.009043	0.002630	-0.061721	0.015621	0.997971	0.521963	-0.851748	0.045614	0.850732	0.523719	0.044417
22722	9.795542	0.578587	0.343146	0.014912	-0.009257	-0.002054	-0.061589	0.015697	0.997978	0.522118	-0.851653	0.045618	0.850647	0.523872	0.044256
22723	9.831050	0.569250	0.422380	-0.001743	-0.004775	-0.005261	-0.061504	0.015758	0.997982	0.522145	-0.851635	0.045626	0.850636	0.523898	0.044151
22724	9.812528	0.607452	0.516938	-0.013821	-0.000415	-0.009823	-0.061488	0.015855	0.997982	0.522050	-0.851690	0.045695	0.850695	0.523806	0.044092
22725	9.740051	0.635589	0.448283	-0.019985	0.003354	-0.011385	-0.061505	0.015925	0.997980	0.521919	-0.851767	0.045757	0.850775	0.523679	0.044076
22726	9.726526	0.592657	0.418857	-0.020548	-0.010309	-0.014636	-0.061429	0.016115	0.997981	0.521760	-0.851858	0.045871	0.850878	0.523524	0.043921
22727	9.797625	0.516706	0.399500	-0.024039	-0.007484	-0.007488	-0.061334	0.016208	0.997986	0.521596	-0.851957	0.045893	0.850985	0.523360	0.043799
22728	9.819692	0.463129	0.449885	-0.030675	-0.001983	-0.000761	-0.061256	0.016234	0.997990	0.521371	-0.852097	0.045863	0.851129	0.523132	0.043732
22729	9.928479	0.476603	0.523055	-0.027483	0.011478	-0.005751	-0.061313	0.016214	0.997987	0.521179	-0.852214	0.045865	0.851242	0.522942	0.043801
22730	9.833356	0.507309	0.645527	-0.028996	0.026648	-0.008663	-0.061521	0.016157	0.997975	0.520964	-0.852343	0.045915	0.851359	0.522734	0.044019
22731	9.767406	0.502963	0.706840	-0.022334	0.031160	-0.012321	-0.061779	0.016090	0.997960	0.520812	-0.852432	0.045985	0.851433	0.522591	0.044283
22732	9.653477	0.514712	0.582516	-0.003430	0.025097	-0.006729	-0.061964	0.016022	0.997950	0.520836	-0.852415	0.046025	0.851405	0.522620	0.044474
22733	9.629182	0.469016	0.522304	0.021768	0.013675	-0.000295	-0.062011	0.015944	0.997948	0.521067	-0.852276	0.045995	0.851260	0.522850	0.044543
22734	9.709784	0.510441	0.402962	0.039969	0.004025	0.008894	-0.061935	0.015855	0.997954	0.521453	-0.852045	0.045899	0.851029	0.523229	0.044504
22735	9.755253	0.560739	0.366340	0.046028	-0.006643	0.005044	-0.061781	0.015837	0.997964	0.521893	-0.851779	0.045826	0.850771	0.523662	0.044359
22736	9.789972	0.609298	0.296370	0.030472	-0.007947	0.001496	-0.061643	0.015873	0.997972	0.522202	-0.851591	0.045800	0.850591	0.523966	0.044205
22737	9.835430	0.660060	0.258971	0.003724	-0.012128	-0.000105	-0.061469	0.015928	0.997982	0.522279	-0.851546	0.045760	0.850556	0.524038	0.044025
22738	9.806623	0.637674	0.305468	-0.023553	-0.005344	-0.004243	-0.061382	0.015997	0.997986	0.522142	-0.851630	0.045766	0.850647	0.523899	0.043922
22739	9.808860	0.571904	0.363272	-0.043159	-0.002870	-0.006244	-0.061319	0.016056	0.997989	0.521816	-0.851829	0.045766	0.850851	0.523573	0.043855
22740	9.822767	0.558556	0.377959	-0.053131	0.001511	-0.007697	-0.061309	0.016120	0.997989	0.521411	-0.852076	0.045795	0.851100	0.523170	0.043834
22741	9.850605	0.531494	0.407291	-0.059710	0.000045	-0.010166	-0.061291	0.016198	0.997989	0.520943	-0.852361	0.045827	0.851388	0.522704	0.043804
22742	9.788531	0.453319	0.433151	-0.060780	0.007364	-0.012884	-0.061357	0.016277	0.997983	0.520463	-0.852649	0.045905	0.851677	0.522230	0.043845
22743	9.730582	0.409818	0.364141	-0.050236	-0.006456	-0.011970	-0.061293	0.016403	0.997985	0.520073	-0.852884	0.045960	0.851919	0.521843	0.043745
22744	9.771321	0.484556	0.436984	-0.043235	-0.004359	-0.003175	-0.061209	0.016462	0.997989	0.519734	-0.853091	0.045949	0.852132	0.521502	0.043661
22745	9.849533	0.483677	0.484116	-0.037350	-0.000331	-0.005580	-0.061164	0.016502	0.997991	0.519458	-0.853260	0.045945	0.852304	0.521225	0.043616
22746	9.864614	0.519507	0.587007	-0.035896	0.012233	-0.004269	-0.061227	0.016484	0.997988	0.519183	-0.853427	0.045949	0.852467	0.520952	0.043694
22747	9.885977	0.523934	0.654398	-0.037648	0.022106	-0.011859	-0.061406	0.016461	0.997977	0.518901	-0.853595	0.046008	0.852626	0.520676	0.043874
22748	9.724112	0.442917	0.569045	-0.037047	0.022662	-0.009319	-0.061584	0.016431	0.997967	0.518620	-0.853763	0.046060	0.852784	0.520402	0.044057
22749	9.652197	0.413114	0.486998	-0.009484	0.012676	-0.006647	-0.061656	0.016412	0.997963	0.518581	-0.853786	0.046080	0.852803	0.520366	0.044130
22750	9.747832	0.491007	0.470270	0.002566	0.006769	0.000966	-0.061644	0.016377	0.997964	0.518636	-0.853754	0.046047	0.852770	0.520418	0.044136
22751	9.801327	0.501720	0.470670	0.016349	0.001775	0.002303	-0.061577	0.016339	0.997969	0.518822	-0.853644	0.045988	0.852662	0.520600	0.044088
22752	9.793206	0.541644	0.435196	0.017148	0.012264	0.004145	-0.061596	0.016248	0.997969	0.519006	-0.853536	0.045930	0.852549	0.520781	0.044142
22753	9.745538	0.556759	0.413953	0.018718	-0.001393	0.003967	-0.061493	0.016212	0.997976	0.519213	-0.853414	0.045856	0.852430	0.520982	0.044062
22754	9.782499	0.539008	0.402760	0.012495	0.000863	0.005474	-0.061408	0.016169	0.997982	0.519359	-0.853329	0.045783	0.852347	0.521122	0.044004
22755	9.795897	0.582429	0.432192	0.001943	0.000067	0.006891	-0.061302	0.016100	0.997989	0.519426	-0.853294	0.045672	0.852314	0.521181	0.043946
22756	9.846215	0.608520	0.450875	-0.012570	0.006096	0.003735	-0.061271	0.016042	0.997992	0.519371	-0.853331	0.045603	0.852350	0.521122	0.043953
22757	9.810406	0.509940	0.432598	-0.028743	0.004258	-0.002353	-0.061248	0.016031	0.997994	0.519170	-0.853455	0.045571	0.852474	0.520919	0.043950
22758	9.844077	0.508477	0.440940	-0.027165	0.015238	-0.001757	-0.061324	0.015975	0.997990	0.518971	-0.853577	0.045553	0.852589	0.520722	0.044054
22759	9.808733	0.517209	0.526185	-0.015802	0.011889	0.000982	-0.061349	0.015895	0.997990	0.518883	-0.853634	0.045493	0.852641	0.520631	0.044122
22760	9.758371	0.490345	0.509334	-0.011726	0.018112	0.002519	-0.061427	0.015785	0.997987	0.518832	-0.853668	0.045437	0.852666	0.520578	0.044249
22761	9.819875	0.460736	0.547139	-0.003991	0.015308	0.001582	-0.061479	0.015683	0.997985	0.518845	-0.853663	0.045377	0.852655	0.520589	0.044345
22762	9.850869	0.416902	0.559362	-0.001953	0.018419	0.002352	-0.061560	0.015573	0.997982	0.518876	-0.853647	0.045328	0.852630	0.520619	0.044470
22763	9.773636	0.467213	0.602081	0.009526	0.028119	0.002062	-0.061718	0.015400	0.997975	0.519004	-0.853572	0.045268	0.852541	0.520747	0.044689
22764	9.732309	0.450868	0.546343	0.020029	0.027391	0.003713	-0.061869	0.015234	0.997968	0.519206	-0.853452	0.045216	0.852407	0.520948	0.044893
22765	9.656733	0.493840	0.498019	0.030004	0.023005	0.005167	-0.061968	0.015060	0.997965	0.519511	-0.853271	0.045135	0.852214	0.521250	0.045051
22766	9.729976	0.516577	0.492716	0.039325	0.016546	0.007145	-0.062009	0.014919	0.997964	0.519896	-0.853041	0.045056	0.851976	0.521631	0.045139
22767	9.758866	0.539076	0.446743	0.039101	0.011239	0.002442	-0.062021	0.014830	0.997965	0.520276	-0.852811	0.045007	0.851743	0.522008	0.045176
22768	9.769480	0.540979	0.480689	0.032797	0.016609	0.001604	-0.062091	0.014737	0.997962	0.520597	-0.852617	0.044980	0.851542	0.522329	0.045268
22769	9.735096	0.600440	0.490072	0.022691	0.022586	0.000866	-0.062207	0.014602	0.997956	0.520836	-0.852473	0.044939	0.851387	0.522568	0.045425
22770	9.754818	0.612697	0.484681	0.010960	0.016056	0.002598	-0.062267	0.014504	0.997954	0.520959	-0.852400	0.044894	0.851307	0.522689	0.045520
22771	9.773654	0.575602	0.391348	-0.001524	0.015189	-0.002893	-0.062341	0.014440	0.997950	0.520990	-0.852382	0.044880	0.851283	0.522720	0.045615
22772	9.766194	0.558130	0.341551	-0.013202	0.010178	-0.004226	-0.062386	0.014428	0.997948	0.520927	-0.852420	0.044890	0.851318	0.522659	0.045663
22773	9.830891	0.513319	0.360588	-0.025137	0.008343	-0.004117	-0.062408	0.014410	0.997947	0.520756	-0.852525	0.044877	0.851421	0.522488	0.045700
22774	9.817557	0.469258	0.332351	-0.030289	0.013295	0.003180	-0.062441	0.014320	0.997946	0.520543	-0.852659	0.044806	0.851549	0.522271	0.045787
22775	9.811008	0.500602	0.370240	-0.027742	0.010062	0.001063	-0.062451	0.014250	0.997946	0.520353	-0.852778	0.044740	0.851665	0.522078	0.045842
22776	9.787907	0.504080	0.396488	-0.022644	0.003593	-0.003172	-0.062435	0.014265	0.997947	0.520198	-0.852873	0.044736	0.851761	0.521923	0.045828
22777	9.764807	0.507686	0.422423	-0.027231	0.003717	-0.001824	-0.062405	0.014252	0.997949	0.520011	-0.852989	0.044699	0.851877	0.521734	0.045820
22778	9.803184	0.481911	0.484771	-0.031768	0.005365	-0.003538	-0.062406	0.014261	0.997949	0.519778	-0.853131	0.044695	0.852019	0.521501	0.045828
22779	9.847446	0.482512	0.525933	-0.033617	0.012203	-0.005001	-0.062465	0.014230	0.997946	0.519534	-0.853280	0.044687	0.852163	0.521259	0.045907
22780	9.887144	0.448281	0.662405	-0.031396	0.025268	-0.004917	-0.062642	0.014148	0.997936	0.519297	-0.853424	0.044697	0.852295	0.521025	0.046113
22781	9.779266	0.484962	0.680152	-0.029649	0.036198	-0.008092	-0.062922	0.014020	0.997920	0.519085	-0.853552	0.044721	0.852404	0.520819	0.046429
22782	9.674639	0.505986	0.679664	-0.021705	0.028694	-0.007405	-0.063142	0.013937	0.997907	0.518953	-0.853630	0.044759	0.852468	0.520693	0.046667
22783	9.666486	0.546598	0.646326	-0.014931	0.025460	-0.003302	-0.063305	0.013823	0.997898	0.518869	-0.853682	0.044742	0.852507	0.520611	0.046870
22784	9.752194	0.564869	0.583117	-0.012433	0.010688	-0.005461	-0.063362	0.013820	0.997895	0.518802	-0.853721	0.044765	0.852543	0.520547	0.046923
22785	9.887477	0.501085	0.599508	-0.024843	0.026748	-0.002426	-0.063531	0.013692	0.997886	0.518635	-0.853825	0.044735	0.852632	0.520380	0.047144
22786	9.706945	0.349254	0.505910	-0.021769	0.037192	-0.001239	-0.063792	0.013513	0.997872	0.518500	-0.853908	0.044711	0.852695	0.520248	0.047466
22787	9.635490	0.318713	0.424565	0.002814	0.023629	0.005740	-0.063893	0.013332	0.997868	0.518573	-0.853869	0.044612	0.852643	0.520318	0.047643
22788	9.665249	0.449819	0.318087	0.021405	0.003778	0.004271	-0.063841	0.013278	0.997872	0.518823	-0.853720	0.044552	0.852495	0.520563	0.047613
22789	9.787519	0.508017	0.256958	0.023777	-0.009411	0.002833	-0.063675	0.013293	0.997882	0.519073	-0.853571	0.044493	0.852355	0.520807	0.047451
22790	9.853641	0.513604	0.197340	0.020362	-0.023574	-0.002341	-0.063423	0.013439	0.997896	0.519300	-0.853433	0.044499	0.852235	0.521030	0.047148
22791	9.843771	0.560961	0.250324	0.005341	-0.015816	0.002769	-0.063203	0.013489	0.997910	0.519393	-0.853380	0.044431	0.852195	0.521115	0.046930
22792	9.879470	0.492578	0.314286	-0.008841	-0.006044	0.003575	-0.063070	0.013495	0.997918	0.519368	-0.853398	0.044365	0.852220	0.521085	0.046815
22793	9.861660	0.520273	0.481835	-0.021511	0.003179	0.004955	-0.063000	0.013427	0.997923	0.519234	-0.853485	0.044263	0.852307	0.520944	0.046798
22794	9.848434	0.583053	0.556018	-0.028496	0.011122	-0.000760	-0.063036	0.013379	0.997922	0.519050	-0.853599	0.044231	0.852417	0.520759	0.046864
22795	9.801422	0.647976	0.623606	-0.049539	0.017244	-0.009489	-0.063162	0.013360	0.997914	0.518667	-0.853830	0.044260	0.852640	0.520381	0.047000
22796	9.775467	0.610016	0.654197	-0.065115	0.015981	-0.013076	-0.063302	0.013395	0.997905	0.518142	-0.854145	0.044334	0.852949	0.519863	0.047129
22797	9.756097	0.540663	0.648524	-0.076240	0.026203	-0.014172	-0.063528	0.013370	0.997890	0.517528	-0.854513	0.044396	0.853304	0.519257	0.047366
22798	9.686568	0.444587	0.624086	-0.064673	0.018143	-0.009803	-0.063671	0.013366	0.997881	0.517007	-0.854827	0.044439	0.853610	0.518741	0.047517
22799	9.683246	0.353974	0.540863	-0.054612	0.010626	-0.006010	-0.063722	0.013353	0.997878	0.516583	-0.855084	0.044430	0.853863	0.518318	0.047590
22800	9.743345	0.333598	0.505403	-0.030297	0.004861	-0.002982	-0.063716	0.013357	0.997879	0.516376	-0.855209	0.044419	0.853989	0.518110	0.047594
22801	9.749285	0.360022	0.484305	-0.007621	0.001229	0.000201	-0.063655	0.013339	0.997883	0.516357	-0.855223	0.044371	0.854005	0.518088	0.047551
22802	9.802094	0.428568	0.500101	0.006706	-0.000133	0.001769	-0.063582	0.013331	0.997888	0.516452	-0.855168	0.044331	0.853952	0.518180	0.047489
22803	9.753841	0.502103	0.493708	0.018766	0.004756	-0.004433	-0.063575	0.013334	0.997888	0.516655	-0.855045	0.044341	0.853830	0.518383	0.047470
22804	9.750498	0.518187	0.512003	0.019183	-0.004657	-0.001227	-0.063479	0.013375	0.997894	0.516854	-0.854924	0.044337	0.853717	0.518580	0.047357
22805	9.786304	0.509707	0.427630	0.020587	-0.008275	0.005458	-0.063309	0.013362	0.997905	0.517080	-0.854793	0.044250	0.853593	0.518797	0.047207
22806	9.820061	0.507594	0.433992	0.013175	-0.011752	0.007262	-0.063108	0.013365	0.997917	0.517242	-0.854700	0.044157	0.853510	0.518951	0.047026
22807	9.820109	0.507204	0.433359	-0.000784	-0.000490	0.001243	-0.063027	0.013347	0.997923	0.517281	-0.854678	0.044102	0.853491	0.518986	0.046963
22808	9.748876	0.476874	0.348552	-0.011012	-0.007570	0.003509	-0.062881	0.013362	0.997932	0.517231	-0.854712	0.044035	0.853533	0.518930	0.046834
22809	9.857167	0.489506	0.421654	-0.018656	-0.001689	-0.001678	-0.062804	0.013375	0.997936	0.517117	-0.854783	0.044001	0.853608	0.518813	0.046768
22810	9.854528	0.447363	0.424835	-0.031002	0.001251	0.000594	-0.062749	0.013371	0.997940	0.516876	-0.854931	0.043955	0.853757	0.518570	0.046735
22811	9.829980	0.399693	0.526596	-0.032673	0.008047	-0.004635	-0.062771	0.013359	0.997939	0.516640	-0.855074	0.043944	0.853898	0.518334	0.046772
22812	9.830449	0.449019	0.615958	-0.026986	0.016787	-0.008610	-0.062896	0.013351	0.997931	0.516448	-0.855188	0.043991	0.854005	0.518147	0.046893
22813	9.803803	0.469038	0.661636	-0.020772	0.019182	-0.015494	-0.063069	0.013374	0.997920	0.516307	-0.855268	0.044093	0.854078	0.518014	0.047036
22814	9.772574	0.513953	0.652846	-0.010046	0.013727	-0.012224	-0.063187	0.013412	0.997912	0.516257	-0.855293	0.044184	0.854100	0.517971	0.047119
22815	9.755926	0.486902	0.643126	0.001511	0.020307	-0.010128	-0.063342	0.013384	0.997902	0.516309	-0.855258	0.044243	0.854056	0.518029	0.047263
22816	9.729503	0.399945	0.585484	0.010925	0.020705	-0.002703	-0.063470	0.013309	0.997895	0.516411	-0.855197	0.044252	0.853986	0.518133	0.047406
22817	9.722251	0.382366	0.535899	0.032580	0.015096	0.008566	-0.063484	0.013148	0.997896	0.516740	-0.855004	0.044139	0.853785	0.518455	0.047485
22818	9.744213	0.387408	0.438820	0.048814	0.008427	0.008531	-0.063450	0.013032	0.997900	0.517229	-0.854713	0.044049	0.853492	0.518938	0.047491
22819	9.724417	0.540932	0.400826	0.059796	-0.000192	0.010356	-0.063323	0.012935	0.997909	0.517792	-0.854378	0.043932	0.853160	0.519491	0.047405
22820	9.797098	0.621252	0.408886	0.047453	-0.007259	0.009504	-0.063149	0.012894	0.997921	0.518252	-0.854104	0.043831	0.852894	0.519942	0.047254
22821	9.803131	0.647082	0.386903	0.023057	0.001628	0.004132	-0.063071	0.012841	0.997926	0.518497	-0.853959	0.043758	0.852751	0.520181	0.047202
22822	9.810302	0.664347	0.438238	0.001248	0.002623	0.002025	-0.063021	0.012815	0.997930	0.518546	-0.853932	0.043713	0.852724	0.520227	0.047170
22823	9.787821	0.609676	0.449000	-0.020173	0.008870	0.000852	-0.063021	0.012753	0.997931	0.518420	-0.854011	0.043652	0.852801	0.520099	0.047209
22824	9.823316	0.541387	0.515171	-0.036871	0.013411	-0.002386	-0.063084	0.012709	0.997927	0.518139	-0.854183	0.043632	0.852967	0.519818	0.047301
22825	9.831761	0.443506	0.537944	-0.053132	0.024743	-0.007743	-0.063265	0.012637	0.997917	0.517727	-0.854432	0.043642	0.853204	0.519409	0.047513
22826	9.805747	0.405312	0.569414	-0.046723	0.032451	-0.009898	-0.063530	0.012559	0.997901	0.517352	-0.854657	0.043692	0.853412	0.519041	0.047799
22827	9.754649	0.437213	0.569294	-0.039375	0.034405	-0.008635	-0.063797	0.012444	0.997885	0.517056	-0.854835	0.043717	0.853571	0.518751	0.048102
22828	9.717389	0.455102	0.583495	-0.021108	0.030846	-0.007876	-0.064039	0.012355	0.997871	0.516917	-0.854916	0.043759	0.853637	0.518619	0.048361
22829	9.727339	0.408659	0.530918	-0.004005	0.021537	-0.006816	-0.064187	0.012292	0.997862	0.516924	-0.854911	0.043782	0.853621	0.518630	0.048520
22830	9.733979	0.377709	0.496112	0.006454	0.019253	-0.002079	-0.064299	0.012215	0.997856	0.517010	-0.854859	0.043780	0.853561	0.518717	0.048651
22831	9.703653	0.363444	0.471283	0.024308	0.004239	0.006181	-0.064233	0.012131	0.997861	0.517268	-0.854708	0.043687	0.853410	0.518967	0.048625
22832	9.786388	0.396908	0.425413	0.039284	0.004958	0.007256	-0.064175	0.012044	0.997866	0.517669	-0.854469	0.043606	0.853171	0.519363	0.048601
22833	9.738171	0.469786	0.418665	0.042842	-0.002493	0.005494	-0.064054	0.012000	0.997874	0.518084	-0.854221	0.043529	0.852928	0.519771	0.048499
22834	9.810038	0.608509	0.442254	0.031213	-0.005955	0.001057	-0.063935	0.012026	0.997882	0.518392	-0.854035	0.043506	0.852749	0.520076	0.048369
22835	9.799916	0.655765	0.496703	0.009401	-0.004956	-0.001070	-0.063827	0.012052	0.997888	0.518518	-0.853961	0.043479	0.852681	0.520198	0.048257
22836	9.847392	0.640541	0.518532	-0.020107	0.000391	-0.005336	-0.063796	0.012102	0.997890	0.518365	-0.854053	0.043497	0.852777	0.520046	0.048212
22837	9.821466	0.602487	0.547532	-0.039778	0.007576	-0.012788	-0.063856	0.012162	0.997885	0.518063	-0.854232	0.043563	0.852955	0.519749	0.048247
22838	9.799932	0.539708	0.631551	-0.057785	0.013328	-0.006500	-0.063940	0.012155	0.997880	0.517591	-0.854518	0.043574	0.853236	0.519280	0.048347
22839	9.824790	0.469977	0.665855	-0.058620	0.027524	-0.007515	-0.064143	0.012067	0.997868	0.517132	-0.854796	0.043578	0.853499	0.518824	0.048589
22840	9.738204	0.403099	0.645315	-0.058037	0.028078	-0.004969	-0.064346	0.011966	0.997856	0.516685	-0.855066	0.043572	0.853754	0.518381	0.048838
22841	9.707767	0.389128	0.622079	-0.035953	0.023902	-0.004294	-0.064502	0.011869	0.997847	0.516421	-0.855226	0.043555	0.853902	0.518119	0.049034
22842	9.767950	0.368751	0.587798	-0.016599	0.012986	-0.000845	-0.064554	0.011810	0.997844	0.516337	-0.855279	0.043526	0.853949	0.518034	0.049114
22843	9.716837	0.351390	0.497066	0.000438	0.006794	-0.002107	-0.064552	0.011783	0.997845	0.516385	-0.855250	0.043505	0.853920	0.518081	0.049124
22844	9.759915	0.360720	0.464992	0.024259	-0.002662	0.000736	-0.064463	0.011791	0.997850	0.516649	-0.855093	0.043481	0.853767	0.518341	0.049030
22845	9.775573	0.446476	0.491585	0.030042	-0.001701	0.004487	-0.064355	0.011752	0.997858	0.516954	-0.854912	0.043408	0.853591	0.518640	0.048942
22846	9.781631	0.472741	0.469713	0.042398	-0.004639	0.002237	-0.064242	0.011757	0.997865	0.517384	-0.854653	0.043378	0.853338	0.519066	0.048822
22847	9.780862	0.530496	0.484719	0.033772	0.000817	0.002068	-0.064168	0.011725	0.997870	0.517720	-0.854452	0.043332	0.853141	0.519398	0.048758
22848	9.818103	0.561843	0.562156	0.023442	0.006874	0.005108	-0.064138	0.011646	0.997873	0.517983	-0.854296	0.043264	0.852983	0.519656	0.048760
22849	9.747376	0.580249	0.566041	0.008327	0.007745	0.004754	-0.064108	0.011556	0.997876	0.518103	-0.854228	0.043178	0.852912	0.519771	0.048776
22850	9.724090	0.583367	0.592086	-0.005672	0.007469	-0.001353	-0.064118	0.011529	0.997876	0.518118	-0.854219	0.043161	0.852902	0.519785	0.048798
22851	9.760948	0.517319	0.493877	-0.014598	0.004539	-0.000140	-0.064086	0.011497	0.997878	0.518039	-0.854270	0.043112	0.852953	0.519703	0.048791
22852	9.861877	0.512554	0.517156	-0.028199	0.004858	0.000078	-0.064065	0.011474	0.997880	0.517839	-0.854393	0.043070	0.853076	0.519501	0.048795
22853	9.838555	0.515986	0.543522	-0.034410	0.013327	-0.006869	-0.064143	0.011454	0.997875	0.517587	-0.854545	0.043080	0.853223	0.519250	0.048885
22854	9.794416	0.516318	0.504453	-0.042555	0.010895	-0.006898	-0.064211	0.011460	0.997871	0.517262	-0.854741	0.043101	0.853415	0.518928	0.048956
22855	9.829694	0.448733	0.570416	-0.039010	0.008106	-0.014044	-0.064281	0.011528	0.997865	0.516966	-0.854916	0.043179	0.853589	0.518638	0.048995
22856	9.807110	0.395055	0.581799	-0.042264	0.019287	-0.008272	-0.064427	0.011503	0.997856	0.516634	-0.855115	0.043214	0.853779	0.518311	0.049149
22857	9.711169	0.317717	0.600053	-0.026768	0.023670	-0.006965	-0.064594	0.011430	0.997846	0.516447	-0.855227	0.043228	0.853879	0.518127	0.049339
22858	9.743807	0.325616	0.536689	-0.001350	0.010527	-0.001218	-0.064629	0.011382	0.997844	0.516520	-0.855184	0.043209	0.853832	0.518200	0.049390
22859	9.736020	0.366107	0.501381	0.014986	0.000710	0.001088	-0.064558	0.011359	0.997849	0.516695	-0.855081	0.043163	0.853732	0.518370	0.049333
22860	9.805917	0.405082	0.513677	0.028456	0.001977	0.001604	-0.064506	0.011336	0.997853	0.516993	-0.854902	0.043133	0.853555	0.518666	0.049285
22861	9.838710	0.461391	0.537134	0.028890	0.008776	-0.000501	-0.064512	0.011285	0.997853	0.517285	-0.854726	0.043110	0.853378	0.518956	0.049302
22862	9.805016	0.512043	0.618957	0.027596	0.020845	-0.004776	-0.064653	0.011221	0.997845	0.517555	-0.854562	0.043144	0.853204	0.519229	0.049442
22863	9.723772	0.529734	0.591357	0.016802	0.024775	-0.005012	-0.064819	0.011126	0.997835	0.517741	-0.854448	0.043160	0.853078	0.519418	0.049624
22864	9.729688	0.508013	0.483647	0.024264	0.013574	-0.004543	-0.064896	0.011096	0.997830	0.517987	-0.854297	0.043189	0.852923	0.519666	0.049693
22865	9.770170	0.475381	0.455360	0.023632	0.006828	0.001349	-0.064877	0.011040	0.997832	0.518236	-0.854149	0.043145	0.852774	0.519911	0.049693
22866	9.857265	0.484620	0.464519	0.015731	0.011235	0.002987	-0.064896	0.010961	0.997832	0.518400	-0.854052	0.043096	0.852672	0.520073	0.049742
22867	9.904575	0.517992	0.576366	0.002545	0.023016	-0.004296	-0.065043	0.010868	0.997823	0.518465	-0.854012	0.043098	0.852622	0.520139	0.049913
22868	9.847415	0.523545	0.596939	-0.015969	0.035967	-0.012066	-0.065351	0.010788	0.997804	0.518354	-0.854075	0.043183	0.852666	0.520037	0.050223
22869	9.737558	0.460962	0.601937	-0.017153	0.034887	-0.017151	-0.065666	0.010744	0.997784	0.518242	-0.854137	0.043303	0.852709	0.519937	0.050520
22870	9.680321	0.467210	0.622833	-0.007289	0.032062	-0.014936	-0.065955	0.010706	0.997765	0.518215	-0.854147	0.043421	0.852703	0.519921	0.050787
22871	9.673294	0.450901	0.574177	0.004246	0.022424	-0.007495	-0.066114	0.010644	0.997755	0.518292	-0.854099	0.043455	0.852644	0.520002	0.050951
22872	9.777709	0.382469	0.492749	0.018514	0.019524	-0.002823	-0.066234	0.010566	0.997748	0.518508	-0.853968	0.043464	0.852504	0.520219	0.051083
22873	9.793977	0.410875	0.505893	0.033706	0.015532	-0.000116	-0.066296	0.010477	0.997745	0.518841	-0.853767	0.043440	0.852296	0.520551	0.051166
22874	9.746514	0.426414	0.484957	0.043429	0.014299	0.002833	-0.066341	0.010380	0.997743	0.519257	-0.853515	0.043405	0.852040	0.520964	0.051233
22875	9.758640	0.479226	0.443158	0.047514	0.010513	0.001293	-0.066353	0.010305	0.997743	0.519708	-0.853242	0.043375	0.851763	0.521413	0.051260
22876	9.761202	0.521425	0.440649	0.037352	0.004952	0.000456	-0.066330	0.010277	0.997745	0.520064	-0.853026	0.043361	0.851548	0.521768	0.051237
22877	9.757016	0.546197	0.386380	0.025681	-0.000060	-0.000957	-0.066264	0.010277	0.997749	0.520328	-0.852866	0.043341	0.851392	0.522029	0.051167
22878	9.820775	0.558944	0.419751	0.007840	-0.005941	0.001431	-0.066144	0.010298	0.997757	0.520432	-0.852804	0.043303	0.851337	0.522129	0.051048
22879	9.864654	0.559425	0.460329	-0.011314	0.004911	-0.005856	-0.066145	0.010313	0.997757	0.520378	-0.852837	0.043313	0.851370	0.522076	0.051044
22880	9.808269	0.555956	0.551354	-0.028015	0.009451	-0.009148	-0.066210	0.010348	0.997752	0.520152	-0.852972	0.043363	0.851503	0.521854	0.051093
22881	9.808798	0.547941	0.625531	-0.045586	0.016630	-0.013527	-0.066351	0.010367	0.997742	0.519801	-0.853183	0.043433	0.851707	0.521509	0.051221
22882	9.804097	0.455866	0.706411	-0.063085	0.020689	-0.015577	-0.066546	0.010395	0.997729	0.519292	-0.853487	0.043528	0.852002	0.521010	0.051398
22883	9.767658	0.416534	0.704329	-0.058067	0.027385	-0.019005	-0.066807	0.010405	0.997712	0.518831	-0.853762	0.043645	0.852262	0.520559	0.051639
22884	9.720608	0.424528	0.757766	-0.046853	0.030278	-0.020852	-0.067113	0.010429	0.997691	0.518456	-0.853982	0.043802	0.852467	0.520198	0.051906
22885	9.706540	0.440276	0.746134	-0.031461	0.026244	-0.021917	-0.067379	0.010470	0.997673	0.518219	-0.854117	0.043962	0.852590	0.519975	0.052124
22886	9.723000	0.421275	0.672130	-0.024885	0.023030	-0.014011	-0.067587	0.010472	0.997658	0.518036	-0.854223	0.044061	0.852684	0.519801	0.052310
22887	9.700855	0.319112	0.595772	-0.002842	0.017315	-0.010224	-0.067717	0.010460	0.997650	0.518051	-0.854211	0.044119	0.852665	0.519821	0.052426
22888	9.682883	0.358589	0.528203	0.032747	0.009748	-0.003566	-0.067757	0.010437	0.997647	0.518395	-0.854001	0.044142	0.852453	0.520166	0.052454
22889	9.721537	0.441851	0.530329	0.046206	-0.000541	-0.003102	-0.067698	0.010457	0.997651	0.518833	-0.853735	0.044155	0.852191	0.520603	0.052371
22890	9.873801	0.564560	0.584870	0.042021	-0.005187	-0.003966	-0.067613	0.010515	0.997656	0.519259	-0.853474	0.044187	0.851938	0.521030	0.052246
22891	9.832467	0.607258	0.541278	0.020910	0.011003	-0.009645	-0.067686	0.010530	0.997651	0.519477	-0.853338	0.044251	0.851800	0.521252	0.052289
22892	9.804830	0.636354	0.512899	0.004843	0.006053	-0.013534	-0.067747	0.010617	0.997646	0.519545	-0.853291	0.044361	0.851753	0.521328	0.052292
22893	9.789468	0.551579	0.486655	-0.011988	0.007508	-0.010728	-0.067796	0.010660	0.997642	0.519482	-0.853326	0.044420	0.851788	0.521269	0.052314
22894	9.778231	0.441740	0.515183	-0.018670	0.014537	-0.007072	-0.067895	0.010644	0.997636	0.519369	-0.853393	0.044451	0.851849	0.521159	0.052413
22895	9.758263	0.429864	0.523691	-0.019681	0.018766	-0.007430	-0.068022	0.010601	0.997627	0.519242	-0.853469	0.044473	0.851916	0.521035	0.052551
22896	9.760662	0.472495	0.522504	-0.013628	0.016556	-0.005118	-0.068128	0.010558	0.997621	0.519171	-0.853512	0.044488	0.851951	0.520966	0.052667
22897	9.767712	0.441905	0.487045	-0.007530	0.008988	-0.011319	-0.068192	0.010599	0.997616	0.519145	-0.853524	0.044554	0.851962	0.520945	0.052702
22898	9.757440	0.441473	0.454858	-0.009345	0.005821	-0.015898	-0.068263	0.010705	0.997610	0.519100	-0.853545	0.044679	0.851983	0.520910	0.052709
22899	9.777207	0.455266	0.448519	-0.012353	0.002250	-0.011678	-0.068272	0.010783	0.997608	0.519033	-0.853582	0.044747	0.852023	0.520847	0.052679
22900	9.820915	0.456634	0.489674	-0.015524	0.004947	-0.012104	-0.068314	0.010858	0.997605	0.518957	-0.853624	0.044828	0.852066	0.520776	0.052680
22901	9.847224	0.488042	0.535097	-0.022977	0.010805	-0.021097	-0.068445	0.010973	0.997595	0.518792	-0.853716	0.044984	0.852156	0.520623	0.052740
22902	9.792502	0.536670	0.550731	-0.026796	0.011419	-0.021014	-0.068589	0.011094	0.997583	0.518591	-0.853829	0.045151	0.852267	0.520435	0.052810
22903	9.804068	0.473592	0.642473	-0.044249	0.017016	-0.026131	-0.068798	0.011219	0.997567	0.518242	-0.854031	0.045346	0.852462	0.520101	0.052942
22904	9.750210	0.306889	0.615563	-0.044245	0.023920	-0.020664	-0.069048	0.011273	0.997550	0.517888	-0.854237	0.045501	0.852657	0.519761	0.053145
22905	9.692974	0.313005	0.634960	-0.015344	0.016500	-0.015789	-0.069200	0.011313	0.997539	0.517793	-0.854290	0.045608	0.852703	0.519674	0.053259
22906	9.728455	0.364173	0.568461	0.013562	0.009076	-0.010913	-0.069272	0.011361	0.997533	0.517935	-0.854198	0.045696	0.852610	0.519823	0.053288
22907	9.779457	0.492083	0.601091	0.027603	0.004013	-0.013274	-0.069304	0.011444	0.997530	0.518207	-0.854028	0.045800	0.852442	0.520102	0.053257
22908	9.799192	0.506328	0.594552	0.026432	0.002939	-0.018363	-0.069363	0.011583	0.997524	0.518484	-0.853851	0.045967	0.852270	0.520388	0.053220
22909	9.801494	0.550582	0.591959	0.019641	0.006205	-0.022489	-0.069462	0.011733	0.997516	0.518681	-0.853721	0.046160	0.852141	0.520599	0.053215
22910	9.756830	0.601001	0.639948	0.021450	0.009372	-0.017906	-0.069572	0.011830	0.997507	0.518936	-0.853558	0.046317	0.851977	0.520864	0.053245
22911	9.699607	0.607286	0.657927	0.005040	0.006041	-0.017302	-0.069642	0.011937	0.997501	0.519013	-0.853504	0.046450	0.851925	0.520950	0.053244
22912	9.763838	0.573102	0.604228	-0.000849	0.001977	-0.014972	-0.069675	0.012056	0.997497	0.519031	-0.853486	0.046570	0.851911	0.520977	0.053209
22913	9.697792	0.519484	0.573230	-0.011283	-0.000431	-0.014377	-0.069675	0.012172	0.997495	0.518971	-0.853517	0.046665	0.851947	0.520923	0.053152
22914	9.738617	0.488313	0.544128	-0.006390	-0.003717	-0.017152	-0.069671	0.012337	0.997494	0.518955	-0.853519	0.046803	0.851958	0.520915	0.053064
22915	9.815451	0.498111	0.519556	-0.004586	-0.007447	-0.018032	-0.069630	0.012520	0.997494	0.518949	-0.853515	0.046938	0.851964	0.520917	0.052933
22916	9.841681	0.529989	0.563550	-0.003744	-0.005398	-0.022319	-0.069638	0.012745	0.997491	0.518909	-0.853529	0.047132	0.851988	0.520889	0.052825
22917	9.770268	0.559759	0.493230	-0.007506	-0.003242	-0.025289	-0.069671	0.012968	0.997486	0.518873	-0.853539	0.047338	0.852007	0.520867	0.052738
22918	9.781591	0.505920	0.510359	-0.018142	-0.005613	-0.020912	-0.069670	0.013174	0.997483	0.518762	-0.853598	0.047507	0.852075	0.520766	0.052636
22919	9.761709	0.495106	0.516759	-0.027497	-0.003809	-0.017548	-0.069658	0.013334	0.997482	0.518562	-0.853713	0.047626	0.852198	0.520573	0.052553
22920	9.751519	0.494798	0.483457	-0.026039	-0.005908	-0.013920	-0.069618	0.013487	0.997483	0.518357	-0.853831	0.047722	0.852326	0.520375	0.052451
22921	9.723882	0.524339	0.453235	-0.013369	-0.018878	-0.023053	-0.069505	0.013772	0.997487	0.518274	-0.853872	0.047903	0.852386	0.520300	0.052211
22922	9.794750	0.508118	0.448212	-0.020393	-0.028708	-0.020441	-0.069305	0.014094	0.997496	0.518145	-0.853941	0.048066	0.852480	0.520179	0.051880
22923	9.820071	0.440011	0.477871	-0.033020	-0.021074	-0.019816	-0.069157	0.014363	0.997502	0.517896	-0.854084	0.048204	0.852644	0.519936	0.051627
22924	9.819241	0.490416	0.564593	-0.031982	-0.012165	-0.022413	-0.069107	0.014618	0.997502	0.517649	-0.854224	0.048382	0.852798	0.519699	0.051466
22925	9.761305	0.545103	0.669499	-0.031781	-0.005310	-0.020725	-0.069098	0.014813	0.997500	0.517410	-0.854361	0.048530	0.852944	0.519469	0.051370
22926	9.807820	0.580470	0.779742	-0.035210	-0.004769	-0.028200	-0.069142	0.015084	0.997493	0.517105	-0.854531	0.048766	0.853124	0.519181	0.051284
22927	9.824272	0.601827	0.864828	-0.047096	0.014944	-0.028697	-0.069347	0.015242	0.997476	0.516730	-0.854746	0.048986	0.853335	0.518823	0.051398
22928	9.744806	0.553930	0.893925	-0.042979	0.024310	-0.033183	-0.069665	0.015401	0.997452	0.516376	-0.854944	0.049266	0.853524	0.518492	0.051607
22929	9.661091	0.531153	0.869266	-0.025836	0.026612	-0.031978	-0.069986	0.015527	0.997427	0.516179	-0.855047	0.049529	0.853616	0.518318	0.051827
22930	9.701243	0.510753	0.769742	-0.004437	0.017290	-0.024642	-0.070200	0.015646	0.997410	0.516174	-0.855038	0.049742	0.853602	0.518329	0.051947
22931	9.669382	0.417436	0.586350	0.029165	0.005103	-0.015742	-0.070254	0.015745	0.997405	0.516458	-0.854859	0.049872	0.853426	0.518622	0.051925
22932	9.696764	0.509614	0.482612	0.048702	-0.008923	-0.009940	-0.070168	0.015873	0.997409	0.516924	-0.854572	0.049966	0.853151	0.519091	0.051759
22933	9.767927	0.601887	0.418445	0.049232	-0.016820	-0.009817	-0.070005	0.016035	0.997418	0.517383	-0.854289	0.050047	0.852886	0.519551	0.051508
22934	9.860831	0.639769	0.404413	0.033064	-0.011769	-0.010566	-0.069899	0.016184	0.997423	0.517714	-0.854083	0.050139	0.852694	0.519885	0.051321
22935	9.846942	0.654929	0.388860	0.016166	-0.005671	-0.013130	-0.069847	0.016316	0.997424	0.517889	-0.853972	0.050236	0.852592	0.520064	0.051198
22936	9.868669	0.601866	0.438714	0.006075	-0.002833	-0.011575	-0.069822	0.016429	0.997424	0.517973	-0.853916	0.050325	0.852543	0.520152	0.051112
22937	9.829610	0.568353	0.525058	-0.010528	0.006967	-0.010134	-0.069863	0.016470	0.997421	0.517922	-0.853943	0.050378	0.852570	0.520105	0.051129
22938	9.824112	0.533507	0.620144	-0.012585	0.015423	-0.010835	-0.069989	0.016485	0.997412	0.517832	-0.853994	0.050451	0.852615	0.520022	0.051233
22939	9.714166	0.627123	0.650966	-0.012831	0.020154	-0.012421	-0.070154	0.016477	0.997400	0.517760	-0.854033	0.050526	0.852645	0.519958	0.051383
22940	9.710235	0.643924	0.671375	-0.011902	0.019072	-0.014387	-0.070330	0.016499	0.997387	0.517698	-0.854064	0.050634	0.852668	0.519906	0.051525
22941	9.719666	0.656340	0.633211	-0.011949	0.010636	-0.016807	-0.070437	0.016578	0.997378	0.517630	-0.854098	0.050753	0.852700	0.519848	0.051579
22942	9.724786	0.584658	0.599967	-0.014446	0.003835	-0.017838	-0.070501	0.016711	0.997372	0.517532	-0.854149	0.050894	0.852755	0.519760	0.051570
22943	9.765752	0.553625	0.571312	-0.014693	0.002308	-0.011011	-0.070507	0.016784	0.997370	0.517445	-0.854198	0.050954	0.852807	0.519677	0.051542
22944	9.792880	0.536220	0.528313	-0.011268	0.008028	-0.011945	-0.070576	0.016847	0.997364	0.517363	-0.854243	0.051039	0.852851	0.519601	0.051573
22945	9.709572	0.511371	0.501378	-0.006316	0.000057	-0.009362	-0.070554	0.016917	0.997365	0.517348	-0.854249	0.051087	0.852862	0.519589	0.051518
22946	9.733016	0.509361	0.476204	-0.000976	-0.001092	-0.008866	-0.070530	0.016998	0.997365	0.517378	-0.854227	0.051146	0.852846	0.519622	0.051454
22947	9.772493	0.535472	0.462463	0.004464	-0.005387	-0.006055	-0.070444	0.017068	0.997370	0.517458	-0.854178	0.051166	0.852804	0.519701	0.051340
22948	9.817877	0.588084	0.427062	0.006279	-0.009111	-0.006942	-0.070342	0.017169	0.997375	0.517579	-0.854102	0.051206	0.852739	0.519823	0.051193
22949	9.804501	0.593401	0.484488	-0.003767	-0.004722	-0.008435	-0.070275	0.017257	0.997378	0.517587	-0.854094	0.051246	0.852740	0.519832	0.051089
22950	9.851925	0.579227	0.506703	-0.009356	0.001159	-0.010514	-0.070277	0.017338	0.997377	0.517552	-0.854112	0.051316	0.852761	0.519801	0.051051
22951	9.844867	0.601707	0.616880	-0.022349	0.010383	-0.005374	-0.070323	0.017321	0.997374	0.517404	-0.854202	0.051315	0.852847	0.519653	0.051108
22952	9.781759	0.579748	0.656907	-0.032350	0.016334	-0.009913	-0.070453	0.017322	0.997365	0.517156	-0.854348	0.051369	0.852987	0.519412	0.051233
22953	9.714358	0.583036	0.643247	-0.035494	0.020587	-0.013380	-0.070627	0.017320	0.997352	0.516890	-0.854505	0.051442	0.853134	0.519154	0.051398
22954	9.715785	0.526354	0.629670	-0.030940	0.018937	-0.011649	-0.070788	0.017320	0.997341	0.516662	-0.854638	0.051512	0.853258	0.518935	0.051549
22955	9.740773	0.466651	0.590474	-0.014812	0.012342	-0.007849	-0.070862	0.017313	0.997336	0.516576	-0.854689	0.051541	0.853304	0.518852	0.051622
22956	9.760431	0.479946	0.584771	0.005775	0.007236	-0.004633	-0.070888	0.017313	0.997334	0.516675	-0.854628	0.051560	0.853242	0.518953	0.051638
22957	9.752397	0.521035	0.549558	0.015875	0.004406	-0.006185	-0.070887	0.017334	0.997334	0.516852	-0.854519	0.051587	0.853135	0.519131	0.051615
22958	9.734278	0.560554	0.481120	0.021217	0.003258	-0.005689	-0.070883	0.017365	0.997333	0.517071	-0.854384	0.051625	0.853003	0.519351	0.051583
22959	9.819524	0.629277	0.506020	0.013719	0.002868	-0.006260	-0.070869	0.017394	0.997334	0.517229	-0.854287	0.051653	0.852908	0.519511	0.051546
22960	9.819460	0.630012	0.506347	0.012833	0.005511	-0.007339	-0.070894	0.017427	0.997332	0.517377	-0.854194	0.051703	0.852816	0.519662	0.051541
22961	9.757619	0.559778	0.457090	0.008076	0.007191	-0.005291	-0.070911	0.017426	0.997330	0.517488	-0.854126	0.051717	0.852747	0.519774	0.051550
22962	9.714327	0.550129	0.489367	0.009499	0.003519	0.001379	-0.070873	0.017395	0.997334	0.517613	-0.854053	0.051678	0.852674	0.519896	0.051526
22963	9.791177	0.558643	0.465807	0.004743	0.005198	0.003425	-0.070829	0.017329	0.997338	0.517702	-0.854003	0.051604	0.852624	0.519979	0.051517
22964	9.797457	0.575750	0.517957	-0.007413	0.009606	-0.001193	-0.070855	0.017291	0.997337	0.517667	-0.854026	0.051584	0.852643	0.519943	0.051561
22965	9.809565	0.619901	0.549304	-0.009620	0.012774	-0.006628	-0.070928	0.017271	0.997332	0.517626	-0.854049	0.051602	0.852662	0.519905	0.051636
22966	9.752334	0.624555	0.567752	-0.020640	0.009807	-0.008585	-0.070995	0.017289	0.997327	0.517514	-0.854115	0.051646	0.852724	0.519797	0.051691
22967	9.772360	0.628451	0.635053	-0.030892	0.014224	-0.006304	-0.071078	0.017259	0.997321	0.517292	-0.854249	0.051650	0.852852	0.519578	0.051791
22968	9.805433	0.527860	0.631209	-0.026669	0.007308	-0.005534	-0.071108	0.017269	0.997319	0.517097	-0.854366	0.051662	0.852968	0.519384	0.051823
22969	9.836831	0.484966	0.642992	-0.027074	0.013632	-0.006381	-0.071186	0.017243	0.997314	0.516908	-0.854480	0.051669	0.853076	0.519197	0.051914
22970	9.749767	0.475100	0.635475	-0.018161	0.016623	-0.007541	-0.071306	0.017222	0.997306	0.516777	-0.854557	0.051706	0.853146	0.519071	0.052035
22971	9.705986	0.475318	0.596150	-0.010363	0.013842	-0.008432	-0.071396	0.017213	0.997299	0.516728	-0.854584	0.051742	0.853167	0.519027	0.052120
22972	9.752965	0.470556	0.547050	0.000628	0.008370	-0.008902	-0.071453	0.017246	0.997295	0.516759	-0.854562	0.051802	0.853144	0.519063	0.052149
22973	9.758773	0.498021	0.526657	0.009645	0.008209	-0.007749	-0.071492	0.017260	0.997292	0.516882	-0.854485	0.051842	0.853066	0.519189	0.052167
22974	9.790568	0.555209	0.551058	0.025224	0.009522	-0.004053	-0.071533	0.017243	0.997289	0.517143	-0.854326	0.051865	0.852904	0.519451	0.052195
22975	9.763124	0.573886	0.595713	0.022313	0.015917	-0.000464	-0.071600	0.017155	0.997286	0.517379	-0.854185	0.051839	0.852755	0.519687	0.052284
22976	9.733248	0.559797	0.570693	0.019575	0.013848	-0.003085	-0.071673	0.017110	0.997281	0.517579	-0.854063	0.051850	0.852628	0.519888	0.052358
22977	9.723120	0.558587	0.538927	0.021877	0.013804	-0.003740	-0.071739	0.017060	0.997277	0.517809	-0.853923	0.051857	0.852483	0.520120	0.052426
22978	9.754897	0.615580	0.563432	0.014786	0.007088	-0.003470	-0.071757	0.017053	0.997276	0.517967	-0.853826	0.051870	0.852385	0.520278	0.052435
22979	9.801967	0.610530	0.513610	-0.003423	0.000547	-0.007479	-0.071730	0.017105	0.997277	0.517979	-0.853818	0.051900	0.852381	0.520291	0.052384
22980	9.833406	0.568144	0.524586	-0.021557	0.004010	-0.012106	-0.071766	0.017185	0.997273	0.517836	-0.853899	0.051979	0.852464	0.520155	0.052382
22981	9.841228	0.528846	0.561437	-0.033542	0.015276	-0.015034	-0.071903	0.017225	0.997263	0.517586	-0.854046	0.052069	0.852605	0.519913	0.052493
22982	9.768268	0.496304	0.641366	-0.027241	0.021493	-0.014067	-0.072098	0.017228	0.997249	0.517407	-0.854148	0.052163	0.852697	0.519744	0.052668
22983	9.801642	0.496294	0.651621	-0.022204	0.023523	-0.012098	-0.072290	0.017200	0.997235	0.517255	-0.854236	0.052230	0.852773	0.519601	0.052856
22984	9.744278	0.501210	0.670953	-0.013668	0.019687	-0.011172	-0.072455	0.017191	0.997224	0.517179	-0.854278	0.052303	0.852805	0.519532	0.053006
22985	9.779447	0.553072	0.605727	-0.005291	0.023722	-0.017912	-0.072679	0.017211	0.997207	0.517167	-0.854277	0.052436	0.852793	0.519533	0.053187
22986	9.753371	0.524700	0.562789	0.006392	0.015630	-0.013517	-0.072821	0.017244	0.997196	0.517254	-0.854218	0.052544	0.852728	0.519630	0.053285
22987	9.751188	0.483725	0.566888	0.015360	0.013910	-0.009311	-0.072917	0.017241	0.997189	0.517424	-0.854111	0.052603	0.852617	0.519805	0.053358
22988	9.711393	0.468611	0.508439	0.023267	0.007981	-0.007883	-0.072964	0.017265	0.997185	0.517665	-0.853961	0.052662	0.852467	0.520050	0.053371
22989	9.726997	0.507243	0.447918	0.033632	0.000422	-0.007840	-0.072937	0.017320	0.997186	0.517992	-0.853759	0.052716	0.852270	0.520379	0.053299
22990	9.802250	0.565348	0.512342	0.033782	-0.001161	-0.008571	-0.072911	0.017399	0.997187	0.518305	-0.853565	0.052790	0.852082	0.520696	0.053216
22991	9.766785	0.625415	0.519477	0.028467	-0.006893	-0.014550	-0.072857	0.017550	0.997188	0.518583	-0.853389	0.052908	0.851918	0.520979	0.053074
22992	9.792558	0.656628	0.564099	0.007639	0.005093	-0.008552	-0.072884	0.017595	0.997185	0.518687	-0.853322	0.052967	0.851852	0.521088	0.053067
22993	9.794686	0.690405	0.634581	-0.007457	0.007444	-0.012032	-0.072938	0.017649	0.997180	0.518661	-0.853333	0.053040	0.851863	0.521068	0.053087
22994	9.774802	0.678855	0.642220	-0.022707	0.011382	-0.014781	-0.073051	0.017715	0.997171	0.518497	-0.853426	0.053146	0.851953	0.520913	0.053159
22995	9.788439	0.666420	0.658479	-0.035181	0.018962	-0.017950	-0.073235	0.017760	0.997157	0.518231	-0.853581	0.053264	0.852100	0.520658	0.053308
22996	9.732797	0.513924	0.649057	-0.034960	0.021105	-0.010894	-0.073411	0.017740	0.997144	0.517979	-0.853730	0.053322	0.852238	0.520414	0.053484
22997	9.783926	0.484396	0.655147	-0.025483	0.016198	-0.011926	-0.073540	0.017748	0.997134	0.517799	-0.853835	0.053385	0.852336	0.520241	0.053601
22998	9.764028	0.472725	0.663418	-0.011074	0.016473	-0.013298	-0.073688	0.017776	0.997123	0.517729	-0.853872	0.053483	0.852366	0.520180	0.053717
22999	9.783596	0.486804	0.658275	-0.005418	0.012156	-0.014258	-0.073795	0.017825	0.997114	0.517718	-0.853872	0.053580	0.852363	0.520178	0.053783
23000	9.741916	0.529875	0.615655	0.001651	0.010443	-0.016949	-0.073912	0.017910	0.997104	0.517780	-0.853826	0.053718	0.852315	0.520251	0.053834
23001	9.753648	0.575385	0.647220	-0.000919	0.015228	-0.017873	-0.074063	0.017974	0.997092	0.517805	-0.853802	0.053853	0.852287	0.520288	0.053928
23002	9.737661	0.548772	0.636527	0.006996	0.009303	-0.016441	-0.074167	0.018063	0.997082	0.517901	-0.853735	0.053990	0.852219	0.520394	0.053964
23003	9.727608	0.548519	0.604237	0.007685	0.006676	-0.011586	-0.074213	0.018118	0.997078	0.518004	-0.853668	0.054068	0.852153	0.520503	0.053968
23004	9.727511	0.549839	0.604603	0.010457	0.001874	-0.014437	-0.074244	0.018228	0.997074	0.518137	-0.853580	0.054186	0.852069	0.520643	0.053929
23005	9.739194	0.604479	0.562002	0.015440	-0.006105	-0.011853	-0.074182	0.018351	0.997076	0.518306	-0.853472	0.054270	0.851972	0.520816	0.053801
23006	9.784581	0.648481	0.599878	0.015755	-0.000834	-0.010885	-0.074171	0.018446	0.997075	0.518478	-0.853362	0.054356	0.851868	0.520993	0.053731
23007	9.802213	0.720226	0.609155	0.008621	0.005600	-0.013551	-0.074218	0.018523	0.997070	0.518587	-0.853289	0.054454	0.851797	0.521109	0.053724
23008	9.810029	0.681230	0.645973	-0.009364	0.015900	-0.016501	-0.074379	0.018574	0.997057	0.518564	-0.853295	0.054580	0.851798	0.521097	0.053835
23009	9.738732	0.609805	0.564240	-0.019056	0.012379	-0.014127	-0.074487	0.018621	0.997048	0.518437	-0.853366	0.054668	0.851865	0.520979	0.053911
23010	9.697249	0.543027	0.581325	-0.014696	0.010750	-0.008610	-0.074563	0.018640	0.997042	0.518329	-0.853429	0.054718	0.851924	0.520876	0.053973
23011	9.805630	0.609500	0.582460	-0.015951	0.006558	-0.007613	-0.074588	0.018662	0.997040	0.518234	-0.853485	0.054743	0.851980	0.520783	0.053989
23012	9.777820	0.638035	0.554124	-0.022619	0.008232	-0.012477	-0.074662	0.018723	0.997033	0.518074	-0.853577	0.054825	0.852071	0.520630	0.054030
23013	9.763927	0.643922	0.612777	-0.029868	0.000935	-0.022322	-0.074715	0.018899	0.997026	0.517849	-0.853703	0.054989	0.852203	0.520418	0.053997
23014	9.781582	0.616724	0.609171	-0.037951	0.000007	-0.025456	-0.074786	0.019118	0.997016	0.517530	-0.853883	0.055193	0.852391	0.520113	0.053964
23015	9.783513	0.561087	0.593589	-0.031444	-0.000077	-0.019857	-0.074817	0.019279	0.997011	0.517293	-0.854018	0.055332	0.852532	0.519887	0.053923
23016	9.728265	0.508806	0.594785	-0.020746	-0.002354	-0.018840	-0.074834	0.019447	0.997006	0.517157	-0.854091	0.055477	0.852613	0.519760	0.053857
23017	9.714458	0.514540	0.652397	-0.013023	-0.008262	-0.013635	-0.074763	0.019597	0.997009	0.517082	-0.854131	0.055563	0.852665	0.519689	0.053724
23018	9.804993	0.610926	0.656111	-0.011191	-0.003542	-0.012083	-0.074735	0.019717	0.997009	0.517015	-0.854166	0.055647	0.852708	0.519627	0.053642
23019	9.830542	0.642121	0.701230	-0.010211	0.005399	-0.014649	-0.074785	0.019805	0.997003	0.516963	-0.854191	0.055746	0.852735	0.519582	0.053643
23020	9.763246	0.645660	0.686013	-0.012588	0.010172	-0.019345	-0.074911	0.019916	0.996991	0.516879	-0.854231	0.055901	0.852774	0.519512	0.053698
23021	9.709791	0.635544	0.685626	-0.008919	0.011171	-0.018682	-0.075032	0.020008	0.996980	0.516836	-0.854248	0.056040	0.852790	0.519480	0.053756
23022	9.658432	0.577142	0.596224	-0.002283	-0.000521	-0.013221	-0.075036	0.020119	0.996978	0.516858	-0.854229	0.056139	0.852776	0.519508	0.053699
23023	9.721349	0.610780	0.485023	0.004778	-0.010104	-0.004481	-0.074902	0.020201	0.996986	0.516941	-0.854178	0.056144	0.852737	0.519589	0.053537
23024	9.792479	0.594082	0.481336	0.012170	-0.014975	-0.008639	-0.074759	0.020346	0.996994	0.517104	-0.854075	0.056204	0.852652	0.519751	0.053329
23025	9.752670	0.678867	0.433328	0.002881	-0.018530	-0.013822	-0.074602	0.020551	0.997002	0.517164	-0.854032	0.056301	0.852629	0.519814	0.053084
23026	9.780429	0.652610	0.460636	-0.019621	-0.019759	-0.015587	-0.074454	0.020782	0.997008	0.517038	-0.854101	0.056415	0.852718	0.519691	0.052846
23027	9.788505	0.613405	0.495017	-0.043814	-0.010410	-0.014751	-0.074371	0.020953	0.997011	0.516700	-0.854301	0.056496	0.852931	0.519357	0.052709
23028	9.820212	0.571654	0.505100	-0.056792	-0.006514	-0.018147	-0.074348	0.021140	0.997008	0.516240	-0.854571	0.056617	0.853211	0.518905	0.052622
23029	9.796485	0.575951	0.529658	-0.063790	-0.010090	-0.023977	-0.074315	0.021388	0.997005	0.515724	-0.854871	0.056780	0.853526	0.518399	0.052499
23030	9.792832	0.493818	0.533840	-0.054882	-0.015495	-0.027562	-0.074264	0.021701	0.997002	0.515278	-0.855126	0.056995	0.853800	0.517966	0.052323
23031	9.834045	0.554380	0.590258	-0.047672	-0.001894	-0.026089	-0.074312	0.021925	0.996994	0.514898	-0.855342	0.057188	0.854025	0.517599	0.052273
23032	9.800533	0.547602	0.655093	-0.037598	0.002171	-0.022137	-0.074384	0.022099	0.996985	0.514606	-0.855506	0.057357	0.854194	0.517320	0.052263
23033	9.762837	0.565679	0.666143	-0.029671	0.004686	-0.018269	-0.074447	0.022222	0.996977	0.514385	-0.855631	0.057482	0.854322	0.517110	0.052268
23034	9.707525	0.523115	0.595046	-0.018759	0.002406	-0.021041	-0.074516	0.022383	0.996969	0.514270	-0.855688	0.057649	0.854385	0.517007	0.052251
23035	9.695765	0.481102	0.564514	-0.003506	-0.003105	-0.015269	-0.074497	0.022520	0.996967	0.514276	-0.855678	0.057757	0.854383	0.517018	0.052163
23036	9.736745	0.550559	0.548857	0.007515	-0.000116	-0.013286	-0.074503	0.022632	0.996964	0.514368	-0.855615	0.057862	0.854327	0.517117	0.052105
23037	9.748133	0.605586	0.506480	0.005843	-0.006414	-0.015582	-0.074458	0.022789	0.996964	0.514453	-0.855557	0.057978	0.854280	0.517208	0.051979
23038	9.767134	0.720277	0.512788	0.001196	-0.008447	-0.025107	-0.074454	0.023043	0.996958	0.514497	-0.855515	0.058197	0.854253	0.517265	0.051841
23039	9.758984	0.753560	0.549087	-0.009365	-0.007754	-0.026845	-0.074455	0.023303	0.996952	0.514444	-0.855532	0.058417	0.854286	0.517225	0.051711
23040	9.820288	0.727425	0.585440	-0.033612	-0.008432	-0.025398	-0.074454	0.023560	0.996946	0.514187	-0.855673	0.058622	0.854441	0.516981	0.051594
23041	9.788852	0.673312	0.561214	-0.048258	-0.000818	-0.031655	-0.074539	0.023825	0.996933	0.513797	-0.855889	0.058870	0.854667	0.516610	0.051556
23042	9.734229	0.531871	0.475612	-0.058140	-0.012782	-0.027967	-0.074512	0.024129	0.996928	0.513316	-0.856163	0.059088	0.854959	0.516142	0.051409
23043	9.710946	0.446895	0.413341	-0.061081	-0.014834	-0.026817	-0.074452	0.024425	0.996925	0.512820	-0.856447	0.059282	0.855262	0.515657	0.051239
23044	9.797685	0.460492	0.421420	-0.052516	-0.018644	-0.025904	-0.074365	0.024738	0.996924	0.512402	-0.856683	0.059481	0.855520	0.515249	0.051032
23045	9.800880	0.547658	0.415376	-0.053951	-0.013321	-0.035583	-0.074363	0.025102	0.996915	0.511960	-0.856927	0.059766	0.855784	0.514825	0.050872
23046	9.776032	0.663368	0.380198	-0.044389	-0.025034	-0.042146	-0.074303	0.025586	0.996907	0.511609	-0.857112	0.060130	0.855999	0.514495	0.050596
23047	9.795744	0.670633	0.444168	-0.054588	-0.024311	-0.051419	-0.074287	0.026141	0.996894	0.511150	-0.857354	0.060573	0.856275	0.514062	0.050328
23048	9.763839	0.708079	0.504704	-0.067220	-0.019895	-0.048459	-0.074303	0.026654	0.996879	0.510593	-0.857657	0.060989	0.856606	0.513532	0.050118
23049	9.718834	0.659357	0.537204	-0.081067	-0.018086	-0.047550	-0.074320	0.027144	0.996865	0.509910	-0.858035	0.061380	0.857011	0.512873	0.049928
23050	9.721134	0.605840	0.519494	-0.084210	-0.020140	-0.042624	-0.074304	0.027610	0.996853	0.509198	-0.858433	0.061731	0.857436	0.512183	0.049726
23051	9.707838	0.371391	0.550028	-0.099009	-0.017267	-0.039736	-0.074287	0.028030	0.996843	0.508366	-0.858904	0.062036	0.857931	0.511369	0.049556
23052	9.760229	0.324038	0.698090	-0.085812	-0.001101	-0.041244	-0.074427	0.028383	0.996822	0.507656	-0.859299	0.062371	0.858339	0.510685	0.049546
23053	9.758685	0.506457	0.872778	-0.069575	0.013508	-0.055470	-0.074753	0.028781	0.996787	0.507064	-0.859614	0.062847	0.858661	0.510132	0.049665
23054	9.750006	0.762887	1.084428	-0.081109	0.028063	-0.075669	-0.075318	0.029283	0.996730	0.506359	-0.859979	0.063529	0.859027	0.509488	0.049944
23055	9.724489	0.860901	1.200931	-0.109178	0.046015	-0.089766	-0.076096	0.029811	0.996655	0.505400	-0.860484	0.064326	0.859523	0.508604	0.050413
23056	9.683633	0.853184	1.146989	-0.118986	0.052118	-0.101775	-0.076998	0.030415	0.996567	0.504356	-0.861027	0.065246	0.860056	0.507649	0.050958
23057	9.680027	0.709569	0.924153	-0.124490	0.038493	-0.092640	-0.077725	0.031007	0.996493	0.503260	-0.861606	0.066064	0.860632	0.506630	0.051364
23058	9.761634	0.208723	0.686929	-0.114126	0.024981	-0.066702	-0.078217	0.031454	0.996440	0.502248	-0.862152	0.066640	0.861179	0.505672	0.051637
23059	9.754321	-0.106402	0.467843	-0.049658	0.013325	-0.046255	-0.078493	0.031775	0.996408	0.501831	-0.862365	0.067033	0.861397	0.505290	0.051744
23060	9.751178	-0.164993	0.326970	0.048061	-0.008215	-0.035718	-0.078542	0.032120	0.996393	0.502256	-0.862090	0.067381	0.861145	0.505736	0.051578
23061	9.717450	0.187386	0.196545	0.127931	-0.031342	-0.045848	-0.078432	0.032663	0.996384	0.503368	-0.861403	0.067862	0.860505	0.506870	0.051120
23062	9.825059	0.586023	0.217541	0.150185	-0.045680	-0.058456	-0.078274	0.033389	0.996373	0.504674	-0.860589	0.068485	0.859754	0.508204	0.050511
23063	9.833784	0.745877	0.184983	0.129709	-0.055347	-0.059551	-0.078028	0.034172	0.996365	0.505789	-0.859885	0.069101	0.859121	0.509342	0.049811
23064	9.826273	0.824550	0.214066	0.093999	-0.054313	-0.061576	-0.077812	0.034972	0.996354	0.506594	-0.859361	0.069727	0.858667	0.510172	0.049152
23065	9.850999	0.797123	0.401331	0.040850	-0.037357	-0.059105	-0.077720	0.035661	0.996337	0.506945	-0.859107	0.070293	0.858467	0.510552	0.048692
23066	9.849445	0.697503	0.547756	-0.010290	-0.015704	-0.058833	-0.077822	0.036239	0.996308	0.506864	-0.859110	0.070840	0.858506	0.510506	0.048490
23067	9.799576	0.559271	0.749243	-0.050372	0.012170	-0.062638	-0.078173	0.036705	0.996264	0.506430	-0.859320	0.071397	0.858730	0.510119	0.048588
23068	9.779468	0.304190	0.895310	-0.069008	0.043990	-0.062005	-0.078804	0.037006	0.996203	0.505836	-0.859624	0.071947	0.859022	0.509586	0.049023
23069	9.809573	0.293218	1.145236	-0.037441	0.073315	-0.075326	-0.079744	0.037270	0.996118	0.505502	-0.859763	0.072636	0.859132	0.509332	0.049721
23070	9.725691	0.394324	1.282384	0.003486	0.085788	-0.096245	-0.080907	0.037651	0.996010	0.505516	-0.859676	0.073560	0.859016	0.509450	0.050521
23071	9.465042	0.419368	1.187004	0.063315	0.080549	-0.100413	-0.082036	0.038093	0.995901	0.506025	-0.859291	0.074550	0.858609	0.510066	0.051217
23072	9.337142	0.432438	0.905221	0.133650	0.034564	-0.093161	-0.082745	0.038704	0.995819	0.507167	-0.858534	0.075509	0.857867	0.511294	0.051410
23073	9.491909	0.221790	0.544224	0.195520	-0.015195	-0.061537	-0.082857	0.039299	0.995786	0.508839	-0.857484	0.076180	0.856865	0.513007	0.051051
23074	9.726345	0.082707	0.297087	0.284069	-0.047030	-0.034512	-0.082569	0.039829	0.995789	0.511287	-0.855987	0.076632	0.855435	0.515461	0.050314
23075	9.769101	0.334835	0.193774	0.356867	-0.067223	-0.035354	-0.082105	0.040469	0.995802	0.514354	-0.854103	0.077120	0.853639	0.518526	0.049311
23076	9.717625	0.863321	0.190028	0.387366	-0.086424	-0.043801	-0.081533	0.041283	0.995815	0.517675	-0.852041	0.077707	0.851684	0.521844	0.048098
23077	9.651962	1.396521	0.239047	0.340884	-0.100023	-0.051646	-0.080879	0.042237	0.995829	0.520580	-0.850212	0.078341	0.849974	0.524744	0.046777
23078	9.707412	1.532921	0.290410	0.243808	-0.105770	-0.056528	-0.080213	0.043262	0.995838	0.522667	-0.848871	0.078978	0.848755	0.526827	0.045479
23079	9.790318	1.383648	0.297910	0.149893	-0.102799	-0.060879	-0.079589	0.044312	0.995842	0.523937	-0.848029	0.079609	0.848031	0.528094	0.044277
23080	9.911305	1.167845	0.373124	0.094284	-0.080021	-0.062561	-0.079175	0.045263	0.995833	0.524715	-0.847488	0.080238	0.847588	0.528882	0.043350
23081	9.871845	1.003045	0.532946	0.054371	-0.065749	-0.059932	-0.078862	0.046110	0.995819	0.525175	-0.847148	0.080816	0.847332	0.529352	0.042592
23082	9.877132	0.882344	0.732877	0.012438	-0.044675	-0.058743	-0.078731	0.046835	0.995795	0.525294	-0.847021	0.081369	0.847271	0.529491	0.042084
23083	10.032727	0.832920	0.975639	-0.013103	-0.008361	-0.065623	-0.078933	0.047427	0.995751	0.525177	-0.847035	0.081974	0.847324	0.529417	0.041952
23084	9.834482	0.846301	1.217802	0.007649	0.030085	-0.082386	-0.079562	0.047952	0.995676	0.525257	-0.846910	0.082759	0.847216	0.529570	0.042194
23085	9.566585	0.879019	1.301148	0.062836	0.043861	-0.094807	-0.080360	0.048514	0.995585	0.525759	-0.846507	0.083687	0.846829	0.530163	0.042519
23086	9.471901	0.773009	1.250254	0.114343	0.037140	-0.085183	-0.081062	0.049030	0.995502	0.526708	-0.845831	0.084548	0.846173	0.531192	0.042740
23087	9.595689	0.520656	1.178521	0.179505	0.034201	-0.067951	-0.081639	0.049414	0.995436	0.528217	-0.844818	0.085258	0.845176	0.532766	0.042869
23088	9.620318	0.300108	1.154428	0.244447	0.056649	-0.047308	-0.082307	0.049506	0.995377	0.530281	-0.843469	0.085799	0.843817	0.534892	0.043172
23089	9.389248	0.424967	1.002602	0.334344	0.047275	-0.035054	-0.082821	0.049540	0.995332	0.533117	-0.841634	0.086250	0.841978	0.537772	0.043295
23090	9.234064	0.710728	0.593346	0.411353	-0.010351	-0.029675	-0.082833	0.049835	0.995317	0.536610	-0.839366	0.086684	0.839755	0.541277	0.042785
23091	9.308845	1.068536	0.098215	0.456417	-0.101601	-0.020577	-0.082021	0.050551	0.995348	0.540466	-0.836851	0.087038	0.837358	0.545091	0.041318
23092	9.589757	1.400232	-0.306503	0.439083	-0.175822	-0.015944	-0.080577	0.051640	0.995410	0.544170	-0.834417	0.087338	0.835097	0.548709	0.039134
23093	9.895144	1.529337	-0.436669	0.350031	-0.205644	-0.026270	-0.078934	0.052983	0.995471	0.547114	-0.832452	0.087689	0.833328	0.551558	0.036721
23094	10.066210	1.421103	-0.121283	0.201888	-0.169585	-0.033862	-0.077644	0.054199	0.995507	0.548803	-0.831300	0.088063	0.832338	0.553175	0.034801
23095	10.067096	1.359789	0.485703	0.059591	-0.118102	-0.047682	-0.076852	0.055242	0.995511	0.549307	-0.830919	0.088515	0.832079	0.553644	0.033513
23096	10.085047	1.455330	1.097718	-0.049070	-0.066337	-0.056280	-0.076547	0.056071	0.995488	0.548906	-0.831130	0.089022	0.832372	0.553244	0.032843
23097	9.900550	1.511089	1.437601	-0.124693	-0.032284	-0.084314	-0.076670	0.056944	0.995429	0.547849	-0.831746	0.089777	0.833057	0.552228	0.032573
23098	9.544787	1.451142	1.444903	-0.142846	-0.038445	-0.108773	-0.076885	0.058054	0.995348	0.546632	-0.832438	0.090776	0.833836	0.551069	0.032268
23099	9.398961	1.242321	1.235499	-0.124704	-0.064938	-0.110291	-0.076874	0.059323	0.995274	0.545553	-0.833035	0.091791	0.834543	0.550031	0.031675
23100	9.396737	0.919715	1.024600	-0.072813	-0.097186	-0.094454	-0.076520	0.060633	0.995223	0.544949	-0.833332	0.092669	0.834970	0.549437	0.030725
23101	9.529597	0.768446	0.988094	-0.026058	-0.114784	-0.075986	-0.075904	0.061889	0.995193	0.544719	-0.833404	0.093374	0.835177	0.549188	0.029547
23102	9.589830	0.806975	0.864234	0.023502	-0.117209	-0.069400	-0.075245	0.063104	0.995166	0.544916	-0.833201	0.094035	0.835107	0.549358	0.028307
23103	9.376171	1.024796	0.681084	0.072904	-0.148501	-0.069875	-0.074314	0.064495	0.995147	0.545518	-0.832731	0.094707	0.834798	0.549909	0.026700
23104	9.295300	1.292258	0.281434	0.135441	-0.221374	-0.059420	-0.072735	0.066201	0.995152	0.546660	-0.831915	0.095297	0.834190	0.550941	0.024320
23105	9.484816	1.385423	-0.142749	0.165716	-0.301184	-0.033614	-0.070336	0.068135	0.995194	0.548062	-0.830953	0.095625	0.833475	0.552154	0.021104
23106	9.685871	1.515943	-0.309151	0.167859	-0.342012	-0.016664	-0.067519	0.070158	0.995248	0.549494	-0.829989	0.095787	0.832765	0.553350	0.017488
23107	9.872355	1.701968	-0.334651	0.122530	-0.353736	-0.006711	-0.064539	0.072166	0.995302	0.550555	-0.829281	0.095829	0.832301	0.554153	0.013790
23108	9.926957	1.540838	-0.281306	0.026746	-0.346914	0.006603	-0.061557	0.074030	0.995354	0.550828	-0.829111	0.095731	0.832346	0.554162	0.010260
23109	9.927492	1.181976	0.070024	-0.087990	-0.319571	0.018325	-0.058724	0.075641	0.995404	0.550151	-0.829587	0.095496	0.832998	0.553230	0.007103
23110	9.914658	0.928125	0.492596	-0.135003	-0.289793	0.014081	-0.056174	0.077117	0.995438	0.549100	-0.830304	0.095310	0.833867	0.551949	0.004296
23111	9.776069	0.764778	0.842696	-0.146527	-0.263124	0.013775	-0.053831	0.078446	0.995464	0.547929	-0.831099	0.095124	0.834791	0.550564	0.001756
23112	9.612414	0.779628	1.131861	-0.105695	-0.245836	-0.009206	-0.051770	0.079871	0.995460	0.547087	-0.831647	0.095179	0.835473	0.549530	-0.000642
23113	9.510081	0.769533	1.293405	-0.058550	-0.251842	-0.021589	-0.049712	0.081426	0.995439	0.546631	-0.831927	0.095350	0.835897	0.548878	-0.003154
23114	9.464878	0.665637	1.351815	0.015420	-0.258900	-0.016774	-0.047582	0.082985	0.995414	0.546779	-0.831815	0.095483	0.835924	0.548815	-0.005795
23115	9.483919	0.747787	1.423726	0.105462	-0.262009	-0.005518	-0.045351	0.084463	0.995394	0.547702	-0.831207	0.095485	0.835444	0.549509	-0.008564
23116	9.495458	0.811095	1.444300	0.179907	-0.258525	0.004601	-0.043112	0.085840	0.995376	0.549252	-0.830195	0.095385	0.834544	0.550824	-0.011356
23117	9.358362	0.901460	1.311937	0.248156	-0.271149	0.011022	-0.040719	0.087238	0.995355	0.551370	-0.828812	0.095197	0.833267	0.552685	-0.014352
23118	9.393247	0.927415	1.102581	0.294441	-0.301554	0.021858	-0.038034	0.088720	0.995330	0.553875	-0.827175	0.094896	0.831731	0.554897	-0.017679
23119	9.471781	0.904052	0.841403	0.344899	-0.330109	0.035753	-0.035021	0.090254	0.995303	0.556797	-0.825264	0.094427	0.829910	0.557488	-0.021351
23120	9.571824	0.869095	0.755426	0.372766	-0.340670	0.054405	-0.031841	0.091701	0.995277	0.559955	-0.823200	0.093760	0.827911	0.560296	-0.025137
23121	9.572618	0.855616	0.627653	0.402260	-0.362999	0.070042	-0.028374	0.093159	0.995247	0.563345	-0.820981	0.092908	0.825734	0.563304	-0.029186
23122	9.683984	0.904653	0.558987	0.436847	-0.384645	0.079233	-0.024703	0.094674	0.995202	0.567012	-0.818562	0.091945	0.823339	0.566563	-0.033461
23123	9.893966	1.083350	0.619135	0.451948	-0.396540	0.070192	-0.020972	0.096349	0.995127	0.570786	-0.816036	0.091038	0.820831	0.569914	-0.037881
23124	9.837986	1.182832	0.603512	0.440193	-0.399315	0.053913	-0.017337	0.098186	0.995017	0.574437	-0.813554	0.090289	0.818365	0.573140	-0.042297
23125	9.630674	0.998866	0.591441	0.433232	-0.406227	0.056758	-0.013619	0.100055	0.994889	0.578028	-0.811096	0.089484	0.815904	0.576292	-0.046789
23126	9.476232	0.744175	0.589221	0.453632	-0.410000	0.076528	-0.009785	0.101799	0.994757	0.581764	-0.808532	0.088464	0.813298	0.579580	-0.051312
23127	9.499386	0.822759	0.638416	0.525700	-0.429694	0.103270	-0.005622	0.103461	0.994618	0.586081	-0.805556	0.087107	0.810233	0.583416	-0.056107
23128	9.733439	1.085757	0.778362	0.580560	-0.431474	0.113076	-0.001419	0.105070	0.994464	0.590823	-0.802247	0.085604	0.806800	0.587673	-0.060939
23129	9.861712	1.304090	1.079218	0.592281	-0.414168	0.106724	0.002620	0.106655	0.994293	0.595631	-0.798842	0.084120	0.803254	0.592011	-0.065620
23130	9.605366	1.330051	1.308972	0.580844	-0.384028	0.091134	0.006290	0.108202	0.994109	0.600327	-0.795459	0.082782	0.799730	0.596270	-0.069960
23131	9.234486	1.269276	1.512370	0.575336	-0.371651	0.092487	0.009885	0.109689	0.993917	0.604950	-0.792092	0.081399	0.796202	0.600465	-0.074187
23132	9.077315	1.296603	1.383100	0.618059	-0.402413	0.118181	0.013848	0.111176	0.993704	0.609875	-0.788478	0.079716	0.792377	0.604931	-0.078722
23133	9.363862	1.278783	1.177955	0.668147	-0.444147	0.159151	0.018404	0.112620	0.993468	0.615169	-0.784573	0.077543	0.788181	0.609723	-0.083720
23134	9.826166	1.209201	1.107117	0.721359	-0.473794	0.184986	0.023318	0.114066	0.993199	0.620837	-0.780340	0.075044	0.783593	0.614865	-0.089013
23135	9.873233	0.988530	0.706125	0.771343	-0.519998	0.200489	0.028703	0.115717	0.992867	0.626848	-0.775781	0.072294	0.778613	0.620302	-0.094804
23136	9.529722	0.695107	0.183767	0.850912	-0.589064	0.218706	0.034695	0.117693	0.992444	0.633407	-0.770713	0.069254	0.773041	0.626218	-0.101288
23137	9.532468	0.607531	-0.061572	0.901068	-0.650107	0.246711	0.041344	0.119890	0.991926	0.640289	-0.765310	0.065812	0.767021	0.632398	-0.108405
23138	9.638866	0.858397	0.012967	0.916430	-0.673614	0.266864	0.048253	0.122130	0.991340	0.647203	-0.759784	0.062100	0.760789	0.638602	-0.115705
23139	9.954043	1.253777	0.084533	0.876374	-0.668814	0.267483	0.055133	0.124397	0.990700	0.653741	-0.754465	0.058353	0.754707	0.644444	-0.122919
23140	10.095354	1.355422	0.244957	0.799339	-0.650239	0.263802	0.061799	0.126616	0.990025	0.659626	-0.749601	0.054693	0.749049	0.649666	-0.129844
23141	10.255373	1.614953	0.676914	0.740111	-0.617395	0.234333	0.068031	0.128894	0.989322	0.665033	-0.745048	0.051337	0.743709	0.654439	-0.136405
23142	9.929122	2.205405	0.924619	0.679939	-0.561681	0.195260	0.073544	0.131131	0.988633	0.669954	-0.740822	0.048424	0.738751	0.658777	-0.142335
23143	9.699894	2.678394	0.753611	0.588500	-0.610882	0.189879	0.079391	0.133767	0.987828	0.674177	-0.737159	0.045640	0.734291	0.662347	-0.148706
23144	10.569891	2.319489	0.408750	0.442970	-0.642250	0.204795	0.085516	0.136516	0.986940	0.677285	-0.734469	0.042909	0.730734	0.664770	-0.155269
23145	11.021167	1.513042	0.039291	0.348577	-0.577201	0.212416	0.091238	0.138805	0.986108	0.679672	-0.732413	0.040209	0.727820	0.666561	-0.161166
23146	10.964426	0.870046	-0.311849	0.315295	-0.494581	0.224763	0.096405	0.140457	0.985382	0.681781	-0.730598	0.037438	0.725176	0.668206	-0.166194
23147	10.989758	0.255472	-0.686402	0.281864	-0.409910	0.255228	0.101186	0.141341	0.984776	0.683602	-0.729044	0.034397	0.722807	0.669714	-0.170390
23148	11.210089	-0.303260	-0.768280	0.267529	-0.289046	0.274935	0.105194	0.141274	0.984366	0.685274	-0.727617	0.031195	0.720648	0.671279	-0.173352
23149	11.045137	-0.556698	-0.598257	0.272031	-0.150078	0.270118	0.108198	0.140324	0.984176	0.686975	-0.726141	0.028009	0.718581	0.673074	-0.174966
23150	10.916958	-0.375147	-0.285960	0.280961	-0.025059	0.242580	0.110083	0.138733	0.984193	0.688747	-0.724568	0.025099	0.716596	0.675096	-0.175314
23151	11.077699	-0.196494	0.286838	0.284296	0.115975	0.221548	0.110852	0.136350	0.984439	0.690568	-0.722922	0.022368	0.714723	0.677342	-0.174297
23152	10.921353	-0.309040	0.893415	0.270712	0.283024	0.203839	0.110274	0.132959	0.984968	0.692289	-0.721346	0.019866	0.713144	0.679692	-0.171592
23153	10.752111	-0.274349	1.850042	0.280538	0.453905	0.206212	0.108541	0.128387	0.985766	0.694093	-0.719677	0.017306	0.711655	0.682336	-0.167227
23154	10.852207	-0.096857	2.770873	0.326622	0.644497	0.224154	0.105547	0.122368	0.986857	0.696190	-0.717711	0.014536	0.710056	0.685505	-0.160944
23155	11.018507	0.058873	3.391409	0.409492	0.858279	0.248846	0.101268	0.114691	0.988226	0.698867	-0.715161	0.011384	0.708047	0.689486	-0.152577
23156	11.193695	0.333842	3.931254	0.486742	1.093570	0.243461	0.095271	0.105384	0.989857	0.702086	-0.712044	0.008233	0.705690	0.694181	-0.141826
23157	11.133110	0.813934	4.194012	0.546471	1.327464	0.203446	0.087424	0.094696	0.991660	0.705781	-0.708409	0.005427	0.703015	0.699421	-0.128766
23158	11.237908	1.321923	4.418145	0.601578	1.523689	0.136250	0.077727	0.083025	0.993512	0.709911	-0.704283	0.003315	0.699989	0.705047	-0.113683
23159	11.300896	1.904268	4.617843	0.603925	1.715308	0.026773	0.066008	0.070703	0.995311	0.714142	-0.699997	0.002364	0.696881	0.710638	-0.096698
23160	11.204351	2.389599	4.560577	0.583170	1.889903	-0.085694	0.052271	0.057806	0.996958	0.718278	-0.695751	0.002681	0.693790	0.715953	-0.077888
23161	11.146932	2.637695	4.273585	0.581703	2.009153	-0.184696	0.037105	0.044659	0.998313	0.722420	-0.691443	0.004081	0.690458	0.721050	-0.057919
23162	11.363484	2.729061	3.834468	0.609095	2.076543	-0.279874	0.020791	0.031545	0.999286	0.726728	-0.686894	0.006563	0.686611	0.726073	-0.037205
23163	11.696294	2.567360	3.026794	0.593654	2.094243	-0.380043	0.003755	0.018902	0.999814	0.730873	-0.682438	0.010157	0.682504	0.730699	-0.016377
23164	12.100613	2.129450	1.869194	0.554268	2.021367	-0.493737	-0.013610	0.007431	0.999880	0.734654	-0.678276	0.015041	0.678306	0.734770	0.003773
23165	12.733070	1.323529	0.652013	0.451774	1.926386	-0.595818	-0.030956	-0.002712	0.999517	0.737612	-0.674898	0.021013	0.674515	0.737906	0.022893
23166	13.275639	0.514687	-0.432507	0.413946	1.846796	-0.660300	-0.048252	-0.011936	0.998764	0.740169	-0.671849	0.027730	0.670688	0.740592	0.041253
23167	13.681516	-0.162937	-1.520082	0.473730	1.788258	-0.687116	-0.065230	-0.020591	0.997658	0.742982	-0.668407	0.034784	0.666126	0.743510	0.058899
23168	13.847973	-0.387588	-2.343880	0.634609	1.761000	-0.668717	-0.081882	-0.029279	0.996212	0.746732	-0.663806	0.041867	0.660066	0.747331	0.076217
23169	13.500948	-0.366949	-2.784132	0.715575	1.779293	-0.652261	-0.098379	-0.038288	0.994412	0.750880	-0.658624	0.048927	0.653071	0.751497	0.093545
23170	13.119086	-0.186866	-3.020136	0.692885	1.799878	-0.623765	-0.114755	-0.047768	0.992245	0.754749	-0.653634	0.055821	0.645899	0.755302	0.111061
23171	12.872118	-0.084732	-2.538805	0.530216	1.867777	-0.572530	-0.131020	-0.058155	0.989673	0.757491	-0.649885	0.062093	0.639563	0.757804	0.129200
23172	13.068293	0.544124	-1.761450	0.381452	1.989084	-0.527166	-0.147669	-0.069830	0.986569	0.759220	-0.647291	0.067824	0.633861	0.759038	0.148601
23173	12.619888	1.359033	-1.859426	0.171725	2.065235	-0.493966	-0.164395	-0.082294	0.982956	0.759573	-0.646322	0.072924	0.629304	0.758615	0.168760
23174	12.201461	0.998525	-1.858494	-0.081069	2.054536	-0.485162	-0.180959	-0.094723	0.978918	0.758260	-0.647326	0.077532	0.626335	0.756305	0.188964
23175	11.815047	0.540587	-1.691083	-0.254674	2.076865	-0.531261	-0.197899	-0.106934	0.974372	0.755701	-0.649740	0.082180	0.624301	0.752597	0.209393
23176	11.003628	0.359026	-1.848904	-0.397010	2.134669	-0.570347	-0.215492	-0.119233	0.969199	0.752082	-0.653323	0.086845	0.622846	0.747631	0.230458
23177	10.081668	-0.005752	-1.908778	-0.542326	2.141791	-0.564144	-0.232985	-0.131468	0.963553	0.747482	-0.658025	0.090958	0.622084	0.741430	0.251581
23178	9.203535	-0.260373	-2.093616	-0.687731	2.126036	-0.513473	-0.250012	-0.143759	0.957511	0.742000	-0.663765	0.094084	0.622037	0.733995	0.272618
23179	8.495072	-0.294108	-2.351266	-0.801899	2.114428	-0.445830	-0.266396	-0.156205	0.951122	0.735901	-0.670243	0.096040	0.622481	0.725517	0.293502
23180	7.819570	-0.023198	-2.433265	-0.916665	2.145720	-0.425747	-0.282853	-0.168799	0.944193	0.729060	-0.677501	0.097285	0.623270	0.715891	0.314698
23181	7.231582	0.222274	-2.130277	-1.117356	2.168471	-0.452388	-0.299601	-0.181106	0.936718	0.720812	-0.686185	0.097878	0.625035	0.704522	0.336125
23182	6.823938	0.169269	-1.824472	-1.370993	2.123860	-0.491428	-0.316398	-0.192526	0.928884	0.710746	-0.696630	0.097707	0.628277	0.691115	0.357249
23183	6.563730	-0.014917	-1.515291	-1.595696	2.046020	-0.517256	-0.332879	-0.202871	0.920888	0.699051	-0.708517	0.096605	0.632866	0.675905	0.377668
23184	6.073975	-0.154958	-1.189181	-1.781868	1.933514	-0.520447	-0.348742	-0.212054	0.912914	0.685989	-0.721452	0.094474	0.638590	0.659197	0.397067
23185	5.642399	-0.494669	-1.093725	-1.941660	1.777159	-0.485329	-0.363381	-0.220072	0.905275	0.671843	-0.735084	0.090982	0.645431	0.641264	0.414970
23186	5.245823	-1.000120	-1.014905	-2.004467	1.604930	-0.406594	-0.376465	-0.227197	0.898140	0.657371	-0.748625	0.086168	0.652792	0.622850	0.431184
23187	4.910602	-1.523459	-0.917371	-1.944039	1.383139	-0.289382	-0.387362	-0.233505	0.891867	0.643553	-0.761186	0.080222	0.660144	0.605039	0.445127
23188	5.064814	-1.802127	-0.573596	-1.651489	1.114802	-0.144417	-0.395636	-0.239058	0.886749	0.632080	-0.771355	0.074063	0.666293	0.589798	0.456280
23189	4.915873	-2.045928	-0.103233	-1.282502	0.819549	0.021438	-0.400916	-0.244012	0.883020	0.623641	-0.778752	0.067952	0.671072	0.577931	0.464390
23190	4.976100	-2.132293	0.159988	-0.885065	0.467103	0.144901	-0.403116	-0.247826	0.880954	0.618316	-0.783437	0.062542	0.674672	0.569920	0.469051
23191	5.470298	-1.988115	0.231935	-0.506632	0.130903	0.229187	-0.402521	-0.250371	0.880506	0.615867	-0.785703	0.058127	0.677263	0.565672	0.470457
23192	6.330313	-1.763007	-0.013059	-0.195854	-0.160423	0.272495	-0.399707	-0.251610	0.881434	0.615681	-0.786088	0.054803	0.679096	0.564587	0.469116
23193	7.815329	-1.630859	-0.053388	0.029776	-0.351401	0.313981	-0.395318	-0.252094	0.883274	0.617183	-0.785089	0.052155	0.680300	0.565760	0.465948
23194	8.728871	-1.132753	0.680378	0.085336	-0.396410	0.395110	-0.390125	-0.252950	0.885336	0.619365	-0.783569	0.049051	0.681314	0.567482	0.462358
23195	8.843709	-0.520290	1.584209	0.100062	-0.407231	0.453542	-0.384468	-0.254188	0.887453	0.621856	-0.781810	0.045474	0.682261	0.569351	0.458649
23196	8.984348	0.978687	3.754229	0.652523	-0.460169	0.273320	-0.379572	-0.253686	0.889701	0.627394	-0.777341	0.046015	0.679928	0.575659	0.454218
23197	10.097787	5.217367	9.178576	1.682265	-0.470348	-0.268108	-0.378024	-0.248876	0.891717	0.637793	-0.768170	0.055985	0.671057	0.589894	0.449118
23198	10.061136	10.250152	13.218365	1.755727	-0.591777	-0.704191	-0.378551	-0.239960	0.893934	0.646879	-0.759364	0.070095	0.662001	0.604802	0.442684
23199	9.669750	6.448058	13.154404	0.030949	-0.648601	-0.415402	-0.376869	-0.232876	0.896515	0.645566	-0.760117	0.073931	0.664240	0.606622	0.436801
23200	8.896699	1.243731	12.774676	-0.987288	-0.294663	-0.041490	-0.375125	-0.230778	0.897788	0.638860	-0.766131	0.070001	0.671668	0.599820	0.434830
23201	7.907363	-1.904085	12.651943	-1.648715	0.062648	0.209286	-0.374156	-0.232765	0.897679	0.628537	-0.775390	0.060921	0.681871	0.587019	0.436418
23202	7.869875	-3.269048	12.831348	-1.210277	0.262596	0.054596	-0.375577	-0.234723	0.896575	0.620497	-0.782269	0.055130	0.688423	0.577027	0.439447
23203	7.508180	-1.265713	12.944311	-0.448167	0.330712	-0.212698	-0.379106	-0.234960	0.895027	0.616657	-0.785305	0.055040	0.689937	0.572791	0.442603
23204	6.192654	-0.838703	10.385884	-0.218217	0.287378	-0.299482	-0.382898	-0.234261	0.893595	0.614059	-0.787218	0.056745	0.690160	0.570447	0.445274
23205	3.962080	-0.681774	6.686968	0.075728	0.204527	-0.197565	-0.385455	-0.233877	0.892595	0.613874	-0.787209	0.058830	0.688900	0.570617	0.447004
23206	0.948890	0.028416	2.605002	0.516003	-0.326584	-0.180764	-0.384289	-0.230602	0.893949	0.616778	-0.784633	0.062736	0.686955	0.575476	0.443756
23207	3.527885	1.396312	1.251199	0.535784	-1.172313	-0.208465	-0.377452	-0.222185	0.898980	0.619719	-0.781964	0.066935	0.688098	0.582379	0.432846
23208	10.004351	3.681702	1.815554	0.322557	-1.243727	-0.224327	-0.370238	-0.213173	0.904146	0.621153	-0.780528	0.070329	0.690719	0.587651	0.421394
23209	13.242142	5.942865	4.527216	-0.186063	-0.677664	-0.243684	-0.366990	-0.207289	0.906835	0.619017	-0.782094	0.071737	0.694360	0.587673	0.415336
23210	14.177882	4.834659	7.098223	-0.939988	-0.342964	-0.155139	-0.365522	-0.204079	0.908155	0.611936	-0.787870	0.069248	0.701376	0.581045	0.412867
23211	15.870264	2.651975	9.156052	-1.385040	-0.122951	-0.036351	-0.364808	-0.203087	0.908664	0.602080	-0.795880	0.063842	0.710222	0.570378	0.412617
23212	14.441367	-0.244556	7.443271	-1.836146	-0.162378	0.039441	-0.363383	-0.202500	0.909366	0.589124	-0.806106	0.055908	0.721724	0.556045	0.412223
23213	12.675948	-4.362202	3.050143	-2.169944	-0.452474	0.136543	-0.359224	-0.201137	0.911319	0.573854	-0.817680	0.045733	0.735968	0.539392	0.409153
23214	10.385452	-7.650126	-0.469871	-1.566606	-0.491493	-0.103896	-0.356140	-0.197678	0.913284	0.561919	-0.826210	0.040293	0.746599	0.527542	0.405326
23215	7.978398	-5.609110	-1.799909	-0.528262	-0.587291	-0.342021	-0.353587	-0.191765	0.915534	0.556802	-0.829619	0.041272	0.751630	0.524364	0.400118
23216	6.870038	-3.594710	-3.166768	-0.043570	-0.730631	-0.234898	-0.349354	-0.186002	0.918344	0.555701	-0.830257	0.043237	0.754419	0.525430	0.393415
23217	7.971527	-2.183335	-3.197930	0.679721	-0.825729	-0.063515	-0.343415	-0.181116	0.921555	0.560660	-0.826743	0.046446	0.753477	0.532629	0.385460
23218	8.903461	-0.868585	-2.079405	1.236300	-0.882295	-0.011567	-0.336805	-0.176289	0.924924	0.569964	-0.820070	0.051244	0.749469	0.544432	0.376683
23219	9.482714	0.233101	-0.799509	1.450534	-1.031707	-0.081588	-0.329500	-0.169942	0.928736	0.580581	-0.812179	0.057366	0.744551	0.558108	0.366278
23220	10.034067	1.395303	0.051002	1.445186	-1.217828	-0.141266	-0.321238	-0.161936	0.933050	0.590900	-0.804213	0.063865	0.740029	0.571856	0.354031
23221	10.539855	2.435657	0.653409	1.177077	-1.299338	-0.096719	-0.312148	-0.153659	0.937524	0.599339	-0.797530	0.068835	0.737127	0.583382	0.341042
23222	10.579845	2.703607	1.104430	0.697743	-1.270232	-0.047502	-0.303021	-0.145835	0.941759	0.604385	-0.793468	0.071596	0.736815	0.590881	0.328578
23223	10.146415	2.557267	1.314688	0.259640	-1.219500	-0.096965	-0.294542	-0.137839	0.945646	0.606062	-0.792031	0.073323	0.738873	0.594717	0.316825
23224	9.595265	2.369169	1.488755	-0.012041	-1.171751	-0.161916	-0.286792	-0.129587	0.949188	0.605551	-0.792284	0.074799	0.742333	0.596233	0.305692
23225	8.991414	2.368807	1.674476	-0.126817	-1.160318	-0.183823	-0.279198	-0.121211	0.952553	0.604137	-0.793235	0.076138	0.746369	0.596730	0.294697
23226	8.828452	2.533355	2.046090	-0.177883	-1.166365	-0.139893	-0.271259	-0.113145	0.955833	0.602468	-0.794426	0.076938	0.750634	0.596729	0.283661
23227	8.767072	2.138325	2.306817	-0.292240	-1.172993	-0.062403	-0.262731	-0.105657	0.959067	0.600151	-0.796202	0.076693	0.755507	0.595734	0.272598
23228	9.263265	1.437673	2.719710	-0.403185	-1.142336	0.006633	-0.253978	-0.098920	0.962138	0.597158	-0.798560	0.075531	0.760853	0.593732	0.261888
23229	9.602022	0.798553	3.263891	-0.496725	-1.065973	0.020519	-0.245646	-0.092773	0.964910	0.593465	-0.801448	0.074027	0.766457	0.590825	0.251931
23230	9.625070	0.201653	3.403094	-0.509983	-0.988780	-0.011399	-0.238056	-0.086860	0.967360	0.589562	-0.804431	0.072854	0.771846	0.587662	0.242709
23231	9.318127	-0.173729	3.228232	-0.387765	-0.976613	-0.046661	-0.230701	-0.080759	0.969668	0.586500	-0.806711	0.072351	0.776399	0.585402	0.233474
23232	9.296489	-0.480042	3.091739	-0.213747	-0.976635	-0.064949	-0.223430	-0.074528	0.971867	0.584736	-0.807980	0.072469	0.779848	0.584477	0.224106
23233	9.548832	-0.328779	3.135461	-0.009119	-0.919730	-0.067815	-0.216574	-0.068605	0.973853	0.584565	-0.808049	0.073076	0.781908	0.585106	0.215107
23234	9.769408	-0.033896	3.466894	0.142624	-0.827618	-0.065363	-0.210429	-0.063235	0.975562	0.585588	-0.807225	0.073988	0.782820	0.586846	0.206893
23235	9.771143	-0.061560	3.715081	0.308568	-0.722438	-0.061420	-0.205065	-0.058493	0.976999	0.587924	-0.805415	0.075181	0.782492	0.589818	0.199552
23236	9.505193	0.316904	3.885925	0.482761	-0.643279	-0.056075	-0.200315	-0.054242	0.978229	0.591630	-0.802557	0.076649	0.780927	0.594104	0.192856
23237	9.280699	0.464620	4.106865	0.634428	-0.589660	-0.039508	-0.195883	-0.050410	0.979331	0.596547	-0.798759	0.078204	0.778307	0.599535	0.186535
23238	8.602391	0.892785	3.739590	0.772127	-0.616412	-0.029404	-0.191221	-0.046469	0.980446	0.602532	-0.794088	0.079878	0.774848	0.606024	0.179846
23239	8.428050	1.100789	2.476183	0.911599	-0.742439	-0.004293	-0.185439	-0.041909	0.981762	0.609616	-0.788498	0.081488	0.770702	0.613608	0.171767
23240	8.879398	1.372093	1.261948	1.040220	-0.843202	0.048031	-0.178617	-0.037085	0.983220	0.617740	-0.782019	0.082726	0.765829	0.622150	0.162591
23241	9.207198	1.788261	0.246161	1.104481	-0.892209	0.089913	-0.171178	-0.032194	0.984714	0.626372	-0.775034	0.083547	0.760497	0.631099	0.152834
23242	9.420894	2.408170	-0.438793	1.068683	-0.932570	0.121166	-0.163296	-0.027209	0.986202	0.634718	-0.768175	0.083903	0.755293	0.639661	0.142710
23243	9.783728	2.806763	-0.844792	0.911979	-0.952095	0.154464	-0.155069	-0.022265	0.987653	0.641877	-0.762237	0.083596	0.750964	0.646915	0.132491
23244	10.090770	3.082839	-0.992700	0.685557	-0.935315	0.161644	-0.146967	-0.017419	0.988988	0.647301	-0.757719	0.082845	0.747932	0.652348	0.122635
23245	10.270771	3.087151	-0.948491	0.417303	-0.900095	0.167547	-0.139083	-0.012797	0.990198	0.650703	-0.754931	0.081641	0.746486	0.655679	0.113325
23246	10.312415	2.658582	-0.862900	0.145911	-0.870395	0.168000	-0.131439	-0.008350	0.991289	0.652059	-0.753924	0.080109	0.746688	0.656908	0.104540
23247	10.273873	1.760141	-0.628433	-0.093631	-0.816775	0.168562	-0.124164	-0.004255	0.992253	0.651618	-0.754495	0.078303	0.748316	0.656292	0.096454
23248	10.085396	1.165362	-0.215032	-0.229192	-0.775791	0.172948	-0.117172	-0.000472	0.993112	0.650148	-0.755962	0.076348	0.750719	0.654615	0.088884
23249	9.974858	0.594833	0.199125	-0.318960	-0.735174	0.164784	-0.110501	0.003087	0.993871	0.647979	-0.758016	0.074399	0.753600	0.652229	0.081761
23250	9.844260	0.438313	0.664257	-0.303930	-0.692802	0.147012	-0.104268	0.006487	0.994528	0.645881	-0.759971	0.072672	0.756284	0.649924	0.075050
23251	9.755550	0.506937	1.115699	-0.274627	-0.654116	0.120736	-0.098463	0.009815	0.995092	0.643966	-0.761731	0.071232	0.758692	0.647819	0.068682
23252	9.558779	0.501432	1.471710	-0.232842	-0.624170	0.097759	-0.093039	0.013112	0.995576	0.642329	-0.763219	0.070079	0.760761	0.646007	0.062587
23253	9.267719	0.325416	1.546639	-0.179209	-0.610912	0.100594	-0.087669	0.016287	0.996016	0.641097	-0.764358	0.068928	0.762436	0.644586	0.056569
23254	9.075723	0.083545	1.390309	-0.072336	-0.633742	0.129072	-0.081955	0.019386	0.996447	0.640693	-0.764818	0.067575	0.763411	0.643955	0.050260
23255	9.102342	-0.143218	1.276202	0.077651	-0.675497	0.163916	-0.075676	0.022486	0.996879	0.641457	-0.764320	0.065935	0.763417	0.644445	0.043417
23256	9.352202	0.009337	1.016579	0.253160	-0.722519	0.191596	-0.068881	0.025688	0.997294	0.643565	-0.762703	0.064095	0.762286	0.646238	0.036004
23257	9.446340	0.287644	0.713598	0.397025	-0.783639	0.204477	-0.061524	0.029208	0.997678	0.646762	-0.760156	0.062139	0.760206	0.649083	0.027877
23258	9.499570	0.477199	0.264418	0.503088	-0.848156	0.219110	-0.053615	0.033069	0.998014	0.650743	-0.756921	0.060039	0.757403	0.652669	0.019063
23259	9.486219	0.645696	-0.078480	0.577582	-0.912426	0.238870	-0.045088	0.037241	0.998289	0.655266	-0.753192	0.057693	0.754051	0.656746	0.009557
23260	9.648191	0.879266	-0.281905	0.626599	-0.966992	0.261924	-0.036039	0.041648	0.998482	0.660122	-0.749137	0.055074	0.750293	0.661105	-0.000495
23261	9.973593	0.989316	-0.171461	0.602788	-0.989680	0.292451	-0.026623	0.046030	0.998585	0.664764	-0.745236	0.052075	0.746579	0.665210	-0.010759
23262	10.246515	1.027443	0.230113	0.567369	-0.979887	0.296935	-0.017292	0.050363	0.998581	0.669090	-0.741565	0.048987	0.742980	0.668988	-0.020874
23263	10.504117	0.978803	0.960983	0.492320	-0.941912	0.279117	-0.008364	0.054618	0.998472	0.672814	-0.738379	0.046027	0.739764	0.672171	-0.030572
23264	10.480717	1.127330	1.875942	0.420142	-0.867059	0.244537	-0.000261	0.058660	0.998278	0.675961	-0.735658	0.043405	0.736938	0.674808	-0.039459
23265	10.142634	1.471044	2.676122	0.323994	-0.769975	0.209993	0.006898	0.062325	0.998032	0.678375	-0.733564	0.041121	0.734684	0.676756	-0.047340
23266	9.723476	1.644958	3.188934	0.244238	-0.685593	0.191635	0.013280	0.065569	0.997760	0.680181	-0.732003	0.039051	0.732924	0.678139	-0.054320
23267	9.406671	1.537822	3.534566	0.192049	-0.634882	0.179689	0.019224	0.068568	0.997461	0.681594	-0.730789	0.037100	0.731478	0.679151	-0.060784
23268	9.236835	1.455694	3.611687	0.194453	-0.597925	0.175375	0.024835	0.071353	0.997142	0.683009	-0.729561	0.035194	0.729988	0.680183	-0.066854
23269	9.023864	1.348062	3.371579	0.237307	-0.584676	0.200241	0.030539	0.073880	0.996799	0.684719	-0.728060	0.032984	0.728167	0.681520	-0.072821
23270	9.053095	1.160754	2.989249	0.318282	-0.594791	0.240434	0.036554	0.076191	0.996423	0.686984	-0.726040	0.030314	0.725752	0.683419	-0.078882
23271	8.986277	0.995702	2.367149	0.427912	-0.632342	0.291504	0.043211	0.078414	0.995984	0.690002	-0.723304	0.027010	0.722517	0.686063	-0.085361
23272	9.109533	0.457339	1.513959	0.538372	-0.712412	0.361350	0.050883	0.080705	0.995438	0.693742	-0.719860	0.022901	0.718424	0.689412	-0.092617
23273	9.505919	-0.328143	0.860801	0.644942	-0.785551	0.421124	0.059510	0.083120	0.994761	0.698160	-0.715714	0.018037	0.713464	0.693429	-0.100623
23274	9.882121	-0.790665	0.650075	0.744964	-0.783559	0.451080	0.068276	0.085352	0.994009	0.703197	-0.710881	0.012740	0.707710	0.698114	-0.108556
23275	9.991039	-0.788485	0.733727	0.828319	-0.761294	0.446054	0.076860	0.087535	0.993192	0.708741	-0.705431	0.007326	0.701270	0.703352	-0.116259
23276	9.933243	-0.402828	0.871406	0.858124	-0.744895	0.427658	0.085139	0.089787	0.992315	0.714413	-0.699721	0.002017	0.694525	0.708751	-0.123719
23277	9.872185	0.065124	1.147189	0.845989	-0.727078	0.400609	0.093108	0.092176	0.991380	0.719934	-0.694036	-0.003085	0.687769	0.714015	-0.130981
23278	9.715734	0.848786	1.781368	0.821990	-0.711764	0.352992	0.100566	0.094833	0.990401	0.725248	-0.688445	-0.007722	0.681104	0.719062	-0.138012
23279	9.057401	1.845520	2.458585	0.799701	-0.683128	0.294658	0.107412	0.097751	0.989398	0.730391	-0.682927	-0.011821	0.674530	0.723917	-0.144751
23280	8.520123	2.717498	2.997098	0.728824	-0.673329	0.248517	0.113786	0.100945	0.988364	0.735039	-0.677850	-0.015391	0.668409	0.728237	-0.151329
23281	8.752051	4.103723	3.584340	0.693992	-0.595994	0.187471	0.119205	0.104042	0.987403	0.739467	-0.672942	-0.018366	0.662555	0.732342	-0.157154
23282	9.973435	5.800384	4.103823	0.630606	-0.469879	0.131923	0.123311	0.106603	0.986626	0.743496	-0.668420	-0.020703	0.657273	0.736105	-0.161683
23283	11.879119	5.732926	4.423963	0.228499	-0.240824	0.167110	0.126205	0.107273	0.986187	0.744814	-0.666883	-0.022776	0.655228	0.737401	-0.164062
23284	12.200473	3.698348	4.512785	-0.107028	0.122503	0.176446	0.126734	0.105188	0.986344	0.743916	-0.667829	-0.024365	0.656146	0.736845	-0.162888
23285	11.064788	1.511974	3.436429	-0.349706	0.297071	0.183822	0.126216	0.101783	0.986767	0.741411	-0.670560	-0.025666	0.659074	0.734840	-0.160098
23286	12.954969	-0.803892	2.152201	-0.445987	0.351146	0.192252	0.125331	0.097908	0.987272	0.738249	-0.673993	-0.026878	0.662783	0.732221	-0.156752
23287	15.215136	-2.945879	1.842372	-0.300589	0.700254	0.183861	0.122105	0.091554	0.988286	0.736052	-0.676333	-0.028286	0.665821	0.730884	-0.149972
23288	15.233673	-3.820314	2.044982	0.053178	1.116352	0.110200	0.115489	0.082631	0.989866	0.736304	-0.676008	-0.029475	0.666722	0.732247	-0.138913
23289	14.328738	-2.822031	2.553276	0.455890	1.467702	0.057546	0.106212	0.071475	0.991771	0.739305	-0.672671	-0.030696	0.664942	0.736482	-0.124288
23290	13.183803	-1.336180	2.741331	0.818898	1.745427	0.003609	0.094681	0.058522	0.993786	0.744759	-0.666580	-0.031702	0.660582	0.743133	-0.106698
23291	12.081823	-0.166392	2.306042	1.059361	1.913546	-0.110307	0.081345	0.044967	0.995671	0.751851	-0.658572	-0.031682	0.654296	0.751173	-0.087381
23292	11.583590	0.914865	1.960039	1.212707	2.011242	-0.262196	0.066289	0.031469	0.997304	0.759964	-0.649271	-0.030027	0.646576	0.759906	-0.066955
23293	11.605891	1.850327	1.403636	1.283234	2.024115	-0.415026	0.050188	0.018685	0.998565	0.768478	-0.639321	-0.026660	0.637906	0.768713	-0.046445
23294	12.661459	2.546730	0.584009	1.213789	1.959099	-0.526297	0.033714	0.006871	0.999408	0.776421	-0.629835	-0.021862	0.629312	0.776699	-0.026569
23295	13.721122	2.638488	-0.441558	0.957868	1.952619	-0.591216	0.016955	-0.004638	0.999845	0.782596	-0.622320	-0.016158	0.622299	0.782749	-0.006922
23296	13.769229	2.059074	-0.603621	0.511685	1.962952	-0.653003	-0.000340	-0.015995	0.999872	0.785856	-0.618334	-0.009624	0.618409	0.785752	0.012780
23297	13.232275	0.988745	-0.849168	0.146713	1.945145	-0.720885	-0.017955	-0.026815	0.999479	0.786728	-0.617295	-0.002428	0.617038	0.786275	0.032179
23298	13.237506	0.104702	-1.504880	-0.014194	1.940232	-0.731449	-0.035674	-0.037558	0.998657	0.786476	-0.617602	0.004867	0.616590	0.785594	0.051571
23299	13.241122	-0.554953	-1.864931	-0.083813	1.987091	-0.717070	-0.053491	-0.048708	0.997380	0.785673	-0.618527	0.011930	0.616326	0.784252	0.071354
23300	13.405598	-0.521303	-1.052250	-0.137769	2.067791	-0.683351	-0.071593	-0.060682	0.995586	0.784428	-0.619940	0.018623	0.616074	0.782299	0.091984
23301	13.606630	0.219461	-0.344696	-0.186502	2.149244	-0.661084	-0.089942	-0.073348	0.993242	0.782780	-0.621797	0.024966	0.615764	0.779736	0.113341
23302	13.055694	0.380889	-0.939256	-0.254692	2.122029	-0.693443	-0.108421	-0.085548	0.990417	0.780557	-0.624289	0.031525	0.615610	0.776495	0.134461
23303	12.789411	0.037158	-1.270290	-0.314350	2.016284	-0.764326	-0.126721	-0.096368	0.987246	0.777759	-0.627377	0.038591	0.615656	0.772730	0.154453
23304	12.992639	-0.021961	-1.599563	-0.413795	1.998414	-0.829125	-0.145454	-0.106553	0.983611	0.774115	-0.631365	0.046080	0.616108	0.768130	0.174318
23305	12.460652	-0.045084	-2.132049	-0.557381	2.027978	-0.809278	-0.164137	-0.116928	0.979483	0.769463	-0.636492	0.052961	0.617240	0.762369	0.194444
23306	11.225694	-0.520410	-2.941290	-0.713922	2.097248	-0.779362	-0.183064	-0.127861	0.974751	0.763731	-0.642823	0.059112	0.619034	0.755269	0.215329
23307	10.100099	-0.952773	-2.997137	-0.833812	2.179021	-0.736078	-0.202106	-0.139458	0.969384	0.757183	-0.650026	0.064350	0.621151	0.747006	0.236969
23308	9.151284	-1.748275	-3.271652	-0.974857	2.228708	-0.710002	-0.221311	-0.151357	0.963386	0.749646	-0.658254	0.068792	0.623740	0.737423	0.259144
23309	8.248959	-2.586058	-3.484516	-0.988800	2.214987	-0.675178	-0.240120	-0.163098	0.956944	0.741951	-0.666514	0.072575	0.625980	0.727432	0.281054
23310	7.830304	-2.312119	-3.319315	-0.987220	2.158852	-0.671595	-0.258588	-0.174189	0.950153	0.734124	-0.674737	0.076097	0.627848	0.717208	0.302356
